sender,sender_type,sender_id,timestamp,meta,,blockNo,condition,duration,ended_on,img_left,img_reveal,img_right,loser,practice,response,response_action,selection_duration,time_commit,time_end,time_render,time_run,time_show,time_switch,total_blocks,total_trials,trialNo,url,winner
informed_consent,html.Screen,0,2023-08-25T21:22:25.098Z,"{""labjs_version"":""20.2.4"",""labjs_build"":{""flavor"":""development"",""commit"":""f5b4a49f956347addd546a832a3327688c2c0fef""},""location"":""https://labjs.felixhenninger.com/api/labjs_preview/index.html"",""userAgent"":""Mozilla/5.0 (Windows NT 10.0; Win64; x64) AppleWebKit/537.36 (KHTML, like Gecko) Chrome/116.0.0.0 Safari/537.36"",""platform"":""Win32"",""language"":""en-AU"",""locale"":""en-US"",""timeZone"":""America/Chicago"",""timezoneOffset"":300,""screen_width"":1536,""screen_height"":864,""scroll_width"":1056,""scroll_height"":626,""window_innerWidth"":1056,""window_innerHeight"":674,""devicePixelRatio"":1.25}",,,,2663.243999976158,response,,,,,,consent,click button,,3674.7999999523163,3673.399999976158,993.541,1100.6000000238419,1010.156,3592.575,,,,{},
Welcome,html.Screen,1,2023-08-25T21:22:30.137Z,,,,regular,5120.324999976158,response,,,,,,continue,click button,,8714.199999928474,8712.899999976158,3575.605,3675.100000023842,3592.575,8618.774,,,,,
trial,html.Screen,2_0_0,2023-08-25T21:22:35.938Z,,0,0,,5895.326000023842,response,ISIC_0061792.JPG,,ISIC_4679428.JPG,ISIC_4679428.JPG,true,0,keypress(z),500,14514.5,14514.100000023842,8602.177,8714.5,8618.774,14419.087,1,6,1,,ISIC_0061792.JPG
sequence,flow.Sequence,2_0,2023-08-25T21:22:35.938Z,,0,,,5895.326000023842,completion,,,,,true,,,,14514.600000023842,14514.100000023842,8602.177,8714.399999976158,8618.774,14419.087,1,6,,,
trial,html.Screen,2_1_0,2023-08-25T21:22:39.283Z,,0,0,,3440.5130000238423,response,ISIC_0776486.JPG,,ISIC_5199497.JPG,ISIC_0776486.JPG,true,1,keypress(m),500,17859.799999952316,17859.600000023842,14416.148,14514.699999928474,14419.087,17773.272,1,6,2,,ISIC_5199497.JPG
sequence,flow.Sequence,2_1,2023-08-25T21:22:39.283Z,,0,,,3440.5130000238423,completion,,,,,true,,,,17860.100000023842,17859.600000023842,14416.148,14514.699999928474,14419.087,17773.272,1,6,,,
trial,html.Screen,2_2_0,2023-08-25T21:22:43.402Z,,0,0,,4205.627999976157,response,ISIC_2556187.JPG,,ISIC_8575776.JPG,ISIC_8575776.JPG,true,0,keypress(z),500,21979.199999928474,21978.899999976158,17759.105,17860.299999952316,17773.272,21888.589,1,6,3,,ISIC_2556187.JPG
sequence,flow.Sequence,2_2,2023-08-25T21:22:43.403Z,,0,,,4205.627999976157,completion,,,,,true,,,,21979.699999928474,21978.899999976158,17759.105,17860.299999952316,17773.272,21888.589,1,6,,,
trial,html.Screen,2_3_0,2023-08-25T21:22:46.637Z,,0,0,,3325.411,response,ISIC_8141769.JPG,,ISIC_9238366.JPG,ISIC_8141769.JPG,true,1,keypress(m),500,25214.199999928474,25214,21881.825,21980.100000023842,21888.589,25119.465,1,6,4,,ISIC_9238366.JPG
sequence,flow.Sequence,2_3,2023-08-25T21:22:46.638Z,,0,,,3325.411,completion,,,,,true,,,,25214.600000023842,25214,21881.825,21980,21888.589,25119.465,1,6,,,
trial,html.Screen,2_4_0,2023-08-25T21:22:49.696Z,,0,0,,3153.334999952316,response,ISIC_8949026.JPG,,ISIC_9959593.JPG,ISIC_9959593.JPG,true,0,keypress(z),500,28272.899999976158,28272.799999952316,25109.588,25214.799999952316,25119.465,28177.275,1,6,5,,ISIC_8949026.JPG
sequence,flow.Sequence,2_4,2023-08-25T21:22:49.696Z,,0,,,3153.334999952316,completion,,,,,true,,,,28273.100000023842,28272.799999952316,25109.588,25214.699999928474,25119.465,28177.275,1,6,,,
trial,html.Screen,2_5_0,2023-08-25T21:22:55.541Z,,0,0,,5940.024999952315,response,ISIC_0010479.JPG,,ISIC_0460240.JPG,ISIC_0010479.JPG,true,1,keypress(m),500,34117.60000002384,34117.299999952316,28167.894,28273.100000023842,28177.275,34037.129,1,6,6,,ISIC_0460240.JPG
sequence,flow.Sequence,2_5,2023-08-25T21:22:55.541Z,,0,,,5940.024999952315,completion,,,,,true,,,,34118,34117.299999952316,28167.894,28273.100000023842,28177.275,34037.129,1,6,,,
loop,flow.Loop,2,2023-08-25T21:22:55.541Z,,,,,25498.52599995232,completion,,,,,true,,,,34118.199999928474,34117.299999952316,8602.177,8714.399999976158,8618.774,34037.129,1,6,,,
exp_instructions,html.Screen,3,2023-08-25T21:22:57.088Z,,,,,1626.2709999761573,response,,,,,,continue,keypress(Space),,35664.299999952316,35663.39999997616,34020.162,34118.199999928474,34037.129,35585.98,,,,,
trial,html.Screen,4_0_0,2023-08-25T21:23:05.156Z,,0,1,,8146.819999952313,response,ISIC_0010803.JPG,,ISIC_0033071.JPG,ISIC_0033071.JPG,false,0,keypress(z),500,43733,43732.799999952316,35552.548,35664.60000002384,35585.98,43637.315,8,400,1,,ISIC_0010803.JPG
break,html.Screen,4_0_1,2023-08-25T21:23:05.157Z,,0,,,NaN,,,,,,false,,,,43733.699999928474,43733.5,,43733.10000002384,,43637.315,8,400,,,
break_continue,html.Screen,4_0_2,2023-08-25T21:23:05.157Z,,0,,,NaN,,,,,,false,,,,43733.89999997616,43733.799999952316,,43733.699999928474,,43637.315,8,400,,,
sequence,flow.Sequence,4_0,2023-08-25T21:23:05.157Z,,0,,,8147.819999952313,completion,,,,,false,,,,43733.89999997616,43733.799999952316,35552.548,35664.60000002384,35585.98,43637.315,8,400,,,
trial,html.Screen,4_1_0,2023-08-25T21:23:13.116Z,,0,1,,8054.7850000238395,response,ISIC_3389704.JPG,,ISIC_0025603.JPG,ISIC_3389704.JPG,false,1,keypress(m),500,51692.39999997616,51692.10000002384,43627.688,43734,43637.315,51597.238,8,400,2,,ISIC_0025603.JPG
break,html.Screen,4_1_1,2023-08-25T21:23:13.117Z,,0,,,NaN,,,,,,false,,,,51693.5,51693.199999928474,,51692.60000002384,,51597.238,8,400,,,
break_continue,html.Screen,4_1_2,2023-08-25T21:23:13.117Z,,0,,,NaN,,,,,,false,,,,51694,51693.89999997616,,51693.60000002384,,51597.238,8,400,,,
sequence,flow.Sequence,4_1,2023-08-25T21:23:13.117Z,,0,,,8056.584999976156,completion,,,,,false,,,,51694.199999928474,51693.89999997616,43627.688,43733.89999997616,43637.315,51597.238,8,400,,,
trial,html.Screen,4_2_0,2023-08-25T21:23:17.266Z,,0,1,,4245.061999952319,response,ISIC_0070351.JPG,,ISIC_0059547.JPG,ISIC_0059547.JPG,false,0,keypress(z),500,55842.5,55842.299999952316,51594.172,51694.199999928474,51597.238,55747.429,8,400,3,,ISIC_0070351.JPG
break,html.Screen,4_2_1,2023-08-25T21:23:17.267Z,,0,,,NaN,,,,,,false,,,,55844.299999952316,55843.299999952316,,55842.799999952316,,55747.429,8,400,,,
break_continue,html.Screen,4_2_2,2023-08-25T21:23:17.268Z,,0,,,NaN,,,,,,false,,,,55844.799999952316,55844.699999928474,,55844.39999997616,,55747.429,8,400,,,
sequence,flow.Sequence,4_2,2023-08-25T21:23:17.268Z,,0,,,4247.461999928477,completion,,,,,false,,,,55845.10000002384,55844.699999928474,51594.172,51694.199999928474,51597.238,55747.429,8,400,,,
trial,html.Screen,4_3_0,2023-08-25T21:23:22.621Z,,0,1,,5449.970999976162,response,ISIC_2228511.JPG,,ISIC_0028326.JPG,ISIC_2228511.JPG,false,1,keypress(m),500,61197.699999928474,61197.39999997616,55744.265,55845.299999952316,55747.429,61102.489,8,400,4,,ISIC_0028326.JPG
break,html.Screen,4_3_1,2023-08-25T21:23:22.622Z,,0,,,NaN,,,,,,false,,,,61199.39999997616,61198.39999997616,,61197.89999997616,,61102.489,8,400,,,
break_continue,html.Screen,4_3_2,2023-08-25T21:23:22.623Z,,0,,,NaN,,,,,,false,,,,61199.89999997616,61199.699999928474,,61199.5,,61102.489,8,400,,,
sequence,flow.Sequence,4_3,2023-08-25T21:23:22.623Z,,0,,,5452.270999928478,completion,,,,,false,,,,61200,61199.699999928474,55744.265,55845.199999928474,55747.429,61102.489,8,400,,,
trial,html.Screen,4_4_0,2023-08-25T21:23:28.834Z,,0,1,,6307.810999952315,response,ISIC_0034062.JPG,,ISIC_1777398.JPG,ISIC_0034062.JPG,false,1,keypress(m),500,67410.60000002384,67410.29999995232,61087.485,61200.10000002384,61102.489,67315.108,8,400,5,,ISIC_1777398.JPG
break,html.Screen,4_4_1,2023-08-25T21:23:28.834Z,,0,,,NaN,,,,,,false,,,,67411.29999995232,67411,,67410.69999992847,,67315.108,8,400,,,
break_continue,html.Screen,4_4_2,2023-08-25T21:23:28.835Z,,0,,,NaN,,,,,,false,,,,67412,67412,,67411.89999997616,,67315.108,8,400,,,
sequence,flow.Sequence,4_4,2023-08-25T21:23:28.835Z,,0,,,6309.510999999999,completion,,,,,false,,,,67412.10000002384,67412,61087.485,61200.10000002384,61102.489,67315.108,8,400,,,
trial,html.Screen,4_5_0,2023-08-25T21:23:33.300Z,,0,1,,4561.492000023849,response,ISIC_3496800.JPG,,ISIC_0538042.JPG,ISIC_3496800.JPG,false,1,keypress(m),500,71876.89999997616,71876.60000002384,67308.052,67412.10000002384,67315.108,71791.228,8,400,6,,ISIC_0538042.JPG
break,html.Screen,4_5_1,2023-08-25T21:23:33.301Z,,0,,,NaN,,,,,,false,,,,71878.10000002384,71877.79999995232,,71877.29999995232,,71791.228,8,400,,,
break_continue,html.Screen,4_5_2,2023-08-25T21:23:33.302Z,,0,,,NaN,,,,,,false,,,,71878.5,71878.39999997616,,71878.19999992847,,71791.228,8,400,,,
sequence,flow.Sequence,4_5,2023-08-25T21:23:33.302Z,,0,,,4563.291999976165,completion,,,,,false,,,,71878.79999995232,71878.39999997616,67308.052,67412.10000002384,67315.108,71791.228,8,400,,,
trial,html.Screen,4_6_0,2023-08-25T21:23:39.451Z,,0,1,,6236.171999976155,response,ISIC_0013565.JPG,,ISIC_0027321.JPG,ISIC_0013565.JPG,false,1,keypress(m),500,78027.5,78027.39999997616,71779.809,71878.89999997616,71791.228,77935.001,8,400,7,,ISIC_0027321.JPG
break,html.Screen,4_6_1,2023-08-25T21:23:39.451Z,,0,,,NaN,,,,,,false,,,,78028.10000002384,78027.89999997616,,78027.69999992847,,77935.001,8,400,,,
break_continue,html.Screen,4_6_2,2023-08-25T21:23:39.451Z,,0,,,NaN,,,,,,false,,,,78028.29999995232,78028.29999995232,,78028.10000002384,,77935.001,8,400,,,
sequence,flow.Sequence,4_6,2023-08-25T21:23:39.451Z,,0,,,6237.0719999523135,completion,,,,,false,,,,78028.39999997616,78028.29999995232,71779.809,71878.89999997616,71791.228,77935.001,8,400,,,
trial,html.Screen,4_7_0,2023-08-25T21:23:44.461Z,,0,1,,5102.498999999996,response,ISIC_8979275.JPG,,ISIC_3727059.JPG,ISIC_3727059.JPG,false,0,keypress(z),500,83037.79999995232,83037.5,77929.92,78028.39999997616,77935.001,82953.179,8,400,8,,ISIC_8979275.JPG
break,html.Screen,4_7_1,2023-08-25T21:23:44.463Z,,0,,,NaN,,,,,,false,,,,83039.79999995232,83039.60000002384,,83039.10000002384,,82953.179,8,400,,,
break_continue,html.Screen,4_7_2,2023-08-25T21:23:44.463Z,,0,,,NaN,,,,,,false,,,,83040.29999995232,83040.19999992847,,83040,,82953.179,8,400,,,
sequence,flow.Sequence,4_7,2023-08-25T21:23:44.464Z,,0,,,5105.198999928471,completion,,,,,false,,,,83040.5,83040.19999992847,77929.92,78028.39999997616,77935.001,82953.179,8,400,,,
trial,html.Screen,4_8_0,2023-08-25T21:23:48.709Z,,0,1,,4332.421000023838,response,ISIC_0010850.JPG,,ISIC_4264600.JPG,ISIC_0010850.JPG,false,1,keypress(m),500,87285.79999995232,87285.60000002384,82936.812,83040.60000002384,82953.179,87190.796,8,400,9,,ISIC_4264600.JPG
break,html.Screen,4_8_1,2023-08-25T21:23:48.711Z,,0,,,NaN,,,,,,false,,,,87287.69999992847,87286.69999992847,,87286.10000002384,,87190.796,8,400,,,
break_continue,html.Screen,4_8_2,2023-08-25T21:23:48.712Z,,0,,,NaN,,,,,,false,,,,87288.39999997616,87288.19999992847,,87287.89999997616,,87190.796,8,400,,,
sequence,flow.Sequence,4_8,2023-08-25T21:23:48.712Z,,0,,,4335.020999928471,completion,,,,,false,,,,87288.60000002384,87288.19999992847,82936.812,83040.60000002384,82953.179,87190.796,8,400,,,
trial,html.Screen,4_9_0,2023-08-25T21:23:52.411Z,,0,1,,3796.703999999998,response,ISIC_0000535.JPG,,ISIC_5552066.JPG,ISIC_5552066.JPG,false,0,keypress(z),500,90987.69999992847,90987.5,87188.569,87288.69999992847,87190.796,90892.378,8,400,10,,ISIC_0000535.JPG
break,html.Screen,4_9_1,2023-08-25T21:23:52.412Z,,0,,,NaN,,,,,,false,,,,90989.29999995232,90989.10000002384,,90988.10000002384,,90892.378,8,400,,,
break_continue,html.Screen,4_9_2,2023-08-25T21:23:52.413Z,,0,,,NaN,,,,,,false,,,,90989.60000002384,90989.5,,90989.39999997616,,90892.378,8,400,,,
sequence,flow.Sequence,4_9,2023-08-25T21:23:52.413Z,,0,,,3798.703999999998,completion,,,,,false,,,,90989.69999992847,90989.5,87188.569,87288.69999992847,87190.796,90892.378,8,400,,,
trial,html.Screen,4_10_0,2023-08-25T21:23:56.542Z,,0,1,,4226.622000000003,response,ISIC_0031561.JPG,,ISIC_8263489.JPG,ISIC_0031561.JPG,false,1,keypress(m),500,95119.19999992847,95119,90890.868,90989.69999992847,90892.378,95024.144,8,400,11,,ISIC_8263489.JPG
break,html.Screen,4_10_1,2023-08-25T21:23:56.544Z,,0,,,NaN,,,,,,false,,,,95120.5,95120.29999995232,,95119.5,,95024.144,8,400,,,
break_continue,html.Screen,4_10_2,2023-08-25T21:23:56.544Z,,0,,,NaN,,,,,,false,,,,95121.10000002384,95121,,95120.69999992847,,95024.144,8,400,,,
sequence,flow.Sequence,4_10,2023-08-25T21:23:56.544Z,,0,,,4228.622000000003,completion,,,,,false,,,,95121.19999992847,95121,90890.868,90989.69999992847,90892.378,95024.144,8,400,,,
trial,html.Screen,4_11_0,2023-08-25T21:24:00.915Z,,0,1,,4467.555999928474,response,ISIC_0011531.JPG,,ISIC_0013688.JPG,ISIC_0011531.JPG,false,1,keypress(m),500,99491.89999997616,99491.69999992847,95018.064,95121.60000002384,95024.144,99396.706,8,400,12,,ISIC_0013688.JPG
break,html.Screen,4_11_1,2023-08-25T21:24:00.917Z,,0,,,NaN,,,,,,false,,,,99493.5,99492.69999992847,,99492.10000002384,,99396.706,8,400,,,
break_continue,html.Screen,4_11_2,2023-08-25T21:24:00.917Z,,0,,,NaN,,,,,,false,,,,99493.89999997616,99493.69999992847,,99493.60000002384,,99396.706,8,400,,,
sequence,flow.Sequence,4_11,2023-08-25T21:24:00.917Z,,0,,,4469.555999928474,completion,,,,,false,,,,99494,99493.69999992847,95018.064,95121.39999997616,95024.144,99396.706,8,400,,,
trial,html.Screen,4_12_0,2023-08-25T21:24:06.487Z,,0,1,,5666.793999999994,response,ISIC_3565564.JPG,,ISIC_0033995.JPG,ISIC_3565564.JPG,false,1,keypress(m),500,105063.79999995232,105063.5,99390.325,99494.19999992847,99396.706,104968.705,8,400,13,,ISIC_0033995.JPG
break,html.Screen,4_12_1,2023-08-25T21:24:06.489Z,,0,,,NaN,,,,,,false,,,,105065.79999995232,105064.79999995232,,105064,,104968.705,8,400,,,
break_continue,html.Screen,4_12_2,2023-08-25T21:24:06.490Z,,0,,,NaN,,,,,,false,,,,105066.5,105066.39999997616,,105066,,104968.705,8,400,,,
sequence,flow.Sequence,4_12,2023-08-25T21:24:06.490Z,,0,,,5669.693999976153,completion,,,,,false,,,,105066.69999992847,105066.39999997616,99390.325,99494.10000002384,99396.706,104968.705,8,400,,,
trial,html.Screen,4_13_0,2023-08-25T21:24:10.305Z,,0,1,,3912.6949999761564,response,ISIC_0030119.JPG,,ISIC_0028109.JPG,ISIC_0030119.JPG,false,1,keypress(m),500,108881.69999992847,108881.39999997616,104952.167,105066.79999995232,104968.705,108786.577,8,400,14,,ISIC_0028109.JPG
break,html.Screen,4_13_1,2023-08-25T21:24:10.307Z,,0,,,NaN,,,,,,false,,,,108883.60000002384,108882.69999992847,,108882,,108786.577,8,400,,,
break_continue,html.Screen,4_13_2,2023-08-25T21:24:10.308Z,,0,,,NaN,,,,,,false,,,,108884.29999995232,108884.19999992847,,108883.79999995232,,108786.577,8,400,,,
sequence,flow.Sequence,4_13,2023-08-25T21:24:10.308Z,,0,,,3915.4949999284727,completion,,,,,false,,,,108884.5,108884.19999992847,104952.167,105066.69999992847,104968.705,108786.577,8,400,,,
trial,html.Screen,4_14_0,2023-08-25T21:24:14.487Z,,0,1,,4276.422999999995,response,ISIC_7161069.JPG,,ISIC_8257549.JPG,ISIC_7161069.JPG,false,1,keypress(m),500,113063.39999997616,113063,108784.796,108884.69999992847,108786.577,112968.454,8,400,15,,ISIC_8257549.JPG
break,html.Screen,4_14_1,2023-08-25T21:24:14.488Z,,0,,,NaN,,,,,,false,,,,113064.60000002384,113064.29999995232,,113063.60000002384,,112968.454,8,400,,,
break_continue,html.Screen,4_14_2,2023-08-25T21:24:14.488Z,,0,,,NaN,,,,,,false,,,,113065.10000002384,113065,,113064.69999992847,,112968.454,8,400,,,
sequence,flow.Sequence,4_14,2023-08-25T21:24:14.488Z,,0,,,4278.422999999995,completion,,,,,false,,,,113065.29999995232,113065,108784.796,108884.60000002384,108786.577,112968.454,8,400,,,
trial,html.Screen,4_15_0,2023-08-25T21:24:17.963Z,,0,1,,3570.9459999761602,response,ISIC_0033083.JPG,,ISIC_0728350.JPG,ISIC_0033083.JPG,false,1,keypress(m),500,116539.60000002384,116539.39999997616,112956.953,113065.5,112968.454,116444.698,8,400,16,,ISIC_0728350.JPG
break,html.Screen,4_15_1,2023-08-25T21:24:17.964Z,,0,,,NaN,,,,,,false,,,,116540.79999995232,116540.5,,116539.79999995232,,116444.698,8,400,,,
break_continue,html.Screen,4_15_2,2023-08-25T21:24:17.964Z,,0,,,NaN,,,,,,false,,,,116541.19999992847,116541.10000002384,,116540.89999997616,,116444.698,8,400,,,
sequence,flow.Sequence,4_15,2023-08-25T21:24:17.965Z,,0,,,3572.646000023844,completion,,,,,false,,,,116541.39999997616,116541.10000002384,112956.953,113065.29999995232,112968.454,116444.698,8,400,,,
trial,html.Screen,4_16_0,2023-08-25T21:24:20.896Z,,0,1,,3027.402000023838,response,ISIC_0645116.JPG,,ISIC_6666329.JPG,ISIC_6666329.JPG,false,0,keypress(z),500,119472.39999997616,119472.10000002384,116437.843,116541.39999997616,116444.698,119377.159,8,400,17,,ISIC_0645116.JPG
break,html.Screen,4_16_1,2023-08-25T21:24:20.897Z,,0,,,NaN,,,,,,false,,,,119473.5,119473.19999992847,,119472.60000002384,,119377.159,8,400,,,
break_continue,html.Screen,4_16_2,2023-08-25T21:24:20.897Z,,0,,,NaN,,,,,,false,,,,119473.60000002384,119473.60000002384,,119473.5,,119377.159,8,400,,,
sequence,flow.Sequence,4_16,2023-08-25T21:24:20.897Z,,0,,,3028.902000023838,completion,,,,,false,,,,119473.69999992847,119473.60000002384,116437.843,116541.39999997616,116444.698,119377.159,8,400,,,
trial,html.Screen,4_17_0,2023-08-25T21:24:24.501Z,,0,1,,3700.6409999523166,response,ISIC_0068776.JPG,,ISIC_4750271.JPG,ISIC_4750271.JPG,false,0,keypress(z),500,123078,123077.79999995232,119360.777,119473.69999992847,119377.159,122982.992,8,400,18,,ISIC_0068776.JPG
break,html.Screen,4_17_1,2023-08-25T21:24:24.503Z,,0,,,NaN,,,,,,false,,,,123080.10000002384,123079.10000002384,,123078.29999995232,,122982.992,8,400,,,
break_continue,html.Screen,4_17_2,2023-08-25T21:24:24.504Z,,0,,,NaN,,,,,,false,,,,123080.79999995232,123080.60000002384,,123080.29999995232,,122982.992,8,400,,,
sequence,flow.Sequence,4_17,2023-08-25T21:24:24.504Z,,0,,,3703.441000023842,completion,,,,,false,,,,123081,123080.60000002384,119360.777,119473.69999992847,119377.159,122982.992,8,400,,,
trial,html.Screen,4_18_0,2023-08-25T21:24:27.378Z,,0,1,,2971.207999928476,response,ISIC_0012450.JPG,,ISIC_0030970.JPG,ISIC_0030970.JPG,false,0,keypress(z),500,125954.5,125954.19999992847,122980.816,123081.10000002384,122982.992,125864.858,8,400,19,,ISIC_0012450.JPG
break,html.Screen,4_18_1,2023-08-25T21:24:27.379Z,,0,,,NaN,,,,,,false,,,,125956,125955.5,,125954.69999992847,,125864.858,8,400,,,
break_continue,html.Screen,4_18_2,2023-08-25T21:24:27.380Z,,0,,,NaN,,,,,,false,,,,125956.79999995232,125956.60000002384,,125956.29999995232,,125864.858,8,400,,,
sequence,flow.Sequence,4_18,2023-08-25T21:24:27.380Z,,0,,,2973.6080000238435,completion,,,,,false,,,,125957,125956.60000002384,122980.816,123081,122982.992,125864.858,8,400,,,
trial,html.Screen,4_19_0,2023-08-25T21:24:30.774Z,,0,1,,3486.142000000007,response,ISIC_0030852.JPG,,ISIC_0034188.JPG,ISIC_0030852.JPG,false,1,keypress(m),500,129351.29999995232,129351,125857.965,125957.19999992847,125864.858,129256.155,8,400,20,,ISIC_0034188.JPG
break,html.Screen,4_19_1,2023-08-25T21:24:30.776Z,,0,,,NaN,,,,,,false,,,,129353.19999992847,129352.19999992847,,129351.39999997616,,129256.155,8,400,,,
break_continue,html.Screen,4_19_2,2023-08-25T21:24:30.777Z,,0,,,NaN,,,,,,false,,,,129353.89999997616,129353.79999995232,,129353.39999997616,,129256.155,8,400,,,
sequence,flow.Sequence,4_19,2023-08-25T21:24:30.777Z,,0,,,3488.9419999523234,completion,,,,,false,,,,129354,129353.79999995232,125857.965,125957.19999992847,125864.858,129256.155,8,400,,,
trial,html.Screen,4_20_0,2023-08-25T21:24:37.324Z,,0,1,,6644.044999928476,response,ISIC_8002729.JPG,,ISIC_0010295.JPG,ISIC_0010295.JPG,false,0,keypress(z),500,135900.5,135900.19999992847,129253.408,129354.19999992847,129256.155,135805.489,8,400,21,,ISIC_8002729.JPG
break,html.Screen,4_20_1,2023-08-25T21:24:37.326Z,,0,,,NaN,,,,,,false,,,,135902.60000002384,135901.69999992847,,135900.79999995232,,135805.489,8,400,,,
break_continue,html.Screen,4_20_2,2023-08-25T21:24:37.327Z,,0,,,NaN,,,,,,false,,,,135903.39999997616,135903.19999992847,,135902.89999997616,,135805.489,8,400,,,
sequence,flow.Sequence,4_20,2023-08-25T21:24:37.327Z,,0,,,6647.044999928476,completion,,,,,false,,,,135903.5,135903.19999992847,129253.408,129354.10000002384,129256.155,135805.489,8,400,,,
trial,html.Screen,4_21_0,2023-08-25T21:24:40.185Z,,0,1,,2956.1110000238405,response,ISIC_7329395.JPG,,ISIC_6180870.JPG,ISIC_7329395.JPG,false,1,keypress(m),500,138761.79999995232,138761.60000002384,135801.602,135903.69999992847,135805.489,138666.665,8,400,22,,ISIC_6180870.JPG
break,html.Screen,4_21_1,2023-08-25T21:24:40.187Z,,0,,,NaN,,,,,,false,,,,138763.69999992847,138762.79999995232,,138762,,138666.665,8,400,,,
break_continue,html.Screen,4_21_2,2023-08-25T21:24:40.188Z,,0,,,NaN,,,,,,false,,,,138764.39999997616,138764.29999995232,,138763.89999997616,,138666.665,8,400,,,
sequence,flow.Sequence,4_21,2023-08-25T21:24:40.188Z,,0,,,2958.810999952315,completion,,,,,false,,,,138764.60000002384,138764.29999995232,135801.602,135903.60000002384,135805.489,138666.665,8,400,,,
trial,html.Screen,4_22_0,2023-08-25T21:24:43.044Z,,0,1,,2953.134999952308,response,ISIC_0014657.JPG,,ISIC_7814144.JPG,ISIC_7814144.JPG,false,0,keypress(z),500,141620.79999995232,141619.79999995232,138663.853,138764.79999995232,138666.665,141525.322,8,400,23,,ISIC_0014657.JPG
break,html.Screen,4_22_1,2023-08-25T21:24:43.045Z,,0,,,NaN,,,,,,false,,,,141621.60000002384,141621.29999995232,,141621,,141525.322,8,400,,,
break_continue,html.Screen,4_22_2,2023-08-25T21:24:43.045Z,,0,,,NaN,,,,,,false,,,,141621.69999992847,141621.60000002384,,141621.60000002384,,141525.322,8,400,,,
sequence,flow.Sequence,4_22,2023-08-25T21:24:43.045Z,,0,,,2954.9350000238337,completion,,,,,false,,,,141621.69999992847,141621.60000002384,138663.853,138764.69999992847,138666.665,141525.322,8,400,,,
trial,html.Screen,4_23_0,2023-08-25T21:24:46.150Z,,0,1,,3201.6780000000144,response,ISIC_0046458.JPG,,ISIC_5559165.JPG,ISIC_5559165.JPG,false,0,keypress(z),500,144727.19999992847,144727,141520.882,141621.69999992847,141525.322,144632.167,8,400,24,,ISIC_0046458.JPG
break,html.Screen,4_23_1,2023-08-25T21:24:46.152Z,,0,,,NaN,,,,,,false,,,,144729.10000002384,144728.10000002384,,144727.39999997616,,144632.167,8,400,,,
break_continue,html.Screen,4_23_2,2023-08-25T21:24:46.153Z,,0,,,NaN,,,,,,false,,,,144729.89999997616,144729.69999992847,,144729.39999997616,,144632.167,8,400,,,
sequence,flow.Sequence,4_23,2023-08-25T21:24:46.153Z,,0,,,3204.377999928489,completion,,,,,false,,,,144730.10000002384,144729.69999992847,141520.882,141621.69999992847,141525.322,144632.167,8,400,,,
trial,html.Screen,4_24_0,2023-08-25T21:24:53.260Z,,0,1,,7204.433000023855,response,ISIC_5552381.JPG,,ISIC_0001134.JPG,ISIC_5552381.JPG,false,1,keypress(m),500,151836.79999995232,151836.60000002384,144629.713,144730.19999992847,144632.167,151741.404,8,400,25,,ISIC_0001134.JPG
break,html.Screen,4_24_1,2023-08-25T21:24:53.261Z,,0,,,NaN,,,,,,false,,,,151838.29999995232,151837.39999997616,,151837,,151741.404,8,400,,,
break_continue,html.Screen,4_24_2,2023-08-25T21:24:53.262Z,,0,,,NaN,,,,,,false,,,,151838.69999992847,151838.5,,151838.39999997616,,151741.404,8,400,,,
sequence,flow.Sequence,4_24,2023-08-25T21:24:53.262Z,,0,,,7206.333000000013,completion,,,,,false,,,,151838.79999995232,151838.5,144629.713,144730.10000002384,144632.167,151741.404,8,400,,,
trial,html.Screen,4_25_0,2023-08-25T21:24:56.705Z,,0,1,,3539.8959999523067,response,ISIC_1714941.JPG,,ISIC_3975133.JPG,ISIC_3975133.JPG,false,0,keypress(z),500,155281.5,155281.29999995232,151739.9,151838.89999997616,151741.404,155186.539,8,400,26,,ISIC_1714941.JPG
break,html.Screen,4_25_1,2023-08-25T21:24:56.706Z,,0,,,NaN,,,,,,false,,,,155282.39999997616,155282.10000002384,,155281.69999992847,,155186.539,8,400,,,
break_continue,html.Screen,4_25_2,2023-08-25T21:24:56.706Z,,0,,,NaN,,,,,,false,,,,155282.69999992847,155282.60000002384,,155282.39999997616,,155186.539,8,400,,,
sequence,flow.Sequence,4_25,2023-08-25T21:24:56.706Z,,0,,,3541.1960000238323,completion,,,,,false,,,,155282.69999992847,155282.60000002384,151739.9,151838.89999997616,151741.404,155186.539,8,400,,,
trial,html.Screen,4_26_0,2023-08-25T21:25:00.979Z,,0,1,,4369.160999928485,response,ISIC_1403974.JPG,,ISIC_0070051.JPG,ISIC_0070051.JPG,false,0,keypress(z),500,159555.89999997616,159555.69999992847,155177.64,155282.69999992847,155186.539,159470.281,8,400,27,,ISIC_1403974.JPG
break,html.Screen,4_26_1,2023-08-25T21:25:00.980Z,,0,,,NaN,,,,,,false,,,,159556.79999995232,159556.39999997616,,159556.10000002384,,159470.281,8,400,,,
break_continue,html.Screen,4_26_2,2023-08-25T21:25:00.981Z,,0,,,NaN,,,,,,false,,,,159557.60000002384,159557.5,,159557,,159470.281,8,400,,,
sequence,flow.Sequence,4_26,2023-08-25T21:25:00.981Z,,0,,,4370.96100000001,completion,,,,,false,,,,159557.79999995232,159557.5,155177.64,155282.69999992847,155186.539,159470.281,8,400,,,
trial,html.Screen,4_27_0,2023-08-25T21:25:05.814Z,,0,1,,4921.219000000012,response,ISIC_0057083.JPG,,ISIC_1835041.JPG,ISIC_0057083.JPG,false,1,keypress(m),500,164391.79999995232,164391.5,159458.7,159558,159470.281,164300.954,8,400,28,,ISIC_1835041.JPG
break,html.Screen,4_27_1,2023-08-25T21:25:05.816Z,,0,,,NaN,,,,,,false,,,,164393,164392.79999995232,,164392.10000002384,,164300.954,8,400,,,
break_continue,html.Screen,4_27_2,2023-08-25T21:25:05.816Z,,0,,,NaN,,,,,,false,,,,164393.5,164393.39999997616,,164393.19999992847,,164300.954,8,400,,,
sequence,flow.Sequence,4_27,2023-08-25T21:25:05.816Z,,0,,,4923.11899997617,completion,,,,,false,,,,164393.60000002384,164393.39999997616,159458.7,159558,159470.281,164300.954,8,400,,,
trial,html.Screen,4_28_0,2023-08-25T21:25:09.596Z,,0,1,,3872.3459999523184,response,ISIC_7140778.JPG,,ISIC_2999018.JPG,ISIC_7140778.JPG,false,1,keypress(m),500,168173.5,168173.29999995232,164284.485,164393.79999995232,164300.954,168078.498,8,400,29,,ISIC_2999018.JPG
break,html.Screen,4_28_1,2023-08-25T21:25:09.598Z,,0,,,NaN,,,,,,false,,,,168175.60000002384,168174.60000002384,,168173.79999995232,,168078.498,8,400,,,
break_continue,html.Screen,4_28_2,2023-08-25T21:25:09.599Z,,0,,,NaN,,,,,,false,,,,168176.60000002384,168176.39999997616,,168175.79999995232,,168078.498,8,400,,,
sequence,flow.Sequence,4_28,2023-08-25T21:25:09.599Z,,0,,,3875.4459999761602,completion,,,,,false,,,,168176.69999992847,168176.39999997616,164284.485,164393.79999995232,164300.954,168078.498,8,400,,,
trial,html.Screen,4_29_0,2023-08-25T21:25:13.665Z,,0,1,,4163.701999928482,response,ISIC_6352730.JPG,,ISIC_0568867.JPG,ISIC_0568867.JPG,false,0,keypress(z),500,172242.39999997616,172242.19999992847,168076.886,168176.89999997616,168078.498,172146.795,8,400,30,,ISIC_6352730.JPG
break,html.Screen,4_29_1,2023-08-25T21:25:13.666Z,,0,,,NaN,,,,,,false,,,,172243.60000002384,172242.79999995232,,172242.5,,172146.795,8,400,,,
break_continue,html.Screen,4_29_2,2023-08-25T21:25:13.666Z,,0,,,NaN,,,,,,false,,,,172243.89999997616,172243.79999995232,,172243.69999992847,,172146.795,8,400,,,
sequence,flow.Sequence,4_29,2023-08-25T21:25:13.667Z,,0,,,4165.301999952324,completion,,,,,false,,,,172244,172243.79999995232,168076.886,168176.89999997616,168078.498,172146.795,8,400,,,
trial,html.Screen,4_30_0,2023-08-25T21:25:16.468Z,,0,1,,2897.805000023829,response,ISIC_5037784.JPG,,ISIC_2222091.JPG,ISIC_5037784.JPG,false,1,keypress(m),500,175044.89999997616,175044.60000002384,172144.33,172244,172146.795,174949.887,8,400,31,,ISIC_2222091.JPG
break,html.Screen,4_30_1,2023-08-25T21:25:16.470Z,,0,,,NaN,,,,,,false,,,,175047,175045.89999997616,,175045.10000002384,,174949.887,8,400,,,
break_continue,html.Screen,4_30_2,2023-08-25T21:25:16.470Z,,0,,,NaN,,,,,,false,,,,175047.69999992847,175047.5,,175047.19999992847,,174949.887,8,400,,,
sequence,flow.Sequence,4_30,2023-08-25T21:25:16.470Z,,0,,,2900.704999999987,completion,,,,,false,,,,175047.79999995232,175047.5,172144.33,172244,172146.795,174949.887,8,400,,,
trial,html.Screen,4_31_0,2023-08-25T21:25:19.470Z,,0,1,,3096.8129999284865,response,ISIC_2852805.JPG,,ISIC_9525136.JPG,ISIC_2852805.JPG,false,1,keypress(m),500,178046.89999997616,178046.69999992847,174947.621,175048,174949.887,177951.755,8,400,32,,ISIC_9525136.JPG
break,html.Screen,4_31_1,2023-08-25T21:25:19.471Z,,0,,,NaN,,,,,,false,,,,178048.79999995232,178047.89999997616,,178047.19999992847,,177951.755,8,400,,,
break_continue,html.Screen,4_31_2,2023-08-25T21:25:19.472Z,,0,,,NaN,,,,,,false,,,,178049.5,178049.29999995232,,178049,,177951.755,8,400,,,
sequence,flow.Sequence,4_31,2023-08-25T21:25:19.472Z,,0,,,3099.4129999523284,completion,,,,,false,,,,178049.69999992847,178049.29999995232,174947.621,175048,174949.887,177951.755,8,400,,,
trial,html.Screen,4_32_0,2023-08-25T21:25:22.899Z,,0,1,,3524.2449999999953,response,ISIC_8781751.JPG,,ISIC_0029736.JPG,ISIC_0029736.JPG,false,0,keypress(z),500,181476.29999995232,181476,177950.515,178049.79999995232,177951.755,181380.666,8,400,33,,ISIC_8781751.JPG
break,html.Screen,4_32_1,2023-08-25T21:25:22.900Z,,0,,,NaN,,,,,,false,,,,181477.5,181476.79999995232,,181476.39999997616,,181380.666,8,400,,,
break_continue,html.Screen,4_32_2,2023-08-25T21:25:22.900Z,,0,,,NaN,,,,,,false,,,,181477.69999992847,181477.69999992847,,181477.60000002384,,181380.666,8,400,,,
sequence,flow.Sequence,4_32,2023-08-25T21:25:22.900Z,,0,,,3525.9449999284698,completion,,,,,false,,,,181477.79999995232,181477.69999992847,177950.515,178049.79999995232,177951.755,181380.666,8,400,,,
trial,html.Screen,4_33_0,2023-08-25T21:25:25.756Z,,0,1,,2952.3340000000026,response,ISIC_6785041.JPG,,ISIC_7233368.JPG,ISIC_7233368.JPG,false,0,keypress(z),500,184333.19999992847,184333,181378.199,181477.89999997616,181380.666,184238.158,8,400,34,,ISIC_6785041.JPG
break,html.Screen,4_33_1,2023-08-25T21:25:25.758Z,,0,,,NaN,,,,,,false,,,,184335.19999992847,184334.29999995232,,184333.5,,184238.158,8,400,,,
break_continue,html.Screen,4_33_2,2023-08-25T21:25:25.759Z,,0,,,NaN,,,,,,false,,,,184336,184335.89999997616,,184335.39999997616,,184238.158,8,400,,,
sequence,flow.Sequence,4_33,2023-08-25T21:25:25.759Z,,0,,,2955.2339999761607,completion,,,,,false,,,,184336.19999992847,184335.89999997616,181378.199,181477.79999995232,181380.666,184238.158,8,400,,,
trial,html.Screen,4_34_0,2023-08-25T21:25:29.200Z,,0,1,,3539.2419999761623,response,ISIC_0256715.JPG,,ISIC_0024961.JPG,ISIC_0024961.JPG,false,0,keypress(z),500,187777.60000002384,187777.39999997616,184236.089,184336.19999992847,184238.158,187682.465,8,400,35,,ISIC_0256715.JPG
break,html.Screen,4_34_1,2023-08-25T21:25:29.202Z,,0,,,NaN,,,,,,false,,,,187779.5,187778.5,,187777.79999995232,,187682.465,8,400,,,
break_continue,html.Screen,4_34_2,2023-08-25T21:25:29.203Z,,0,,,NaN,,,,,,false,,,,187780.29999995232,187780,,187779.69999992847,,187682.465,8,400,,,
sequence,flow.Sequence,4_34,2023-08-25T21:25:29.203Z,,0,,,3541.842000000004,completion,,,,,false,,,,187780.69999992847,187780,184236.089,184336.19999992847,184238.158,187682.465,8,400,,,
trial,html.Screen,4_35_0,2023-08-25T21:25:37.941Z,,0,1,,8836.135000023845,response,ISIC_0033643.JPG,,ISIC_1413120.JPG,ISIC_1413120.JPG,false,0,keypress(z),500,196518.89999997616,196518.60000002384,187676.428,187780.79999995232,187682.465,196440.811,8,400,36,,ISIC_0033643.JPG
break,html.Screen,4_35_1,2023-08-25T21:25:37.943Z,,0,,,NaN,,,,,,false,,,,196520.79999995232,196519.79999995232,,196519.10000002384,,196440.811,8,400,,,
break_continue,html.Screen,4_35_2,2023-08-25T21:25:37.944Z,,0,,,NaN,,,,,,false,,,,196521.39999997616,196521.19999992847,,196521,,196440.811,8,400,,,
sequence,flow.Sequence,4_35,2023-08-25T21:25:37.944Z,,0,,,8838.734999928478,completion,,,,,false,,,,196521.60000002384,196521.19999992847,187676.428,187780.69999992847,187682.465,196440.811,8,400,,,
trial,html.Screen,4_36_0,2023-08-25T21:25:41.194Z,,0,1,,3330.789000023855,response,ISIC_8849004.JPG,,ISIC_0870751.JPG,ISIC_8849004.JPG,false,1,keypress(m),500,199771.79999995232,199771.60000002384,196416.32,196521.79999995232,196440.811,199676.743,8,400,37,,ISIC_0870751.JPG
break,html.Screen,4_36_1,2023-08-25T21:25:41.196Z,,0,,,NaN,,,,,,false,,,,199773.79999995232,199772.79999995232,,199772,,199676.743,8,400,,,
break_continue,html.Screen,4_36_2,2023-08-25T21:25:41.197Z,,0,,,NaN,,,,,,false,,,,199774.60000002384,199774.5,,199774,,199676.743,8,400,,,
sequence,flow.Sequence,4_36,2023-08-25T21:25:41.197Z,,0,,,3333.689000000013,completion,,,,,false,,,,199774.79999995232,199774.5,196416.32,196521.69999992847,196440.811,199676.743,8,400,,,
trial,html.Screen,4_37_0,2023-08-25T21:25:46.464Z,,0,1,,5364.257000000012,response,ISIC_0032147.JPG,,ISIC_0070711.JPG,ISIC_0070711.JPG,false,0,keypress(z),500,205041.29999995232,205041,199667.477,199775,199676.743,204946.146,8,400,38,,ISIC_0032147.JPG
break,html.Screen,4_37_1,2023-08-25T21:25:46.466Z,,0,,,NaN,,,,,,false,,,,205043.10000002384,205042.19999992847,,205041.5,,204946.146,8,400,,,
break_continue,html.Screen,4_37_2,2023-08-25T21:25:46.467Z,,0,,,NaN,,,,,,false,,,,205044,205043.79999995232,,205043.39999997616,,204946.146,8,400,,,
sequence,flow.Sequence,4_37,2023-08-25T21:25:46.467Z,,0,,,5367.056999952329,completion,,,,,false,,,,205044.29999995232,205043.79999995232,199667.477,199774.89999997616,199676.743,204946.146,8,400,,,
trial,html.Screen,4_38_0,2023-08-25T21:25:51.525Z,,0,1,,5156.353999999992,response,ISIC_3743283.JPG,,ISIC_5483119.JPG,ISIC_5483119.JPG,false,0,keypress(z),500,210102.69999992847,210102.5,204931.707,205044.5,204946.146,210020.156,8,400,39,,ISIC_3743283.JPG
break,html.Screen,4_38_1,2023-08-25T21:25:51.527Z,,0,,,NaN,,,,,,false,,,,210104.19999992847,210103.69999992847,,210102.89999997616,,210020.156,8,400,,,
break_continue,html.Screen,4_38_2,2023-08-25T21:25:51.527Z,,0,,,NaN,,,,,,false,,,,210104.79999995232,210104.60000002384,,210104.39999997616,,210020.156,8,400,,,
sequence,flow.Sequence,4_38,2023-08-25T21:25:51.528Z,,0,,,5158.454000023834,completion,,,,,false,,,,210104.89999997616,210104.60000002384,204931.707,205044.5,204946.146,210020.156,8,400,,,
trial,html.Screen,4_39_0,2023-08-25T21:25:55.418Z,,0,1,,3974.74399997617,response,ISIC_2945891.JPG,,ISIC_0058346.JPG,ISIC_0058346.JPG,false,0,keypress(z),500,213995.10000002384,213994.89999997616,210003.557,210105,210020.156,213899.999,8,400,40,,ISIC_2945891.JPG
break,html.Screen,4_39_1,2023-08-25T21:25:55.419Z,,0,,,NaN,,,,,,false,,,,213996.19999992847,213995.89999997616,,213995.29999995232,,213899.999,8,400,,,
break_continue,html.Screen,4_39_2,2023-08-25T21:25:55.419Z,,0,,,NaN,,,,,,false,,,,213996.60000002384,213996.5,,213996.19999992847,,213899.999,8,400,,,
sequence,flow.Sequence,4_39,2023-08-25T21:25:55.419Z,,0,,,3976.344000000012,completion,,,,,false,,,,213996.79999995232,213996.5,210003.557,210105,210020.156,213899.999,8,400,,,
trial,html.Screen,4_40_0,2023-08-25T21:25:58.781Z,,0,1,,3458.4009999761474,response,ISIC_0028915.JPG,,ISIC_2193761.JPG,ISIC_0028915.JPG,false,1,keypress(m),500,217358.60000002384,217358.39999997616,213891.098,213996.79999995232,213899.999,217263.304,8,400,41,,ISIC_2193761.JPG
break,html.Screen,4_40_1,2023-08-25T21:25:58.782Z,,0,,,NaN,,,,,,false,,,,217359.39999997616,217359.19999992847,,217358.69999992847,,217263.304,8,400,,,
break_continue,html.Screen,4_40_2,2023-08-25T21:25:58.782Z,,0,,,NaN,,,,,,false,,,,217359.79999995232,217359.69999992847,,217359.60000002384,,217263.304,8,400,,,
sequence,flow.Sequence,4_40,2023-08-25T21:25:58.782Z,,0,,,3459.7009999284637,completion,,,,,false,,,,217359.89999997616,217359.69999992847,213891.098,213996.79999995232,213899.999,217263.304,8,400,,,
trial,html.Screen,4_41_0,2023-08-25T21:26:01.686Z,,0,1,,3000.0959999761544,response,ISIC_0028768.JPG,,ISIC_0033178.JPG,ISIC_0033178.JPG,false,0,keypress(z),500,220263.69999992847,220263.39999997616,217258.57,217359.89999997616,217263.304,220168.599,8,400,42,,ISIC_0028768.JPG
break,html.Screen,4_41_1,2023-08-25T21:26:01.688Z,,0,,,NaN,,,,,,false,,,,220265.69999992847,220264.69999992847,,220263.89999997616,,220168.599,8,400,,,
break_continue,html.Screen,4_41_2,2023-08-25T21:26:01.689Z,,0,,,NaN,,,,,,false,,,,220266.29999995232,220266.19999992847,,220265.89999997616,,220168.599,8,400,,,
sequence,flow.Sequence,4_41,2023-08-25T21:26:01.689Z,,0,,,3002.8959999284707,completion,,,,,false,,,,220266.5,220266.19999992847,217258.57,217359.89999997616,217263.304,220168.599,8,400,,,
trial,html.Screen,4_42_0,2023-08-25T21:26:07.692Z,,0,1,,6099.800999976171,response,ISIC_0011077.JPG,,ISIC_3673517.JPG,ISIC_3673517.JPG,false,0,keypress(z),500,226268.69999992847,226268.39999997616,220157.869,220266.60000002384,220168.599,226173.775,8,400,43,,ISIC_0011077.JPG
break,html.Screen,4_42_1,2023-08-25T21:26:07.693Z,,0,,,NaN,,,,,,false,,,,226270.19999992847,226269.79999995232,,226268.89999997616,,226173.775,8,400,,,
break_continue,html.Screen,4_42_2,2023-08-25T21:26:07.694Z,,0,,,NaN,,,,,,false,,,,226270.79999995232,226270.60000002384,,226270.29999995232,,226173.775,8,400,,,
sequence,flow.Sequence,4_42,2023-08-25T21:26:07.694Z,,0,,,6102.001000023854,completion,,,,,false,,,,226271.10000002384,226270.60000002384,220157.869,220266.60000002384,220168.599,226173.775,8,400,,,
trial,html.Screen,4_43_0,2023-08-25T21:26:10.593Z,,0,1,,2995.624999976164,response,ISIC_2753279.JPG,,ISIC_0028412.JPG,ISIC_0028412.JPG,false,0,keypress(z),500,229169.69999992847,229169.39999997616,226171.882,226271.19999992847,226173.775,229074.928,8,400,44,,ISIC_2753279.JPG
break,html.Screen,4_43_1,2023-08-25T21:26:10.594Z,,0,,,NaN,,,,,,false,,,,229171.29999995232,229170.89999997616,,229169.89999997616,,229074.928,8,400,,,
break_continue,html.Screen,4_43_2,2023-08-25T21:26:10.595Z,,0,,,NaN,,,,,,false,,,,229171.79999995232,229171.69999992847,,229171.5,,229074.928,8,400,,,
sequence,flow.Sequence,4_43,2023-08-25T21:26:10.595Z,,0,,,2997.9249999284802,completion,,,,,false,,,,229172,229171.69999992847,226171.882,226271.19999992847,226173.775,229074.928,8,400,,,
trial,html.Screen,4_44_0,2023-08-25T21:26:14.153Z,,0,1,,3654.27199992846,response,ISIC_6478506.JPG,,ISIC_1410408.JPG,ISIC_1410408.JPG,false,0,keypress(z),500,232729.5,232729.19999992847,229068.219,229172.29999995232,229074.928,232667.813,8,400,45,,ISIC_6478506.JPG
break,html.Screen,4_44_1,2023-08-25T21:26:14.154Z,,0,,,NaN,,,,,,false,,,,232731.39999997616,232730.5,,232729.69999992847,,232667.813,8,400,,,
break_continue,html.Screen,4_44_2,2023-08-25T21:26:14.155Z,,0,,,NaN,,,,,,false,,,,232731.89999997616,232731.79999995232,,232731.60000002384,,232667.813,8,400,,,
sequence,flow.Sequence,4_44,2023-08-25T21:26:14.155Z,,0,,,3656.871999952302,completion,,,,,false,,,,232732.10000002384,232731.79999995232,229068.219,229172.19999992847,229074.928,232667.813,8,400,,,
trial,html.Screen,4_45_0,2023-08-25T21:26:16.863Z,,0,1,,2771.9869999523216,response,ISIC_0070992.JPG,,ISIC_8147542.JPG,ISIC_0070992.JPG,false,1,keypress(m),500,235440.10000002384,235439.79999995232,232651.321,232732.29999995232,232667.813,235346.996,8,400,46,,ISIC_8147542.JPG
break,html.Screen,4_45_1,2023-08-25T21:26:16.865Z,,0,,,NaN,,,,,,false,,,,235441.69999992847,235441.19999992847,,235440.5,,235346.996,8,400,,,
break_continue,html.Screen,4_45_2,2023-08-25T21:26:16.866Z,,0,,,NaN,,,,,,false,,,,235442.69999992847,235442.60000002384,,235442.5,,235346.996,8,400,,,
sequence,flow.Sequence,4_45,2023-08-25T21:26:16.866Z,,0,,,2774.787000023847,completion,,,,,false,,,,235442.79999995232,235442.60000002384,232651.321,232732.19999992847,232667.813,235346.996,8,400,,,
trial,html.Screen,4_46_0,2023-08-25T21:26:22.659Z,,0,1,,5889.104000023828,response,ISIC_0013766.JPG,,ISIC_0008864.JPG,ISIC_0013766.JPG,false,1,keypress(m),500,241236.29999995232,241236.10000002384,235342.585,235442.79999995232,235346.996,241149.114,8,400,47,,ISIC_0008864.JPG
break,html.Screen,4_46_1,2023-08-25T21:26:22.661Z,,0,,,NaN,,,,,,false,,,,241237.79999995232,241237.39999997616,,241236.60000002384,,241149.114,8,400,,,
break_continue,html.Screen,4_46_2,2023-08-25T21:26:22.661Z,,0,,,NaN,,,,,,false,,,,241238.29999995232,241238.29999995232,,241238,,241149.114,8,400,,,
sequence,flow.Sequence,4_46,2023-08-25T21:26:22.662Z,,0,,,5891.303999952303,completion,,,,,false,,,,241238.60000002384,241238.29999995232,235342.585,235442.79999995232,235346.996,241149.114,8,400,,,
trial,html.Screen,4_47_0,2023-08-25T21:26:26.170Z,,0,1,,3598.085999928473,response,ISIC_3170155.JPG,,ISIC_0012208.JPG,ISIC_3170155.JPG,false,1,keypress(m),500,244747.29999995232,244747.19999992847,241133.262,241238.69999992847,241149.114,244651.684,8,400,48,,ISIC_0012208.JPG
break,html.Screen,4_47_1,2023-08-25T21:26:26.171Z,,0,,,NaN,,,,,,false,,,,244747.89999997616,244747.79999995232,,244747.39999997616,,244651.684,8,400,,,
break_continue,html.Screen,4_47_2,2023-08-25T21:26:26.171Z,,0,,,NaN,,,,,,false,,,,244748.10000002384,244748,,244748,,244651.684,8,400,,,
sequence,flow.Sequence,4_47,2023-08-25T21:26:26.171Z,,0,,,3598.8859999999986,completion,,,,,false,,,,244748.19999992847,244748,241133.262,241238.69999992847,241149.114,244651.684,8,400,,,
trial,html.Screen,4_48_0,2023-08-25T21:26:29.918Z,,0,1,,3842.8159999999916,response,ISIC_0024846.JPG,,ISIC_0046921.JPG,ISIC_0024846.JPG,false,1,keypress(m),500,248494.60000002384,248494.5,244637.449,244748.19999992847,244651.684,248412.146,8,400,49,,ISIC_0046921.JPG
break,html.Screen,4_48_1,2023-08-25T21:26:29.918Z,,0,,,NaN,,,,,,false,,,,248495.39999997616,248495.10000002384,,248494.69999992847,,248412.146,8,400,,,
break_continue,html.Screen,4_48_2,2023-08-25T21:26:29.919Z,,0,,,NaN,,,,,,false,,,,248495.69999992847,248495.69999992847,,248495.39999997616,,248412.146,8,400,,,
sequence,flow.Sequence,4_48,2023-08-25T21:26:29.919Z,,0,,,3844.015999928466,completion,,,,,false,,,,248495.69999992847,248495.69999992847,244637.449,244748.19999992847,244651.684,248412.146,8,400,,,
trial,html.Screen,4_49_0,2023-08-25T21:26:33.072Z,,0,1,,3236.6539999523084,response,ISIC_8165906.JPG,,ISIC_0757147.JPG,ISIC_8165906.JPG,false,1,keypress(m),500,251648.89999997616,251648.79999995232,248394.223,248495.79999995232,248412.146,251553.872,8,400,50,,ISIC_0757147.JPG
break,html.Screen,4_49_1,2023-08-25T21:26:38.054Z,,0,,,4996.063999999984,timeout,,,,,false,,,,256631.10000002384,256533.19,251550.742,251649.19999992847,251553.872,256549.936,8,400,,,
break_continue,html.Screen,4_49_2,2023-08-25T21:26:40.281Z,,0,,,2301.463999976171,response,,,,,false,continue,keypress(Space),,258857.89999997616,258851.39999997616,256533.19,256631.19999992847,256549.936,258762.345,8,400,,,
sequence,flow.Sequence,4_49,2023-08-25T21:26:40.281Z,,0,,,10439.25399997615,completion,,,,,false,,,,258858.10000002384,258851.39999997616,248394.223,248495.79999995232,248412.146,258762.345,8,400,,,
trial,html.Screen,4_50_0,2023-08-25T21:26:43.242Z,,0,2,,3056.7550000238407,response,ISIC_0064247.JPG,,ISIC_0064874.JPG,ISIC_0064247.JPG,false,1,keypress(m),500,261819.19999992847,261819.10000002384,258748.052,258858.10000002384,258762.345,261723.688,8,400,1,,ISIC_0064874.JPG
break,html.Screen,4_50_1,2023-08-25T21:26:43.243Z,,0,,,NaN,,,,,,false,,,,261819.79999995232,261819.69999992847,,261819.29999995232,,261723.688,8,400,,,
break_continue,html.Screen,4_50_2,2023-08-25T21:26:43.243Z,,0,,,NaN,,,,,,false,,,,261820.19999992847,261820.10000002384,,261820,,261723.688,8,400,,,
sequence,flow.Sequence,4_50,2023-08-25T21:26:43.243Z,,0,,,3057.7550000238407,completion,,,,,false,,,,261820.19999992847,261820.10000002384,258748.052,258858.10000002384,258762.345,261723.688,8,400,,,
trial,html.Screen,4_51_0,2023-08-25T21:26:46.125Z,,0,2,,2978.1119999523216,response,ISIC_1115160.JPG,,ISIC_3352799.JPG,ISIC_3352799.JPG,false,0,keypress(z),500,264702.10000002384,264701.7999999523,261720.221,261820.29999995232,261723.688,264618.107,8,400,2,,ISIC_1115160.JPG
break,html.Screen,4_51_1,2023-08-25T21:26:46.126Z,,0,,,NaN,,,,,,false,,,,264703.2999999523,264702.89999997616,,264702.2999999523,,264618.107,8,400,,,
break_continue,html.Screen,4_51_2,2023-08-25T21:26:46.127Z,,0,,,NaN,,,,,,false,,,,264703.7999999523,264703.60000002384,,264703.5,,264618.107,8,400,,,
sequence,flow.Sequence,4_51,2023-08-25T21:26:46.127Z,,0,,,2979.912000023847,completion,,,,,false,,,,264703.89999997616,264703.60000002384,261720.221,261820.29999995232,261723.688,264618.107,8,400,,,
trial,html.Screen,4_52_0,2023-08-25T21:26:51.509Z,,0,2,,5467.392999999982,response,ISIC_4369035.JPG,,ISIC_4407580.JPG,ISIC_4369035.JPG,false,1,keypress(m),500,270085.6999999285,270085.5,264602.942,264703.89999997616,264618.107,269990.406,8,400,3,,ISIC_4407580.JPG
break,html.Screen,4_52_1,2023-08-25T21:26:51.510Z,,0,,,NaN,,,,,,false,,,,270086.5,270086.2999999523,,270085.89999997616,,269990.406,8,400,,,
break_continue,html.Screen,4_52_2,2023-08-25T21:26:51.510Z,,0,,,NaN,,,,,,false,,,,270086.89999997616,270086.7999999523,,270086.60000002384,,269990.406,8,400,,,
sequence,flow.Sequence,4_52,2023-08-25T21:26:51.510Z,,0,,,5468.692999952298,completion,,,,,false,,,,270086.89999997616,270086.7999999523,264602.942,264703.89999997616,264618.107,269990.406,8,400,,,
trial,html.Screen,4_53_0,2023-08-25T21:26:56.268Z,,0,2,,4853.893999952299,response,ISIC_3912838.JPG,,ISIC_5206218.JPG,ISIC_5206218.JPG,false,0,keypress(z),500,274844.5,274844.2999999523,269984.243,270087,269990.406,274759.411,8,400,4,,ISIC_3912838.JPG
break,html.Screen,4_53_1,2023-08-25T21:26:56.268Z,,0,,,NaN,,,,,,false,,,,274845.2999999523,274845.10000002384,,274844.60000002384,,274759.411,8,400,,,
break_continue,html.Screen,4_53_2,2023-08-25T21:26:56.269Z,,0,,,NaN,,,,,,false,,,,274845.60000002384,274845.39999997616,,274845.2999999523,,274759.411,8,400,,,
sequence,flow.Sequence,4_53,2023-08-25T21:26:56.269Z,,0,,,4854.993999976141,completion,,,,,false,,,,274845.60000002384,274845.39999997616,269984.243,270087,269990.406,274759.411,8,400,,,
trial,html.Screen,4_54_0,2023-08-25T21:26:58.975Z,,0,2,,2792.7889999284525,response,ISIC_0641480.JPG,,ISIC_6348638.JPG,ISIC_6348638.JPG,false,0,keypress(z),500,277552.39999997616,277552.1999999285,274742.768,274845.6999999285,274759.411,277456.863,8,400,5,,ISIC_0641480.JPG
break,html.Screen,4_54_1,2023-08-25T21:26:58.977Z,,0,,,NaN,,,,,,false,,,,277553.7999999523,277553.6999999285,,277552.5,,277456.863,8,400,,,
break_continue,html.Screen,4_54_2,2023-08-25T21:26:58.977Z,,0,,,NaN,,,,,,false,,,,277554,277554,,277553.89999997616,,277456.863,8,400,,,
sequence,flow.Sequence,4_54,2023-08-25T21:26:58.977Z,,0,,,2794.588999999978,completion,,,,,false,,,,277554.10000002384,277554,274742.768,274845.6999999285,274759.411,277456.863,8,400,,,
trial,html.Screen,4_55_0,2023-08-25T21:27:02.085Z,,0,2,,3205.136999999988,response,ISIC_4208361.JPG,,ISIC_0063988.JPG,ISIC_0063988.JPG,false,0,keypress(z),500,280662.10000002384,280662,277446.231,277554.1999999285,277456.863,280566.55,8,400,6,,ISIC_4208361.JPG
break,html.Screen,4_55_1,2023-08-25T21:27:02.086Z,,0,,,NaN,,,,,,false,,,,280662.7999999523,280662.5,,280662.1999999285,,280566.55,8,400,,,
break_continue,html.Screen,4_55_2,2023-08-25T21:27:02.086Z,,0,,,NaN,,,,,,false,,,,280663.10000002384,280663.10000002384,,280662.89999997616,,280566.55,8,400,,,
sequence,flow.Sequence,4_55,2023-08-25T21:27:02.086Z,,0,,,3206.2370000238298,completion,,,,,false,,,,280663.10000002384,280663.10000002384,277446.231,277554.1999999285,277456.863,280566.55,8,400,,,
trial,html.Screen,4_56_0,2023-08-25T21:27:04.728Z,,0,2,,2738.34999997617,response,ISIC_0061379.JPG,,ISIC_9694911.JPG,ISIC_0061379.JPG,false,1,keypress(m),500,283305.1999999285,283304.89999997616,280564.052,280663.1999999285,280566.55,283210.142,8,400,7,,ISIC_9694911.JPG
break,html.Screen,4_56_1,2023-08-25T21:27:04.730Z,,0,,,NaN,,,,,,false,,,,283307.1999999285,283306.1999999285,,283305.39999997616,,283210.142,8,400,,,
break_continue,html.Screen,4_56_2,2023-08-25T21:27:04.731Z,,0,,,NaN,,,,,,false,,,,283307.89999997616,283307.7999999523,,283307.39999997616,,283210.142,8,400,,,
sequence,flow.Sequence,4_56,2023-08-25T21:27:04.731Z,,0,,,2741.249999952328,completion,,,,,false,,,,283308.10000002384,283307.7999999523,280564.052,280663.1999999285,280566.55,283210.142,8,400,,,
trial,html.Screen,4_57_0,2023-08-25T21:27:07.421Z,,0,2,,2787.6579999523237,response,ISIC_9041897.JPG,,ISIC_0055251.JPG,ISIC_0055251.JPG,false,0,keypress(z),500,285998,285997.7999999523,283202.294,283308.1999999285,283210.142,285902.913,8,400,8,,ISIC_9041897.JPG
break,html.Screen,4_57_1,2023-08-25T21:27:07.422Z,,0,,,NaN,,,,,,false,,,,285999.10000002384,285998.6999999285,,285998.10000002384,,285902.913,8,400,,,
break_continue,html.Screen,4_57_2,2023-08-25T21:27:07.422Z,,0,,,NaN,,,,,,false,,,,285999.60000002384,285999.5,,285999.2999999523,,285902.913,8,400,,,
sequence,flow.Sequence,4_57,2023-08-25T21:27:07.422Z,,0,,,2789.3580000000075,completion,,,,,false,,,,285999.7999999523,285999.5,283202.294,283308.1999999285,283210.142,285902.913,8,400,,,
trial,html.Screen,4_58_0,2023-08-25T21:27:10.642Z,,0,2,,3316.0869999999995,response,ISIC_0029050.JPG,,ISIC_5347806.JPG,ISIC_0029050.JPG,false,1,keypress(m),500,289219.2999999523,289219,285900.667,285999.89999997616,285902.913,289136.06,8,400,9,,ISIC_5347806.JPG
break,html.Screen,4_58_1,2023-08-25T21:27:10.644Z,,0,,,NaN,,,,,,false,,,,289220.89999997616,289220.39999997616,,289219.5,,289136.06,8,400,,,
break_continue,html.Screen,4_58_2,2023-08-25T21:27:10.644Z,,0,,,NaN,,,,,,false,,,,289221.2999999523,289221.1999999285,,289221,,289136.06,8,400,,,
sequence,flow.Sequence,4_58,2023-08-25T21:27:10.644Z,,0,,,3318.286999928474,completion,,,,,false,,,,289221.39999997616,289221.1999999285,285900.667,285999.7999999523,285902.913,289136.06,8,400,,,
trial,html.Screen,4_59_0,2023-08-25T21:27:16.503Z,,0,2,,5944.3399999761605,response,ISIC_2916677.JPG,,ISIC_0403458.JPG,ISIC_0403458.JPG,false,0,keypress(z),500,295080.60000002384,295080.39999997616,289121.213,289221.5,289136.06,294985.61,8,400,10,,ISIC_2916677.JPG
break,html.Screen,4_59_1,2023-08-25T21:27:16.505Z,,0,,,NaN,,,,,,false,,,,295082.6999999285,295081.5,,295080.7999999523,,294985.61,8,400,,,
break_continue,html.Screen,4_59_2,2023-08-25T21:27:16.506Z,,0,,,NaN,,,,,,false,,,,295083.1999999285,295083,,295082.7999999523,,294985.61,8,400,,,
sequence,flow.Sequence,4_59,2023-08-25T21:27:16.506Z,,0,,,5946.940000000002,completion,,,,,false,,,,295083.5,295083,289121.213,289221.5,289136.06,294985.61,8,400,,,
trial,html.Screen,4_60_0,2023-08-25T21:27:20.083Z,,0,2,,3674.6899999523303,response,ISIC_0011627.JPG,,ISIC_0032701.JPG,ISIC_0011627.JPG,false,1,keypress(m),500,298660.60000002384,298660.2999999523,294981.514,295083.60000002384,294985.61,298565.468,8,400,11,,ISIC_0032701.JPG
break,html.Screen,4_60_1,2023-08-25T21:27:20.085Z,,0,,,NaN,,,,,,false,,,,298662.60000002384,298662.1999999285,,298660.7999999523,,298565.468,8,400,,,
break_continue,html.Screen,4_60_2,2023-08-25T21:27:20.086Z,,0,,,NaN,,,,,,false,,,,298663.1999999285,298663.1999999285,,298662.89999997616,,298565.468,8,400,,,
sequence,flow.Sequence,4_60,2023-08-25T21:27:20.086Z,,0,,,3677.5899999284884,completion,,,,,false,,,,298663.5,298663.1999999285,294981.514,295083.5,294985.61,298565.468,8,400,,,
trial,html.Screen,4_61_0,2023-08-25T21:27:23.289Z,,0,2,,3300.231999928481,response,ISIC_4468129.JPG,,ISIC_8798059.JPG,ISIC_8798059.JPG,false,0,keypress(z),500,301865.89999997616,301865.6999999285,298564.235,298663.60000002384,298565.468,301770.882,8,400,12,,ISIC_4468129.JPG
break,html.Screen,4_61_1,2023-08-25T21:27:23.291Z,,0,,,NaN,,,,,,false,,,,301868,301866.89999997616,,301866.1999999285,,301770.882,8,400,,,
break_continue,html.Screen,4_61_2,2023-08-25T21:27:23.291Z,,0,,,NaN,,,,,,false,,,,301868.6999999285,301868.5,,301868.2999999523,,301770.882,8,400,,,
sequence,flow.Sequence,4_61,2023-08-25T21:27:23.292Z,,0,,,3303.0320000000065,completion,,,,,false,,,,301868.7999999523,301868.5,298564.235,298663.60000002384,298565.468,301770.882,8,400,,,
trial,html.Screen,4_62_0,2023-08-25T21:27:26.467Z,,0,2,,3273.2180000238586,response,ISIC_4375524.JPG,,ISIC_4069836.JPG,ISIC_4069836.JPG,false,0,keypress(z),500,305044.2999999523,305044.10000002384,301763.041,301869,301770.882,304949.199,8,400,13,,ISIC_4375524.JPG
break,html.Screen,4_62_1,2023-08-25T21:27:26.469Z,,0,,,NaN,,,,,,false,,,,305046.1999999285,305045.2999999523,,305044.5,,304949.199,8,400,,,
break_continue,html.Screen,4_62_2,2023-08-25T21:27:26.470Z,,0,,,NaN,,,,,,false,,,,305046.89999997616,305046.7999999523,,305046.39999997616,,304949.199,8,400,,,
sequence,flow.Sequence,4_62,2023-08-25T21:27:26.470Z,,0,,,3275.917999952333,completion,,,,,false,,,,305047.10000002384,305046.7999999523,301763.041,301869,301770.882,304949.199,8,400,,,
trial,html.Screen,4_63_0,2023-08-25T21:27:30.168Z,,0,2,,3796.100999952294,response,ISIC_0294399.JPG,,ISIC_0033752.JPG,ISIC_0033752.JPG,false,0,keypress(z),500,308745.60000002384,308745.2999999523,304938.902,305047.1999999285,304949.199,308650.432,8,400,14,,ISIC_0294399.JPG
break,html.Screen,4_63_1,2023-08-25T21:27:30.170Z,,0,,,NaN,,,,,,false,,,,308747.5,308746.60000002384,,308745.7999999523,,308650.432,8,400,,,
break_continue,html.Screen,4_63_2,2023-08-25T21:27:30.171Z,,0,,,NaN,,,,,,false,,,,308748,308747.89999997616,,308747.6999999285,,308650.432,8,400,,,
sequence,flow.Sequence,4_63,2023-08-25T21:27:30.171Z,,0,,,3798.700999976136,completion,,,,,false,,,,308748.10000002384,308747.89999997616,304938.902,305047.1999999285,304949.199,308650.432,8,400,,,
trial,html.Screen,4_64_0,2023-08-25T21:27:35.651Z,,0,2,,5577.267999928503,response,ISIC_6569060.JPG,,ISIC_1226882.JPG,ISIC_6569060.JPG,false,1,keypress(m),500,314227.89999997616,314227.6999999285,308648.667,308748.1999999285,308650.432,314133.103,8,400,15,,ISIC_1226882.JPG
break,html.Screen,4_64_1,2023-08-25T21:27:35.653Z,,0,,,NaN,,,,,,false,,,,314230.1999999285,314229,,314228.1999999285,,314133.103,8,400,,,
break_continue,html.Screen,4_64_2,2023-08-25T21:27:35.654Z,,0,,,NaN,,,,,,false,,,,314231,314230.89999997616,,314230.5,,314133.103,8,400,,,
sequence,flow.Sequence,4_64,2023-08-25T21:27:35.654Z,,0,,,5580.467999976187,completion,,,,,false,,,,314231.1999999285,314230.89999997616,308648.667,308748.1999999285,308650.432,314133.103,8,400,,,
trial,html.Screen,4_65_0,2023-08-25T21:27:39.081Z,,0,2,,3524.5969999284716,response,ISIC_0033309.JPG,,ISIC_1619470.JPG,ISIC_0033309.JPG,false,1,keypress(m),500,317657.89999997616,317657.6999999285,314122.808,314231.1999999285,314133.103,317579.678,8,400,16,,ISIC_1619470.JPG
break,html.Screen,4_65_1,2023-08-25T21:27:39.083Z,,0,,,NaN,,,,,,false,,,,317660,317658.89999997616,,317658.10000002384,,317579.678,8,400,,,
break_continue,html.Screen,4_65_2,2023-08-25T21:27:39.083Z,,0,,,NaN,,,,,,false,,,,317660.5,317660.39999997616,,317660.10000002384,,317579.678,8,400,,,
sequence,flow.Sequence,4_65,2023-08-25T21:27:39.083Z,,0,,,3527.2969999761553,completion,,,,,false,,,,317660.6999999285,317660.39999997616,314122.808,314231.1999999285,314133.103,317579.678,8,400,,,
trial,html.Screen,4_66_0,2023-08-25T21:27:44.705Z,,0,2,,5702.821999999986,response,ISIC_0000483.JPG,,ISIC_4606646.JPG,ISIC_0000483.JPG,false,1,keypress(m),500,323282.7999999523,323282.5,317561.079,317660.7999999523,317579.678,323188.74,8,400,17,,ISIC_4606646.JPG
break,html.Screen,4_66_1,2023-08-25T21:27:44.707Z,,0,,,NaN,,,,,,false,,,,323284.5,323284.1999999285,,323283.10000002384,,323188.74,8,400,,,
break_continue,html.Screen,4_66_2,2023-08-25T21:27:44.708Z,,0,,,NaN,,,,,,false,,,,323284.89999997616,323284.7999999523,,323284.6999999285,,323188.74,8,400,,,
sequence,flow.Sequence,4_66,2023-08-25T21:27:44.708Z,,0,,,5705.121999952302,completion,,,,,false,,,,323285.10000002384,323284.7999999523,317561.079,317660.7999999523,317579.678,323188.74,8,400,,,
trial,html.Screen,4_67_0,2023-08-25T21:27:48.070Z,,0,2,,3458.0599999523256,response,ISIC_3253098.JPG,,ISIC_8694181.JPG,ISIC_8694181.JPG,false,0,keypress(z),500,326647.10000002384,326646.7999999523,323186.123,323285.1999999285,323188.74,326551.855,8,400,18,,ISIC_3253098.JPG
break,html.Screen,4_67_1,2023-08-25T21:27:48.072Z,,0,,,NaN,,,,,,false,,,,326648.7999999523,326647.89999997616,,326647.2999999523,,326551.855,8,400,,,
break_continue,html.Screen,4_67_2,2023-08-25T21:27:48.072Z,,0,,,NaN,,,,,,false,,,,326649.2999999523,326649.1999999285,,326648.89999997616,,326551.855,8,400,,,
sequence,flow.Sequence,4_67,2023-08-25T21:27:48.072Z,,0,,,3460.4599999284837,completion,,,,,false,,,,326649.5,326649.1999999285,323186.123,323285.1999999285,323188.74,326551.855,8,400,,,
trial,html.Screen,4_68_0,2023-08-25T21:27:50.993Z,,0,2,,3018.1450000000186,response,ISIC_0031363.JPG,,ISIC_0065235.JPG,ISIC_0065235.JPG,false,0,keypress(z),500,329570.39999997616,329570,326547.866,326649.60000002384,326551.855,329491.921,8,400,19,,ISIC_0031363.JPG
break,html.Screen,4_68_1,2023-08-25T21:27:50.995Z,,0,,,NaN,,,,,,false,,,,329572.1999999285,329571.2999999523,,329570.5,,329491.921,8,400,,,
break_continue,html.Screen,4_68_2,2023-08-25T21:27:50.995Z,,0,,,NaN,,,,,,false,,,,329572.6999999285,329572.60000002384,,329572.39999997616,,329491.921,8,400,,,
sequence,flow.Sequence,4_68,2023-08-25T21:27:50.996Z,,0,,,3020.7450000238605,completion,,,,,false,,,,329572.89999997616,329572.60000002384,326547.866,326649.60000002384,326551.855,329491.921,8,400,,,
trial,html.Screen,4_69_0,2023-08-25T21:27:53.781Z,,0,2,,2866.3789999523433,response,ISIC_0030116.JPG,,ISIC_5732374.JPG,ISIC_0030116.JPG,false,1,keypress(m),500,332358.5,332358.2999999523,329460.519,329573,329491.921,332263.399,8,400,20,,ISIC_5732374.JPG
break,html.Screen,4_69_1,2023-08-25T21:27:53.783Z,,0,,,NaN,,,,,,false,,,,332360.39999997616,332359.39999997616,,332358.7999999523,,332263.399,8,400,,,
break_continue,html.Screen,4_69_2,2023-08-25T21:27:53.784Z,,0,,,NaN,,,,,,false,,,,332361,332360.7999999523,,332360.60000002384,,332263.399,8,400,,,
sequence,flow.Sequence,4_69,2023-08-25T21:27:53.784Z,,0,,,2868.8789999523433,completion,,,,,false,,,,332361.1999999285,332360.7999999523,329460.519,329573,329491.921,332263.399,8,400,,,
trial,html.Screen,4_70_0,2023-08-25T21:27:58.681Z,,0,2,,4994.9009999523405,response,ISIC_0027479.JPG,,ISIC_6239663.JPG,ISIC_0027479.JPG,false,1,keypress(m),500,337258.5,337258.2999999523,332259.735,332361.2999999523,332263.399,337184.786,8,400,21,,ISIC_6239663.JPG
break,html.Screen,4_70_1,2023-08-25T21:27:58.682Z,,0,,,NaN,,,,,,false,,,,337259.10000002384,337258.89999997616,,337258.60000002384,,337184.786,8,400,,,
break_continue,html.Screen,4_70_2,2023-08-25T21:27:58.682Z,,0,,,NaN,,,,,,false,,,,337259.2999999523,337259.1999999285,,337259.10000002384,,337184.786,8,400,,,
sequence,flow.Sequence,4_70,2023-08-25T21:27:58.682Z,,0,,,4995.800999928499,completion,,,,,false,,,,337259.39999997616,337259.1999999285,332259.735,332361.2999999523,332263.399,337184.786,8,400,,,
trial,html.Screen,4_71_0,2023-08-25T21:28:01.439Z,,0,2,,2831.81400002382,response,ISIC_0055046.JPG,,ISIC_3632419.JPG,ISIC_0055046.JPG,false,1,keypress(m),500,340016.6999999285,340016.60000002384,337168.042,337259.39999997616,337184.786,339921.255,8,400,22,,ISIC_3632419.JPG
break,html.Screen,4_71_1,2023-08-25T21:28:01.441Z,,0,,,NaN,,,,,,false,,,,340018.10000002384,340017.39999997616,,340016.89999997616,,339921.255,8,400,,,
break_continue,html.Screen,4_71_2,2023-08-25T21:28:01.441Z,,0,,,NaN,,,,,,false,,,,340018.5,340018.2999999523,,340018.2999999523,,339921.255,8,400,,,
sequence,flow.Sequence,4_71,2023-08-25T21:28:01.441Z,,0,,,2833.5139999522944,completion,,,,,false,,,,340018.60000002384,340018.2999999523,337168.042,337259.39999997616,337184.786,339921.255,8,400,,,
trial,html.Screen,4_72_0,2023-08-25T21:28:08.146Z,,0,2,,6802.544999952312,response,ISIC_6809586.JPG,,ISIC_4067693.JPG,ISIC_4067693.JPG,false,0,keypress(z),500,346724,346723.7999999523,339919.893,340018.60000002384,339921.255,346628.781,8,400,23,,ISIC_6809586.JPG
break,html.Screen,4_72_1,2023-08-25T21:28:08.147Z,,0,,,NaN,,,,,,false,,,,346724.7999999523,346724.60000002384,,346724.1999999285,,346628.781,8,400,,,
break_continue,html.Screen,4_72_2,2023-08-25T21:28:08.147Z,,0,,,NaN,,,,,,false,,,,346725,346725,,346724.7999999523,,346628.781,8,400,,,
sequence,flow.Sequence,4_72,2023-08-25T21:28:08.147Z,,0,,,6803.744999999995,completion,,,,,false,,,,346725.10000002384,346725,339919.893,340018.60000002384,339921.255,346628.781,8,400,,,
trial,html.Screen,4_73_0,2023-08-25T21:28:13.303Z,,0,2,,5252.218999999983,response,ISIC_0072087.JPG,,ISIC_2479512.JPG,ISIC_0072087.JPG,false,1,keypress(m),500,351881.1999999285,351881,346618.775,346725.1999999285,346628.781,351785.82,8,400,24,,ISIC_2479512.JPG
break,html.Screen,4_73_1,2023-08-25T21:28:13.304Z,,0,,,NaN,,,,,,false,,,,351882,351881.6999999285,,351881.2999999523,,351785.82,8,400,,,
break_continue,html.Screen,4_73_2,2023-08-25T21:28:13.304Z,,0,,,NaN,,,,,,false,,,,351882.2999999523,351882.2999999523,,351882.10000002384,,351785.82,8,400,,,
sequence,flow.Sequence,4_73,2023-08-25T21:28:13.304Z,,0,,,5253.518999952299,completion,,,,,false,,,,351882.39999997616,351882.2999999523,346618.775,346725.1999999285,346628.781,351785.82,8,400,,,
trial,html.Screen,4_74_0,2023-08-25T21:28:16.080Z,,0,2,,2871.9799999523093,response,ISIC_1323048.JPG,,ISIC_0066399.JPG,ISIC_0066399.JPG,false,0,keypress(z),500,354657.89999997616,354657.7999999523,351779.976,351882.5,351785.82,354562.434,8,400,25,,ISIC_1323048.JPG
break,html.Screen,4_74_1,2023-08-25T21:28:16.081Z,,0,,,NaN,,,,,,false,,,,354659.2999999523,354658.60000002384,,354658,,354562.434,8,400,,,
break_continue,html.Screen,4_74_2,2023-08-25T21:28:16.082Z,,0,,,NaN,,,,,,false,,,,354659.60000002384,354659.5,,354659.39999997616,,354562.434,8,400,,,
sequence,flow.Sequence,4_74,2023-08-25T21:28:16.082Z,,0,,,2873.679999999993,completion,,,,,false,,,,354659.6999999285,354659.5,351779.976,351882.39999997616,351785.82,354562.434,8,400,,,
trial,html.Screen,4_75_0,2023-08-25T21:28:18.731Z,,0,2,,2746.0659999999916,response,ISIC_5610222.JPG,,ISIC_0062313.JPG,ISIC_0062313.JPG,false,0,keypress(z),500,357308.89999997616,357308.5,354561.149,354659.7999999523,354562.434,357213.682,8,400,26,,ISIC_5610222.JPG
break,html.Screen,4_75_1,2023-08-25T21:28:18.732Z,,0,,,NaN,,,,,,false,,,,357310.1999999285,357309.7999999523,,357309,,357213.682,8,400,,,
break_continue,html.Screen,4_75_2,2023-08-25T21:28:18.733Z,,0,,,NaN,,,,,,false,,,,357310.60000002384,357310.5,,357310.2999999523,,357213.682,8,400,,,
sequence,flow.Sequence,4_75,2023-08-25T21:28:18.733Z,,0,,,2748.0659999999916,completion,,,,,false,,,,357310.7999999523,357310.5,354561.149,354659.6999999285,354562.434,357213.682,8,400,,,
trial,html.Screen,4_76_0,2023-08-25T21:28:21.718Z,,0,2,,3082.3180000000284,response,ISIC_0054287.JPG,,ISIC_2075121.JPG,ISIC_0054287.JPG,false,1,keypress(m),500,360296.1999999285,360296,357199.187,357311,357213.682,360201.031,8,400,27,,ISIC_2075121.JPG
break,html.Screen,4_76_1,2023-08-25T21:28:21.720Z,,0,,,NaN,,,,,,false,,,,360298.10000002384,360297.10000002384,,360296.39999997616,,360201.031,8,400,,,
break_continue,html.Screen,4_76_2,2023-08-25T21:28:21.721Z,,0,,,NaN,,,,,,false,,,,360298.6999999285,360298.5,,360298.2999999523,,360201.031,8,400,,,
sequence,flow.Sequence,4_76,2023-08-25T21:28:21.721Z,,0,,,3084.8180000000284,completion,,,,,false,,,,360298.89999997616,360298.5,357199.187,357310.89999997616,357213.682,360201.031,8,400,,,
trial,html.Screen,4_77_0,2023-08-25T21:28:24.142Z,,0,2,,2518.768999952299,response,ISIC_8956001.JPG,,ISIC_0034140.JPG,ISIC_0034140.JPG,false,0,keypress(z),500,362720.10000002384,362719.7999999523,360196.65,360299,360201.031,362631.147,8,400,28,,ISIC_8956001.JPG
break,html.Screen,4_77_1,2023-08-25T21:28:24.143Z,,0,,,NaN,,,,,,false,,,,362721.5,362721.10000002384,,362720.39999997616,,362631.147,8,400,,,
break_continue,html.Screen,4_77_2,2023-08-25T21:28:24.144Z,,0,,,NaN,,,,,,false,,,,362721.89999997616,362721.7999999523,,362721.60000002384,,362631.147,8,400,,,
sequence,flow.Sequence,4_77,2023-08-25T21:28:24.144Z,,0,,,2520.768999952299,completion,,,,,false,,,,362722.10000002384,362721.7999999523,360196.65,360299,360201.031,362631.147,8,400,,,
trial,html.Screen,4_78_0,2023-08-25T21:28:26.706Z,,0,2,,2652.752999976161,response,ISIC_0726170.JPG,,ISIC_0060321.JPG,ISIC_0060321.JPG,false,0,keypress(z),500,365284.10000002384,365283.89999997616,362615.035,362722.1999999285,362631.147,365214.93,8,400,29,,ISIC_0726170.JPG
break,html.Screen,4_78_1,2023-08-25T21:28:26.707Z,,0,,,NaN,,,,,,false,,,,365285.1999999285,365284.89999997616,,365284.2999999523,,365214.93,8,400,,,
break_continue,html.Screen,4_78_2,2023-08-25T21:28:26.708Z,,0,,,NaN,,,,,,false,,,,365285.6999999285,365285.5,,365285.1999999285,,365214.93,8,400,,,
sequence,flow.Sequence,4_78,2023-08-25T21:28:26.708Z,,0,,,2654.353000000003,completion,,,,,false,,,,365285.6999999285,365285.5,362615.035,362722.1999999285,362631.147,365214.93,8,400,,,
trial,html.Screen,4_79_0,2023-08-25T21:28:29.574Z,,0,2,,2936.7699999284814,response,ISIC_0064014.JPG,,ISIC_0030616.JPG,ISIC_0030616.JPG,false,0,keypress(z),500,368151.89999997616,368151.6999999285,365198.2,365285.89999997616,365214.93,368056.909,8,400,30,,ISIC_0064014.JPG
break,html.Screen,4_79_1,2023-08-25T21:28:29.575Z,,0,,,NaN,,,,,,false,,,,368153,368152.7999999523,,368152.1999999285,,368056.909,8,400,,,
break_continue,html.Screen,4_79_2,2023-08-25T21:28:29.575Z,,0,,,NaN,,,,,,false,,,,368153.2999999523,368153.2999999523,,368153.10000002384,,368056.909,8,400,,,
sequence,flow.Sequence,4_79,2023-08-25T21:28:29.575Z,,0,,,2938.3699999523233,completion,,,,,false,,,,368153.5,368153.2999999523,365198.2,365285.89999997616,365214.93,368056.909,8,400,,,
trial,html.Screen,4_80_0,2023-08-25T21:28:32.186Z,,0,2,,2706.390999952331,response,ISIC_7030488.JPG,,ISIC_2396791.JPG,ISIC_2396791.JPG,false,0,keypress(z),500,370763.5,370763.2999999523,368051.168,368153.5,368056.909,370672.4,8,400,31,,ISIC_7030488.JPG
break,html.Screen,4_80_1,2023-08-25T21:28:32.187Z,,0,,,NaN,,,,,,false,,,,370764.89999997616,370764.5,,370763.60000002384,,370672.4,8,400,,,
break_continue,html.Screen,4_80_2,2023-08-25T21:28:32.188Z,,0,,,NaN,,,,,,false,,,,370765.60000002384,370765.39999997616,,370765,,370672.4,8,400,,,
sequence,flow.Sequence,4_80,2023-08-25T21:28:32.188Z,,0,,,2708.490999976173,completion,,,,,false,,,,370765.7999999523,370765.39999997616,368051.168,368153.5,368056.909,370672.4,8,400,,,
trial,html.Screen,4_81_0,2023-08-25T21:28:36.160Z,,0,2,,4065.0999999999767,response,ISIC_0032624.JPG,,ISIC_0030845.JPG,ISIC_0032624.JPG,false,1,keypress(m),500,374737.7999999523,374737.5,370663.54,370766,370672.4,374642.697,8,400,32,,ISIC_0030845.JPG
break,html.Screen,4_81_1,2023-08-25T21:28:36.162Z,,0,,,NaN,,,,,,false,,,,374739.6999999285,374738.6999999285,,374738,,374642.697,8,400,,,
break_continue,html.Screen,4_81_2,2023-08-25T21:28:36.162Z,,0,,,NaN,,,,,,false,,,,374740.5,374740.2999999523,,374740,,374642.697,8,400,,,
sequence,flow.Sequence,4_81,2023-08-25T21:28:36.163Z,,0,,,4067.899999952293,completion,,,,,false,,,,374740.60000002384,374740.2999999523,370663.54,370765.89999997616,370672.4,374642.697,8,400,,,
trial,html.Screen,4_82_0,2023-08-25T21:28:39.397Z,,0,2,,3332.3030000000144,response,ISIC_0010768.JPG,,ISIC_0058877.JPG,ISIC_0058877.JPG,false,0,keypress(z),500,377975.39999997616,377975,374640.435,374740.7999999523,374642.697,377882.358,8,400,33,,ISIC_0010768.JPG
break,html.Screen,4_82_1,2023-08-25T21:28:39.399Z,,0,,,NaN,,,,,,false,,,,377976.6999999285,377976.5,,377975.6999999285,,377882.358,8,400,,,
break_continue,html.Screen,4_82_2,2023-08-25T21:28:39.399Z,,0,,,NaN,,,,,,false,,,,377977,377977,,377976.89999997616,,377882.358,8,400,,,
sequence,flow.Sequence,4_82,2023-08-25T21:28:39.399Z,,0,,,3334.3030000000144,completion,,,,,false,,,,377977.10000002384,377977,374640.435,374740.6999999285,374642.697,377882.358,8,400,,,
trial,html.Screen,4_83_0,2023-08-25T21:28:42.600Z,,0,2,,3295.5419999761507,response,ISIC_8569205.JPG,,ISIC_0003767.JPG,ISIC_8569205.JPG,false,1,keypress(m),500,381178.1999999285,381177.89999997616,377876.918,377977.10000002384,377882.358,381083.159,8,400,34,,ISIC_0003767.JPG
break,html.Screen,4_83_1,2023-08-25T21:28:42.602Z,,0,,,NaN,,,,,,false,,,,381180.39999997616,381179.1999999285,,381178.5,,381083.159,8,400,,,
break_continue,html.Screen,4_83_2,2023-08-25T21:28:42.603Z,,0,,,NaN,,,,,,false,,,,381181.10000002384,381181,,381180.60000002384,,381083.159,8,400,,,
sequence,flow.Sequence,4_83,2023-08-25T21:28:42.603Z,,0,,,3298.6419999999925,completion,,,,,false,,,,381181.1999999285,381181,377876.918,377977.10000002384,377882.358,381083.159,8,400,,,
trial,html.Screen,4_84_0,2023-08-25T21:28:45.455Z,,0,2,,2950.0409999284893,response,ISIC_8650516.JPG,,ISIC_7953039.JPG,ISIC_7953039.JPG,false,0,keypress(z),500,384033.39999997616,384033.1999999285,381077.442,381181.2999999523,381083.159,383950.514,8,400,35,,ISIC_8650516.JPG
break,html.Screen,4_84_1,2023-08-25T21:28:45.456Z,,0,,,NaN,,,,,,false,,,,384034.1999999285,384033.89999997616,,384033.5,,383950.514,8,400,,,
break_continue,html.Screen,4_84_2,2023-08-25T21:28:45.456Z,,0,,,NaN,,,,,,false,,,,384034.5,384034.39999997616,,384034.2999999523,,383950.514,8,400,,,
sequence,flow.Sequence,4_84,2023-08-25T21:28:45.457Z,,0,,,2951.240999976173,completion,,,,,false,,,,384034.60000002384,384034.39999997616,381077.442,381181.2999999523,381083.159,383950.514,8,400,,,
trial,html.Screen,4_85_0,2023-08-25T21:28:48.458Z,,0,2,,3084.8859999761335,response,ISIC_1655513.JPG,,ISIC_5762714.JPG,ISIC_5762714.JPG,false,0,keypress(z),500,387035.5,387035.39999997616,383920.351,384034.6999999285,383950.514,386939.922,8,400,36,,ISIC_1655513.JPG
break,html.Screen,4_85_1,2023-08-25T21:28:48.458Z,,0,,,NaN,,,,,,false,,,,387036.10000002384,387035.89999997616,,387035.6999999285,,386939.922,8,400,,,
break_continue,html.Screen,4_85_2,2023-08-25T21:28:48.458Z,,0,,,NaN,,,,,,false,,,,387036.2999999523,387036.2999999523,,387036.1999999285,,386939.922,8,400,,,
sequence,flow.Sequence,4_85,2023-08-25T21:28:48.458Z,,0,,,3085.7859999522916,completion,,,,,false,,,,387036.39999997616,387036.2999999523,383920.351,384034.60000002384,383950.514,386939.922,8,400,,,
trial,html.Screen,4_86_0,2023-08-25T21:28:51.230Z,,0,2,,2867.6780000238214,response,ISIC_3392433.JPG,,ISIC_0011642.JPG,ISIC_0011642.JPG,false,0,keypress(z),500,389807.7999999523,389807.60000002384,386922.368,387036.39999997616,386939.922,389729.023,8,400,37,,ISIC_3392433.JPG
break,html.Screen,4_86_1,2023-08-25T21:28:51.231Z,,0,,,NaN,,,,,,false,,,,389809.1999999285,389808.2999999523,,389807.89999997616,,389729.023,8,400,,,
break_continue,html.Screen,4_86_2,2023-08-25T21:28:51.231Z,,0,,,NaN,,,,,,false,,,,389809.39999997616,389809.2999999523,,389809.1999999285,,389729.023,8,400,,,
sequence,flow.Sequence,4_86,2023-08-25T21:28:51.231Z,,0,,,2869.377999952296,completion,,,,,false,,,,389809.39999997616,389809.2999999523,386922.368,387036.39999997616,386939.922,389729.023,8,400,,,
trial,html.Screen,4_87_0,2023-08-25T21:28:53.897Z,,0,2,,2745.27699995233,response,ISIC_7505369.JPG,,ISIC_0024952.JPG,ISIC_0024952.JPG,false,0,keypress(z),500,392474.5,392474.2999999523,389694.723,389809.5,389729.023,392378.928,8,400,38,,ISIC_7505369.JPG
break,html.Screen,4_87_1,2023-08-25T21:28:53.898Z,,0,,,NaN,,,,,,false,,,,392475.60000002384,392475.1999999285,,392474.6999999285,,392378.928,8,400,,,
break_continue,html.Screen,4_87_2,2023-08-25T21:28:53.898Z,,0,,,NaN,,,,,,false,,,,392475.89999997616,392475.7999999523,,392475.6999999285,,392378.928,8,400,,,
sequence,flow.Sequence,4_87,2023-08-25T21:28:53.898Z,,0,,,2746.77699995233,completion,,,,,false,,,,392476,392475.7999999523,389694.723,389809.5,389729.023,392378.928,8,400,,,
trial,html.Screen,4_88_0,2023-08-25T21:28:56.800Z,,0,2,,2998.4719999761437,response,ISIC_2849353.JPG,,ISIC_4326917.JPG,ISIC_2849353.JPG,false,1,keypress(m),500,395377.60000002384,395377.39999997616,392374.09,392476,392378.928,395290.422,8,400,39,,ISIC_4326917.JPG
break,html.Screen,4_88_1,2023-08-25T21:28:56.800Z,,0,,,NaN,,,,,,false,,,,395378.39999997616,395378.10000002384,,395377.60000002384,,395290.422,8,400,,,
break_continue,html.Screen,4_88_2,2023-08-25T21:28:56.801Z,,0,,,NaN,,,,,,false,,,,395378.6999999285,395378.60000002384,,395378.5,,395290.422,8,400,,,
sequence,flow.Sequence,4_88,2023-08-25T21:28:56.801Z,,0,,,2999.6720000238274,completion,,,,,false,,,,395378.7999999523,395378.60000002384,392374.09,392476,392378.928,395290.422,8,400,,,
trial,html.Screen,4_89_0,2023-08-25T21:29:00.709Z,,0,2,,3996.4779999761377,response,ISIC_9860895.JPG,,ISIC_0014800.JPG,ISIC_0014800.JPG,false,0,keypress(z),500,399287.1999999285,399286.89999997616,395279.148,395378.89999997616,395290.422,399195.315,8,400,40,,ISIC_9860895.JPG
break,html.Screen,4_89_1,2023-08-25T21:29:00.710Z,,0,,,NaN,,,,,,false,,,,399288.1999999285,399287.89999997616,,399287.2999999523,,399195.315,8,400,,,
break_continue,html.Screen,4_89_2,2023-08-25T21:29:00.710Z,,0,,,NaN,,,,,,false,,,,399288.39999997616,399288.2999999523,,399288.1999999285,,399195.315,8,400,,,
sequence,flow.Sequence,4_89,2023-08-25T21:29:00.710Z,,0,,,3997.877999952296,completion,,,,,false,,,,399288.39999997616,399288.2999999523,395279.148,395378.7999999523,395290.422,399195.315,8,400,,,
trial,html.Screen,4_90_0,2023-08-25T21:29:06.215Z,,0,2,,5597.884999928472,response,ISIC_6471212.JPG,,ISIC_7885531.JPG,ISIC_7885531.JPG,false,0,keypress(z),500,404793.5,404793.1999999285,399190.126,399288.5,399195.315,404698.609,8,400,41,,ISIC_6471212.JPG
break,html.Screen,4_90_1,2023-08-25T21:29:06.218Z,,0,,,NaN,,,,,,false,,,,404795.60000002384,404794.5,,404793.6999999285,,404698.609,8,400,,,
break_continue,html.Screen,4_90_2,2023-08-25T21:29:06.218Z,,0,,,NaN,,,,,,false,,,,404796.5,404796.1999999285,,404795.89999997616,,404698.609,8,400,,,
sequence,flow.Sequence,4_90,2023-08-25T21:29:06.219Z,,0,,,5600.884999928472,completion,,,,,false,,,,404796.5,404796.1999999285,399190.126,399288.5,399195.315,404698.609,8,400,,,
trial,html.Screen,4_91_0,2023-08-25T21:29:08.958Z,,0,2,,2836.0909999284777,response,ISIC_0914251.JPG,,ISIC_0032272.JPG,ISIC_0032272.JPG,false,0,keypress(z),500,407535,407534.6999999285,404696.62,404796.6999999285,404698.609,407440.04,8,400,42,,ISIC_0914251.JPG
break,html.Screen,4_91_1,2023-08-25T21:29:08.959Z,,0,,,NaN,,,,,,false,,,,407536.5,407536.10000002384,,407535.2999999523,,407440.04,8,400,,,
break_continue,html.Screen,4_91_2,2023-08-25T21:29:08.960Z,,0,,,NaN,,,,,,false,,,,407537.10000002384,407536.89999997616,,407536.6999999285,,407440.04,8,400,,,
sequence,flow.Sequence,4_91,2023-08-25T21:29:08.960Z,,0,,,2838.2909999761614,completion,,,,,false,,,,407537.2999999523,407536.89999997616,404696.62,404796.6999999285,404698.609,407440.04,8,400,,,
trial,html.Screen,4_92_0,2023-08-25T21:29:11.842Z,,0,2,,2979.060000023863,response,ISIC_0025379.JPG,,ISIC_0027174.JPG,ISIC_0025379.JPG,false,1,keypress(m),500,410419.1999999285,410419.10000002384,407434.373,407537.39999997616,407440.04,410323.729,8,400,43,,ISIC_0027174.JPG
break,html.Screen,4_92_1,2023-08-25T21:29:11.844Z,,0,,,NaN,,,,,,false,,,,410420.6999999285,410419.89999997616,,410419.39999997616,,410323.729,8,400,,,
break_continue,html.Screen,4_92_2,2023-08-25T21:29:11.844Z,,0,,,NaN,,,,,,false,,,,410421.10000002384,410421,,410420.7999999523,,410323.729,8,400,,,
sequence,flow.Sequence,4_92,2023-08-25T21:29:11.844Z,,0,,,2980.960000000021,completion,,,,,false,,,,410421.1999999285,410421,407434.373,407537.39999997616,407440.04,410323.729,8,400,,,
trial,html.Screen,4_93_0,2023-08-25T21:29:15.145Z,,0,2,,3398.271000000008,response,ISIC_9521776.JPG,,ISIC_7260492.JPG,ISIC_9521776.JPG,false,1,keypress(m),500,413722.1999999285,413722,410320.295,410421.2999999523,410323.729,413628.214,8,400,44,,ISIC_7260492.JPG
break,html.Screen,4_93_1,2023-08-25T21:29:15.147Z,,0,,,NaN,,,,,,false,,,,413723.60000002384,413723.1999999285,,413722.5,,413628.214,8,400,,,
break_continue,html.Screen,4_93_2,2023-08-25T21:29:15.147Z,,0,,,NaN,,,,,,false,,,,413724,413723.89999997616,,413723.7999999523,,413628.214,8,400,,,
sequence,flow.Sequence,4_93,2023-08-25T21:29:15.147Z,,0,,,3400.170999976166,completion,,,,,false,,,,413724.10000002384,413723.89999997616,410320.295,410421.2999999523,410323.729,413628.214,8,400,,,
trial,html.Screen,4_94_0,2023-08-25T21:29:18.653Z,,0,2,,3601.18599997618,response,ISIC_0033492.JPG,,ISIC_0056326.JPG,ISIC_0033492.JPG,false,1,keypress(m),500,417229.60000002384,417229.39999997616,413625.487,413724.10000002384,413628.214,417134.726,8,400,45,,ISIC_0056326.JPG
break,html.Screen,4_94_1,2023-08-25T21:29:18.655Z,,0,,,NaN,,,,,,false,,,,417231.60000002384,417230.60000002384,,417229.7999999523,,417134.726,8,400,,,
break_continue,html.Screen,4_94_2,2023-08-25T21:29:18.655Z,,0,,,NaN,,,,,,false,,,,417232.2999999523,417232.1999999285,,417231.7999999523,,417134.726,8,400,,,
sequence,flow.Sequence,4_94,2023-08-25T21:29:18.655Z,,0,,,3603.9859999284963,completion,,,,,false,,,,417232.60000002384,417232.1999999285,413625.487,413724.10000002384,413628.214,417134.726,8,400,,,
trial,html.Screen,4_95_0,2023-08-25T21:29:22.482Z,,0,2,,3923.97399992845,response,ISIC_0056152.JPG,,ISIC_2461360.JPG,ISIC_2461360.JPG,false,0,keypress(z),500,421058.89999997616,421058.6999999285,417120.832,417232.60000002384,417134.726,420964.07,8,400,46,,ISIC_0056152.JPG
break,html.Screen,4_95_1,2023-08-25T21:29:22.483Z,,0,,,NaN,,,,,,false,,,,421060.39999997616,421059.89999997616,,421059.1999999285,,420964.07,8,400,,,
break_continue,html.Screen,4_95_2,2023-08-25T21:29:22.484Z,,0,,,NaN,,,,,,false,,,,421061.10000002384,421060.89999997616,,421060.5,,420964.07,8,400,,,
sequence,flow.Sequence,4_95,2023-08-25T21:29:22.484Z,,0,,,3926.173999976134,completion,,,,,false,,,,421061.39999997616,421060.89999997616,417120.832,417232.60000002384,417134.726,420964.07,8,400,,,
trial,html.Screen,4_96_0,2023-08-25T21:29:25.210Z,,0,2,,2822.429999999993,response,ISIC_0012064.JPG,,ISIC_0003767.JPG,ISIC_0012064.JPG,false,1,keypress(m),500,423786.6999999285,423786.5,420955.685,421061.6999999285,420964.07,423691.38,8,400,47,,ISIC_0003767.JPG
break,html.Screen,4_96_1,2023-08-25T21:29:25.211Z,,0,,,NaN,,,,,,false,,,,423788.39999997616,423787.5,,423787,,423691.38,8,400,,,
break_continue,html.Screen,4_96_2,2023-08-25T21:29:25.212Z,,0,,,NaN,,,,,,false,,,,423788.7999999523,423788.6999999285,,423788.5,,423691.38,8,400,,,
sequence,flow.Sequence,4_96,2023-08-25T21:29:25.212Z,,0,,,2824.6299999284674,completion,,,,,false,,,,423789,423788.6999999285,420955.685,421061.60000002384,420964.07,423691.38,8,400,,,
trial,html.Screen,4_97_0,2023-08-25T21:29:27.986Z,,0,2,,2871.4199999523116,response,ISIC_4734111.JPG,,ISIC_0011702.JPG,ISIC_0011702.JPG,false,0,keypress(z),500,426563.10000002384,426562.7999999523,423689.121,423789.10000002384,423691.38,426468.017,8,400,48,,ISIC_4734111.JPG
break,html.Screen,4_97_1,2023-08-25T21:29:27.988Z,,0,,,NaN,,,,,,false,,,,426565,426564,,426563.1999999285,,426468.017,8,400,,,
break_continue,html.Screen,4_97_2,2023-08-25T21:29:27.989Z,,0,,,NaN,,,,,,false,,,,426565.89999997616,426565.60000002384,,426565.39999997616,,426468.017,8,400,,,
sequence,flow.Sequence,4_97,2023-08-25T21:29:27.989Z,,0,,,2874.220000023837,completion,,,,,false,,,,426566.10000002384,426565.60000002384,423689.121,423789,423691.38,426468.017,8,400,,,
trial,html.Screen,4_98_0,2023-08-25T21:29:30.983Z,,0,2,,3092.0830000238493,response,ISIC_3365692.JPG,,ISIC_0011642.JPG,ISIC_0011642.JPG,false,0,keypress(z),500,429560.39999997616,429560.10000002384,426461.655,426566.10000002384,426468.017,429482.124,8,400,49,,ISIC_3365692.JPG
break,html.Screen,4_98_1,2023-08-25T21:29:30.985Z,,0,,,NaN,,,,,,false,,,,429561.60000002384,429561.2999999523,,429560.60000002384,,429482.124,8,400,,,
break_continue,html.Screen,4_98_2,2023-08-25T21:29:30.985Z,,0,,,NaN,,,,,,false,,,,429562.10000002384,429561.89999997616,,429561.7999999523,,429482.124,8,400,,,
sequence,flow.Sequence,4_98,2023-08-25T21:29:30.985Z,,0,,,3093.8829999761656,completion,,,,,false,,,,429562.1999999285,429561.89999997616,426461.655,426566.10000002384,426468.017,429482.124,8,400,,,
trial,html.Screen,4_99_0,2023-08-25T21:29:36.251Z,,0,2,,5346.075999928464,response,ISIC_0046642.JPG,,ISIC_0070217.JPG,ISIC_0046642.JPG,false,1,keypress(m),500,434828.39999997616,434828.1999999285,429457.576,429562.39999997616,429482.124,434733.354,8,400,50,,ISIC_0070217.JPG
break,html.Screen,4_99_1,2023-08-25T21:29:41.234Z,,0,,,4996.097999999998,timeout,,,,,false,,,,439811.10000002384,439712.797,434719.773,434828.6999999285,434733.354,439729.452,8,400,,,
break_continue,html.Screen,4_99_2,2023-08-25T21:31:53.744Z,,0,,,132576.94799997617,response,,,,,false,continue,keypress(Space),,572320.8999999762,572306.3999999762,439712.797,439811.2999999523,439729.452,572226.489,8,400,,,
sequence,flow.Sequence,4_99,2023-08-25T21:31:53.744Z,,0,,,142824.27599997615,completion,,,,,false,,,,572321,572306.3999999762,429457.576,429562.2999999523,429482.124,572226.489,8,400,,,
trial,html.Screen,4_100_0,2023-08-25T21:31:57.238Z,,0,3,,3588.6110000238987,response,ISIC_9142818.JPG,,ISIC_1684127.JPG,ISIC_1684127.JPG,false,0,keypress(z),500,575815.2999999523,575815.1000000238,572212.574,572321,572226.489,575720.236,8,400,1,,ISIC_9142818.JPG
break,html.Screen,4_100_1,2023-08-25T21:31:57.240Z,,0,,,NaN,,,,,,false,,,,575817.1999999285,575816.2999999523,,575815.6000000238,,575720.236,8,400,,,
break_continue,html.Screen,4_100_2,2023-08-25T21:31:57.241Z,,0,,,NaN,,,,,,false,,,,575817.8999999762,575817.7999999523,,575817.5,,575720.236,8,400,,,
sequence,flow.Sequence,4_100,2023-08-25T21:31:57.241Z,,0,,,3591.310999952373,completion,,,,,false,,,,575818.1000000238,575817.7999999523,572212.574,572321,572226.489,575720.236,8,400,,,
trial,html.Screen,4_101_0,2023-08-25T21:32:00.028Z,,0,3,,2884.3640000238083,response,ISIC_0032190.JPG,,ISIC_0024441.JPG,ISIC_0032190.JPG,false,1,keypress(m),500,578604.7999999523,578604.6000000238,575718.063,575818.1999999285,575720.236,578509.525,8,400,2,,ISIC_0024441.JPG
break,html.Screen,4_101_1,2023-08-25T21:32:00.029Z,,0,,,NaN,,,,,,false,,,,578605.7999999523,578605.3999999762,,578604.8999999762,,578509.525,8,400,,,
break_continue,html.Screen,4_101_2,2023-08-25T21:32:00.029Z,,0,,,NaN,,,,,,false,,,,578606,578605.8999999762,,578605.8999999762,,578509.525,8,400,,,
sequence,flow.Sequence,4_101,2023-08-25T21:32:00.029Z,,0,,,2885.6639999761246,completion,,,,,false,,,,578606.2999999523,578605.8999999762,575718.063,575818.1999999285,575720.236,578509.525,8,400,,,
trial,html.Screen,4_102_0,2023-08-25T21:32:02.848Z,,0,3,,2915.0750000238186,response,ISIC_0054936.JPG,,ISIC_8633894.JPG,ISIC_0054936.JPG,false,1,keypress(m),500,581424.7999999523,581424.6000000238,578494.234,578606.2999999523,578509.525,581346.553,8,400,3,,ISIC_8633894.JPG
break,html.Screen,4_102_1,2023-08-25T21:32:02.850Z,,0,,,NaN,,,,,,false,,,,581426.8999999762,581425.8999999762,,581425.1000000238,,581346.553,8,400,,,
break_continue,html.Screen,4_102_2,2023-08-25T21:32:02.851Z,,0,,,NaN,,,,,,false,,,,581427.5,581427.2999999523,,581427.1000000238,,581346.553,8,400,,,
sequence,flow.Sequence,4_102,2023-08-25T21:32:02.851Z,,0,,,2917.774999952293,completion,,,,,false,,,,581427.6000000238,581427.2999999523,578494.234,578606.2999999523,578509.525,581346.553,8,400,,,
trial,html.Screen,4_103_0,2023-08-25T21:32:05.547Z,,0,3,,2776.646999928518,response,ISIC_0031224.JPG,,ISIC_0002566.JPG,ISIC_0031224.JPG,false,1,keypress(m),500,584123.3999999762,584123.1999999285,581316.855,581427.7999999523,581346.553,584028.343,8,400,4,,ISIC_0002566.JPG
break,html.Screen,4_103_1,2023-08-25T21:32:05.548Z,,0,,,NaN,,,,,,false,,,,584125.2999999523,584124.2999999523,,584123.6999999285,,584028.343,8,400,,,
break_continue,html.Screen,4_103_2,2023-08-25T21:32:05.549Z,,0,,,NaN,,,,,,false,,,,584126,584125.7999999523,,584125.5,,584028.343,8,400,,,
sequence,flow.Sequence,4_103,2023-08-25T21:32:05.549Z,,0,,,2779.24699995236,completion,,,,,false,,,,584126.1000000238,584125.7999999523,581316.855,581427.6999999285,581346.553,584028.343,8,400,,,
trial,html.Screen,4_104_0,2023-08-25T21:32:08.287Z,,0,3,,2835.2570000238484,response,ISIC_1514401.JPG,,ISIC_1711973.JPG,ISIC_1711973.JPG,false,0,keypress(z),500,586864,586863.6000000238,584026.101,584126.2999999523,584028.343,586768.775,8,400,5,,ISIC_1514401.JPG
break,html.Screen,4_104_1,2023-08-25T21:32:08.289Z,,0,,,NaN,,,,,,false,,,,586865.7999999523,586864.8999999762,,586864.1999999285,,586768.775,8,400,,,
break_continue,html.Screen,4_104_2,2023-08-25T21:32:08.289Z,,0,,,NaN,,,,,,false,,,,586866.1999999285,586866.1000000238,,586866,,586768.775,8,400,,,
sequence,flow.Sequence,4_104,2023-08-25T21:32:08.289Z,,0,,,2837.7570000238484,completion,,,,,false,,,,586866.2999999523,586866.1000000238,584026.101,584126.2999999523,584028.343,586768.775,8,400,,,
trial,html.Screen,4_105_0,2023-08-25T21:32:11.796Z,,0,3,,3603.524999952293,response,ISIC_0030003.JPG,,ISIC_0014486.JPG,ISIC_0014486.JPG,false,0,keypress(z),500,590372.5,590372.2999999523,586762.948,586866.2999999523,586768.775,590276.921,8,400,6,,ISIC_0030003.JPG
break,html.Screen,4_105_1,2023-08-25T21:32:11.796Z,,0,,,NaN,,,,,,false,,,,590373.1999999285,590373.1000000238,,590372.6999999285,,590276.921,8,400,,,
break_continue,html.Screen,4_105_2,2023-08-25T21:32:11.797Z,,0,,,NaN,,,,,,false,,,,590373.3999999762,590373.3999999762,,590373.2999999523,,590276.921,8,400,,,
sequence,flow.Sequence,4_105,2023-08-25T21:32:11.797Z,,0,,,3604.624999976135,completion,,,,,false,,,,590373.5,590373.3999999762,586762.948,586866.2999999523,586768.775,590276.921,8,400,,,
trial,html.Screen,4_106_0,2023-08-25T21:32:14.936Z,,0,3,,3235.8789999523433,response,ISIC_0014480.JPG,,ISIC_5092834.JPG,ISIC_0014480.JPG,false,1,keypress(m),500,593512.8999999762,593512.7999999523,590267.72,590373.6000000238,590276.921,593428.88,8,400,7,,ISIC_5092834.JPG
break,html.Screen,4_106_1,2023-08-25T21:32:14.937Z,,0,,,NaN,,,,,,false,,,,593513.3999999762,593513.2999999523,,593513,,593428.88,8,400,,,
break_continue,html.Screen,4_106_2,2023-08-25T21:32:14.937Z,,0,,,NaN,,,,,,false,,,,593513.6000000238,593513.6000000238,,593513.5,,593428.88,8,400,,,
sequence,flow.Sequence,4_106,2023-08-25T21:32:14.937Z,,0,,,3236.679000023869,completion,,,,,false,,,,593513.6999999285,593513.6000000238,590267.72,590373.6000000238,590276.921,593428.88,8,400,,,
trial,html.Screen,4_107_0,2023-08-25T21:32:17.615Z,,0,3,,2762.9199999523116,response,ISIC_1205826.JPG,,ISIC_0063493.JPG,ISIC_0063493.JPG,false,0,keypress(z),500,596192,596191.7999999523,593400.206,593513.6999999285,593428.88,596096.72,8,400,8,,ISIC_1205826.JPG
break,html.Screen,4_107_1,2023-08-25T21:32:17.616Z,,0,,,NaN,,,,,,false,,,,596193,596192.6000000238,,596192.1999999285,,596096.72,8,400,,,
break_continue,html.Screen,4_107_2,2023-08-25T21:32:17.617Z,,0,,,NaN,,,,,,false,,,,596193.6999999285,596193.6999999285,,596193.5,,596096.72,8,400,,,
sequence,flow.Sequence,4_107,2023-08-25T21:32:17.617Z,,0,,,2764.8199999284698,completion,,,,,false,,,,596193.7999999523,596193.6999999285,593400.206,593513.6999999285,593428.88,596096.72,8,400,,,
trial,html.Screen,4_108_0,2023-08-25T21:32:22.947Z,,0,3,,5426.979999928502,response,ISIC_0061152.JPG,,ISIC_0032034.JPG,ISIC_0061152.JPG,false,1,keypress(m),500,601523.7999999523,601523.6999999285,596094.997,596193.8999999762,596096.72,601433.807,8,400,9,,ISIC_0032034.JPG
break,html.Screen,4_108_1,2023-08-25T21:32:22.948Z,,0,,,NaN,,,,,,false,,,,601524.5,601524.2999999523,,601524,,601433.807,8,400,,,
break_continue,html.Screen,4_108_2,2023-08-25T21:32:22.948Z,,0,,,NaN,,,,,,false,,,,601524.8999999762,601524.7999999523,,601524.6000000238,,601433.807,8,400,,,
sequence,flow.Sequence,4_108,2023-08-25T21:32:22.948Z,,0,,,5428.079999952344,completion,,,,,false,,,,601525,601524.7999999523,596094.997,596193.8999999762,596096.72,601433.807,8,400,,,
trial,html.Screen,4_109_0,2023-08-25T21:32:25.494Z,,0,3,,2637.293000023812,response,ISIC_8373462.JPG,,ISIC_6908183.JPG,ISIC_6908183.JPG,false,0,keypress(z),500,604071.2999999523,604071.1000000238,601418.854,601525,601433.807,603992.944,8,400,10,,ISIC_8373462.JPG
break,html.Screen,4_109_1,2023-08-25T21:32:25.496Z,,0,,,NaN,,,,,,false,,,,604072.6000000238,604071.7999999523,,604071.5,,603992.944,8,400,,,
break_continue,html.Screen,4_109_2,2023-08-25T21:32:25.496Z,,0,,,NaN,,,,,,false,,,,604072.7999999523,604072.7999999523,,604072.6000000238,,603992.944,8,400,,,
sequence,flow.Sequence,4_109,2023-08-25T21:32:25.496Z,,0,,,2638.9929999522865,completion,,,,,false,,,,604072.8999999762,604072.7999999523,601418.854,601525,601433.807,603992.944,8,400,,,
trial,html.Screen,4_110_0,2023-08-25T21:32:28.401Z,,0,3,,2984.7559999284567,response,ISIC_8725878.JPG,,ISIC_8036544.JPG,ISIC_8725878.JPG,false,1,keypress(m),500,606977.8999999762,606977.6999999285,603974.189,604072.8999999762,603992.944,606882.424,8,400,11,,ISIC_8036544.JPG
break,html.Screen,4_110_1,2023-08-25T21:32:28.402Z,,0,,,NaN,,,,,,false,,,,606979.1999999285,606978.3999999762,,606978,,606882.424,8,400,,,
break_continue,html.Screen,4_110_2,2023-08-25T21:32:28.403Z,,0,,,NaN,,,,,,false,,,,606979.5,606979.3999999762,,606979.2999999523,,606882.424,8,400,,,
sequence,flow.Sequence,4_110,2023-08-25T21:32:28.403Z,,0,,,2986.4559999761404,completion,,,,,false,,,,606979.6000000238,606979.3999999762,603974.189,604072.8999999762,603992.944,606882.424,8,400,,,
trial,html.Screen,4_111_0,2023-08-25T21:32:32.612Z,,0,3,,4306.176000023843,response,ISIC_6488658.JPG,,ISIC_6854940.JPG,ISIC_6488658.JPG,false,1,keypress(m),500,611188.7999999523,611188.6000000238,606870.024,606979.6999999285,606882.424,611093.174,8,400,12,,ISIC_6854940.JPG
break,html.Screen,4_111_1,2023-08-25T21:32:32.613Z,,0,,,NaN,,,,,,false,,,,611189.3999999762,611189.2999999523,,611188.8999999762,,611093.174,8,400,,,
break_continue,html.Screen,4_111_2,2023-08-25T21:32:32.613Z,,0,,,NaN,,,,,,false,,,,611189.6999999285,611189.6000000238,,611189.5,,611093.174,8,400,,,
sequence,flow.Sequence,4_111,2023-08-25T21:32:32.613Z,,0,,,4307.176000023843,completion,,,,,false,,,,611189.6999999285,611189.6000000238,606870.024,606979.6000000238,606882.424,611093.174,8,400,,,
trial,html.Screen,4_112_0,2023-08-25T21:32:35.703Z,,0,3,,3186.326000000001,response,ISIC_9760968.JPG,,ISIC_5941314.JPG,ISIC_9760968.JPG,false,1,keypress(m),500,614279.6000000238,614279.5,611077.041,611190,611093.174,614184.021,8,400,13,,ISIC_5941314.JPG
break,html.Screen,4_112_1,2023-08-25T21:32:35.704Z,,0,,,NaN,,,,,,false,,,,614280.5,614280.1999999285,,614279.7999999523,,614184.021,8,400,,,
break_continue,html.Screen,4_112_2,2023-08-25T21:32:35.704Z,,0,,,NaN,,,,,,false,,,,614280.6999999285,614280.6999999285,,614280.6000000238,,614184.021,8,400,,,
sequence,flow.Sequence,4_112,2023-08-25T21:32:35.704Z,,0,,,3187.5259999284754,completion,,,,,false,,,,614280.7999999523,614280.6999999285,611077.041,611190,611093.174,614184.021,8,400,,,
trial,html.Screen,4_113_0,2023-08-25T21:32:38.611Z,,0,3,,3003.3789999762084,response,ISIC_0031915.JPG,,ISIC_2673511.JPG,ISIC_0031915.JPG,false,1,keypress(m),500,617187.6000000238,617187.3999999762,614172.101,614280.8999999762,614184.021,617092.413,8,400,14,,ISIC_2673511.JPG
break,html.Screen,4_113_1,2023-08-25T21:32:38.613Z,,0,,,NaN,,,,,,false,,,,617189.5,617189.2999999523,,617187.8999999762,,617092.413,8,400,,,
break_continue,html.Screen,4_113_2,2023-08-25T21:32:38.613Z,,0,,,NaN,,,,,,false,,,,617189.8999999762,617189.7999999523,,617189.6000000238,,617092.413,8,400,,,
sequence,flow.Sequence,4_113,2023-08-25T21:32:38.613Z,,0,,,3005.7789999523666,completion,,,,,false,,,,617189.8999999762,617189.7999999523,614172.101,614280.7999999523,614184.021,617092.413,8,400,,,
trial,html.Screen,4_114_0,2023-08-25T21:32:42.444Z,,0,3,,3928.786999928532,response,ISIC_6239663.JPG,,ISIC_0054480.JPG,ISIC_0054480.JPG,false,0,keypress(z),500,621021.2999999523,621021.1999999285,617089.492,617190,617092.413,620925.973,8,400,15,,ISIC_6239663.JPG
break,html.Screen,4_114_1,2023-08-25T21:32:42.445Z,,0,,,NaN,,,,,,false,,,,621021.8999999762,621021.6999999285,,621021.3999999762,,620925.973,8,400,,,
break_continue,html.Screen,4_114_2,2023-08-25T21:32:42.445Z,,0,,,NaN,,,,,,false,,,,621022.1000000238,621022.1000000238,,621022,,620925.973,8,400,,,
sequence,flow.Sequence,4_114,2023-08-25T21:32:42.445Z,,0,,,3929.6870000238996,completion,,,,,false,,,,621022.1000000238,621022.1000000238,617089.492,617190,617092.413,620925.973,8,400,,,
trial,html.Screen,4_115_0,2023-08-25T21:32:45.590Z,,0,3,,3241.027000000002,response,ISIC_9099430.JPG,,ISIC_0010372.JPG,ISIC_9099430.JPG,false,1,keypress(m),500,624167.1000000238,624167,620923.501,621022.1999999285,620925.973,624071.776,8,400,16,,ISIC_0010372.JPG
break,html.Screen,4_115_1,2023-08-25T21:32:45.591Z,,0,,,NaN,,,,,,false,,,,624167.8999999762,624167.6999999285,,624167.2999999523,,624071.776,8,400,,,
break_continue,html.Screen,4_115_2,2023-08-25T21:32:45.591Z,,0,,,NaN,,,,,,false,,,,624168.1000000238,624168.1000000238,,624168,,624071.776,8,400,,,
sequence,flow.Sequence,4_115,2023-08-25T21:32:45.591Z,,0,,,3242.1270000238437,completion,,,,,false,,,,624168.2999999523,624168.1000000238,620923.501,621022.1999999285,620925.973,624071.776,8,400,,,
trial,html.Screen,4_116_0,2023-08-25T21:32:49.098Z,,0,3,,3602.7240000000456,response,ISIC_6993129.JPG,,ISIC_3914140.JPG,ISIC_6993129.JPG,false,1,keypress(m),500,627674.6999999285,627674.5,624070.19,624168.2999999523,624071.776,627579.367,8,400,17,,ISIC_3914140.JPG
break,html.Screen,4_116_1,2023-08-25T21:32:49.099Z,,0,,,NaN,,,,,,false,,,,627675.7999999523,627675.6000000238,,627674.8999999762,,627579.367,8,400,,,
break_continue,html.Screen,4_116_2,2023-08-25T21:32:49.099Z,,0,,,NaN,,,,,,false,,,,627676.2999999523,627676.2999999523,,627675.8999999762,,627579.367,8,400,,,
sequence,flow.Sequence,4_116,2023-08-25T21:32:49.100Z,,0,,,3604.523999952362,completion,,,,,false,,,,627676.3999999762,627676.2999999523,624070.19,624168.2999999523,624071.776,627579.367,8,400,,,
trial,html.Screen,4_117_0,2023-08-25T21:32:52.145Z,,0,3,,3142.6330000000307,response,ISIC_0645454.JPG,,ISIC_0034180.JPG,ISIC_0034180.JPG,false,0,keypress(z),500,630722.1999999285,630722,627570.695,627676.6000000238,627579.367,630626.835,8,400,18,,ISIC_0645454.JPG
break,html.Screen,4_117_1,2023-08-25T21:32:52.146Z,,0,,,NaN,,,,,,false,,,,630723.1000000238,630722.6999999285,,630722.2999999523,,630626.835,8,400,,,
break_continue,html.Screen,4_117_2,2023-08-25T21:32:52.147Z,,0,,,NaN,,,,,,false,,,,630723.2999999523,630723.2999999523,,630723.1999999285,,630626.835,8,400,,,
sequence,flow.Sequence,4_117,2023-08-25T21:32:52.147Z,,0,,,3143.932999952347,completion,,,,,false,,,,630723.6000000238,630723.2999999523,627570.695,627676.5,627579.367,630626.835,8,400,,,
trial,html.Screen,4_118_0,2023-08-25T21:32:54.908Z,,0,3,,2858.5649999761954,response,ISIC_0028800.JPG,,ISIC_0027024.JPG,ISIC_0027024.JPG,false,0,keypress(z),500,633485.6000000238,633485.3999999762,630625.401,630723.6000000238,630626.835,633390.341,8,400,19,,ISIC_0028800.JPG
break,html.Screen,4_118_1,2023-08-25T21:32:54.910Z,,0,,,NaN,,,,,,false,,,,633487.3999999762,633486.3999999762,,633485.7999999523,,633390.341,8,400,,,
break_continue,html.Screen,4_118_2,2023-08-25T21:32:54.911Z,,0,,,NaN,,,,,,false,,,,633487.6999999285,633487.6000000238,,633487.3999999762,,633390.341,8,400,,,
sequence,flow.Sequence,4_118,2023-08-25T21:32:54.911Z,,0,,,2860.765000023879,completion,,,,,false,,,,633487.7999999523,633487.6000000238,630625.401,630723.6000000238,630626.835,633390.341,8,400,,,
trial,html.Screen,4_119_0,2023-08-25T21:32:58.128Z,,0,3,,3314.9589999523014,response,ISIC_0071647.JPG,,ISIC_0066223.JPG,ISIC_0071647.JPG,false,1,keypress(m),500,636705.5,636705.2999999523,633387.545,633487.8999999762,633390.341,636609.994,8,400,20,,ISIC_0066223.JPG
break,html.Screen,4_119_1,2023-08-25T21:32:58.129Z,,0,,,NaN,,,,,,false,,,,636706.1999999285,636706,,636705.6000000238,,636609.994,8,400,,,
break_continue,html.Screen,4_119_2,2023-08-25T21:32:58.130Z,,0,,,NaN,,,,,,false,,,,636707,636706.8999999762,,636706.7999999523,,636609.994,8,400,,,
sequence,flow.Sequence,4_119,2023-08-25T21:32:58.130Z,,0,,,3316.5589999761432,completion,,,,,false,,,,636707,636706.8999999762,633387.545,633487.8999999762,633390.341,636609.994,8,400,,,
trial,html.Screen,4_120_0,2023-08-25T21:33:03.050Z,,0,3,,5016.506000000052,response,ISIC_0066209.JPG,,ISIC_7176034.JPG,ISIC_0066209.JPG,false,1,keypress(m),500,641626.6999999285,641626.5,636594.917,636707.1999999285,636609.994,641548.695,8,400,21,,ISIC_7176034.JPG
break,html.Screen,4_120_1,2023-08-25T21:33:03.050Z,,0,,,NaN,,,,,,false,,,,641627.2999999523,641627.1000000238,,641626.7999999523,,641548.695,8,400,,,
break_continue,html.Screen,4_120_2,2023-08-25T21:33:03.050Z,,0,,,NaN,,,,,,false,,,,641627.5,641627.3999999762,,641627.2999999523,,641548.695,8,400,,,
sequence,flow.Sequence,4_120,2023-08-25T21:33:03.050Z,,0,,,5017.40599997621,completion,,,,,false,,,,641627.6000000238,641627.3999999762,636594.917,636707.1000000238,636609.994,641548.695,8,400,,,
trial,html.Screen,4_121_0,2023-08-25T21:33:06.797Z,,0,3,,3825.305000000051,response,ISIC_0002693.JPG,,ISIC_1956354.JPG,ISIC_0002693.JPG,false,1,keypress(m),500,645374.2999999523,645374,641532.023,641627.6999999285,641548.695,645280.89,8,400,22,,ISIC_1956354.JPG
break,html.Screen,4_121_1,2023-08-25T21:33:06.798Z,,0,,,NaN,,,,,,false,,,,645375.3999999762,645375.1999999285,,645374.5,,645280.89,8,400,,,
break_continue,html.Screen,4_121_2,2023-08-25T21:33:06.799Z,,0,,,NaN,,,,,,false,,,,645375.7999999523,645375.7999999523,,645375.5,,645280.89,8,400,,,
sequence,flow.Sequence,4_121,2023-08-25T21:33:06.799Z,,0,,,3827.1049999523675,completion,,,,,false,,,,645375.8999999762,645375.7999999523,641532.023,641627.6000000238,641548.695,645280.89,8,400,,,
trial,html.Screen,4_122_0,2023-08-25T21:33:09.793Z,,0,3,,3089.109999999986,response,ISIC_0016092.JPG,,ISIC_0011696.JPG,ISIC_0011696.JPG,false,0,keypress(z),500,648370.1000000238,648370,645270.871,645375.8999999762,645280.89,648288.668,8,400,23,,ISIC_0016092.JPG
break,html.Screen,4_122_1,2023-08-25T21:33:09.793Z,,0,,,NaN,,,,,,false,,,,648370.6000000238,648370.5,,648370.1000000238,,648288.668,8,400,,,
break_continue,html.Screen,4_122_2,2023-08-25T21:33:09.794Z,,0,,,NaN,,,,,,false,,,,648370.6999999285,648370.6999999285,,648370.6999999285,,648288.668,8,400,,,
sequence,flow.Sequence,4_122,2023-08-25T21:33:09.794Z,,0,,,3089.8099999284605,completion,,,,,false,,,,648370.8999999762,648370.6999999285,645270.871,645375.8999999762,645280.89,648288.668,8,400,,,
trial,html.Screen,4_123_0,2023-08-25T21:33:12.504Z,,0,3,,2791.832000000053,response,ISIC_0033883.JPG,,ISIC_0065260.JPG,ISIC_0065260.JPG,false,0,keypress(z),500,651080.7999999523,651080.5,648270.816,648370.8999999762,648288.668,650985.911,8,400,24,,ISIC_0033883.JPG
break,html.Screen,4_123_1,2023-08-25T21:33:12.505Z,,0,,,NaN,,,,,,false,,,,651081.8999999762,651081.6000000238,,651081,,650985.911,8,400,,,
break_continue,html.Screen,4_123_2,2023-08-25T21:33:12.506Z,,0,,,NaN,,,,,,false,,,,651082.7999999523,651082.6999999285,,651082.6000000238,,650985.911,8,400,,,
sequence,flow.Sequence,4_123,2023-08-25T21:33:12.506Z,,0,,,2794.0319999285275,completion,,,,,false,,,,651082.8999999762,651082.6999999285,648270.816,648370.8999999762,648288.668,650985.911,8,400,,,
trial,html.Screen,4_124_0,2023-08-25T21:33:15.564Z,,0,3,,3155.3889999523526,response,ISIC_0032492.JPG,,ISIC_0013365.JPG,ISIC_0032492.JPG,false,1,keypress(m),500,654141.6000000238,654141.2999999523,650983.91,651083,650985.911,654046.728,8,400,25,,ISIC_0013365.JPG
break,html.Screen,4_124_1,2023-08-25T21:33:15.566Z,,0,,,NaN,,,,,,false,,,,654143.6999999285,654142.6000000238,,654141.7999999523,,654046.728,8,400,,,
break_continue,html.Screen,4_124_2,2023-08-25T21:33:15.567Z,,0,,,NaN,,,,,,false,,,,654144.2999999523,654144.1000000238,,654143.6999999285,,654046.728,8,400,,,
sequence,flow.Sequence,4_124,2023-08-25T21:33:15.567Z,,0,,,3158.189000023878,completion,,,,,false,,,,654144.3999999762,654144.1000000238,650983.91,651083,650985.911,654046.728,8,400,,,
trial,html.Screen,4_125_0,2023-08-25T21:33:19.937Z,,0,3,,4467.5719999523135,response,ISIC_0029561.JPG,,ISIC_3093026.JPG,ISIC_3093026.JPG,false,0,keypress(z),500,658514.5,658514.2999999523,654037.476,654144.3999999762,654046.728,658424.553,8,400,26,,ISIC_0029561.JPG
break,html.Screen,4_125_1,2023-08-25T21:33:19.938Z,,0,,,NaN,,,,,,false,,,,658515.5,658515.1999999285,,658514.6999999285,,658424.553,8,400,,,
break_continue,html.Screen,4_125_2,2023-08-25T21:33:19.939Z,,0,,,NaN,,,,,,false,,,,658515.8999999762,658515.6999999285,,658515.6000000238,,658424.553,8,400,,,
sequence,flow.Sequence,4_125,2023-08-25T21:33:19.939Z,,0,,,4468.971999928472,completion,,,,,false,,,,658516,658515.6999999285,654037.476,654144.3999999762,654046.728,658424.553,8,400,,,
