sender,sender_type,sender_id,timestamp,meta,,blockNo,condition,duration,ended_on,img_left,img_reveal,img_right,loser,practice,response,response_action,selection_duration,time_commit,time_end,time_render,time_run,time_show,time_switch,total_blocks,total_trials,trialNo,url,winner
informed_consent,html.Screen,0,2023-09-12T21:08:44.883Z,"{""labjs_version"":""20.2.4"",""labjs_build"":{""flavor"":""production"",""commit"":""f5b4a49f956347addd546a832a3327688c2c0fef""},""location"":""https://run.pavlovia.org/MurrayBennett/melanoma-2afc/?participant=67539&platform=sona"",""userAgent"":""Mozilla/5.0 (Windows NT 10.0; Win64; x64) AppleWebKit/537.36 (KHTML, like Gecko) Chrome/116.0.0.0 Safari/537.36"",""platform"":""Win32"",""language"":""en-US"",""locale"":""en-US"",""timeZone"":""America/Chicago"",""timezoneOffset"":300,""screen_width"":1536,""screen_height"":864,""scroll_width"":1536,""scroll_height"":659,""window_innerWidth"":1536,""window_innerHeight"":707,""devicePixelRatio"":1.25}",,,,64977.011000095365,response,,,,,,consent,click button,,67134.20000004768,67132.90000009537,2139.237,2146.9000000953674,2155.889,67152.245,,,,"{""participant"":""67539"",""platform"":""sona""}",
Welcome,html.Screen,1,2023-09-12T21:09:35.612Z,,,,colourful,50710.15500009537,response,,,,,,continue,click button,,117863.20000004768,117862.40000009537,67132.525,67134.40000009537,67152.245,117879.485,,,,,
trial,html.Screen,2_0_0,2023-09-12T21:09:40.248Z,,0,0,,4618.715000047683,response,ISIC_0063388.JPG,,ISIC_0025593.JPG,ISIC_0063388.JPG,true,1,keypress(m),500,122498.60000014305,122498.20000004768,117862.84,117863.40000009537,117879.485,122517.995,1,6,1,,ISIC_0025593.JPG
sequence,flow.Sequence,2_0,2023-09-12T21:09:40.248Z,,0,,,4618.715000047683,completion,,,,,true,,,,122499.10000014305,122498.20000004768,117862.84,117863.40000009537,117879.485,122517.995,1,6,,,
trial,html.Screen,2_1_0,2023-09-12T21:09:44.283Z,,0,0,,4015.7050000476884,response,ISIC_0028178.JPG,,ISIC_1309015.JPG,ISIC_1309015.JPG,true,0,keypress(z),500,126534.10000014305,126533.70000004768,122495.79,122499.20000004768,122517.995,126536.486,1,6,2,,ISIC_0028178.JPG
sequence,flow.Sequence,2_1,2023-09-12T21:09:44.284Z,,0,,,4015.7050000476884,completion,,,,,true,,,,126534.30000019073,126533.70000004768,122495.79,122499.20000004768,122517.995,126536.486,1,6,,,
trial,html.Screen,2_2_0,2023-09-12T21:09:49.422Z,,0,0,,5135.414000095363,response,ISIC_0031128.JPG,,ISIC_3314853.JPG,ISIC_3314853.JPG,true,0,keypress(z),500,131672.10000014305,131671.90000009537,126531.617,126534.5,126536.486,131674.701,1,6,3,,ISIC_0031128.JPG
sequence,flow.Sequence,2_2,2023-09-12T21:09:49.422Z,,0,,,5135.414000095363,completion,,,,,true,,,,131672.5,131671.90000009537,126531.617,126534.5,126536.486,131674.701,1,6,,,
trial,html.Screen,2_3_0,2023-09-12T21:09:55.633Z,,0,0,,6208.89900014305,response,ISIC_0031612.JPG,,ISIC_8980141.JPG,ISIC_8980141.JPG,true,0,keypress(z),500,137883.70000004768,137883.60000014305,131672.146,131672.70000004768,131674.701,137885.576,1,6,4,,ISIC_0031612.JPG
sequence,flow.Sequence,2_3,2023-09-12T21:09:55.634Z,,0,,,6208.89900014305,completion,,,,,true,,,,137883.90000009537,137883.60000014305,131672.146,131672.60000014305,131674.701,137885.576,1,6,,,
trial,html.Screen,2_4_0,2023-09-12T21:09:59.527Z,,0,0,,3891.724000190734,response,ISIC_1197737.JPG,,ISIC_9721604.JPG,ISIC_9721604.JPG,true,0,keypress(z),500,141777.60000014305,141777.30000019073,137867.836,137883.90000009537,137885.576,141780.18,1,6,5,,ISIC_1197737.JPG
sequence,flow.Sequence,2_4,2023-09-12T21:09:59.528Z,,0,,,3891.724000190734,completion,,,,,true,,,,141778,141777.30000019073,137867.836,137883.90000009537,137885.576,141780.18,1,6,,,
trial,html.Screen,2_5_0,2023-09-12T21:10:06.075Z,,0,0,,6544.620000190742,response,ISIC_0025346.JPG,,ISIC_0010681.JPG,ISIC_0010681.JPG,true,0,keypress(z),500,148325.10000014305,148324.80000019073,141778.727,141778.20000004768,141780.18,148327.812,1,6,6,,ISIC_0025346.JPG
sequence,flow.Sequence,2_5,2023-09-12T21:10:06.075Z,,0,,,6544.620000190742,completion,,,,,true,,,,148325.5,148324.80000019073,141778.727,141778.10000014305,141780.18,148327.812,1,6,,,
loop,flow.Loop,2,2023-09-12T21:10:06.075Z,,,,,30445.315000190734,completion,,,,,true,,,,148325.70000004768,148324.80000019073,117862.84,117863.30000019073,117879.485,148327.812,1,6,,,
exp_instructions,html.Screen,3,2023-09-12T21:10:22.850Z,,,,,16771.588000095362,response,,,,,,continue,keypress(Space),,165100.40000009537,165099.40000009537,148325.484,148325.80000019073,148327.812,165102.649,,,,,
trial,html.Screen,4_0_0,2023-09-12T21:10:29.516Z,,0,1,,6663.451000143046,response,ISIC_2520840.JPG,5,ISIC_9544832.JPG,ISIC_2520840.JPG,false,1,keypress(m),500,171766.40000009537,171766.10000014305,165092.943,165100.60000014305,165102.649,171768.735,8,400,1,,ISIC_9544832.JPG
break,html.Screen,4_0_1,2023-09-12T21:10:29.518Z,,0,,,NaN,,,,,,false,,,,171768.10000014305,171767.40000009537,,171766.70000004768,,171768.735,8,400,,,
break_continue,html.Screen,4_0_2,2023-09-12T21:10:29.518Z,,0,,,NaN,,,,,,false,,,,171768.70000004768,171768.5,,171768.30000019073,,171768.735,8,400,,,
sequence,flow.Sequence,4_0,2023-09-12T21:10:29.519Z,,0,,,6665.850999999995,completion,,,,,false,,,,171768.80000019073,171768.5,165092.943,165100.60000014305,165102.649,171768.735,8,400,,,
trial,html.Screen,4_1_0,2023-09-12T21:10:35.953Z,,0,1,,6434.465000047698,response,ISIC_0026558.JPG,5,ISIC_0029056.JPG,ISIC_0029056.JPG,false,0,keypress(z),500,178203.30000019073,178203.20000004768,171766.83,171768.90000009537,171768.735,178221.748,8,400,2,,ISIC_0026558.JPG
break,html.Screen,4_1_1,2023-09-12T21:10:35.953Z,,0,,,NaN,,,,,,false,,,,178203.70000004768,178203.60000014305,,178203.40000009537,,178221.748,8,400,,,
break_continue,html.Screen,4_1_2,2023-09-12T21:10:35.954Z,,0,,,NaN,,,,,,false,,,,178203.80000019073,178203.80000019073,,178203.70000004768,,178221.748,8,400,,,
sequence,flow.Sequence,4_1,2023-09-12T21:10:35.954Z,,0,,,6435.065000190749,completion,,,,,false,,,,178203.90000009537,178203.80000019073,171766.83,171768.90000009537,171768.735,178221.748,8,400,,,
trial,html.Screen,4_2_0,2023-09-12T21:10:41.683Z,,0,1,,5711.152000095375,response,ISIC_0009958.JPG,5,ISIC_4322723.JPG,ISIC_4322723.JPG,false,0,keypress(z),500,183933.10000014305,183932.90000009537,178192.384,178203.90000009537,178221.748,183952.086,8,400,3,,ISIC_0009958.JPG
break,html.Screen,4_2_1,2023-09-12T21:10:41.684Z,,0,,,NaN,,,,,,false,,,,183934.20000004768,183934,,183933.30000019073,,183952.086,8,400,,,
break_continue,html.Screen,4_2_2,2023-09-12T21:10:41.684Z,,0,,,NaN,,,,,,false,,,,183934.60000014305,183934.5,,183934.30000019073,,183952.086,8,400,,,
sequence,flow.Sequence,4_2,2023-09-12T21:10:41.684Z,,0,,,5712.752000000008,completion,,,,,false,,,,183934.70000004768,183934.5,178192.384,178203.90000009537,178221.748,183952.086,8,400,,,
trial,html.Screen,4_3_0,2023-09-12T21:10:46.054Z,,0,1,,4352.714000190725,response,ISIC_0644590.JPG,5,ISIC_0070463.JPG,ISIC_0644590.JPG,false,1,keypress(m),500,188304.90000009537,188304.80000019073,183926.632,183934.90000009537,183952.086,188317.659,8,400,4,,ISIC_0070463.JPG
break,html.Screen,4_3_1,2023-09-12T21:10:46.055Z,,0,,,NaN,,,,,,false,,,,188305.20000004768,188305.20000004768,,188305,,188317.659,8,400,,,
break_continue,html.Screen,4_3_2,2023-09-12T21:10:46.055Z,,0,,,NaN,,,,,,false,,,,188305.40000009537,188305.30000019073,,188305.30000019073,,188317.659,8,400,,,
sequence,flow.Sequence,4_3,2023-09-12T21:10:46.055Z,,0,,,4353.214000190725,completion,,,,,false,,,,188305.5,188305.30000019073,183926.632,183934.90000009537,183952.086,188317.659,8,400,,,
trial,html.Screen,4_4_0,2023-09-12T21:10:53.599Z,,0,1,,7531.241000095353,response,ISIC_0069058.JPG,6,ISIC_5787517.JPG,ISIC_5787517.JPG,false,0,keypress(z),500,195849.20000004768,195848.90000009537,188301.077,188305.5,188317.659,195851.496,8,400,5,,ISIC_0069058.JPG
break,html.Screen,4_4_1,2023-09-12T21:10:53.600Z,,0,,,NaN,,,,,,false,,,,195850.10000014305,195849.90000009537,,195849.40000009537,,195851.496,8,400,,,
break_continue,html.Screen,4_4_2,2023-09-12T21:10:53.600Z,,0,,,NaN,,,,,,false,,,,195850.70000004768,195850.5,,195850.30000019073,,195851.496,8,400,,,
sequence,flow.Sequence,4_4,2023-09-12T21:10:53.600Z,,0,,,7532.840999999986,completion,,,,,false,,,,195850.70000004768,195850.5,188301.077,188305.5,188317.659,195851.496,8,400,,,
trial,html.Screen,4_5_0,2023-09-12T21:10:58.930Z,,0,1,,5328.804000190721,response,ISIC_0011095.JPG,6,ISIC_0063295.JPG,ISIC_0063295.JPG,false,0,keypress(z),500,201180.40000009537,201180.30000019073,195849.487,195850.90000009537,195851.496,201182.317,8,400,6,,ISIC_0011095.JPG
break,html.Screen,4_5_1,2023-09-12T21:10:58.931Z,,0,,,NaN,,,,,,false,,,,201181.10000014305,201181,,201180.5,,201182.317,8,400,,,
break_continue,html.Screen,4_5_2,2023-09-12T21:10:58.931Z,,0,,,NaN,,,,,,false,,,,201181.30000019073,201181.20000004768,,201181.20000004768,,201182.317,8,400,,,
sequence,flow.Sequence,4_5,2023-09-12T21:10:58.932Z,,0,,,5329.70400004767,completion,,,,,false,,,,201181.90000009537,201181.20000004768,195849.487,195850.90000009537,195851.496,201182.317,8,400,,,
trial,html.Screen,4_6_0,2023-09-12T21:11:03.349Z,,0,1,,4417.383000047674,response,ISIC_5434055.JPG,5,ISIC_0064080.JPG,ISIC_5434055.JPG,false,1,keypress(m),500,205599.80000019073,205599.70000004768,201177.231,201182,201182.317,205602.209,8,400,7,,ISIC_0064080.JPG
break,html.Screen,4_6_1,2023-09-12T21:11:03.350Z,,0,,,NaN,,,,,,false,,,,205600.90000009537,205600.60000014305,,205600.10000014305,,205602.209,8,400,,,
break_continue,html.Screen,4_6_2,2023-09-12T21:11:03.351Z,,0,,,NaN,,,,,,false,,,,205601.10000014305,205601.10000014305,,205600.90000009537,,205602.209,8,400,,,
sequence,flow.Sequence,4_6,2023-09-12T21:11:03.351Z,,0,,,4418.783000143041,completion,,,,,false,,,,205601.30000019073,205601.10000014305,201177.231,201182,201182.317,205602.209,8,400,,,
trial,html.Screen,4_7_0,2023-09-12T21:11:10.040Z,,0,1,,6688.091000190732,response,ISIC_0010817.JPG,5,ISIC_0024507.JPG,ISIC_0010817.JPG,false,1,keypress(m),500,212290.5,212290.30000019073,205600.588,205601.5,205602.209,212309.276,8,400,8,,ISIC_0024507.JPG
break,html.Screen,4_7_1,2023-09-12T21:11:10.040Z,,0,,,NaN,,,,,,false,,,,212290.90000009537,212290.80000019073,,212290.60000014305,,212309.276,8,400,,,
break_continue,html.Screen,4_7_2,2023-09-12T21:11:10.041Z,,0,,,NaN,,,,,,false,,,,212291,212291,,212290.90000009537,,212309.276,8,400,,,
sequence,flow.Sequence,4_7,2023-09-12T21:11:10.041Z,,0,,,6688.790999999997,completion,,,,,false,,,,212291,212291,205600.588,205601.40000009537,205602.209,212309.276,8,400,,,
trial,html.Screen,4_8_0,2023-09-12T21:11:13.770Z,,0,1,,3710.3240001430386,response,ISIC_9977672.JPG,5,ISIC_0061491.JPG,ISIC_9977672.JPG,false,1,keypress(m),500,216019.90000009537,216019.60000014305,212289.195,212291.10000014305,212309.276,216022.275,8,400,9,,ISIC_0061491.JPG
break,html.Screen,4_8_1,2023-09-12T21:11:13.771Z,,0,,,NaN,,,,,,false,,,,216020.90000009537,216020.70000004768,,216020.10000014305,,216022.275,8,400,,,
break_continue,html.Screen,4_8_2,2023-09-12T21:11:13.771Z,,0,,,NaN,,,,,,false,,,,216021.5,216021.30000019073,,216021.10000014305,,216022.275,8,400,,,
sequence,flow.Sequence,4_8,2023-09-12T21:11:13.771Z,,0,,,3712.0240001907223,completion,,,,,false,,,,216021.60000014305,216021.30000019073,212289.195,212291.10000014305,212309.276,216022.275,8,400,,,
trial,html.Screen,4_9_0,2023-09-12T21:11:20.671Z,,0,1,,6898.4250000476895,response,ISIC_1017377.JPG,5,ISIC_4084359.JPG,ISIC_1017377.JPG,false,1,keypress(m),500,222920.90000009537,222920.70000004768,216013.392,216021.80000019073,216022.275,222923.262,8,400,10,,ISIC_4084359.JPG
break,html.Screen,4_9_1,2023-09-12T21:11:20.672Z,,0,,,NaN,,,,,,false,,,,222922.10000014305,222921.90000009537,,222921.10000014305,,222923.262,8,400,,,
break_continue,html.Screen,4_9_2,2023-09-12T21:11:20.672Z,,0,,,NaN,,,,,,false,,,,222922.5,222922.30000019073,,222922.10000014305,,222923.262,8,400,,,
sequence,flow.Sequence,4_9,2023-09-12T21:11:20.672Z,,0,,,6900.025000190741,completion,,,,,false,,,,222922.60000014305,222922.30000019073,216013.392,216021.70000004768,216022.275,222923.262,8,400,,,
trial,html.Screen,4_10_0,2023-09-12T21:11:24.133Z,,0,1,,3459.8380001430633,response,ISIC_4372519.JPG,5,ISIC_0001126.JPG,ISIC_4372519.JPG,false,1,keypress(m),500,226383.30000019073,226383.10000014305,222921.469,222922.70000004768,222923.262,226385.668,8,400,11,,ISIC_0001126.JPG
break,html.Screen,4_10_1,2023-09-12T21:11:24.134Z,,0,,,NaN,,,,,,false,,,,226384.30000019073,226384,,226383.5,,226385.668,8,400,,,
break_continue,html.Screen,4_10_2,2023-09-12T21:11:24.134Z,,0,,,NaN,,,,,,false,,,,226384.70000004768,226384.60000014305,,226384.5,,226385.668,8,400,,,
sequence,flow.Sequence,4_10,2023-09-12T21:11:24.134Z,,0,,,3461.3380001430633,completion,,,,,false,,,,226384.80000019073,226384.60000014305,222921.469,222922.70000004768,222923.262,226385.668,8,400,,,
trial,html.Screen,4_11_0,2023-09-12T21:11:31.689Z,,0,1,,7553.932000143046,response,ISIC_6801680.JPG,4,ISIC_1097830.JPG,ISIC_1097830.JPG,false,0,keypress(z),500,233939.70000004768,233939.60000014305,226368.47,226384.90000009537,226385.668,233941.591,8,400,12,,ISIC_6801680.JPG
break,html.Screen,4_11_1,2023-09-12T21:11:31.690Z,,0,,,NaN,,,,,,false,,,,233940.10000014305,233940.10000014305,,233939.80000019073,,233941.591,8,400,,,
break_continue,html.Screen,4_11_2,2023-09-12T21:11:31.690Z,,0,,,NaN,,,,,,false,,,,233940.30000019073,233940.30000019073,,233940.20000004768,,233941.591,8,400,,,
sequence,flow.Sequence,4_11,2023-09-12T21:11:31.691Z,,0,,,7554.63200019073,completion,,,,,false,,,,233941,233940.30000019073,226368.47,226384.90000009537,226385.668,233941.591,8,400,,,
trial,html.Screen,4_12_0,2023-09-12T21:11:37.852Z,,0,1,,6160.909000000014,response,ISIC_0025759.JPG,6,ISIC_0027901.JPG,ISIC_0025759.JPG,false,1,keypress(m),500,240102.60000014305,240102.5,233939.929,233941.20000004768,233941.591,240104.291,8,400,13,,ISIC_0027901.JPG
break,html.Screen,4_12_1,2023-09-12T21:11:37.853Z,,0,,,NaN,,,,,,false,,,,240103.10000014305,240102.90000009537,,240102.70000004768,,240104.291,8,400,,,
break_continue,html.Screen,4_12_2,2023-09-12T21:11:37.853Z,,0,,,NaN,,,,,,false,,,,240103.10000014305,240103.10000014305,,240103.10000014305,,240104.291,8,400,,,
sequence,flow.Sequence,4_12,2023-09-12T21:11:37.853Z,,0,,,6161.509000143065,completion,,,,,false,,,,240103.20000004768,240103.10000014305,233939.929,233941.20000004768,233941.591,240104.291,8,400,,,
trial,html.Screen,4_13_0,2023-09-12T21:11:43.263Z,,0,1,,5408.409000047686,response,ISIC_3222447.JPG,4,ISIC_0887792.JPG,ISIC_3222447.JPG,false,1,keypress(m),500,245512.90000009537,245512.70000004768,240102.743,240103.20000004768,240104.291,245515.235,8,400,14,,ISIC_0887792.JPG
break,html.Screen,4_13_1,2023-09-12T21:11:43.264Z,,0,,,NaN,,,,,,false,,,,245513.90000009537,245513.70000004768,,245513.10000014305,,245515.235,8,400,,,
break_continue,html.Screen,4_13_2,2023-09-12T21:11:43.264Z,,0,,,NaN,,,,,,false,,,,245514.30000019073,245514.20000004768,,245514.10000014305,,245515.235,8,400,,,
sequence,flow.Sequence,4_13,2023-09-12T21:11:43.264Z,,0,,,5409.909000047686,completion,,,,,false,,,,245514.5,245514.20000004768,240102.743,240103.20000004768,240104.291,245515.235,8,400,,,
trial,html.Screen,4_14_0,2023-09-12T21:11:48.866Z,,0,1,,5601.165000095381,response,ISIC_7475827.JPG,5,ISIC_3425388.JPG,ISIC_3425388.JPG,false,0,keypress(z),500,251116.70000004768,251116.40000009537,245509.535,245514.60000014305,245515.235,251135.658,8,400,15,,ISIC_7475827.JPG
break,html.Screen,4_14_1,2023-09-12T21:11:48.867Z,,0,,,NaN,,,,,,false,,,,251117.60000014305,251117.40000009537,,251116.90000009537,,251135.658,8,400,,,
break_continue,html.Screen,4_14_2,2023-09-12T21:11:48.868Z,,0,,,NaN,,,,,,false,,,,251118,251117.90000009537,,251117.70000004768,,251135.658,8,400,,,
sequence,flow.Sequence,4_14,2023-09-12T21:11:48.868Z,,0,,,5602.665000095381,completion,,,,,false,,,,251118.20000004768,251117.90000009537,245509.535,245514.60000014305,245515.235,251135.658,8,400,,,
trial,html.Screen,4_15_0,2023-09-12T21:11:52.934Z,,0,1,,4048.542000047688,response,ISIC_0070032.JPG,6,ISIC_0010466.JPG,ISIC_0010466.JPG,false,0,keypress(z),500,255184.30000019073,255184.20000004768,251110.42,251118.30000019073,251135.658,255186.044,8,400,16,,ISIC_0070032.JPG
break,html.Screen,4_15_1,2023-09-12T21:11:52.935Z,,0,,,NaN,,,,,,false,,,,255184.80000019073,255184.70000004768,,255184.40000009537,,255186.044,8,400,,,
break_continue,html.Screen,4_15_2,2023-09-12T21:11:52.935Z,,0,,,NaN,,,,,,false,,,,255185,255184.80000019073,,255184.80000019073,,255186.044,8,400,,,
sequence,flow.Sequence,4_15,2023-09-12T21:11:52.935Z,,0,,,4049.142000190739,completion,,,,,false,,,,255185.60000014305,255184.80000019073,251110.42,251118.20000004768,251135.658,255186.044,8,400,,,
trial,html.Screen,4_16_0,2023-09-12T21:11:58.697Z,,0,1,,5761.056000143057,response,ISIC_4231346.JPG,5,ISIC_0069050.JPG,ISIC_4231346.JPG,false,1,keypress(m),500,260947.30000019073,260947.10000014305,255179.545,255185.60000014305,255186.044,260949.574,8,400,17,,ISIC_0069050.JPG
break,html.Screen,4_16_1,2023-09-12T21:11:58.698Z,,0,,,NaN,,,,,,false,,,,260948.20000004768,260948,,260947.60000014305,,260949.574,8,400,,,
break_continue,html.Screen,4_16_2,2023-09-12T21:11:58.698Z,,0,,,NaN,,,,,,false,,,,260948.70000004768,260948.60000014305,,260948.40000009537,,260949.574,8,400,,,
sequence,flow.Sequence,4_16,2023-09-12T21:11:58.699Z,,0,,,5762.556000143057,completion,,,,,false,,,,260948.90000009537,260948.60000014305,255179.545,255185.60000014305,255186.044,260949.574,8,400,,,
trial,html.Screen,4_17_0,2023-09-12T21:12:02.317Z,,0,1,,3617.026000143058,response,ISIC_8383600.JPG,6,ISIC_0064821.JPG,ISIC_8383600.JPG,false,1,keypress(m),500,264566.80000019073,264566.60000014305,260944.49,260949,260949.574,264569.054,8,400,18,,ISIC_0064821.JPG
break,html.Screen,4_17_1,2023-09-12T21:12:02.317Z,,0,,,NaN,,,,,,false,,,,264567.7000000477,264567.5,,264567,,264569.054,8,400,,,
break_continue,html.Screen,4_17_2,2023-09-12T21:12:02.318Z,,0,,,NaN,,,,,,false,,,,264568.10000014305,264568,,264567.90000009537,,264569.054,8,400,,,
sequence,flow.Sequence,4_17,2023-09-12T21:12:02.318Z,,0,,,3618.4260000000068,completion,,,,,false,,,,264568.2000000477,264568,260944.49,260948.90000009537,260949.574,264569.054,8,400,,,
trial,html.Screen,4_18_0,2023-09-12T21:12:06.914Z,,0,1,,4595.046000143047,response,ISIC_0030704.JPG,5,ISIC_0054914.JPG,ISIC_0030704.JPG,false,1,keypress(m),500,269164.40000009537,269164.10000014305,264561.912,264568.30000019073,264569.054,269166.676,8,400,19,,ISIC_0054914.JPG
break,html.Screen,4_18_1,2023-09-12T21:12:06.915Z,,0,,,NaN,,,,,,false,,,,269165.30000019073,269165.2000000477,,269164.60000014305,,269166.676,8,400,,,
break_continue,html.Screen,4_18_2,2023-09-12T21:12:06.915Z,,0,,,NaN,,,,,,false,,,,269165.60000014305,269165.5,,269165.5,,269166.676,8,400,,,
sequence,flow.Sequence,4_18,2023-09-12T21:12:06.916Z,,0,,,4596.445999999996,completion,,,,,false,,,,269165.80000019073,269165.5,264561.912,264568.30000019073,264569.054,269166.676,8,400,,,
trial,html.Screen,4_19_0,2023-09-12T21:12:11.430Z,,0,1,,4513.324000000022,response,ISIC_2885086.JPG,5,ISIC_0071996.JPG,ISIC_2885086.JPG,false,1,keypress(m),500,273680.30000019073,273680,269164.092,269166,269166.676,273682.798,8,400,20,,ISIC_0071996.JPG
break,html.Screen,4_19_1,2023-09-12T21:12:11.431Z,,0,,,NaN,,,,,,false,,,,273681.40000009537,273681.2000000477,,273680.5,,273682.798,8,400,,,
break_continue,html.Screen,4_19_2,2023-09-12T21:12:11.432Z,,0,,,NaN,,,,,,false,,,,273682.30000019073,273682.2000000477,,273681.5,,273682.798,8,400,,,
sequence,flow.Sequence,4_19,2023-09-12T21:12:11.432Z,,0,,,4515.524000047706,completion,,,,,false,,,,273682.40000009537,273682.2000000477,269164.092,269166,269166.676,273682.798,8,400,,,
trial,html.Screen,4_20_0,2023-09-12T21:12:15.514Z,,0,1,,4080.902000047674,response,ISIC_0057287.JPG,5,ISIC_0061884.JPG,ISIC_0061884.JPG,false,0,keypress(z),500,277764,277763.7000000477,273674.865,273682.40000009537,273682.798,277766.212,8,400,21,,ISIC_0057287.JPG
break,html.Screen,4_20_1,2023-09-12T21:12:15.515Z,,0,,,NaN,,,,,,false,,,,277765.10000014305,277764.80000019073,,277764.30000019073,,277766.212,8,400,,,
break_continue,html.Screen,4_20_2,2023-09-12T21:12:15.516Z,,0,,,NaN,,,,,,false,,,,277766.10000014305,277766,,277765.80000019073,,277766.212,8,400,,,
sequence,flow.Sequence,4_20,2023-09-12T21:12:15.516Z,,0,,,4083.20199999999,completion,,,,,false,,,,277766.2000000477,277766,273674.865,273682.40000009537,273682.798,277766.212,8,400,,,
trial,html.Screen,4_21_0,2023-09-12T21:12:20.126Z,,0,1,,4610.2880000000005,response,ISIC_1369967.JPG,5,ISIC_3913709.JPG,ISIC_3913709.JPG,false,0,keypress(z),500,282376.7000000477,282376.5,277761.833,277766.40000009537,277766.212,282378.36,8,400,22,,ISIC_1369967.JPG
break,html.Screen,4_21_1,2023-09-12T21:12:20.127Z,,0,,,NaN,,,,,,false,,,,282377,282376.90000009537,,282376.7000000477,,282378.36,8,400,,,
break_continue,html.Screen,4_21_2,2023-09-12T21:12:20.127Z,,0,,,NaN,,,,,,false,,,,282377.10000014305,282377,,282377,,282378.36,8,400,,,
sequence,flow.Sequence,4_21,2023-09-12T21:12:20.127Z,,0,,,4610.7880000000005,completion,,,,,false,,,,282377.10000014305,282377,277761.833,277766.30000019073,277766.212,282378.36,8,400,,,
trial,html.Screen,4_22_0,2023-09-12T21:12:24.279Z,,0,1,,4150.940000190749,response,ISIC_0000848.JPG,6,ISIC_0033129.JPG,ISIC_0000848.JPG,false,1,keypress(m),500,286529.60000014305,286529.30000019073,282371.375,282377.2000000477,282378.36,286531.7,8,400,23,,ISIC_0033129.JPG
break,html.Screen,4_22_1,2023-09-12T21:12:24.280Z,,0,,,NaN,,,,,,false,,,,286530.60000014305,286530.40000009537,,286529.80000019073,,286531.7,8,400,,,
break_continue,html.Screen,4_22_2,2023-09-12T21:12:24.281Z,,0,,,NaN,,,,,,false,,,,286531.30000019073,286531.2000000477,,286530.7000000477,,286531.7,8,400,,,
sequence,flow.Sequence,4_22,2023-09-12T21:12:24.281Z,,0,,,4152.840000047698,completion,,,,,false,,,,286531.5,286531.2000000477,282371.375,282377.2000000477,282378.36,286531.7,8,400,,,
trial,html.Screen,4_23_0,2023-09-12T21:12:28.767Z,,0,1,,4485.799999999988,response,ISIC_0000459.JPG,6,ISIC_2131962.JPG,ISIC_2131962.JPG,false,0,keypress(z),500,291017.7000000477,291017.5,286529.041,286531.5,286531.7,291019.836,8,400,24,,ISIC_0000459.JPG
break,html.Screen,4_23_1,2023-09-12T21:12:28.769Z,,0,,,NaN,,,,,,false,,,,291018.80000019073,291018.5,,291017.90000009537,,291019.836,8,400,,,
break_continue,html.Screen,4_23_2,2023-09-12T21:12:28.769Z,,0,,,NaN,,,,,,false,,,,291019.10000014305,291019,,291018.90000009537,,291019.836,8,400,,,
sequence,flow.Sequence,4_23,2023-09-12T21:12:28.769Z,,0,,,4487.299999999988,completion,,,,,false,,,,291019.30000019073,291019,286529.041,286531.5,286531.7,291019.836,8,400,,,
trial,html.Screen,4_24_0,2023-09-12T21:12:32.946Z,,0,1,,4176.564000095357,response,ISIC_0062364.JPG,6,ISIC_7175697.JPG,ISIC_7175697.JPG,false,0,keypress(z),500,295196.60000014305,295196.40000009537,291002.201,291019.40000009537,291019.836,295198.87,8,400,25,,ISIC_0062364.JPG
break,html.Screen,4_24_1,2023-09-12T21:12:32.947Z,,0,,,NaN,,,,,,false,,,,295197.5,295197.40000009537,,295196.80000019073,,295198.87,8,400,,,
break_continue,html.Screen,4_24_2,2023-09-12T21:12:32.948Z,,0,,,NaN,,,,,,false,,,,295198,295197.90000009537,,295197.7000000477,,295198.87,8,400,,,
sequence,flow.Sequence,4_24,2023-09-12T21:12:32.948Z,,0,,,4178.064000095357,completion,,,,,false,,,,295198.10000014305,295197.90000009537,291002.201,291019.40000009537,291019.836,295198.87,8,400,,,
trial,html.Screen,4_25_0,2023-09-12T21:12:36.685Z,,0,1,,3736.3300000476884,response,ISIC_5166636.JPG,5,ISIC_0016131.JPG,ISIC_5166636.JPG,false,1,keypress(m),500,298935.40000009537,298935.2000000477,295190.475,295198.2000000477,295198.87,298937.776,8,400,26,,ISIC_0016131.JPG
break,html.Screen,4_25_1,2023-09-12T21:12:36.686Z,,0,,,NaN,,,,,,false,,,,298936.40000009537,298936.2000000477,,298935.60000014305,,298937.776,8,400,,,
break_continue,html.Screen,4_25_2,2023-09-12T21:12:36.687Z,,0,,,NaN,,,,,,false,,,,298936.80000019073,298936.7000000477,,298936.5,,298937.776,8,400,,,
sequence,flow.Sequence,4_25,2023-09-12T21:12:36.687Z,,0,,,3737.8300000476884,completion,,,,,false,,,,298936.90000009537,298936.7000000477,295190.475,295198.2000000477,295198.87,298937.776,8,400,,,
trial,html.Screen,4_26_0,2023-09-12T21:12:40.449Z,,0,1,,3760.7239999999874,response,ISIC_0011607.JPG,6,ISIC_0301568.JPG,ISIC_0301568.JPG,false,0,keypress(z),500,302698.80000019073,302698.5,298936.307,298937.10000014305,298937.776,302701.07,8,400,27,,ISIC_0011607.JPG
break,html.Screen,4_26_1,2023-09-12T21:12:40.450Z,,0,,,NaN,,,,,,false,,,,302699.7000000477,302699.60000014305,,302699,,302701.07,8,400,,,
break_continue,html.Screen,4_26_2,2023-09-12T21:12:40.451Z,,0,,,NaN,,,,,,false,,,,302700.80000019073,302700.80000019073,,302700.5,,302701.07,8,400,,,
sequence,flow.Sequence,4_26,2023-09-12T21:12:40.451Z,,0,,,3763.0240001907223,completion,,,,,false,,,,302701,302700.80000019073,298936.307,298937.10000014305,298937.776,302701.07,8,400,,,
trial,html.Screen,4_27_0,2023-09-12T21:12:46.540Z,,0,1,,6088.83000009536,response,ISIC_0010757.JPG,5,ISIC_0014542.JPG,ISIC_0010757.JPG,false,1,keypress(m),500,308790.10000014305,308789.90000009537,302694.293,302701.10000014305,302701.07,308818.401,8,400,28,,ISIC_0014542.JPG
break,html.Screen,4_27_1,2023-09-12T21:12:46.541Z,,0,,,NaN,,,,,,false,,,,308791.2000000477,308791,,308790.30000019073,,308818.401,8,400,,,
break_continue,html.Screen,4_27_2,2023-09-12T21:12:46.541Z,,0,,,NaN,,,,,,false,,,,308791.5,308791.40000009537,,308791.30000019073,,308818.401,8,400,,,
sequence,flow.Sequence,4_27,2023-09-12T21:12:46.541Z,,0,,,6090.33000009536,completion,,,,,false,,,,308791.60000014305,308791.40000009537,302694.293,302701.10000014305,302701.07,308818.401,8,400,,,
trial,html.Screen,4_28_0,2023-09-12T21:12:51.327Z,,0,1,,4758.499000095355,response,ISIC_7129085.JPG,5,ISIC_8773962.JPG,ISIC_7129085.JPG,false,1,keypress(m),500,313577,313576.90000009537,308801.751,308791.80000019073,308818.401,313578.867,8,400,29,,ISIC_8773962.JPG
break,html.Screen,4_28_1,2023-09-12T21:12:51.327Z,,0,,,NaN,,,,,,false,,,,313577.5,313577.5,,313577.2000000477,,313578.867,8,400,,,
break_continue,html.Screen,4_28_2,2023-09-12T21:12:51.327Z,,0,,,NaN,,,,,,false,,,,313577.80000019073,313577.60000014305,,313577.60000014305,,313578.867,8,400,,,
sequence,flow.Sequence,4_28,2023-09-12T21:12:51.328Z,,0,,,4759.199000143039,completion,,,,,false,,,,313577.80000019073,313577.60000014305,308801.751,308791.80000019073,308818.401,313578.867,8,400,,,
trial,html.Screen,4_29_0,2023-09-12T21:12:55.572Z,,0,1,,4242.833000047656,response,ISIC_0015129.JPG,5,ISIC_0010938.JPG,ISIC_0015129.JPG,false,1,keypress(m),500,317821.90000009537,317821.7000000477,313575.111,313577.90000009537,313578.867,317823.544,8,400,30,,ISIC_0010938.JPG
break,html.Screen,4_29_1,2023-09-12T21:12:55.572Z,,0,,,NaN,,,,,,false,,,,317822.30000019073,317822.2000000477,,317822,,317823.544,8,400,,,
break_continue,html.Screen,4_29_2,2023-09-12T21:12:55.572Z,,0,,,NaN,,,,,,false,,,,317822.5,317822.40000009537,,317822.30000019073,,317823.544,8,400,,,
sequence,flow.Sequence,4_29,2023-09-12T21:12:55.572Z,,0,,,4243.53300009534,completion,,,,,false,,,,317822.5,317822.40000009537,313575.111,313577.90000009537,313578.867,317823.544,8,400,,,
trial,html.Screen,4_30_0,2023-09-12T21:13:00.502Z,,0,1,,4928.456000000006,response,ISIC_4663883.JPG,6,ISIC_2619533.JPG,ISIC_2619533.JPG,false,0,keypress(z),500,322752.2000000477,322752,317822.301,317822.5,317823.544,322754.489,8,400,31,,ISIC_4663883.JPG
break,html.Screen,4_30_1,2023-09-12T21:13:00.503Z,,0,,,NaN,,,,,,false,,,,322753.2000000477,322753,,322752.40000009537,,322754.489,8,400,,,
break_continue,html.Screen,4_30_2,2023-09-12T21:13:00.503Z,,0,,,NaN,,,,,,false,,,,322753.60000014305,322753.5,,322753.40000009537,,322754.489,8,400,,,
sequence,flow.Sequence,4_30,2023-09-12T21:13:00.504Z,,0,,,4929.956000000006,completion,,,,,false,,,,322753.80000019073,322753.5,317822.301,317822.5,317823.544,322754.489,8,400,,,
trial,html.Screen,4_31_0,2023-09-12T21:13:06.426Z,,0,1,,5921.510999999999,response,ISIC_0027659.JPG,6,ISIC_0024527.JPG,ISIC_0027659.JPG,false,1,keypress(m),500,328676.40000009537,328676,322752.809,322753.90000009537,322754.489,328678.485,8,400,32,,ISIC_0024527.JPG
break,html.Screen,4_31_1,2023-09-12T21:13:06.428Z,,0,,,NaN,,,,,,false,,,,328678.10000014305,328677.30000019073,,328676.7000000477,,328678.485,8,400,,,
break_continue,html.Screen,4_31_2,2023-09-12T21:13:06.428Z,,0,,,NaN,,,,,,false,,,,328678.60000014305,328678.30000019073,,328678.2000000477,,328678.485,8,400,,,
sequence,flow.Sequence,4_31,2023-09-12T21:13:06.429Z,,0,,,5923.8110001907335,completion,,,,,false,,,,328678.80000019073,328678.30000019073,322752.809,322753.90000009537,322754.489,328678.485,8,400,,,
trial,html.Screen,4_32_0,2023-09-12T21:13:10.739Z,,0,1,,4310.815000190749,response,ISIC_0068382.JPG,5,ISIC_0026889.JPG,ISIC_0026889.JPG,false,0,keypress(z),500,332989.5,332989.30000019073,328672.962,328678.90000009537,328678.485,332991.649,8,400,33,,ISIC_0068382.JPG
break,html.Screen,4_32_1,2023-09-12T21:13:10.740Z,,0,,,NaN,,,,,,false,,,,332990.40000009537,332990.2000000477,,332989.7000000477,,332991.649,8,400,,,
break_continue,html.Screen,4_32_2,2023-09-12T21:13:10.741Z,,0,,,NaN,,,,,,false,,,,332990.80000019073,332990.7000000477,,332990.60000014305,,332991.649,8,400,,,
sequence,flow.Sequence,4_32,2023-09-12T21:13:10.741Z,,0,,,4312.215000047698,completion,,,,,false,,,,332990.90000009537,332990.7000000477,328672.962,328678.80000019073,328678.485,332991.649,8,400,,,
trial,html.Screen,4_33_0,2023-09-12T21:13:14.940Z,,0,1,,4198.751000095392,response,ISIC_8562820.JPG,6,ISIC_9672482.JPG,ISIC_9672482.JPG,false,0,keypress(z),500,337190.60000014305,337190.40000009537,332990.073,332991.10000014305,332991.649,337209.664,8,400,34,,ISIC_8562820.JPG
break,html.Screen,4_33_1,2023-09-12T21:13:14.941Z,,0,,,NaN,,,,,,false,,,,337191.60000014305,337191.40000009537,,337190.80000019073,,337209.664,8,400,,,
break_continue,html.Screen,4_33_2,2023-09-12T21:13:14.942Z,,0,,,NaN,,,,,,false,,,,337191.90000009537,337191.90000009537,,337191.7000000477,,337209.664,8,400,,,
sequence,flow.Sequence,4_33,2023-09-12T21:13:14.943Z,,0,,,4200.251000095392,completion,,,,,false,,,,337193.30000019073,337191.90000009537,332990.073,332991,332991.649,337209.664,8,400,,,
trial,html.Screen,4_34_0,2023-09-12T21:13:19.108Z,,0,1,,4148.236000095378,response,ISIC_9052604.JPG,4,ISIC_1513720.JPG,ISIC_9052604.JPG,false,1,keypress(m),500,341358.10000014305,341357.90000009537,337192.893,337193.40000009537,337209.664,341360.427,8,400,35,,ISIC_1513720.JPG
break,html.Screen,4_34_1,2023-09-12T21:13:19.109Z,,0,,,NaN,,,,,,false,,,,341359.2000000477,341358.90000009537,,341358.40000009537,,341360.427,8,400,,,
break_continue,html.Screen,4_34_2,2023-09-12T21:13:19.109Z,,0,,,NaN,,,,,,false,,,,341359.5,341359.40000009537,,341359.30000019073,,341360.427,8,400,,,
sequence,flow.Sequence,4_34,2023-09-12T21:13:19.109Z,,0,,,4149.736000095378,completion,,,,,false,,,,341359.80000019073,341359.40000009537,337192.893,337193.40000009537,337209.664,341360.427,8,400,,,
trial,html.Screen,4_35_0,2023-09-12T21:13:23.885Z,,0,1,,4774.973000095342,response,ISIC_0028472.JPG,6,ISIC_6069236.JPG,ISIC_6069236.JPG,false,0,keypress(z),500,346135.5,346135.40000009537,341358.644,341359.90000009537,341360.427,346137.77,8,400,36,,ISIC_0028472.JPG
break,html.Screen,4_35_1,2023-09-12T21:13:23.886Z,,0,,,NaN,,,,,,false,,,,346136.40000009537,346136.2000000477,,346135.7000000477,,346137.77,8,400,,,
break_continue,html.Screen,4_35_2,2023-09-12T21:13:23.887Z,,0,,,NaN,,,,,,false,,,,346137.2000000477,346136.60000014305,,346136.5,,346137.77,8,400,,,
sequence,flow.Sequence,4_35,2023-09-12T21:13:23.887Z,,0,,,4776.173000143026,completion,,,,,false,,,,346137.2000000477,346136.60000014305,341358.644,341359.80000019073,341360.427,346137.77,8,400,,,
trial,html.Screen,4_36_0,2023-09-12T21:13:28.673Z,,0,1,,4785.229999999981,response,ISIC_5576354.JPG,5,ISIC_0034194.JPG,ISIC_0034194.JPG,false,0,keypress(z),500,350923.2000000477,350923,346135.654,346137.2000000477,346137.77,350924.971,8,400,37,,ISIC_5576354.JPG
break,html.Screen,4_36_1,2023-09-12T21:13:28.674Z,,0,,,NaN,,,,,,false,,,,350923.90000009537,350923.90000009537,,350923.40000009537,,350924.971,8,400,,,
break_continue,html.Screen,4_36_2,2023-09-12T21:13:28.674Z,,0,,,NaN,,,,,,false,,,,350924.5,350924.5,,350924,,350924.971,8,400,,,
sequence,flow.Sequence,4_36,2023-09-12T21:13:28.674Z,,0,,,4786.729999999981,completion,,,,,false,,,,350924.60000014305,350924.5,346135.654,346137.2000000477,346137.77,350924.971,8,400,,,
trial,html.Screen,4_37_0,2023-09-12T21:13:34.533Z,,0,1,,5857.729000047664,response,ISIC_0032149.JPG,5,ISIC_0001141.JPG,ISIC_0001141.JPG,false,0,keypress(z),500,356782.90000009537,356782.7000000477,350920.866,350924.60000014305,350924.971,356785.15,8,400,38,,ISIC_0032149.JPG
break,html.Screen,4_37_1,2023-09-12T21:13:34.534Z,,0,,,NaN,,,,,,false,,,,356784.60000014305,356783.7000000477,,356783.10000014305,,356785.15,8,400,,,
break_continue,html.Screen,4_37_2,2023-09-12T21:13:34.535Z,,0,,,NaN,,,,,,false,,,,356785.10000014305,356785,,356784.80000019073,,356785.15,8,400,,,
sequence,flow.Sequence,4_37,2023-09-12T21:13:34.535Z,,0,,,5860.02899999998,completion,,,,,false,,,,356785.30000019073,356785,350920.866,350924.60000014305,350924.971,356785.15,8,400,,,
trial,html.Screen,4_38_0,2023-09-12T21:13:40.267Z,,0,1,,5731.750000095344,response,ISIC_0027654.JPG,4,ISIC_0025735.JPG,ISIC_0027654.JPG,false,1,keypress(m),500,362517.2000000477,362516.90000009537,356776.81,356785.40000009537,356785.15,362519.288,8,400,39,,ISIC_0025735.JPG
break,html.Screen,4_38_1,2023-09-12T21:13:40.268Z,,0,,,NaN,,,,,,false,,,,362518.10000014305,362517.90000009537,,362517.30000019073,,362519.288,8,400,,,
break_continue,html.Screen,4_38_2,2023-09-12T21:13:40.268Z,,0,,,NaN,,,,,,false,,,,362518.5,362518.40000009537,,362518.30000019073,,362519.288,8,400,,,
sequence,flow.Sequence,4_38,2023-09-12T21:13:40.268Z,,0,,,5733.250000095344,completion,,,,,false,,,,362518.60000014305,362518.40000009537,356776.81,356785.40000009537,356785.15,362519.288,8,400,,,
trial,html.Screen,4_39_0,2023-09-12T21:13:45.380Z,,0,1,,5110.812000143051,response,ISIC_0172020.JPG,5,ISIC_0014480.JPG,ISIC_0172020.JPG,false,1,keypress(m),500,367630.30000019073,367630.10000014305,362517.61,362518.80000019073,362519.288,367632.709,8,400,40,,ISIC_0014480.JPG
break,html.Screen,4_39_1,2023-09-12T21:13:45.381Z,,0,,,NaN,,,,,,false,,,,367631.30000019073,367631.10000014305,,367630.5,,367632.709,8,400,,,
break_continue,html.Screen,4_39_2,2023-09-12T21:13:45.381Z,,0,,,NaN,,,,,,false,,,,367631.7000000477,367631.60000014305,,367631.5,,367632.709,8,400,,,
sequence,flow.Sequence,4_39,2023-09-12T21:13:45.382Z,,0,,,5112.312000143051,completion,,,,,false,,,,367631.80000019073,367631.60000014305,362517.61,362518.80000019073,362519.288,367632.709,8,400,,,
trial,html.Screen,4_40_0,2023-09-12T21:13:50.504Z,,0,1,,5121.091000190761,response,ISIC_2337786.JPG,6,ISIC_0025544.JPG,ISIC_2337786.JPG,false,1,keypress(m),500,372753.90000009537,372753.80000019073,367631.342,367631.90000009537,367632.709,372756.292,8,400,41,,ISIC_0025544.JPG
break,html.Screen,4_40_1,2023-09-12T21:13:50.505Z,,0,,,NaN,,,,,,false,,,,372755,372754.80000019073,,372754.2000000477,,372756.292,8,400,,,
break_continue,html.Screen,4_40_2,2023-09-12T21:13:50.505Z,,0,,,NaN,,,,,,false,,,,372755.40000009537,372755.2000000477,,372755.10000014305,,372756.292,8,400,,,
sequence,flow.Sequence,4_40,2023-09-12T21:13:50.505Z,,0,,,5122.49100004771,completion,,,,,false,,,,372755.5,372755.2000000477,367631.342,367631.90000009537,367632.709,372756.292,8,400,,,
trial,html.Screen,4_41_0,2023-09-12T21:13:54.252Z,,0,1,,3745.508000190719,response,ISIC_4614604.JPG,5,ISIC_0011529.JPG,ISIC_4614604.JPG,false,1,keypress(m),500,376501.90000009537,376501.80000019073,372747.281,372755.60000014305,372756.292,376503.722,8,400,42,,ISIC_0011529.JPG
break,html.Screen,4_41_1,2023-09-12T21:13:54.252Z,,0,,,NaN,,,,,,false,,,,376502.2000000477,376502.2000000477,,376502,,376503.722,8,400,,,
break_continue,html.Screen,4_41_2,2023-09-12T21:13:54.252Z,,0,,,NaN,,,,,,false,,,,376502.30000019073,376502.30000019073,,376502.30000019073,,376503.722,8,400,,,
sequence,flow.Sequence,4_41,2023-09-12T21:13:54.252Z,,0,,,3746.008000190719,completion,,,,,false,,,,376502.40000009537,376502.30000019073,372747.281,372755.60000014305,372756.292,376503.722,8,400,,,
trial,html.Screen,4_42_0,2023-09-12T21:13:57.822Z,,0,1,,3568.1780000953586,response,ISIC_0033125.JPG,6,ISIC_4216750.JPG,ISIC_4216750.JPG,false,0,keypress(z),500,380072.30000019073,380071.90000009537,376497.481,376502.5,376503.722,380074.732,8,400,43,,ISIC_0033125.JPG
break,html.Screen,4_42_1,2023-09-12T21:13:57.823Z,,0,,,NaN,,,,,,false,,,,380073.40000009537,380073.2000000477,,380072.60000014305,,380074.732,8,400,,,
break_continue,html.Screen,4_42_2,2023-09-12T21:13:57.823Z,,0,,,NaN,,,,,,false,,,,380073.7000000477,380073.7000000477,,380073.5,,380074.732,8,400,,,
sequence,flow.Sequence,4_42,2023-09-12T21:13:57.824Z,,0,,,3569.978000047675,completion,,,,,false,,,,380073.90000009537,380073.7000000477,376497.481,376502.40000009537,376503.722,380074.732,8,400,,,
trial,html.Screen,4_43_0,2023-09-12T21:14:01.809Z,,0,1,,3984.767999999982,response,ISIC_0063601.JPG,5,ISIC_0062162.JPG,ISIC_0062162.JPG,false,0,keypress(z),500,384059.60000014305,384059.5,380069.801,380074,380074.732,384061.926,8,400,44,,ISIC_0063601.JPG
break,html.Screen,4_43_1,2023-09-12T21:14:01.810Z,,0,,,NaN,,,,,,false,,,,384060.60000014305,384060.40000009537,,384059.80000019073,,384061.926,8,400,,,
break_continue,html.Screen,4_43_2,2023-09-12T21:14:01.811Z,,0,,,NaN,,,,,,false,,,,384061,384060.90000009537,,384060.7000000477,,384061.926,8,400,,,
sequence,flow.Sequence,4_43,2023-09-12T21:14:01.811Z,,0,,,3986.1680000953493,completion,,,,,false,,,,384061.2000000477,384060.90000009537,380069.801,380074,380074.732,384061.926,8,400,,,
trial,html.Screen,4_44_0,2023-09-12T21:14:06.965Z,,0,1,,5152.774000047706,response,ISIC_0465476.JPG,4,ISIC_9684318.JPG,ISIC_9684318.JPG,false,0,keypress(z),500,389215,389214.7000000477,384057.654,384061.30000019073,384061.926,389217.218,8,400,45,,ISIC_0465476.JPG
break,html.Screen,4_44_1,2023-09-12T21:14:06.965Z,,0,,,NaN,,,,,,false,,,,389215.90000009537,389215.7000000477,,389215.10000014305,,389217.218,8,400,,,
break_continue,html.Screen,4_44_2,2023-09-12T21:14:06.966Z,,0,,,NaN,,,,,,false,,,,389216.2000000477,389216.2000000477,,389215.90000009537,,389217.218,8,400,,,
sequence,flow.Sequence,4_44,2023-09-12T21:14:06.966Z,,0,,,5154.274000047706,completion,,,,,false,,,,389216.40000009537,389216.2000000477,384057.654,384061.30000019073,384061.926,389217.218,8,400,,,
trial,html.Screen,4_45_0,2023-09-12T21:14:13.992Z,,0,1,,7024.98200004769,response,ISIC_1484525.JPG,5,ISIC_3952030.JPG,ISIC_3952030.JPG,false,0,keypress(z),500,396242.5,396242.2000000477,389214.627,389216.60000014305,389217.218,396244.614,8,400,46,,ISIC_1484525.JPG
break,html.Screen,4_45_1,2023-09-12T21:14:13.993Z,,0,,,NaN,,,,,,false,,,,396243.40000009537,396243.2000000477,,396242.7000000477,,396244.614,8,400,,,
break_continue,html.Screen,4_45_2,2023-09-12T21:14:13.993Z,,0,,,NaN,,,,,,false,,,,396243.80000019073,396243.60000014305,,396243.5,,396244.614,8,400,,,
sequence,flow.Sequence,4_45,2023-09-12T21:14:13.994Z,,0,,,7026.382000143058,completion,,,,,false,,,,396243.90000009537,396243.60000014305,389214.627,389216.40000009537,389217.218,396244.614,8,400,,,
trial,html.Screen,4_46_0,2023-09-12T21:14:17.235Z,,0,1,,3240.4860001430498,response,ISIC_3916064.JPG,5,ISIC_0031146.JPG,ISIC_3916064.JPG,false,1,keypress(m),500,399485.30000019073,399485.10000014305,396237.348,396244,396244.614,399486.923,8,400,47,,ISIC_0031146.JPG
break,html.Screen,4_46_1,2023-09-12T21:14:17.235Z,,0,,,NaN,,,,,,false,,,,399485.80000019073,399485.7000000477,,399485.30000019073,,399486.923,8,400,,,
break_continue,html.Screen,4_46_2,2023-09-12T21:14:17.236Z,,0,,,NaN,,,,,,false,,,,399486.5,399486.40000009537,,399485.80000019073,,399486.923,8,400,,,
sequence,flow.Sequence,4_46,2023-09-12T21:14:17.236Z,,0,,,3241.786000095366,completion,,,,,false,,,,399486.60000014305,399486.40000009537,396237.348,396244,396244.614,399486.923,8,400,,,
trial,html.Screen,4_47_0,2023-09-12T21:14:23.862Z,,0,1,,6625.07699999999,response,ISIC_2279679.JPG,5,ISIC_7867077.JPG,ISIC_2279679.JPG,false,1,keypress(m),500,406112.30000019073,406112,399485.757,399486.60000014305,399486.923,406132.038,8,400,48,,ISIC_7867077.JPG
break,html.Screen,4_47_1,2023-09-12T21:14:23.863Z,,0,,,NaN,,,,,,false,,,,406113.2000000477,406113.10000014305,,406112.5,,406132.038,8,400,,,
break_continue,html.Screen,4_47_2,2023-09-12T21:14:23.863Z,,0,,,NaN,,,,,,false,,,,406113.60000014305,406113.40000009537,,406113.30000019073,,406132.038,8,400,,,
sequence,flow.Sequence,4_47,2023-09-12T21:14:23.863Z,,0,,,6626.477000095358,completion,,,,,false,,,,406113.80000019073,406113.40000009537,399485.757,399486.60000014305,399486.923,406132.038,8,400,,,
trial,html.Screen,4_48_0,2023-09-12T21:14:30.394Z,,0,1,,6511.662000047683,response,ISIC_0015969.JPG,5,ISIC_0032903.JPG,ISIC_0015969.JPG,false,1,keypress(m),500,412643.90000009537,412643.7000000477,406115.33,406113.80000019073,406132.038,412646.128,8,400,49,,ISIC_0032903.JPG
break,html.Screen,4_48_1,2023-09-12T21:14:30.395Z,,0,,,NaN,,,,,,false,,,,412644.90000009537,412644.7000000477,,412644.2000000477,,412646.128,8,400,,,
break_continue,html.Screen,4_48_2,2023-09-12T21:14:30.395Z,,0,,,NaN,,,,,,false,,,,412645.30000019073,412645.2000000477,,412645,,412646.128,8,400,,,
sequence,flow.Sequence,4_48,2023-09-12T21:14:30.395Z,,0,,,6513.162000047683,completion,,,,,false,,,,412645.40000009537,412645.2000000477,406115.33,406113.80000019073,406132.038,412646.128,8,400,,,
trial,html.Screen,4_49_0,2023-09-12T21:14:39.508Z,,0,1,,9111.572000047658,response,ISIC_0543351.JPG,5,ISIC_0000754.JPG,ISIC_0000754.JPG,false,0,keypress(z),500,421758,421757.7000000477,412637.899,412645.60000014305,412646.128,421760.232,8,400,50,,ISIC_0543351.JPG
break,html.Screen,4_49_1,2023-09-12T21:14:49.491Z,,0,,,9996.911999999953,timeout,,,,,false,,,,431741.2000000477,431740.373,421758.43,421758.2000000477,421760.232,431757.144,8,400,,,
break_continue,html.Screen,4_49_2,2023-09-12T21:14:51.653Z,,0,,,2138.856000000029,response,,,,,false,continue,keypress(Space),,433902.80000019073,433896,431740.373,431741.30000019073,431757.144,433922.074,8,400,,,
sequence,flow.Sequence,4_49,2023-09-12T21:14:51.653Z,,0,,,21249.871999999974,completion,,,,,false,,,,433902.90000009537,433896,412637.899,412645.5,412646.128,433922.074,8,400,,,
trial,html.Screen,4_50_0,2023-09-12T21:14:56.327Z,,0,2,,4654.626000047661,response,ISIC_2410240.JPG,4,ISIC_1794249.JPG,ISIC_2410240.JPG,false,1,keypress(m),500,438576.90000009537,438576.7000000477,433889.449,433902.90000009537,433922.074,438579.192,8,400,1,,ISIC_1794249.JPG
break,html.Screen,4_50_1,2023-09-12T21:14:56.328Z,,0,,,NaN,,,,,,false,,,,438577.80000019073,438577.60000014305,,438577.10000014305,,438579.192,8,400,,,
break_continue,html.Screen,4_50_2,2023-09-12T21:14:56.328Z,,0,,,NaN,,,,,,false,,,,438578.10000014305,438578.10000014305,,438577.90000009537,,438579.192,8,400,,,
sequence,flow.Sequence,4_50,2023-09-12T21:14:56.328Z,,0,,,4656.026000143029,completion,,,,,false,,,,438578.2000000477,438578.10000014305,433889.449,433902.90000009537,433922.074,438579.192,8,400,,,
trial,html.Screen,4_51_0,2023-09-12T21:15:02.192Z,,0,2,,5863.008000047703,response,ISIC_7433993.JPG,5,ISIC_1059525.JPG,ISIC_7433993.JPG,false,1,keypress(m),500,444442.5,444442.2000000477,438569.948,438578.40000009537,438579.192,444444.553,8,400,2,,ISIC_1059525.JPG
break,html.Screen,4_51_1,2023-09-12T21:15:02.193Z,,0,,,NaN,,,,,,false,,,,444443.5,444443.30000019073,,444442.7000000477,,444444.553,8,400,,,
break_continue,html.Screen,4_51_2,2023-09-12T21:15:02.194Z,,0,,,NaN,,,,,,false,,,,444444.40000009537,444444.30000019073,,444444.10000014305,,444444.553,8,400,,,
sequence,flow.Sequence,4_51,2023-09-12T21:15:02.194Z,,0,,,5865.108000190754,completion,,,,,false,,,,444444.5,444444.30000019073,438569.948,438578.40000009537,438579.192,444444.553,8,400,,,
trial,html.Screen,4_52_0,2023-09-12T21:15:07.813Z,,0,2,,5618.847000095353,response,ISIC_5656921.JPG,6,ISIC_0443835.JPG,ISIC_5656921.JPG,false,1,keypress(m),500,450063.5,450063.40000009537,444433.137,444444.7000000477,444444.553,450082.265,8,400,3,,ISIC_0443835.JPG
break,html.Screen,4_52_1,2023-09-12T21:15:07.814Z,,0,,,NaN,,,,,,false,,,,450064.30000019073,450063.7000000477,,450063.5,,450082.265,8,400,,,
break_continue,html.Screen,4_52_2,2023-09-12T21:15:07.815Z,,0,,,NaN,,,,,,false,,,,450064.7000000477,450064.60000014305,,450064.40000009537,,450082.265,8,400,,,
sequence,flow.Sequence,4_52,2023-09-12T21:15:07.815Z,,0,,,5620.047000143037,completion,,,,,false,,,,450064.7000000477,450064.60000014305,444433.137,444444.60000014305,444444.553,450082.265,8,400,,,
trial,html.Screen,4_53_0,2023-09-12T21:15:11.724Z,,0,2,,3891.234999999986,response,ISIC_8009880.JPG,5,ISIC_0061509.JPG,ISIC_8009880.JPG,false,1,keypress(m),500,453973.80000019073,453973.5,450063.445,450064.80000019073,450082.265,453975.84,8,400,4,,ISIC_0061509.JPG
break,html.Screen,4_53_1,2023-09-12T21:15:11.725Z,,0,,,NaN,,,,,,false,,,,453974.80000019073,453974.60000014305,,453974,,453975.84,8,400,,,
break_continue,html.Screen,4_53_2,2023-09-12T21:15:11.725Z,,0,,,NaN,,,,,,false,,,,453975.2000000477,453975.10000014305,,453974.90000009537,,453975.84,8,400,,,
sequence,flow.Sequence,4_53,2023-09-12T21:15:11.725Z,,0,,,3892.835000143037,completion,,,,,false,,,,453975.40000009537,453975.10000014305,450063.445,450064.80000019073,450082.265,453975.84,8,400,,,
trial,html.Screen,4_54_0,2023-09-12T21:15:15.230Z,,0,2,,3504.560000095342,response,ISIC_0071875.JPG,4,ISIC_0228772.JPG,ISIC_0228772.JPG,false,0,keypress(z),500,457480.60000014305,457480.40000009537,453973.697,453975.5,453975.84,457482.788,8,400,5,,ISIC_0071875.JPG
break,html.Screen,4_54_1,2023-09-12T21:15:15.232Z,,0,,,NaN,,,,,,false,,,,457481.7000000477,457481.40000009537,,457480.80000019073,,457482.788,8,400,,,
break_continue,html.Screen,4_54_2,2023-09-12T21:15:15.232Z,,0,,,NaN,,,,,,false,,,,457482.10000014305,457482,,457481.80000019073,,457482.788,8,400,,,
sequence,flow.Sequence,4_54,2023-09-12T21:15:15.232Z,,0,,,3506.1599999999744,completion,,,,,false,,,,457482.2000000477,457482,453973.697,453975.5,453975.84,457482.788,8,400,,,
trial,html.Screen,4_55_0,2023-09-12T21:15:18.997Z,,0,2,,3764.112000095367,response,ISIC_0063745.JPG,5,ISIC_0010533.JPG,ISIC_0063745.JPG,false,1,keypress(m),500,461247,461246.90000009537,457477.786,457482.40000009537,457482.788,461249.258,8,400,6,,ISIC_0010533.JPG
break,html.Screen,4_55_1,2023-09-12T21:15:18.998Z,,0,,,NaN,,,,,,false,,,,461248,461247.80000019073,,461247.2000000477,,461249.258,8,400,,,
break_continue,html.Screen,4_55_2,2023-09-12T21:15:18.998Z,,0,,,NaN,,,,,,false,,,,461248.30000019073,461248.2000000477,,461248.10000014305,,461249.258,8,400,,,
sequence,flow.Sequence,4_55,2023-09-12T21:15:18.998Z,,0,,,3765.4120000476833,completion,,,,,false,,,,461248.40000009537,461248.2000000477,457477.786,457482.40000009537,457482.788,461249.258,8,400,,,
trial,html.Screen,4_56_0,2023-09-12T21:15:23.048Z,,0,2,,4048.5420001907623,response,ISIC_0067338.JPG,5,ISIC_0034262.JPG,ISIC_0067338.JPG,false,1,keypress(m),500,465298,465297.80000019073,461247.406,461248.5,461249.258,465300.253,8,400,7,,ISIC_0034262.JPG
break,html.Screen,4_56_1,2023-09-12T21:15:23.049Z,,0,,,NaN,,,,,,false,,,,465299,465298.7000000477,,465298.2000000477,,465300.253,8,400,,,
break_continue,html.Screen,4_56_2,2023-09-12T21:15:23.049Z,,0,,,NaN,,,,,,false,,,,465299.30000019073,465299.2000000477,,465299,,465300.253,8,400,,,
sequence,flow.Sequence,4_56,2023-09-12T21:15:23.049Z,,0,,,4049.942000047711,completion,,,,,false,,,,465299.40000009537,465299.2000000477,461247.406,461248.40000009537,461249.258,465300.253,8,400,,,
trial,html.Screen,4_57_0,2023-09-12T21:15:29.195Z,,0,2,,6145.047000190709,response,ISIC_7761711.JPG,5,ISIC_0026278.JPG,ISIC_7761711.JPG,false,1,keypress(m),500,471445.60000014305,471445.30000019073,465282.612,465299.60000014305,465300.253,471447.613,8,400,8,,ISIC_0026278.JPG
break,html.Screen,4_57_1,2023-09-12T21:15:29.196Z,,0,,,NaN,,,,,,false,,,,471446.60000014305,471446.30000019073,,471445.7000000477,,471447.613,8,400,,,
break_continue,html.Screen,4_57_2,2023-09-12T21:15:29.197Z,,0,,,NaN,,,,,,false,,,,471447.2000000477,471447,,471446.7000000477,,471447.613,8,400,,,
sequence,flow.Sequence,4_57,2023-09-12T21:15:29.197Z,,0,,,6146.746999999974,completion,,,,,false,,,,471447.30000019073,471447,465282.612,465299.5,465300.253,471447.613,8,400,,,
trial,html.Screen,4_58_0,2023-09-12T21:15:33.846Z,,0,2,,4648.487000143039,response,ISIC_5405889.JPG,6,ISIC_9939963.JPG,ISIC_5405889.JPG,false,1,keypress(m),500,476096.40000009537,476096.10000014305,471441.77,471447.40000009537,471447.613,476115.177,8,400,9,,ISIC_9939963.JPG
break,html.Screen,4_58_1,2023-09-12T21:15:33.847Z,,0,,,NaN,,,,,,false,,,,476097.30000019073,476097.10000014305,,476096.5,,476115.177,8,400,,,
break_continue,html.Screen,4_58_2,2023-09-12T21:15:33.848Z,,0,,,NaN,,,,,,false,,,,476097.7000000477,476097.5,,476097.40000009537,,476115.177,8,400,,,
sequence,flow.Sequence,4_58,2023-09-12T21:15:33.848Z,,0,,,4649.886999999988,completion,,,,,false,,,,476097.80000019073,476097.5,471441.77,471447.40000009537,471447.613,476115.177,8,400,,,
trial,html.Screen,4_59_0,2023-09-12T21:15:37.242Z,,0,2,,3376.923000143026,response,ISIC_0070313.JPG,5,ISIC_0025927.JPG,ISIC_0070313.JPG,false,1,keypress(m),500,479492.30000019073,479492.10000014305,476097.165,476097.90000009537,476115.177,479511.187,8,400,10,,ISIC_0025927.JPG
break,html.Screen,4_59_1,2023-09-12T21:15:37.243Z,,0,,,NaN,,,,,,false,,,,479493.30000019073,479493.10000014305,,479492.5,,479511.187,8,400,,,
break_continue,html.Screen,4_59_2,2023-09-12T21:15:37.244Z,,0,,,NaN,,,,,,false,,,,479493.80000019073,479493.7000000477,,479493.40000009537,,479511.187,8,400,,,
sequence,flow.Sequence,4_59,2023-09-12T21:15:37.244Z,,0,,,3378.5230000476586,completion,,,,,false,,,,479494,479493.7000000477,476097.165,476097.90000009537,476115.177,479511.187,8,400,,,
trial,html.Screen,4_60_0,2023-09-12T21:15:40.562Z,,0,2,,3300.3130000000237,response,ISIC_9175856.JPG,5,ISIC_0072087.JPG,ISIC_9175856.JPG,false,1,keypress(m),500,482811.7000000477,482811.5,479478.006,479494.10000014305,479511.187,482813.988,8,400,11,,ISIC_0072087.JPG
break,html.Screen,4_60_1,2023-09-12T21:15:40.563Z,,0,,,NaN,,,,,,false,,,,482812.7000000477,482812.5,,482811.90000009537,,482813.988,8,400,,,
break_continue,html.Screen,4_60_2,2023-09-12T21:15:40.563Z,,0,,,NaN,,,,,,false,,,,482813,482812.90000009537,,482812.80000019073,,482813.988,8,400,,,
sequence,flow.Sequence,4_60,2023-09-12T21:15:40.563Z,,0,,,3301.713000095391,completion,,,,,false,,,,482813.2000000477,482812.90000009537,479478.006,479494.10000014305,479511.187,482813.988,8,400,,,
trial,html.Screen,4_61_0,2023-09-12T21:15:44.328Z,,0,2,,3764.112000143039,response,ISIC_5658900.JPG,4,ISIC_7293518.JPG,ISIC_5658900.JPG,false,1,keypress(m),500,486578.2000000477,486578.10000014305,482812.483,482813.30000019073,482813.988,486580.551,8,400,12,,ISIC_7293518.JPG
break,html.Screen,4_61_1,2023-09-12T21:15:44.329Z,,0,,,NaN,,,,,,false,,,,486579.30000019073,486579.10000014305,,486578.40000009537,,486580.551,8,400,,,
break_continue,html.Screen,4_61_2,2023-09-12T21:15:44.330Z,,0,,,NaN,,,,,,false,,,,486579.7000000477,486579.60000014305,,486579.40000009537,,486580.551,8,400,,,
sequence,flow.Sequence,4_61,2023-09-12T21:15:44.330Z,,0,,,3765.612000143039,completion,,,,,false,,,,486579.80000019073,486579.60000014305,482812.483,482813.2000000477,482813.988,486580.551,8,400,,,
trial,html.Screen,4_62_0,2023-09-12T21:15:48.043Z,,0,2,,3712.5490001430735,response,ISIC_0057362.JPG,5,ISIC_0025085.JPG,ISIC_0025085.JPG,false,0,keypress(z),500,490293.40000009537,490293.10000014305,486568.584,486580,486580.551,490295.799,8,400,13,,ISIC_0057362.JPG
break,html.Screen,4_62_1,2023-09-12T21:15:48.044Z,,0,,,NaN,,,,,,false,,,,490294.30000019073,490294.10000014305,,490293.60000014305,,490295.799,8,400,,,
break_continue,html.Screen,4_62_2,2023-09-12T21:15:48.045Z,,0,,,NaN,,,,,,false,,,,490294.80000019073,490294.60000014305,,490294.40000009537,,490295.799,8,400,,,
sequence,flow.Sequence,4_62,2023-09-12T21:15:48.045Z,,0,,,3714.0490001430735,completion,,,,,false,,,,490294.90000009537,490294.60000014305,486568.584,486579.90000009537,486580.551,490295.799,8,400,,,
trial,html.Screen,4_63_0,2023-09-12T21:15:51.940Z,,0,2,,3894.201000000001,response,ISIC_0033164.JPG,5,ISIC_0014157.JPG,ISIC_0014157.JPG,false,0,keypress(z),500,494190.2000000477,494190,490294.259,490295,490295.799,494225.827,8,400,14,,ISIC_0033164.JPG
break,html.Screen,4_63_1,2023-09-12T21:15:51.941Z,,0,,,NaN,,,,,,false,,,,494191.10000014305,494191,,494190.40000009537,,494225.827,8,400,,,
break_continue,html.Screen,4_63_2,2023-09-12T21:15:51.941Z,,0,,,NaN,,,,,,false,,,,494191.60000014305,494191.5,,494191.30000019073,,494225.827,8,400,,,
sequence,flow.Sequence,4_63,2023-09-12T21:15:51.941Z,,0,,,3895.701000000001,completion,,,,,false,,,,494191.80000019073,494191.5,490294.259,490294.90000009537,490295.799,494225.827,8,400,,,
trial,html.Screen,4_64_0,2023-09-12T21:15:56.171Z,,0,2,,4195.17300000001,response,ISIC_1589997.JPG,5,ISIC_8316125.JPG,ISIC_8316125.JPG,false,0,keypress(z),500,498421.2000000477,498421,494209.179,494191.90000009537,494225.827,498423.613,8,400,15,,ISIC_1589997.JPG
break,html.Screen,4_64_1,2023-09-12T21:15:56.172Z,,0,,,NaN,,,,,,false,,,,498422.2000000477,498422,,498421.5,,498423.613,8,400,,,
break_continue,html.Screen,4_64_2,2023-09-12T21:15:56.172Z,,0,,,NaN,,,,,,false,,,,498422.60000014305,498422.5,,498422.40000009537,,498423.613,8,400,,,
sequence,flow.Sequence,4_64,2023-09-12T21:15:56.172Z,,0,,,4196.67300000001,completion,,,,,false,,,,498422.7000000477,498422.5,494209.179,494191.90000009537,494225.827,498423.613,8,400,,,
trial,html.Screen,4_65_0,2023-09-12T21:16:04.063Z,,0,2,,7889.287000095355,response,ISIC_0024529.JPG,6,ISIC_0005854.JPG,ISIC_0005854.JPG,false,0,keypress(z),500,506313,506312.90000009537,498421.319,498422.80000019073,498423.613,506332.75,8,400,16,,ISIC_0024529.JPG
break,html.Screen,4_65_1,2023-09-12T21:16:04.064Z,,0,,,NaN,,,,,,false,,,,506313.80000019073,506313.7000000477,,506313.2000000477,,506332.75,8,400,,,
break_continue,html.Screen,4_65_2,2023-09-12T21:16:04.064Z,,0,,,NaN,,,,,,false,,,,506314.2000000477,506314.10000014305,,506313.90000009537,,506332.75,8,400,,,
sequence,flow.Sequence,4_65,2023-09-12T21:16:04.064Z,,0,,,7890.487000143039,completion,,,,,false,,,,506314.30000019073,506314.10000014305,498421.319,498422.80000019073,498423.613,506332.75,8,400,,,
trial,html.Screen,4_66_0,2023-09-12T21:16:11.714Z,,0,2,,7631.450000047684,response,ISIC_0057661.JPG,5,ISIC_5298216.JPG,ISIC_0057661.JPG,false,1,keypress(m),500,513964.40000009537,513964.2000000477,506311.013,506314.40000009537,506332.75,513966.435,8,400,17,,ISIC_5298216.JPG
break,html.Screen,4_66_1,2023-09-12T21:16:11.716Z,,0,,,NaN,,,,,,false,,,,513966,513965.30000019073,,513964.60000014305,,513966.435,8,400,,,
break_continue,html.Screen,4_66_2,2023-09-12T21:16:11.716Z,,0,,,NaN,,,,,,false,,,,513966.7000000477,513966.60000014305,,513966.30000019073,,513966.435,8,400,,,
sequence,flow.Sequence,4_66,2023-09-12T21:16:11.717Z,,0,,,7633.850000143051,completion,,,,,false,,,,513966.90000009537,513966.60000014305,506311.013,506314.40000009537,506332.75,513966.435,8,400,,,
trial,html.Screen,4_67_0,2023-09-12T21:16:15.607Z,,0,2,,3890.5650000000023,response,ISIC_4936662.JPG,4,ISIC_0217267.JPG,ISIC_4936662.JPG,false,1,keypress(m),500,517857.2000000477,517857,513962.131,513967,513966.435,517859.492,8,400,18,,ISIC_0217267.JPG
break,html.Screen,4_67_1,2023-09-12T21:16:15.608Z,,0,,,NaN,,,,,,false,,,,517858.2000000477,517858,,517857.40000009537,,517859.492,8,400,,,
break_continue,html.Screen,4_67_2,2023-09-12T21:16:15.608Z,,0,,,NaN,,,,,,false,,,,517858.60000014305,517858.5,,517858.30000019073,,517859.492,8,400,,,
sequence,flow.Sequence,4_67,2023-09-12T21:16:15.608Z,,0,,,3892.0650000000023,completion,,,,,false,,,,517858.7000000477,517858.5,513962.131,513967,513966.435,517859.492,8,400,,,
trial,html.Screen,4_68_0,2023-09-12T21:16:21.426Z,,0,2,,5816.40800009534,response,ISIC_0063258.JPG,5,ISIC_0062325.JPG,ISIC_0063258.JPG,false,1,keypress(m),500,523676.10000014305,523675.90000009537,517853.326,517858.90000009537,517859.492,523678.429,8,400,19,,ISIC_0062325.JPG
break,html.Screen,4_68_1,2023-09-12T21:16:21.427Z,,0,,,NaN,,,,,,false,,,,523677.10000014305,523676.80000019073,,523676.30000019073,,523678.429,8,400,,,
break_continue,html.Screen,4_68_2,2023-09-12T21:16:21.427Z,,0,,,NaN,,,,,,false,,,,523677.40000009537,523677.30000019073,,523677.2000000477,,523678.429,8,400,,,
sequence,flow.Sequence,4_68,2023-09-12T21:16:21.427Z,,0,,,5817.808000190707,completion,,,,,false,,,,523677.5,523677.30000019073,517853.326,517858.80000019073,517859.492,523678.429,8,400,,,
trial,html.Screen,4_69_0,2023-09-12T21:16:26.280Z,,0,2,,4851.971000095364,response,ISIC_5874357.JPG,4,ISIC_0012706.JPG,ISIC_0012706.JPG,false,0,keypress(z),500,528530.5,528530.4000000954,523676.656,523677.7000000477,523678.429,528532.857,8,400,20,,ISIC_5874357.JPG
break,html.Screen,4_69_1,2023-09-12T21:16:26.281Z,,0,,,NaN,,,,,,false,,,,528531.600000143,528531.3000001907,,528530.8000001907,,528532.857,8,400,,,
break_continue,html.Screen,4_69_2,2023-09-12T21:16:26.282Z,,0,,,NaN,,,,,,false,,,,528532.4000000954,528532.3000001907,,528531.7000000477,,528532.857,8,400,,,
sequence,flow.Sequence,4_69,2023-09-12T21:16:26.282Z,,0,,,4853.871000190731,completion,,,,,false,,,,528532.5,528532.3000001907,523676.656,523677.7000000477,523678.429,528532.857,8,400,,,
trial,html.Screen,4_70_0,2023-09-12T21:16:29.844Z,,0,2,,3561.3430000477238,response,ISIC_2331656.JPG,5,ISIC_7901891.JPG,ISIC_2331656.JPG,false,1,keypress(m),500,532094.5,532094.2000000477,528531.294,528532.600000143,528532.857,532096.878,8,400,21,,ISIC_7901891.JPG
break,html.Screen,4_70_1,2023-09-12T21:16:29.845Z,,0,,,NaN,,,,,,false,,,,532095.600000143,532095.3000001907,,532094.7000000477,,532096.878,8,400,,,
break_continue,html.Screen,4_70_2,2023-09-12T21:16:29.846Z,,0,,,NaN,,,,,,false,,,,532095.9000000954,532095.8000001907,,532095.600000143,,532096.878,8,400,,,
sequence,flow.Sequence,4_70,2023-09-12T21:16:29.846Z,,0,,,3562.943000190775,completion,,,,,false,,,,532096.100000143,532095.8000001907,528531.294,528532.600000143,528532.857,532096.878,8,400,,,
trial,html.Screen,4_71_0,2023-09-12T21:16:37.673Z,,0,2,,7826.022000095341,response,ISIC_5049165.JPG,4,ISIC_4011169.JPG,ISIC_4011169.JPG,false,0,keypress(z),500,539923.2000000477,539922.9000000954,532094.443,532096.2000000477,532096.878,539925.259,8,400,22,,ISIC_5049165.JPG
break,html.Screen,4_71_1,2023-09-12T21:16:37.674Z,,0,,,NaN,,,,,,false,,,,539924,539923.9000000954,,539923.3000001907,,539925.259,8,400,,,
break_continue,html.Screen,4_71_2,2023-09-12T21:16:37.674Z,,0,,,NaN,,,,,,false,,,,539924.5,539924.3000001907,,539924.100000143,,539925.259,8,400,,,
sequence,flow.Sequence,4_71,2023-09-12T21:16:37.674Z,,0,,,7827.422000190709,completion,,,,,false,,,,539924.5,539924.3000001907,532094.443,532096.100000143,532096.878,539925.259,8,400,,,
trial,html.Screen,4_72_0,2023-09-12T21:16:41.628Z,,0,2,,3952.441000047722,response,ISIC_0071735.JPG,5,ISIC_6767569.JPG,ISIC_0071735.JPG,false,1,keypress(m),500,543878,543877.7000000477,539919.333,539924.7000000477,539925.259,543880.083,8,400,23,,ISIC_6767569.JPG
break,html.Screen,4_72_1,2023-09-12T21:16:41.629Z,,0,,,NaN,,,,,,false,,,,543878.9000000954,543878.7000000477,,543878.100000143,,543880.083,8,400,,,
break_continue,html.Screen,4_72_2,2023-09-12T21:16:41.629Z,,0,,,NaN,,,,,,false,,,,543879.2000000477,543879.100000143,,543879,,543880.083,8,400,,,
sequence,flow.Sequence,4_72,2023-09-12T21:16:41.629Z,,0,,,3953.8410001430893,completion,,,,,false,,,,543879.4000000954,543879.100000143,539919.333,539924.7000000477,539925.259,543880.083,8,400,,,
trial,html.Screen,4_73_0,2023-09-12T21:16:45.712Z,,0,2,,4082.1170000476995,response,ISIC_0081584.JPG,5,ISIC_0961235.JPG,ISIC_0961235.JPG,false,0,keypress(z),500,547962.5,547962.2000000477,543873.287,543879.4000000954,543880.083,547964.671,8,400,24,,ISIC_0081584.JPG
break,html.Screen,4_73_1,2023-09-12T21:16:45.713Z,,0,,,NaN,,,,,,false,,,,547963.5,547963.2000000477,,547962.7000000477,,547964.671,8,400,,,
break_continue,html.Screen,4_73_2,2023-09-12T21:16:45.714Z,,0,,,NaN,,,,,,false,,,,547964.600000143,547964.4000000954,,547964.2000000477,,547964.671,8,400,,,
sequence,flow.Sequence,4_73,2023-09-12T21:16:45.714Z,,0,,,4084.3170000953833,completion,,,,,false,,,,547964.7000000477,547964.4000000954,543873.287,543879.4000000954,543880.083,547964.671,8,400,,,
trial,html.Screen,4_74_0,2023-09-12T21:16:49.881Z,,0,2,,4166.429000143078,response,ISIC_0011040.JPG,5,ISIC_0029339.JPG,ISIC_0011040.JPG,false,1,keypress(m),500,552131.2000000477,552131.100000143,547962.772,547964.8000001907,547964.671,552149.861,8,400,25,,ISIC_0029339.JPG
break,html.Screen,4_74_1,2023-09-12T21:16:49.881Z,,0,,,NaN,,,,,,false,,,,552131.7000000477,552131.600000143,,552131.3000001907,,552149.861,8,400,,,
break_continue,html.Screen,4_74_2,2023-09-12T21:16:49.882Z,,0,,,NaN,,,,,,false,,,,552131.9000000954,552131.8000001907,,552131.8000001907,,552149.861,8,400,,,
sequence,flow.Sequence,4_74,2023-09-12T21:16:49.882Z,,0,,,4167.129000190762,completion,,,,,false,,,,552132,552131.8000001907,547962.772,547964.8000001907,547964.671,552149.861,8,400,,,
trial,html.Screen,4_75_0,2023-09-12T21:16:54.064Z,,0,2,,4164.1389999999665,response,ISIC_0031224.JPG,5,ISIC_0031101.JPG,ISIC_0031224.JPG,false,1,keypress(m),500,556314.3000001907,556314,552131.262,552132,552149.861,556333.131,8,400,26,,ISIC_0031101.JPG
break,html.Screen,4_75_1,2023-09-12T21:16:54.065Z,,0,,,NaN,,,,,,false,,,,556315.2000000477,556315,,556314.5,,556333.131,8,400,,,
break_continue,html.Screen,4_75_2,2023-09-12T21:16:54.065Z,,0,,,NaN,,,,,,false,,,,556315.5,556315.5,,556315.3000001907,,556333.131,8,400,,,
sequence,flow.Sequence,4_75,2023-09-12T21:16:54.065Z,,0,,,4165.6389999999665,completion,,,,,false,,,,556315.7000000477,556315.5,552131.262,552132,552149.861,556333.131,8,400,,,
trial,html.Screen,4_76_0,2023-09-12T21:16:58.407Z,,0,2,,4323.569000047632,response,ISIC_2894223.JPG,6,ISIC_7766007.JPG,ISIC_7766007.JPG,false,0,keypress(z),500,560656.9000000954,560656.7000000477,556298.851,556315.8000001907,556333.131,560659.14,8,400,27,,ISIC_2894223.JPG
break,html.Screen,4_76_1,2023-09-12T21:16:58.408Z,,0,,,NaN,,,,,,false,,,,560658,560657.7000000477,,560657.2000000477,,560659.14,8,400,,,
break_continue,html.Screen,4_76_2,2023-09-12T21:16:58.408Z,,0,,,NaN,,,,,,false,,,,560658.3000001907,560658.2000000477,,560658,,560659.14,8,400,,,
sequence,flow.Sequence,4_76,2023-09-12T21:16:58.408Z,,0,,,4325.069000047632,completion,,,,,false,,,,560658.4000000954,560658.2000000477,556298.851,556315.8000001907,556333.131,560659.14,8,400,,,
trial,html.Screen,4_77_0,2023-09-12T21:17:03.898Z,,0,2,,5488.660000190721,response,ISIC_1603834.JPG,5,ISIC_8296881.JPG,ISIC_1603834.JPG,false,1,keypress(m),500,566147.9000000954,566147.8000001907,560657.723,560658.600000143,560659.14,566149.568,8,400,28,,ISIC_8296881.JPG
break,html.Screen,4_77_1,2023-09-12T21:17:03.898Z,,0,,,NaN,,,,,,false,,,,566148.3000001907,566148.2000000477,,566148,,566149.568,8,400,,,
break_continue,html.Screen,4_77_2,2023-09-12T21:17:03.898Z,,0,,,NaN,,,,,,false,,,,566148.4000000954,566148.4000000954,,566148.3000001907,,566149.568,8,400,,,
sequence,flow.Sequence,4_77,2023-09-12T21:17:03.898Z,,0,,,5489.2600000953535,completion,,,,,false,,,,566148.4000000954,566148.4000000954,560657.723,560658.600000143,560659.14,566149.568,8,400,,,
trial,html.Screen,4_78_0,2023-09-12T21:17:09.070Z,,0,2,,5170.6320000477135,response,ISIC_5305288.JPG,5,ISIC_5913155.JPG,ISIC_5305288.JPG,false,1,keypress(m),500,571320.3000001907,571320.2000000477,566142.218,566148.4000000954,566149.568,571321.946,8,400,29,,ISIC_5913155.JPG
break,html.Screen,4_78_1,2023-09-12T21:17:09.070Z,,0,,,NaN,,,,,,false,,,,571320.8000001907,571320.7000000477,,571320.4000000954,,571321.946,8,400,,,
break_continue,html.Screen,4_78_2,2023-09-12T21:17:09.071Z,,0,,,NaN,,,,,,false,,,,571320.9000000954,571320.8000001907,,571320.8000001907,,571321.946,8,400,,,
sequence,flow.Sequence,4_78,2023-09-12T21:17:09.071Z,,0,,,5171.232000190765,completion,,,,,false,,,,571320.9000000954,571320.8000001907,566142.218,566148.4000000954,566149.568,571321.946,8,400,,,
trial,html.Screen,4_79_0,2023-09-12T21:17:13.014Z,,0,2,,3941.654000143055,response,ISIC_0033149.JPG,6,ISIC_4927943.JPG,ISIC_4927943.JPG,false,0,keypress(z),500,575263.9000000954,575263.600000143,571319.954,571321,571321.946,575266.265,8,400,30,,ISIC_0033149.JPG
break,html.Screen,4_79_1,2023-09-12T21:17:13.015Z,,0,,,NaN,,,,,,false,,,,575265.2000000477,575264.9000000954,,575264.2000000477,,575266.265,8,400,,,
break_continue,html.Screen,4_79_2,2023-09-12T21:17:13.015Z,,0,,,NaN,,,,,,false,,,,575265.600000143,575265.5,,575265.3000001907,,575266.265,8,400,,,
sequence,flow.Sequence,4_79,2023-09-12T21:17:13.015Z,,0,,,3943.5540000000037,completion,,,,,false,,,,575265.8000001907,575265.5,571319.954,571321,571321.946,575266.265,8,400,,,
trial,html.Screen,4_80_0,2023-09-12T21:17:17.257Z,,0,2,,4240.6350000953535,response,ISIC_5614300.JPG,5,ISIC_0000423.JPG,ISIC_0000423.JPG,false,0,keypress(z),500,579507.100000143,579506.9000000954,575264.586,575265.9000000954,575266.265,579509.415,8,400,31,,ISIC_5614300.JPG
break,html.Screen,4_80_1,2023-09-12T21:17:17.258Z,,0,,,NaN,,,,,,false,,,,579508,579507.9000000954,,579507.3000001907,,579509.415,8,400,,,
break_continue,html.Screen,4_80_2,2023-09-12T21:17:17.258Z,,0,,,NaN,,,,,,false,,,,579508.5,579508.3000001907,,579508.2000000477,,579509.415,8,400,,,
sequence,flow.Sequence,4_80,2023-09-12T21:17:17.258Z,,0,,,4242.035000190721,completion,,,,,false,,,,579508.600000143,579508.3000001907,575264.586,575265.9000000954,575266.265,579509.415,8,400,,,
trial,html.Screen,4_81_0,2023-09-12T21:17:26.188Z,,0,2,,8928.685000143014,response,ISIC_0060033.JPG,5,ISIC_0061509.JPG,ISIC_0061509.JPG,false,0,keypress(z),500,588438.4000000954,588438.100000143,579507.058,579508.600000143,579509.415,588440.583,8,400,32,,ISIC_0060033.JPG
break,html.Screen,4_81_1,2023-09-12T21:17:26.189Z,,0,,,NaN,,,,,,false,,,,588439.3000001907,588439.100000143,,588438.600000143,,588440.583,8,400,,,
break_continue,html.Screen,4_81_2,2023-09-12T21:17:26.189Z,,0,,,NaN,,,,,,false,,,,588439.7000000477,588439.5,,588439.4000000954,,588440.583,8,400,,,
sequence,flow.Sequence,4_81,2023-09-12T21:17:26.189Z,,0,,,8930.084999999963,completion,,,,,false,,,,588439.8000001907,588439.5,579507.058,579508.600000143,579509.415,588440.583,8,400,,,
trial,html.Screen,4_82_0,2023-09-12T21:17:29.890Z,,0,2,,3700.017000143067,response,ISIC_9271800.JPG,5,ISIC_0944273.JPG,ISIC_9271800.JPG,false,1,keypress(m),500,592140.8000001907,592140.600000143,588422.933,588439.9000000954,588440.583,592159.995,8,400,33,,ISIC_0944273.JPG
break,html.Screen,4_82_1,2023-09-12T21:17:29.891Z,,0,,,NaN,,,,,,false,,,,592141.8000001907,592141.600000143,,592141,,592159.995,8,400,,,
break_continue,html.Screen,4_82_2,2023-09-12T21:17:29.892Z,,0,,,NaN,,,,,,false,,,,592142.4000000954,592142.3000001907,,592142,,592159.995,8,400,,,
sequence,flow.Sequence,4_82,2023-09-12T21:17:29.892Z,,0,,,3701.7170001907507,completion,,,,,false,,,,592142.600000143,592142.3000001907,588422.933,588439.9000000954,588440.583,592159.995,8,400,,,
trial,html.Screen,4_83_0,2023-09-12T21:17:34.391Z,,0,2,,4480.705000047688,response,ISIC_4136663.JPG,5,ISIC_6919856.JPG,ISIC_4136663.JPG,false,1,keypress(m),500,596640.8000001907,596640.7000000477,592143.23,592142.7000000477,592159.995,596643.128,8,400,34,,ISIC_6919856.JPG
break,html.Screen,4_83_1,2023-09-12T21:17:34.392Z,,0,,,NaN,,,,,,false,,,,596641.9000000954,596641.600000143,,596641,,596643.128,8,400,,,
break_continue,html.Screen,4_83_2,2023-09-12T21:17:34.393Z,,0,,,NaN,,,,,,false,,,,596643.4000000954,596643.2000000477,,596643,,596643.128,8,400,,,
sequence,flow.Sequence,4_83,2023-09-12T21:17:34.393Z,,0,,,4483.205000047688,completion,,,,,false,,,,596643.600000143,596643.2000000477,592143.23,592142.7000000477,592159.995,596643.128,8,400,,,
trial,html.Screen,4_84_0,2023-09-12T21:17:41.531Z,,0,2,,7137.871999999974,response,ISIC_0753491.JPG,6,ISIC_6023504.JPG,ISIC_0753491.JPG,false,1,keypress(m),500,603781.3000001907,603781,596636.324,596643.7000000477,596643.128,603800.246,8,400,35,,ISIC_6023504.JPG
break,html.Screen,4_84_1,2023-09-12T21:17:41.532Z,,0,,,NaN,,,,,,false,,,,603782.100000143,603781.9000000954,,603781.4000000954,,603800.246,8,400,,,
break_continue,html.Screen,4_84_2,2023-09-12T21:17:41.532Z,,0,,,NaN,,,,,,false,,,,603782.600000143,603782.4000000954,,603782.3000001907,,603800.246,8,400,,,
sequence,flow.Sequence,4_84,2023-09-12T21:17:41.532Z,,0,,,7139.272000095341,completion,,,,,false,,,,603782.8000001907,603782.4000000954,596636.324,596643.600000143,596643.128,603800.246,8,400,,,
trial,html.Screen,4_85_0,2023-09-12T21:17:45.042Z,,0,2,,3491.554000190692,response,ISIC_9126343.JPG,5,ISIC_6731470.JPG,ISIC_9126343.JPG,false,1,keypress(m),500,607292.100000143,607291.8000001907,603776.453,603782.8000001907,603800.246,607294.338,8,400,36,,ISIC_6731470.JPG
break,html.Screen,4_85_1,2023-09-12T21:17:45.043Z,,0,,,NaN,,,,,,false,,,,607293.100000143,607292.8000001907,,607292.3000001907,,607294.338,8,400,,,
break_continue,html.Screen,4_85_2,2023-09-12T21:17:45.043Z,,0,,,NaN,,,,,,false,,,,607293.4000000954,607293.4000000954,,607293.2000000477,,607294.338,8,400,,,
sequence,flow.Sequence,4_85,2023-09-12T21:17:45.043Z,,0,,,3493.1540000953246,completion,,,,,false,,,,607293.600000143,607293.4000000954,603776.453,603782.8000001907,603800.246,607294.338,8,400,,,
trial,html.Screen,4_86_0,2023-09-12T21:17:49.467Z,,0,2,,4422.962000190746,response,ISIC_0032954.JPG,6,ISIC_5100319.JPG,ISIC_5100319.JPG,false,0,keypress(z),500,611717.600000143,611717.3000001907,607292.351,607293.7000000477,607294.338,611719.756,8,400,37,,ISIC_0032954.JPG
break,html.Screen,4_86_1,2023-09-12T21:17:49.468Z,,0,,,NaN,,,,,,false,,,,611718.5,611718.3000001907,,611717.8000001907,,611719.756,8,400,,,
break_continue,html.Screen,4_86_2,2023-09-12T21:17:49.469Z,,0,,,NaN,,,,,,false,,,,611718.9000000954,611718.8000001907,,611718.600000143,,611719.756,8,400,,,
sequence,flow.Sequence,4_86,2023-09-12T21:17:49.469Z,,0,,,4424.462000190746,completion,,,,,false,,,,611719.100000143,611718.8000001907,607292.351,607293.7000000477,607294.338,611719.756,8,400,,,
trial,html.Screen,4_87_0,2023-09-12T21:17:54.143Z,,0,2,,4673.243999999948,response,ISIC_6606767.JPG,6,ISIC_1761083.JPG,ISIC_6606767.JPG,false,1,keypress(m),500,616393.100000143,616393,611718.39,611719.2000000477,611719.756,616395.431,8,400,38,,ISIC_1761083.JPG
break,html.Screen,4_87_1,2023-09-12T21:17:54.144Z,,0,,,NaN,,,,,,false,,,,616394.2000000477,616394,,616393.4000000954,,616395.431,8,400,,,
break_continue,html.Screen,4_87_2,2023-09-12T21:17:54.144Z,,0,,,NaN,,,,,,false,,,,616394.5,616394.4000000954,,616394.3000001907,,616395.431,8,400,,,
sequence,flow.Sequence,4_87,2023-09-12T21:17:54.144Z,,0,,,4674.644000095315,completion,,,,,false,,,,616394.600000143,616394.4000000954,611718.39,611719.2000000477,611719.756,616395.431,8,400,,,
trial,html.Screen,4_88_0,2023-09-12T21:17:57.560Z,,0,2,,3414.469000095385,response,ISIC_2736880.JPG,5,ISIC_0021713.JPG,ISIC_2736880.JPG,false,1,keypress(m),500,619810.100000143,619809.9000000954,616385.703,616394.8000001907,616395.431,619812.408,8,400,39,,ISIC_0021713.JPG
break,html.Screen,4_88_1,2023-09-12T21:17:57.561Z,,0,,,NaN,,,,,,false,,,,619811.2000000477,619810.9000000954,,619810.4000000954,,619812.408,8,400,,,
break_continue,html.Screen,4_88_2,2023-09-12T21:17:57.562Z,,0,,,NaN,,,,,,false,,,,619812,619811.9000000954,,619811.2000000477,,619812.408,8,400,,,
sequence,flow.Sequence,4_88,2023-09-12T21:17:57.562Z,,0,,,3416.469000095385,completion,,,,,false,,,,619812.2000000477,619811.9000000954,616385.703,616394.7000000477,616395.431,619812.408,8,400,,,
trial,html.Screen,4_89_0,2023-09-12T21:18:02.337Z,,0,2,,4774.892000190681,response,ISIC_7755096.JPG,5,ISIC_0033485.JPG,ISIC_7755096.JPG,false,1,keypress(m),500,624587.5,624587.3000001907,619801.627,619812.3000001907,619812.408,624589.908,8,400,40,,ISIC_0033485.JPG
break,html.Screen,4_89_1,2023-09-12T21:18:02.338Z,,0,,,NaN,,,,,,false,,,,624588.5,624588.3000001907,,624587.7000000477,,624589.908,8,400,,,
break_continue,html.Screen,4_89_2,2023-09-12T21:18:02.338Z,,0,,,NaN,,,,,,false,,,,624588.8000001907,624588.8000001907,,624588.600000143,,624589.908,8,400,,,
sequence,flow.Sequence,4_89,2023-09-12T21:18:02.339Z,,0,,,4776.392000190681,completion,,,,,false,,,,624589,624588.8000001907,619801.627,619812.3000001907,619812.408,624589.908,8,400,,,
trial,html.Screen,4_90_0,2023-09-12T21:18:07.381Z,,0,2,,5040.79200004763,response,ISIC_0027683.JPG,6,ISIC_3179296.JPG,ISIC_0027683.JPG,false,1,keypress(m),500,629631.100000143,629630.7000000477,624587.571,624589.100000143,624589.908,629633.346,8,400,41,,ISIC_3179296.JPG
break,html.Screen,4_90_1,2023-09-12T21:18:07.382Z,,0,,,NaN,,,,,,false,,,,629632,629631.8000001907,,629631.2000000477,,629633.346,8,400,,,
break_continue,html.Screen,4_90_2,2023-09-12T21:18:07.382Z,,0,,,NaN,,,,,,false,,,,629632.5,629632.3000001907,,629632.100000143,,629633.346,8,400,,,
sequence,flow.Sequence,4_90,2023-09-12T21:18:07.382Z,,0,,,5042.392000190681,completion,,,,,false,,,,629632.600000143,629632.3000001907,624587.571,624589.100000143,624589.908,629633.346,8,400,,,
trial,html.Screen,4_91_0,2023-09-12T21:18:12.697Z,,0,2,,5313.65399999998,response,ISIC_0027363.JPG,4,ISIC_0533122.JPG,ISIC_0027363.JPG,false,1,keypress(m),500,634947.3000001907,634947,629625.196,629632.600000143,629633.346,634949.55,8,400,42,,ISIC_0533122.JPG
break,html.Screen,4_91_1,2023-09-12T21:18:12.698Z,,0,,,NaN,,,,,,false,,,,634948.2000000477,634948,,634947.5,,634949.55,8,400,,,
break_continue,html.Screen,4_91_2,2023-09-12T21:18:12.698Z,,0,,,NaN,,,,,,false,,,,634948.600000143,634948.5,,634948.3000001907,,634949.55,8,400,,,
sequence,flow.Sequence,4_91,2023-09-12T21:18:12.698Z,,0,,,5315.15399999998,completion,,,,,false,,,,634948.8000001907,634948.5,629625.196,629632.600000143,629633.346,634949.55,8,400,,,
trial,html.Screen,4_92_0,2023-09-12T21:18:16.700Z,,0,2,,4000.5500001430046,response,ISIC_7667157.JPG,6,ISIC_0327406.JPG,ISIC_7667157.JPG,false,1,keypress(m),500,638950.4000000954,638950.100000143,634937.06,634948.8000001907,634949.55,638952.618,8,400,43,,ISIC_0327406.JPG
break,html.Screen,4_92_1,2023-09-12T21:18:16.701Z,,0,,,NaN,,,,,,false,,,,638951.5,638951.100000143,,638950.600000143,,638952.618,8,400,,,
break_continue,html.Screen,4_92_2,2023-09-12T21:18:16.701Z,,0,,,NaN,,,,,,false,,,,638951.8000001907,638951.7000000477,,638951.600000143,,638952.618,8,400,,,
sequence,flow.Sequence,4_92,2023-09-12T21:18:16.702Z,,0,,,4002.150000047637,completion,,,,,false,,,,638951.9000000954,638951.7000000477,634937.06,634948.8000001907,634949.55,638952.618,8,400,,,
trial,html.Screen,4_93_0,2023-09-12T21:18:25.136Z,,0,2,,8433.482000143034,response,ISIC_0011150.JPG,6,ISIC_0030911.JPG,ISIC_0030911.JPG,false,0,keypress(z),500,647386.4000000954,647386.100000143,638943.446,638952.100000143,638952.618,647388.627,8,400,44,,ISIC_0011150.JPG
break,html.Screen,4_93_1,2023-09-12T21:18:25.137Z,,0,,,NaN,,,,,,false,,,,647387.3000001907,647387,,647386.5,,647388.627,8,400,,,
break_continue,html.Screen,4_93_2,2023-09-12T21:18:25.137Z,,0,,,NaN,,,,,,false,,,,647387.600000143,647387.5,,647387.4000000954,,647388.627,8,400,,,
sequence,flow.Sequence,4_93,2023-09-12T21:18:25.138Z,,0,,,8434.881999999983,completion,,,,,false,,,,647387.9000000954,647387.5,638943.446,638952,638952.618,647388.627,8,400,,,
trial,html.Screen,4_94_0,2023-09-12T21:18:29.079Z,,0,2,,3940.9730001430726,response,ISIC_5935362.JPG,5,ISIC_4541530.JPG,ISIC_4541530.JPG,false,0,keypress(z),500,651329.8000001907,651329.600000143,647383.301,647388,647388.627,651332.136,8,400,45,,ISIC_5935362.JPG
break,html.Screen,4_94_1,2023-09-12T21:18:29.080Z,,0,,,NaN,,,,,,false,,,,651330.8000001907,651330.5,,651330,,651332.136,8,400,,,
break_continue,html.Screen,4_94_2,2023-09-12T21:18:29.081Z,,0,,,NaN,,,,,,false,,,,651331.2000000477,651331,,651330.8000001907,,651332.136,8,400,,,
sequence,flow.Sequence,4_94,2023-09-12T21:18:29.081Z,,0,,,3942.3730000000214,completion,,,,,false,,,,651331.3000001907,651331,647383.301,647388,647388.627,651332.136,8,400,,,
trial,html.Screen,4_95_0,2023-09-12T21:18:32.811Z,,0,2,,3728.564000047627,response,ISIC_0033362.JPG,5,ISIC_6876281.JPG,ISIC_6876281.JPG,false,0,keypress(z),500,655060.9000000954,655060.7000000477,651330.561,651331.4000000954,651332.136,655063.1,8,400,46,,ISIC_0033362.JPG
break,html.Screen,4_95_1,2023-09-12T21:18:32.811Z,,0,,,NaN,,,,,,false,,,,655061.8000001907,655061.600000143,,655061.100000143,,655063.1,8,400,,,
break_continue,html.Screen,4_95_2,2023-09-12T21:18:32.812Z,,0,,,NaN,,,,,,false,,,,655062.3000001907,655062.100000143,,655062,,655063.1,8,400,,,
sequence,flow.Sequence,4_95,2023-09-12T21:18:32.812Z,,0,,,3729.9640001429943,completion,,,,,false,,,,655062.4000000954,655062.100000143,651330.561,651331.4000000954,651332.136,655063.1,8,400,,,
trial,html.Screen,4_96_0,2023-09-12T21:18:37.042Z,,0,2,,4229.300000095391,response,ISIC_0029281.JPG,6,ISIC_5526879.JPG,ISIC_5526879.JPG,false,0,keypress(z),500,659292.600000143,659292.4000000954,655059.09,655062.5,655063.1,659294.83,8,400,47,,ISIC_0029281.JPG
break,html.Screen,4_96_1,2023-09-12T21:18:37.043Z,,0,,,NaN,,,,,,false,,,,659293.8000001907,659293.5,,659292.9000000954,,659294.83,8,400,,,
break_continue,html.Screen,4_96_2,2023-09-12T21:18:37.044Z,,0,,,NaN,,,,,,false,,,,659294.2000000477,659294.100000143,,659293.9000000954,,659294.83,8,400,,,
sequence,flow.Sequence,4_96,2023-09-12T21:18:37.044Z,,0,,,4231.000000143074,completion,,,,,false,,,,659294.4000000954,659294.100000143,655059.09,655062.4000000954,655063.1,659294.83,8,400,,,
trial,html.Screen,4_97_0,2023-09-12T21:18:42.441Z,,0,2,,5396.270000143093,response,ISIC_0014695.JPG,5,ISIC_0030852.JPG,ISIC_0014695.JPG,false,1,keypress(m),500,664691.3000001907,664691.100000143,659277.252,659294.4000000954,659294.83,664693.577,8,400,48,,ISIC_0030852.JPG
break,html.Screen,4_97_1,2023-09-12T21:18:42.442Z,,0,,,NaN,,,,,,false,,,,664692.3000001907,664692,,664691.5,,664693.577,8,400,,,
break_continue,html.Screen,4_97_2,2023-09-12T21:18:42.442Z,,0,,,NaN,,,,,,false,,,,664692.7000000477,664692.5,,664692.4000000954,,664693.577,8,400,,,
sequence,flow.Sequence,4_97,2023-09-12T21:18:42.442Z,,0,,,5397.670000000042,completion,,,,,false,,,,664692.8000001907,664692.5,659277.252,659294.4000000954,659294.83,664693.577,8,400,,,
trial,html.Screen,4_98_0,2023-09-12T21:18:47.501Z,,0,2,,5057.723000190686,response,ISIC_0029209.JPG,5,ISIC_0059041.JPG,ISIC_0029209.JPG,false,1,keypress(m),500,669751.4000000954,669751.3000001907,664692.084,664692.9000000954,664693.577,669770.29,8,400,49,,ISIC_0059041.JPG
break,html.Screen,4_98_1,2023-09-12T21:18:47.502Z,,0,,,NaN,,,,,,false,,,,669752.5,669752.2000000477,,669751.7000000477,,669770.29,8,400,,,
break_continue,html.Screen,4_98_2,2023-09-12T21:18:47.502Z,,0,,,NaN,,,,,,false,,,,669752.8000001907,669752.7000000477,,669752.600000143,,669770.29,8,400,,,
sequence,flow.Sequence,4_98,2023-09-12T21:18:47.503Z,,0,,,5059.123000047635,completion,,,,,false,,,,669753,669752.7000000477,664692.084,664692.9000000954,664693.577,669770.29,8,400,,,
trial,html.Screen,4_99_0,2023-09-12T21:18:51.592Z,,0,2,,4071.2099999999627,response,ISIC_6663112.JPG,5,ISIC_0063473.JPG,ISIC_6663112.JPG,false,1,keypress(m),500,673841.8000001907,673841.5,669745.258,669753.100000143,669770.29,673860.934,8,400,50,,ISIC_0063473.JPG
break,html.Screen,4_99_1,2023-09-12T21:19:01.591Z,,0,,,9996.687999999966,timeout,,,,,false,,,,683841.7000000477,683840.962,673844.187,673842,673860.934,683857.622,8,400,,,
break_continue,html.Screen,4_99_2,2023-09-12T21:19:04.276Z,,0,,,2656.478000143077,response,,,,,false,continue,keypress(Space),,686526.2000000477,686514.100000143,683840.962,683841.9000000954,683857.622,686527.746,8,400,,,
sequence,flow.Sequence,4_99,2023-09-12T21:19:04.276Z,,0,,,16743.810000143014,completion,,,,,false,,,,686526.2000000477,686514.100000143,669745.258,669753.100000143,669770.29,686527.746,8,400,,,
trial,html.Screen,4_100_0,2023-09-12T21:19:07.853Z,,0,3,,3575.6540000953246,response,ISIC_0003132.JPG,6,ISIC_0011315.JPG,ISIC_0003132.JPG,false,1,keypress(m),500,690103.7000000477,690103.4000000954,686523.364,686526.3000001907,686527.746,690105.866,8,400,1,,ISIC_0011315.JPG
break,html.Screen,4_100_1,2023-09-12T21:19:07.854Z,,0,,,NaN,,,,,,false,,,,690104.7000000477,690104.5,,690103.8000001907,,690105.866,8,400,,,
break_continue,html.Screen,4_100_2,2023-09-12T21:19:07.855Z,,0,,,NaN,,,,,,false,,,,690105.100000143,690105,,690104.8000001907,,690105.866,8,400,,,
sequence,flow.Sequence,4_100,2023-09-12T21:19:07.855Z,,0,,,3577.253999999957,completion,,,,,false,,,,690105.2000000477,690105,686523.364,686526.3000001907,686527.746,690105.866,8,400,,,
trial,html.Screen,4_101_0,2023-09-12T21:19:11.492Z,,0,3,,3635.9340001906967,response,ISIC_0058098.JPG,5,ISIC_0007416.JPG,ISIC_0007416.JPG,false,0,keypress(z),500,693742.100000143,693741.8000001907,690103.834,690105.4000000954,690105.866,693744.39,8,400,2,,ISIC_0058098.JPG
break,html.Screen,4_101_1,2023-09-12T21:19:11.493Z,,0,,,NaN,,,,,,false,,,,693743.2000000477,693743,,693742.3000001907,,693744.39,8,400,,,
break_continue,html.Screen,4_101_2,2023-09-12T21:19:11.493Z,,0,,,NaN,,,,,,false,,,,693743.600000143,693743.5,,693743.3000001907,,693744.39,8,400,,,
sequence,flow.Sequence,4_101,2023-09-12T21:19:11.493Z,,0,,,3637.633999999962,completion,,,,,false,,,,693743.7000000477,693743.5,690103.834,690105.4000000954,690105.866,693744.39,8,400,,,
trial,html.Screen,4_102_0,2023-09-12T21:19:15.740Z,,0,3,,4245.31000004767,response,ISIC_0026309.JPG,5,ISIC_7976934.JPG,ISIC_0026309.JPG,false,1,keypress(m),500,697990,697989.7000000477,693742.382,693743.8000001907,693744.39,697992.327,8,400,3,,ISIC_7976934.JPG
break,html.Screen,4_102_1,2023-09-12T21:19:15.741Z,,0,,,NaN,,,,,,false,,,,697990.9000000954,697990.7000000477,,697990.100000143,,697992.327,8,400,,,
break_continue,html.Screen,4_102_2,2023-09-12T21:19:15.741Z,,0,,,NaN,,,,,,false,,,,697991.2000000477,697991.100000143,,697991,,697992.327,8,400,,,
sequence,flow.Sequence,4_102,2023-09-12T21:19:15.741Z,,0,,,4246.710000143037,completion,,,,,false,,,,697991.5,697991.100000143,693742.382,693743.8000001907,693744.39,697992.327,8,400,,,
trial,html.Screen,4_103_0,2023-09-12T21:19:20.373Z,,0,3,,4630.273000143003,response,ISIC_7748311.JPG,5,ISIC_7378303.JPG,ISIC_7378303.JPG,false,0,keypress(z),500,702622.9000000954,702622.600000143,697990.712,697991.5,697992.327,702641.957,8,400,4,,ISIC_7748311.JPG
break,html.Screen,4_103_1,2023-09-12T21:19:20.374Z,,0,,,NaN,,,,,,false,,,,702623.8000001907,702623.600000143,,702623,,702641.957,8,400,,,
break_continue,html.Screen,4_103_2,2023-09-12T21:19:20.374Z,,0,,,NaN,,,,,,false,,,,702624.3000001907,702624.2000000477,,702624,,702641.957,8,400,,,
sequence,flow.Sequence,4_103,2023-09-12T21:19:20.374Z,,0,,,4631.873000047635,completion,,,,,false,,,,702624.4000000954,702624.2000000477,697990.712,697991.5,697992.327,702641.957,8,400,,,
trial,html.Screen,4_104_0,2023-09-12T21:19:24.824Z,,0,3,,4431.643000142998,response,ISIC_3888713.JPG,5,ISIC_1328804.JPG,ISIC_3888713.JPG,false,1,keypress(m),500,707073.9000000954,707073.600000143,702623.118,702624.5,702641.957,707076.041,8,400,5,,ISIC_1328804.JPG
break,html.Screen,4_104_1,2023-09-12T21:19:24.824Z,,0,,,NaN,,,,,,false,,,,707074.8000001907,707074.600000143,,707074,,707076.041,8,400,,,
break_continue,html.Screen,4_104_2,2023-09-12T21:19:24.825Z,,0,,,NaN,,,,,,false,,,,707075.100000143,707075,,707074.8000001907,,707076.041,8,400,,,
sequence,flow.Sequence,4_104,2023-09-12T21:19:24.825Z,,0,,,4433.042999999947,completion,,,,,false,,,,707075.2000000477,707075,702623.118,702624.5,702641.957,707076.041,8,400,,,
trial,html.Screen,4_105_0,2023-09-12T21:19:29.883Z,,0,3,,5057.159000047715,response,ISIC_0068897.JPG,4,ISIC_0061336.JPG,ISIC_0061336.JPG,false,0,keypress(z),500,712133.3000001907,712133.2000000477,707074.802,707075.4000000954,707076.041,712135.011,8,400,6,,ISIC_0068897.JPG
break,html.Screen,4_105_1,2023-09-12T21:19:29.883Z,,0,,,NaN,,,,,,false,,,,712133.7000000477,712133.7000000477,,712133.3000001907,,712135.011,8,400,,,
break_continue,html.Screen,4_105_2,2023-09-12T21:19:29.884Z,,0,,,NaN,,,,,,false,,,,712133.9000000954,712133.8000001907,,712133.8000001907,,712135.011,8,400,,,
sequence,flow.Sequence,4_105,2023-09-12T21:19:29.884Z,,0,,,5057.7590001907665,completion,,,,,false,,,,712133.9000000954,712133.8000001907,707074.802,707075.3000001907,707076.041,712135.011,8,400,,,
trial,html.Screen,4_106_0,2023-09-12T21:19:36.148Z,,0,3,,6262.988999999943,response,ISIC_0030336.JPG,5,ISIC_0014347.JPG,ISIC_0014347.JPG,false,0,keypress(z),500,718398.3000001907,718398,712132.246,712134,712135.011,718400.556,8,400,7,,ISIC_0030336.JPG
break,html.Screen,4_106_1,2023-09-12T21:19:36.149Z,,0,,,NaN,,,,,,false,,,,718399.3000001907,718399.100000143,,718398.4000000954,,718400.556,8,400,,,
break_continue,html.Screen,4_106_2,2023-09-12T21:19:36.149Z,,0,,,NaN,,,,,,false,,,,718399.7000000477,718399.600000143,,718399.4000000954,,718400.556,8,400,,,
sequence,flow.Sequence,4_106,2023-09-12T21:19:36.150Z,,0,,,6264.589000142994,completion,,,,,false,,,,718399.9000000954,718399.600000143,712132.246,712134,712135.011,718400.556,8,400,,,
trial,html.Screen,4_107_0,2023-09-12T21:19:42.392Z,,0,3,,6241.044000143069,response,ISIC_8976269.JPG,5,ISIC_2885086.JPG,ISIC_2885086.JPG,false,0,keypress(z),500,724641.8000001907,724641.600000143,718382.987,718399.9000000954,718400.556,724660.723,8,400,8,,ISIC_8976269.JPG
break,html.Screen,4_107_1,2023-09-12T21:19:42.392Z,,0,,,NaN,,,,,,false,,,,724642.8000001907,724642.5,,724642,,724660.723,8,400,,,
break_continue,html.Screen,4_107_2,2023-09-12T21:19:42.393Z,,0,,,NaN,,,,,,false,,,,724643.2000000477,724643.100000143,,724642.9000000954,,724660.723,8,400,,,
sequence,flow.Sequence,4_107,2023-09-12T21:19:42.393Z,,0,,,6242.544000143069,completion,,,,,false,,,,724643.4000000954,724643.100000143,718382.987,718399.9000000954,718400.556,724660.723,8,400,,,
trial,html.Screen,4_108_0,2023-09-12T21:19:45.807Z,,0,3,,3395.877000143053,response,ISIC_8622365.JPG,5,ISIC_0060033.JPG,ISIC_8622365.JPG,false,1,keypress(m),500,728056.8000001907,728056.600000143,724635.604,724643.5,724660.723,728059.105,8,400,9,,ISIC_0060033.JPG
break,html.Screen,4_108_1,2023-09-12T21:19:45.807Z,,0,,,NaN,,,,,,false,,,,728057.8000001907,728057.5,,728057,,728059.105,8,400,,,
break_continue,html.Screen,4_108_2,2023-09-12T21:19:45.808Z,,0,,,NaN,,,,,,false,,,,728058.2000000477,728058.100000143,,728057.9000000954,,728059.105,8,400,,,
sequence,flow.Sequence,4_108,2023-09-12T21:19:45.808Z,,0,,,3397.377000143053,completion,,,,,false,,,,728058.3000001907,728058.100000143,724635.604,724643.5,724660.723,728059.105,8,400,,,
trial,html.Screen,4_109_0,2023-09-12T21:19:50.403Z,,0,3,,4593.595000047702,response,ISIC_6942437.JPG,5,ISIC_0028114.JPG,ISIC_6942437.JPG,false,1,keypress(m),500,732652.9000000954,732652.7000000477,728046.238,728058.5,728059.105,732655.231,8,400,10,,ISIC_0028114.JPG
break,html.Screen,4_109_1,2023-09-12T21:19:50.404Z,,0,,,NaN,,,,,,false,,,,732653.9000000954,732653.600000143,,732653.100000143,,732655.231,8,400,,,
break_continue,html.Screen,4_109_2,2023-09-12T21:19:50.404Z,,0,,,NaN,,,,,,false,,,,732654.2000000477,732654.100000143,,732654,,732655.231,8,400,,,
sequence,flow.Sequence,4_109,2023-09-12T21:19:50.404Z,,0,,,4594.99500014307,completion,,,,,false,,,,732654.4000000954,732654.100000143,728046.238,728058.4000000954,728059.105,732655.231,8,400,,,
trial,html.Screen,4_110_0,2023-09-12T21:19:55.159Z,,0,3,,4753.569000190706,response,ISIC_5789263.JPG,4,ISIC_1945381.JPG,ISIC_5789263.JPG,false,1,keypress(m),500,737408.8000001907,737408.8000001907,732648.115,732654.5,732655.231,737410.645,8,400,11,,ISIC_1945381.JPG
break,html.Screen,4_110_1,2023-09-12T21:19:55.159Z,,0,,,NaN,,,,,,false,,,,737409.2000000477,737409.100000143,,737409,,737410.645,8,400,,,
break_continue,html.Screen,4_110_2,2023-09-12T21:19:55.159Z,,0,,,NaN,,,,,,false,,,,737409.4000000954,737409.3000001907,,737409.3000001907,,737410.645,8,400,,,
sequence,flow.Sequence,4_110,2023-09-12T21:19:55.159Z,,0,,,4754.069000190706,completion,,,,,false,,,,737409.5,737409.3000001907,732648.115,732654.5,732655.231,737410.645,8,400,,,
trial,html.Screen,4_111_0,2023-09-12T21:19:59.312Z,,0,3,,4151.354999999981,response,ISIC_0413563.JPG,5,ISIC_6961503.JPG,ISIC_6961503.JPG,false,0,keypress(z),500,741562.100000143,741562,737393.266,737409.600000143,737410.645,741580.717,8,400,12,,ISIC_0413563.JPG
break,html.Screen,4_111_1,2023-09-12T21:19:59.312Z,,0,,,NaN,,,,,,false,,,,741562.5,741562.5,,741562.3000001907,,741580.717,8,400,,,
break_continue,html.Screen,4_111_2,2023-09-12T21:19:59.312Z,,0,,,NaN,,,,,,false,,,,741562.7000000477,741562.600000143,,741562.5,,741580.717,8,400,,,
sequence,flow.Sequence,4_111,2023-09-12T21:19:59.312Z,,0,,,4151.9550001430325,completion,,,,,false,,,,741562.7000000477,741562.600000143,737393.266,737409.5,737410.645,741580.717,8,400,,,
trial,html.Screen,4_112_0,2023-09-12T21:20:03.139Z,,0,3,,3808.1830000954214,response,ISIC_4978039.JPG,5,ISIC_6099476.JPG,ISIC_4978039.JPG,false,1,keypress(m),500,745389.2000000477,745388.9000000954,741563.891,741562.8000001907,741580.717,745391.293,8,400,13,,ISIC_6099476.JPG
break,html.Screen,4_112_1,2023-09-12T21:20:03.140Z,,0,,,NaN,,,,,,false,,,,745390.100000143,745389.9000000954,,745389.4000000954,,745391.293,8,400,,,
break_continue,html.Screen,4_112_2,2023-09-12T21:20:03.140Z,,0,,,NaN,,,,,,false,,,,745390.5,745390.5,,745390.3000001907,,745391.293,8,400,,,
sequence,flow.Sequence,4_112,2023-09-12T21:20:03.140Z,,0,,,3809.783000000054,completion,,,,,false,,,,745390.7000000477,745390.5,741563.891,741562.8000001907,741580.717,745391.293,8,400,,,
trial,html.Screen,4_113_0,2023-09-12T21:20:07.174Z,,0,3,,4032.707000000053,response,ISIC_1046678.JPG,6,ISIC_0011094.JPG,ISIC_1046678.JPG,false,1,keypress(m),500,749424.2000000477,749424,745388.93,745390.8000001907,745391.293,749426.407,8,400,14,,ISIC_0011094.JPG
break,html.Screen,4_113_1,2023-09-12T21:20:07.175Z,,0,,,NaN,,,,,,false,,,,749425.2000000477,749425,,749424.4000000954,,749426.407,8,400,,,
break_continue,html.Screen,4_113_2,2023-09-12T21:20:07.175Z,,0,,,NaN,,,,,,false,,,,749425.600000143,749425.600000143,,749425.3000001907,,749426.407,8,400,,,
sequence,flow.Sequence,4_113,2023-09-12T21:20:07.175Z,,0,,,4034.3070001431042,completion,,,,,false,,,,749425.8000001907,749425.600000143,745388.93,745390.7000000477,745391.293,749426.407,8,400,,,
trial,html.Screen,4_114_0,2023-09-12T21:20:10.778Z,,0,3,,3601.793000047677,response,ISIC_9194220.JPG,6,ISIC_4780541.JPG,ISIC_9194220.JPG,false,1,keypress(m),500,753028.4000000954,753028.2000000477,749420.912,749425.9000000954,749426.407,753030.564,8,400,15,,ISIC_4780541.JPG
break,html.Screen,4_114_1,2023-09-12T21:20:10.779Z,,0,,,NaN,,,,,,false,,,,753029.3000001907,753029.100000143,,753028.600000143,,753030.564,8,400,,,
break_continue,html.Screen,4_114_2,2023-09-12T21:20:10.779Z,,0,,,NaN,,,,,,false,,,,753029.7000000477,753029.600000143,,753029.5,,753030.564,8,400,,,
sequence,flow.Sequence,4_114,2023-09-12T21:20:10.780Z,,0,,,3603.1930001430446,completion,,,,,false,,,,753029.9000000954,753029.600000143,749420.912,749425.9000000954,749426.407,753030.564,8,400,,,
trial,html.Screen,4_115_0,2023-09-12T21:20:14.734Z,,0,3,,3953.1360000476707,response,ISIC_4573624.JPG,5,ISIC_0638857.JPG,ISIC_4573624.JPG,false,1,keypress(m),500,756983.8000001907,756983.7000000477,753028.502,753029.9000000954,753030.564,756986.165,8,400,16,,ISIC_0638857.JPG
break,html.Screen,4_115_1,2023-09-12T21:20:14.735Z,,0,,,NaN,,,,,,false,,,,756984.8000001907,756984.600000143,,756984,,756986.165,8,400,,,
break_continue,html.Screen,4_115_2,2023-09-12T21:20:14.735Z,,0,,,NaN,,,,,,false,,,,756985.3000001907,756985.100000143,,756985,,756986.165,8,400,,,
sequence,flow.Sequence,4_115,2023-09-12T21:20:14.735Z,,0,,,3954.536000143038,completion,,,,,false,,,,756985.4000000954,756985.100000143,753028.502,753029.9000000954,753030.564,756986.165,8,400,,,
trial,html.Screen,4_116_0,2023-09-12T21:20:18.274Z,,0,3,,3537.5350000476465,response,ISIC_3058800.JPG,4,ISIC_0071797.JPG,ISIC_3058800.JPG,false,1,keypress(m),500,760523.9000000954,760523.7000000477,756983.188,756985.5,756986.165,760542.722,8,400,17,,ISIC_0071797.JPG
break,html.Screen,4_116_1,2023-09-12T21:20:18.275Z,,0,,,NaN,,,,,,false,,,,760525,760524.8000001907,,760524,,760542.722,8,400,,,
break_continue,html.Screen,4_116_2,2023-09-12T21:20:18.275Z,,0,,,NaN,,,,,,false,,,,760525.600000143,760525.4000000954,,760525.100000143,,760542.722,8,400,,,
sequence,flow.Sequence,4_116,2023-09-12T21:20:18.275Z,,0,,,3539.23500009533,completion,,,,,false,,,,760525.7000000477,760525.4000000954,756983.188,756985.5,756986.165,760542.722,8,400,,,
trial,html.Screen,4_117_0,2023-09-12T21:20:22.422Z,,0,3,,4128.778000000049,response,ISIC_4819371.JPG,5,ISIC_0032759.JPG,ISIC_4819371.JPG,false,1,keypress(m),500,764671.9000000954,764671.5,760518.359,760525.8000001907,760542.722,764674.362,8,400,18,,ISIC_0032759.JPG
break,html.Screen,4_117_1,2023-09-12T21:20:22.423Z,,0,,,NaN,,,,,,false,,,,764673.100000143,764672.8000001907,,764672.100000143,,764674.362,8,400,,,
break_continue,html.Screen,4_117_2,2023-09-12T21:20:22.424Z,,0,,,NaN,,,,,,false,,,,764674.2000000477,764674,,764673.8000001907,,764674.362,8,400,,,
sequence,flow.Sequence,4_117,2023-09-12T21:20:22.424Z,,0,,,4131.278000000049,completion,,,,,false,,,,764674.4000000954,764674,760518.359,760525.8000001907,760542.722,764674.362,8,400,,,
trial,html.Screen,4_118_0,2023-09-12T21:20:26.091Z,,0,3,,3666.838000047719,response,ISIC_2421696.JPG,5,ISIC_6373500.JPG,ISIC_2421696.JPG,false,1,keypress(m),500,768341.5,768341.2000000477,764670.281,764674.600000143,764674.362,768360.394,8,400,19,,ISIC_6373500.JPG
break,html.Screen,4_118_1,2023-09-12T21:20:26.092Z,,0,,,NaN,,,,,,false,,,,768342.4000000954,768342.2000000477,,768341.600000143,,768360.394,8,400,,,
break_continue,html.Screen,4_118_2,2023-09-12T21:20:26.092Z,,0,,,NaN,,,,,,false,,,,768342.8000001907,768342.7000000477,,768342.600000143,,768360.394,8,400,,,
sequence,flow.Sequence,4_118,2023-09-12T21:20:26.093Z,,0,,,3668.338000047719,completion,,,,,false,,,,768343,768342.7000000477,764670.281,764674.5,764674.362,768360.394,8,400,,,
trial,html.Screen,4_119_0,2023-09-12T21:20:29.634Z,,0,3,,3524.0060000953963,response,ISIC_0001572.JPG,5,ISIC_8064866.JPG,ISIC_0001572.JPG,false,1,keypress(m),500,771884.7000000477,771884.4000000954,768343.679,768343,768360.394,771903.643,8,400,20,,ISIC_8064866.JPG
break,html.Screen,4_119_1,2023-09-12T21:20:29.635Z,,0,,,NaN,,,,,,false,,,,771885.5,771885.4000000954,,771884.8000001907,,771903.643,8,400,,,
break_continue,html.Screen,4_119_2,2023-09-12T21:20:29.636Z,,0,,,NaN,,,,,,false,,,,771886,771885.8000001907,,771885.7000000477,,771903.643,8,400,,,
sequence,flow.Sequence,4_119,2023-09-12T21:20:29.636Z,,0,,,3525.4060001907637,completion,,,,,false,,,,771886.100000143,771885.8000001907,768343.679,768343,768360.394,771903.643,8,400,,,
trial,html.Screen,4_120_0,2023-09-12T21:20:35.356Z,,0,3,,5702.35699999996,response,ISIC_0027541.JPG,6,ISIC_7642591.JPG,ISIC_7642591.JPG,false,0,keypress(z),500,777606.3000001907,777606,771875.394,771886.2000000477,771903.643,777608.563,8,400,21,,ISIC_0027541.JPG
break,html.Screen,4_120_1,2023-09-12T21:20:35.357Z,,0,,,NaN,,,,,,false,,,,777607.3000001907,777607.100000143,,777606.5,,777608.563,8,400,,,
break_continue,html.Screen,4_120_2,2023-09-12T21:20:35.358Z,,0,,,NaN,,,,,,false,,,,777607.9000000954,777607.7000000477,,777607.5,,777608.563,8,400,,,
sequence,flow.Sequence,4_120,2023-09-12T21:20:35.358Z,,0,,,5704.057000047644,completion,,,,,false,,,,777608.2000000477,777607.7000000477,771875.394,771886.2000000477,771903.643,777608.563,8,400,,,
trial,html.Screen,4_121_0,2023-09-12T21:20:44.736Z,,0,3,,9377.73700019077,response,ISIC_8330906.JPG,5,ISIC_7298784.JPG,ISIC_7298784.JPG,false,0,keypress(z),500,786986.5,786986.3000001907,777606.572,777608.4000000954,777608.563,786988.78,8,400,22,,ISIC_8330906.JPG
break,html.Screen,4_121_1,2023-09-12T21:20:44.737Z,,0,,,NaN,,,,,,false,,,,786987.4000000954,786987.2000000477,,786986.7000000477,,786988.78,8,400,,,
break_continue,html.Screen,4_121_2,2023-09-12T21:20:44.738Z,,0,,,NaN,,,,,,false,,,,786987.8000001907,786987.8000001907,,786987.600000143,,786988.78,8,400,,,
sequence,flow.Sequence,4_121,2023-09-12T21:20:44.738Z,,0,,,9379.23700019077,completion,,,,,false,,,,786988,786987.8000001907,777606.572,777608.3000001907,777608.563,786988.78,8,400,,,
trial,html.Screen,4_122_0,2023-09-12T21:20:50.051Z,,0,3,,5312.219999999972,response,ISIC_3702669.JPG,6,ISIC_1027512.JPG,ISIC_3702669.JPG,false,1,keypress(m),500,792301.100000143,792301,786979.162,786988.100000143,786988.78,792302.964,8,400,23,,ISIC_1027512.JPG
break,html.Screen,4_122_1,2023-09-12T21:20:50.051Z,,0,,,NaN,,,,,,false,,,,792301.5,792301.4000000954,,792301.100000143,,792302.964,8,400,,,
break_continue,html.Screen,4_122_2,2023-09-12T21:20:50.051Z,,0,,,NaN,,,,,,false,,,,792301.600000143,792301.600000143,,792301.5,,792302.964,8,400,,,
sequence,flow.Sequence,4_122,2023-09-12T21:20:50.051Z,,0,,,5312.820000143023,completion,,,,,false,,,,792301.600000143,792301.600000143,786979.162,786988.100000143,786988.78,792302.964,8,400,,,
trial,html.Screen,4_123_0,2023-09-12T21:20:54.133Z,,0,3,,4079.936000095331,response,ISIC_4045781.JPG,5,ISIC_7787118.JPG,ISIC_4045781.JPG,false,1,keypress(m),500,796383.2000000477,796382.9000000954,792298.095,792301.600000143,792302.964,796402.216,8,400,24,,ISIC_7787118.JPG
break,html.Screen,4_123_1,2023-09-12T21:20:54.134Z,,0,,,NaN,,,,,,false,,,,796384.100000143,796383.9000000954,,796383.4000000954,,796402.216,8,400,,,
break_continue,html.Screen,4_123_2,2023-09-12T21:20:54.134Z,,0,,,NaN,,,,,,false,,,,796384.5,796384.4000000954,,796384.3000001907,,796402.216,8,400,,,
sequence,flow.Sequence,4_123,2023-09-12T21:20:54.134Z,,0,,,4081.436000095331,completion,,,,,false,,,,796384.7000000477,796384.4000000954,792298.095,792301.600000143,792302.964,796402.216,8,400,,,
trial,html.Screen,4_124_0,2023-09-12T21:20:58.008Z,,0,3,,3855.984000047669,response,ISIC_6272501.JPG,5,ISIC_0013967.JPG,ISIC_6272501.JPG,false,1,keypress(m),500,800258.4000000954,800258.2000000477,796375.675,796384.8000001907,796402.216,800260.748,8,400,25,,ISIC_0013967.JPG
break,html.Screen,4_124_1,2023-09-12T21:20:58.009Z,,0,,,NaN,,,,,,false,,,,800259.4000000954,800259.2000000477,,800258.7000000477,,800260.748,8,400,,,
break_continue,html.Screen,4_124_2,2023-09-12T21:20:58.010Z,,0,,,NaN,,,,,,false,,,,800259.8000001907,800259.7000000477,,800259.5,,800260.748,8,400,,,
sequence,flow.Sequence,4_124,2023-09-12T21:20:58.011Z,,0,,,3857.484000047669,completion,,,,,false,,,,800261.2000000477,800259.7000000477,796375.675,796384.8000001907,796402.216,800260.748,8,400,,,
trial,html.Screen,4_125_0,2023-09-12T21:21:02.333Z,,0,3,,4322.152000095346,response,ISIC_0033725.JPG,5,ISIC_0021052.JPG,ISIC_0021052.JPG,false,0,keypress(z),500,804583.2000000477,804582.9000000954,800254.884,800261.3000001907,800260.748,804602.086,8,400,26,,ISIC_0033725.JPG
break,html.Screen,4_125_1,2023-09-12T21:21:02.334Z,,0,,,NaN,,,,,,false,,,,804584.2000000477,804584,,804583.4000000954,,804602.086,8,400,,,
break_continue,html.Screen,4_125_2,2023-09-12T21:21:02.334Z,,0,,,NaN,,,,,,false,,,,804584.5,804584.4000000954,,804584.2000000477,,804602.086,8,400,,,
sequence,flow.Sequence,4_125,2023-09-12T21:21:02.334Z,,0,,,4323.652000095346,completion,,,,,false,,,,804584.7000000477,804584.4000000954,800254.884,800261.3000001907,800260.748,804602.086,8,400,,,
