sender,sender_type,sender_id,timestamp,meta,,blockNo,condition,duration,ended_on,img_left,img_reveal,img_right,loser,practice,response,response_action,selection_duration,time_commit,time_end,time_render,time_run,time_show,time_switch,total_blocks,total_trials,trialNo,url,winner
informed_consent,html.Screen,0,2023-09-16T04:02:38.707Z,"{""labjs_version"":""20.2.4"",""labjs_build"":{""flavor"":""production"",""commit"":""f5b4a49f956347addd546a832a3327688c2c0fef""},""location"":""https://run.pavlovia.org/MurrayBennett/melanoma-2afc/?participant=65948&platform=sona"",""userAgent"":""Mozilla/5.0 (Macintosh; Intel Mac OS X 10_15_7) AppleWebKit/537.36 (KHTML, like Gecko) Chrome/115.0.0.0 Safari/537.36"",""platform"":""MacIntel"",""language"":""en-US"",""locale"":""en-US"",""timeZone"":""America/Chicago"",""timezoneOffset"":300,""screen_width"":1440,""screen_height"":900,""scroll_width"":1440,""scroll_height"":735,""window_innerWidth"":1440,""window_innerHeight"":783,""devicePixelRatio"":2}",,,,3121.622,response,,,,,,consent,click button,,6634.299999982119,6633.5,3495.212,3491.0999999940395,3511.878,6645.086,,,,"{""participant"":""65948"",""platform"":""sona""}",
Welcome,html.Screen,1,2023-09-16T04:02:39.774Z,,,,symmetry,1055.1139999880788,response,,,,,,continue,click button,,7701.0999999940395,7700.199999988079,6628.42,6634.4000000059605,6645.086,7712.468,,,,,
trial,html.Screen,2_0_0,2023-09-16T04:02:46.804Z,,0,0,,7019.032,response,ISIC_6997061.JPG,,ISIC_0069348.JPG,ISIC_0069348.JPG,true,0,keypress(z),500,14732.199999988079,14731.5,7695.802,7701.199999988079,7712.468,14745.52,1,6,1,,ISIC_6997061.JPG
sequence,flow.Sequence,2_0,2023-09-16T04:02:46.805Z,,0,,,7019.032,completion,,,,,true,,,,14732.799999982119,14731.5,7695.802,7701.0999999940395,7712.468,14745.52,1,6,,,
trial,html.Screen,2_1_0,2023-09-16T04:02:52.051Z,,0,0,,5232.88000000596,response,ISIC_0057368.JPG,,ISIC_0009529.JPG,ISIC_0057368.JPG,true,1,keypress(m),500,19979,19978.40000000596,14728.854,14733,14745.52,19996.044,1,6,2,,ISIC_0009529.JPG
sequence,flow.Sequence,2_1,2023-09-16T04:02:52.051Z,,0,,,5232.88000000596,completion,,,,,true,,,,19979.40000000596,19978.40000000596,14728.854,14733,14745.52,19996.044,1,6,,,
trial,html.Screen,2_2_0,2023-09-16T04:02:56.212Z,,0,0,,4143.055999994038,response,ISIC_9758671.JPG,,ISIC_0064954.JPG,ISIC_9758671.JPG,true,1,keypress(m),500,24139.69999998808,24139.09999999404,19979.378,19979.59999999404,19996.044,24145.878,1,6,3,,ISIC_0064954.JPG
sequence,flow.Sequence,2_2,2023-09-16T04:02:56.212Z,,0,,,4143.055999994038,completion,,,,,true,,,,24140.09999999404,24139.09999999404,19979.378,19979.5,19996.044,24145.878,1,6,,,
trial,html.Screen,2_3_0,2023-09-16T04:03:00.284Z,,0,0,,4065.3219999880785,response,ISIC_0005785.JPG,,ISIC_0000080.JPG,ISIC_0005785.JPG,true,1,keypress(m),500,28211.79999998212,28211.19999998808,24129.212,24140.29999998212,24145.878,28229.048,1,6,4,,ISIC_0000080.JPG
sequence,flow.Sequence,2_3,2023-09-16T04:03:00.284Z,,0,,,4065.3219999880785,completion,,,,,true,,,,28212.29999998212,28211.19999998808,24129.212,24140.19999998808,24145.878,28229.048,1,6,,,
trial,html.Screen,2_4_0,2023-09-16T04:03:03.899Z,,0,0,,3597.7519999821197,response,ISIC_7944028.JPG,,ISIC_5390060.JPG,ISIC_5390060.JPG,true,0,keypress(z),500,31827.40000000596,31826.79999998212,28212.382,28212.5,28229.048,31829.774,1,6,5,,ISIC_7944028.JPG
sequence,flow.Sequence,2_4,2023-09-16T04:03:03.900Z,,0,,,3597.7519999821197,completion,,,,,true,,,,31827.90000000596,31826.79999998212,28212.382,28212.29999998212,28229.048,31829.774,1,6,,,
trial,html.Screen,2_5_0,2023-09-16T04:03:07.379Z,,0,0,,3477.3259999940383,response,ISIC_0010188.JPG,,ISIC_0794216.JPG,ISIC_0010188.JPG,true,1,keypress(m),500,35307.90000000596,35307.09999999404,31813.108,31828.09999999404,31829.774,35312.968,1,6,6,,ISIC_0794216.JPG
sequence,flow.Sequence,2_5,2023-09-16T04:03:07.380Z,,0,,,3477.3259999940383,completion,,,,,true,,,,35308.5,35307.09999999404,31813.108,31828,31829.774,35312.968,1,6,,,
loop,flow.Loop,2,2023-09-16T04:03:07.380Z,,,,,27594.63199999404,completion,,,,,true,,,,35308.79999998212,35307.09999999404,7695.802,7701.0999999940395,7712.468,35312.968,1,6,,,
exp_instructions,html.Screen,3,2023-09-16T04:03:09.068Z,,,,,1680.4320000059597,response,,,,,,continue,keypress(Space),,36996.40000000596,36993.40000000596,35296.302,35308.90000000596,35312.968,37012.9,,,,,
trial,html.Screen,4_0_0,2023-09-16T04:03:13.844Z,,0,1,,4759.000000005959,response,ISIC_4118762.JPG,9,ISIC_8205879.JPG,ISIC_4118762.JPG,false,1,keypress(m),500,41772.29999998212,41771.90000000596,36996.234,36996.69999998808,37012.9,41780.268,8,400,1,,ISIC_8205879.JPG
break,html.Screen,4_0_1,2023-09-16T04:03:13.845Z,,0,,,NaN,,,,,,false,,,,41774,41773.59999999404,,41772.59999999404,,41780.268,8,400,,,
break_continue,html.Screen,4_0_2,2023-09-16T04:03:13.846Z,,0,,,NaN,,,,,,false,,,,41774.59999999404,41774.40000000596,,41774.09999999404,,41780.268,8,400,,,
sequence,flow.Sequence,4_0,2023-09-16T04:03:13.846Z,,0,,,4761.500000005959,completion,,,,,false,,,,41774.79999998212,41774.40000000596,36996.234,36996.69999998808,37012.9,41780.268,8,400,,,
trial,html.Screen,4_1_0,2023-09-16T04:03:17.059Z,,0,1,,3206.9319999880827,response,ISIC_3893354.JPG,7,ISIC_9505595.JPG,ISIC_9505595.JPG,false,0,keypress(z),500,44987.69999998808,44987.19999998808,41763.602,41774.90000000596,41780.268,44996.806,8,400,2,,ISIC_3893354.JPG
break,html.Screen,4_1_1,2023-09-16T04:03:17.060Z,,0,,,NaN,,,,,,false,,,,44989,44988.79999998212,,44988,,44996.806,8,400,,,
break_continue,html.Screen,4_1_2,2023-09-16T04:03:17.061Z,,0,,,NaN,,,,,,false,,,,44989.5,44989.29999998212,,44989.09999999404,,44996.806,8,400,,,
sequence,flow.Sequence,4_1,2023-09-16T04:03:17.061Z,,0,,,3209.031999982122,completion,,,,,false,,,,44989.69999998808,44989.29999998212,41763.602,41774.90000000596,41780.268,44996.806,8,400,,,
trial,html.Screen,4_2_0,2023-09-16T04:03:21.346Z,,0,1,,4278.194000000003,response,ISIC_0034210.JPG,9,ISIC_5709247.JPG,ISIC_5709247.JPG,false,0,keypress(z),500,49275.40000000596,49275,44980.14,44989.90000000596,44996.806,49279.968,8,400,3,,ISIC_0034210.JPG
break,html.Screen,4_2_1,2023-09-16T04:03:21.348Z,,0,,,NaN,,,,,,false,,,,49276.59999999404,49276.40000000596,,49275.69999998808,,49279.968,8,400,,,
break_continue,html.Screen,4_2_2,2023-09-16T04:03:21.348Z,,0,,,NaN,,,,,,false,,,,49277.09999999404,49277,,49276.90000000596,,49279.968,8,400,,,
sequence,flow.Sequence,4_2,2023-09-16T04:03:21.348Z,,0,,,4280.194000000003,completion,,,,,false,,,,49277.40000000596,49277,44980.14,44989.79999998212,44996.806,49279.968,8,400,,,
trial,html.Screen,4_3_0,2023-09-16T04:03:24.563Z,,0,1,,3211.2319999880783,response,ISIC_3961647.JPG,9,ISIC_0030552.JPG,ISIC_0030552.JPG,false,0,keypress(z),500,52491.59999999404,52491.19999998808,49263.302,49277.5,49279.968,52497.217,8,400,4,,ISIC_3961647.JPG
break,html.Screen,4_3_1,2023-09-16T04:03:24.564Z,,0,,,NaN,,,,,,false,,,,52493,52492.59999999404,,52492,,52497.217,8,400,,,
break_continue,html.Screen,4_3_2,2023-09-16T04:03:24.564Z,,0,,,NaN,,,,,,false,,,,52493.40000000596,52493.29999998212,,52493.09999999404,,52497.217,8,400,,,
sequence,flow.Sequence,4_3,2023-09-16T04:03:24.565Z,,0,,,3213.331999982118,completion,,,,,false,,,,52493.59999999404,52493.29999998212,49263.302,49277.5,49279.968,52497.217,8,400,,,
trial,html.Screen,4_4_0,2023-09-16T04:03:28.299Z,,0,1,,3730.0829999821217,response,ISIC_0561634.JPG,8,ISIC_6247668.JPG,ISIC_0561634.JPG,false,1,keypress(m),500,56227.69999998808,56227.29999998212,52480.551,52493.79999998212,52497.217,56230.401,8,400,5,,ISIC_6247668.JPG
break,html.Screen,4_4_1,2023-09-16T04:03:28.300Z,,0,,,NaN,,,,,,false,,,,56229.09999999404,56228.79999998212,,56228.09999999404,,56230.401,8,400,,,
break_continue,html.Screen,4_4_2,2023-09-16T04:03:28.300Z,,0,,,NaN,,,,,,false,,,,56229.5,56229.5,,56229.29999998212,,56230.401,8,400,,,
sequence,flow.Sequence,4_4,2023-09-16T04:03:28.301Z,,0,,,3732.283000000003,completion,,,,,false,,,,56229.79999998212,56229.5,52480.551,52493.69999998808,52497.217,56230.401,8,400,,,
trial,html.Screen,4_5_0,2023-09-16T04:03:32.467Z,,0,1,,4165.298999988081,response,ISIC_0058823.JPG,7,ISIC_1166678.JPG,ISIC_0058823.JPG,false,1,keypress(m),500,60396.19999998808,60395.69999998808,56213.735,56229.90000000596,56230.401,60413.567,8,400,6,,ISIC_1166678.JPG
break,html.Screen,4_5_1,2023-09-16T04:03:32.468Z,,0,,,NaN,,,,,,false,,,,60397.69999998808,60397.40000000596,,60396.69999998808,,60413.567,8,400,,,
break_continue,html.Screen,4_5_2,2023-09-16T04:03:32.469Z,,0,,,NaN,,,,,,false,,,,60398.19999998808,60398,,60397.79999998212,,60413.567,8,400,,,
sequence,flow.Sequence,4_5,2023-09-16T04:03:32.469Z,,0,,,4167.599000000002,completion,,,,,false,,,,60398.29999998212,60398,56213.735,56229.90000000596,56230.401,60413.567,8,400,,,
trial,html.Screen,4_6_0,2023-09-16T04:03:35.314Z,,0,1,,2829.3330000059577,response,ISIC_0072559.JPG,7,ISIC_0032377.JPG,ISIC_0072559.JPG,false,1,keypress(m),500,63243.29999998212,63242.90000000596,60396.901,60398.5,60413.567,63247.577,8,400,7,,ISIC_0032377.JPG
break,html.Screen,4_6_1,2023-09-16T04:03:35.315Z,,0,,,NaN,,,,,,false,,,,63244.59999999404,63244.29999998212,,63243.59999999404,,63247.577,8,400,,,
break_continue,html.Screen,4_6_2,2023-09-16T04:03:35.316Z,,0,,,NaN,,,,,,false,,,,63245.09999999404,63245,,63244.79999998212,,63247.577,8,400,,,
sequence,flow.Sequence,4_6,2023-09-16T04:03:35.316Z,,0,,,2831.4329999999973,completion,,,,,false,,,,63245.40000000596,63245,60396.901,60398.40000000596,60413.567,63247.577,8,400,,,
trial,html.Screen,4_7_0,2023-09-16T04:03:39.089Z,,0,1,,3770.522999994042,response,ISIC_0024951.JPG,9,ISIC_0032547.JPG,ISIC_0024951.JPG,false,1,keypress(m),500,67018.59999999404,67018.09999999404,63230.911,63245.59999999404,63247.577,67030.759,8,400,8,,ISIC_0032547.JPG
break,html.Screen,4_7_1,2023-09-16T04:03:39.090Z,,0,,,NaN,,,,,,false,,,,67019.90000000596,67019.59999999404,,67018.90000000596,,67030.759,8,400,,,
break_continue,html.Screen,4_7_2,2023-09-16T04:03:39.091Z,,0,,,NaN,,,,,,false,,,,67020.40000000596,67020.19999998808,,67020.09999999404,,67030.759,8,400,,,
sequence,flow.Sequence,4_7,2023-09-16T04:03:39.091Z,,0,,,3772.6229999880816,completion,,,,,false,,,,67020.5,67020.19999998808,63230.911,63245.5,63247.577,67030.759,8,400,,,
trial,html.Screen,4_8_0,2023-09-16T04:03:42.210Z,,0,1,,3108.540999982113,response,ISIC_0033387.JPG,9,ISIC_0066223.JPG,ISIC_0033387.JPG,false,1,keypress(m),500,70139.69999998808,70139.29999998212,67014.093,67020.79999998212,67030.759,70147.301,8,400,9,,ISIC_0066223.JPG
break,html.Screen,4_8_1,2023-09-16T04:03:42.211Z,,0,,,NaN,,,,,,false,,,,70141,70140.69999998808,,70139.90000000596,,70147.301,8,400,,,
break_continue,html.Screen,4_8_2,2023-09-16T04:03:42.212Z,,0,,,NaN,,,,,,false,,,,70141.40000000596,70141.40000000596,,70141.09999999404,,70147.301,8,400,,,
sequence,flow.Sequence,4_8,2023-09-16T04:03:42.212Z,,0,,,3110.641000005955,completion,,,,,false,,,,70141.59999999404,70141.40000000596,67014.093,67020.69999998808,67030.759,70147.301,8,400,,,
trial,html.Screen,4_9_0,2023-09-16T04:03:45.385Z,,0,1,,3167.498999982112,response,ISIC_1017377.JPG,6,ISIC_0002899.JPG,ISIC_1017377.JPG,false,1,keypress(m),500,73315.19999998808,73314.79999998212,70130.635,70141.79999998212,70147.301,73331.291,8,400,10,,ISIC_0002899.JPG
break,html.Screen,4_9_1,2023-09-16T04:03:45.387Z,,0,,,NaN,,,,,,false,,,,73316.59999999404,73316.29999998212,,73315.5,,73331.291,8,400,,,
break_continue,html.Screen,4_9_2,2023-09-16T04:03:45.387Z,,0,,,NaN,,,,,,false,,,,73317.09999999404,73316.90000000596,,73316.79999998212,,73331.291,8,400,,,
sequence,flow.Sequence,4_9,2023-09-16T04:03:45.387Z,,0,,,3169.5990000059537,completion,,,,,false,,,,73317.29999998212,73316.90000000596,70130.635,70141.79999998212,70147.301,73331.291,8,400,,,
trial,html.Screen,4_10_0,2023-09-16T04:03:48.289Z,,0,1,,2887.508999982121,response,ISIC_0012722.JPG,8,ISIC_0029383.JPG,ISIC_0029383.JPG,false,0,keypress(z),500,76219.19999998808,76218.79999998212,73314.625,73317.40000000596,73331.291,76231.175,8,400,11,,ISIC_0012722.JPG
break,html.Screen,4_10_1,2023-09-16T04:03:48.291Z,,0,,,NaN,,,,,,false,,,,76220.69999998808,76220.40000000596,,76219.5,,76231.175,8,400,,,
break_continue,html.Screen,4_10_2,2023-09-16T04:03:48.291Z,,0,,,NaN,,,,,,false,,,,76221.09999999404,76221,,76220.79999998212,,76231.175,8,400,,,
sequence,flow.Sequence,4_10,2023-09-16T04:03:48.291Z,,0,,,2889.7090000000026,completion,,,,,false,,,,76221.19999998808,76221,73314.625,73317.29999998212,73331.291,76231.175,8,400,,,
trial,html.Screen,4_11_0,2023-09-16T04:03:51.658Z,,0,1,,3356.1249999821157,response,ISIC_9155855.JPG,9,ISIC_0031379.JPG,ISIC_0031379.JPG,false,0,keypress(z),500,79587.69999998808,79587.29999998212,76214.509,76221.40000000596,76231.175,79597.707,8,400,12,,ISIC_9155855.JPG
break,html.Screen,4_11_1,2023-09-16T04:03:51.659Z,,0,,,NaN,,,,,,false,,,,79588.90000000596,79588.69999998808,,79588.09999999404,,79597.707,8,400,,,
break_continue,html.Screen,4_11_2,2023-09-16T04:03:51.659Z,,0,,,NaN,,,,,,false,,,,79589.5,79589.29999998212,,79589.09999999404,,79597.707,8,400,,,
sequence,flow.Sequence,4_11,2023-09-16T04:03:51.660Z,,0,,,3358.1249999821157,completion,,,,,false,,,,79589.59999999404,79589.29999998212,76214.509,76221.40000000596,76231.175,79597.707,8,400,,,
trial,html.Screen,4_12_0,2023-09-16T04:03:54.593Z,,0,1,,2925.1930000059656,response,ISIC_5273029.JPG,9,ISIC_0172020.JPG,ISIC_5273029.JPG,false,1,keypress(m),500,82523.40000000596,82522.90000000596,79581.041,79589.69999998808,79597.707,82530.923,8,400,13,,ISIC_0172020.JPG
break,html.Screen,4_12_1,2023-09-16T04:03:54.595Z,,0,,,NaN,,,,,,false,,,,82524.79999998212,82524.59999999404,,82523.69999998808,,82530.923,8,400,,,
break_continue,html.Screen,4_12_2,2023-09-16T04:03:54.595Z,,0,,,NaN,,,,,,false,,,,82525.29999998212,82525.09999999404,,82525,,82530.923,8,400,,,
sequence,flow.Sequence,4_12,2023-09-16T04:03:54.595Z,,0,,,2927.3929999940447,completion,,,,,false,,,,82525.5,82525.09999999404,79581.041,79589.69999998808,79597.707,82530.923,8,400,,,
trial,html.Screen,4_13_0,2023-09-16T04:03:58.329Z,,0,1,,3727.9770000059652,response,ISIC_4691943.JPG,8,ISIC_1996356.JPG,ISIC_4691943.JPG,false,1,keypress(m),500,86259.29999998212,86258.90000000596,82514.257,82525.59999999404,82530.923,86281.561,8,400,14,,ISIC_1996356.JPG
break,html.Screen,4_13_1,2023-09-16T04:03:58.330Z,,0,,,NaN,,,,,,false,,,,86260.69999998808,86260.40000000596,,86259.59999999404,,86281.561,8,400,,,
break_continue,html.Screen,4_13_2,2023-09-16T04:03:58.331Z,,0,,,NaN,,,,,,false,,,,86261.09999999404,86261,,86260.90000000596,,86281.561,8,400,,,
sequence,flow.Sequence,4_13,2023-09-16T04:03:58.331Z,,0,,,3730.077000000005,completion,,,,,false,,,,86261.29999998212,86261,82514.257,82525.59999999404,82530.923,86281.561,8,400,,,
trial,html.Screen,4_14_0,2023-09-16T04:04:01.329Z,,0,1,,2977.238999982117,response,ISIC_0062087.JPG,8,ISIC_2424673.JPG,ISIC_0062087.JPG,false,1,keypress(m),500,89259.19999998808,89258.79999998212,86264.895,86261.5,86281.561,89264.775,8,400,15,,ISIC_2424673.JPG
break,html.Screen,4_14_1,2023-09-16T04:04:01.330Z,,0,,,NaN,,,,,,false,,,,89260.69999998808,89260.40000000596,,89259.59999999404,,89264.775,8,400,,,
break_continue,html.Screen,4_14_2,2023-09-16T04:04:01.331Z,,0,,,NaN,,,,,,false,,,,89261.09999999404,89261,,89260.79999998212,,89264.775,8,400,,,
sequence,flow.Sequence,4_14,2023-09-16T04:04:01.331Z,,0,,,2979.4389999999985,completion,,,,,false,,,,89261.19999998808,89261,86264.895,86261.40000000596,86281.561,89264.775,8,400,,,
trial,html.Screen,4_15_0,2023-09-16T04:04:04.288Z,,0,1,,2953.225000000006,response,ISIC_7198887.JPG,8,ISIC_5297660.JPG,ISIC_5297660.JPG,false,0,keypress(z),500,92218.5,92218,89248.109,89261.40000000596,89264.775,92231.323,8,400,16,,ISIC_7198887.JPG
break,html.Screen,4_15_1,2023-09-16T04:04:04.289Z,,0,,,NaN,,,,,,false,,,,92219.79999998212,92219.59999999404,,92218.79999998212,,92231.323,8,400,,,
break_continue,html.Screen,4_15_2,2023-09-16T04:04:04.290Z,,0,,,NaN,,,,,,false,,,,92220.29999998212,92220.09999999404,,92220,,92231.323,8,400,,,
sequence,flow.Sequence,4_15,2023-09-16T04:04:04.290Z,,0,,,2955.3249999940454,completion,,,,,false,,,,92220.40000000596,92220.09999999404,89248.109,89261.40000000596,89264.775,92231.323,8,400,,,
trial,html.Screen,4_16_0,2023-09-16T04:04:09.209Z,,0,1,,4907.876999988075,response,ISIC_0070581.JPG,9,ISIC_0030873.JPG,ISIC_0070581.JPG,false,1,keypress(m),500,97139.69999998808,97139.19999998808,92214.657,92220.59999999404,92231.323,97148.588,8,400,17,,ISIC_0030873.JPG
break,html.Screen,4_16_1,2023-09-16T04:04:09.210Z,,0,,,NaN,,,,,,false,,,,97141,97140.69999998808,,97140,,97148.588,8,400,,,
break_continue,html.Screen,4_16_2,2023-09-16T04:04:09.211Z,,0,,,NaN,,,,,,false,,,,97141.5,97141.29999998212,,97141.09999999404,,97148.588,8,400,,,
sequence,flow.Sequence,4_16,2023-09-16T04:04:09.211Z,,0,,,4909.976999982115,completion,,,,,false,,,,97141.59999999404,97141.29999998212,92214.657,92220.5,92231.323,97148.588,8,400,,,
trial,html.Screen,4_17_0,2023-09-16T04:04:12.776Z,,0,1,,3557.4119999999966,response,ISIC_8848134.JPG,9,ISIC_3278303.JPG,ISIC_3278303.JPG,false,0,keypress(z),500,100706.29999998212,100706,97131.922,97141.69999998808,97148.588,100715.112,8,400,18,,ISIC_8848134.JPG
break,html.Screen,4_17_1,2023-09-16T04:04:12.777Z,,0,,,NaN,,,,,,false,,,,100707.29999998212,100707.19999998808,,100706.59999999404,,100715.112,8,400,,,
break_continue,html.Screen,4_17_2,2023-09-16T04:04:12.777Z,,0,,,NaN,,,,,,false,,,,100707.59999999404,100707.5,,100707.40000000596,,100715.112,8,400,,,
sequence,flow.Sequence,4_17,2023-09-16T04:04:12.777Z,,0,,,3558.9119999999966,completion,,,,,false,,,,100707.69999998808,100707.5,97131.922,97141.59999999404,97148.588,100715.112,8,400,,,
trial,html.Screen,4_18_0,2023-09-16T04:04:15.977Z,,0,1,,3191.987999994046,response,ISIC_6066292.JPG,10,ISIC_8690205.JPG,ISIC_8690205.JPG,false,0,keypress(z),500,103907.5,103907.09999999404,100698.446,100707.79999998212,100715.112,103915.74,8,400,19,,ISIC_6066292.JPG
break,html.Screen,4_18_1,2023-09-16T04:04:15.978Z,,0,,,NaN,,,,,,false,,,,103908.79999998212,103908.59999999404,,103907.90000000596,,103915.74,8,400,,,
break_continue,html.Screen,4_18_2,2023-09-16T04:04:15.978Z,,0,,,NaN,,,,,,false,,,,103909.29999998212,103909.09999999404,,103909,,103915.74,8,400,,,
sequence,flow.Sequence,4_18,2023-09-16T04:04:15.979Z,,0,,,3193.987999994046,completion,,,,,false,,,,103909.5,103909.09999999404,100698.446,100707.79999998212,100715.112,103915.74,8,400,,,
trial,html.Screen,4_19_0,2023-09-16T04:04:20.377Z,,0,1,,4391.660000005955,response,ISIC_0054528.JPG,8,ISIC_8523143.JPG,ISIC_0054528.JPG,false,1,keypress(m),500,108307.90000000596,108307.40000000596,103899.074,103909.69999998808,103915.74,108315.564,8,400,20,,ISIC_8523143.JPG
break,html.Screen,4_19_1,2023-09-16T04:04:20.378Z,,0,,,NaN,,,,,,false,,,,108309.09999999404,108308.79999998212,,108308.19999998808,,108315.564,8,400,,,
break_continue,html.Screen,4_19_2,2023-09-16T04:04:20.379Z,,0,,,NaN,,,,,,false,,,,108309.5,108309.40000000596,,108309.29999998212,,108315.564,8,400,,,
sequence,flow.Sequence,4_19,2023-09-16T04:04:20.379Z,,0,,,4393.660000005955,completion,,,,,false,,,,108309.79999998212,108309.40000000596,103899.074,103909.59999999404,103915.74,108315.564,8,400,,,
trial,html.Screen,4_20_0,2023-09-16T04:04:24.449Z,,0,1,,4064.1359999880806,response,ISIC_0069274.JPG,9,ISIC_6581765.JPG,ISIC_0069274.JPG,false,1,keypress(m),500,112380.09999999404,112379.69999998808,108298.898,108309.90000000596,108315.564,112382.068,8,400,21,,ISIC_6581765.JPG
break,html.Screen,4_20_1,2023-09-16T04:04:24.450Z,,0,,,NaN,,,,,,false,,,,112381.5,112381.09999999404,,112380.40000000596,,112382.068,8,400,,,
break_continue,html.Screen,4_20_2,2023-09-16T04:04:24.451Z,,0,,,NaN,,,,,,false,,,,112381.90000000596,112381.69999998808,,112381.5,,112382.068,8,400,,,
sequence,flow.Sequence,4_20,2023-09-16T04:04:24.451Z,,0,,,4066.1359999880806,completion,,,,,false,,,,112382,112381.69999998808,108298.898,108309.90000000596,108315.564,112382.068,8,400,,,
trial,html.Screen,4_21_0,2023-09-16T04:04:27.920Z,,0,1,,3469.0319999940402,response,ISIC_0031202.JPG,8,ISIC_0011510.JPG,ISIC_0011510.JPG,false,0,keypress(z),500,115851.59999999404,115851.09999999404,112365.402,112382.19999998808,112382.068,115866.006,8,400,22,,ISIC_0031202.JPG
break,html.Screen,4_21_1,2023-09-16T04:04:27.922Z,,0,,,NaN,,,,,,false,,,,115852.90000000596,115852.59999999404,,115851.90000000596,,115866.006,8,400,,,
break_continue,html.Screen,4_21_2,2023-09-16T04:04:27.922Z,,0,,,NaN,,,,,,false,,,,115853.40000000596,115853.29999998212,,115853.09999999404,,115866.006,8,400,,,
sequence,flow.Sequence,4_21,2023-09-16T04:04:27.922Z,,0,,,3471.2319999821193,completion,,,,,false,,,,115853.59999999404,115853.29999998212,112365.402,112382.19999998808,112382.068,115866.006,8,400,,,
trial,html.Screen,4_22_0,2023-09-16T04:04:31.513Z,,0,1,,3577.494000000006,response,ISIC_1819358.JPG,9,ISIC_6681802.JPG,ISIC_6681802.JPG,false,0,keypress(z),500,119443.90000000596,119443.5,115849.34,115853.79999998212,115866.006,119449.196,8,400,23,,ISIC_1819358.JPG
break,html.Screen,4_22_1,2023-09-16T04:04:31.514Z,,0,,,NaN,,,,,,false,,,,119445.19999998808,119445,,119444.19999998808,,119449.196,8,400,,,
break_continue,html.Screen,4_22_2,2023-09-16T04:04:31.514Z,,0,,,NaN,,,,,,false,,,,119445.69999998808,119445.59999999404,,119445.40000000596,,119449.196,8,400,,,
sequence,flow.Sequence,4_22,2023-09-16T04:04:31.514Z,,0,,,3579.5939999940456,completion,,,,,false,,,,119445.90000000596,119445.59999999404,115849.34,115853.79999998212,115866.006,119449.196,8,400,,,
trial,html.Screen,4_23_0,2023-09-16T04:04:35.552Z,,0,1,,4034.3040000000037,response,ISIC_5850699.JPG,8,ISIC_6489993.JPG,ISIC_6489993.JPG,false,0,keypress(z),500,123483.90000000596,123483.5,119432.53,119446.09999999404,119449.196,123499.034,8,400,24,,ISIC_5850699.JPG
break,html.Screen,4_23_1,2023-09-16T04:04:35.554Z,,0,,,NaN,,,,,,false,,,,123485.29999998212,123485.09999999404,,123484.29999998212,,123499.034,8,400,,,
break_continue,html.Screen,4_23_2,2023-09-16T04:04:35.554Z,,0,,,NaN,,,,,,false,,,,123485.69999998808,123485.59999999404,,123485.5,,123499.034,8,400,,,
sequence,flow.Sequence,4_23,2023-09-16T04:04:35.554Z,,0,,,4036.4039999940433,completion,,,,,false,,,,123486,123485.59999999404,119432.53,119445.90000000596,119449.196,123499.034,8,400,,,
trial,html.Screen,4_24_0,2023-09-16T04:04:38.752Z,,0,1,,3183.866000005961,response,ISIC_0029112.JPG,9,ISIC_0006327.JPG,ISIC_0029112.JPG,false,1,keypress(m),500,126683.29999998212,126682.90000000596,123482.368,123486.09999999404,123499.034,126699.734,8,400,25,,ISIC_0006327.JPG
break,html.Screen,4_24_1,2023-09-16T04:04:38.753Z,,0,,,NaN,,,,,,false,,,,126684.69999998808,126684.5,,126683.59999999404,,126699.734,8,400,,,
break_continue,html.Screen,4_24_2,2023-09-16T04:04:38.753Z,,0,,,NaN,,,,,,false,,,,126685.19999998808,126685,,126684.79999998212,,126699.734,8,400,,,
sequence,flow.Sequence,4_24,2023-09-16T04:04:38.754Z,,0,,,3185.9660000000003,completion,,,,,false,,,,126685.40000000596,126685,123482.368,123486.09999999404,123499.034,126699.734,8,400,,,
trial,html.Screen,4_25_0,2023-09-16T04:04:46.176Z,,0,1,,7407.166000005964,response,ISIC_0029705.JPG,8,ISIC_6404049.JPG,ISIC_6404049.JPG,false,0,keypress(z),500,134107.40000000596,134106.90000000596,126683.068,126685.5,126699.734,134116.104,8,400,26,,ISIC_0029705.JPG
break,html.Screen,4_25_1,2023-09-16T04:04:46.177Z,,0,,,NaN,,,,,,false,,,,134108.79999998212,134108.5,,134107.79999998212,,134116.104,8,400,,,
break_continue,html.Screen,4_25_2,2023-09-16T04:04:46.177Z,,0,,,NaN,,,,,,false,,,,134109.29999998212,134109.19999998808,,134109,,134116.104,8,400,,,
sequence,flow.Sequence,4_25,2023-09-16T04:04:46.178Z,,0,,,7409.465999988082,completion,,,,,false,,,,134109.40000000596,134109.19999998808,126683.068,126685.5,126699.734,134116.104,8,400,,,
trial,html.Screen,4_26_0,2023-09-16T04:04:50.159Z,,0,1,,3974.896000000008,response,ISIC_7271745.JPG,8,ISIC_0033154.JPG,ISIC_7271745.JPG,false,1,keypress(m),500,138091.40000000596,138091,134099.438,134109.59999999404,134116.104,138100.066,8,400,27,,ISIC_0033154.JPG
break,html.Screen,4_26_1,2023-09-16T04:04:50.161Z,,0,,,NaN,,,,,,false,,,,138092.79999998212,138092.59999999404,,138091.90000000596,,138100.066,8,400,,,
break_continue,html.Screen,4_26_2,2023-09-16T04:04:50.161Z,,0,,,NaN,,,,,,false,,,,138093.19999998808,138093.19999998808,,138093,,138100.066,8,400,,,
sequence,flow.Sequence,4_26,2023-09-16T04:04:50.161Z,,0,,,3977.095999988087,completion,,,,,false,,,,138093.5,138093.19999998808,134099.438,134109.59999999404,134116.104,138100.066,8,400,,,
trial,html.Screen,4_27_0,2023-09-16T04:04:53.279Z,,0,1,,3110.9340000000084,response,ISIC_0014144.JPG,9,ISIC_2034687.JPG,ISIC_2034687.JPG,false,0,keypress(z),500,141211.5,141211,138083.4,138093.59999999404,138100.066,141216.608,8,400,28,,ISIC_0014144.JPG
break,html.Screen,4_27_1,2023-09-16T04:04:53.281Z,,0,,,NaN,,,,,,false,,,,141212.79999998212,141212.5,,141211.79999998212,,141216.608,8,400,,,
break_continue,html.Screen,4_27_2,2023-09-16T04:04:53.281Z,,0,,,NaN,,,,,,false,,,,141213.29999998212,141213.09999999404,,141212.90000000596,,141216.608,8,400,,,
sequence,flow.Sequence,4_27,2023-09-16T04:04:53.281Z,,0,,,3113.033999994048,completion,,,,,false,,,,141213.40000000596,141213.09999999404,138083.4,138093.59999999404,138100.066,141216.608,8,400,,,
trial,html.Screen,4_28_0,2023-09-16T04:04:58.959Z,,0,1,,5674.391999999993,response,ISIC_3784812.JPG,9,ISIC_1023339.JPG,ISIC_1023339.JPG,false,0,keypress(z),500,146891.40000000596,146891,141199.942,141213.59999999404,141216.608,146900.549,8,400,29,,ISIC_3784812.JPG
break,html.Screen,4_28_1,2023-09-16T04:04:58.960Z,,0,,,NaN,,,,,,false,,,,146892.69999998808,146892.5,,146891.69999998808,,146900.549,8,400,,,
break_continue,html.Screen,4_28_2,2023-09-16T04:04:58.961Z,,0,,,NaN,,,,,,false,,,,146893.29999998212,146893.19999998808,,146893,,146900.549,8,400,,,
sequence,flow.Sequence,4_28,2023-09-16T04:04:58.961Z,,0,,,5676.591999988072,completion,,,,,false,,,,146893.5,146893.19999998808,141199.942,141213.5,141216.608,146900.549,8,400,,,
trial,html.Screen,4_29_0,2023-09-16T04:05:02.567Z,,0,1,,3598.8510000059614,response,ISIC_3751090.JPG,8,ISIC_5248948.JPG,ISIC_3751090.JPG,false,1,keypress(m),500,150499.79999998212,150499.40000000596,146883.883,146893.69999998808,146900.549,150517.071,8,400,30,,ISIC_5248948.JPG
break,html.Screen,4_29_1,2023-09-16T04:05:02.569Z,,0,,,NaN,,,,,,false,,,,150501.19999998808,150500.90000000596,,150500.19999998808,,150517.071,8,400,,,
break_continue,html.Screen,4_29_2,2023-09-16T04:05:02.569Z,,0,,,NaN,,,,,,false,,,,150501.59999999404,150501.5,,150501.29999998212,,150517.071,8,400,,,
sequence,flow.Sequence,4_29,2023-09-16T04:05:02.569Z,,0,,,3600.951000000001,completion,,,,,false,,,,150501.79999998212,150501.5,146883.883,146893.59999999404,146900.549,150517.071,8,400,,,
trial,html.Screen,4_30_0,2023-09-16T04:05:05.998Z,,0,1,,3413.628999988083,response,ISIC_4325452.JPG,8,ISIC_3952694.JPG,ISIC_4325452.JPG,false,1,keypress(m),500,153931.09999999404,153930.69999998808,150500.405,150502,150517.071,153933.601,8,400,31,,ISIC_3952694.JPG
break,html.Screen,4_30_1,2023-09-16T04:05:06.000Z,,0,,,NaN,,,,,,false,,,,153932.5,153932.09999999404,,153931.40000000596,,153933.601,8,400,,,
break_continue,html.Screen,4_30_2,2023-09-16T04:05:06.000Z,,0,,,NaN,,,,,,false,,,,153932.79999998212,153932.69999998808,,153932.5,,153933.601,8,400,,,
sequence,flow.Sequence,4_30,2023-09-16T04:05:06.000Z,,0,,,3415.628999988083,completion,,,,,false,,,,153933.09999999404,153932.69999998808,150500.405,150501.90000000596,150517.071,153933.601,8,400,,,
trial,html.Screen,4_31_0,2023-09-16T04:05:09.303Z,,0,1,,3301.598999988084,response,ISIC_0031621.JPG,9,ISIC_0054377.JPG,ISIC_0054377.JPG,false,0,keypress(z),500,157235.69999998808,157235.19999998808,153916.935,153933.19999998808,153933.601,157250.814,8,400,32,,ISIC_0031621.JPG
break,html.Screen,4_31_1,2023-09-16T04:05:09.304Z,,0,,,NaN,,,,,,false,,,,157237,157236.69999998808,,157236,,157250.814,8,400,,,
break_continue,html.Screen,4_31_2,2023-09-16T04:05:09.305Z,,0,,,NaN,,,,,,false,,,,157237.5,157237.40000000596,,157237.19999998808,,157250.814,8,400,,,
sequence,flow.Sequence,4_31,2023-09-16T04:05:09.305Z,,0,,,3303.7990000059654,completion,,,,,false,,,,157237.69999998808,157237.40000000596,153916.935,153933.19999998808,153933.601,157250.814,8,400,,,
trial,html.Screen,4_32_0,2023-09-16T04:05:12.007Z,,0,1,,2688.185999999987,response,ISIC_5316803.JPG,7,ISIC_0024455.JPG,ISIC_0024455.JPG,false,0,keypress(z),500,159939.40000000596,159939,157234.148,157237.79999998212,157250.814,159950.706,8,400,33,,ISIC_5316803.JPG
break,html.Screen,4_32_1,2023-09-16T04:05:12.008Z,,0,,,NaN,,,,,,false,,,,159940.69999998808,159940.5,,159939.79999998212,,159950.706,8,400,,,
break_continue,html.Screen,4_32_2,2023-09-16T04:05:12.008Z,,0,,,NaN,,,,,,false,,,,159941.19999998808,159941.09999999404,,159940.79999998212,,159950.706,8,400,,,
sequence,flow.Sequence,4_32,2023-09-16T04:05:12.009Z,,0,,,2690.2859999940265,completion,,,,,false,,,,159941.40000000596,159941.09999999404,157234.148,157237.79999998212,157250.814,159950.706,8,400,,,
trial,html.Screen,4_33_0,2023-09-16T04:05:17.078Z,,0,1,,5059.793999999994,response,ISIC_5391758.JPG,8,ISIC_0392105.JPG,ISIC_0392105.JPG,false,0,keypress(z),500,165011,165010.5,159934.04,159941.5,159950.706,165017.17,8,400,34,,ISIC_5391758.JPG
break,html.Screen,4_33_1,2023-09-16T04:05:17.079Z,,0,,,NaN,,,,,,false,,,,165012.29999998212,165012,,165011.19999998808,,165017.17,8,400,,,
break_continue,html.Screen,4_33_2,2023-09-16T04:05:17.080Z,,0,,,NaN,,,,,,false,,,,165012.79999998212,165012.59999999404,,165012.40000000596,,165017.17,8,400,,,
sequence,flow.Sequence,4_33,2023-09-16T04:05:17.080Z,,0,,,5061.893999994034,completion,,,,,false,,,,165013,165012.59999999404,159934.04,159941.5,159950.706,165017.17,8,400,,,
trial,html.Screen,4_34_0,2023-09-16T04:05:19.983Z,,0,1,,2898.0299999880663,response,ISIC_1018265.JPG,9,ISIC_0028967.JPG,ISIC_1018265.JPG,false,1,keypress(m),500,167915.69999998808,167915.19999998808,165000.504,165013.19999998808,165017.17,167917.877,8,400,35,,ISIC_0028967.JPG
break,html.Screen,4_34_1,2023-09-16T04:05:19.984Z,,0,,,NaN,,,,,,false,,,,167917,167916.79999998212,,167916.09999999404,,167917.877,8,400,,,
break_continue,html.Screen,4_34_2,2023-09-16T04:05:19.984Z,,0,,,NaN,,,,,,false,,,,167917.5,167917.29999998212,,167917.09999999404,,167917.877,8,400,,,
sequence,flow.Sequence,4_34,2023-09-16T04:05:19.985Z,,0,,,2900.129999982106,completion,,,,,false,,,,167917.59999999404,167917.29999998212,165000.504,165013,165017.17,167917.877,8,400,,,
trial,html.Screen,4_35_0,2023-09-16T04:05:24.446Z,,0,1,,4461.023000005953,response,ISIC_0067808.JPG,8,ISIC_3430311.JPG,ISIC_3430311.JPG,false,0,keypress(z),500,172379.40000000596,172378.90000000596,167901.211,167917.79999998212,167917.877,172384.365,8,400,36,,ISIC_0067808.JPG
break,html.Screen,4_35_1,2023-09-16T04:05:24.447Z,,0,,,NaN,,,,,,false,,,,172380.69999998808,172380.40000000596,,172379.69999998808,,172384.365,8,400,,,
break_continue,html.Screen,4_35_2,2023-09-16T04:05:24.448Z,,0,,,NaN,,,,,,false,,,,172381.09999999404,172381,,172380.79999998212,,172384.365,8,400,,,
sequence,flow.Sequence,4_35,2023-09-16T04:05:24.448Z,,0,,,4463.122999999992,completion,,,,,false,,,,172381.29999998212,172381,167901.211,167917.69999998808,167917.877,172384.365,8,400,,,
trial,html.Screen,4_36_0,2023-09-16T04:05:27.510Z,,0,1,,3058.434999982128,response,ISIC_0024380.JPG,8,ISIC_0031745.JPG,ISIC_0024380.JPG,false,1,keypress(m),500,175443.29999998212,175442.79999998212,172367.699,172381.5,172384.365,175450.909,8,400,37,,ISIC_0031745.JPG
break,html.Screen,4_36_1,2023-09-16T04:05:27.511Z,,0,,,NaN,,,,,,false,,,,175444.59999999404,175444.29999998212,,175443.59999999404,,175450.909,8,400,,,
break_continue,html.Screen,4_36_2,2023-09-16T04:05:27.512Z,,0,,,NaN,,,,,,false,,,,175445.09999999404,175444.90000000596,,175444.69999998808,,175450.909,8,400,,,
sequence,flow.Sequence,4_36,2023-09-16T04:05:27.512Z,,0,,,3060.53500000597,completion,,,,,false,,,,175445.19999998808,175444.90000000596,172367.699,172381.5,172384.365,175450.909,8,400,,,
trial,html.Screen,4_37_0,2023-09-16T04:05:30.534Z,,0,1,,3016.1909999940253,response,ISIC_9987485.JPG,9,ISIC_3496800.JPG,ISIC_9987485.JPG,false,1,keypress(m),500,178467.5,178467.09999999404,175434.243,175445.40000000596,175450.909,178484.897,8,400,38,,ISIC_3496800.JPG
break,html.Screen,4_37_1,2023-09-16T04:05:30.535Z,,0,,,NaN,,,,,,false,,,,178468.79999998212,178468.59999999404,,178467.90000000596,,178484.897,8,400,,,
break_continue,html.Screen,4_37_2,2023-09-16T04:05:30.536Z,,0,,,NaN,,,,,,false,,,,178469.19999998808,178469.09999999404,,178468.90000000596,,178484.897,8,400,,,
sequence,flow.Sequence,4_37,2023-09-16T04:05:30.536Z,,0,,,3018.1909999940253,completion,,,,,false,,,,178469.40000000596,178469.09999999404,175434.243,175445.40000000596,175450.909,178484.897,8,400,,,
trial,html.Screen,4_38_0,2023-09-16T04:05:33.958Z,,0,1,,3406.2029999940423,response,ISIC_0061381.JPG,8,ISIC_0011956.JPG,ISIC_0011956.JPG,false,0,keypress(z),500,181891.69999998808,181891.09999999404,178468.231,178469.5,178484.897,181901.427,8,400,39,,ISIC_0061381.JPG
break,html.Screen,4_38_1,2023-09-16T04:05:33.959Z,,0,,,NaN,,,,,,false,,,,181893,181892.69999998808,,181892,,181901.427,8,400,,,
break_continue,html.Screen,4_38_2,2023-09-16T04:05:33.960Z,,0,,,NaN,,,,,,false,,,,181893.5,181893.29999998212,,181893.19999998808,,181901.427,8,400,,,
sequence,flow.Sequence,4_38,2023-09-16T04:05:33.960Z,,0,,,3408.4029999821214,completion,,,,,false,,,,181893.59999999404,181893.29999998212,178468.231,178469.5,178484.897,181901.427,8,400,,,
trial,html.Screen,4_39_0,2023-09-16T04:05:36.749Z,,0,1,,2781.3729999821226,response,ISIC_6285076.JPG,9,ISIC_8687105.JPG,ISIC_6285076.JPG,false,1,keypress(m),500,184683.19999998808,184682.79999998212,181884.761,181893.79999998212,181901.427,184684.649,8,400,40,,ISIC_8687105.JPG
break,html.Screen,4_39_1,2023-09-16T04:05:36.751Z,,0,,,NaN,,,,,,false,,,,184684.40000000596,184684.19999998808,,184683.5,,184684.649,8,400,,,
break_continue,html.Screen,4_39_2,2023-09-16T04:05:36.751Z,,0,,,NaN,,,,,,false,,,,184684.79999998212,184684.69999998808,,184684.5,,184684.649,8,400,,,
sequence,flow.Sequence,4_39,2023-09-16T04:05:36.751Z,,0,,,2783.272999988083,completion,,,,,false,,,,184685.09999999404,184684.69999998808,181884.761,181893.79999998212,181901.427,184684.649,8,400,,,
trial,html.Screen,4_40_0,2023-09-16T04:05:39.638Z,,0,1,,2886.7510000059556,response,ISIC_2681497.JPG,9,ISIC_1711973.JPG,ISIC_2681497.JPG,false,1,keypress(m),500,187571.69999998808,187571.40000000596,184667.983,184685.19999998808,184684.649,187584.533,8,400,41,,ISIC_1711973.JPG
break,html.Screen,4_40_1,2023-09-16T04:05:39.639Z,,0,,,NaN,,,,,,false,,,,187572.69999998808,187572.5,,187572,,187584.533,8,400,,,
break_continue,html.Screen,4_40_2,2023-09-16T04:05:39.639Z,,0,,,NaN,,,,,,false,,,,187573.09999999404,187572.90000000596,,187572.79999998212,,187584.533,8,400,,,
sequence,flow.Sequence,4_40,2023-09-16T04:05:39.639Z,,0,,,2888.2510000059556,completion,,,,,false,,,,187573.29999998212,187572.90000000596,184667.983,184685.19999998808,184684.649,187584.533,8,400,,,
trial,html.Screen,4_41_0,2023-09-16T04:05:42.782Z,,0,1,,3130.967000000004,response,ISIC_5406677.JPG,10,ISIC_5537876.JPG,ISIC_5406677.JPG,false,1,keypress(m),500,190715.79999998212,190715.5,187567.867,187573.40000000596,187584.533,190718.531,8,400,42,,ISIC_5537876.JPG
break,html.Screen,4_41_1,2023-09-16T04:05:42.783Z,,0,,,NaN,,,,,,false,,,,190716.90000000596,190716.69999998808,,190716.09999999404,,190718.531,8,400,,,
break_continue,html.Screen,4_41_2,2023-09-16T04:05:42.783Z,,0,,,NaN,,,,,,false,,,,190717.19999998808,190717.09999999404,,190717,,190718.531,8,400,,,
sequence,flow.Sequence,4_41,2023-09-16T04:05:42.783Z,,0,,,3132.5669999940437,completion,,,,,false,,,,190717.40000000596,190717.09999999404,187567.867,187573.40000000596,187584.533,190718.531,8,400,,,
trial,html.Screen,4_42_0,2023-09-16T04:05:46.406Z,,0,1,,3620.668999988091,response,ISIC_2807121.JPG,9,ISIC_5805349.JPG,ISIC_5805349.JPG,false,0,keypress(z),500,194339.69999998808,194339.19999998808,190701.865,190717.5,190718.531,194351.719,8,400,43,,ISIC_2807121.JPG
break,html.Screen,4_42_1,2023-09-16T04:05:46.407Z,,0,,,NaN,,,,,,false,,,,194341.09999999404,194340.90000000596,,194340,,194351.719,8,400,,,
break_continue,html.Screen,4_42_2,2023-09-16T04:05:46.407Z,,0,,,NaN,,,,,,false,,,,194341.59999999404,194341.40000000596,,194341.19999998808,,194351.719,8,400,,,
sequence,flow.Sequence,4_42,2023-09-16T04:05:46.408Z,,0,,,3622.8690000059723,completion,,,,,false,,,,194341.79999998212,194341.40000000596,190701.865,190717.40000000596,190718.531,194351.719,8,400,,,
trial,html.Screen,4_43_0,2023-09-16T04:05:49.533Z,,0,1,,3115.280999999988,response,ISIC_0068560.JPG,8,ISIC_7030488.JPG,ISIC_0068560.JPG,false,1,keypress(m),500,197467.40000000596,197467,194335.053,194342,194351.719,197484.927,8,400,44,,ISIC_7030488.JPG
break,html.Screen,4_43_1,2023-09-16T04:05:49.535Z,,0,,,NaN,,,,,,false,,,,197468.59999999404,197468.40000000596,,197467.69999998808,,197484.927,8,400,,,
break_continue,html.Screen,4_43_2,2023-09-16T04:05:49.535Z,,0,,,NaN,,,,,,false,,,,197469.09999999404,197469,,197468.79999998212,,197484.927,8,400,,,
sequence,flow.Sequence,4_43,2023-09-16T04:05:49.535Z,,0,,,3117.280999999988,completion,,,,,false,,,,197469.29999998212,197469,194335.053,194341.79999998212,194351.719,197484.927,8,400,,,
trial,html.Screen,4_44_0,2023-09-16T04:05:53.286Z,,0,1,,3734.4730000059644,response,ISIC_3440813.JPG,9,ISIC_2075121.JPG,ISIC_2075121.JPG,false,0,keypress(z),500,201219.79999998212,201219.40000000596,197468.261,197469.5,197484.927,201235.514,8,400,45,,ISIC_3440813.JPG
break,html.Screen,4_44_1,2023-09-16T04:05:53.287Z,,0,,,NaN,,,,,,false,,,,201221.29999998212,201220.90000000596,,201220.19999998808,,201235.514,8,400,,,
break_continue,html.Screen,4_44_2,2023-09-16T04:05:53.287Z,,0,,,NaN,,,,,,false,,,,201221.59999999404,201221.59999999404,,201221.40000000596,,201235.514,8,400,,,
sequence,flow.Sequence,4_44,2023-09-16T04:05:53.288Z,,0,,,3736.6729999940435,completion,,,,,false,,,,201221.90000000596,201221.59999999404,197468.261,197469.40000000596,197484.927,201235.514,8,400,,,
trial,html.Screen,4_45_0,2023-09-16T04:05:56.774Z,,0,1,,3471.886000005965,response,ISIC_6570611.JPG,8,ISIC_9512048.JPG,ISIC_6570611.JPG,false,1,keypress(m),500,204707.90000000596,204707.40000000596,201218.848,201222,201235.514,204718.708,8,400,46,,ISIC_9512048.JPG
break,html.Screen,4_45_1,2023-09-16T04:05:56.775Z,,0,,,NaN,,,,,,false,,,,204709.19999998808,204709,,204708.29999998212,,204718.708,8,400,,,
break_continue,html.Screen,4_45_2,2023-09-16T04:05:56.775Z,,0,,,NaN,,,,,,false,,,,204709.59999999404,204709.59999999404,,204709.40000000596,,204718.708,8,400,,,
sequence,flow.Sequence,4_45,2023-09-16T04:05:56.775Z,,0,,,3474.085999994044,completion,,,,,false,,,,204709.90000000596,204709.59999999404,201218.848,201222,201235.514,204718.708,8,400,,,
trial,html.Screen,4_46_0,2023-09-16T04:06:00.053Z,,0,1,,3268.5919999821053,response,ISIC_0025892.JPG,8,ISIC_9225640.JPG,ISIC_0025892.JPG,false,1,keypress(m),500,207987.69999998808,207987.29999998212,204702.042,204710,204718.708,208001.91,8,400,47,,ISIC_9225640.JPG
break,html.Screen,4_46_1,2023-09-16T04:06:00.054Z,,0,,,NaN,,,,,,false,,,,207988.90000000596,207988.69999998808,,207988,,208001.91,8,400,,,
break_continue,html.Screen,4_46_2,2023-09-16T04:06:00.055Z,,0,,,NaN,,,,,,false,,,,207989.40000000596,207989.29999998212,,207989.09999999404,,208001.91,8,400,,,
sequence,flow.Sequence,4_46,2023-09-16T04:06:00.055Z,,0,,,3270.5919999821053,completion,,,,,false,,,,207989.5,207989.29999998212,204702.042,204710,204718.708,208001.91,8,400,,,
trial,html.Screen,4_47_0,2023-09-16T04:06:03.381Z,,0,1,,3313.189999994036,response,ISIC_7235371.JPG,8,ISIC_4653503.JPG,ISIC_4653503.JPG,false,0,keypress(z),500,211315.5,211315.09999999404,207985.244,207989.79999998212,208001.91,211319.301,8,400,48,,ISIC_7235371.JPG
break,html.Screen,4_47_1,2023-09-16T04:06:03.382Z,,0,,,NaN,,,,,,false,,,,211316.69999998808,211316.40000000596,,211315.79999998212,,211319.301,8,400,,,
break_continue,html.Screen,4_47_2,2023-09-16T04:06:03.383Z,,0,,,NaN,,,,,,false,,,,211317.19999998808,211317.09999999404,,211316.90000000596,,211319.301,8,400,,,
sequence,flow.Sequence,4_47,2023-09-16T04:06:03.383Z,,0,,,3315.189999994036,completion,,,,,false,,,,211317.40000000596,211317.09999999404,207985.244,207989.59999999404,208001.91,211319.301,8,400,,,
trial,html.Screen,4_48_0,2023-09-16T04:06:06.706Z,,0,1,,3321.298999994033,response,ISIC_0054220.JPG,8,ISIC_0024529.JPG,ISIC_0054220.JPG,false,1,keypress(m),500,214641.09999999404,214640.59999999404,211302.635,211317.5,211319.301,214669.167,8,400,49,,ISIC_0024529.JPG
break,html.Screen,4_48_1,2023-09-16T04:06:06.708Z,,0,,,NaN,,,,,,false,,,,214642.29999998212,214642.09999999404,,214641.40000000596,,214669.167,8,400,,,
break_continue,html.Screen,4_48_2,2023-09-16T04:06:06.708Z,,0,,,NaN,,,,,,false,,,,214642.90000000596,214642.69999998808,,214642.5,,214669.167,8,400,,,
sequence,flow.Sequence,4_48,2023-09-16T04:06:06.708Z,,0,,,3323.3989999880723,completion,,,,,false,,,,214643,214642.69999998808,211302.635,211317.40000000596,211319.301,214669.167,8,400,,,
trial,html.Screen,4_49_0,2023-09-16T04:06:09.860Z,,0,1,,3125.632999982132,response,ISIC_4936662.JPG,12,ISIC_3039880.JPG,ISIC_3039880.JPG,false,0,keypress(z),500,217795.29999998212,217794.79999998212,214652.501,214643.19999998808,214669.167,217802.375,8,400,50,,ISIC_4936662.JPG
break,html.Screen,4_49_1,2023-09-16T04:06:19.855Z,,0,,,10000.348999999987,timeout,,,,,false,,,,227790,227786.058,217785.709,217795.59999999404,217802.375,227802.724,8,400,,,
break_continue,html.Screen,4_49_2,2023-09-16T04:07:18.975Z,,0,,,59098.07599998213,response,,,,,false,continue,keypress(Space),,286912.6999999881,286900.7999999821,227786.058,227790.29999998212,227802.724,286921.099,8,400,,,
sequence,flow.Sequence,4_49,2023-09-16T04:07:18.976Z,,0,,,72231.63299998213,completion,,,,,false,,,,286912.90000000596,286900.7999999821,214652.501,214643.19999998808,214669.167,286921.099,8,400,,,
trial,html.Screen,4_50_0,2023-09-16T04:07:23.162Z,,0,2,,4178.000999994052,response,ISIC_5278307.JPG,13,ISIC_0027659.JPG,ISIC_0027659.JPG,false,0,keypress(z),500,291099.6999999881,291099.09999999404,286904.433,286913,286921.099,291105.123,8,400,1,,ISIC_5278307.JPG
break,html.Screen,4_50_1,2023-09-16T04:07:23.163Z,,0,,,NaN,,,,,,false,,,,291101,291100.6999999881,,291100,,291105.123,8,400,,,
break_continue,html.Screen,4_50_2,2023-09-16T04:07:23.164Z,,0,,,NaN,,,,,,false,,,,291101.5,291101.1999999881,,291101.09999999404,,291105.123,8,400,,,
sequence,flow.Sequence,4_50,2023-09-16T04:07:23.164Z,,0,,,4180.100999988092,completion,,,,,false,,,,291101.59999999404,291101.1999999881,286904.433,286913,286921.099,291105.123,8,400,,,
trial,html.Screen,4_51_0,2023-09-16T04:07:26.122Z,,0,2,,2953.8769999999786,response,ISIC_7369312.JPG,8,ISIC_2287083.JPG,ISIC_7369312.JPG,false,1,keypress(m),500,294059.5,294059,291088.457,291101.7999999821,291105.123,294071.671,8,400,2,,ISIC_2287083.JPG
break,html.Screen,4_51_1,2023-09-16T04:07:26.123Z,,0,,,NaN,,,,,,false,,,,294060.90000000596,294060.59999999404,,294059.7999999821,,294071.671,8,400,,,
break_continue,html.Screen,4_51_2,2023-09-16T04:07:26.124Z,,0,,,NaN,,,,,,false,,,,294061.40000000596,294061.2999999821,,294061,,294071.671,8,400,,,
sequence,flow.Sequence,4_51,2023-09-16T04:07:26.124Z,,0,,,2956.176999982097,completion,,,,,false,,,,294061.59999999404,294061.2999999821,291088.457,291101.6999999881,291105.123,294071.671,8,400,,,
trial,html.Screen,4_52_0,2023-09-16T04:07:29.178Z,,0,2,,3043.2290000059875,response,ISIC_1477056.JPG,9,ISIC_7562708.JPG,ISIC_1477056.JPG,false,1,keypress(m),500,297115.40000000596,297114.90000000596,294055.005,294061.7999999821,294071.671,297121.549,8,400,3,,ISIC_7562708.JPG
break,html.Screen,4_52_1,2023-09-16T04:07:29.179Z,,0,,,NaN,,,,,,false,,,,297116.7999999821,297116.5,,297115.6999999881,,297121.549,8,400,,,
break_continue,html.Screen,4_52_2,2023-09-16T04:07:29.179Z,,0,,,NaN,,,,,,false,,,,297117.09999999404,297117,,297116.7999999821,,297121.549,8,400,,,
sequence,flow.Sequence,4_52,2023-09-16T04:07:29.180Z,,0,,,3045.329000000027,completion,,,,,false,,,,297117.2999999821,297117,294055.005,294061.6999999881,294071.671,297121.549,8,400,,,
trial,html.Screen,4_53_0,2023-09-16T04:07:32.025Z,,0,2,,2840.451000000001,response,ISIC_0025766.JPG,8,ISIC_0013032.JPG,ISIC_0025766.JPG,false,1,keypress(m),500,299962.5,299962,297104.883,297117.5,297121.549,299972.255,8,400,4,,ISIC_0013032.JPG
break,html.Screen,4_53_1,2023-09-16T04:07:32.026Z,,0,,,NaN,,,,,,false,,,,299963.7999999821,299963.5,,299962.7999999821,,299972.255,8,400,,,
break_continue,html.Screen,4_53_2,2023-09-16T04:07:32.026Z,,0,,,NaN,,,,,,false,,,,299964.09999999404,299964,,299963.90000000596,,299972.255,8,400,,,
sequence,flow.Sequence,4_53,2023-09-16T04:07:32.027Z,,0,,,2842.451000000001,completion,,,,,false,,,,299964.40000000596,299964,297104.883,297117.5,297121.549,299972.255,8,400,,,
trial,html.Screen,4_54_0,2023-09-16T04:07:35.514Z,,0,2,,3478.7449999999953,response,ISIC_0034068.JPG,10,ISIC_8796968.JPG,ISIC_0034068.JPG,false,1,keypress(m),500,303451.5,303451,299955.589,299964.5,299972.255,303455.449,8,400,5,,ISIC_8796968.JPG
break,html.Screen,4_54_1,2023-09-16T04:07:35.515Z,,0,,,NaN,,,,,,false,,,,303452.90000000596,303452.6999999881,,303451.90000000596,,303455.449,8,400,,,
break_continue,html.Screen,4_54_2,2023-09-16T04:07:35.515Z,,0,,,NaN,,,,,,false,,,,303453.40000000596,303453.2999999821,,303453.09999999404,,303455.449,8,400,,,
sequence,flow.Sequence,4_54,2023-09-16T04:07:35.516Z,,0,,,3481.044999982114,completion,,,,,false,,,,303453.5,303453.2999999821,299955.589,299964.5,299972.255,303455.449,8,400,,,
trial,html.Screen,4_55_0,2023-09-16T04:07:38.226Z,,0,2,,2707.650999994017,response,ISIC_0011031.JPG,8,ISIC_0011333.JPG,ISIC_0011031.JPG,false,1,keypress(m),500,306163.59999999404,306163.09999999404,303438.783,303453.7999999821,303455.449,306172.007,8,400,6,,ISIC_0011333.JPG
break,html.Screen,4_55_1,2023-09-16T04:07:38.227Z,,0,,,NaN,,,,,,false,,,,306164.90000000596,306164.59999999404,,306163.90000000596,,306172.007,8,400,,,
break_continue,html.Screen,4_55_2,2023-09-16T04:07:38.227Z,,0,,,NaN,,,,,,false,,,,306165.2999999821,306165.1999999881,,306165,,306172.007,8,400,,,
sequence,flow.Sequence,4_55,2023-09-16T04:07:38.227Z,,0,,,2709.7509999880567,completion,,,,,false,,,,306165.5,306165.1999999881,303438.783,303453.6999999881,303455.449,306172.007,8,400,,,
trial,html.Screen,4_56_0,2023-09-16T04:07:41.834Z,,0,2,,3599.5929999940563,response,ISIC_0031548.JPG,8,ISIC_5569091.JPG,ISIC_5569091.JPG,false,0,keypress(z),500,309772.09999999404,309771.59999999404,306155.341,306165.6999999881,306172.007,309789.239,8,400,7,,ISIC_0031548.JPG
break,html.Screen,4_56_1,2023-09-16T04:07:41.835Z,,0,,,NaN,,,,,,false,,,,309773.40000000596,309773.1999999881,,309772.40000000596,,309789.239,8,400,,,
break_continue,html.Screen,4_56_2,2023-09-16T04:07:41.836Z,,0,,,NaN,,,,,,false,,,,309773.7999999821,309773.6999999881,,309773.5,,309789.239,8,400,,,
sequence,flow.Sequence,4_56,2023-09-16T04:07:41.836Z,,0,,,3601.692999988096,completion,,,,,false,,,,309774,309773.6999999881,306155.341,306165.59999999404,306172.007,309789.239,8,400,,,
trial,html.Screen,4_57_0,2023-09-16T04:07:44.984Z,,0,2,,3132.860999994038,response,ISIC_2819798.JPG,8,ISIC_0056406.JPG,ISIC_0056406.JPG,false,0,keypress(z),500,312922.5,312922.09999999404,309772.573,309774.1999999881,309789.239,312939.113,8,400,8,,ISIC_2819798.JPG
break,html.Screen,4_57_1,2023-09-16T04:07:44.986Z,,0,,,NaN,,,,,,false,,,,312923.7999999821,312923.59999999404,,312922.90000000596,,312939.113,8,400,,,
break_continue,html.Screen,4_57_2,2023-09-16T04:07:44.986Z,,0,,,NaN,,,,,,false,,,,312924.1999999881,312924.09999999404,,312924,,312939.113,8,400,,,
sequence,flow.Sequence,4_57,2023-09-16T04:07:44.986Z,,0,,,3134.860999994038,completion,,,,,false,,,,312924.40000000596,312924.09999999404,309772.573,309774.1999999881,309789.239,312939.113,8,400,,,
trial,html.Screen,4_58_0,2023-09-16T04:07:47.785Z,,0,2,,2783.586999988067,response,ISIC_2658858.JPG,10,ISIC_0013342.JPG,ISIC_2658858.JPG,false,1,keypress(m),500,315723.09999999404,315722.6999999881,312922.447,312924.59999999404,312939.113,315739.001,8,400,9,,ISIC_0013342.JPG
break,html.Screen,4_58_1,2023-09-16T04:07:47.786Z,,0,,,NaN,,,,,,false,,,,315724.40000000596,315724.09999999404,,315723.40000000596,,315739.001,8,400,,,
break_continue,html.Screen,4_58_2,2023-09-16T04:07:47.786Z,,0,,,NaN,,,,,,false,,,,315724.7999999821,315724.6999999881,,315724.5,,315739.001,8,400,,,
sequence,flow.Sequence,4_58,2023-09-16T04:07:47.787Z,,0,,,2785.586999988067,completion,,,,,false,,,,315725,315724.6999999881,312922.447,312924.5,312939.113,315739.001,8,400,,,
trial,html.Screen,4_59_0,2023-09-16T04:07:50.585Z,,0,2,,2783.7989999821293,response,ISIC_9929097.JPG,9,ISIC_9860895.JPG,ISIC_9929097.JPG,false,1,keypress(m),500,318523.1999999881,318522.7999999821,315722.335,315725.1999999881,315739.001,318539.672,8,400,10,,ISIC_9860895.JPG
break,html.Screen,4_59_1,2023-09-16T04:07:50.586Z,,0,,,NaN,,,,,,false,,,,318524.5,318524.09999999404,,318523.5,,318539.672,8,400,,,
break_continue,html.Screen,4_59_2,2023-09-16T04:07:50.586Z,,0,,,NaN,,,,,,false,,,,318524.90000000596,318524.7999999821,,318524.59999999404,,318539.672,8,400,,,
sequence,flow.Sequence,4_59,2023-09-16T04:07:50.587Z,,0,,,2785.7989999821293,completion,,,,,false,,,,318525.09999999404,318524.7999999821,315722.335,315725.09999999404,315739.001,318539.672,8,400,,,
trial,html.Screen,4_60_0,2023-09-16T04:07:53.465Z,,0,2,,2863.0279999880586,response,ISIC_2698722.JPG,8,ISIC_0010503.JPG,ISIC_0010503.JPG,false,0,keypress(z),500,321403.2999999821,321402.6999999881,318523.006,318525.2999999821,318539.672,321406.224,8,400,11,,ISIC_2698722.JPG
break,html.Screen,4_60_1,2023-09-16T04:07:53.466Z,,0,,,NaN,,,,,,false,,,,321404.5,321404.2999999821,,321403.5,,321406.224,8,400,,,
break_continue,html.Screen,4_60_2,2023-09-16T04:07:53.466Z,,0,,,NaN,,,,,,false,,,,321404.90000000596,321404.7999999821,,321404.59999999404,,321406.224,8,400,,,
sequence,flow.Sequence,4_60,2023-09-16T04:07:53.467Z,,0,,,2865.127999982098,completion,,,,,false,,,,321405.1999999881,321404.7999999821,318523.006,318525.1999999881,318539.672,321406.224,8,400,,,
trial,html.Screen,4_61_0,2023-09-16T04:07:56.337Z,,0,2,,2868.875999994052,response,ISIC_0063680.JPG,8,ISIC_1120654.JPG,ISIC_0063680.JPG,false,1,keypress(m),500,324275.5,324275.09999999404,321389.558,321405.2999999821,321406.224,324289.442,8,400,12,,ISIC_1120654.JPG
break,html.Screen,4_61_1,2023-09-16T04:07:56.338Z,,0,,,NaN,,,,,,false,,,,324276.90000000596,324276.5,,324275.7999999821,,324289.442,8,400,,,
break_continue,html.Screen,4_61_2,2023-09-16T04:07:56.339Z,,0,,,NaN,,,,,,false,,,,324277.2999999821,324277.09999999404,,324276.90000000596,,324289.442,8,400,,,
sequence,flow.Sequence,4_61,2023-09-16T04:07:56.339Z,,0,,,2870.875999994052,completion,,,,,false,,,,324277.5,324277.09999999404,321389.558,321405.1999999881,321406.224,324289.442,8,400,,,
trial,html.Screen,4_62_0,2023-09-16T04:08:01.392Z,,0,2,,5041.357999982138,response,ISIC_0062649.JPG,8,ISIC_0033325.JPG,ISIC_0033325.JPG,false,0,keypress(z),500,329331.2999999821,329330.7999999821,324272.776,324277.59999999404,324289.442,329340.07,8,400,13,,ISIC_0062649.JPG
break,html.Screen,4_62_1,2023-09-16T04:08:01.394Z,,0,,,NaN,,,,,,false,,,,329332.5,329332.1999999881,,329331.59999999404,,329340.07,8,400,,,
break_continue,html.Screen,4_62_2,2023-09-16T04:08:01.394Z,,0,,,NaN,,,,,,false,,,,329332.90000000596,329332.7999999821,,329332.59999999404,,329340.07,8,400,,,
sequence,flow.Sequence,4_62,2023-09-16T04:08:01.394Z,,0,,,5043.357999982138,completion,,,,,false,,,,329333.09999999404,329332.7999999821,324272.776,324277.59999999404,324289.442,329340.07,8,400,,,
trial,html.Screen,4_63_0,2023-09-16T04:08:04.648Z,,0,2,,3246.0299999940326,response,ISIC_0031472.JPG,9,ISIC_3664380.JPG,ISIC_3664380.JPG,false,0,keypress(z),500,332586.5,332586.09999999404,329323.404,329333.2999999821,329340.07,332589.94,8,400,14,,ISIC_0031472.JPG
break,html.Screen,4_63_1,2023-09-16T04:08:04.649Z,,0,,,NaN,,,,,,false,,,,332587.7999999821,332587.5,,332586.7999999821,,332589.94,8,400,,,
break_continue,html.Screen,4_63_2,2023-09-16T04:08:04.649Z,,0,,,NaN,,,,,,false,,,,332588.1999999881,332588.09999999404,,332587.90000000596,,332589.94,8,400,,,
sequence,flow.Sequence,4_63,2023-09-16T04:08:04.649Z,,0,,,3248.0299999940326,completion,,,,,false,,,,332588.2999999821,332588.09999999404,329323.404,329333.1999999881,329340.07,332589.94,8,400,,,
trial,html.Screen,4_64_0,2023-09-16T04:08:07.641Z,,0,2,,2989.3599999821163,response,ISIC_2328829.JPG,9,ISIC_0069667.JPG,ISIC_0069667.JPG,false,0,keypress(z),500,335579.6999999881,335579.2999999821,332573.274,332588.5,332589.94,335589.82,8,400,15,,ISIC_2328829.JPG
break,html.Screen,4_64_1,2023-09-16T04:08:07.642Z,,0,,,NaN,,,,,,false,,,,335580.90000000596,335580.59999999404,,335580,,335589.82,8,400,,,
break_continue,html.Screen,4_64_2,2023-09-16T04:08:07.642Z,,0,,,NaN,,,,,,false,,,,335581.2999999821,335581.09999999404,,335581,,335589.82,8,400,,,
sequence,flow.Sequence,4_64,2023-09-16T04:08:07.642Z,,0,,,2991.159999994037,completion,,,,,false,,,,335581.5,335581.09999999404,332573.274,332588.5,332589.94,335589.82,8,400,,,
trial,html.Screen,4_65_0,2023-09-16T04:08:11.360Z,,0,2,,3709.379999988072,response,ISIC_0010664.JPG,9,ISIC_0032586.JPG,ISIC_0010664.JPG,false,1,keypress(m),500,339299.6999999881,339299.1999999881,335573.154,335581.59999999404,335589.82,339323.811,8,400,16,,ISIC_0032586.JPG
break,html.Screen,4_65_1,2023-09-16T04:08:11.362Z,,0,,,NaN,,,,,,false,,,,339301,339300.6999999881,,339300,,339323.811,8,400,,,
break_continue,html.Screen,4_65_2,2023-09-16T04:08:11.362Z,,0,,,NaN,,,,,,false,,,,339301.40000000596,339301.1999999881,,339301,,339323.811,8,400,,,
sequence,flow.Sequence,4_65,2023-09-16T04:08:11.362Z,,0,,,3711.379999988072,completion,,,,,false,,,,339301.5,339301.1999999881,335573.154,335581.59999999404,335589.82,339323.811,8,400,,,
trial,html.Screen,4_66_0,2023-09-16T04:08:14.080Z,,0,2,,2694.7889999940526,response,ISIC_0033042.JPG,8,ISIC_0011904.JPG,ISIC_0033042.JPG,false,1,keypress(m),500,342019,342018.59999999404,339307.145,339301.6999999881,339323.811,342023.703,8,400,17,,ISIC_0011904.JPG
break,html.Screen,4_66_1,2023-09-16T04:08:14.081Z,,0,,,NaN,,,,,,false,,,,342020.1999999881,342020,,342019.2999999821,,342023.703,8,400,,,
break_continue,html.Screen,4_66_2,2023-09-16T04:08:14.081Z,,0,,,NaN,,,,,,false,,,,342020.59999999404,342020.59999999404,,342020.40000000596,,342023.703,8,400,,,
sequence,flow.Sequence,4_66,2023-09-16T04:08:14.081Z,,0,,,2696.7889999940526,completion,,,,,false,,,,342020.6999999881,342020.59999999404,339307.145,339301.59999999404,339323.811,342023.703,8,400,,,
trial,html.Screen,4_67_0,2023-09-16T04:08:19.640Z,,0,2,,5555.697000005981,response,ISIC_0059855.JPG,9,ISIC_6703027.JPG,ISIC_0059855.JPG,false,1,keypress(m),500,347579.7999999821,347579.40000000596,342007.037,342020.90000000596,342023.703,347590.147,8,400,18,,ISIC_6703027.JPG
break,html.Screen,4_67_1,2023-09-16T04:08:19.642Z,,0,,,NaN,,,,,,false,,,,347581.1999999881,347581,,347580.09999999404,,347590.147,8,400,,,
break_continue,html.Screen,4_67_2,2023-09-16T04:08:19.642Z,,0,,,NaN,,,,,,false,,,,347581.59999999404,347581.5,,347581.40000000596,,347590.147,8,400,,,
sequence,flow.Sequence,4_67,2023-09-16T04:08:19.642Z,,0,,,5557.7970000000205,completion,,,,,false,,,,347581.90000000596,347581.5,342007.037,342020.7999999821,342023.703,347590.147,8,400,,,
trial,html.Screen,4_68_0,2023-09-16T04:08:22.911Z,,0,2,,3260.6529999821214,response,ISIC_1685962.JPG,8,ISIC_0806303.JPG,ISIC_1685962.JPG,false,1,keypress(m),500,350851.09999999404,350850.7999999821,347573.481,347582,347590.147,350857.446,8,400,19,,ISIC_0806303.JPG
break,html.Screen,4_68_1,2023-09-16T04:08:22.913Z,,0,,,NaN,,,,,,false,,,,350853.09999999404,350852.90000000596,,350852.40000000596,,350857.446,8,400,,,
break_continue,html.Screen,4_68_2,2023-09-16T04:08:22.914Z,,0,,,NaN,,,,,,false,,,,350853.2999999821,350853.1999999881,,350853.09999999404,,350857.446,8,400,,,
sequence,flow.Sequence,4_68,2023-09-16T04:08:22.914Z,,0,,,3263.052999988082,completion,,,,,false,,,,350853.40000000596,350853.1999999881,347573.481,347581.90000000596,347590.147,350857.446,8,400,,,
trial,html.Screen,4_69_0,2023-09-16T04:08:25.632Z,,0,2,,2713.954000005964,response,ISIC_7947847.JPG,9,ISIC_1605629.JPG,ISIC_1605629.JPG,false,0,keypress(z),500,353571.90000000596,353571.40000000596,350840.78,350853.5,350857.446,353574.004,8,400,20,,ISIC_7947847.JPG
break,html.Screen,4_69_1,2023-09-16T04:08:25.633Z,,0,,,NaN,,,,,,false,,,,353573.09999999404,353572.90000000596,,353572.1999999881,,353574.004,8,400,,,
break_continue,html.Screen,4_69_2,2023-09-16T04:08:25.634Z,,0,,,NaN,,,,,,false,,,,353573.5,353573.40000000596,,353573.2999999821,,353574.004,8,400,,,
sequence,flow.Sequence,4_69,2023-09-16T04:08:25.634Z,,0,,,2715.954000005964,completion,,,,,false,,,,353573.6999999881,353573.40000000596,350840.78,350853.5,350857.446,353574.004,8,400,,,
trial,html.Screen,4_70_0,2023-09-16T04:08:28.407Z,,0,2,,2772.7959999821032,response,ISIC_0056247.JPG,8,ISIC_0063980.JPG,ISIC_0063980.JPG,false,0,keypress(z),500,356347.2999999821,356346.7999999821,353557.338,353573.90000000596,353574.004,356357.226,8,400,21,,ISIC_0056247.JPG
break,html.Screen,4_70_1,2023-09-16T04:08:28.409Z,,0,,,NaN,,,,,,false,,,,356348.5,356348.2999999821,,356347.5,,356357.226,8,400,,,
break_continue,html.Screen,4_70_2,2023-09-16T04:08:28.409Z,,0,,,NaN,,,,,,false,,,,356349.09999999404,356348.90000000596,,356348.6999999881,,356357.226,8,400,,,
sequence,flow.Sequence,4_70,2023-09-16T04:08:28.409Z,,0,,,2774.896000005945,completion,,,,,false,,,,356349.1999999881,356348.90000000596,353557.338,353573.7999999821,353574.004,356357.226,8,400,,,
trial,html.Screen,4_71_0,2023-09-16T04:08:32.360Z,,0,2,,3941.8739999940153,response,ISIC_0026049.JPG,9,ISIC_1919324.JPG,ISIC_1919324.JPG,false,0,keypress(z),500,360299.5,360299.09999999404,356340.56,356349.40000000596,356357.226,360307.861,8,400,22,,ISIC_0026049.JPG
break,html.Screen,4_71_1,2023-09-16T04:08:32.361Z,,0,,,NaN,,,,,,false,,,,360300.90000000596,360300.59999999404,,360299.90000000596,,360307.861,8,400,,,
break_continue,html.Screen,4_71_2,2023-09-16T04:08:32.361Z,,0,,,NaN,,,,,,false,,,,360301.2999999821,360301.1999999881,,360301,,360307.861,8,400,,,
sequence,flow.Sequence,4_71,2023-09-16T04:08:32.362Z,,0,,,3943.973999988055,completion,,,,,false,,,,360301.5,360301.1999999881,356340.56,356349.2999999821,356357.226,360307.861,8,400,,,
trial,html.Screen,4_72_0,2023-09-16T04:08:35.552Z,,0,2,,3183.3389999881038,response,ISIC_0937261.JPG,8,ISIC_0034150.JPG,ISIC_0034150.JPG,false,0,keypress(z),500,363491.6999999881,363491.1999999881,360291.195,360301.6999999881,360307.861,363507.733,8,400,23,,ISIC_0937261.JPG
break,html.Screen,4_72_1,2023-09-16T04:08:35.553Z,,0,,,NaN,,,,,,false,,,,363492.90000000596,363492.59999999404,,363491.90000000596,,363507.733,8,400,,,
break_continue,html.Screen,4_72_2,2023-09-16T04:08:35.553Z,,0,,,NaN,,,,,,false,,,,363493.2999999821,363493.2999999821,,363493,,363507.733,8,400,,,
sequence,flow.Sequence,4_72,2023-09-16T04:08:35.553Z,,0,,,3185.4389999821433,completion,,,,,false,,,,363493.59999999404,363493.2999999821,360291.195,360301.5,360307.861,363507.733,8,400,,,
trial,html.Screen,4_73_0,2023-09-16T04:08:38.895Z,,0,2,,3326.9669999880716,response,ISIC_6891226.JPG,8,ISIC_0013365.JPG,ISIC_0013365.JPG,false,0,keypress(z),500,366835.1999999881,366834.6999999881,363491.067,363493.59999999404,363507.733,366840.933,8,400,24,,ISIC_6891226.JPG
break,html.Screen,4_73_1,2023-09-16T04:08:38.896Z,,0,,,NaN,,,,,,false,,,,366836.40000000596,366836.1999999881,,366835.5,,366840.933,8,400,,,
break_continue,html.Screen,4_73_2,2023-09-16T04:08:38.897Z,,0,,,NaN,,,,,,false,,,,366836.7999999821,366836.6999999881,,366836.59999999404,,366840.933,8,400,,,
sequence,flow.Sequence,4_73,2023-09-16T04:08:38.897Z,,0,,,3328.9669999880716,completion,,,,,false,,,,366836.90000000596,366836.6999999881,363491.067,363493.59999999404,363507.733,366840.933,8,400,,,
trial,html.Screen,4_74_0,2023-09-16T04:08:42.487Z,,0,2,,3585.9670000059414,response,ISIC_6913045.JPG,9,ISIC_0027036.JPG,ISIC_0027036.JPG,false,0,keypress(z),500,370427.40000000596,370426.90000000596,366824.267,366837,366840.933,370441.54,8,400,25,,ISIC_6913045.JPG
break,html.Screen,4_74_1,2023-09-16T04:08:42.488Z,,0,,,NaN,,,,,,false,,,,370428.59999999404,370428.40000000596,,370427.6999999881,,370441.54,8,400,,,
break_continue,html.Screen,4_74_2,2023-09-16T04:08:42.489Z,,0,,,NaN,,,,,,false,,,,370429,370428.90000000596,,370428.7999999821,,370441.54,8,400,,,
sequence,flow.Sequence,4_74,2023-09-16T04:08:42.489Z,,0,,,3587.9670000059414,completion,,,,,false,,,,370429.1999999881,370428.90000000596,366824.267,366837,366840.933,370441.54,8,400,,,
trial,html.Screen,4_75_0,2023-09-16T04:08:45.639Z,,0,2,,3137.3600000059814,response,ISIC_0028945.JPG,9,ISIC_7898061.JPG,ISIC_7898061.JPG,false,0,keypress(z),500,373579.40000000596,373578.90000000596,370424.874,370429.40000000596,370441.54,373591.414,8,400,26,,ISIC_0028945.JPG
break,html.Screen,4_75_1,2023-09-16T04:08:45.640Z,,0,,,NaN,,,,,,false,,,,373580.6999999881,373580.40000000596,,373579.6999999881,,373591.414,8,400,,,
break_continue,html.Screen,4_75_2,2023-09-16T04:08:45.641Z,,0,,,NaN,,,,,,false,,,,373581.09999999404,373581,,373580.7999999821,,373591.414,8,400,,,
sequence,flow.Sequence,4_75,2023-09-16T04:08:45.641Z,,0,,,3139.460000000021,completion,,,,,false,,,,373581.2999999821,373581,370424.874,370429.40000000596,370441.54,373591.414,8,400,,,
trial,html.Screen,4_76_0,2023-09-16T04:08:48.599Z,,0,2,,2947.385999982129,response,ISIC_6688311.JPG,8,ISIC_0012208.JPG,ISIC_6688311.JPG,false,1,keypress(m),500,376539.1999999881,376538.7999999821,373574.748,373581.5,373591.414,376541.296,8,400,27,,ISIC_0012208.JPG
break,html.Screen,4_76_1,2023-09-16T04:08:48.600Z,,0,,,NaN,,,,,,false,,,,376540.59999999404,376540.2999999821,,376539.59999999404,,376541.296,8,400,,,
break_continue,html.Screen,4_76_2,2023-09-16T04:08:48.600Z,,0,,,NaN,,,,,,false,,,,376541,376540.90000000596,,376540.6999999881,,376541.296,8,400,,,
sequence,flow.Sequence,4_76,2023-09-16T04:08:48.601Z,,0,,,2949.4860000059707,completion,,,,,false,,,,376541.1999999881,376540.90000000596,373574.748,373581.40000000596,373591.414,376541.296,8,400,,,
trial,html.Screen,4_77_0,2023-09-16T04:08:51.463Z,,0,2,,2861.5039999821456,response,ISIC_0032762.JPG,8,ISIC_0010227.JPG,ISIC_0010227.JPG,false,0,keypress(z),500,379403.1999999881,379402.7999999821,376524.63,376541.40000000596,376541.296,379407.848,8,400,28,,ISIC_0032762.JPG
break,html.Screen,4_77_1,2023-09-16T04:08:51.464Z,,0,,,NaN,,,,,,false,,,,379404.5,379404.1999999881,,379403.40000000596,,379407.848,8,400,,,
break_continue,html.Screen,4_77_2,2023-09-16T04:08:51.464Z,,0,,,NaN,,,,,,false,,,,379404.90000000596,379404.7999999821,,379404.5,,379407.848,8,400,,,
sequence,flow.Sequence,4_77,2023-09-16T04:08:51.464Z,,0,,,2863.5039999821456,completion,,,,,false,,,,379405.09999999404,379404.7999999821,376524.63,376541.2999999821,376541.296,379407.848,8,400,,,
trial,html.Screen,4_78_0,2023-09-16T04:08:57.383Z,,0,2,,5914.9519999821205,response,ISIC_0063742.JPG,8,ISIC_0002026.JPG,ISIC_0063742.JPG,false,1,keypress(m),500,385323.40000000596,385322.7999999821,379391.182,379405.2999999821,379407.848,385324.983,8,400,29,,ISIC_0002026.JPG
break,html.Screen,4_78_1,2023-09-16T04:08:57.384Z,,0,,,NaN,,,,,,false,,,,385324.6999999881,385324.40000000596,,385323.6999999881,,385324.983,8,400,,,
break_continue,html.Screen,4_78_2,2023-09-16T04:08:57.384Z,,0,,,NaN,,,,,,false,,,,385325.09999999404,385325,,385324.90000000596,,385324.983,8,400,,,
sequence,flow.Sequence,4_78,2023-09-16T04:08:57.384Z,,0,,,5917.152000000002,completion,,,,,false,,,,385325.2999999821,385325,379391.182,379405.1999999881,379407.848,385324.983,8,400,,,
trial,html.Screen,4_79_0,2023-09-16T04:09:00.471Z,,0,2,,3086.116999994032,response,ISIC_9851899.JPG,9,ISIC_0013719.JPG,ISIC_0013719.JPG,false,0,keypress(z),500,388411.59999999404,388411.09999999404,385308.317,385325.5,385324.983,388424.859,8,400,30,,ISIC_9851899.JPG
break,html.Screen,4_79_1,2023-09-16T04:09:00.472Z,,0,,,NaN,,,,,,false,,,,388412.90000000596,388412.59999999404,,388411.7999999821,,388424.859,8,400,,,
break_continue,html.Screen,4_79_2,2023-09-16T04:09:00.472Z,,0,,,NaN,,,,,,false,,,,388413.5,388413.2999999821,,388413.09999999404,,388424.859,8,400,,,
sequence,flow.Sequence,4_79,2023-09-16T04:09:00.473Z,,0,,,3088.316999982111,completion,,,,,false,,,,388413.59999999404,388413.2999999821,385308.317,385325.2999999821,385324.983,388424.859,8,400,,,
trial,html.Screen,4_80_0,2023-09-16T04:09:04.686Z,,0,2,,4202.041000005964,response,ISIC_0064095.JPG,8,ISIC_0069620.JPG,ISIC_0069620.JPG,false,0,keypress(z),500,392627.40000000596,392626.90000000596,388408.193,388413.7999999821,388424.859,392642.138,8,400,31,,ISIC_0064095.JPG
break,html.Screen,4_80_1,2023-09-16T04:09:04.688Z,,0,,,NaN,,,,,,false,,,,392628.7999999821,392628.5,,392627.6999999881,,392642.138,8,400,,,
break_continue,html.Screen,4_80_2,2023-09-16T04:09:04.688Z,,0,,,NaN,,,,,,false,,,,392629.1999999881,392629.09999999404,,392628.90000000596,,392642.138,8,400,,,
sequence,flow.Sequence,4_80,2023-09-16T04:09:04.688Z,,0,,,4204.240999994043,completion,,,,,false,,,,392629.40000000596,392629.09999999404,388408.193,388413.6999999881,388424.859,392642.138,8,400,,,
trial,html.Screen,4_81_0,2023-09-16T04:09:07.654Z,,0,2,,2953.061999988102,response,ISIC_0033518.JPG,8,ISIC_0063981.JPG,ISIC_0063981.JPG,false,0,keypress(z),500,395595.6999999881,395595.1999999881,392625.472,392629.5,392642.138,395608.686,8,400,32,,ISIC_0033518.JPG
break,html.Screen,4_81_1,2023-09-16T04:09:07.656Z,,0,,,NaN,,,,,,false,,,,395597,395596.6999999881,,395596,,395608.686,8,400,,,
break_continue,html.Screen,4_81_2,2023-09-16T04:09:07.656Z,,0,,,NaN,,,,,,false,,,,395597.40000000596,395597.2999999821,,395597.09999999404,,395608.686,8,400,,,
sequence,flow.Sequence,4_81,2023-09-16T04:09:07.656Z,,0,,,2955.1619999821414,completion,,,,,false,,,,395597.59999999404,395597.2999999821,392625.472,392629.5,392642.138,395608.686,8,400,,,
trial,html.Screen,4_82_0,2023-09-16T04:09:10.886Z,,0,2,,3218.013999988092,response,ISIC_0064066.JPG,9,ISIC_2519121.JPG,ISIC_0064066.JPG,false,1,keypress(m),500,398827.09999999404,398826.6999999881,395592.02,395597.7999999821,395608.686,398841.89,8,400,33,,ISIC_2519121.JPG
break,html.Screen,4_82_1,2023-09-16T04:09:10.887Z,,0,,,NaN,,,,,,false,,,,398828.40000000596,398828.09999999404,,398827.40000000596,,398841.89,8,400,,,
break_continue,html.Screen,4_82_2,2023-09-16T04:09:10.887Z,,0,,,NaN,,,,,,false,,,,398828.7999999821,398828.59999999404,,398828.5,,398841.89,8,400,,,
sequence,flow.Sequence,4_82,2023-09-16T04:09:10.888Z,,0,,,3219.9139999940526,completion,,,,,false,,,,398829,398828.59999999404,395592.02,395597.6999999881,395608.686,398841.89,8,400,,,
trial,html.Screen,4_83_0,2023-09-16T04:09:14.062Z,,0,2,,3160.809999988065,response,ISIC_4890201.JPG,9,ISIC_0057259.JPG,ISIC_0057259.JPG,false,0,keypress(z),500,402003.1999999881,402002.6999999881,398825.224,398829.09999999404,398841.89,402008.43,8,400,34,,ISIC_4890201.JPG
break,html.Screen,4_83_1,2023-09-16T04:09:14.063Z,,0,,,NaN,,,,,,false,,,,402004.5,402004.1999999881,,402003.5,,402008.43,8,400,,,
break_continue,html.Screen,4_83_2,2023-09-16T04:09:14.063Z,,0,,,NaN,,,,,,false,,,,402004.90000000596,402004.6999999881,,402004.59999999404,,402008.43,8,400,,,
sequence,flow.Sequence,4_83,2023-09-16T04:09:14.064Z,,0,,,3162.809999988065,completion,,,,,false,,,,402005.09999999404,402004.6999999881,398825.224,398829,398841.89,402008.43,8,400,,,
trial,html.Screen,4_84_0,2023-09-16T04:09:18.230Z,,0,2,,4162.269999988086,response,ISIC_0027274.JPG,9,ISIC_8194371.JPG,ISIC_0027274.JPG,false,1,keypress(m),500,406171.1999999881,406170.6999999881,401991.764,402005.2999999821,402008.43,406175.831,8,400,35,,ISIC_8194371.JPG
break,html.Screen,4_84_1,2023-09-16T04:09:18.231Z,,0,,,NaN,,,,,,false,,,,406172.5,406172.2999999821,,406171.5,,406175.831,8,400,,,
break_continue,html.Screen,4_84_2,2023-09-16T04:09:18.231Z,,0,,,NaN,,,,,,false,,,,406172.90000000596,406172.7999999821,,406172.6999999881,,406175.831,8,400,,,
sequence,flow.Sequence,4_84,2023-09-16T04:09:18.232Z,,0,,,4164.369999982126,completion,,,,,false,,,,406173.09999999404,406172.7999999821,401991.764,402005.09999999404,402008.43,406175.831,8,400,,,
trial,html.Screen,4_85_0,2023-09-16T04:09:21.222Z,,0,2,,2987.268999994034,response,ISIC_0057089.JPG,8,ISIC_0054422.JPG,ISIC_0054422.JPG,false,0,keypress(z),500,409163.5,409163.09999999404,406159.165,406173.1999999881,406175.831,409175.711,8,400,36,,ISIC_0057089.JPG
break,html.Screen,4_85_1,2023-09-16T04:09:21.223Z,,0,,,NaN,,,,,,false,,,,409164.90000000596,409164.6999999881,,409163.90000000596,,409175.711,8,400,,,
break_continue,html.Screen,4_85_2,2023-09-16T04:09:21.224Z,,0,,,NaN,,,,,,false,,,,409165.2999999821,409165.1999999881,,409165,,409175.711,8,400,,,
sequence,flow.Sequence,4_85,2023-09-16T04:09:21.224Z,,0,,,2989.3689999880735,completion,,,,,false,,,,409165.5,409165.1999999881,406159.165,406173.1999999881,406175.831,409175.711,8,400,,,
trial,html.Screen,4_86_0,2023-09-16T04:09:26.526Z,,0,2,,5291.488999988069,response,ISIC_7454512.JPG,8,ISIC_8592235.JPG,ISIC_8592235.JPG,false,0,keypress(z),500,414467.59999999404,414467.1999999881,409159.045,409165.59999999404,409175.711,414476.382,8,400,37,,ISIC_7454512.JPG
break,html.Screen,4_86_1,2023-09-16T04:09:26.527Z,,0,,,NaN,,,,,,false,,,,414468.90000000596,414468.59999999404,,414467.90000000596,,414476.382,8,400,,,
break_continue,html.Screen,4_86_2,2023-09-16T04:09:26.527Z,,0,,,NaN,,,,,,false,,,,414469.2999999821,414469.1999999881,,414469,,414476.382,8,400,,,
sequence,flow.Sequence,4_86,2023-09-16T04:09:26.528Z,,0,,,5293.488999988069,completion,,,,,false,,,,414469.5,414469.1999999881,409159.045,409165.59999999404,409175.711,414476.382,8,400,,,
trial,html.Screen,4_87_0,2023-09-16T04:09:36.869Z,,0,2,,10334.618000000017,response,ISIC_0679781.JPG,8,ISIC_9241599.JPG,ISIC_9241599.JPG,false,0,keypress(z),500,424811.5,424811,414459.716,414469.6999999881,414476.382,424826.182,8,400,38,,ISIC_0679781.JPG
break,html.Screen,4_87_1,2023-09-16T04:09:36.871Z,,0,,,NaN,,,,,,false,,,,424812.7999999821,424812.5,,424811.7999999821,,424826.182,8,400,,,
break_continue,html.Screen,4_87_2,2023-09-16T04:09:36.871Z,,0,,,NaN,,,,,,false,,,,424813.2999999821,424813.1999999881,,424813,,424826.182,8,400,,,
sequence,flow.Sequence,4_87,2023-09-16T04:09:36.871Z,,0,,,10336.817999988096,completion,,,,,false,,,,424813.40000000596,424813.1999999881,414459.716,414469.59999999404,414476.382,424826.182,8,400,,,
trial,html.Screen,4_88_0,2023-09-16T04:09:39.997Z,,0,2,,3112.718000005989,response,ISIC_0024244.JPG,9,ISIC_3474609.JPG,ISIC_0024244.JPG,false,1,keypress(m),500,427939.2999999821,427938.90000000596,424809.516,424813.59999999404,424826.182,427942.724,8,400,39,,ISIC_3474609.JPG
break,html.Screen,4_88_1,2023-09-16T04:09:39.998Z,,0,,,NaN,,,,,,false,,,,427940.59999999404,427940.40000000596,,427939.6999999881,,427942.724,8,400,,,
break_continue,html.Screen,4_88_2,2023-09-16T04:09:39.999Z,,0,,,NaN,,,,,,false,,,,427941.09999999404,427941,,427940.7999999821,,427942.724,8,400,,,
sequence,flow.Sequence,4_88,2023-09-16T04:09:39.999Z,,0,,,3114.8180000000284,completion,,,,,false,,,,427941.2999999821,427941,424809.516,424813.5,424826.182,427942.724,8,400,,,
trial,html.Screen,4_89_0,2023-09-16T04:09:43.045Z,,0,2,,3043.9759999880916,response,ISIC_8901784.JPG,9,ISIC_6721869.JPG,ISIC_6721869.JPG,false,0,keypress(z),500,430987.1999999881,430986.6999999881,427926.058,427941.5,427942.724,430992.602,8,400,40,,ISIC_8901784.JPG
break,html.Screen,4_89_1,2023-09-16T04:09:43.046Z,,0,,,NaN,,,,,,false,,,,430988.40000000596,430988.1999999881,,430987.5,,430992.602,8,400,,,
break_continue,html.Screen,4_89_2,2023-09-16T04:09:43.046Z,,0,,,NaN,,,,,,false,,,,430988.90000000596,430988.6999999881,,430988.59999999404,,430992.602,8,400,,,
sequence,flow.Sequence,4_89,2023-09-16T04:09:43.047Z,,0,,,3045.9759999880916,completion,,,,,false,,,,430989.09999999404,430988.6999999881,427926.058,427941.40000000596,427942.724,430992.602,8,400,,,
trial,html.Screen,4_90_0,2023-09-16T04:09:45.844Z,,0,2,,2793.3979999999865,response,ISIC_0033452.JPG,9,ISIC_0028328.JPG,ISIC_0033452.JPG,false,1,keypress(m),500,433786.40000000596,433786,430975.936,430989.1999999881,430992.602,433792.49,8,400,41,,ISIC_0028328.JPG
break,html.Screen,4_90_1,2023-09-16T04:09:45.845Z,,0,,,NaN,,,,,,false,,,,433787.6999999881,433787.40000000596,,433786.7999999821,,433792.49,8,400,,,
break_continue,html.Screen,4_90_2,2023-09-16T04:09:45.846Z,,0,,,NaN,,,,,,false,,,,433788.09999999404,433788,,433787.90000000596,,433792.49,8,400,,,
sequence,flow.Sequence,4_90,2023-09-16T04:09:45.846Z,,0,,,2795.3979999999865,completion,,,,,false,,,,433788.2999999821,433788,430975.936,430989.1999999881,430992.602,433792.49,8,400,,,
trial,html.Screen,4_91_0,2023-09-16T04:09:49.645Z,,0,2,,3795.0100000000093,response,ISIC_8174951.JPG,9,ISIC_0010011.JPG,ISIC_8174951.JPG,false,1,keypress(m),500,437587.90000000596,437587.5,433775.824,433788.5,433792.49,437593.595,8,400,42,,ISIC_0010011.JPG
break,html.Screen,4_91_1,2023-09-16T04:09:49.647Z,,0,,,NaN,,,,,,false,,,,437589.2999999821,437588.90000000596,,437588.1999999881,,437593.595,8,400,,,
break_continue,html.Screen,4_91_2,2023-09-16T04:09:49.647Z,,0,,,NaN,,,,,,false,,,,437589.59999999404,437589.5,,437589.40000000596,,437593.595,8,400,,,
sequence,flow.Sequence,4_91,2023-09-16T04:09:49.647Z,,0,,,3797.0100000000093,completion,,,,,false,,,,437589.7999999821,437589.5,433775.824,433788.5,433792.49,437593.595,8,400,,,
trial,html.Screen,4_92_0,2023-09-16T04:09:53.268Z,,0,2,,3617.2049999821465,response,ISIC_5518557.JPG,9,ISIC_0032847.JPG,ISIC_0032847.JPG,false,0,keypress(z),500,441211.2999999821,441210.7999999821,437576.929,437589.90000000596,437593.595,441226.783,8,400,43,,ISIC_5518557.JPG
break,html.Screen,4_92_1,2023-09-16T04:09:53.270Z,,0,,,NaN,,,,,,false,,,,441212.6999999881,441212.5,,441211.59999999404,,441226.783,8,400,,,
break_continue,html.Screen,4_92_2,2023-09-16T04:09:53.270Z,,0,,,NaN,,,,,,false,,,,441213,441213,,441212.7999999821,,441226.783,8,400,,,
sequence,flow.Sequence,4_92,2023-09-16T04:09:53.270Z,,0,,,3619.405000000028,completion,,,,,false,,,,441213.1999999881,441213,437576.929,437589.90000000596,437593.595,441226.783,8,400,,,
trial,html.Screen,4_93_0,2023-09-16T04:09:56.189Z,,0,2,,2904.217000000004,response,ISIC_0072865.JPG,8,ISIC_5557806.JPG,ISIC_0072865.JPG,false,1,keypress(m),500,444131.5,444131,441210.117,441213.40000000596,441226.783,444143.333,8,400,44,,ISIC_5557806.JPG
break,html.Screen,4_93_1,2023-09-16T04:09:56.190Z,,0,,,NaN,,,,,,false,,,,444132.6999999881,444132.5,,444131.7999999821,,444143.333,8,400,,,
break_continue,html.Screen,4_93_2,2023-09-16T04:09:56.190Z,,0,,,NaN,,,,,,false,,,,444133.1999999881,444133.09999999404,,444132.90000000596,,444143.333,8,400,,,
sequence,flow.Sequence,4_93,2023-09-16T04:09:56.190Z,,0,,,2906.3169999940437,completion,,,,,false,,,,444133.40000000596,444133.09999999404,441210.117,441213.40000000596,441226.783,444143.333,8,400,,,
trial,html.Screen,4_94_0,2023-09-16T04:09:59.301Z,,0,2,,3100.366999988095,response,ISIC_0064279.JPG,7,ISIC_0692990.JPG,ISIC_0064279.JPG,false,1,keypress(m),500,447244.1999999881,447243.6999999881,444126.667,444133.5,444143.333,447260.717,8,400,45,,ISIC_0692990.JPG
break,html.Screen,4_94_1,2023-09-16T04:09:59.303Z,,0,,,NaN,,,,,,false,,,,447245.5,447245.1999999881,,447244.5,,447260.717,8,400,,,
break_continue,html.Screen,4_94_2,2023-09-16T04:09:59.303Z,,0,,,NaN,,,,,,false,,,,447246,447245.7999999821,,447245.6999999881,,447260.717,8,400,,,
sequence,flow.Sequence,4_94,2023-09-16T04:09:59.303Z,,0,,,3102.4669999821344,completion,,,,,false,,,,447246.1999999881,447245.7999999821,444126.667,444133.40000000596,444143.333,447260.717,8,400,,,
trial,html.Screen,4_95_0,2023-09-16T04:10:03.228Z,,0,2,,3909.6830000059563,response,ISIC_7601403.JPG,8,ISIC_0000240.JPG,ISIC_7601403.JPG,false,1,keypress(m),500,451170.90000000596,451170.40000000596,447244.051,447246.40000000596,447260.717,451193.893,8,400,46,,ISIC_0000240.JPG
break,html.Screen,4_95_1,2023-09-16T04:10:03.229Z,,0,,,NaN,,,,,,false,,,,451172.1999999881,451172,,451171.1999999881,,451193.893,8,400,,,
break_continue,html.Screen,4_95_2,2023-09-16T04:10:03.229Z,,0,,,NaN,,,,,,false,,,,451172.59999999404,451172.5,,451172.40000000596,,451193.893,8,400,,,
sequence,flow.Sequence,4_95,2023-09-16T04:10:03.230Z,,0,,,3911.782999999996,completion,,,,,false,,,,451172.6999999881,451172.5,447244.051,447246.2999999821,447260.717,451193.893,8,400,,,
trial,html.Screen,4_96_0,2023-09-16T04:10:06.501Z,,0,2,,3249.607000000018,response,ISIC_0011336.JPG,10,ISIC_0014349.JPG,ISIC_0014349.JPG,false,0,keypress(z),500,454444,454443.5,451177.227,451172.90000000596,451193.893,454460.429,8,400,47,,ISIC_0011336.JPG
break,html.Screen,4_96_1,2023-09-16T04:10:06.502Z,,0,,,NaN,,,,,,false,,,,454445.1999999881,454444.90000000596,,454444.1999999881,,454460.429,8,400,,,
break_continue,html.Screen,4_96_2,2023-09-16T04:10:06.502Z,,0,,,NaN,,,,,,false,,,,454445.59999999404,454445.5,,454445.2999999821,,454460.429,8,400,,,
sequence,flow.Sequence,4_96,2023-09-16T04:10:06.503Z,,0,,,3251.607000000018,completion,,,,,false,,,,454445.7999999821,454445.5,451177.227,451172.90000000596,451193.893,454460.429,8,400,,,
trial,html.Screen,4_97_0,2023-09-16T04:10:10.699Z,,0,2,,4181.870999982115,response,ISIC_0068924.JPG,8,ISIC_0003068.JPG,ISIC_0068924.JPG,false,1,keypress(m),500,458642.6999999881,458642.2999999821,454443.763,454446,454460.429,458644.351,8,400,48,,ISIC_0003068.JPG
break,html.Screen,4_97_1,2023-09-16T04:10:10.701Z,,0,,,NaN,,,,,,false,,,,458644,458643.6999999881,,458643,,458644.351,8,400,,,
break_continue,html.Screen,4_97_2,2023-09-16T04:10:10.701Z,,0,,,NaN,,,,,,false,,,,458644.40000000596,458644.1999999881,,458644.09999999404,,458644.351,8,400,,,
sequence,flow.Sequence,4_97,2023-09-16T04:10:10.701Z,,0,,,4183.770999988075,completion,,,,,false,,,,458644.59999999404,458644.1999999881,454443.763,454446,454460.429,458644.351,8,400,,,
trial,html.Screen,4_98_0,2023-09-16T04:10:13.876Z,,0,2,,3175.148999999976,response,ISIC_5529924.JPG,10,ISIC_0011630.JPG,ISIC_5529924.JPG,false,1,keypress(m),500,461820,461819.5,458627.685,458644.7999999821,458644.351,461827.557,8,400,49,,ISIC_0011630.JPG
break,html.Screen,4_98_1,2023-09-16T04:10:13.878Z,,0,,,NaN,,,,,,false,,,,461821.2999999821,461821,,461820.2999999821,,461827.557,8,400,,,
break_continue,html.Screen,4_98_2,2023-09-16T04:10:13.878Z,,0,,,NaN,,,,,,false,,,,461821.6999999881,461821.59999999404,,461821.5,,461827.557,8,400,,,
sequence,flow.Sequence,4_98,2023-09-16T04:10:13.878Z,,0,,,3177.2489999940153,completion,,,,,false,,,,461821.90000000596,461821.59999999404,458627.685,458644.6999999881,458644.351,461827.557,8,400,,,
trial,html.Screen,4_99_0,2023-09-16T04:10:17.612Z,,0,2,,3727.6429999881075,response,ISIC_7507286.JPG,8,ISIC_9688534.JPG,ISIC_7507286.JPG,false,1,keypress(m),500,465555.5,465555.1999999881,461810.891,461822,461827.557,465560.741,8,400,50,,ISIC_9688534.JPG
break,html.Screen,4_99_1,2023-09-16T04:10:27.603Z,,0,,,10000.31700000004,timeout,,,,,false,,,,475546.5,475544.392,465544.075,465555.7999999821,465560.741,475561.058,8,400,,,
break_continue,html.Screen,4_99_2,2023-09-16T04:11:03.429Z,,0,,,35797.64199998806,response,,,,,false,continue,keypress(Space),,511374.6999999881,511358.6999999881,475544.392,475546.7999999821,475561.058,511377.073,8,400,,,
sequence,flow.Sequence,4_99,2023-09-16T04:11:03.430Z,,0,,,49531.14299998811,completion,,,,,false,,,,511374.90000000596,511358.6999999881,461810.891,461822,461827.557,511377.073,8,400,,,
trial,html.Screen,4_100_0,2023-09-16T04:11:08.258Z,,0,3,,4826.327000005986,response,ISIC_7953039.JPG,7,ISIC_0070061.JPG,ISIC_0070061.JPG,false,0,keypress(z),500,516204,516203.40000000596,511360.407,511375,511377.073,516212.583,8,400,1,,ISIC_7953039.JPG
break,html.Screen,4_100_1,2023-09-16T04:11:08.260Z,,0,,,NaN,,,,,,false,,,,516205.1999999881,516205,,516204.1999999881,,516212.583,8,400,,,
break_continue,html.Screen,4_100_2,2023-09-16T04:11:08.260Z,,0,,,NaN,,,,,,false,,,,516205.6999999881,516205.59999999404,,516205.5,,516212.583,8,400,,,
sequence,flow.Sequence,4_100,2023-09-16T04:11:08.260Z,,0,,,4828.526999994065,completion,,,,,false,,,,516205.90000000596,516205.59999999404,511360.407,511374.90000000596,511377.073,516212.583,8,400,,,
trial,html.Screen,4_101_0,2023-09-16T04:11:11.266Z,,0,3,,2998.5169999940554,response,ISIC_0064986.JPG,7,ISIC_6024335.JPG,ISIC_0064986.JPG,false,1,keypress(m),500,519211.59999999404,519211.09999999404,516195.917,516206,516212.583,519229.129,8,400,2,,ISIC_6024335.JPG
break,html.Screen,4_101_1,2023-09-16T04:11:11.267Z,,0,,,NaN,,,,,,false,,,,519212.90000000596,519212.6999999881,,519212,,519229.129,8,400,,,
break_continue,html.Screen,4_101_2,2023-09-16T04:11:11.268Z,,0,,,NaN,,,,,,false,,,,519213.2999999821,519213.2999999821,,519213,,519229.129,8,400,,,
sequence,flow.Sequence,4_101,2023-09-16T04:11:11.268Z,,0,,,3000.7169999821344,completion,,,,,false,,,,519213.5,519213.2999999821,516195.917,516206,516212.583,519229.129,8,400,,,
trial,html.Screen,4_102_0,2023-09-16T04:11:14.353Z,,0,3,,3068.8709999999846,response,ISIC_0073015.JPG,8,ISIC_0034094.JPG,ISIC_0034094.JPG,false,0,keypress(z),500,522298.59999999404,522298,519212.463,519213.59999999404,519229.129,522313.319,8,400,3,,ISIC_0073015.JPG
break,html.Screen,4_102_1,2023-09-16T04:11:14.354Z,,0,,,NaN,,,,,,false,,,,522299.90000000596,522299.59999999404,,522298.90000000596,,522313.319,8,400,,,
break_continue,html.Screen,4_102_2,2023-09-16T04:11:14.355Z,,0,,,NaN,,,,,,false,,,,522300.2999999821,522300.1999999881,,522300,,522313.319,8,400,,,
sequence,flow.Sequence,4_102,2023-09-16T04:11:14.355Z,,0,,,3071.0709999880637,completion,,,,,false,,,,522300.5,522300.1999999881,519212.463,519213.59999999404,519229.129,522313.319,8,400,,,
trial,html.Screen,4_103_0,2023-09-16T04:11:18.026Z,,0,3,,3657.8809999880614,response,ISIC_3346045.JPG,9,ISIC_0053611.JPG,ISIC_0053611.JPG,false,0,keypress(z),500,525971.599999994,525971.1999999881,522296.653,522300.59999999404,522313.319,525979.839,8,400,4,,ISIC_3346045.JPG
break,html.Screen,4_103_1,2023-09-16T04:11:18.027Z,,0,,,NaN,,,,,,false,,,,525972.7999999821,525972.599999994,,525971.7999999821,,525979.839,8,400,,,
break_continue,html.Screen,4_103_2,2023-09-16T04:11:18.027Z,,0,,,NaN,,,,,,false,,,,525973.1999999881,525973.099999994,,525972.900000006,,525979.839,8,400,,,
sequence,flow.Sequence,4_103,2023-09-16T04:11:18.028Z,,0,,,3659.780999994022,completion,,,,,false,,,,525973.400000006,525973.099999994,522296.653,522300.59999999404,522313.319,525979.839,8,400,,,
trial,html.Screen,4_104_0,2023-09-16T04:11:21.642Z,,0,3,,3607.3609999880427,response,ISIC_0010308.JPG,9,ISIC_0054963.JPG,ISIC_0010308.JPG,false,1,keypress(m),500,529587.599999994,529587.1999999881,525963.173,525973.599999994,525979.839,529596.361,8,400,5,,ISIC_0054963.JPG
break,html.Screen,4_104_1,2023-09-16T04:11:21.643Z,,0,,,NaN,,,,,,false,,,,529588.900000006,529588.6999999881,,529587.900000006,,529596.361,8,400,,,
break_continue,html.Screen,4_104_2,2023-09-16T04:11:21.643Z,,0,,,NaN,,,,,,false,,,,529589.2999999821,529589.2999999821,,529589.099999994,,529596.361,8,400,,,
sequence,flow.Sequence,4_104,2023-09-16T04:11:21.644Z,,0,,,3609.4609999820823,completion,,,,,false,,,,529589.599999994,529589.2999999821,525963.173,525973.5,525979.839,529596.361,8,400,,,
trial,html.Screen,4_105_0,2023-09-16T04:11:26.193Z,,0,3,,4542.438999982085,response,ISIC_0062463.JPG,8,ISIC_5017874.JPG,ISIC_5017874.JPG,false,0,keypress(z),500,534139.2999999821,534138.7999999821,529579.695,529589.6999999881,529596.361,534146.947,8,400,6,,ISIC_0062463.JPG
break,html.Screen,4_105_1,2023-09-16T04:11:26.194Z,,0,,,NaN,,,,,,false,,,,534140.5,534140.1999999881,,534139.599999994,,534146.947,8,400,,,
break_continue,html.Screen,4_105_2,2023-09-16T04:11:26.195Z,,0,,,NaN,,,,,,false,,,,534140.900000006,534140.900000006,,534140.6999999881,,534146.947,8,400,,,
sequence,flow.Sequence,4_105,2023-09-16T04:11:26.195Z,,0,,,4544.539000005927,completion,,,,,false,,,,534141.1999999881,534140.900000006,529579.695,529589.599999994,529596.361,534146.947,8,400,,,
trial,html.Screen,4_106_0,2023-09-16T04:11:29.385Z,,0,3,,3183.852999982075,response,ISIC_0055241.JPG,9,ISIC_2664946.JPG,ISIC_0055241.JPG,false,1,keypress(m),500,537331.1999999881,537330.7999999821,534130.281,534141.2999999821,534146.947,537346.819,8,400,7,,ISIC_2664946.JPG
break,html.Screen,4_106_1,2023-09-16T04:11:29.386Z,,0,,,NaN,,,,,,false,,,,537332.599999994,537332.2999999821,,537331.5,,537346.819,8,400,,,
break_continue,html.Screen,4_106_2,2023-09-16T04:11:29.387Z,,0,,,NaN,,,,,,false,,,,537332.900000006,537332.900000006,,537332.599999994,,537346.819,8,400,,,
sequence,flow.Sequence,4_106,2023-09-16T04:11:29.387Z,,0,,,3185.9530000059167,completion,,,,,false,,,,537333.099999994,537332.900000006,534130.281,534141.2999999821,534146.947,537346.819,8,400,,,
trial,html.Screen,4_107_0,2023-09-16T04:11:32.289Z,,0,3,,2888.3809999880614,response,ISIC_4320200.JPG,8,ISIC_0029868.JPG,ISIC_4320200.JPG,false,1,keypress(m),500,540235.6999999881,540235.1999999881,537330.153,537333.1999999881,537346.819,540246.703,8,400,8,,ISIC_0029868.JPG
break,html.Screen,4_107_1,2023-09-16T04:11:32.291Z,,0,,,NaN,,,,,,false,,,,540236.900000006,540236.6999999881,,540236,,540246.703,8,400,,,
break_continue,html.Screen,4_107_2,2023-09-16T04:11:32.291Z,,0,,,NaN,,,,,,false,,,,540237.400000006,540237.2999999821,,540237.099999994,,540246.703,8,400,,,
sequence,flow.Sequence,4_107,2023-09-16T04:11:32.291Z,,0,,,2890.480999982101,completion,,,,,false,,,,540237.599999994,540237.2999999821,537330.153,537333.1999999881,537346.819,540246.703,8,400,,,
trial,html.Screen,4_108_0,2023-09-16T04:11:35.321Z,,0,3,,3020.39699999406,response,ISIC_7349440.JPG,9,ISIC_0653706.JPG,ISIC_0653706.JPG,false,0,keypress(z),500,543267.599999994,543267.099999994,540230.037,540237.6999999881,540246.703,543280.705,8,400,9,,ISIC_7349440.JPG
break,html.Screen,4_108_1,2023-09-16T04:11:35.322Z,,0,,,NaN,,,,,,false,,,,543268.900000006,543268.599999994,,543267.7999999821,,543280.705,8,400,,,
break_continue,html.Screen,4_108_2,2023-09-16T04:11:35.323Z,,0,,,NaN,,,,,,false,,,,543269.400000006,543269.2999999821,,543269,,543280.705,8,400,,,
sequence,flow.Sequence,4_108,2023-09-16T04:11:35.323Z,,0,,,3022.596999982139,completion,,,,,false,,,,543269.5,543269.2999999821,540230.037,540237.6999999881,540246.703,543280.705,8,400,,,
trial,html.Screen,4_109_0,2023-09-16T04:11:38.050Z,,0,3,,2714.994999988121,response,ISIC_0952221.JPG,9,ISIC_0064821.JPG,ISIC_0064821.JPG,false,0,keypress(z),500,545996.1999999881,545995.6999999881,543264.039,543269.599999994,543280.705,545997.263,8,400,10,,ISIC_0952221.JPG
break,html.Screen,4_109_1,2023-09-16T04:11:38.051Z,,0,,,NaN,,,,,,false,,,,545997.599999994,545997.2999999821,,545996.5,,545997.263,8,400,,,
break_continue,html.Screen,4_109_2,2023-09-16T04:11:38.051Z,,0,,,NaN,,,,,,false,,,,545998,545997.7999999821,,545997.6999999881,,545997.263,8,400,,,
sequence,flow.Sequence,4_109,2023-09-16T04:11:38.052Z,,0,,,2717.0949999821605,completion,,,,,false,,,,545998.1999999881,545997.7999999821,543264.039,543269.5,543280.705,545997.263,8,400,,,
trial,html.Screen,4_110_0,2023-09-16T04:11:40.768Z,,0,3,,2716.7369999999646,response,ISIC_8197240.JPG,7,ISIC_0060972.JPG,ISIC_0060972.JPG,false,0,keypress(z),500,548714.5,548714,545980.597,545998.1999999881,545997.263,548730.487,8,400,11,,ISIC_8197240.JPG
break,html.Screen,4_110_1,2023-09-16T04:11:40.769Z,,0,,,NaN,,,,,,false,,,,548715.900000006,548715.599999994,,548714.7999999821,,548730.487,8,400,,,
break_continue,html.Screen,4_110_2,2023-09-16T04:11:40.770Z,,0,,,NaN,,,,,,false,,,,548716.400000006,548716.1999999881,,548716,,548730.487,8,400,,,
sequence,flow.Sequence,4_110,2023-09-16T04:11:40.770Z,,0,,,2718.9369999880437,completion,,,,,false,,,,548716.5,548716.1999999881,545980.597,545998.1999999881,545997.263,548730.487,8,400,,,
trial,html.Screen,4_111_0,2023-09-16T04:11:43.801Z,,0,3,,3016.312999982154,response,ISIC_0773096.JPG,10,ISIC_0015079.JPG,ISIC_0015079.JPG,false,0,keypress(z),500,551747.2999999821,551746.7999999821,548713.821,548716.6999999881,548730.487,551763.699,8,400,12,,ISIC_0773096.JPG
break,html.Screen,4_111_1,2023-09-16T04:11:43.802Z,,0,,,NaN,,,,,,false,,,,551748.5,551748.2999999821,,551747.599999994,,551763.699,8,400,,,
break_continue,html.Screen,4_111_2,2023-09-16T04:11:43.802Z,,0,,,NaN,,,,,,false,,,,551748.900000006,551748.7999999821,,551748.599999994,,551763.699,8,400,,,
sequence,flow.Sequence,4_111,2023-09-16T04:11:43.802Z,,0,,,3018.312999982154,completion,,,,,false,,,,551749.099999994,551748.7999999821,548713.821,548716.599999994,548730.487,551763.699,8,400,,,
trial,html.Screen,4_112_0,2023-09-16T04:11:46.720Z,,0,3,,2903.400999994017,response,ISIC_0025138.JPG,9,ISIC_8617084.JPG,ISIC_0025138.JPG,false,1,keypress(m),500,554667.2999999821,554667.099999994,551747.033,551749.1999999881,551763.699,554681.066,8,400,13,,ISIC_8617084.JPG
break,html.Screen,4_112_1,2023-09-16T04:11:46.721Z,,0,,,NaN,,,,,,false,,,,554667.900000006,554667.7999999821,,554667.5,,554681.066,8,400,,,
break_continue,html.Screen,4_112_2,2023-09-16T04:11:46.721Z,,0,,,NaN,,,,,,false,,,,554668.099999994,554668,,554667.900000006,,554681.066,8,400,,,
sequence,flow.Sequence,4_112,2023-09-16T04:11:46.721Z,,0,,,2904.3009999999776,completion,,,,,false,,,,554668.1999999881,554668,551747.033,551749.1999999881,551763.699,554681.066,8,400,,,
trial,html.Screen,4_113_0,2023-09-16T04:11:50.639Z,,0,3,,3904.334000005969,response,ISIC_0033175.JPG,10,ISIC_8687105.JPG,ISIC_0033175.JPG,false,1,keypress(m),500,558585.900000006,558585.400000006,554664.4,554668.1999999881,554681.066,558614.242,8,400,14,,ISIC_8687105.JPG
break,html.Screen,4_113_1,2023-09-16T04:11:50.640Z,,0,,,NaN,,,,,,false,,,,558587.2999999821,558587,,558586.1999999881,,558614.242,8,400,,,
break_continue,html.Screen,4_113_2,2023-09-16T04:11:50.641Z,,0,,,NaN,,,,,,false,,,,558587.6999999881,558587.599999994,,558587.400000006,,558614.242,8,400,,,
sequence,flow.Sequence,4_113,2023-09-16T04:11:50.641Z,,0,,,3906.533999994048,completion,,,,,false,,,,558587.7999999821,558587.599999994,554664.4,554668.1999999881,554681.066,558614.242,8,400,,,
trial,html.Screen,4_114_0,2023-09-16T04:11:54.016Z,,0,3,,3348.45799998811,response,ISIC_0046537.JPG,10,ISIC_0000056.JPG,ISIC_0000056.JPG,false,0,keypress(z),500,561963.099999994,561962.6999999881,558597.576,558588,558614.242,561980.774,8,400,15,,ISIC_0046537.JPG
break,html.Screen,4_114_1,2023-09-16T04:11:54.017Z,,0,,,NaN,,,,,,false,,,,561964.5,561964.1999999881,,561963.400000006,,561980.774,8,400,,,
break_continue,html.Screen,4_114_2,2023-09-16T04:11:54.018Z,,0,,,NaN,,,,,,false,,,,561964.900000006,561964.7999999821,,561964.599999994,,561980.774,8,400,,,
sequence,flow.Sequence,4_114,2023-09-16T04:11:54.018Z,,0,,,3350.5579999821493,completion,,,,,false,,,,561965.1999999881,561964.7999999821,558597.576,558587.900000006,558614.242,561980.774,8,400,,,
trial,html.Screen,4_115_0,2023-09-16T04:11:57.120Z,,0,3,,3086.1260000059847,response,ISIC_0013639.JPG,9,ISIC_0033819.JPG,ISIC_0013639.JPG,false,1,keypress(m),500,565067.400000006,565066.900000006,561964.108,561965.400000006,561980.774,565081.333,8,400,16,,ISIC_0033819.JPG
break,html.Screen,4_115_1,2023-09-16T04:11:57.121Z,,0,,,NaN,,,,,,false,,,,565068.6999999881,565068.400000006,,565067.6999999881,,565081.333,8,400,,,
break_continue,html.Screen,4_115_2,2023-09-16T04:11:57.122Z,,0,,,NaN,,,,,,false,,,,565069.099999994,565068.900000006,,565068.7999999821,,565081.333,8,400,,,
sequence,flow.Sequence,4_115,2023-09-16T04:11:57.122Z,,0,,,3088.1260000059847,completion,,,,,false,,,,565069.2999999821,565068.900000006,561964.108,561965.2999999821,561980.774,565081.333,8,400,,,
trial,html.Screen,4_116_0,2023-09-16T04:12:01.096Z,,0,3,,3961.366999988095,response,ISIC_9045601.JPG,8,ISIC_1937197.JPG,ISIC_1937197.JPG,false,0,keypress(z),500,569043.1999999881,569042.6999999881,565064.667,565069.400000006,565081.333,569047.841,8,400,17,,ISIC_9045601.JPG
break,html.Screen,4_116_1,2023-09-16T04:12:01.097Z,,0,,,NaN,,,,,,false,,,,569044.5,569044.2999999821,,569043.599999994,,569047.841,8,400,,,
break_continue,html.Screen,4_116_2,2023-09-16T04:12:01.098Z,,0,,,NaN,,,,,,false,,,,569045,569044.900000006,,569044.6999999881,,569047.841,8,400,,,
sequence,flow.Sequence,4_116,2023-09-16T04:12:01.098Z,,0,,,3963.5670000059763,completion,,,,,false,,,,569045.1999999881,569044.900000006,565064.667,565069.400000006,565081.333,569047.841,8,400,,,
trial,html.Screen,4_117_0,2023-09-16T04:12:04.088Z,,0,3,,2987.358999988064,response,ISIC_0013530.JPG,9,ISIC_0011504.JPG,ISIC_0013530.JPG,false,1,keypress(m),500,572035.900000006,572035.1999999881,569031.175,569045.2999999821,569047.841,572047.721,8,400,18,,ISIC_0011504.JPG
break,html.Screen,4_117_1,2023-09-16T04:12:04.090Z,,0,,,NaN,,,,,,false,,,,572037.1999999881,572037,,572036.1999999881,,572047.721,8,400,,,
break_continue,html.Screen,4_117_2,2023-09-16T04:12:04.090Z,,0,,,NaN,,,,,,false,,,,572037.6999999881,572037.5,,572037.400000006,,572047.721,8,400,,,
sequence,flow.Sequence,4_117,2023-09-16T04:12:04.090Z,,0,,,2989.658999999985,completion,,,,,false,,,,572037.7999999821,572037.5,569031.175,569045.1999999881,569047.841,572047.721,8,400,,,
trial,html.Screen,4_118_0,2023-09-16T04:12:08.743Z,,0,3,,4642.578999982099,response,ISIC_0000473.JPG,8,ISIC_0001875.JPG,ISIC_0000473.JPG,false,1,keypress(m),500,576690.5,576690.2999999821,572031.055,572038.099999994,572047.721,576698.357,8,400,19,,ISIC_0001875.JPG
break,html.Screen,4_118_1,2023-09-16T04:12:08.743Z,,0,,,NaN,,,,,,false,,,,576691,576690.7999999821,,576690.599999994,,576698.357,8,400,,,
break_continue,html.Screen,4_118_2,2023-09-16T04:12:08.743Z,,0,,,NaN,,,,,,false,,,,576691.099999994,576691.099999994,,576691,,576698.357,8,400,,,
sequence,flow.Sequence,4_118,2023-09-16T04:12:08.744Z,,0,,,4643.37899999402,completion,,,,,false,,,,576691.1999999881,576691.099999994,572031.055,572038,572047.721,576698.357,8,400,,,
trial,html.Screen,4_119_0,2023-09-16T04:12:12.208Z,,0,3,,3456.7429999940796,response,ISIC_0033427.JPG,11,ISIC_8135400.JPG,ISIC_8135400.JPG,false,0,keypress(z),500,580155.599999994,580155.099999994,576681.691,576691.1999999881,576698.357,580164.885,8,400,20,,ISIC_0033427.JPG
break,html.Screen,4_119_1,2023-09-16T04:12:12.209Z,,0,,,NaN,,,,,,false,,,,580156.7999999821,580156.599999994,,580155.7999999821,,580164.885,8,400,,,
break_continue,html.Screen,4_119_2,2023-09-16T04:12:12.210Z,,0,,,NaN,,,,,,false,,,,580157.1999999881,580157.1999999881,,580157,,580164.885,8,400,,,
sequence,flow.Sequence,4_119,2023-09-16T04:12:12.210Z,,0,,,3458.842999988119,completion,,,,,false,,,,580157.400000006,580157.1999999881,576681.691,576691.1999999881,576698.357,580164.885,8,400,,,
trial,html.Screen,4_120_0,2023-09-16T04:12:16.080Z,,0,3,,3862.4149999821093,response,ISIC_5768749.JPG,8,ISIC_5659295.JPG,ISIC_5659295.JPG,false,0,keypress(z),500,584027.7999999821,584027.2999999821,580148.219,580157.599999994,580164.885,584032.172,8,400,21,,ISIC_5768749.JPG
break,html.Screen,4_120_1,2023-09-16T04:12:16.081Z,,0,,,NaN,,,,,,false,,,,584029.099999994,584028.900000006,,584028.1999999881,,584032.172,8,400,,,
break_continue,html.Screen,4_120_2,2023-09-16T04:12:16.082Z,,0,,,NaN,,,,,,false,,,,584029.599999994,584029.400000006,,584029.2999999821,,584032.172,8,400,,,
sequence,flow.Sequence,4_120,2023-09-16T04:12:16.082Z,,0,,,3864.515000005951,completion,,,,,false,,,,584029.6999999881,584029.400000006,580148.219,580157.5,580164.885,584032.172,8,400,,,
trial,html.Screen,4_121_0,2023-09-16T04:12:19.439Z,,0,3,,3353.927999994019,response,ISIC_1962845.JPG,8,ISIC_2202486.JPG,ISIC_1962845.JPG,false,1,keypress(m),500,587386.599999994,587386.099999994,584015.506,584030,584032.172,587398.704,8,400,22,,ISIC_2202486.JPG
break,html.Screen,4_121_1,2023-09-16T04:12:19.440Z,,0,,,NaN,,,,,,false,,,,587387.900000006,587387.599999994,,587386.7999999821,,587398.704,8,400,,,
break_continue,html.Screen,4_121_2,2023-09-16T04:12:19.440Z,,0,,,NaN,,,,,,false,,,,587388.1999999881,587388.099999994,,587388,,587398.704,8,400,,,
sequence,flow.Sequence,4_121,2023-09-16T04:12:19.440Z,,0,,,3355.927999994019,completion,,,,,false,,,,587388.400000006,587388.099999994,584015.506,584029.900000006,584032.172,587398.704,8,400,,,
trial,html.Screen,4_122_0,2023-09-16T04:12:24.160Z,,0,3,,4708.8959999940125,response,ISIC_0014657.JPG,9,ISIC_2311665.JPG,ISIC_2311665.JPG,false,0,keypress(z),500,592108.099999994,592107.599999994,587382.038,587388.599999994,587398.704,592115.182,8,400,23,,ISIC_0014657.JPG
break,html.Screen,4_122_1,2023-09-16T04:12:24.161Z,,0,,,NaN,,,,,,false,,,,592109.2999999821,592109.099999994,,592108.2999999821,,592115.182,8,400,,,
break_continue,html.Screen,4_122_2,2023-09-16T04:12:24.162Z,,0,,,NaN,,,,,,false,,,,592109.7999999821,592109.599999994,,592109.5,,592115.182,8,400,,,
sequence,flow.Sequence,4_122,2023-09-16T04:12:24.162Z,,0,,,4710.8959999940125,completion,,,,,false,,,,592110,592109.599999994,587382.038,587388.5,587398.704,592115.182,8,400,,,
trial,html.Screen,4_123_0,2023-09-16T04:12:27.520Z,,0,3,,3352.31799999997,response,ISIC_6919856.JPG,7,ISIC_0028326.JPG,ISIC_0028326.JPG,false,0,keypress(z),500,595468,595467.5,592098.516,592110.1999999881,592115.182,595482.465,8,400,24,,ISIC_6919856.JPG
break,html.Screen,4_123_1,2023-09-16T04:12:27.521Z,,0,,,NaN,,,,,,false,,,,595469.2999999821,595469.099999994,,595468.2999999821,,595482.465,8,400,,,
break_continue,html.Screen,4_123_2,2023-09-16T04:12:27.521Z,,0,,,NaN,,,,,,false,,,,595469.7999999821,595469.6999999881,,595469.400000006,,595482.465,8,400,,,
sequence,flow.Sequence,4_123,2023-09-16T04:12:27.522Z,,0,,,3354.5179999880493,completion,,,,,false,,,,595469.900000006,595469.6999999881,592098.516,592110.1999999881,592115.182,595482.465,8,400,,,
trial,html.Screen,4_124_0,2023-09-16T04:12:31.351Z,,0,3,,3816.5350000000326,response,ISIC_2006783.JPG,8,ISIC_0057164.JPG,ISIC_0057164.JPG,false,0,keypress(z),500,599299.400000006,599299,595465.799,595470,595482.465,599315.645,8,400,25,,ISIC_2006783.JPG
break,html.Screen,4_124_1,2023-09-16T04:12:31.352Z,,0,,,NaN,,,,,,false,,,,599300.599999994,599300.400000006,,599299.6999999881,,599315.645,8,400,,,
break_continue,html.Screen,4_124_2,2023-09-16T04:12:31.353Z,,0,,,NaN,,,,,,false,,,,599301,599301,,599300.7999999821,,599315.645,8,400,,,
sequence,flow.Sequence,4_124,2023-09-16T04:12:31.353Z,,0,,,3818.5350000000326,completion,,,,,false,,,,599301.1999999881,599301,595465.799,595470,595482.465,599315.645,8,400,,,
trial,html.Screen,4_125_0,2023-09-16T04:12:34.679Z,,0,3,,3311.3549999999814,response,ISIC_0060351.JPG,8,ISIC_1034397.JPG,ISIC_1034397.JPG,false,0,keypress(z),500,602627.5,602627,599298.979,599301.400000006,599315.645,602632.179,8,400,26,,ISIC_0060351.JPG
break,html.Screen,4_125_1,2023-09-16T04:12:34.680Z,,0,,,NaN,,,,,,false,,,,602629,602628.6999999881,,602627.7999999821,,602632.179,8,400,,,
break_continue,html.Screen,4_125_2,2023-09-16T04:12:34.681Z,,0,,,NaN,,,,,,false,,,,602629.400000006,602629.2999999821,,602629.1999999881,,602632.179,8,400,,,
sequence,flow.Sequence,4_125,2023-09-16T04:12:34.681Z,,0,,,3313.6549999821,completion,,,,,false,,,,602629.599999994,602629.2999999821,599298.979,599301.400000006,599315.645,602632.179,8,400,,,
trial,html.Screen,4_126_0,2023-09-16T04:12:40.399Z,,0,3,,5714.920999994036,response,ISIC_0010295.JPG,7,ISIC_0006727.JPG,ISIC_0006727.JPG,false,0,keypress(z),500,608347.6999999881,608347.099999994,602615.513,602629.7999999821,602632.179,608349.36,8,400,27,,ISIC_0010295.JPG
break,html.Screen,4_126_1,2023-09-16T04:12:40.400Z,,0,,,NaN,,,,,,false,,,,608348.900000006,608348.6999999881,,608347.900000006,,608349.36,8,400,,,
