sender,sender_type,sender_id,timestamp,meta,,blockNo,condition,duration,ended_on,img_left,img_reveal,img_right,loser,practice,response,response_action,selection_duration,time_commit,time_end,time_render,time_run,time_show,time_switch,total_blocks,total_trials,trialNo,url,winner
informed_consent,html.Screen,0,2023-10-30T22:50:50.945Z,"{""labjs_version"":""20.2.4"",""labjs_build"":{""flavor"":""production"",""commit"":""f5b4a49f956347addd546a832a3327688c2c0fef""},""location"":""https://run.pavlovia.org/MurrayBennett/melanoma-2afc/?participant=67036&platform=sona"",""userAgent"":""Mozilla/5.0 (Windows NT 10.0; Win64; x64) AppleWebKit/537.36 (KHTML, like Gecko) Chrome/118.0.0.0 Safari/537.36"",""platform"":""Win32"",""language"":""en-US"",""locale"":""en-US"",""timeZone"":""America/Chicago"",""timezoneOffset"":300,""screen_width"":1366,""screen_height"":768,""scroll_width"":1366,""scroll_height"":563,""window_innerWidth"":1366,""window_innerHeight"":611,""devicePixelRatio"":1}",,,,277523.65099995234,response,,,,,,consent,click button,,281346.2999999523,281341.2999999523,3800.821,3797.2000000476837,3817.649,281412.362,,,,"{""participant"":""67036"",""platform"":""sona""}",
Welcome,html.Screen,1,2023-10-30T23:17:02.331Z,,,,regular,1571293.3380000477,response,,,,,,continue,click button,,1852730.5,1852705.7000000477,281328.834,281347.5,281412.362,1852760.642,,,,,
trial,html.Screen,2_0_0,2023-10-30T23:17:13.860Z,,0,0,,11522.07899999991,timeout,ISIC_4679428.JPG,,ISIC_0061792.JPG,,true,,,500,1864259.2999999523,1864258.5,1852694.104,1852737.0999999046,1852760.642,1864282.721,1,6,1,,
sequence,flow.Sequence,2_0,2023-10-30T23:17:13.861Z,,0,,,11497.858000000007,completion,,,,,true,,,,1864260.2999999523,1864258.5,1852694.104,1852735.9000000954,1852760.642,1864282.721,1,6,,,
trial,html.Screen,2_1_0,2023-10-30T23:17:20.144Z,,0,0,,6260.078999952413,response,ISIC_0776486.JPG,,ISIC_5199497.JPG,ISIC_0776486.JPG,true,1,keypress(m),500,1870543.5,1870542.7999999523,1864266.027,1864261.2000000477,1864282.721,1870559.853,1,6,2,,ISIC_5199497.JPG
sequence,flow.Sequence,2_1,2023-10-30T23:17:20.145Z,,0,,,6260.078999952413,completion,,,,,true,,,,1870544.4000000954,1870542.7999999523,1864266.027,1864260.7999999523,1864282.721,1870559.853,1,6,,,
trial,html.Screen,2_2_0,2023-10-30T23:17:25.597Z,,0,0,,5435.94699995243,response,ISIC_2556187.JPG,,ISIC_8575776.JPG,ISIC_8575776.JPG,true,0,keypress(z),500,1875996.4000000954,1875995.7999999523,1870543.976,1870544.9000000954,1870559.853,1876004.518,1,6,3,,ISIC_2556187.JPG
sequence,flow.Sequence,2_2,2023-10-30T23:17:25.598Z,,0,,,5435.94699995243,completion,,,,,true,,,,1875997.0999999046,1875995.7999999523,1870543.976,1870544.7000000477,1870559.853,1876004.518,1,6,,,
trial,html.Screen,2_3_0,2023-10-30T23:17:30.407Z,,0,0,,4801.281999952393,response,ISIC_8141769.JPG,,ISIC_9238366.JPG,ISIC_8141769.JPG,true,1,keypress(m),500,1880806.2999999523,1880805.7999999523,1875988.313,1875997.5999999046,1876004.518,1880816.476,1,6,4,,ISIC_9238366.JPG
sequence,flow.Sequence,2_3,2023-10-30T23:17:30.408Z,,0,,,4801.281999952393,completion,,,,,true,,,,1880807.2000000477,1880805.7999999523,1875988.313,1875997.5,1876004.518,1880816.476,1,6,,,
trial,html.Screen,2_4_0,2023-10-30T23:17:34.611Z,,0,0,,4193.523999999976,response,ISIC_8949026.JPG,,ISIC_9959593.JPG,ISIC_8949026.JPG,true,1,keypress(m),500,1885010.5999999046,1885010,1880800.573,1880807.7000000477,1880816.476,1885045.655,1,6,5,,ISIC_9959593.JPG
sequence,flow.Sequence,2_4,2023-10-30T23:17:34.612Z,,0,,,4193.523999999976,completion,,,,,true,,,,1885011.4000000954,1885010,1880800.573,1880807.5999999046,1880816.476,1885045.655,1,6,,,
trial,html.Screen,2_5_0,2023-10-30T23:17:38.011Z,,0,0,,3363.9449999046046,response,ISIC_0010479.JPG,,ISIC_0460240.JPG,ISIC_0010479.JPG,true,1,keypress(m),500,1888410.2000000477,1888409.5999999046,1885029.241,1885011.7999999523,1885045.655,1888425.665,1,6,6,,ISIC_0460240.JPG
sequence,flow.Sequence,2_5,2023-10-30T23:17:38.012Z,,0,,,3363.9449999046046,completion,,,,,true,,,,1888410.9000000954,1888409.5999999046,1885029.241,1885011.5999999046,1885045.655,1888425.665,1,6,,,
loop,flow.Loop,2,2023-10-30T23:17:38.013Z,,,,,35648.95799990464,completion,,,,,true,,,,1888411.7999999523,1888409.5999999046,1852694.104,1852734,1852760.642,1888425.665,1,6,,,
exp_instructions,html.Screen,3,2023-10-30T23:20:54.539Z,,,,,196514.33499999996,response,,,,,,continue,keypress(Space),,2084941.5999999046,2084940,1888409.494,1888412.5999999046,1888425.665,2084949.721,,,,,
trial,html.Screen,4_0_0,2023-10-30T23:21:00.556Z,,0,1,,6007.979000047781,response,ISIC_2685523.JPG,11,ISIC_8636706.JPG,ISIC_2685523.JPG,false,1,keypress(m),500,2090958.2000000477,2090957.7000000477,2084940.991,2084945.0999999046,2084949.721,2090960.503,8,400,1,,ISIC_8636706.JPG
break,html.Screen,4_0_1,2023-10-30T23:21:00.559Z,,0,,,NaN,,,,,,false,,,,2090961.4000000954,2090960.2999999523,,2090958.5999999046,,2090960.503,8,400,,,
break_continue,html.Screen,4_0_2,2023-10-30T23:21:00.560Z,,0,,,NaN,,,,,,false,,,,2090963,2090962.5,,2090961.9000000954,,2090960.503,8,400,,,
sequence,flow.Sequence,4_0,2023-10-30T23:21:00.561Z,,0,,,6012.779000000097,completion,,,,,false,,,,2090963.7000000477,2090962.5,2084940.991,2084943.7999999523,2084949.721,2090960.503,8,400,,,
trial,html.Screen,4_1_0,2023-10-30T23:21:06.937Z,,0,1,,6378.0969999046065,response,ISIC_2349994.JPG,7,ISIC_0066430.JPG,ISIC_0066430.JPG,false,0,keypress(z),500,2097339.0999999046,2097338.5999999046,2090944.251,2090964.5,2090960.503,2097354.219,8,400,2,,ISIC_2349994.JPG
break,html.Screen,4_1_1,2023-10-30T23:21:06.939Z,,0,,,NaN,,,,,,false,,,,2097341.5,2097340.9000000954,,2097339.5,,2097354.219,8,400,,,
break_continue,html.Screen,4_1_2,2023-10-30T23:21:06.941Z,,0,,,NaN,,,,,,false,,,,2097343.2000000477,2097342.9000000954,,2097341.7999999523,,2097354.219,8,400,,,
sequence,flow.Sequence,4_1,2023-10-30T23:21:06.941Z,,0,,,6382.397000095341,completion,,,,,false,,,,2097343.5999999046,2097342.9000000954,2090944.251,2090964,2090960.503,2097354.219,8,400,,,
trial,html.Screen,4_2_0,2023-10-30T23:21:11.944Z,,0,1,,4991.981000047643,response,ISIC_0064982.JPG,5,ISIC_0011286.JPG,ISIC_0011286.JPG,false,0,keypress(z),500,2102346.7000000477,2102346.2000000477,2097338.321,2097344,2097354.219,2102349.343,8,400,3,,ISIC_0064982.JPG
break,html.Screen,4_2_1,2023-10-30T23:21:11.946Z,,0,,,NaN,,,,,,false,,,,2102348.5999999046,2102348.2000000477,,2102347.0999999046,,2102349.343,8,400,,,
break_continue,html.Screen,4_2_2,2023-10-30T23:21:11.947Z,,0,,,NaN,,,,,,false,,,,2102349.7000000477,2102349.2000000477,,2102348.9000000954,,2102349.343,8,400,,,
sequence,flow.Sequence,4_2,2023-10-30T23:21:11.948Z,,0,,,4994.981000047643,completion,,,,,false,,,,2102350.2999999523,2102349.2000000477,2097338.321,2097343.9000000954,2097354.219,2102349.343,8,400,,,
trial,html.Screen,4_3_0,2023-10-30T23:21:17.747Z,,0,1,,5800.05700009549,response,ISIC_7519274.JPG,12,ISIC_0024367.JPG,ISIC_0024367.JPG,false,0,keypress(z),500,2108149.7999999523,2108149.4000000954,2102333.418,2102350.7000000477,2102349.343,2108160.334,8,400,4,,ISIC_7519274.JPG
break,html.Screen,4_3_1,2023-10-30T23:21:17.749Z,,0,,,NaN,,,,,,false,,,,2108151.9000000954,2108151.4000000954,,2108150.2999999523,,2108160.334,8,400,,,
break_continue,html.Screen,4_3_2,2023-10-30T23:21:17.750Z,,0,,,NaN,,,,,,false,,,,2108152.7000000477,2108152.4000000954,,2108152.0999999046,,2108160.334,8,400,,,
sequence,flow.Sequence,4_3,2023-10-30T23:21:17.751Z,,0,,,5803.05700009549,completion,,,,,false,,,,2108153.2000000477,2108152.4000000954,2102333.418,2102350.5999999046,2102349.343,2108160.334,8,400,,,
trial,html.Screen,4_4_0,2023-10-30T23:21:22.875Z,,0,1,,5116.965999952517,response,ISIC_4383671.JPG,9,ISIC_0046596.JPG,ISIC_0046596.JPG,false,0,keypress(z),500,2113277.7999999523,2113277.2999999523,2108144.08,2108153.5,2108160.334,2113288.65,8,400,5,,ISIC_4383671.JPG
break,html.Screen,4_4_1,2023-10-30T23:21:22.877Z,,0,,,NaN,,,,,,false,,,,2113279.7999999523,2113279.4000000954,,2113278.2000000477,,2113288.65,8,400,,,
break_continue,html.Screen,4_4_2,2023-10-30T23:21:22.878Z,,0,,,NaN,,,,,,false,,,,2113280.7000000477,2113280.4000000954,,2113280.0999999046,,2113288.65,8,400,,,
sequence,flow.Sequence,4_4,2023-10-30T23:21:22.879Z,,0,,,5120.066000095569,completion,,,,,false,,,,2113281.0999999046,2113280.4000000954,2108144.08,2108153.2999999523,2108160.334,2113288.65,8,400,,,
trial,html.Screen,4_5_0,2023-10-30T23:21:27.060Z,,0,1,,4173.250000095461,response,ISIC_3494219.JPG,12,ISIC_6227920.JPG,ISIC_3494219.JPG,false,1,keypress(m),500,2117462.4000000954,2117461.9000000954,2113272.655,2113281.5999999046,2113288.65,2117467.871,8,400,6,,ISIC_6227920.JPG
break,html.Screen,4_5_1,2023-10-30T23:21:27.062Z,,0,,,NaN,,,,,,false,,,,2117464.2999999523,2117463.9000000954,,2117462.7999999523,,2117467.871,8,400,,,
break_continue,html.Screen,4_5_2,2023-10-30T23:21:27.063Z,,0,,,NaN,,,,,,false,,,,2117465.0999999046,2117464.9000000954,,2117464.5999999046,,2117467.871,8,400,,,
sequence,flow.Sequence,4_5,2023-10-30T23:21:27.063Z,,0,,,4176.250000095461,completion,,,,,false,,,,2117465.5,2117464.9000000954,2113272.655,2113281.5,2113288.65,2117467.871,8,400,,,
trial,html.Screen,4_6_0,2023-10-30T23:21:31.148Z,,0,1,,4081.8290000478737,response,ISIC_0033923.JPG,7,ISIC_4936662.JPG,ISIC_0033923.JPG,false,1,keypress(m),500,2121550.0999999046,2121549.7000000477,2117451.717,2117465.7999999523,2117467.871,2121563.822,8,400,7,,ISIC_4936662.JPG
break,html.Screen,4_6_1,2023-10-30T23:21:31.150Z,,0,,,NaN,,,,,,false,,,,2121552.2999999523,2121551.7000000477,,2121550.5,,2121563.822,8,400,,,
break_continue,html.Screen,4_6_2,2023-10-30T23:21:31.151Z,,0,,,NaN,,,,,,false,,,,2121553,2121552.7999999523,,2121552.5,,2121563.822,8,400,,,
sequence,flow.Sequence,4_6,2023-10-30T23:21:31.151Z,,0,,,4084.9289999525063,completion,,,,,false,,,,2121553.5,2121552.7999999523,2117451.717,2117465.7999999523,2117467.871,2121563.822,8,400,,,
trial,html.Screen,4_7_0,2023-10-30T23:21:36.039Z,,0,1,,4877.67799999984,response,ISIC_6571597.JPG,9,ISIC_0056330.JPG,ISIC_0056330.JPG,false,0,keypress(z),500,2126441.9000000954,2126441.5,2121547.813,2121554.4000000954,2121563.822,2126459.059,8,400,8,,ISIC_6571597.JPG
break,html.Screen,4_7_1,2023-10-30T23:21:36.043Z,,0,,,NaN,,,,,,false,,,,2126445.2000000477,2126444.4000000954,,2126443,,2126459.059,8,400,,,
break_continue,html.Screen,4_7_2,2023-10-30T23:21:36.044Z,,0,,,NaN,,,,,,false,,,,2126446.2999999523,2126445.7999999523,,2126445.4000000954,,2126459.059,8,400,,,
sequence,flow.Sequence,4_7,2023-10-30T23:21:36.044Z,,0,,,4881.977999952156,completion,,,,,false,,,,2126446.7999999523,2126445.7999999523,2121547.813,2121553.7000000477,2121563.822,2126459.059,8,400,,,
trial,html.Screen,4_8_0,2023-10-30T23:21:41.301Z,,0,1,,5243.641000047792,response,ISIC_0030592.JPG,12,ISIC_0030193.JPG,ISIC_0030592.JPG,false,1,keypress(m),500,2131703.2000000477,2131702.7000000477,2126443.183,2126447,2126459.059,2131720.549,8,400,9,,ISIC_0030193.JPG
break,html.Screen,4_8_1,2023-10-30T23:21:41.303Z,,0,,,NaN,,,,,,false,,,,2131705.5999999046,2131705,,2131703.5999999046,,2131720.549,8,400,,,
break_continue,html.Screen,4_8_2,2023-10-30T23:21:41.304Z,,0,,,NaN,,,,,,false,,,,2131706.9000000954,2131706.5,,2131705.9000000954,,2131720.549,8,400,,,
sequence,flow.Sequence,4_8,2023-10-30T23:21:41.305Z,,0,,,5247.441000000108,completion,,,,,false,,,,2131707.2999999523,2131706.5,2126443.183,2126447,2126459.059,2131720.549,8,400,,,
trial,html.Screen,4_9_0,2023-10-30T23:21:46.685Z,,0,1,,5366.351000095252,response,ISIC_0098784.JPG,10,ISIC_0014117.JPG,ISIC_0014117.JPG,false,0,keypress(z),500,2137087.5,2137086.9000000954,2131704.132,2131707.5999999046,2131720.549,2137098.661,8,400,10,,ISIC_0098784.JPG
break,html.Screen,4_9_1,2023-10-30T23:21:46.687Z,,0,,,NaN,,,,,,false,,,,2137089.5999999046,2137089.0999999046,,2137088,,2137098.661,8,400,,,
break_continue,html.Screen,4_9_2,2023-10-30T23:21:46.688Z,,0,,,NaN,,,,,,false,,,,2137090.5999999046,2137090.2999999523,,2137090,,2137098.661,8,400,,,
sequence,flow.Sequence,4_9,2023-10-30T23:21:46.689Z,,0,,,5369.750999952201,completion,,,,,false,,,,2137091.0999999046,2137090.2999999523,2131704.132,2131707.5,2131720.549,2137098.661,8,400,,,
trial,html.Screen,4_10_0,2023-10-30T23:21:54.640Z,,0,1,,7938.339000000153,response,ISIC_5837098.JPG,13,ISIC_0000167.JPG,ISIC_0000167.JPG,false,0,keypress(z),500,2145037.4000000954,2145037,2137082.731,2137091.4000000954,2137098.661,2145040.841,8,400,11,,ISIC_5837098.JPG
break,html.Screen,4_10_1,2023-10-30T23:21:54.642Z,,0,,,NaN,,,,,,false,,,,2145039.4000000954,2145039,,2145037.9000000954,,2145040.841,8,400,,,
break_continue,html.Screen,4_10_2,2023-10-30T23:21:54.643Z,,0,,,NaN,,,,,,false,,,,2145040.2999999523,2145040,,2145039.5999999046,,2145040.841,8,400,,,
sequence,flow.Sequence,4_10,2023-10-30T23:21:54.643Z,,0,,,7941.339000000153,completion,,,,,false,,,,2145040.7000000477,2145040,2137082.731,2137091.2999999523,2137098.661,2145040.841,8,400,,,
trial,html.Screen,4_11_0,2023-10-30T23:22:00.795Z,,0,1,,6150.859000047669,response,ISIC_0009791.JPG,12,ISIC_0030077.JPG,ISIC_0030077.JPG,false,0,keypress(z),500,2151192.2999999523,2151191.7000000477,2145024.698,2145041.5,2145040.841,2151201.486,8,400,12,,ISIC_0009791.JPG
break,html.Screen,4_11_1,2023-10-30T23:22:00.797Z,,0,,,NaN,,,,,,false,,,,2151194.0999999046,2151193.7000000477,,2151192.5999999046,,2151201.486,8,400,,,
break_continue,html.Screen,4_11_2,2023-10-30T23:22:00.798Z,,0,,,NaN,,,,,,false,,,,2151195,2151194.7000000477,,2151194.4000000954,,2151201.486,8,400,,,
sequence,flow.Sequence,4_11,2023-10-30T23:22:00.798Z,,0,,,6153.859000047669,completion,,,,,false,,,,2151195.4000000954,2151194.7000000477,2145024.698,2145041.2999999523,2145040.841,2151201.486,8,400,,,
trial,html.Screen,4_12_0,2023-10-30T23:22:07.780Z,,0,1,,6975.414000095334,response,ISIC_0005248.JPG,6,ISIC_5552381.JPG,ISIC_5552381.JPG,false,0,keypress(z),500,2158177.2999999523,2158176.9000000954,2151185.505,2151195.7000000477,2151201.486,2158211.247,8,400,13,,ISIC_0005248.JPG
break,html.Screen,4_12_1,2023-10-30T23:22:07.783Z,,0,,,NaN,,,,,,false,,,,2158180,2158179.4000000954,,2158177.7000000477,,2158211.247,8,400,,,
break_continue,html.Screen,4_12_2,2023-10-30T23:22:07.784Z,,0,,,NaN,,,,,,false,,,,2158181.2000000477,2158180.7999999523,,2158180.5,,2158211.247,8,400,,,
sequence,flow.Sequence,4_12,2023-10-30T23:22:07.784Z,,0,,,6979.313999952283,completion,,,,,false,,,,2158181.5999999046,2158180.7999999523,2151185.505,2151195.7000000477,2151201.486,2158211.247,8,400,,,
trial,html.Screen,4_13_0,2023-10-30T23:22:16.463Z,,0,1,,8648.552999952342,response,ISIC_0029609.JPG,10,ISIC_0024275.JPG,ISIC_0029609.JPG,false,1,keypress(m),500,2166860.2000000477,2166859.7999999523,2158194.634,2158181.9000000954,2158211.247,2166869.487,8,400,14,,ISIC_0024275.JPG
break,html.Screen,4_13_1,2023-10-30T23:22:16.465Z,,0,,,NaN,,,,,,false,,,,2166862.2000000477,2166861.9000000954,,2166860.7000000477,,2166869.487,8,400,,,
break_continue,html.Screen,4_13_2,2023-10-30T23:22:16.468Z,,0,,,NaN,,,,,,false,,,,2166864.9000000954,2166862.9000000954,,2166862.5,,2166869.487,8,400,,,
sequence,flow.Sequence,4_13,2023-10-30T23:22:16.468Z,,0,,,8651.653000095394,completion,,,,,false,,,,2166865.5999999046,2166862.9000000954,2158194.634,2158181.7999999523,2158211.247,2166869.487,8,400,,,
trial,html.Screen,4_14_0,2023-10-30T23:22:22.318Z,,0,1,,5845.012999999803,response,ISIC_0031184.JPG,7,ISIC_0055246.JPG,ISIC_0055246.JPG,false,0,keypress(z),500,2172714.9000000954,2172714.5,2166852.92,2166866,2166869.487,2172730.405,8,400,15,,ISIC_0031184.JPG
break,html.Screen,4_14_1,2023-10-30T23:22:22.320Z,,0,,,NaN,,,,,,false,,,,2172717.2000000477,2172716.7000000477,,2172715.2999999523,,2172730.405,8,400,,,
break_continue,html.Screen,4_14_2,2023-10-30T23:22:22.321Z,,0,,,NaN,,,,,,false,,,,2172718.0999999046,2172717.7999999523,,2172717.5999999046,,2172730.405,8,400,,,
sequence,flow.Sequence,4_14,2023-10-30T23:22:22.321Z,,0,,,5848.312999952119,completion,,,,,false,,,,2172718.5,2172717.7999999523,2166852.92,2166865.7999999523,2166869.487,2172730.405,8,400,,,
trial,html.Screen,4_15_0,2023-10-30T23:22:28.299Z,,0,1,,5965.495000095572,response,ISIC_3410193.JPG,10,ISIC_0030237.JPG,ISIC_3410193.JPG,false,1,keypress(m),500,2178696.2999999523,2178695.9000000954,2172714.253,2172719.0999999046,2172730.405,2178707.901,8,400,16,,ISIC_0030237.JPG
break,html.Screen,4_15_1,2023-10-30T23:22:28.301Z,,0,,,NaN,,,,,,false,,,,2178698.2999999523,2178697.7999999523,,2178696.7000000477,,2178707.901,8,400,,,
break_continue,html.Screen,4_15_2,2023-10-30T23:22:28.302Z,,0,,,NaN,,,,,,false,,,,2178699.0999999046,2178698.7999999523,,2178698.5999999046,,2178707.901,8,400,,,
sequence,flow.Sequence,4_15,2023-10-30T23:22:28.302Z,,0,,,5968.394999952521,completion,,,,,false,,,,2178699.5999999046,2178698.7999999523,2172714.253,2172718.7999999523,2172730.405,2178707.901,8,400,,,
trial,html.Screen,4_16_0,2023-10-30T23:22:32.774Z,,0,1,,4462.799000047613,response,ISIC_0011789.JPG,10,ISIC_3013468.JPG,ISIC_0011789.JPG,false,1,keypress(m),500,2183171.2000000477,2183170.7000000477,2178691.754,2178700.5999999046,2178707.901,2183186.803,8,400,17,,ISIC_3013468.JPG
break,html.Screen,4_16_1,2023-10-30T23:22:32.777Z,,0,,,NaN,,,,,,false,,,,2183173.9000000954,2183173.4000000954,,2183172,,2183186.803,8,400,,,
break_continue,html.Screen,4_16_2,2023-10-30T23:22:32.777Z,,0,,,NaN,,,,,,false,,,,2183174.7999999523,2183174.5,,2183174.2000000477,,2183186.803,8,400,,,
sequence,flow.Sequence,4_16,2023-10-30T23:22:32.778Z,,0,,,4466.598999999929,completion,,,,,false,,,,2183175.2000000477,2183174.5,2178691.754,2178700.0999999046,2178707.901,2183186.803,8,400,,,
trial,html.Screen,4_17_0,2023-10-30T23:22:39.349Z,,0,1,,6558.69700000016,response,ISIC_0046361.JPG,6,ISIC_0055048.JPG,ISIC_0046361.JPG,false,1,keypress(m),500,2189746,2189745.5,2183170.199,2183175.7000000477,2183186.803,2189763.689,8,400,18,,ISIC_0055048.JPG
break,html.Screen,4_17_1,2023-10-30T23:22:39.351Z,,0,,,NaN,,,,,,false,,,,2189748.5999999046,2189748.0999999046,,2189746.4000000954,,2189763.689,8,400,,,
break_continue,html.Screen,4_17_2,2023-10-30T23:22:39.352Z,,0,,,NaN,,,,,,false,,,,2189749.7999999523,2189749.5,,2189749.0999999046,,2189763.689,8,400,,,
sequence,flow.Sequence,4_17,2023-10-30T23:22:39.353Z,,0,,,6562.69700000016,completion,,,,,false,,,,2189750.2000000477,2189749.5,2183170.199,2183175.5,2183186.803,2189763.689,8,400,,,
trial,html.Screen,4_18_0,2023-10-30T23:22:46.177Z,,0,1,,6810.711000095587,response,ISIC_8389839.JPG,10,ISIC_0067564.JPG,ISIC_0067564.JPG,false,0,keypress(z),500,2196574.9000000954,2196574.4000000954,2189731.05,2189751,2189763.689,2196590.333,8,400,19,,ISIC_8389839.JPG
break,html.Screen,4_18_1,2023-10-30T23:22:46.180Z,,0,,,NaN,,,,,,false,,,,2196577.2000000477,2196576.7000000477,,2196575.4000000954,,2196590.333,8,400,,,
break_continue,html.Screen,4_18_2,2023-10-30T23:22:46.181Z,,0,,,NaN,,,,,,false,,,,2196578.0999999046,2196577.7999999523,,2196577.5,,2196590.333,8,400,,,
sequence,flow.Sequence,4_18,2023-10-30T23:22:46.181Z,,0,,,6814.110999952536,completion,,,,,false,,,,2196578.5999999046,2196577.7999999523,2189731.05,2189750.5,2189763.689,2196590.333,8,400,,,
trial,html.Screen,4_19_0,2023-10-30T23:22:50.846Z,,0,1,,4653.067000095267,response,ISIC_4856536.JPG,12,ISIC_5867911.JPG,ISIC_5867911.JPG,false,0,keypress(z),500,2201243.7999999523,2201243.4000000954,2196574.25,2196578.9000000954,2196590.333,2201252.425,8,400,20,,ISIC_4856536.JPG
break,html.Screen,4_19_1,2023-10-30T23:22:50.849Z,,0,,,NaN,,,,,,false,,,,2201246.2000000477,2201245.7999999523,,2201244.2000000477,,2201252.425,8,400,,,
break_continue,html.Screen,4_19_2,2023-10-30T23:22:50.850Z,,0,,,NaN,,,,,,false,,,,2201247.0999999046,2201246.7999999523,,2201246.5,,2201252.425,8,400,,,
sequence,flow.Sequence,4_19,2023-10-30T23:22:50.850Z,,0,,,4656.466999952216,completion,,,,,false,,,,2201247.5,2201246.7999999523,2196574.25,2196578.7999999523,2196590.333,2201252.425,8,400,,,
trial,html.Screen,4_20_0,2023-10-30T23:22:55.418Z,,0,1,,4562.575000000186,response,ISIC_6239663.JPG,8,ISIC_0046640.JPG,ISIC_0046640.JPG,false,0,keypress(z),500,2205815.5,2205815,2201236.239,2201247.7999999523,2201252.425,2205831.295,8,400,21,,ISIC_6239663.JPG
break,html.Screen,4_20_1,2023-10-30T23:22:55.421Z,,0,,,NaN,,,,,,false,,,,2205818.2000000477,2205817.7000000477,,2205816,,2205831.295,8,400,,,
break_continue,html.Screen,4_20_2,2023-10-30T23:22:55.422Z,,0,,,NaN,,,,,,false,,,,2205819.0999999046,2205818.7999999523,,2205818.5,,2205831.295,8,400,,,
sequence,flow.Sequence,4_20,2023-10-30T23:22:55.422Z,,0,,,4566.374999952503,completion,,,,,false,,,,2205819.5999999046,2205818.7999999523,2201236.239,2201247.7000000477,2201252.425,2205831.295,8,400,,,
trial,html.Screen,4_21_0,2023-10-30T23:22:59.862Z,,0,1,,4427.605000095442,response,ISIC_0029212.JPG,8,ISIC_1069587.JPG,ISIC_0029212.JPG,false,1,keypress(m),500,2210259.5,2210258.9000000954,2205814.729,2205819.9000000954,2205831.295,2210293.588,8,400,22,,ISIC_1069587.JPG
break,html.Screen,4_21_1,2023-10-30T23:22:59.865Z,,0,,,NaN,,,,,,false,,,,2210262.0999999046,2210261.5999999046,,2210259.7999999523,,2210293.588,8,400,,,
break_continue,html.Screen,4_21_2,2023-10-30T23:22:59.866Z,,0,,,NaN,,,,,,false,,,,2210263.2999999523,2210262.9000000954,,2210262.5,,2210293.588,8,400,,,
sequence,flow.Sequence,4_21,2023-10-30T23:22:59.866Z,,0,,,4431.605000095442,completion,,,,,false,,,,2210263.7000000477,2210262.9000000954,2205814.729,2205819.7999999523,2205831.295,2210293.588,8,400,,,
trial,html.Screen,4_22_0,2023-10-30T23:23:04.593Z,,0,1,,4696.612000047695,response,ISIC_1568268.JPG,10,ISIC_0000440.JPG,ISIC_0000440.JPG,false,0,keypress(z),500,2214990.5999999046,2214990.2000000477,2210277.148,2210264.2000000477,2210293.588,2215005.584,8,400,23,,ISIC_1568268.JPG
break,html.Screen,4_22_1,2023-10-30T23:23:04.595Z,,0,,,NaN,,,,,,false,,,,2214992.7999999523,2214992.2999999523,,2214991.0999999046,,2215005.584,8,400,,,
break_continue,html.Screen,4_22_2,2023-10-30T23:23:04.596Z,,0,,,NaN,,,,,,false,,,,2214993.7000000477,2214993.4000000954,,2214993.0999999046,,2215005.584,8,400,,,
sequence,flow.Sequence,4_22,2023-10-30T23:23:04.597Z,,0,,,4699.812000095379,completion,,,,,false,,,,2214994.0999999046,2214993.4000000954,2210277.148,2210264.0999999046,2210293.588,2215005.584,8,400,,,
trial,html.Screen,4_23_0,2023-10-30T23:23:10.221Z,,0,1,,5612.715999952517,response,ISIC_4973666.JPG,7,ISIC_2506200.JPG,ISIC_4973666.JPG,false,1,keypress(m),500,2220618.9000000954,2220618.2999999523,2214989.787,2214994.4000000954,2215005.584,2220633.422,8,400,24,,ISIC_2506200.JPG
break,html.Screen,4_23_1,2023-10-30T23:23:10.224Z,,0,,,NaN,,,,,,false,,,,2220621,2220620.5999999046,,2220619.2999999523,,2220633.422,8,400,,,
break_continue,html.Screen,4_23_2,2023-10-30T23:23:10.224Z,,0,,,NaN,,,,,,false,,,,2220621.7999999523,2220621.5999999046,,2220621.2000000477,,2220633.422,8,400,,,
sequence,flow.Sequence,4_23,2023-10-30T23:23:10.225Z,,0,,,5616.015999904834,completion,,,,,false,,,,2220622.2000000477,2220621.5999999046,2214989.787,2214994.2999999523,2215005.584,2220633.422,8,400,,,
trial,html.Screen,4_24_0,2023-10-30T23:23:16.520Z,,0,1,,6283.578000000212,response,ISIC_3959570.JPG,11,ISIC_8584239.JPG,ISIC_8584239.JPG,false,0,keypress(z),500,2226917.4000000954,2226917,2220617.331,2220622.5,2220633.422,2226927.271,8,400,25,,ISIC_3959570.JPG
break,html.Screen,4_24_1,2023-10-30T23:23:16.522Z,,0,,,NaN,,,,,,false,,,,2226919.2999999523,2226918.9000000954,,2226917.7999999523,,2226927.271,8,400,,,
break_continue,html.Screen,4_24_2,2023-10-30T23:23:16.523Z,,0,,,NaN,,,,,,false,,,,2226920.0999999046,2226919.9000000954,,2226919.5999999046,,2226927.271,8,400,,,
sequence,flow.Sequence,4_24,2023-10-30T23:23:16.523Z,,0,,,6286.47800009558,completion,,,,,false,,,,2226920.5999999046,2226919.9000000954,2220617.331,2220622.5,2220633.422,2226927.271,8,400,,,
trial,html.Screen,4_25_0,2023-10-30T23:23:21.782Z,,0,1,,5251.429000047501,response,ISIC_0645116.JPG,11,ISIC_8006094.JPG,ISIC_8006094.JPG,false,0,keypress(z),500,2232179.2000000477,2232178.7000000477,2226910.904,2226921.5999999046,2226927.271,2232188.78,8,400,26,,ISIC_0645116.JPG
break,html.Screen,4_25_1,2023-10-30T23:23:21.784Z,,0,,,NaN,,,,,,false,,,,2232181.0999999046,2232180.5999999046,,2232179.5999999046,,2232188.78,8,400,,,
break_continue,html.Screen,4_25_2,2023-10-30T23:23:21.784Z,,0,,,NaN,,,,,,false,,,,2232181.9000000954,2232181.5999999046,,2232181.2999999523,,2232188.78,8,400,,,
sequence,flow.Sequence,4_25,2023-10-30T23:23:21.785Z,,0,,,5254.32899990445,completion,,,,,false,,,,2232182.2000000477,2232181.5999999046,2226910.904,2226920.7999999523,2226927.271,2232188.78,8,400,,,
trial,html.Screen,4_26_0,2023-10-30T23:23:25.813Z,,0,1,,4020.9200000478886,response,ISIC_0028136.JPG,8,ISIC_0053810.JPG,ISIC_0053810.JPG,false,0,keypress(z),500,2236210.2000000477,2236209.7000000477,2232172.825,2232182.7000000477,2232188.78,2236218.159,8,400,27,,ISIC_0028136.JPG
break,html.Screen,4_26_1,2023-10-30T23:23:25.815Z,,0,,,NaN,,,,,,false,,,,2236212.2000000477,2236211.7999999523,,2236210.5999999046,,2236218.159,8,400,,,
break_continue,html.Screen,4_26_2,2023-10-30T23:23:25.816Z,,0,,,NaN,,,,,,false,,,,2236213,2236212.7000000477,,2236212.4000000954,,2236218.159,8,400,,,
sequence,flow.Sequence,4_26,2023-10-30T23:23:25.816Z,,0,,,4023.9200000478886,completion,,,,,false,,,,2236213.4000000954,2236212.7000000477,2232172.825,2232182.5,2232188.78,2236218.159,8,400,,,
trial,html.Screen,4_27_0,2023-10-30T23:23:30.226Z,,0,1,,4404.341000000015,response,ISIC_0033878.JPG,5,ISIC_8414396.JPG,ISIC_0033878.JPG,false,1,keypress(m),500,2240622.9000000954,2240622.5,2236202.334,2236213.7999999523,2236218.159,2240630.509,8,400,28,,ISIC_8414396.JPG
break,html.Screen,4_27_1,2023-10-30T23:23:30.227Z,,0,,,NaN,,,,,,false,,,,2240624.7999999523,2240624.4000000954,,2240623.2999999523,,2240630.509,8,400,,,
break_continue,html.Screen,4_27_2,2023-10-30T23:23:30.228Z,,0,,,NaN,,,,,,false,,,,2240625.7000000477,2240625.4000000954,,2240625,,2240630.509,8,400,,,
sequence,flow.Sequence,4_27,2023-10-30T23:23:30.229Z,,0,,,4407.241000095382,completion,,,,,false,,,,2240626.0999999046,2240625.4000000954,2236202.334,2236213.7000000477,2236218.159,2240630.509,8,400,,,
trial,html.Screen,4_28_0,2023-10-30T23:23:34.576Z,,0,1,,4342.290999952238,response,ISIC_1117369.JPG,6,ISIC_5798331.JPG,ISIC_1117369.JPG,false,1,keypress(m),500,2244973.2999999523,2244972.7999999523,2240614.399,2240626.4000000954,2240630.509,2244976.237,8,400,29,,ISIC_5798331.JPG
break,html.Screen,4_28_1,2023-10-30T23:23:34.578Z,,0,,,NaN,,,,,,false,,,,2244975.2999999523,2244974.9000000954,,2244973.7000000477,,2244976.237,8,400,,,
break_continue,html.Screen,4_28_2,2023-10-30T23:23:34.579Z,,0,,,NaN,,,,,,false,,,,2244976.2000000477,2244975.7999999523,,2244975.5,,2244976.237,8,400,,,
sequence,flow.Sequence,4_28,2023-10-30T23:23:34.580Z,,0,,,4345.290999952238,completion,,,,,false,,,,2244977,2244975.7999999523,2240614.399,2240626.2999999523,2240630.509,2244976.237,8,400,,,
trial,html.Screen,4_29_0,2023-10-30T23:23:39.419Z,,0,1,,4839.562999952119,response,ISIC_3816833.JPG,10,ISIC_0012068.JPG,ISIC_0012068.JPG,false,0,keypress(z),500,2249816.4000000954,2249815.7999999523,2244959.909,2244977.4000000954,2244976.237,2249821.498,8,400,30,,ISIC_3816833.JPG
break,html.Screen,4_29_1,2023-10-30T23:23:39.421Z,,0,,,NaN,,,,,,false,,,,2249818.4000000954,2249817.9000000954,,2249816.9000000954,,2249821.498,8,400,,,
break_continue,html.Screen,4_29_2,2023-10-30T23:23:39.422Z,,0,,,NaN,,,,,,false,,,,2249819.4000000954,2249819.0999999046,,2249818.7000000477,,2249821.498,8,400,,,
sequence,flow.Sequence,4_29,2023-10-30T23:23:39.422Z,,0,,,4842.862999904435,completion,,,,,false,,,,2249819.7999999523,2249819.0999999046,2244959.909,2244977.2999999523,2244976.237,2249821.498,8,400,,,
trial,html.Screen,4_30_0,2023-10-30T23:23:45.749Z,,0,1,,6324.702000047546,response,ISIC_1434141.JPG,10,ISIC_0058125.JPG,ISIC_1434141.JPG,false,1,keypress(m),500,2256146.7000000477,2256146.2000000477,2249805.413,2249820.0999999046,2249821.498,2256170.404,8,400,31,,ISIC_0058125.JPG
break,html.Screen,4_30_1,2023-10-30T23:23:45.751Z,,0,,,NaN,,,,,,false,,,,2256148.5999999046,2256148.2000000477,,2256147.0999999046,,2256170.404,8,400,,,
break_continue,html.Screen,4_30_2,2023-10-30T23:23:45.752Z,,0,,,NaN,,,,,,false,,,,2256149.7000000477,2256149.4000000954,,2256149,,2256170.404,8,400,,,
sequence,flow.Sequence,4_30,2023-10-30T23:23:45.753Z,,0,,,6327.90200009523,completion,,,,,false,,,,2256150.2000000477,2256149.4000000954,2249805.413,2249820,2249821.498,2256170.404,8,400,,,
trial,html.Screen,4_31_0,2023-10-30T23:23:51.201Z,,0,1,,5427.796000047587,response,ISIC_0070689.JPG,7,ISIC_7618133.JPG,ISIC_0070689.JPG,false,1,keypress(m),500,2261598.7999999523,2261598.2000000477,2256132.691,2256150.5999999046,2256170.404,2261609.903,8,400,32,,ISIC_7618133.JPG
break,html.Screen,4_31_1,2023-10-30T23:23:51.203Z,,0,,,NaN,,,,,,false,,,,2261600.5999999046,2261600.2000000477,,2261599.2000000477,,2261609.903,8,400,,,
break_continue,html.Screen,4_31_2,2023-10-30T23:23:51.204Z,,0,,,NaN,,,,,,false,,,,2261601.4000000954,2261601.2000000477,,2261600.9000000954,,2261609.903,8,400,,,
sequence,flow.Sequence,4_31,2023-10-30T23:23:51.204Z,,0,,,5430.796000047587,completion,,,,,false,,,,2261601.7999999523,2261601.2000000477,2256132.691,2256150.5999999046,2256170.404,2261609.903,8,400,,,
trial,html.Screen,4_32_0,2023-10-30T23:23:57.455Z,,0,1,,6241.797000047751,response,ISIC_0033439.JPG,9,ISIC_0011964.JPG,ISIC_0011964.JPG,false,0,keypress(z),500,2267852.2000000477,2267851.7000000477,2261593.524,2261602.2000000477,2261609.903,2267875.902,8,400,33,,ISIC_0033439.JPG
break,html.Screen,4_32_1,2023-10-30T23:23:57.457Z,,0,,,NaN,,,,,,false,,,,2267854.2999999523,2267853.7000000477,,2267852.5999999046,,2267875.902,8,400,,,
break_continue,html.Screen,4_32_2,2023-10-30T23:23:57.458Z,,0,,,NaN,,,,,,false,,,,2267855.2999999523,2267855,,2267854.5999999046,,2267875.902,8,400,,,
sequence,flow.Sequence,4_32,2023-10-30T23:23:57.458Z,,0,,,6245.097000000067,completion,,,,,false,,,,2267855.9000000954,2267855,2261593.524,2261602.0999999046,2261609.903,2267875.902,8,400,,,
trial,html.Screen,4_33_0,2023-10-30T23:24:03.608Z,,0,1,,6129.1979999048635,response,ISIC_7693611.JPG,9,ISIC_0002578.JPG,ISIC_7693611.JPG,false,1,keypress(m),500,2274005.5999999046,2274005.0999999046,2267837.371,2267856.2000000477,2267875.902,2274014.475,8,400,34,,ISIC_0002578.JPG
break,html.Screen,4_33_1,2023-10-30T23:24:03.610Z,,0,,,NaN,,,,,,false,,,,2274007.4000000954,2274007.0999999046,,2274006,,2274014.475,8,400,,,
break_continue,html.Screen,4_33_2,2023-10-30T23:24:03.611Z,,0,,,NaN,,,,,,false,,,,2274008.2999999523,2274008,,2274007.7000000477,,2274014.475,8,400,,,
sequence,flow.Sequence,4_33,2023-10-30T23:24:03.611Z,,0,,,6132.098000000231,completion,,,,,false,,,,2274008.7000000477,2274008,2267837.371,2267856.0999999046,2267875.902,2274014.475,8,400,,,
trial,html.Screen,4_34_0,2023-10-30T23:24:08.963Z,,0,1,,5345.725000047591,response,ISIC_0027839.JPG,8,ISIC_3065253.JPG,ISIC_0027839.JPG,false,1,keypress(m),500,2279360.7000000477,2279360.2000000477,2273998.548,2274009,2274014.475,2279375.83,8,400,35,,ISIC_3065253.JPG
break,html.Screen,4_34_1,2023-10-30T23:24:08.965Z,,0,,,NaN,,,,,,false,,,,2279362.7000000477,2279362.2000000477,,2279361,,2279375.83,8,400,,,
break_continue,html.Screen,4_34_2,2023-10-30T23:24:08.966Z,,0,,,NaN,,,,,,false,,,,2279363.5,2279363.2999999523,,2279363,,2279375.83,8,400,,,
sequence,flow.Sequence,4_34,2023-10-30T23:24:08.966Z,,0,,,5348.824999952223,completion,,,,,false,,,,2279364,2279363.2999999523,2273998.548,2274008.9000000954,2274014.475,2279375.83,8,400,,,
trial,html.Screen,4_35_0,2023-10-30T23:24:12.890Z,,0,1,,3911.370000047609,response,ISIC_1323743.JPG,6,ISIC_0024757.JPG,ISIC_0024757.JPG,false,0,keypress(z),500,2283287.7000000477,2283287.2000000477,2279359.526,2279364.2000000477,2279375.83,2283305.358,8,400,36,,ISIC_1323743.JPG
break,html.Screen,4_35_1,2023-10-30T23:24:12.892Z,,0,,,NaN,,,,,,false,,,,2283290,2283289.5,,2283288,,2283305.358,8,400,,,
break_continue,html.Screen,4_35_2,2023-10-30T23:24:12.893Z,,0,,,NaN,,,,,,false,,,,2283291.0999999046,2283290.7999999523,,2283290.2999999523,,2283305.358,8,400,,,
sequence,flow.Sequence,4_35,2023-10-30T23:24:12.894Z,,0,,,3914.969999952242,completion,,,,,false,,,,2283291.5,2283290.7999999523,2279359.526,2279364.0999999046,2279375.83,2283305.358,8,400,,,
trial,html.Screen,4_36_0,2023-10-30T23:24:18.339Z,,0,1,,5430.54200009536,response,ISIC_1944650.JPG,7,ISIC_6398669.JPG,ISIC_6398669.JPG,false,0,keypress(z),500,2288736.4000000954,2288735.9000000954,2283272.729,2283291.7999999523,2283305.358,2288750.008,8,400,37,,ISIC_1944650.JPG
break,html.Screen,4_36_1,2023-10-30T23:24:18.341Z,,0,,,NaN,,,,,,false,,,,2288738.2999999523,2288737.9000000954,,2288736.7999999523,,2288750.008,8,400,,,
break_continue,html.Screen,4_36_2,2023-10-30T23:24:18.342Z,,0,,,NaN,,,,,,false,,,,2288739.2000000477,2288738.9000000954,,2288738.5999999046,,2288750.008,8,400,,,
sequence,flow.Sequence,4_36,2023-10-30T23:24:18.342Z,,0,,,5433.54200009536,completion,,,,,false,,,,2288739.5999999046,2288738.9000000954,2283272.729,2283291.7000000477,2283305.358,2288750.008,8,400,,,
trial,html.Screen,4_37_0,2023-10-30T23:24:22.940Z,,0,1,,4587.091999904718,response,ISIC_0010503.JPG,10,ISIC_5619654.JPG,ISIC_0010503.JPG,false,1,keypress(m),500,2293337.5999999046,2293337.0999999046,2288734.044,2288739.9000000954,2288750.008,2293362.137,8,400,38,,ISIC_5619654.JPG
break,html.Screen,4_37_1,2023-10-30T23:24:22.942Z,,0,,,NaN,,,,,,false,,,,2293339.4000000954,2293339,,2293337.9000000954,,2293362.137,8,400,,,
break_continue,html.Screen,4_37_2,2023-10-30T23:24:22.943Z,,0,,,NaN,,,,,,false,,,,2293340.2000000477,2293339.9000000954,,2293339.7000000477,,2293362.137,8,400,,,
sequence,flow.Sequence,4_37,2023-10-30T23:24:22.943Z,,0,,,4589.892000095453,completion,,,,,false,,,,2293340.5999999046,2293339.9000000954,2288734.044,2288739.7999999523,2288750.008,2293362.137,8,400,,,
trial,html.Screen,4_38_0,2023-10-30T23:24:27.737Z,,0,1,,4772.362999999896,response,ISIC_4732241.JPG,8,ISIC_8383600.JPG,ISIC_8383600.JPG,false,0,keypress(z),500,2298135,2298134.5,2293345.502,2293341,2293362.137,2298140.797,8,400,39,,ISIC_4732241.JPG
break,html.Screen,4_38_1,2023-10-30T23:24:27.739Z,,0,,,NaN,,,,,,false,,,,2298136.7999999523,2298136.4000000954,,2298135.4000000954,,2298140.797,8,400,,,
break_continue,html.Screen,4_38_2,2023-10-30T23:24:27.740Z,,0,,,NaN,,,,,,false,,,,2298137.7000000477,2298137.2999999523,,2298137.0999999046,,2298140.797,8,400,,,
sequence,flow.Sequence,4_38,2023-10-30T23:24:27.740Z,,0,,,4775.162999952212,completion,,,,,false,,,,2298138,2298137.2999999523,2293345.502,2293340.7999999523,2293362.137,2298140.797,8,400,,,
trial,html.Screen,4_39_0,2023-10-30T23:24:32.563Z,,0,1,,4819.302999904845,response,ISIC_0010760.JPG,12,ISIC_0010235.JPG,ISIC_0010235.JPG,false,0,keypress(z),500,2302960.5999999046,2302960.0999999046,2298124.311,2298138.4000000954,2298140.797,2302969.409,8,400,40,,ISIC_0010760.JPG
break,html.Screen,4_39_1,2023-10-30T23:24:32.565Z,,0,,,NaN,,,,,,false,,,,2302962.5,2302962,,2302961,,2302969.409,8,400,,,
break_continue,html.Screen,4_39_2,2023-10-30T23:24:32.566Z,,0,,,NaN,,,,,,false,,,,2302963.2999999523,2302962.9000000954,,2302962.7000000477,,2302969.409,8,400,,,
sequence,flow.Sequence,4_39,2023-10-30T23:24:32.566Z,,0,,,4822.10300009558,completion,,,,,false,,,,2302963.7000000477,2302962.9000000954,2298124.311,2298138.2999999523,2298140.797,2302969.409,8,400,,,
trial,html.Screen,4_40_0,2023-10-30T23:24:36.386Z,,0,1,,3813.591000000015,response,ISIC_2779787.JPG,5,ISIC_0030541.JPG,ISIC_2779787.JPG,false,1,keypress(m),500,2306783.4000000954,2306783,2302953.22,2302964,2302969.409,2306798.961,8,400,41,,ISIC_0030541.JPG
break,html.Screen,4_40_1,2023-10-30T23:24:36.388Z,,0,,,NaN,,,,,,false,,,,2306786,2306785.5,,2306784.2000000477,,2306798.961,8,400,,,
break_continue,html.Screen,4_40_2,2023-10-30T23:24:36.389Z,,0,,,NaN,,,,,,false,,,,2306787,2306786.5999999046,,2306786.4000000954,,2306798.961,8,400,,,
sequence,flow.Sequence,4_40,2023-10-30T23:24:36.390Z,,0,,,3817.1909999046475,completion,,,,,false,,,,2306787.4000000954,2306786.5999999046,2302953.22,2302963.9000000954,2302969.409,2306798.961,8,400,,,
trial,html.Screen,4_41_0,2023-10-30T23:24:40.655Z,,0,1,,4253.33899995219,response,ISIC_0072182.JPG,8,ISIC_6447681.JPG,ISIC_0072182.JPG,false,1,keypress(m),500,2311052.7000000477,2311052.2999999523,2306782.734,2306787.7000000477,2306798.961,2311061.482,8,400,42,,ISIC_6447681.JPG
break,html.Screen,4_41_1,2023-10-30T23:24:40.657Z,,0,,,NaN,,,,,,false,,,,2311054.5999999046,2311054.2000000477,,2311053.2000000477,,2311061.482,8,400,,,
break_continue,html.Screen,4_41_2,2023-10-30T23:24:40.658Z,,0,,,NaN,,,,,,false,,,,2311055.5,2311055.2000000477,,2311054.9000000954,,2311061.482,8,400,,,
sequence,flow.Sequence,4_41,2023-10-30T23:24:40.658Z,,0,,,4256.239000047557,completion,,,,,false,,,,2311055.9000000954,2311055.2000000477,2306782.734,2306787.7000000477,2306798.961,2311061.482,8,400,,,
trial,html.Screen,4_42_0,2023-10-30T23:24:46.526Z,,0,1,,5861.21800004784,response,ISIC_0025597.JPG,7,ISIC_8635849.JPG,ISIC_8635849.JPG,false,0,keypress(z),500,2316923.2999999523,2316922.7000000477,2311045.369,2311056.2000000477,2311061.482,2316939.049,8,400,43,,ISIC_0025597.JPG
break,html.Screen,4_42_1,2023-10-30T23:24:46.528Z,,0,,,NaN,,,,,,false,,,,2316926,2316925.4000000954,,2316923.7999999523,,2316939.049,8,400,,,
break_continue,html.Screen,4_42_2,2023-10-30T23:24:46.529Z,,0,,,NaN,,,,,,false,,,,2316926.9000000954,2316926.5999999046,,2316926.2000000477,,2316939.049,8,400,,,
sequence,flow.Sequence,4_42,2023-10-30T23:24:46.530Z,,0,,,5865.117999904789,completion,,,,,false,,,,2316927.2999999523,2316926.5999999046,2311045.369,2311056.2000000477,2311061.482,2316939.049,8,400,,,
trial,html.Screen,4_43_0,2023-10-30T23:24:53.317Z,,0,1,,6775.550999904517,response,ISIC_8626787.JPG,6,ISIC_0011137.JPG,ISIC_8626787.JPG,false,1,keypress(m),500,2323715,2323714.5999999046,2316922.636,2316927.5999999046,2316939.049,2323749.055,8,400,44,,ISIC_0011137.JPG
break,html.Screen,4_43_1,2023-10-30T23:24:53.320Z,,0,,,NaN,,,,,,false,,,,2323717.5999999046,2323717,,2323715.4000000954,,2323749.055,8,400,,,
break_continue,html.Screen,4_43_2,2023-10-30T23:24:53.321Z,,0,,,NaN,,,,,,false,,,,2323718.7000000477,2323718.4000000954,,2323718.0999999046,,2323749.055,8,400,,,
sequence,flow.Sequence,4_43,2023-10-30T23:24:53.322Z,,0,,,6779.351000095252,completion,,,,,false,,,,2323719.0999999046,2323718.4000000954,2316922.636,2316927.5,2316939.049,2323749.055,8,400,,,
trial,html.Screen,4_44_0,2023-10-30T23:24:56.814Z,,0,1,,3461.7449999521486,response,ISIC_2498215.JPG,10,ISIC_0012048.JPG,ISIC_0012048.JPG,false,0,keypress(z),500,2327211.2999999523,2327210.7999999523,2323732.624,2323719.4000000954,2323749.055,2327228.942,8,400,45,,ISIC_2498215.JPG
break,html.Screen,4_44_1,2023-10-30T23:24:56.817Z,,0,,,NaN,,,,,,false,,,,2327213.7999999523,2327213.2000000477,,2327211.7999999523,,2327228.942,8,400,,,
break_continue,html.Screen,4_44_2,2023-10-30T23:24:56.818Z,,0,,,NaN,,,,,,false,,,,2327215,2327214.5999999046,,2327214.0999999046,,2327228.942,8,400,,,
sequence,flow.Sequence,4_44,2023-10-30T23:24:56.818Z,,0,,,3465.544999904465,completion,,,,,false,,,,2327215.4000000954,2327214.5999999046,2323732.624,2323719.4000000954,2323749.055,2327228.942,8,400,,,
trial,html.Screen,4_45_0,2023-10-30T23:25:00.984Z,,0,1,,4151.558000000194,response,ISIC_7460560.JPG,11,ISIC_9667908.JPG,ISIC_9667908.JPG,false,0,keypress(z),500,2331381,2331380.5,2327212.475,2327215.7000000477,2327228.942,2331391.565,8,400,46,,ISIC_7460560.JPG
break,html.Screen,4_45_1,2023-10-30T23:25:00.986Z,,0,,,NaN,,,,,,false,,,,2331383,2331382.5999999046,,2331381.4000000954,,2331391.565,8,400,,,
break_continue,html.Screen,4_45_2,2023-10-30T23:25:00.987Z,,0,,,NaN,,,,,,false,,,,2331383.7999999523,2331383.5999999046,,2331383.2999999523,,2331391.565,8,400,,,
sequence,flow.Sequence,4_45,2023-10-30T23:25:00.987Z,,0,,,4154.657999904826,completion,,,,,false,,,,2331384.2999999523,2331383.5999999046,2327212.475,2327215.7000000477,2327228.942,2331391.565,8,400,,,
trial,html.Screen,4_46_0,2023-10-30T23:25:06.454Z,,0,1,,5458.734999952372,response,ISIC_2007396.JPG,9,ISIC_3530422.JPG,ISIC_2007396.JPG,false,1,keypress(m),500,2336850.9000000954,2336850.2999999523,2331375.454,2331384.5999999046,2331391.565,2336873.566,8,400,47,,ISIC_3530422.JPG
break,html.Screen,4_46_1,2023-10-30T23:25:06.455Z,,0,,,NaN,,,,,,false,,,,2336852.7000000477,2336852.2999999523,,2336851.2000000477,,2336873.566,8,400,,,
break_continue,html.Screen,4_46_2,2023-10-30T23:25:06.457Z,,0,,,NaN,,,,,,false,,,,2336853.7999999523,2336853.4000000954,,2336853,,2336873.566,8,400,,,
sequence,flow.Sequence,4_46,2023-10-30T23:25:06.457Z,,0,,,5461.835000095423,completion,,,,,false,,,,2336854.2999999523,2336853.4000000954,2331375.454,2331384.5,2331391.565,2336873.566,8,400,,,
trial,html.Screen,4_47_0,2023-10-30T23:25:10.450Z,,0,1,,3973.5339999045245,response,ISIC_5403296.JPG,6,ISIC_5320483.JPG,ISIC_5403296.JPG,false,1,keypress(m),500,2340847.5,2340847.0999999046,2336836.308,2336854.7999999523,2336873.566,2340865.606,8,400,48,,ISIC_5320483.JPG
break,html.Screen,4_47_1,2023-10-30T23:25:10.452Z,,0,,,NaN,,,,,,false,,,,2340849.7000000477,2340849.2000000477,,2340848,,2340865.606,8,400,,,
break_continue,html.Screen,4_47_2,2023-10-30T23:25:10.453Z,,0,,,NaN,,,,,,false,,,,2340850.7000000477,2340850.2999999523,,2340850,,2340865.606,8,400,,,
sequence,flow.Sequence,4_47,2023-10-30T23:25:10.454Z,,0,,,3976.7339999522083,completion,,,,,false,,,,2340851.2000000477,2340850.2999999523,2336836.308,2336854.5999999046,2336873.566,2340865.606,8,400,,,
trial,html.Screen,4_48_0,2023-10-30T23:25:18.319Z,,0,1,,7850.493999904487,response,ISIC_0259179.JPG,12,ISIC_4438786.JPG,ISIC_0259179.JPG,false,1,keypress(m),500,2348716.5999999046,2348716.0999999046,2340832.345,2340851.5,2340865.606,2348724.559,8,400,49,,ISIC_4438786.JPG
break,html.Screen,4_48_1,2023-10-30T23:25:18.321Z,,0,,,NaN,,,,,,false,,,,2348718.5,2348718.0999999046,,2348717,,2348724.559,8,400,,,
break_continue,html.Screen,4_48_2,2023-10-30T23:25:18.322Z,,0,,,NaN,,,,,,false,,,,2348719.4000000954,2348719.0999999046,,2348718.7999999523,,2348724.559,8,400,,,
sequence,flow.Sequence,4_48,2023-10-30T23:25:18.322Z,,0,,,7853.493999904487,completion,,,,,false,,,,2348719.7000000477,2348719.0999999046,2340832.345,2340851.5,2340865.606,2348724.559,8,400,,,
trial,html.Screen,4_49_0,2023-10-30T23:25:21.998Z,,0,1,,3669.8410000954755,response,ISIC_1628539.JPG,7,ISIC_0029078.JPG,ISIC_0029078.JPG,false,0,keypress(z),500,2352394.9000000954,2352394.4000000954,2348708.199,2348720,2348724.559,2352404.262,8,400,50,,ISIC_1628539.JPG
break,html.Screen,4_49_1,2023-10-30T23:25:31.999Z,,0,,,10007.570999999996,timeout,,,,,false,,,,2362396.5,2362394.96,2352387.846,2352395.2000000477,2352404.262,2362411.833,8,400,,,
break_continue,html.Screen,4_49_2,2023-10-30T23:25:34.827Z,,0,,,2777.567000095267,response,,,,,false,continue,keypress(Space),,2365224.2000000477,2365189.4000000954,2362394.96,2362397,2362411.833,2365241.777,8,400,,,
sequence,flow.Sequence,4_49,2023-10-30T23:25:34.827Z,,0,,,16464.841000095475,completion,,,,,false,,,,2365224.7000000477,2365189.4000000954,2348708.199,2348720,2348724.559,2365241.777,8,400,,,
trial,html.Screen,4_50_0,2023-10-30T23:25:39.238Z,,0,2,,4392.623000095598,response,ISIC_0000291.JPG,11,ISIC_8765068.JPG,ISIC_0000291.JPG,false,1,keypress(m),500,2369634.9000000954,2369634.4000000954,2365225.287,2365225.0999999046,2365241.777,2369637.4,8,400,1,,ISIC_8765068.JPG
break,html.Screen,4_50_1,2023-10-30T23:25:39.243Z,,0,,,NaN,,,,,,false,,,,2369640.5,2369636.5,,2369635.2999999523,,2369637.4,8,400,,,
break_continue,html.Screen,4_50_2,2023-10-30T23:25:39.244Z,,0,,,NaN,,,,,,false,,,,2369641.5999999046,2369641.2000000477,,2369640.9000000954,,2369637.4,8,400,,,
sequence,flow.Sequence,4_50,2023-10-30T23:25:39.245Z,,0,,,4399.423000047915,completion,,,,,false,,,,2369642.0999999046,2369641.2000000477,2365225.287,2365225,2365241.777,2369637.4,8,400,,,
trial,html.Screen,4_51_0,2023-10-30T23:25:45.750Z,,0,2,,6509.399999952409,response,ISIC_0060096.JPG,9,ISIC_0056316.JPG,ISIC_0056316.JPG,false,0,keypress(z),500,2376147.2999999523,2376146.7999999523,2369620.961,2369642.5,2369637.4,2376164.332,8,400,2,,ISIC_0060096.JPG
break,html.Screen,4_51_1,2023-10-30T23:25:45.752Z,,0,,,NaN,,,,,,false,,,,2376149.7000000477,2376149.0999999046,,2376147.7000000477,,2376164.332,8,400,,,
break_continue,html.Screen,4_51_2,2023-10-30T23:25:45.753Z,,0,,,NaN,,,,,,false,,,,2376150.7000000477,2376150.4000000954,,2376150,,2376164.332,8,400,,,
sequence,flow.Sequence,4_51,2023-10-30T23:25:45.754Z,,0,,,6513.000000095461,completion,,,,,false,,,,2376151.0999999046,2376150.4000000954,2369620.961,2369642.4000000954,2369637.4,2376164.332,8,400,,,
trial,html.Screen,4_52_0,2023-10-30T23:25:49.905Z,,0,2,,4137.868000047747,response,ISIC_6069236.JPG,9,ISIC_0008864.JPG,ISIC_6069236.JPG,false,1,keypress(m),500,2380302.7000000477,2380302.2000000477,2376148.155,2376151.4000000954,2376164.332,2380310.272,8,400,3,,ISIC_0008864.JPG
break,html.Screen,4_52_1,2023-10-30T23:25:49.907Z,,0,,,NaN,,,,,,false,,,,2380304.5,2380304.0999999046,,2380303.0999999046,,2380310.272,8,400,,,
break_continue,html.Screen,4_52_2,2023-10-30T23:25:49.908Z,,0,,,NaN,,,,,,false,,,,2380305.4000000954,2380305.0999999046,,2380304.9000000954,,2380310.272,8,400,,,
sequence,flow.Sequence,4_52,2023-10-30T23:25:49.909Z,,0,,,4140.767999904696,completion,,,,,false,,,,2380305.7999999523,2380305.0999999046,2376148.155,2376151.4000000954,2376164.332,2380310.272,8,400,,,
trial,html.Screen,4_53_0,2023-10-30T23:25:56.193Z,,0,2,,6279.228000000119,response,ISIC_0295323.JPG,11,ISIC_8477065.JPG,ISIC_0295323.JPG,false,1,keypress(m),500,2386590.0999999046,2386589.5,2380293.993,2380306.2000000477,2380310.272,2386604.104,8,400,4,,ISIC_8477065.JPG
break,html.Screen,4_53_1,2023-10-30T23:25:56.195Z,,0,,,NaN,,,,,,false,,,,2386592,2386591.5999999046,,2386590.5999999046,,2386604.104,8,400,,,
break_continue,html.Screen,4_53_2,2023-10-30T23:25:56.196Z,,0,,,NaN,,,,,,false,,,,2386592.9000000954,2386592.5999999046,,2386592.2999999523,,2386604.104,8,400,,,
sequence,flow.Sequence,4_53,2023-10-30T23:25:56.196Z,,0,,,6282.327999904752,completion,,,,,false,,,,2386593.2999999523,2386592.5999999046,2380293.993,2380306,2380310.272,2386604.104,8,400,,,
trial,html.Screen,4_54_0,2023-10-30T23:25:59.673Z,,0,2,,3465.8960000001825,response,ISIC_4724660.JPG,6,ISIC_0046623.JPG,ISIC_0046623.JPG,false,0,keypress(z),500,2390070.5,2390070,2386587.677,2386593.7000000477,2386604.104,2390084.021,8,400,5,,ISIC_4724660.JPG
break,html.Screen,4_54_1,2023-10-30T23:25:59.675Z,,0,,,NaN,,,,,,false,,,,2390072.4000000954,2390072,,2390070.9000000954,,2390084.021,8,400,,,
break_continue,html.Screen,4_54_2,2023-10-30T23:25:59.676Z,,0,,,NaN,,,,,,false,,,,2390073.2000000477,2390073,,2390072.7000000477,,2390084.021,8,400,,,
sequence,flow.Sequence,4_54,2023-10-30T23:25:59.676Z,,0,,,3468.8960000001825,completion,,,,,false,,,,2390073.7000000477,2390073,2386587.677,2386593.5999999046,2386604.104,2390084.021,8,400,,,
trial,html.Screen,4_55_0,2023-10-30T23:26:03.507Z,,0,2,,3819.4789999998175,response,ISIC_3520709.JPG,13,ISIC_8633894.JPG,ISIC_3520709.JPG,false,1,keypress(m),500,2393904,2393903.5,2390067.717,2390074,2390084.021,2393913.614,8,400,6,,ISIC_8633894.JPG
break,html.Screen,4_55_1,2023-10-30T23:26:03.509Z,,0,,,NaN,,,,,,false,,,,2393905.9000000954,2393905.5,,2393904.4000000954,,2393913.614,8,400,,,
break_continue,html.Screen,4_55_2,2023-10-30T23:26:03.509Z,,0,,,NaN,,,,,,false,,,,2393906.7000000477,2393906.2999999523,,2393906.0999999046,,2393913.614,8,400,,,
sequence,flow.Sequence,4_55,2023-10-30T23:26:03.510Z,,0,,,3822.2789999521337,completion,,,,,false,,,,2393907.0999999046,2393906.2999999523,2390067.717,2390074,2390084.021,2393913.614,8,400,,,
trial,html.Screen,4_56_0,2023-10-30T23:26:09.264Z,,0,2,,5746.88599999994,response,ISIC_0031800.JPG,12,ISIC_5110133.JPG,ISIC_5110133.JPG,false,0,keypress(z),500,2399661.0999999046,2399660.5,2393897.54,2393907.4000000954,2393913.614,2399674.629,8,400,7,,ISIC_0031800.JPG
break,html.Screen,4_56_1,2023-10-30T23:26:09.266Z,,0,,,NaN,,,,,,false,,,,2399662.9000000954,2399662.5999999046,,2399661.4000000954,,2399674.629,8,400,,,
break_continue,html.Screen,4_56_2,2023-10-30T23:26:09.267Z,,0,,,NaN,,,,,,false,,,,2399663.7999999523,2399663.5,,2399663.2000000477,,2399674.629,8,400,,,
sequence,flow.Sequence,4_56,2023-10-30T23:26:09.267Z,,0,,,5749.88599999994,completion,,,,,false,,,,2399664.2000000477,2399663.5,2393897.54,2393907.2999999523,2393913.614,2399674.629,8,400,,,
trial,html.Screen,4_57_0,2023-10-30T23:26:12.697Z,,0,2,,3418.9709999044426,response,ISIC_3000569.JPG,6,ISIC_0054248.JPG,ISIC_0054248.JPG,false,0,keypress(z),500,2403094.0999999046,2403093.5999999046,2399658.521,2399664.5999999046,2399674.629,2403104.615,8,400,8,,ISIC_3000569.JPG
break,html.Screen,4_57_1,2023-10-30T23:26:12.699Z,,0,,,NaN,,,,,,false,,,,2403096.0999999046,2403095.5999999046,,2403094.5999999046,,2403104.615,8,400,,,
break_continue,html.Screen,4_57_2,2023-10-30T23:26:12.700Z,,0,,,NaN,,,,,,false,,,,2403096.9000000954,2403096.5999999046,,2403096.2999999523,,2403104.615,8,400,,,
sequence,flow.Sequence,4_57,2023-10-30T23:26:12.700Z,,0,,,3421.9709999044426,completion,,,,,false,,,,2403097.4000000954,2403096.5999999046,2399658.521,2399664.5,2399674.629,2403104.615,8,400,,,
trial,html.Screen,4_58_0,2023-10-30T23:26:16.240Z,,0,2,,3532.3849999997765,response,ISIC_4223734.JPG,6,ISIC_0060297.JPG,ISIC_0060297.JPG,false,0,keypress(z),500,2406637.5,2406637,2403088.379,2403097.7000000477,2403104.615,2406651.114,8,400,9,,ISIC_4223734.JPG
break,html.Screen,4_58_1,2023-10-30T23:26:16.242Z,,0,,,NaN,,,,,,false,,,,2406639.4000000954,2406639,,2406637.9000000954,,2406651.114,8,400,,,
break_continue,html.Screen,4_58_2,2023-10-30T23:26:16.243Z,,0,,,NaN,,,,,,false,,,,2406640.2999999523,2406640,,2406639.7000000477,,2406651.114,8,400,,,
sequence,flow.Sequence,4_58,2023-10-30T23:26:16.243Z,,0,,,3535.3849999997765,completion,,,,,false,,,,2406640.7999999523,2406640,2403088.379,2403097.7000000477,2403104.615,2406651.114,8,400,,,
trial,html.Screen,4_59_0,2023-10-30T23:26:20.959Z,,0,2,,4704.485999904573,response,ISIC_6380209.JPG,8,ISIC_0066338.JPG,ISIC_6380209.JPG,false,1,keypress(m),500,2411356.2000000477,2411355.5999999046,2406635.03,2406641,2406651.114,2411363.183,8,400,10,,ISIC_0066338.JPG
break,html.Screen,4_59_1,2023-10-30T23:26:20.961Z,,0,,,NaN,,,,,,false,,,,2411358,2411357.5999999046,,2411356.5999999046,,2411363.183,8,400,,,
break_continue,html.Screen,4_59_2,2023-10-30T23:26:20.962Z,,0,,,NaN,,,,,,false,,,,2411358.9000000954,2411358.5999999046,,2411358.2999999523,,2411363.183,8,400,,,
sequence,flow.Sequence,4_59,2023-10-30T23:26:20.962Z,,0,,,4707.485999904573,completion,,,,,false,,,,2411359.5,2411358.5999999046,2406635.03,2406641,2406651.114,2411363.183,8,400,,,
trial,html.Screen,4_60_0,2023-10-30T23:26:25.047Z,,0,2,,4080.3169999998063,response,ISIC_0064941.JPG,6,ISIC_5048571.JPG,ISIC_0064941.JPG,false,1,keypress(m),500,2415444,2415443.5,2411347.272,2411359.7999999523,2411363.183,2415459.145,8,400,11,,ISIC_5048571.JPG
break,html.Screen,4_60_1,2023-10-30T23:26:25.049Z,,0,,,NaN,,,,,,false,,,,2415446.2999999523,2415445.7999999523,,2415444.5,,2415459.145,8,400,,,
break_continue,html.Screen,4_60_2,2023-10-30T23:26:25.050Z,,0,,,NaN,,,,,,false,,,,2415447.2000000477,2415446.9000000954,,2415446.5999999046,,2415459.145,8,400,,,
sequence,flow.Sequence,4_60,2023-10-30T23:26:25.050Z,,0,,,4083.7170000951737,completion,,,,,false,,,,2415447.5999999046,2415446.9000000954,2411347.272,2411359.7000000477,2411363.183,2415459.145,8,400,,,
trial,html.Screen,4_61_0,2023-10-30T23:26:32.850Z,,0,2,,7787.654999952298,response,ISIC_6441128.JPG,9,ISIC_8344196.JPG,ISIC_6441128.JPG,false,1,keypress(m),500,2423247,2423246.7999999523,2415442.988,2415447.9000000954,2415459.145,2423251.509,8,400,12,,ISIC_8344196.JPG
break,html.Screen,4_61_1,2023-10-30T23:26:32.851Z,,0,,,NaN,,,,,,false,,,,2423248.0999999046,2423247.9000000954,,2423247.2000000477,,2423251.509,8,400,,,
break_continue,html.Screen,4_61_2,2023-10-30T23:26:32.851Z,,0,,,NaN,,,,,,false,,,,2423248.5,2423248.4000000954,,2423248.2000000477,,2423251.509,8,400,,,
sequence,flow.Sequence,4_61,2023-10-30T23:26:32.851Z,,0,,,7789.255000095349,completion,,,,,false,,,,2423248.5999999046,2423248.4000000954,2415442.988,2415447.7999999523,2415459.145,2423251.509,8,400,,,
trial,html.Screen,4_62_0,2023-10-30T23:26:37.272Z,,0,2,,4417.1910000476055,response,ISIC_5028203.JPG,8,ISIC_4472903.JPG,ISIC_4472903.JPG,false,0,keypress(z),500,2427669.4000000954,2427668.7000000477,2423234.934,2423248.7000000477,2423251.509,2427680.528,8,400,13,,ISIC_5028203.JPG
break,html.Screen,4_62_1,2023-10-30T23:26:37.274Z,,0,,,NaN,,,,,,false,,,,2427671.5999999046,2427671.0999999046,,2427669.9000000954,,2427680.528,8,400,,,
break_continue,html.Screen,4_62_2,2023-10-30T23:26:37.275Z,,0,,,NaN,,,,,,false,,,,2427672.5999999046,2427672.2999999523,,2427672,,2427680.528,8,400,,,
sequence,flow.Sequence,4_62,2023-10-30T23:26:37.276Z,,0,,,4420.790999952238,completion,,,,,false,,,,2427673,2427672.2999999523,2423234.934,2423248.7000000477,2423251.509,2427680.528,8,400,,,
trial,html.Screen,4_63_0,2023-10-30T23:26:44.489Z,,0,2,,7205.5719999047,response,ISIC_3981425.JPG,9,ISIC_1192835.JPG,ISIC_1192835.JPG,false,0,keypress(z),500,2434886.5999999046,2434886.0999999046,2427664.427,2427673.4000000954,2427680.528,2434890.12,8,400,14,,ISIC_3981425.JPG
break,html.Screen,4_63_1,2023-10-30T23:26:44.491Z,,0,,,NaN,,,,,,false,,,,2434888.5999999046,2434888.2000000477,,2434887.0999999046,,2434890.12,8,400,,,
break_continue,html.Screen,4_63_2,2023-10-30T23:26:44.492Z,,0,,,NaN,,,,,,false,,,,2434889.4000000954,2434889.0999999046,,2434888.7999999523,,2434890.12,8,400,,,
sequence,flow.Sequence,4_63,2023-10-30T23:26:44.493Z,,0,,,7208.5719999047,completion,,,,,false,,,,2434889.7999999523,2434889.0999999046,2427664.427,2427673.2999999523,2427680.528,2434890.12,8,400,,,
trial,html.Screen,4_64_0,2023-10-30T23:26:48.822Z,,0,2,,4328.979999904521,response,ISIC_0069705.JPG,10,ISIC_4384341.JPG,ISIC_0069705.JPG,false,1,keypress(m),500,2439219.7000000477,2439219.0999999046,2434873.657,2434890.9000000954,2434890.12,2439235.893,8,400,15,,ISIC_4384341.JPG
break,html.Screen,4_64_1,2023-10-30T23:26:48.825Z,,0,,,NaN,,,,,,false,,,,2439222.2000000477,2439221.7000000477,,2439220.2000000477,,2439235.893,8,400,,,
break_continue,html.Screen,4_64_2,2023-10-30T23:26:48.826Z,,0,,,NaN,,,,,,false,,,,2439223.0999999046,2439222.7000000477,,2439222.4000000954,,2439235.893,8,400,,,
sequence,flow.Sequence,4_64,2023-10-30T23:26:48.826Z,,0,,,4332.580000047572,completion,,,,,false,,,,2439223.5,2439222.7000000477,2434873.657,2434890.7000000477,2434890.12,2439235.893,8,400,,,
trial,html.Screen,4_65_0,2023-10-30T23:26:54.709Z,,0,2,,5870.307000047527,response,ISIC_0013967.JPG,9,ISIC_0975874.JPG,ISIC_0013967.JPG,false,1,keypress(m),500,2445106.7000000477,2445106.2000000477,2439219.361,2439223.7999999523,2439235.893,2445113.435,8,400,16,,ISIC_0975874.JPG
break,html.Screen,4_65_1,2023-10-30T23:26:54.711Z,,0,,,NaN,,,,,,false,,,,2445108.7000000477,2445108.2999999523,,2445107.0999999046,,2445113.435,8,400,,,
break_continue,html.Screen,4_65_2,2023-10-30T23:26:54.712Z,,0,,,NaN,,,,,,false,,,,2445109.5,2445109.2000000477,,2445108.9000000954,,2445113.435,8,400,,,
sequence,flow.Sequence,4_65,2023-10-30T23:26:54.712Z,,0,,,5873.307000047527,completion,,,,,false,,,,2445110,2445109.2000000477,2439219.361,2439223.7000000477,2439235.893,2445113.435,8,400,,,
trial,html.Screen,4_66_0,2023-10-30T23:26:58.563Z,,0,2,,3845.9650000953116,response,ISIC_6626544.JPG,12,ISIC_0034042.JPG,ISIC_0034042.JPG,false,0,keypress(z),500,2448960,2448959.4000000954,2445096.997,2445110.2999999523,2445113.435,2448976.318,8,400,17,,ISIC_6626544.JPG
break,html.Screen,4_66_1,2023-10-30T23:26:58.565Z,,0,,,NaN,,,,,,false,,,,2448962.5,2448962,,2448960.5,,2448976.318,8,400,,,
break_continue,html.Screen,4_66_2,2023-10-30T23:26:58.566Z,,0,,,NaN,,,,,,false,,,,2448963.4000000954,2448963.0999999046,,2448962.7999999523,,2448976.318,8,400,,,
sequence,flow.Sequence,4_66,2023-10-30T23:26:58.566Z,,0,,,3849.6649999045767,completion,,,,,false,,,,2448963.9000000954,2448963.0999999046,2445096.997,2445110.0999999046,2445113.435,2448976.318,8,400,,,
trial,html.Screen,4_67_0,2023-10-30T23:27:02.272Z,,0,2,,3692.5820000953972,response,ISIC_0032951.JPG,9,ISIC_4597707.JPG,ISIC_0032951.JPG,false,1,keypress(m),500,2452669.4000000954,2452668.9000000954,2448959.861,2448964.2000000477,2448976.318,2452672.721,8,400,18,,ISIC_4597707.JPG
break,html.Screen,4_67_1,2023-10-30T23:27:02.274Z,,0,,,NaN,,,,,,false,,,,2452671.4000000954,2452670.9000000954,,2452669.7999999523,,2452672.721,8,400,,,
break_continue,html.Screen,4_67_2,2023-10-30T23:27:02.275Z,,0,,,NaN,,,,,,false,,,,2452672.5,2452672.2000000477,,2452671.7999999523,,2452672.721,8,400,,,
sequence,flow.Sequence,4_67,2023-10-30T23:27:02.276Z,,0,,,3695.8820000477135,completion,,,,,false,,,,2452673.5,2452672.2000000477,2448959.861,2448964.0999999046,2448976.318,2452672.721,8,400,,,
trial,html.Screen,4_68_0,2023-10-30T23:27:05.528Z,,0,2,,3252.078999952413,response,ISIC_1974152.JPG,11,ISIC_0032917.JPG,ISIC_0032917.JPG,false,0,keypress(z),500,2455925.2000000477,2455924.7999999523,2452656.122,2452674,2452672.721,2455936.177,8,400,19,,ISIC_1974152.JPG
break,html.Screen,4_68_1,2023-10-30T23:27:05.530Z,,0,,,NaN,,,,,,false,,,,2455927.0999999046,2455926.7999999523,,2455925.5999999046,,2455936.177,8,400,,,
break_continue,html.Screen,4_68_2,2023-10-30T23:27:05.531Z,,0,,,NaN,,,,,,false,,,,2455928,2455927.7000000477,,2455927.5,,2455936.177,8,400,,,
sequence,flow.Sequence,4_68,2023-10-30T23:27:05.531Z,,0,,,3254.9790000477806,completion,,,,,false,,,,2455928.4000000954,2455927.7000000477,2452656.122,2452674,2452672.721,2455936.177,8,400,,,
trial,html.Screen,4_69_0,2023-10-30T23:27:09.205Z,,0,2,,3665.3229999998584,response,ISIC_7240424.JPG,6,ISIC_0027838.JPG,ISIC_0027838.JPG,false,0,keypress(z),500,2459602,2459601.5,2455920.053,2455928.7000000477,2455936.177,2459615.902,8,400,20,,ISIC_7240424.JPG
break,html.Screen,4_69_1,2023-10-30T23:27:09.207Z,,0,,,NaN,,,,,,false,,,,2459604,2459603.5999999046,,2459602.5,,2459615.902,8,400,,,
break_continue,html.Screen,4_69_2,2023-10-30T23:27:09.207Z,,0,,,NaN,,,,,,false,,,,2459604.9000000954,2459604.5999999046,,2459604.2999999523,,2459615.902,8,400,,,
sequence,flow.Sequence,4_69,2023-10-30T23:27:09.208Z,,0,,,3668.422999904491,completion,,,,,false,,,,2459605.2999999523,2459604.5999999046,2455920.053,2455928.5999999046,2455936.177,2459615.902,8,400,,,
trial,html.Screen,4_70_0,2023-10-30T23:27:12.796Z,,0,2,,3577.2980000479147,response,ISIC_3696488.JPG,12,ISIC_0067412.JPG,ISIC_0067412.JPG,false,0,keypress(z),500,2463193.7000000477,2463193.2000000477,2459598.979,2459605.5999999046,2459615.902,2463217.237,8,400,21,,ISIC_3696488.JPG
break,html.Screen,4_70_1,2023-10-30T23:27:12.798Z,,0,,,NaN,,,,,,false,,,,2463195.5999999046,2463195.2000000477,,2463194.2000000477,,2463217.237,8,400,,,
break_continue,html.Screen,4_70_2,2023-10-30T23:27:12.799Z,,0,,,NaN,,,,,,false,,,,2463196.7999999523,2463196.2999999523,,2463196,,2463217.237,8,400,,,
sequence,flow.Sequence,4_70,2023-10-30T23:27:12.800Z,,0,,,3580.3979999525473,completion,,,,,false,,,,2463197.2999999523,2463196.2999999523,2459598.979,2459605.5,2459615.902,2463217.237,8,400,,,
trial,html.Screen,4_71_0,2023-10-30T23:27:17.092Z,,0,2,,4271.362999904435,response,ISIC_6676776.JPG,9,ISIC_0874261.JPG,ISIC_0874261.JPG,false,0,keypress(z),500,2467489.0999999046,2467488.5999999046,2463179.564,2463197.7000000477,2463217.237,2467491.491,8,400,22,,ISIC_6676776.JPG
break,html.Screen,4_71_1,2023-10-30T23:27:17.094Z,,0,,,NaN,,,,,,false,,,,2467491.0999999046,2467490.7000000477,,2467489.5,,2467491.491,8,400,,,
break_continue,html.Screen,4_71_2,2023-10-30T23:27:17.095Z,,0,,,NaN,,,,,,false,,,,2467492.2000000477,2467491.7999999523,,2467491.2999999523,,2467491.491,8,400,,,
sequence,flow.Sequence,4_71,2023-10-30T23:27:17.095Z,,0,,,4274.562999952119,completion,,,,,false,,,,2467492.7999999523,2467491.7999999523,2463179.564,2463197.7000000477,2463217.237,2467491.491,8,400,,,
trial,html.Screen,4_72_0,2023-10-30T23:27:23.280Z,,0,2,,6185.409000095446,response,ISIC_0054280.JPG,8,ISIC_0028655.JPG,ISIC_0028655.JPG,false,0,keypress(z),500,2473677.4000000954,2473676.9000000954,2467475.35,2467493.0999999046,2467491.491,2473685.434,8,400,23,,ISIC_0054280.JPG
break,html.Screen,4_72_1,2023-10-30T23:27:23.282Z,,0,,,NaN,,,,,,false,,,,2473679.5,2473679.0999999046,,2473677.7999999523,,2473685.434,8,400,,,
break_continue,html.Screen,4_72_2,2023-10-30T23:27:23.283Z,,0,,,NaN,,,,,,false,,,,2473680.4000000954,2473680,,2473679.7000000477,,2473685.434,8,400,,,
sequence,flow.Sequence,4_72,2023-10-30T23:27:23.283Z,,0,,,6188.509000000078,completion,,,,,false,,,,2473680.7999999523,2473680,2467475.35,2467493,2467491.491,2473685.434,8,400,,,
trial,html.Screen,4_73_0,2023-10-30T23:27:28.281Z,,0,2,,4992.365999952424,response,ISIC_2682861.JPG,9,ISIC_0010767.JPG,ISIC_2682861.JPG,false,1,keypress(m),500,2478678.2999999523,2478677.7999999523,2473668.895,2473681.0999999046,2473685.434,2478680.52,8,400,24,,ISIC_0010767.JPG
break,html.Screen,4_73_1,2023-10-30T23:27:28.283Z,,0,,,NaN,,,,,,false,,,,2478680.2000000477,2478679.7999999523,,2478678.7000000477,,2478680.52,8,400,,,
break_continue,html.Screen,4_73_2,2023-10-30T23:27:28.284Z,,0,,,NaN,,,,,,false,,,,2478681.5,2478681,,2478680.4000000954,,2478680.52,8,400,,,
sequence,flow.Sequence,4_73,2023-10-30T23:27:28.285Z,,0,,,4995.566000000108,completion,,,,,false,,,,2478682,2478681,2473668.895,2473681,2473685.434,2478680.52,8,400,,,
trial,html.Screen,4_74_0,2023-10-30T23:27:32.097Z,,0,2,,3813.2799999522977,response,ISIC_6292348.JPG,9,ISIC_0030889.JPG,ISIC_0030889.JPG,false,0,keypress(z),500,2482494.4000000954,2482493.7999999523,2478664.353,2478682.5,2478680.52,2482510.12,8,400,25,,ISIC_6292348.JPG
break,html.Screen,4_74_1,2023-10-30T23:27:32.099Z,,0,,,NaN,,,,,,false,,,,2482496.9000000954,2482496.2999999523,,2482494.7999999523,,2482510.12,8,400,,,
break_continue,html.Screen,4_74_2,2023-10-30T23:27:32.100Z,,0,,,NaN,,,,,,false,,,,2482497.7000000477,2482497.5,,2482497.0999999046,,2482510.12,8,400,,,
sequence,flow.Sequence,4_74,2023-10-30T23:27:32.101Z,,0,,,3816.9799999999814,completion,,,,,false,,,,2482498.2000000477,2482497.5,2478664.353,2478682.2999999523,2478680.52,2482510.12,8,400,,,
trial,html.Screen,4_75_0,2023-10-30T23:27:37.036Z,,0,2,,4923.1799999522045,response,ISIC_7528996.JPG,9,ISIC_0009959.JPG,ISIC_7528996.JPG,false,1,keypress(m),500,2487433.7999999523,2487433.2999999523,2482493.933,2482498.5,2482510.12,2487438.615,8,400,26,,ISIC_0009959.JPG
break,html.Screen,4_75_1,2023-10-30T23:27:37.038Z,,0,,,NaN,,,,,,false,,,,2487435.7000000477,2487435.2999999523,,2487434.2000000477,,2487438.615,8,400,,,
break_continue,html.Screen,4_75_2,2023-10-30T23:27:37.039Z,,0,,,NaN,,,,,,false,,,,2487436.5999999046,2487436.2999999523,,2487436,,2487438.615,8,400,,,
sequence,flow.Sequence,4_75,2023-10-30T23:27:37.040Z,,0,,,4926.1799999522045,completion,,,,,false,,,,2487437.0999999046,2487436.2999999523,2482493.933,2482498.4000000954,2482510.12,2487438.615,8,400,,,
trial,html.Screen,4_76_0,2023-10-30T23:27:41.496Z,,0,2,,4454.3849999997765,response,ISIC_0013778.JPG,5,ISIC_2136533.JPG,ISIC_2136533.JPG,false,0,keypress(z),500,2491893.5999999046,2491893,2487422.621,2487437.2999999523,2487438.615,2491900.976,8,400,27,,ISIC_0013778.JPG
break,html.Screen,4_76_1,2023-10-30T23:27:41.498Z,,0,,,NaN,,,,,,false,,,,2491895.7000000477,2491895.2999999523,,2491894.2000000477,,2491900.976,8,400,,,
break_continue,html.Screen,4_76_2,2023-10-30T23:27:41.499Z,,0,,,NaN,,,,,,false,,,,2491896.5999999046,2491896.2000000477,,2491895.9000000954,,2491900.976,8,400,,,
sequence,flow.Sequence,4_76,2023-10-30T23:27:41.499Z,,0,,,4457.58500004746,completion,,,,,false,,,,2491897,2491896.2000000477,2487422.621,2487437.2999999523,2487438.615,2491900.976,8,400,,,
trial,html.Screen,4_77_0,2023-10-30T23:27:45.601Z,,0,2,,4096.823999952525,response,ISIC_0033801.JPG,6,ISIC_0065807.JPG,ISIC_0065807.JPG,false,0,keypress(z),500,2495998.4000000954,2495997.7999999523,2491884.568,2491897.2000000477,2491900.976,2496013.545,8,400,28,,ISIC_0033801.JPG
break,html.Screen,4_77_1,2023-10-30T23:27:45.603Z,,0,,,NaN,,,,,,false,,,,2496000.5999999046,2496000.0999999046,,2495998.7999999523,,2496013.545,8,400,,,
break_continue,html.Screen,4_77_2,2023-10-30T23:27:45.604Z,,0,,,NaN,,,,,,false,,,,2496001.5,2496001.0999999046,,2496000.9000000954,,2496013.545,8,400,,,
sequence,flow.Sequence,4_77,2023-10-30T23:27:45.604Z,,0,,,4100.123999904841,completion,,,,,false,,,,2496001.9000000954,2496001.0999999046,2491884.568,2491897.2000000477,2491900.976,2496013.545,8,400,,,
trial,html.Screen,4_78_0,2023-10-30T23:27:49.277Z,,0,2,,3660.155000047758,response,ISIC_0027751.JPG,7,ISIC_5765854.JPG,ISIC_0027751.JPG,false,1,keypress(m),500,2499674.2000000477,2499673.7000000477,2495997.177,2496002.0999999046,2496013.545,2499676.619,8,400,29,,ISIC_5765854.JPG
break,html.Screen,4_78_1,2023-10-30T23:27:49.279Z,,0,,,NaN,,,,,,false,,,,2499676,2499675.5999999046,,2499674.5,,2499676.619,8,400,,,
break_continue,html.Screen,4_78_2,2023-10-30T23:27:49.280Z,,0,,,NaN,,,,,,false,,,,2499677.2000000477,2499676.5,,2499676.2999999523,,2499676.619,8,400,,,
sequence,flow.Sequence,4_78,2023-10-30T23:27:49.280Z,,0,,,3662.9550000000745,completion,,,,,false,,,,2499677.7000000477,2499676.5,2495997.177,2496002.0999999046,2496013.545,2499676.619,8,400,,,
trial,html.Screen,4_79_0,2023-10-30T23:27:53.077Z,,0,2,,3797.2810000954196,response,ISIC_2690597.JPG,13,ISIC_0072101.JPG,ISIC_0072101.JPG,false,0,keypress(z),500,2503474.4000000954,2503473.9000000954,2499660.559,2499678,2499676.619,2503489.543,8,400,30,,ISIC_2690597.JPG
break,html.Screen,4_79_1,2023-10-30T23:27:53.079Z,,0,,,NaN,,,,,,false,,,,2503476.5999999046,2503476.2000000477,,2503474.7999999523,,2503489.543,8,400,,,
break_continue,html.Screen,4_79_2,2023-10-30T23:27:53.080Z,,0,,,NaN,,,,,,false,,,,2503477.5,2503477.0999999046,,2503476.9000000954,,2503489.543,8,400,,,
sequence,flow.Sequence,4_79,2023-10-30T23:27:53.080Z,,0,,,3800.4809999046847,completion,,,,,false,,,,2503477.9000000954,2503477.0999999046,2499660.559,2499677.9000000954,2499676.619,2503489.543,8,400,,,
trial,html.Screen,4_80_0,2023-10-30T23:27:56.913Z,,0,2,,3820.756999952253,response,ISIC_0663941.JPG,8,ISIC_3475660.JPG,ISIC_3475660.JPG,false,0,keypress(z),500,2507310.7999999523,2507310.2999999523,2503473.466,2503478.0999999046,2503489.543,2507319.144,8,400,31,,ISIC_0663941.JPG
break,html.Screen,4_80_1,2023-10-30T23:27:56.915Z,,0,,,NaN,,,,,,false,,,,2507312.7000000477,2507312.2999999523,,2507311.2000000477,,2507319.144,8,400,,,
break_continue,html.Screen,4_80_2,2023-10-30T23:27:56.916Z,,0,,,NaN,,,,,,false,,,,2507313.5,2507313.2000000477,,2507312.9000000954,,2507319.144,8,400,,,
sequence,flow.Sequence,4_80,2023-10-30T23:27:56.917Z,,0,,,3823.6570000476204,completion,,,,,false,,,,2507313.7999999523,2507313.2000000477,2503473.466,2503478.0999999046,2503489.543,2507319.144,8,400,,,
trial,html.Screen,4_81_0,2023-10-30T23:28:00.510Z,,0,2,,3587.3560000001453,response,ISIC_4066094.JPG,13,ISIC_0027499.JPG,ISIC_4066094.JPG,false,1,keypress(m),500,2510907,2510906.5,2507303.108,2507314.2000000477,2507319.144,2510915.615,8,400,32,,ISIC_0027499.JPG
break,html.Screen,4_81_1,2023-10-30T23:28:00.512Z,,0,,,NaN,,,,,,false,,,,2510908.7999999523,2510908.5,,2510907.4000000954,,2510915.615,8,400,,,
break_continue,html.Screen,4_81_2,2023-10-30T23:28:00.512Z,,0,,,NaN,,,,,,false,,,,2510909.7000000477,2510909.4000000954,,2510909.0999999046,,2510915.615,8,400,,,
sequence,flow.Sequence,4_81,2023-10-30T23:28:00.513Z,,0,,,3590.2560000955127,completion,,,,,false,,,,2510910.0999999046,2510909.4000000954,2507303.108,2507314.0999999046,2507319.144,2510915.615,8,400,,,
trial,html.Screen,4_82_0,2023-10-30T23:28:04.039Z,,0,2,,3520.3849999997765,response,ISIC_0033154.JPG,11,ISIC_0071951.JPG,ISIC_0071951.JPG,false,0,keypress(z),500,2514436.5,2514436,2510899.126,2510910.4000000954,2510915.615,2514445.489,8,400,33,,ISIC_0033154.JPG
break,html.Screen,4_82_1,2023-10-30T23:28:04.041Z,,0,,,NaN,,,,,,false,,,,2514438.4000000954,2514438,,2514436.9000000954,,2514445.489,8,400,,,
break_continue,html.Screen,4_82_2,2023-10-30T23:28:04.042Z,,0,,,NaN,,,,,,false,,,,2514439.2000000477,2514439,,2514438.7000000477,,2514445.489,8,400,,,
sequence,flow.Sequence,4_82,2023-10-30T23:28:04.042Z,,0,,,3523.3849999997765,completion,,,,,false,,,,2514439.7000000477,2514439,2510899.126,2510910.2999999523,2510915.615,2514445.489,8,400,,,
trial,html.Screen,4_83_0,2023-10-30T23:28:07.790Z,,0,2,,3741.211000047624,response,ISIC_0015179.JPG,7,ISIC_4781169.JPG,ISIC_0015179.JPG,false,1,keypress(m),500,2518187.2000000477,2518186.7000000477,2514429.176,2514440,2514445.489,2518191.802,8,400,34,,ISIC_4781169.JPG
break,html.Screen,4_83_1,2023-10-30T23:28:07.792Z,,0,,,NaN,,,,,,false,,,,2518189.2000000477,2518188.7999999523,,2518187.5999999046,,2518191.802,8,400,,,
break_continue,html.Screen,4_83_2,2023-10-30T23:28:07.793Z,,0,,,NaN,,,,,,false,,,,2518190,2518189.7000000477,,2518189.5,,2518191.802,8,400,,,
sequence,flow.Sequence,4_83,2023-10-30T23:28:07.793Z,,0,,,3744.211000047624,completion,,,,,false,,,,2518190.5,2518189.7000000477,2514429.176,2514439.9000000954,2514445.489,2518191.802,8,400,,,
trial,html.Screen,4_84_0,2023-10-30T23:28:12.299Z,,0,2,,4503.797999904491,response,ISIC_0011950.JPG,11,ISIC_0033261.JPG,ISIC_0011950.JPG,false,1,keypress(m),500,2522696.0999999046,2522695.5999999046,2518175.897,2518190.7000000477,2518191.802,2522704.025,8,400,35,,ISIC_0033261.JPG
break,html.Screen,4_84_1,2023-10-30T23:28:12.301Z,,0,,,NaN,,,,,,false,,,,2522697.9000000954,2522697.5,,2522696.4000000954,,2522704.025,8,400,,,
break_continue,html.Screen,4_84_2,2023-10-30T23:28:12.302Z,,0,,,NaN,,,,,,false,,,,2522698.7999999523,2522698.5,,2522698.2999999523,,2522704.025,8,400,,,
sequence,flow.Sequence,4_84,2023-10-30T23:28:12.302Z,,0,,,4506.697999999858,completion,,,,,false,,,,2522699.2999999523,2522698.5,2518175.897,2518190.5999999046,2518191.802,2522704.025,8,400,,,
trial,html.Screen,4_85_0,2023-10-30T23:28:16.820Z,,0,2,,4512.875000095461,response,ISIC_9837030.JPG,10,ISIC_0033594.JPG,ISIC_0033594.JPG,false,0,keypress(z),500,2527217.4000000954,2527216.9000000954,2522687.928,2522699.5999999046,2522704.025,2527232.918,8,400,36,,ISIC_9837030.JPG
break,html.Screen,4_85_1,2023-10-30T23:28:16.822Z,,0,,,NaN,,,,,,false,,,,2527219.5999999046,2527219.0999999046,,2527217.7999999523,,2527232.918,8,400,,,
break_continue,html.Screen,4_85_2,2023-10-30T23:28:16.823Z,,0,,,NaN,,,,,,false,,,,2527220.5,2527220.2000000477,,2527219.9000000954,,2527232.918,8,400,,,
sequence,flow.Sequence,4_85,2023-10-30T23:28:16.824Z,,0,,,4516.175000047777,completion,,,,,false,,,,2527220.9000000954,2527220.2000000477,2522687.928,2522699.5,2522704.025,2527232.918,8,400,,,
trial,html.Screen,4_86_0,2023-10-30T23:28:20.947Z,,0,2,,4110.482000095304,response,ISIC_8382969.JPG,8,ISIC_7044184.JPG,ISIC_7044184.JPG,false,0,keypress(z),500,2531343.9000000954,2531343.4000000954,2527216.258,2527221.2999999523,2527232.918,2531367.377,8,400,37,,ISIC_8382969.JPG
break,html.Screen,4_86_1,2023-10-30T23:28:20.949Z,,0,,,NaN,,,,,,false,,,,2531346,2531345.4000000954,,2531344.4000000954,,2531367.377,8,400,,,
break_continue,html.Screen,4_86_2,2023-10-30T23:28:20.950Z,,0,,,NaN,,,,,,false,,,,2531347.0999999046,2531346.7000000477,,2531346.2999999523,,2531367.377,8,400,,,
sequence,flow.Sequence,4_86,2023-10-30T23:28:20.951Z,,0,,,4113.78200004762,completion,,,,,false,,,,2531347.9000000954,2531346.7000000477,2527216.258,2527221.2000000477,2527232.918,2531367.377,8,400,,,
trial,html.Screen,4_87_0,2023-10-30T23:28:24.507Z,,0,2,,3536.422999952454,response,ISIC_0060380.JPG,10,ISIC_6964131.JPG,ISIC_0060380.JPG,false,1,keypress(m),500,2534904,2534903.7999999523,2531329.458,2531348.2999999523,2531367.377,2534908.74,8,400,38,,ISIC_6964131.JPG
break,html.Screen,4_87_1,2023-10-30T23:28:24.508Z,,0,,,NaN,,,,,,false,,,,2534905,2534904.7999999523,,2534904.2000000477,,2534908.74,8,400,,,
break_continue,html.Screen,4_87_2,2023-10-30T23:28:24.508Z,,0,,,NaN,,,,,,false,,,,2534905.2999999523,2534905.0999999046,,2534905,,2534908.74,8,400,,,
sequence,flow.Sequence,4_87,2023-10-30T23:28:24.508Z,,0,,,3537.7229999047704,completion,,,,,false,,,,2534905.4000000954,2534905.0999999046,2531329.458,2531348.0999999046,2531367.377,2534908.74,8,400,,,
trial,html.Screen,4_88_0,2023-10-30T23:28:28.324Z,,0,2,,3811.660000095144,response,ISIC_4591316.JPG,9,ISIC_0069986.JPG,ISIC_0069986.JPG,false,0,keypress(z),500,2538720.9000000954,2538720.4000000954,2534892.859,2534905.5999999046,2534908.74,2538738.307,8,400,39,,ISIC_4591316.JPG
break,html.Screen,4_88_1,2023-10-30T23:28:28.326Z,,0,,,NaN,,,,,,false,,,,2538723.4000000954,2538722.9000000954,,2538721.2999999523,,2538738.307,8,400,,,
break_continue,html.Screen,4_88_2,2023-10-30T23:28:28.327Z,,0,,,NaN,,,,,,false,,,,2538724.7000000477,2538724.2999999523,,2538723.9000000954,,2538738.307,8,400,,,
sequence,flow.Sequence,4_88,2023-10-30T23:28:28.328Z,,0,,,3815.5599999520928,completion,,,,,false,,,,2538725.0999999046,2538724.2999999523,2534892.859,2534905.4000000954,2534908.74,2538738.307,8,400,,,
trial,html.Screen,4_89_0,2023-10-30T23:28:32.242Z,,0,2,,3900.7929999046028,response,ISIC_0066354.JPG,9,ISIC_0027411.JPG,ISIC_0066354.JPG,false,1,keypress(m),500,2542639.5999999046,2542639.0999999046,2538722.111,2538725.4000000954,2538738.307,2542651.189,8,400,40,,ISIC_0027411.JPG
break,html.Screen,4_89_1,2023-10-30T23:28:32.244Z,,0,,,NaN,,,,,,false,,,,2542641.5,2542641.0999999046,,2542640,,2542651.189,8,400,,,
break_continue,html.Screen,4_89_2,2023-10-30T23:28:32.245Z,,0,,,NaN,,,,,,false,,,,2542642.2999999523,2542642,,2542641.7999999523,,2542651.189,8,400,,,
sequence,flow.Sequence,4_89,2023-10-30T23:28:32.245Z,,0,,,3903.69299999997,completion,,,,,false,,,,2542642.7000000477,2542642,2538722.111,2538725.2999999523,2538738.307,2542651.189,8,400,,,
trial,html.Screen,4_90_0,2023-10-30T23:28:37.149Z,,0,2,,4894.81100000022,response,ISIC_0029000.JPG,10,ISIC_9433388.JPG,ISIC_0029000.JPG,false,1,keypress(m),500,2547546.5999999046,2547546,2542634.804,2542645.0999999046,2542651.189,2547563.122,8,400,41,,ISIC_9433388.JPG
break,html.Screen,4_90_1,2023-10-30T23:28:37.152Z,,0,,,NaN,,,,,,false,,,,2547549.0999999046,2547548.5,,2547547.0999999046,,2547563.122,8,400,,,
break_continue,html.Screen,4_90_2,2023-10-30T23:28:37.153Z,,0,,,NaN,,,,,,false,,,,2547550,2547549.7000000477,,2547549.4000000954,,2547563.122,8,400,,,
sequence,flow.Sequence,4_90,2023-10-30T23:28:37.153Z,,0,,,4898.5110000479035,completion,,,,,false,,,,2547550.4000000954,2547549.7000000477,2542634.804,2542643,2542651.189,2547563.122,8,400,,,
trial,html.Screen,4_91_0,2023-10-30T23:28:40.986Z,,0,2,,3819.6779999523424,response,ISIC_9232153.JPG,10,ISIC_0056389.JPG,ISIC_0056389.JPG,false,0,keypress(z),500,2551383.4000000954,2551382.7999999523,2547547.121,2547550.7000000477,2547563.122,2551392.618,8,400,42,,ISIC_9232153.JPG
break,html.Screen,4_91_1,2023-10-30T23:28:40.988Z,,0,,,NaN,,,,,,false,,,,2551385.2000000477,2551384.9000000954,,2551383.7999999523,,2551392.618,8,400,,,
break_continue,html.Screen,4_91_2,2023-10-30T23:28:40.989Z,,0,,,NaN,,,,,,false,,,,2551386.0999999046,2551385.7999999523,,2551385.5,,2551392.618,8,400,,,
sequence,flow.Sequence,4_91,2023-10-30T23:28:40.989Z,,0,,,3822.6779999523424,completion,,,,,false,,,,2551386.5999999046,2551385.7999999523,2547547.121,2547550.5999999046,2547563.122,2551392.618,8,400,,,
trial,html.Screen,4_92_0,2023-10-30T23:28:45.576Z,,0,2,,4579.882000000216,response,ISIC_0333091.JPG,11,ISIC_4326917.JPG,ISIC_0333091.JPG,false,1,keypress(m),500,2555973,2555972.5,2551376.673,2551386.9000000954,2551392.618,2555988.104,8,400,43,,ISIC_4326917.JPG
break,html.Screen,4_92_1,2023-10-30T23:28:45.578Z,,0,,,NaN,,,,,,false,,,,2555975.5,2555974.9000000954,,2555973.5,,2555988.104,8,400,,,
break_continue,html.Screen,4_92_2,2023-10-30T23:28:45.579Z,,0,,,NaN,,,,,,false,,,,2555976.4000000954,2555976.0999999046,,2555975.7999999523,,2555988.104,8,400,,,
sequence,flow.Sequence,4_92,2023-10-30T23:28:45.579Z,,0,,,4583.481999904849,completion,,,,,false,,,,2555976.7999999523,2555976.0999999046,2551376.673,2551386.7999999523,2551392.618,2555988.104,8,400,,,
trial,html.Screen,4_93_0,2023-10-30T23:28:50.437Z,,0,2,,4845.995999904815,response,ISIC_0056799.JPG,10,ISIC_0057669.JPG,ISIC_0056799.JPG,false,1,keypress(m),500,2560834.7000000477,2560834.0999999046,2555972.013,2555977.2000000477,2555988.104,2560850.003,8,400,44,,ISIC_0057669.JPG
break,html.Screen,4_93_1,2023-10-30T23:28:50.440Z,,0,,,NaN,,,,,,false,,,,2560837,2560836.5,,2560835.2000000477,,2560850.003,8,400,,,
break_continue,html.Screen,4_93_2,2023-10-30T23:28:50.441Z,,0,,,NaN,,,,,,false,,,,2560837.9000000954,2560837.5999999046,,2560837.2999999523,,2560850.003,8,400,,,
sequence,flow.Sequence,4_93,2023-10-30T23:28:50.441Z,,0,,,4849.495999904815,completion,,,,,false,,,,2560838.2999999523,2560837.5999999046,2555972.013,2555977,2555988.104,2560850.003,8,400,,,
trial,html.Screen,4_94_0,2023-10-30T23:28:54.015Z,,0,2,,3561.496999999974,response,ISIC_9788174.JPG,8,ISIC_4042619.JPG,ISIC_9788174.JPG,false,1,keypress(m),500,2564412.0999999046,2564411.5,2560833.545,2560838.7000000477,2560850.003,2564446.436,8,400,45,,ISIC_4042619.JPG
break,html.Screen,4_94_1,2023-10-30T23:28:54.017Z,,0,,,NaN,,,,,,false,,,,2564414.5999999046,2564414,,2564412.5,,2564446.436,8,400,,,
break_continue,html.Screen,4_94_2,2023-10-30T23:28:54.019Z,,0,,,NaN,,,,,,false,,,,2564415.9000000954,2564415.4000000954,,2564414.9000000954,,2564446.436,8,400,,,
sequence,flow.Sequence,4_94,2023-10-30T23:28:54.019Z,,0,,,3565.3970000953414,completion,,,,,false,,,,2564416.4000000954,2564415.4000000954,2560833.545,2560838.5999999046,2560850.003,2564446.436,8,400,,,
trial,html.Screen,4_95_0,2023-10-30T23:28:57.737Z,,0,2,,3687.8639999520965,response,ISIC_5102688.JPG,11,ISIC_0011039.JPG,ISIC_0011039.JPG,false,0,keypress(z),500,2568134.7999999523,2568134.2999999523,2564430.065,2564416.7000000477,2564446.436,2568142.858,8,400,46,,ISIC_5102688.JPG
break,html.Screen,4_95_1,2023-10-30T23:28:57.739Z,,0,,,NaN,,,,,,false,,,,2568136.7000000477,2568136.2999999523,,2568135.2000000477,,2568142.858,8,400,,,
break_continue,html.Screen,4_95_2,2023-10-30T23:28:57.740Z,,0,,,NaN,,,,,,false,,,,2568137.7000000477,2568137.4000000954,,2568137.0999999046,,2568142.858,8,400,,,
sequence,flow.Sequence,4_95,2023-10-30T23:28:57.741Z,,0,,,3690.9640000951476,completion,,,,,false,,,,2568138.2000000477,2568137.4000000954,2564430.065,2564416.5999999046,2564446.436,2568142.858,8,400,,,
trial,html.Screen,4_96_0,2023-10-30T23:29:04.034Z,,0,2,,6287.741999904625,response,ISIC_8503961.JPG,8,ISIC_0027981.JPG,ISIC_8503961.JPG,false,1,keypress(m),500,2574431.0999999046,2574430.5999999046,2568126.87,2568138.5,2568142.858,2574453.428,8,400,47,,ISIC_0027981.JPG
break,html.Screen,4_96_1,2023-10-30T23:29:04.036Z,,0,,,NaN,,,,,,false,,,,2574433.0999999046,2574432.5,,2574431.5999999046,,2574453.428,8,400,,,
break_continue,html.Screen,4_96_2,2023-10-30T23:29:04.037Z,,0,,,NaN,,,,,,false,,,,2574433.9000000954,2574433.5999999046,,2574433.4000000954,,2574453.428,8,400,,,
sequence,flow.Sequence,4_96,2023-10-30T23:29:04.037Z,,0,,,6290.741999904625,completion,,,,,false,,,,2574434.2999999523,2574433.5999999046,2568126.87,2568138.4000000954,2568142.858,2574453.428,8,400,,,
trial,html.Screen,4_97_0,2023-10-30T23:29:08.474Z,,0,2,,4417.8719999524765,response,ISIC_0070003.JPG,13,ISIC_0010061.JPG,ISIC_0070003.JPG,false,1,keypress(m),500,2578871.7000000477,2578871.2999999523,2574436.811,2574434.5999999046,2574453.428,2578882.35,8,400,48,,ISIC_0010061.JPG
break,html.Screen,4_97_1,2023-10-30T23:29:08.476Z,,0,,,NaN,,,,,,false,,,,2578873.7999999523,2578873.2999999523,,2578872.2000000477,,2578882.35,8,400,,,
break_continue,html.Screen,4_97_2,2023-10-30T23:29:08.477Z,,0,,,NaN,,,,,,false,,,,2578874.5999999046,2578874.2999999523,,2578874,,2578882.35,8,400,,,
sequence,flow.Sequence,4_97,2023-10-30T23:29:08.478Z,,0,,,4420.8719999524765,completion,,,,,false,,,,2578875,2578874.2999999523,2574436.811,2574434.5,2574453.428,2578882.35,8,400,,,
trial,html.Screen,4_98_0,2023-10-30T23:29:11.780Z,,0,2,,3294.8500000475906,response,ISIC_0046597.JPG,10,ISIC_0033923.JPG,ISIC_0046597.JPG,false,1,keypress(m),500,2582177.7000000477,2582177.2000000477,2578865.808,2578875.5,2578882.35,2582195.786,8,400,49,,ISIC_0033923.JPG
break,html.Screen,4_98_1,2023-10-30T23:29:11.783Z,,0,,,NaN,,,,,,false,,,,2582180.2999999523,2582179.7000000477,,2582178.2999999523,,2582195.786,8,400,,,
break_continue,html.Screen,4_98_2,2023-10-30T23:29:11.784Z,,0,,,NaN,,,,,,false,,,,2582181.7000000477,2582181.0999999046,,2582180.7000000477,,2582195.786,8,400,,,
sequence,flow.Sequence,4_98,2023-10-30T23:29:11.785Z,,0,,,3298.7499999045394,completion,,,,,false,,,,2582182.0999999046,2582181.0999999046,2578865.808,2578875.2000000477,2578882.35,2582195.786,8,400,,,
trial,html.Screen,4_99_0,2023-10-30T23:29:17.205Z,,0,2,,5406.714000000153,response,ISIC_0064997.JPG,12,ISIC_0000517.JPG,ISIC_0000517.JPG,false,0,keypress(z),500,2587602.7000000477,2587602.5,2582162.824,2582182.5,2582195.786,2587607.568,8,400,50,,ISIC_0064997.JPG
break,html.Screen,4_99_1,2023-10-30T23:29:27.202Z,,0,,,10006.569000000134,timeout,,,,,false,,,,2597599.2000000477,2597597.636,2587590.922,2587602.9000000954,2587607.568,2597614.137,8,400,,,
break_continue,html.Screen,4_99_2,2023-10-30T23:29:35.531Z,,0,,,8254.162999952212,response,,,,,false,continue,keypress(Space),,2605928.0999999046,2605868.2999999523,2597597.636,2597599.4000000954,2597614.137,2605939.151,8,400,,,
sequence,flow.Sequence,4_99,2023-10-30T23:29:35.531Z,,0,,,23672.51399995247,completion,,,,,false,,,,2605928.7000000477,2605868.2999999523,2582162.824,2582182.4000000954,2582195.786,2605939.151,8,400,,,
trial,html.Screen,4_100_0,2023-10-30T23:29:41.024Z,,0,3,,5482.049000047613,response,ISIC_0013617.JPG,11,ISIC_0064879.JPG,ISIC_0064879.JPG,false,0,keypress(z),500,2611421.7999999523,2611421.2000000477,2605922.578,2605929,2605939.151,2611433.793,8,400,1,,ISIC_0013617.JPG
break,html.Screen,4_100_1,2023-10-30T23:29:41.026Z,,0,,,NaN,,,,,,false,,,,2611423.7999999523,2611423.4000000954,,2611422.2999999523,,2611433.793,8,400,,,
break_continue,html.Screen,4_100_2,2023-10-30T23:29:41.027Z,,0,,,NaN,,,,,,false,,,,2611424.5999999046,2611424.2999999523,,2611424,,2611433.793,8,400,,,
sequence,flow.Sequence,4_100,2023-10-30T23:29:41.028Z,,0,,,5485.1489999522455,completion,,,,,false,,,,2611425.0999999046,2611424.2999999523,2605922.578,2605928.9000000954,2605939.151,2611433.793,8,400,,,
trial,html.Screen,4_101_0,2023-10-30T23:29:45.993Z,,0,3,,4956.306999904569,response,ISIC_0011943.JPG,13,ISIC_0028469.JPG,ISIC_0011943.JPG,false,1,keypress(m),500,2616390.5999999046,2616390.0999999046,2611417.72,2611425.4000000954,2611433.793,2616395.576,8,400,2,,ISIC_0028469.JPG
break,html.Screen,4_101_1,2023-10-30T23:29:45.995Z,,0,,,NaN,,,,,,false,,,,2616392.5,2616392,,2616390.9000000954,,2616395.576,8,400,,,
break_continue,html.Screen,4_101_2,2023-10-30T23:29:45.999Z,,0,,,NaN,,,,,,false,,,,2616396.0999999046,2616395.5,,2616395.0999999046,,2616395.576,8,400,,,
sequence,flow.Sequence,4_101,2023-10-30T23:29:45.999Z,,0,,,4961.706999999937,completion,,,,,false,,,,2616396.7999999523,2616395.5,2611417.72,2611425.2999999523,2611433.793,2616395.576,8,400,,,
trial,html.Screen,4_102_0,2023-10-30T23:29:49.926Z,,0,3,,3927.324000095483,response,ISIC_8523262.JPG,9,ISIC_0030732.JPG,ISIC_0030732.JPG,false,0,keypress(z),500,2620323.4000000954,2620322.9000000954,2616379.051,2616397.0999999046,2616395.576,2620346.476,8,400,3,,ISIC_8523262.JPG
break,html.Screen,4_102_1,2023-10-30T23:29:49.928Z,,0,,,NaN,,,,,,false,,,,2620325.4000000954,2620324.9000000954,,2620323.7999999523,,2620346.476,8,400,,,
break_continue,html.Screen,4_102_2,2023-10-30T23:29:49.929Z,,0,,,NaN,,,,,,false,,,,2620326.5999999046,2620326.2000000477,,2620325.7999999523,,2620346.476,8,400,,,
sequence,flow.Sequence,4_102,2023-10-30T23:29:49.930Z,,0,,,3930.624000047799,completion,,,,,false,,,,2620327.2000000477,2620326.2000000477,2616379.051,2616397.0999999046,2616395.576,2620346.476,8,400,,,
trial,html.Screen,4_103_0,2023-10-30T23:29:55.570Z,,0,3,,5620.123999904841,response,ISIC_6450034.JPG,8,ISIC_0062005.JPG,ISIC_6450034.JPG,false,1,keypress(m),500,2625967,2625966.5999999046,2620309.075,2620327.5999999046,2620346.476,2625969.515,8,400,4,,ISIC_0062005.JPG
break,html.Screen,4_103_1,2023-10-30T23:29:55.572Z,,0,,,NaN,,,,,,false,,,,2625969,2625968.5,,2625967.5,,2625969.515,8,400,,,
break_continue,html.Screen,4_103_2,2023-10-30T23:29:55.573Z,,0,,,NaN,,,,,,false,,,,2625970.2000000477,2625969.5,,2625969.2999999523,,2625969.515,8,400,,,
sequence,flow.Sequence,4_103,2023-10-30T23:29:55.573Z,,0,,,5623.024000000209,completion,,,,,false,,,,2625970.7000000477,2625969.5,2620309.075,2620327.4000000954,2620346.476,2625969.515,8,400,,,
trial,html.Screen,4_104_0,2023-10-30T23:29:59.210Z,,0,3,,3637.6850000475533,response,ISIC_5835414.JPG,10,ISIC_9596721.JPG,ISIC_9596721.JPG,false,0,keypress(z),500,2629607.7000000477,2629607.2000000477,2625953.525,2625971.2000000477,2625969.515,2629615.948,8,400,5,,ISIC_5835414.JPG
break,html.Screen,4_104_1,2023-10-30T23:29:59.212Z,,0,,,NaN,,,,,,false,,,,2629609.5999999046,2629609.2000000477,,2629608.0999999046,,2629615.948,8,400,,,
break_continue,html.Screen,4_104_2,2023-10-30T23:29:59.213Z,,0,,,NaN,,,,,,false,,,,2629610.5,2629610.2000000477,,2629609.9000000954,,2629615.948,8,400,,,
sequence,flow.Sequence,4_104,2023-10-30T23:29:59.214Z,,0,,,3640.6850000475533,completion,,,,,false,,,,2629610.9000000954,2629610.2000000477,2625953.525,2625971,2625969.515,2629615.948,8,400,,,
trial,html.Screen,4_105_0,2023-10-30T23:30:03.090Z,,0,3,,3870.651999904774,response,ISIC_0011695.JPG,7,ISIC_7162711.JPG,ISIC_0011695.JPG,false,1,keypress(m),500,2633487.0999999046,2633486.5999999046,2629599.88,2629611.2999999523,2629615.948,2633495.488,8,400,6,,ISIC_7162711.JPG
break,html.Screen,4_105_1,2023-10-30T23:30:03.092Z,,0,,,NaN,,,,,,false,,,,2633489.2000000477,2633488.7000000477,,2633487.5,,2633495.488,8,400,,,
break_continue,html.Screen,4_105_2,2023-10-30T23:30:03.093Z,,0,,,NaN,,,,,,false,,,,2633490.2000000477,2633489.7999999523,,2633489.5,,2633495.488,8,400,,,
sequence,flow.Sequence,4_105,2023-10-30T23:30:03.093Z,,0,,,3873.851999952458,completion,,,,,false,,,,2633490.7000000477,2633489.7999999523,2629599.88,2629611.0999999046,2629615.948,2633495.488,8,400,,,
trial,html.Screen,4_106_0,2023-10-30T23:30:06.634Z,,0,3,,3535.712000047788,response,ISIC_4943797.JPG,10,ISIC_0014264.JPG,ISIC_0014264.JPG,false,0,keypress(z),500,2637031.7999999523,2637031.2000000477,2633479.309,2633491,2633495.488,2637042.008,8,400,7,,ISIC_4943797.JPG
break,html.Screen,4_106_1,2023-10-30T23:30:06.636Z,,0,,,NaN,,,,,,false,,,,2637033.7000000477,2637033.2000000477,,2637032.0999999046,,2637042.008,8,400,,,
break_continue,html.Screen,4_106_2,2023-10-30T23:30:06.637Z,,0,,,NaN,,,,,,false,,,,2637034.5,2637034.2999999523,,2637034,,2637042.008,8,400,,,
sequence,flow.Sequence,4_106,2023-10-30T23:30:06.638Z,,0,,,3538.8119999524206,completion,,,,,false,,,,2637034.9000000954,2637034.2999999523,2633479.309,2633490.9000000954,2633495.488,2637042.008,8,400,,,
trial,html.Screen,4_107_0,2023-10-30T23:30:10.409Z,,0,3,,3763.892000095453,response,ISIC_0062935.JPG,9,ISIC_0005006.JPG,ISIC_0062935.JPG,false,1,keypress(m),500,2640806.5,2640805.9000000954,2637025.746,2637035.2999999523,2637042.008,2640821.616,8,400,8,,ISIC_0005006.JPG
break,html.Screen,4_107_1,2023-10-30T23:30:10.411Z,,0,,,NaN,,,,,,false,,,,2640808.7000000477,2640808.2000000477,,2640806.9000000954,,2640821.616,8,400,,,
break_continue,html.Screen,4_107_2,2023-10-30T23:30:10.412Z,,0,,,NaN,,,,,,false,,,,2640809.5999999046,2640809.4000000954,,2640809,,2640821.616,8,400,,,
sequence,flow.Sequence,4_107,2023-10-30T23:30:10.413Z,,0,,,3767.392000095453,completion,,,,,false,,,,2640810.0999999046,2640809.4000000954,2637025.746,2637035.2000000477,2637042.008,2640821.616,8,400,,,
trial,html.Screen,4_108_0,2023-10-30T23:30:20.273Z,,0,3,,9848.384000000078,response,ISIC_5564757.JPG,7,ISIC_6004197.JPG,ISIC_5564757.JPG,false,1,keypress(m),500,2650670.5,2650670,2640805.527,2640810.4000000954,2640821.616,2650695.282,8,400,9,,ISIC_6004197.JPG
break,html.Screen,4_108_1,2023-10-30T23:30:20.275Z,,0,,,NaN,,,,,,false,,,,2650672.2999999523,2650671.9000000954,,2650670.9000000954,,2650695.282,8,400,,,
break_continue,html.Screen,4_108_2,2023-10-30T23:30:20.276Z,,0,,,NaN,,,,,,false,,,,2650673.0999999046,2650672.7999999523,,2650672.5999999046,,2650695.282,8,400,,,
sequence,flow.Sequence,4_108,2023-10-30T23:30:20.276Z,,0,,,9851.183999952395,completion,,,,,false,,,,2650673.5,2650672.7999999523,2640805.527,2640810.2999999523,2640821.616,2650695.282,8,400,,,
trial,html.Screen,4_109_0,2023-10-30T23:30:25.550Z,,0,3,,5251.217999999877,response,ISIC_0012672.JPG,8,ISIC_9254433.JPG,ISIC_0012672.JPG,false,1,keypress(m),500,2655947,2655946.5,2650678.667,2650673.7999999523,2650695.282,2655956.806,8,400,10,,ISIC_9254433.JPG
break,html.Screen,4_109_1,2023-10-30T23:30:25.552Z,,0,,,NaN,,,,,,false,,,,2655949,2655948.5999999046,,2655947.4000000954,,2655956.806,8,400,,,
break_continue,html.Screen,4_109_2,2023-10-30T23:30:25.553Z,,0,,,NaN,,,,,,false,,,,2655949.9000000954,2655949.5,,2655949.2999999523,,2655956.806,8,400,,,
sequence,flow.Sequence,4_109,2023-10-30T23:30:25.553Z,,0,,,5254.217999999877,completion,,,,,false,,,,2655950.2000000477,2655949.5,2650678.667,2650673.7000000477,2650695.282,2655956.806,8,400,,,
trial,html.Screen,4_110_0,2023-10-30T23:30:29.196Z,,0,3,,3635.7939999047667,response,ISIC_5839679.JPG,10,ISIC_0032535.JPG,ISIC_0032535.JPG,false,0,keypress(z),500,2659593.2000000477,2659592.5999999046,2655940.569,2655950.5999999046,2655956.806,2659603.236,8,400,11,,ISIC_5839679.JPG
break,html.Screen,4_110_1,2023-10-30T23:30:29.198Z,,0,,,NaN,,,,,,false,,,,2659595.2000000477,2659594.7000000477,,2659593.5999999046,,2659603.236,8,400,,,
break_continue,html.Screen,4_110_2,2023-10-30T23:30:29.199Z,,0,,,NaN,,,,,,false,,,,2659596,2659595.7999999523,,2659595.4000000954,,2659603.236,8,400,,,
sequence,flow.Sequence,4_110,2023-10-30T23:30:29.199Z,,0,,,3638.9939999524504,completion,,,,,false,,,,2659596.4000000954,2659595.7999999523,2655940.569,2655950.5999999046,2655956.806,2659603.236,8,400,,,
trial,html.Screen,4_111_0,2023-10-30T23:30:34.869Z,,0,3,,5662.164000095334,response,ISIC_7180096.JPG,10,ISIC_0065582.JPG,ISIC_7180096.JPG,false,1,keypress(m),500,2665265.9000000954,2665265.4000000954,2659586.966,2659596.7999999523,2659603.236,2665280.982,8,400,12,,ISIC_0065582.JPG
break,html.Screen,4_111_1,2023-10-30T23:30:34.871Z,,0,,,NaN,,,,,,false,,,,2665268.2000000477,2665267.7000000477,,2665266.4000000954,,2665280.982,8,400,,,
break_continue,html.Screen,4_111_2,2023-10-30T23:30:34.872Z,,0,,,NaN,,,,,,false,,,,2665269.2000000477,2665268.7999999523,,2665268.5,,2665280.982,8,400,,,
sequence,flow.Sequence,4_111,2023-10-30T23:30:34.872Z,,0,,,5665.563999952283,completion,,,,,false,,,,2665269.7000000477,2665268.7999999523,2659586.966,2659596.7000000477,2659603.236,2665280.982,8,400,,,
trial,html.Screen,4_112_0,2023-10-30T23:30:39.250Z,,0,3,,4366.418000095524,response,ISIC_4471367.JPG,6,ISIC_3676643.JPG,ISIC_3676643.JPG,false,0,keypress(z),500,2669647.9000000954,2669647.4000000954,2665264.789,2665270,2665280.982,2669660.004,8,400,13,,ISIC_4471367.JPG
break,html.Screen,4_112_1,2023-10-30T23:30:39.252Z,,0,,,NaN,,,,,,false,,,,2669649.2999999523,2669649,,2669648.2000000477,,2669660.004,8,400,,,
break_continue,html.Screen,4_112_2,2023-10-30T23:30:39.253Z,,0,,,NaN,,,,,,false,,,,2669650,2669649.7999999523,,2669649.5999999046,,2669660.004,8,400,,,
sequence,flow.Sequence,4_112,2023-10-30T23:30:39.253Z,,0,,,4368.817999952473,completion,,,,,false,,,,2669650.4000000954,2669649.7999999523,2665264.789,2665269.9000000954,2665280.982,2669660.004,8,400,,,
trial,html.Screen,4_113_0,2023-10-30T23:30:42.800Z,,0,3,,3536.5959999044426,response,ISIC_1911193.JPG,13,ISIC_0055701.JPG,ISIC_0055701.JPG,false,0,keypress(z),500,2673197,2673196.5999999046,2669643.36,2669650.5999999046,2669660.004,2673206.592,8,400,14,,ISIC_1911193.JPG
break,html.Screen,4_113_1,2023-10-30T23:30:42.802Z,,0,,,NaN,,,,,,false,,,,2673199,2673198.5999999046,,2673197.5,,2673206.592,8,400,,,
break_continue,html.Screen,4_113_2,2023-10-30T23:30:42.803Z,,0,,,NaN,,,,,,false,,,,2673199.9000000954,2673199.5,,2673199.2999999523,,2673206.592,8,400,,,
sequence,flow.Sequence,4_113,2023-10-30T23:30:42.803Z,,0,,,3539.49599999981,completion,,,,,false,,,,2673200.2999999523,2673199.5,2669643.36,2669650.5,2669660.004,2673206.592,8,400,,,
trial,html.Screen,4_114_0,2023-10-30T23:30:46.680Z,,0,3,,3870.5079999044538,response,ISIC_9644813.JPG,10,ISIC_0001141.JPG,ISIC_0001141.JPG,false,0,keypress(z),500,2677077.7000000477,2677077.0999999046,2673189.745,2673200.5999999046,2673206.592,2677086.087,8,400,15,,ISIC_9644813.JPG
break,html.Screen,4_114_1,2023-10-30T23:30:46.682Z,,0,,,NaN,,,,,,false,,,,2677079.5999999046,2677079.2000000477,,2677078.0999999046,,2677086.087,8,400,,,
break_continue,html.Screen,4_114_2,2023-10-30T23:30:46.683Z,,0,,,NaN,,,,,,false,,,,2677080.5,2677080.0999999046,,2677079.9000000954,,2677086.087,8,400,,,
sequence,flow.Sequence,4_114,2023-10-30T23:30:46.684Z,,0,,,3873.5079999044538,completion,,,,,false,,,,2677080.9000000954,2677080.0999999046,2673189.745,2673200.5,2673206.592,2677086.087,8,400,,,
trial,html.Screen,4_115_0,2023-10-30T23:30:51.696Z,,0,3,,5007.212999952491,response,ISIC_0054559.JPG,5,ISIC_5732201.JPG,ISIC_5732201.JPG,false,0,keypress(z),500,2682093.7000000477,2682093.2999999523,2677069.699,2677081.2000000477,2677086.087,2682097.832,8,400,16,,ISIC_0054559.JPG
break,html.Screen,4_115_1,2023-10-30T23:30:51.698Z,,0,,,NaN,,,,,,false,,,,2682095.7999999523,2682095.2999999523,,2682094.2000000477,,2682097.832,8,400,,,
break_continue,html.Screen,4_115_2,2023-10-30T23:30:51.699Z,,0,,,NaN,,,,,,false,,,,2682096.5999999046,2682096.2999999523,,2682096,,2682097.832,8,400,,,
sequence,flow.Sequence,4_115,2023-10-30T23:30:51.700Z,,0,,,5010.212999952491,completion,,,,,false,,,,2682097,2682096.2999999523,2677069.699,2677081.2000000477,2677086.087,2682097.832,8,400,,,
trial,html.Screen,4_116_0,2023-10-30T23:30:56.745Z,,0,3,,5043.868000047747,response,ISIC_0031408.JPG,13,ISIC_0058199.JPG,ISIC_0031408.JPG,false,1,keypress(m),500,2687142.2000000477,2687141.7000000477,2682081.663,2682097.2999999523,2682097.832,2687159.539,8,400,17,,ISIC_0058199.JPG
break,html.Screen,4_116_1,2023-10-30T23:30:56.747Z,,0,,,NaN,,,,,,false,,,,2687144.7999999523,2687144.2000000477,,2687142.7000000477,,2687159.539,8,400,,,
break_continue,html.Screen,4_116_2,2023-10-30T23:30:56.748Z,,0,,,NaN,,,,,,false,,,,2687145.9000000954,2687145.5,,2687145.0999999046,,2687159.539,8,400,,,
sequence,flow.Sequence,4_116,2023-10-30T23:30:56.749Z,,0,,,5047.668000000063,completion,,,,,false,,,,2687146.2999999523,2687145.5,2682081.663,2682097.2999999523,2682097.832,2687159.539,8,400,,,
trial,html.Screen,4_117_0,2023-10-30T23:31:00.599Z,,0,3,,3836.4610000001267,response,ISIC_0032939.JPG,10,ISIC_0055917.JPG,ISIC_0055917.JPG,false,0,keypress(z),500,2690996.5999999046,2690996,2687142.906,2687146.7000000477,2687159.539,2691005.789,8,400,18,,ISIC_0032939.JPG
break,html.Screen,4_117_1,2023-10-30T23:31:00.601Z,,0,,,NaN,,,,,,false,,,,2690998.5999999046,2690998.0999999046,,2690997.0999999046,,2691005.789,8,400,,,
break_continue,html.Screen,4_117_2,2023-10-30T23:31:00.602Z,,0,,,NaN,,,,,,false,,,,2690999.5,2690999.0999999046,,2690998.9000000954,,2691005.789,8,400,,,
sequence,flow.Sequence,4_117,2023-10-30T23:31:00.602Z,,0,,,3839.5609999047592,completion,,,,,false,,,,2690999.9000000954,2690999.0999999046,2687142.906,2687146.5999999046,2687159.539,2691005.789,8,400,,,
trial,html.Screen,4_118_0,2023-10-30T23:31:03.680Z,,0,3,,3071.111000095494,response,ISIC_8603734.JPG,11,ISIC_0011289.JPG,ISIC_0011289.JPG,false,0,keypress(z),500,2694077.5,2694076.9000000954,2690989.559,2691000.2000000477,2691005.789,2694086.096,8,400,19,,ISIC_8603734.JPG
break,html.Screen,4_118_1,2023-10-30T23:31:03.682Z,,0,,,NaN,,,,,,false,,,,2694079.4000000954,2694079,,2694077.7999999523,,2694086.096,8,400,,,
break_continue,html.Screen,4_118_2,2023-10-30T23:31:03.683Z,,0,,,NaN,,,,,,false,,,,2694080.2000000477,2694080,,2694079.7000000477,,2694086.096,8,400,,,
sequence,flow.Sequence,4_118,2023-10-30T23:31:03.683Z,,0,,,3074.2110000001267,completion,,,,,false,,,,2694080.7000000477,2694080,2690989.559,2691000.0999999046,2691005.789,2694086.096,8,400,,,
trial,html.Screen,4_119_0,2023-10-30T23:31:10.027Z,,0,3,,6337.404000000097,response,ISIC_0005028.JPG,9,ISIC_1932064.JPG,ISIC_1932064.JPG,false,0,keypress(z),500,2700424.0999999046,2700423.5,2694070.179,2694081,2694086.096,2700429.886,8,400,20,,ISIC_0005028.JPG
break,html.Screen,4_119_1,2023-10-30T23:31:10.029Z,,0,,,NaN,,,,,,false,,,,2700426.0999999046,2700425.5999999046,,2700424.5,,2700429.886,8,400,,,
break_continue,html.Screen,4_119_2,2023-10-30T23:31:10.029Z,,0,,,NaN,,,,,,false,,,,2700426.9000000954,2700426.5999999046,,2700426.2999999523,,2700429.886,8,400,,,
sequence,flow.Sequence,4_119,2023-10-30T23:31:10.030Z,,0,,,6340.503999904729,completion,,,,,false,,,,2700427.2999999523,2700426.5999999046,2694070.179,2694080.9000000954,2694086.096,2700429.886,8,400,,,
trial,html.Screen,4_120_0,2023-10-30T23:31:15.586Z,,0,3,,5553.413999952376,response,ISIC_5877211.JPG,6,ISIC_0072030.JPG,ISIC_5877211.JPG,false,1,keypress(m),500,2705983.7999999523,2705983.2999999523,2700413.687,2700427.5999999046,2700429.886,2705991.091,8,400,21,,ISIC_0072030.JPG
break,html.Screen,4_120_1,2023-10-30T23:31:15.588Z,,0,,,NaN,,,,,,false,,,,2705985.7999999523,2705985.4000000954,,2705984.2999999523,,2705991.091,8,400,,,
break_continue,html.Screen,4_120_2,2023-10-30T23:31:15.589Z,,0,,,NaN,,,,,,false,,,,2705986.7000000477,2705986.4000000954,,2705986.0999999046,,2705991.091,8,400,,,
sequence,flow.Sequence,4_120,2023-10-30T23:31:15.590Z,,0,,,5556.514000095427,completion,,,,,false,,,,2705987.0999999046,2705986.4000000954,2700413.687,2700427.5999999046,2700429.886,2705991.091,8,400,,,
trial,html.Screen,4_121_0,2023-10-30T23:31:19.629Z,,0,3,,4034.7089999523014,response,ISIC_7010552.JPG,8,ISIC_0473135.JPG,ISIC_7010552.JPG,false,1,keypress(m),500,2710026.2999999523,2710025.7999999523,2705975.048,2705987.4000000954,2705991.091,2710037.136,8,400,22,,ISIC_0473135.JPG
break,html.Screen,4_121_1,2023-10-30T23:31:19.631Z,,0,,,NaN,,,,,,false,,,,2710028.2999999523,2710027.7999999523,,2710026.7000000477,,2710037.136,8,400,,,
break_continue,html.Screen,4_121_2,2023-10-30T23:31:19.632Z,,0,,,NaN,,,,,,false,,,,2710029.2999999523,2710029,,2710028.7000000477,,2710037.136,8,400,,,
sequence,flow.Sequence,4_121,2023-10-30T23:31:19.632Z,,0,,,4037.908999999985,completion,,,,,false,,,,2710029.7999999523,2710029,2705975.048,2705987.4000000954,2705991.091,2710037.136,8,400,,,
trial,html.Screen,4_122_0,2023-10-30T23:31:24.444Z,,0,3,,4803.564000047743,response,ISIC_0071996.JPG,7,ISIC_0069859.JPG,ISIC_0069859.JPG,false,0,keypress(z),500,2714841.2999999523,2714840.7000000477,2710021.2,2710030.2000000477,2710037.136,2714849.092,8,400,23,,ISIC_0071996.JPG
break,html.Screen,4_122_1,2023-10-30T23:31:24.446Z,,0,,,NaN,,,,,,false,,,,2714843.2999999523,2714842.9000000954,,2714841.7000000477,,2714849.092,8,400,,,
break_continue,html.Screen,4_122_2,2023-10-30T23:31:24.447Z,,0,,,NaN,,,,,,false,,,,2714844.4000000954,2714844,,2714843.7000000477,,2714849.092,8,400,,,
sequence,flow.Sequence,4_122,2023-10-30T23:31:24.447Z,,0,,,4806.86400000006,completion,,,,,false,,,,2714844.7999999523,2714844,2710021.2,2710030,2710037.136,2714849.092,8,400,,,
trial,html.Screen,4_123_0,2023-10-30T23:31:28.839Z,,0,3,,4386.507999904454,response,ISIC_0046323.JPG,10,ISIC_6892286.JPG,ISIC_0046323.JPG,false,1,keypress(m),500,2719236.0999999046,2719235.5999999046,2714833.02,2714845.2999999523,2714849.092,2719244.781,8,400,24,,ISIC_6892286.JPG
