sender,sender_type,sender_id,timestamp,meta,,blockNo,condition,duration,ended_on,img_left,img_reveal,img_right,loser,practice,response,response_action,selection_duration,time_commit,time_end,time_render,time_run,time_show,time_switch,total_blocks,total_trials,trialNo,url,winner
informed_consent,html.Screen,0,2023-09-11T23:20:51.144Z,"{""labjs_version"":""20.2.4"",""labjs_build"":{""flavor"":""production"",""commit"":""f5b4a49f956347addd546a832a3327688c2c0fef""},""location"":""https://run.pavlovia.org/MurrayBennett/melanoma-2afc/?participant=67652&platform=sona"",""userAgent"":""Mozilla/5.0 (Windows NT 10.0; Win64; x64) AppleWebKit/537.36 (KHTML, like Gecko) Chrome/116.0.0.0 Safari/537.36 Edg/116.0.1938.76"",""platform"":""Win32"",""language"":""en-US"",""locale"":""en-US"",""timeZone"":""America/Chicago"",""timezoneOffset"":300,""screen_width"":1536,""screen_height"":864,""scroll_width"":1488,""scroll_height"":694,""window_innerWidth"":1488,""window_innerHeight"":742,""devicePixelRatio"":1.25}",,,,40287.73500003576,response,,,,,,consent,click button,,43018.19999998808,43013.90000003576,2492.857,2724.199999988079,2726.165,43025.089,,,,"{""participant"":""67652"",""platform"":""sona""}",
Welcome,html.Screen,1,2023-09-11T23:21:26.740Z,,,,uniform,35583.71100001192,response,,,,,,continue,click button,,78611.90000003576,78608.80000001192,43008.597,43018.40000003576,43025.089,78624.871,,,,,
trial,html.Screen,2_0_0,2023-09-11T23:21:31.026Z,,0,0,,4272.429000011922,response,ISIC_0063388.JPG,,ISIC_0025593.JPG,ISIC_0025593.JPG,true,0,keypress(z),500,82897.69999998808,82897.30000001192,78608.116,78612.10000002384,78624.871,82907.627,1,6,1,,ISIC_0063388.JPG
sequence,flow.Sequence,2_0,2023-09-11T23:21:31.026Z,,0,,,4272.429000011922,completion,,,,,true,,,,82898,82897.30000001192,78608.116,78612.10000002384,78624.871,82907.627,1,6,,,
trial,html.Screen,2_1_0,2023-09-11T23:21:34.908Z,,0,0,,3872.173000011928,response,ISIC_1309015.JPG,,ISIC_0028178.JPG,ISIC_1309015.JPG,true,1,keypress(m),500,86780,86779.80000001192,82891.332,82898.10000002384,82907.627,86790.712,1,6,2,,ISIC_0028178.JPG
sequence,flow.Sequence,2_1,2023-09-11T23:21:34.909Z,,0,,,3872.173000011928,completion,,,,,true,,,,86780.19999998808,86779.80000001192,82891.332,82898,82907.627,86790.712,1,6,,,
trial,html.Screen,2_2_0,2023-09-11T23:21:38.383Z,,0,0,,3463.2880000000005,response,ISIC_3314853.JPG,,ISIC_0031128.JPG,ISIC_0031128.JPG,true,0,keypress(z),500,90254.30000001192,90254,86774.018,86780.30000001192,86790.712,90258.168,1,6,3,,ISIC_3314853.JPG
sequence,flow.Sequence,2_2,2023-09-11T23:21:38.383Z,,0,,,3463.2880000000005,completion,,,,,true,,,,90254.5,90254,86774.018,86780.30000001192,86790.712,90258.168,1,6,,,
trial,html.Screen,2_3_0,2023-09-11T23:21:41.574Z,,0,0,,3187.132000011916,response,ISIC_0031612.JPG,,ISIC_8980141.JPG,ISIC_0031612.JPG,true,1,keypress(m),500,93445.69999998808,93445.30000001192,90242.623,90254.69999998808,90258.168,93457.081,1,6,4,,ISIC_8980141.JPG
sequence,flow.Sequence,2_3,2023-09-11T23:21:41.575Z,,0,,,3187.132000011916,completion,,,,,true,,,,93446.30000001192,93445.30000001192,90242.623,90254.60000002384,90258.168,93457.081,1,6,,,
trial,html.Screen,2_4_0,2023-09-11T23:21:48.528Z,,0,0,,6942.1189999880735,response,ISIC_1197737.JPG,,ISIC_9721604.JPG,ISIC_9721604.JPG,true,0,keypress(z),500,100399.5,100399.19999998808,93440.455,93446.60000002384,93457.081,100407.108,1,6,5,,ISIC_1197737.JPG
sequence,flow.Sequence,2_4,2023-09-11T23:21:48.528Z,,0,,,6942.1189999880735,completion,,,,,true,,,,100399.80000001192,100399.19999998808,93440.455,93446.5,93457.081,100407.108,1,6,,,
trial,html.Screen,2_5_0,2023-09-11T23:21:53.240Z,,0,0,,4704.091999988086,response,ISIC_0025346.JPG,,ISIC_0010681.JPG,ISIC_0025346.JPG,true,1,keypress(m),500,105111.40000003576,105111.19999998808,100390.831,100399.90000003576,100407.108,105123.418,1,6,6,,ISIC_0010681.JPG
sequence,flow.Sequence,2_5,2023-09-11T23:21:53.240Z,,0,,,4704.091999988086,completion,,,,,true,,,,105111.69999998808,105111.19999998808,100390.831,100399.90000003576,100407.108,105123.418,1,6,,,
loop,flow.Loop,2,2023-09-11T23:21:53.240Z,,,,,26486.32899998808,completion,,,,,true,,,,105111.90000003576,105111.19999998808,78608.116,78612,78624.871,105123.418,1,6,,,
exp_instructions,html.Screen,3,2023-09-11T23:22:04.071Z,,,,,10817.882000011916,response,,,,,,continue,keypress(Space),,115942.5,115941.30000001192,105106.952,105112,105123.418,115957.637,,,,,
trial,html.Screen,4_0_0,2023-09-11T23:22:10.074Z,,0,1,,5988.062999988077,response,ISIC_5459256.JPG,12,ISIC_5127759.JPG,ISIC_5459256.JPG,false,1,keypress(m),500,121945.90000003576,121945.69999998808,115940.096,115942.69999998808,115957.637,121956.334,8,400,1,,ISIC_5127759.JPG
break,html.Screen,4_0_1,2023-09-11T23:22:10.076Z,,0,,,NaN,,,,,,false,,,,121947.40000003576,121947.19999998808,,121946.10000002384,,121956.334,8,400,,,
break_continue,html.Screen,4_0_2,2023-09-11T23:22:10.076Z,,0,,,NaN,,,,,,false,,,,121947.80000001192,121947.69999998808,,121947.60000002384,,121956.334,8,400,,,
sequence,flow.Sequence,4_0,2023-09-11T23:22:10.076Z,,0,,,5990.062999988077,completion,,,,,false,,,,121947.80000001192,121947.69999998808,115940.096,115942.69999998808,115957.637,121956.334,8,400,,,
trial,html.Screen,4_1_0,2023-09-11T23:22:17.793Z,,0,1,,7708.165999999997,response,ISIC_3871225.JPG,15,ISIC_3074949.JPG,ISIC_3871225.JPG,false,1,keypress(m),500,129664.69999998808,129664.5,121940.48,121947.90000003576,121956.334,129673.336,8,400,2,,ISIC_3074949.JPG
break,html.Screen,4_1_1,2023-09-11T23:22:17.795Z,,0,,,NaN,,,,,,false,,,,129666.10000002384,129665.90000003576,,129664.90000003576,,129673.336,8,400,,,
break_continue,html.Screen,4_1_2,2023-09-11T23:22:17.795Z,,0,,,NaN,,,,,,false,,,,129666.30000001192,129666.30000001192,,129666.19999998808,,129673.336,8,400,,,
sequence,flow.Sequence,4_1,2023-09-11T23:22:17.795Z,,0,,,7709.966000011918,completion,,,,,false,,,,129666.5,129666.30000001192,121940.48,121947.80000001192,121956.334,129673.336,8,400,,,
trial,html.Screen,4_2_0,2023-09-11T23:22:24.121Z,,0,1,,6319.064000035767,response,ISIC_8855790.JPG,14,ISIC_0033636.JPG,ISIC_0033636.JPG,false,0,keypress(z),500,135992.60000002384,135992.40000003576,129657.205,129666.5,129673.336,136006.401,8,400,3,,ISIC_8855790.JPG
break,html.Screen,4_2_1,2023-09-11T23:22:24.122Z,,0,,,NaN,,,,,,false,,,,135993.90000003576,135993.69999998808,,135992.69999998808,,136006.401,8,400,,,
break_continue,html.Screen,4_2_2,2023-09-11T23:22:24.123Z,,0,,,NaN,,,,,,false,,,,135994.10000002384,135994,,135993.90000003576,,136006.401,8,400,,,
sequence,flow.Sequence,4_2,2023-09-11T23:22:24.123Z,,0,,,6320.664000000004,completion,,,,,false,,,,135994.19999998808,135994,129657.205,129666.5,129673.336,136006.401,8,400,,,
trial,html.Screen,4_3_0,2023-09-11T23:22:28.401Z,,0,1,,4265.99900003575,response,ISIC_0067127.JPG,5,ISIC_0064879.JPG,ISIC_0067127.JPG,false,1,keypress(m),500,140272.69999998808,140272.40000003576,135989.112,135994.19999998808,136006.401,140289.525,8,400,4,,ISIC_0064879.JPG
break,html.Screen,4_3_1,2023-09-11T23:22:28.402Z,,0,,,NaN,,,,,,false,,,,140274,140273.80000001192,,140272.80000001192,,140289.525,8,400,,,
break_continue,html.Screen,4_3_2,2023-09-11T23:22:28.403Z,,0,,,NaN,,,,,,false,,,,140274.19999998808,140274.19999998808,,140274,,140289.525,8,400,,,
sequence,flow.Sequence,4_3,2023-09-11T23:22:28.403Z,,0,,,4267.7989999880665,completion,,,,,false,,,,140274.40000003576,140274.19999998808,135989.112,135994.19999998808,136006.401,140289.525,8,400,,,
trial,html.Screen,4_4_0,2023-09-11T23:22:33.805Z,,0,1,,5387.174999988085,response,ISIC_0024683.JPG,6,ISIC_0067485.JPG,ISIC_0024683.JPG,false,1,keypress(m),500,145676.90000003576,145676.69999998808,140256.777,140274.5,140289.525,145689.318,8,400,5,,ISIC_0067485.JPG
break,html.Screen,4_4_1,2023-09-11T23:22:33.807Z,,0,,,NaN,,,,,,false,,,,145678.19999998808,145678,,145677,,145689.318,8,400,,,
break_continue,html.Screen,4_4_2,2023-09-11T23:22:33.807Z,,0,,,NaN,,,,,,false,,,,145678.40000003576,145678.30000001192,,145678.19999998808,,145689.318,8,400,,,
sequence,flow.Sequence,4_4,2023-09-11T23:22:33.807Z,,0,,,5388.775000011927,completion,,,,,false,,,,145678.5,145678.30000001192,140256.777,140274.5,140289.525,145689.318,8,400,,,
trial,html.Screen,4_5_0,2023-09-11T23:22:38.800Z,,0,1,,4982.282000023843,response,ISIC_7966295.JPG,6,ISIC_6067430.JPG,ISIC_7966295.JPG,false,1,keypress(m),500,150671.80000001192,150671.60000002384,145672.602,145678.60000002384,145689.318,150688.963,8,400,6,,ISIC_6067430.JPG
break,html.Screen,4_5_1,2023-09-11T23:22:38.801Z,,0,,,NaN,,,,,,false,,,,150672.5,150672.19999998808,,150671.90000003576,,150688.963,8,400,,,
break_continue,html.Screen,4_5_2,2023-09-11T23:22:38.801Z,,0,,,NaN,,,,,,false,,,,150672.80000001192,150672.69999998808,,150672.69999998808,,150688.963,8,400,,,
sequence,flow.Sequence,4_5,2023-09-11T23:22:38.801Z,,0,,,4983.38199998808,completion,,,,,false,,,,150672.90000003576,150672.69999998808,145672.602,145678.60000002384,145689.318,150688.963,8,400,,,
trial,html.Screen,4_6_0,2023-09-11T23:22:43.784Z,,0,1,,4966.637000023853,response,ISIC_0027100.JPG,9,ISIC_0781380.JPG,ISIC_0781380.JPG,false,0,keypress(z),500,155655.90000003576,155655.60000002384,150671.896,150672.90000003576,150688.963,155672.292,8,400,7,,ISIC_0027100.JPG
break,html.Screen,4_6_1,2023-09-11T23:22:43.785Z,,0,,,NaN,,,,,,false,,,,155656.5,155656.40000003576,,155656.10000002384,,155672.292,8,400,,,
break_continue,html.Screen,4_6_2,2023-09-11T23:22:43.785Z,,0,,,NaN,,,,,,false,,,,155656.69999998808,155656.60000002384,,155656.60000002384,,155672.292,8,400,,,
sequence,flow.Sequence,4_6,2023-09-11T23:22:43.785Z,,0,,,4967.637000023853,completion,,,,,false,,,,155656.80000001192,155656.60000002384,150671.896,150672.90000003576,150688.963,155672.292,8,400,,,
trial,html.Screen,4_7_0,2023-09-11T23:22:48.906Z,,0,1,,5104.907999988092,response,ISIC_0033037.JPG,9,ISIC_0054053.JPG,ISIC_0054053.JPG,false,0,keypress(z),500,160777.5,160777.19999998808,155658.269,155656.80000001192,155672.292,160789.212,8,400,8,,ISIC_0033037.JPG
break,html.Screen,4_7_1,2023-09-11T23:22:48.907Z,,0,,,NaN,,,,,,false,,,,160778.90000003576,160778.69999998808,,160777.60000002384,,160789.212,8,400,,,
break_continue,html.Screen,4_7_2,2023-09-11T23:22:48.908Z,,0,,,NaN,,,,,,false,,,,160779.10000002384,160779.10000002384,,160778.90000003576,,160789.212,8,400,,,
sequence,flow.Sequence,4_7,2023-09-11T23:22:48.908Z,,0,,,5106.808000023855,completion,,,,,false,,,,160779.19999998808,160779.10000002384,155658.269,155656.80000001192,155672.292,160789.212,8,400,,,
trial,html.Screen,4_8_0,2023-09-11T23:22:53.544Z,,0,1,,4626.4879999880795,response,ISIC_5454766.JPG,7,ISIC_9974613.JPG,ISIC_9974613.JPG,false,0,keypress(z),500,165415.90000003576,165415.69999998808,160772.631,160779.30000001192,160789.212,165423.392,8,400,9,,ISIC_5454766.JPG
break,html.Screen,4_8_1,2023-09-11T23:22:53.546Z,,0,,,NaN,,,,,,false,,,,165417.5,165417.30000001192,,165416.19999998808,,165423.392,8,400,,,
break_continue,html.Screen,4_8_2,2023-09-11T23:22:53.546Z,,0,,,NaN,,,,,,false,,,,165417.69999998808,165417.69999998808,,165417.60000002384,,165423.392,8,400,,,
sequence,flow.Sequence,4_8,2023-09-11T23:22:53.546Z,,0,,,4628.4879999880795,completion,,,,,false,,,,165417.90000003576,165417.69999998808,160772.631,160779.30000001192,160789.212,165423.392,8,400,,,
trial,html.Screen,4_9_0,2023-09-11T23:23:00.091Z,,0,1,,6539.208000023849,response,ISIC_3506204.JPG,28,ISIC_7327423.JPG,ISIC_3506204.JPG,false,1,keypress(m),500,171962.90000003576,171962.60000002384,165406.062,165417.90000003576,165423.392,171971.607,8,400,10,,ISIC_7327423.JPG
break,html.Screen,4_9_1,2023-09-11T23:23:00.093Z,,0,,,NaN,,,,,,false,,,,171964.60000002384,171964.19999998808,,171963.30000001192,,171971.607,8,400,,,
break_continue,html.Screen,4_9_2,2023-09-11T23:23:00.094Z,,0,,,NaN,,,,,,false,,,,171965.10000002384,171965,,171964.80000001192,,171971.607,8,400,,,
sequence,flow.Sequence,4_9,2023-09-11T23:23:00.094Z,,0,,,6541.608000000007,completion,,,,,false,,,,171965.30000001192,171965,165406.062,165417.90000003576,165423.392,171971.607,8,400,,,
trial,html.Screen,4_10_0,2023-09-11T23:23:05.455Z,,0,1,,5354.393000000011,response,ISIC_1210565.JPG,14,ISIC_4474352.JPG,ISIC_4474352.JPG,false,0,keypress(z),500,177326.10000002384,177326,171955.174,171965.40000003576,171971.607,177338.139,8,400,11,,ISIC_1210565.JPG
break,html.Screen,4_10_1,2023-09-11T23:23:05.455Z,,0,,,NaN,,,,,,false,,,,177326.69999998808,177326.60000002384,,177326.30000001192,,177338.139,8,400,,,
break_continue,html.Screen,4_10_2,2023-09-11T23:23:05.456Z,,0,,,NaN,,,,,,false,,,,177327.10000002384,177327,,177326.90000003576,,177338.139,8,400,,,
sequence,flow.Sequence,4_10,2023-09-11T23:23:05.456Z,,0,,,5355.393000000011,completion,,,,,false,,,,177327.19999998808,177327,171955.174,171965.40000003576,171971.607,177338.139,8,400,,,
trial,html.Screen,4_11_0,2023-09-11T23:23:11.416Z,,0,1,,5949.361000000004,response,ISIC_6269414.JPG,9,ISIC_0068798.JPG,ISIC_0068798.JPG,false,0,keypress(z),500,183287.90000003576,183287.5,177322.487,177327.19999998808,177338.139,183305.023,8,400,12,,ISIC_6269414.JPG
break,html.Screen,4_11_1,2023-09-11T23:23:11.418Z,,0,,,NaN,,,,,,false,,,,183289.5,183289.40000003576,,183288.19999998808,,183305.023,8,400,,,
break_continue,html.Screen,4_11_2,2023-09-11T23:23:11.419Z,,0,,,NaN,,,,,,false,,,,183290,183289.80000001192,,183289.69999998808,,183305.023,8,400,,,
sequence,flow.Sequence,4_11,2023-09-11T23:23:11.419Z,,0,,,5951.661000011925,completion,,,,,false,,,,183290.10000002384,183289.80000001192,177322.487,177327.19999998808,177338.139,183305.023,8,400,,,
trial,html.Screen,4_12_0,2023-09-11T23:23:17.187Z,,0,1,,5753.777000011934,response,ISIC_0201767.JPG,12,ISIC_0027798.JPG,ISIC_0201767.JPG,false,1,keypress(m),500,189059.10000002384,189058.80000001192,183288.052,183290.30000001192,183305.023,189071.26,8,400,13,,ISIC_0027798.JPG
break,html.Screen,4_12_1,2023-09-11T23:23:17.189Z,,0,,,NaN,,,,,,false,,,,189060.40000003576,189060.19999998808,,189059.30000001192,,189071.26,8,400,,,
break_continue,html.Screen,4_12_2,2023-09-11T23:23:17.189Z,,0,,,NaN,,,,,,false,,,,189060.60000002384,189060.60000002384,,189060.5,,189071.26,8,400,,,
sequence,flow.Sequence,4_12,2023-09-11T23:23:17.189Z,,0,,,5755.577000023855,completion,,,,,false,,,,189060.69999998808,189060.60000002384,183288.052,183290.30000001192,183305.023,189071.26,8,400,,,
trial,html.Screen,4_13_0,2023-09-11T23:23:21.218Z,,0,1,,4018.4399999880698,response,ISIC_0011964.JPG,4,ISIC_0239949.JPG,ISIC_0011964.JPG,false,1,keypress(m),500,193089.90000003576,193089.69999998808,189055.318,189060.80000001192,189071.26,193105.178,8,400,14,,ISIC_0239949.JPG
break,html.Screen,4_13_1,2023-09-11T23:23:21.220Z,,0,,,NaN,,,,,,false,,,,193091.19999998808,193090.90000003576,,193090.10000002384,,193105.178,8,400,,,
break_continue,html.Screen,4_13_2,2023-09-11T23:23:21.220Z,,0,,,NaN,,,,,,false,,,,193091.40000003576,193091.30000001192,,193091.19999998808,,193105.178,8,400,,,
sequence,flow.Sequence,4_13,2023-09-11T23:23:21.220Z,,0,,,4020.0400000119116,completion,,,,,false,,,,193091.40000003576,193091.30000001192,189055.318,189060.80000001192,189071.26,193105.178,8,400,,,
trial,html.Screen,4_14_0,2023-09-11T23:23:25.607Z,,0,1,,4372.821999999986,response,ISIC_5673994.JPG,12,ISIC_0072292.JPG,ISIC_0072292.JPG,false,0,keypress(z),500,197478.30000001192,197478,193088.034,193091.60000002384,193105.178,197487.627,8,400,15,,ISIC_5673994.JPG
break,html.Screen,4_14_1,2023-09-11T23:23:25.608Z,,0,,,NaN,,,,,,false,,,,197479.40000003576,197479.30000001192,,197478.40000003576,,197487.627,8,400,,,
break_continue,html.Screen,4_14_2,2023-09-11T23:23:25.608Z,,0,,,NaN,,,,,,false,,,,197479.69999998808,197479.60000002384,,197479.5,,197487.627,8,400,,,
sequence,flow.Sequence,4_14,2023-09-11T23:23:25.608Z,,0,,,4374.422000023827,completion,,,,,false,,,,197479.80000001192,197479.60000002384,193088.034,193091.60000002384,193105.178,197487.627,8,400,,,
trial,html.Screen,4_15_0,2023-09-11T23:23:31.257Z,,0,1,,5640.872999999992,response,ISIC_0058753.JPG,9,ISIC_0031096.JPG,ISIC_0058753.JPG,false,1,keypress(m),500,203128.80000001192,203128.5,197473.373,197479.90000003576,197487.627,203154.844,8,400,16,,ISIC_0031096.JPG
break,html.Screen,4_15_1,2023-09-11T23:23:31.258Z,,0,,,NaN,,,,,,false,,,,203129.90000003576,203129.80000001192,,203129,,203154.844,8,400,,,
break_continue,html.Screen,4_15_2,2023-09-11T23:23:31.259Z,,0,,,NaN,,,,,,false,,,,203130.10000002384,203130.10000002384,,203130,,203154.844,8,400,,,
sequence,flow.Sequence,4_15,2023-09-11T23:23:31.259Z,,0,,,5642.473000023834,completion,,,,,false,,,,203130.30000001192,203130.10000002384,197473.373,197479.80000001192,197487.627,203154.844,8,400,,,
trial,html.Screen,4_16_0,2023-09-11T23:23:36.116Z,,0,1,,4832.655999999988,response,ISIC_2518896.JPG,13,ISIC_3105924.JPG,ISIC_2518896.JPG,false,1,keypress(m),500,207987.69999998808,207987.5,203138.15,203130.30000001192,203154.844,208003.952,8,400,17,,ISIC_3105924.JPG
break,html.Screen,4_16_1,2023-09-11T23:23:36.117Z,,0,,,NaN,,,,,,false,,,,207988.60000002384,207988.19999998808,,207987.90000003576,,208003.952,8,400,,,
break_continue,html.Screen,4_16_2,2023-09-11T23:23:36.117Z,,0,,,NaN,,,,,,false,,,,207988.69999998808,207988.69999998808,,207988.60000002384,,208003.952,8,400,,,
sequence,flow.Sequence,4_16,2023-09-11T23:23:36.117Z,,0,,,4833.855999988067,completion,,,,,false,,,,207988.80000001192,207988.69999998808,203138.15,203130.30000001192,203154.844,208003.952,8,400,,,
trial,html.Screen,4_17_0,2023-09-11T23:23:40.763Z,,0,1,,4630.848000011931,response,ISIC_3238687.JPG,5,ISIC_1023354.JPG,ISIC_3238687.JPG,false,1,keypress(m),500,212635,212634.80000001192,207987.94,207988.80000001192,208003.952,212637.203,8,400,18,,ISIC_1023354.JPG
break,html.Screen,4_17_1,2023-09-11T23:23:40.764Z,,0,,,NaN,,,,,,false,,,,212635.5,212635.30000001192,,212635,,212637.203,8,400,,,
break_continue,html.Screen,4_17_2,2023-09-11T23:23:40.764Z,,0,,,NaN,,,,,,false,,,,212635.80000001192,212635.80000001192,,212635.60000002384,,212637.203,8,400,,,
sequence,flow.Sequence,4_17,2023-09-11T23:23:40.764Z,,0,,,4631.848000011931,completion,,,,,false,,,,212635.90000003576,212635.80000001192,207987.94,207988.80000001192,208003.952,212637.203,8,400,,,
trial,html.Screen,4_18_0,2023-09-11T23:23:45.466Z,,0,1,,4699.9969999880705,response,ISIC_5449076.JPG,4,ISIC_0064066.JPG,ISIC_0064066.JPG,false,0,keypress(z),500,217337.30000001192,217337.19999998808,212620.071,212635.90000003576,212637.203,217370.376,8,400,19,,ISIC_5449076.JPG
break,html.Screen,4_18_1,2023-09-11T23:23:45.467Z,,0,,,NaN,,,,,,false,,,,217338.10000002384,217338,,217337.40000003576,,217370.376,8,400,,,
break_continue,html.Screen,4_18_2,2023-09-11T23:23:45.467Z,,0,,,NaN,,,,,,false,,,,217338.30000001192,217338.30000001192,,217338.19999998808,,217370.376,8,400,,,
sequence,flow.Sequence,4_18,2023-09-11T23:23:45.467Z,,0,,,4701.097000011912,completion,,,,,false,,,,217338.40000003576,217338.30000001192,212620.071,212635.90000003576,212637.203,217370.376,8,400,,,
trial,html.Screen,4_19_0,2023-09-11T23:23:50.776Z,,0,1,,5277.5240000357735,response,ISIC_0027408.JPG,7,ISIC_2805634.JPG,ISIC_2805634.JPG,false,0,keypress(z),500,222648,222647.90000003576,217353.938,217338.5,217370.376,222653.53,8,400,20,,ISIC_0027408.JPG
break,html.Screen,4_19_1,2023-09-11T23:23:50.777Z,,0,,,NaN,,,,,,false,,,,222648.40000003576,222648.30000001192,,222648.10000002384,,222653.53,8,400,,,
break_continue,html.Screen,4_19_2,2023-09-11T23:23:50.777Z,,0,,,NaN,,,,,,false,,,,222648.5,222648.5,,222648.5,,222653.53,8,400,,,
sequence,flow.Sequence,4_19,2023-09-11T23:23:50.777Z,,0,,,5278.124000000011,completion,,,,,false,,,,222648.5,222648.5,217353.938,217338.5,217370.376,222653.53,8,400,,,
trial,html.Screen,4_20_0,2023-09-11T23:23:55.849Z,,0,1,,5066.570000023843,response,ISIC_0034104.JPG,12,ISIC_6531118.JPG,ISIC_6531118.JPG,false,0,keypress(z),500,227720.30000001192,227720.10000002384,222636.99,222648.60000002384,222653.53,227736.761,8,400,21,,ISIC_0034104.JPG
break,html.Screen,4_20_1,2023-09-11T23:23:55.849Z,,0,,,NaN,,,,,,false,,,,227721,227720.90000003576,,227720.30000001192,,227736.761,8,400,,,
break_continue,html.Screen,4_20_2,2023-09-11T23:23:55.850Z,,0,,,NaN,,,,,,false,,,,227721.19999998808,227721.10000002384,,227721.10000002384,,227736.761,8,400,,,
sequence,flow.Sequence,4_20,2023-09-11T23:23:55.850Z,,0,,,5067.570000023843,completion,,,,,false,,,,227721.19999998808,227721.10000002384,222636.99,222648.60000002384,222653.53,227736.761,8,400,,,
trial,html.Screen,4_21_0,2023-09-11T23:23:59.491Z,,0,1,,3625.8390000238433,response,ISIC_0066739.JPG,15,ISIC_0032797.JPG,ISIC_0066739.JPG,false,1,keypress(m),500,231362.69999998808,231362.60000002384,227719.816,227721.30000001192,227736.761,231370.015,8,400,22,,ISIC_0032797.JPG
break,html.Screen,4_21_1,2023-09-11T23:23:59.492Z,,0,,,NaN,,,,,,false,,,,231363.40000003576,231363.10000002384,,231362.90000003576,,231370.015,8,400,,,
break_continue,html.Screen,4_21_2,2023-09-11T23:23:59.492Z,,0,,,NaN,,,,,,false,,,,231363.60000002384,231363.5,,231363.40000003576,,231370.015,8,400,,,
sequence,flow.Sequence,4_21,2023-09-11T23:23:59.492Z,,0,,,3626.7390000000014,completion,,,,,false,,,,231363.60000002384,231363.5,227719.816,227721.30000001192,227736.761,231370.015,8,400,,,
trial,html.Screen,4_22_0,2023-09-11T23:24:04.735Z,,0,1,,5236.285000011907,response,ISIC_8028631.JPG,1,ISIC_5386244.JPG,ISIC_8028631.JPG,false,1,keypress(m),500,236606.40000003576,236606.30000001192,231353.522,231363.69999998808,231370.015,236619.884,8,400,23,,ISIC_5386244.JPG
break,html.Screen,4_22_1,2023-09-11T23:24:04.735Z,,0,,,NaN,,,,,,false,,,,236606.80000001192,236606.80000001192,,236606.5,,236619.884,8,400,,,
break_continue,html.Screen,4_22_2,2023-09-11T23:24:04.735Z,,0,,,NaN,,,,,,false,,,,236607,236607,,236606.90000003576,,236619.884,8,400,,,
sequence,flow.Sequence,4_22,2023-09-11T23:24:04.735Z,,0,,,5236.984999999986,completion,,,,,false,,,,236607.10000002384,236607,231353.522,231363.69999998808,231370.015,236619.884,8,400,,,
trial,html.Screen,4_23_0,2023-09-11T23:24:13.057Z,,0,1,,8308.616000000009,response,ISIC_0011892.JPG,1,ISIC_0073015.JPG,ISIC_0011892.JPG,false,1,keypress(m),500,244928.69999998808,244928.5,236603.506,236607.10000002384,236619.884,244936.502,8,400,24,,ISIC_0073015.JPG
break,html.Screen,4_23_1,2023-09-11T23:24:13.059Z,,0,,,NaN,,,,,,false,,,,244930,244929.90000003576,,244928.90000003576,,244936.502,8,400,,,
break_continue,html.Screen,4_23_2,2023-09-11T23:24:13.059Z,,0,,,NaN,,,,,,false,,,,244930.30000001192,244930.19999998808,,244930.10000002384,,244936.502,8,400,,,
sequence,flow.Sequence,4_23,2023-09-11T23:24:13.059Z,,0,,,8310.315999988088,completion,,,,,false,,,,244930.5,244930.19999998808,236603.506,236607.10000002384,236619.884,244936.502,8,400,,,
trial,html.Screen,4_24_0,2023-09-11T23:24:17.093Z,,0,1,,4027.1979999880714,response,ISIC_0012740.JPG,1,ISIC_0067390.JPG,ISIC_0067390.JPG,false,0,keypress(z),500,248963.90000003576,248963.69999998808,244920.354,244930.5,244936.502,248969.534,8,400,25,,ISIC_0012740.JPG
break,html.Screen,4_24_1,2023-09-11T23:24:17.094Z,,0,,,NaN,,,,,,false,,,,248965.10000002384,248964.60000002384,,248964.10000002384,,248969.534,8,400,,,
break_continue,html.Screen,4_24_2,2023-09-11T23:24:17.094Z,,0,,,NaN,,,,,,false,,,,248965.60000002384,248965.40000003576,,248965.19999998808,,248969.534,8,400,,,
sequence,flow.Sequence,4_24,2023-09-11T23:24:17.094Z,,0,,,4028.898000035755,completion,,,,,false,,,,248965.69999998808,248965.40000003576,244920.354,244930.5,244936.502,248969.534,8,400,,,
trial,html.Screen,4_25_0,2023-09-11T23:24:22.476Z,,0,1,,5377.165999988065,response,ISIC_0010280.JPG,3,ISIC_0032820.JPG,ISIC_0032820.JPG,false,0,keypress(z),500,254347,254346.69999998808,248953.848,248965.80000001192,248969.534,254353.438,8,400,26,,ISIC_0010280.JPG
break,html.Screen,4_25_1,2023-09-11T23:24:22.477Z,,0,,,NaN,,,,,,false,,,,254348.30000001192,254348.19999998808,,254347.19999998808,,254353.438,8,400,,,
break_continue,html.Screen,4_25_2,2023-09-11T23:24:22.477Z,,0,,,NaN,,,,,,false,,,,254348.69999998808,254348.60000002384,,254348.5,,254353.438,8,400,,,
sequence,flow.Sequence,4_25,2023-09-11T23:24:22.477Z,,0,,,5379.066000023828,completion,,,,,false,,,,254348.69999998808,254348.60000002384,248953.848,248965.80000001192,248969.534,254353.438,8,400,,,
trial,html.Screen,4_26_0,2023-09-11T23:24:27.738Z,,0,1,,5256.062000000005,response,ISIC_4980079.JPG,19,ISIC_0067443.JPG,ISIC_4980079.JPG,false,1,keypress(m),500,259609.80000001192,259609.5,254338.371,254348.90000003576,254353.438,259620.699,8,400,27,,ISIC_0067443.JPG
break,html.Screen,4_26_1,2023-09-11T23:24:27.740Z,,0,,,NaN,,,,,,false,,,,259611,259610.90000003576,,259609.90000003576,,259620.699,8,400,,,
break_continue,html.Screen,4_26_2,2023-09-11T23:24:27.740Z,,0,,,NaN,,,,,,false,,,,259611.30000001192,259611.19999998808,,259611.19999998808,,259620.699,8,400,,,
sequence,flow.Sequence,4_26,2023-09-11T23:24:27.740Z,,0,,,5257.761999988084,completion,,,,,false,,,,259611.5,259611.19999998808,254338.371,254348.90000003576,254353.438,259620.699,8,400,,,
trial,html.Screen,4_27_0,2023-09-11T23:24:33.673Z,,0,1,,5923.901000023849,response,ISIC_0065133.JPG,6,ISIC_0000040.JPG,ISIC_0000040.JPG,false,0,keypress(z),500,265544.8000000119,265544.60000002384,259602.931,259611.5,259620.699,265553.025,8,400,28,,ISIC_0065133.JPG
break,html.Screen,4_27_1,2023-09-11T23:24:33.675Z,,0,,,NaN,,,,,,false,,,,265546.10000002384,265546,,265545.10000002384,,265553.025,8,400,,,
break_continue,html.Screen,4_27_2,2023-09-11T23:24:33.675Z,,0,,,NaN,,,,,,false,,,,265546.40000003576,265546.3000000119,,265546.1999999881,,265553.025,8,400,,,
sequence,flow.Sequence,4_27,2023-09-11T23:24:33.675Z,,0,,,5925.601000011928,completion,,,,,false,,,,265546.40000003576,265546.3000000119,259602.931,259611.5,259620.699,265553.025,8,400,,,
trial,html.Screen,4_28_0,2023-09-11T23:24:40.838Z,,0,1,,7155.775000011898,response,ISIC_8344196.JPG,6,ISIC_0034068.JPG,ISIC_0034068.JPG,false,0,keypress(z),500,272709,272708.8000000119,265536.451,265546.5,265553.025,272720.04,8,400,29,,ISIC_8344196.JPG
break,html.Screen,4_28_1,2023-09-11T23:24:40.839Z,,0,,,NaN,,,,,,false,,,,272710.1999999881,272710.10000002384,,272709.10000002384,,272720.04,8,400,,,
break_continue,html.Screen,4_28_2,2023-09-11T23:24:40.839Z,,0,,,NaN,,,,,,false,,,,272710.5,272710.40000003576,,272710.3000000119,,272720.04,8,400,,,
sequence,flow.Sequence,4_28,2023-09-11T23:24:40.839Z,,0,,,7157.3750000357395,completion,,,,,false,,,,272710.60000002384,272710.40000003576,265536.451,265546.5,265553.025,272720.04,8,400,,,
trial,html.Screen,4_29_0,2023-09-11T23:24:46.389Z,,0,1,,5539.760000011942,response,ISIC_7438013.JPG,6,ISIC_0027356.JPG,ISIC_7438013.JPG,false,1,keypress(m),500,278260,278259.8000000119,272703.27,272710.60000002384,272720.04,278269.824,8,400,30,,ISIC_0027356.JPG
break,html.Screen,4_29_1,2023-09-11T23:24:46.390Z,,0,,,NaN,,,,,,false,,,,278261.10000002384,278260.90000003576,,278260.10000002384,,278269.824,8,400,,,
break_continue,html.Screen,4_29_2,2023-09-11T23:24:46.390Z,,0,,,NaN,,,,,,false,,,,278261.1999999881,278261.10000002384,,278261.10000002384,,278269.824,8,400,,,
sequence,flow.Sequence,4_29,2023-09-11T23:24:46.390Z,,0,,,5541.060000023863,completion,,,,,false,,,,278261.3000000119,278261.10000002384,272703.27,272710.60000002384,272720.04,278269.824,8,400,,,
trial,html.Screen,4_30_0,2023-09-11T23:24:52.738Z,,0,1,,6338.875999988057,response,ISIC_1501483.JPG,8,ISIC_0009985.JPG,ISIC_1501483.JPG,false,1,keypress(m),500,284608.90000003576,284608.6999999881,278252.642,278261.40000003576,278269.824,284619.867,8,400,31,,ISIC_0009985.JPG
break,html.Screen,4_30_1,2023-09-11T23:24:52.739Z,,0,,,NaN,,,,,,false,,,,284610.1999999881,284610,,284609.10000002384,,284619.867,8,400,,,
break_continue,html.Screen,4_30_2,2023-09-11T23:24:52.739Z,,0,,,NaN,,,,,,false,,,,284610.5,284610.40000003576,,284610.3000000119,,284619.867,8,400,,,
sequence,flow.Sequence,4_30,2023-09-11T23:24:52.739Z,,0,,,6340.57600003574,completion,,,,,false,,,,284610.60000002384,284610.40000003576,278252.642,278261.3000000119,278269.824,284619.867,8,400,,,
trial,html.Screen,4_31_0,2023-09-11T23:24:57.095Z,,0,1,,4346.4330000118935,response,ISIC_7210296.JPG,10,ISIC_0033549.JPG,ISIC_0033549.JPG,false,0,keypress(z),500,288966.5,288966.3000000119,284602.138,284610.6999999881,284619.867,288970.482,8,400,32,,ISIC_7210296.JPG
break,html.Screen,4_31_1,2023-09-11T23:24:57.096Z,,0,,,NaN,,,,,,false,,,,288967.8000000119,288967.6999999881,,288966.6999999881,,288970.482,8,400,,,
break_continue,html.Screen,4_31_2,2023-09-11T23:24:57.097Z,,0,,,NaN,,,,,,false,,,,288968.1999999881,288968,,288967.90000003576,,288970.482,8,400,,,
sequence,flow.Sequence,4_31,2023-09-11T23:24:57.097Z,,0,,,4348.1329999999725,completion,,,,,false,,,,288968.1999999881,288968,284602.138,284610.6999999881,284619.867,288970.482,8,400,,,
trial,html.Screen,4_32_0,2023-09-11T23:25:01.744Z,,0,1,,4644.318000011903,response,ISIC_4451735.JPG,13,ISIC_0054080.JPG,ISIC_0054080.JPG,false,0,keypress(z),500,293615,293614.8000000119,288952.264,288968.3000000119,288970.482,293619.299,8,400,33,,ISIC_4451735.JPG
break,html.Screen,4_32_1,2023-09-11T23:25:01.745Z,,0,,,NaN,,,,,,false,,,,293616.40000003576,293616.3000000119,,293615.10000002384,,293619.299,8,400,,,
break_continue,html.Screen,4_32_2,2023-09-11T23:25:01.745Z,,0,,,NaN,,,,,,false,,,,293616.6999999881,293616.60000002384,,293616.5,,293619.299,8,400,,,
sequence,flow.Sequence,4_32,2023-09-11T23:25:01.745Z,,0,,,4646.118000023824,completion,,,,,false,,,,293616.8000000119,293616.60000002384,288952.264,288968.3000000119,288970.482,293619.299,8,400,,,
trial,html.Screen,4_33_0,2023-09-11T23:25:06.423Z,,0,1,,4674.701000000001,response,ISIC_0028520.JPG,11,ISIC_9210255.JPG,ISIC_0028520.JPG,false,1,keypress(m),500,298294.1999999881,298294,293602.204,293616.90000003576,293619.299,298301.882,8,400,34,,ISIC_9210255.JPG
break,html.Screen,4_33_1,2023-09-11T23:25:06.424Z,,0,,,NaN,,,,,,false,,,,298295.5,298295.3000000119,,298294.40000003576,,298301.882,8,400,,,
break_continue,html.Screen,4_33_2,2023-09-11T23:25:06.424Z,,0,,,NaN,,,,,,false,,,,298295.6999999881,298295.60000002384,,298295.5,,298301.882,8,400,,,
sequence,flow.Sequence,4_33,2023-09-11T23:25:06.424Z,,0,,,4676.301000023843,completion,,,,,false,,,,298295.90000003576,298295.60000002384,293602.204,293616.8000000119,293619.299,298301.882,8,400,,,
trial,html.Screen,4_34_0,2023-09-11T23:25:12.480Z,,0,1,,6049.317999988096,response,ISIC_6255113.JPG,29,ISIC_8344345.JPG,ISIC_6255113.JPG,false,1,keypress(m),500,304351.5,304351.1999999881,298285.443,298295.90000003576,298301.882,304368.414,8,400,35,,ISIC_8344345.JPG
break,html.Screen,4_34_1,2023-09-11T23:25:12.481Z,,0,,,NaN,,,,,,false,,,,304352.6999999881,304352.60000002384,,304351.60000002384,,304368.414,8,400,,,
break_continue,html.Screen,4_34_2,2023-09-11T23:25:12.481Z,,0,,,NaN,,,,,,false,,,,304353,304352.90000003576,,304352.8000000119,,304368.414,8,400,,,
sequence,flow.Sequence,4_34,2023-09-11T23:25:12.481Z,,0,,,6051.01800003578,completion,,,,,false,,,,304353.10000002384,304352.90000003576,298285.443,298295.90000003576,298301.882,304368.414,8,400,,,
trial,html.Screen,4_35_0,2023-09-11T23:25:17.551Z,,0,1,,5053.886000011931,response,ISIC_0361149.JPG,0,ISIC_0030469.JPG,ISIC_0361149.JPG,false,1,keypress(m),500,309422.60000002384,309422.3000000119,304335.732,304353.1999999881,304368.414,309434.747,8,400,36,,ISIC_0030469.JPG
break,html.Screen,4_35_1,2023-09-11T23:25:17.553Z,,0,,,NaN,,,,,,false,,,,309424.10000002384,309423.6999999881,,309422.8000000119,,309434.747,8,400,,,
break_continue,html.Screen,4_35_2,2023-09-11T23:25:17.553Z,,0,,,NaN,,,,,,false,,,,309424.3000000119,309424.3000000119,,309424.1999999881,,309434.747,8,400,,,
sequence,flow.Sequence,4_35,2023-09-11T23:25:17.553Z,,0,,,5055.886000011931,completion,,,,,false,,,,309424.5,309424.3000000119,304335.732,304353.1999999881,304368.414,309434.747,8,400,,,
trial,html.Screen,4_36_0,2023-09-11T23:25:22.318Z,,0,1,,4755.153000035789,response,ISIC_0064860.JPG,9,ISIC_0033337.JPG,ISIC_0033337.JPG,false,0,keypress(z),500,314190,314189.90000003576,309420.035,309424.5,309434.747,314218.289,8,400,37,,ISIC_0064860.JPG
break,html.Screen,4_36_1,2023-09-11T23:25:22.320Z,,0,,,NaN,,,,,,false,,,,314191.3000000119,314191.10000002384,,314190.1999999881,,314218.289,8,400,,,
break_continue,html.Screen,4_36_2,2023-09-11T23:25:22.320Z,,0,,,NaN,,,,,,false,,,,314191.60000002384,314191.5,,314191.5,,314218.289,8,400,,,
sequence,flow.Sequence,4_36,2023-09-11T23:25:22.320Z,,0,,,4756.753000000026,completion,,,,,false,,,,314191.6999999881,314191.5,309420.035,309424.5,309434.747,314218.289,8,400,,,
trial,html.Screen,4_37_0,2023-09-11T23:25:26.513Z,,0,1,,4166.21100000001,response,ISIC_0060486.JPG,23,ISIC_0010714.JPG,ISIC_0010714.JPG,false,0,keypress(z),500,318384.8000000119,318384.5,314185.335,314191.8000000119,314218.289,318401.445,8,400,38,,ISIC_0060486.JPG
break,html.Screen,4_37_1,2023-09-11T23:25:26.515Z,,0,,,NaN,,,,,,false,,,,318386.10000002384,318386,,318385,,318401.445,8,400,,,
break_continue,html.Screen,4_37_2,2023-09-11T23:25:26.515Z,,0,,,NaN,,,,,,false,,,,318386.5,318386.40000003576,,318386.3000000119,,318401.445,8,400,,,
sequence,flow.Sequence,4_37,2023-09-11T23:25:26.515Z,,0,,,4168.111000035773,completion,,,,,false,,,,318386.60000002384,318386.40000003576,314185.335,314191.6999999881,314218.289,318401.445,8,400,,,
trial,html.Screen,4_38_0,2023-09-11T23:25:30.728Z,,0,1,,4197.855000011914,response,ISIC_4640293.JPG,6,ISIC_0065192.JPG,ISIC_0065192.JPG,false,0,keypress(z),500,322599.5,322599.3000000119,318385.056,318386.60000002384,318401.445,322618.241,8,400,39,,ISIC_4640293.JPG
break,html.Screen,4_38_1,2023-09-11T23:25:30.729Z,,0,,,NaN,,,,,,false,,,,322600.1999999881,322600.10000002384,,322599.6999999881,,322618.241,8,400,,,
break_continue,html.Screen,4_38_2,2023-09-11T23:25:30.729Z,,0,,,NaN,,,,,,false,,,,322600.8000000119,322600.6999999881,,322600.5,,322618.241,8,400,,,
sequence,flow.Sequence,4_38,2023-09-11T23:25:30.729Z,,0,,,4199.254999988072,completion,,,,,false,,,,322601,322600.6999999881,318385.056,318386.60000002384,318401.445,322618.241,8,400,,,
trial,html.Screen,4_39_0,2023-09-11T23:25:34.282Z,,0,1,,3535.359000023862,response,ISIC_0054892.JPG,10,ISIC_6532137.JPG,ISIC_0054892.JPG,false,1,keypress(m),500,326153.8000000119,326153.60000002384,322585.45,322601,322618.241,326168.18,8,400,40,,ISIC_6532137.JPG
break,html.Screen,4_39_1,2023-09-11T23:25:34.284Z,,0,,,NaN,,,,,,false,,,,326155.1999999881,326155,,326153.90000003576,,326168.18,8,400,,,
break_continue,html.Screen,4_39_2,2023-09-11T23:25:34.284Z,,0,,,NaN,,,,,,false,,,,326155.5,326155.40000003576,,326155.3000000119,,326168.18,8,400,,,
sequence,flow.Sequence,4_39,2023-09-11T23:25:34.284Z,,0,,,3537.159000035783,completion,,,,,false,,,,326155.60000002384,326155.40000003576,322585.45,322601,322618.241,326168.18,8,400,,,
trial,html.Screen,4_40_0,2023-09-11T23:25:38.729Z,,0,1,,4432.22000003577,response,ISIC_8324870.JPG,5,ISIC_0046640.JPG,ISIC_0046640.JPG,false,0,keypress(z),500,330600.6999999881,330600.40000003576,326151.004,326155.6999999881,326168.18,330617.698,8,400,41,,ISIC_8324870.JPG
break,html.Screen,4_40_1,2023-09-11T23:25:38.730Z,,0,,,NaN,,,,,,false,,,,330602,330601.90000003576,,330600.8000000119,,330617.698,8,400,,,
break_continue,html.Screen,4_40_2,2023-09-11T23:25:38.731Z,,0,,,NaN,,,,,,false,,,,330602.3000000119,330602.3000000119,,330602.1999999881,,330617.698,8,400,,,
sequence,flow.Sequence,4_40,2023-09-11T23:25:38.731Z,,0,,,4434.120000011928,completion,,,,,false,,,,330602.5,330602.3000000119,326151.004,326155.6999999881,326168.18,330617.698,8,400,,,
trial,html.Screen,4_41_0,2023-09-11T23:25:42.278Z,,0,1,,3531.802000000025,response,ISIC_1595658.JPG,20,ISIC_5141844.JPG,ISIC_1595658.JPG,false,1,keypress(m),500,334149.8000000119,334149.5,330586.182,330602.60000002384,330617.698,334167.655,8,400,42,,ISIC_5141844.JPG
break,html.Screen,4_41_1,2023-09-11T23:25:42.280Z,,0,,,NaN,,,,,,false,,,,334151.5,334151.3000000119,,334149.90000003576,,334167.655,8,400,,,
break_continue,html.Screen,4_41_2,2023-09-11T23:25:42.280Z,,0,,,NaN,,,,,,false,,,,334151.90000003576,334151.8000000119,,334151.6999999881,,334167.655,8,400,,,
sequence,flow.Sequence,4_41,2023-09-11T23:25:42.280Z,,0,,,3534.102000011946,completion,,,,,false,,,,334152,334151.8000000119,330586.182,330602.60000002384,330617.698,334167.655,8,400,,,
trial,html.Screen,4_42_0,2023-09-11T23:25:46.216Z,,0,1,,3919.445000023814,response,ISIC_0014221.JPG,1,ISIC_0070061.JPG,ISIC_0070061.JPG,false,0,keypress(z),500,338087.40000003576,338087.10000002384,334134.634,334152.10000002384,334167.655,338101.187,8,400,43,,ISIC_0014221.JPG
break,html.Screen,4_42_1,2023-09-11T23:25:46.217Z,,0,,,NaN,,,,,,false,,,,338088.60000002384,338088.5,,338087.60000002384,,338101.187,8,400,,,
break_continue,html.Screen,4_42_2,2023-09-11T23:25:46.217Z,,0,,,NaN,,,,,,false,,,,338089,338088.90000003576,,338088.8000000119,,338101.187,8,400,,,
sequence,flow.Sequence,4_42,2023-09-11T23:25:46.217Z,,0,,,3921.245000035735,completion,,,,,false,,,,338089,338088.90000003576,334134.634,334152.10000002384,334167.655,338101.187,8,400,,,
trial,html.Screen,4_43_0,2023-09-11T23:25:50.848Z,,0,1,,4618.613000011945,response,ISIC_0034159.JPG,7,ISIC_4257634.JPG,ISIC_0034159.JPG,false,1,keypress(m),500,342720,342719.8000000119,338086.179,338089.10000002384,338101.187,342734.393,8,400,44,,ISIC_4257634.JPG
break,html.Screen,4_43_1,2023-09-11T23:25:50.850Z,,0,,,NaN,,,,,,false,,,,342721.1999999881,342721.10000002384,,342720.1999999881,,342734.393,8,400,,,
break_continue,html.Screen,4_43_2,2023-09-11T23:25:50.850Z,,0,,,NaN,,,,,,false,,,,342721.5,342721.40000003576,,342721.40000003576,,342734.393,8,400,,,
sequence,flow.Sequence,4_43,2023-09-11T23:25:50.850Z,,0,,,4620.2130000357865,completion,,,,,false,,,,342721.60000002384,342721.40000003576,338086.179,338089.10000002384,338101.187,342734.393,8,400,,,
trial,html.Screen,4_44_0,2023-09-11T23:25:55.333Z,,0,1,,4469.607000000018,response,ISIC_0010321.JPG,6,ISIC_0001121.JPG,ISIC_0010321.JPG,false,1,keypress(m),500,347204.1999999881,347204,342717.564,342721.6999999881,342734.393,347216.978,8,400,45,,ISIC_0001121.JPG
break,html.Screen,4_44_1,2023-09-11T23:25:55.334Z,,0,,,NaN,,,,,,false,,,,347205.60000002384,347205.5,,347204.5,,347216.978,8,400,,,
break_continue,html.Screen,4_44_2,2023-09-11T23:25:55.334Z,,0,,,NaN,,,,,,false,,,,347206,347205.90000003576,,347205.8000000119,,347216.978,8,400,,,
sequence,flow.Sequence,4_44,2023-09-11T23:25:55.335Z,,0,,,4471.507000035781,completion,,,,,false,,,,347206,347205.90000003576,342717.564,342721.60000002384,342734.393,347216.978,8,400,,,
trial,html.Screen,4_45_0,2023-09-11T23:25:59.511Z,,0,1,,4165.221999988076,response,ISIC_4786412.JPG,8,ISIC_1722909.JPG,ISIC_1722909.JPG,false,0,keypress(z),500,351382.40000003576,351382.1999999881,347202.581,347206.1999999881,347216.978,351386.268,8,400,46,,ISIC_4786412.JPG
break,html.Screen,4_45_1,2023-09-11T23:25:59.512Z,,0,,,NaN,,,,,,false,,,,351383.6999999881,351383.5,,351382.60000002384,,351386.268,8,400,,,
break_continue,html.Screen,4_45_2,2023-09-11T23:25:59.512Z,,0,,,NaN,,,,,,false,,,,351383.90000003576,351383.8000000119,,351383.8000000119,,351386.268,8,400,,,
sequence,flow.Sequence,4_45,2023-09-11T23:25:59.512Z,,0,,,4166.822000011918,completion,,,,,false,,,,351383.90000003576,351383.8000000119,347202.581,347206.10000002384,347216.978,351386.268,8,400,,,
trial,html.Screen,4_46_0,2023-09-11T23:26:03.756Z,,0,1,,4241.33200002386,response,ISIC_4810485.JPG,5,ISIC_8281208.JPG,ISIC_8281208.JPG,false,0,keypress(z),500,355627.90000003576,355627.60000002384,351367.361,351384,351386.268,355634.738,8,400,47,,ISIC_4810485.JPG
break,html.Screen,4_46_1,2023-09-11T23:26:03.758Z,,0,,,NaN,,,,,,false,,,,355629.3000000119,355629.10000002384,,355628.10000002384,,355634.738,8,400,,,
break_continue,html.Screen,4_46_2,2023-09-11T23:26:03.758Z,,0,,,NaN,,,,,,false,,,,355629.60000002384,355629.40000003576,,355629.40000003576,,355634.738,8,400,,,
sequence,flow.Sequence,4_46,2023-09-11T23:26:03.758Z,,0,,,4243.132000035781,completion,,,,,false,,,,355629.6999999881,355629.40000003576,351367.361,351384,351386.268,355634.738,8,400,,,
trial,html.Screen,4_47_0,2023-09-11T23:26:09.445Z,,0,1,,5681.461999988067,response,ISIC_0046331.JPG,21,ISIC_4308751.JPG,ISIC_0046331.JPG,false,1,keypress(m),500,361316.40000003576,361316.1999999881,355619.185,355629.8000000119,355634.738,361333.623,8,400,48,,ISIC_4308751.JPG
break,html.Screen,4_47_1,2023-09-11T23:26:09.446Z,,0,,,NaN,,,,,,false,,,,361317.1999999881,361317.10000002384,,361316.6999999881,,361333.623,8,400,,,
break_continue,html.Screen,4_47_2,2023-09-11T23:26:09.446Z,,0,,,NaN,,,,,,false,,,,361317.5,361317.40000003576,,361317.3000000119,,361333.623,8,400,,,
sequence,flow.Sequence,4_47,2023-09-11T23:26:09.446Z,,0,,,5682.662000035751,completion,,,,,false,,,,361317.60000002384,361317.40000003576,355619.185,355629.8000000119,355634.738,361333.623,8,400,,,
trial,html.Screen,4_48_0,2023-09-11T23:26:14.422Z,,0,1,,4959.97700002382,response,ISIC_0305800.JPG,10,ISIC_0025085.JPG,ISIC_0305800.JPG,false,1,keypress(m),500,366293.90000003576,366293.60000002384,361319.287,361317.6999999881,361333.623,366300.386,8,400,49,,ISIC_0025085.JPG
break,html.Screen,4_48_1,2023-09-11T23:26:14.424Z,,0,,,NaN,,,,,,false,,,,366295.40000003576,366295.1999999881,,366294,,366300.386,8,400,,,
break_continue,html.Screen,4_48_2,2023-09-11T23:26:14.424Z,,0,,,NaN,,,,,,false,,,,366295.6999999881,366295.60000002384,,366295.5,,366300.386,8,400,,,
sequence,flow.Sequence,4_48,2023-09-11T23:26:14.424Z,,0,,,4961.97700002382,completion,,,,,false,,,,366295.6999999881,366295.60000002384,361319.287,361317.6999999881,361333.623,366300.386,8,400,,,
trial,html.Screen,4_49_0,2023-09-11T23:26:18.309Z,,0,1,,3879.6140000000014,response,ISIC_1334038.JPG,9,ISIC_1929937.JPG,ISIC_1929937.JPG,false,0,keypress(z),500,370180.1999999881,370180,366284.084,366295.8000000119,366300.386,370184.209,8,400,50,,ISIC_1334038.JPG
break,html.Screen,4_49_1,2023-09-11T23:26:28.296Z,,0,,,9999.169000000053,timeout,,,,,false,,,,380167.6999999881,380166.718,370166.924,370180.40000003576,370184.209,380183.378,8,400,,,
break_continue,html.Screen,4_49_2,2023-09-11T23:26:30.087Z,,0,,,1761.121999999974,response,,,,,false,continue,keypress(Space),,381958.3000000119,381944.5,380166.718,380167.8000000119,380183.378,381965.951,8,400,,,
sequence,flow.Sequence,4_49,2023-09-11T23:26:30.087Z,,0,,,15644.114000000001,completion,,,,,false,,,,381958.5,381944.5,366284.084,366295.8000000119,366300.386,381965.951,8,400,,,
trial,html.Screen,4_50_0,2023-09-11T23:26:34.567Z,,0,2,,4471.949000035762,response,ISIC_6292348.JPG,11,ISIC_1382677.JPG,ISIC_1382677.JPG,false,0,keypress(z),500,386438.10000002384,386437.90000003576,381950.085,381958.5,381965.951,386450.592,8,400,1,,ISIC_6292348.JPG
break,html.Screen,4_50_1,2023-09-11T23:26:34.568Z,,0,,,NaN,,,,,,false,,,,386439.40000003576,386439.1999999881,,386438.40000003576,,386450.592,8,400,,,
break_continue,html.Screen,4_50_2,2023-09-11T23:26:34.568Z,,0,,,NaN,,,,,,false,,,,386439.6999999881,386439.60000002384,,386439.5,,386450.592,8,400,,,
sequence,flow.Sequence,4_50,2023-09-11T23:26:34.568Z,,0,,,4473.649000023841,completion,,,,,false,,,,386439.8000000119,386439.60000002384,381950.085,381958.5,381965.951,386450.592,8,400,,,
trial,html.Screen,4_51_0,2023-09-11T23:26:38.569Z,,0,2,,3989.607999988075,response,ISIC_0525687.JPG,20,ISIC_0256926.JPG,ISIC_0525687.JPG,false,1,keypress(m),500,390440.40000003576,390440.1999999881,386432.819,386439.90000003576,386450.592,390449.852,8,400,2,,ISIC_0256926.JPG
break,html.Screen,4_51_1,2023-09-11T23:26:38.570Z,,0,,,NaN,,,,,,false,,,,390441.6999999881,390441.60000002384,,390440.60000002384,,390449.852,8,400,,,
break_continue,html.Screen,4_51_2,2023-09-11T23:26:38.570Z,,0,,,NaN,,,,,,false,,,,390442.10000002384,390441.90000003576,,390441.90000003576,,390449.852,8,400,,,
sequence,flow.Sequence,4_51,2023-09-11T23:26:38.571Z,,0,,,3991.3080000357586,completion,,,,,false,,,,390442.1999999881,390441.90000003576,386432.819,386439.90000003576,386450.592,390449.852,8,400,,,
trial,html.Screen,4_52_0,2023-09-11T23:26:42.227Z,,0,2,,3648.5480000357493,response,ISIC_0058047.JPG,20,ISIC_6370977.JPG,ISIC_0058047.JPG,false,1,keypress(m),500,394098.6999999881,394098.40000003576,390433.063,390442.1999999881,390449.852,394115.624,8,400,3,,ISIC_6370977.JPG
break,html.Screen,4_52_1,2023-09-11T23:26:42.229Z,,0,,,NaN,,,,,,false,,,,394100.10000002384,394099.90000003576,,394098.90000003576,,394115.624,8,400,,,
break_continue,html.Screen,4_52_2,2023-09-11T23:26:42.229Z,,0,,,NaN,,,,,,false,,,,394100.40000003576,394100.3000000119,,394100.10000002384,,394115.624,8,400,,,
sequence,flow.Sequence,4_52,2023-09-11T23:26:42.229Z,,0,,,3650.4480000119074,completion,,,,,false,,,,394100.60000002384,394100.3000000119,390433.063,390442.1999999881,390449.852,394115.624,8,400,,,
trial,html.Screen,4_53_0,2023-09-11T23:26:46.602Z,,0,2,,4357.67600001191,response,ISIC_9668514.JPG,1,ISIC_0072997.JPG,ISIC_0072997.JPG,false,0,keypress(z),500,398473.5,398473.3000000119,394083.029,394100.6999999881,394115.624,398483.545,8,400,4,,ISIC_9668514.JPG
break,html.Screen,4_53_1,2023-09-11T23:26:46.603Z,,0,,,NaN,,,,,,false,,,,398474.8000000119,398474.6999999881,,398473.60000002384,,398483.545,8,400,,,
break_continue,html.Screen,4_53_2,2023-09-11T23:26:46.604Z,,0,,,NaN,,,,,,false,,,,398475.10000002384,398475,,398474.8000000119,,398483.545,8,400,,,
sequence,flow.Sequence,4_53,2023-09-11T23:26:46.604Z,,0,,,4359.375999999989,completion,,,,,false,,,,398475.1999999881,398475,394083.029,394100.60000002384,394115.624,398483.545,8,400,,,
trial,html.Screen,4_54_0,2023-09-11T23:26:50.852Z,,0,2,,4239.855000035779,response,ISIC_2383335.JPG,20,ISIC_0033585.JPG,ISIC_0033585.JPG,false,0,keypress(z),500,402723.6999999881,402723.40000003576,398466.245,398475.3000000119,398483.545,402732.229,8,400,5,,ISIC_2383335.JPG
break,html.Screen,4_54_1,2023-09-11T23:26:50.853Z,,0,,,NaN,,,,,,false,,,,402725,402724.90000003576,,402723.8000000119,,402732.229,8,400,,,
break_continue,html.Screen,4_54_2,2023-09-11T23:26:50.854Z,,0,,,NaN,,,,,,false,,,,402725.3000000119,402725.1999999881,,402725.10000002384,,402732.229,8,400,,,
sequence,flow.Sequence,4_54,2023-09-11T23:26:50.854Z,,0,,,4241.654999988095,completion,,,,,false,,,,402725.3000000119,402725.1999999881,398466.245,398475.1999999881,398483.545,402732.229,8,400,,,
trial,html.Screen,4_55_0,2023-09-11T23:26:55.600Z,,0,2,,4738.87100002385,response,ISIC_0034089.JPG,25,ISIC_0012047.JPG,ISIC_0012047.JPG,false,0,keypress(z),500,407471.3000000119,407471.10000002384,402715.785,402725.40000003576,402732.229,407482.152,8,400,6,,ISIC_0034089.JPG
break,html.Screen,4_55_1,2023-09-11T23:26:55.601Z,,0,,,NaN,,,,,,false,,,,407472.5,407472.3000000119,,407471.5,,407482.152,8,400,,,
break_continue,html.Screen,4_55_2,2023-09-11T23:26:55.601Z,,0,,,NaN,,,,,,false,,,,407472.8000000119,407472.6999999881,,407472.60000002384,,407482.152,8,400,,,
sequence,flow.Sequence,4_55,2023-09-11T23:26:55.601Z,,0,,,4740.470999988087,completion,,,,,false,,,,407472.8000000119,407472.6999999881,402715.785,402725.40000003576,402732.229,407482.152,8,400,,,
trial,html.Screen,4_56_0,2023-09-11T23:26:59.567Z,,0,2,,3956.047999988077,response,ISIC_0046917.JPG,9,ISIC_9157162.JPG,ISIC_0046917.JPG,false,1,keypress(m),500,411438.40000003576,411438.1999999881,407465.903,407472.90000003576,407482.152,411448.503,8,400,7,,ISIC_9157162.JPG
break,html.Screen,4_56_1,2023-09-11T23:26:59.568Z,,0,,,NaN,,,,,,false,,,,411439.6999999881,411439.5,,411438.5,,411448.503,8,400,,,
break_continue,html.Screen,4_56_2,2023-09-11T23:26:59.568Z,,0,,,NaN,,,,,,false,,,,411440,411439.90000003576,,411439.8000000119,,411448.503,8,400,,,
sequence,flow.Sequence,4_56,2023-09-11T23:26:59.569Z,,0,,,3957.748000035761,completion,,,,,false,,,,411440.10000002384,411439.90000003576,407465.903,407472.90000003576,407482.152,411448.503,8,400,,,
trial,html.Screen,4_57_0,2023-09-11T23:27:04.807Z,,0,2,,5229.696999988053,response,ISIC_0028505.JPG,8,ISIC_0650126.JPG,ISIC_0650126.JPG,false,0,keypress(z),500,416678.40000003576,416678.1999999881,411432.088,411440.1999999881,411448.503,416682.261,8,400,8,,ISIC_0028505.JPG
break,html.Screen,4_57_1,2023-09-11T23:27:04.808Z,,0,,,NaN,,,,,,false,,,,416679.60000002384,416679.40000003576,,416678.5,,416682.261,8,400,,,
break_continue,html.Screen,4_57_2,2023-09-11T23:27:04.808Z,,0,,,NaN,,,,,,false,,,,416679.90000003576,416679.8000000119,,416679.6999999881,,416682.261,8,400,,,
sequence,flow.Sequence,4_57,2023-09-11T23:27:04.808Z,,0,,,5231.297000011895,completion,,,,,false,,,,416679.90000003576,416679.8000000119,411432.088,411440.1999999881,411448.503,416682.261,8,400,,,
trial,html.Screen,4_58_0,2023-09-11T23:27:11.862Z,,0,2,,7051.239000000001,response,ISIC_0014013.JPG,13,ISIC_5647554.JPG,ISIC_0014013.JPG,false,1,keypress(m),500,423733.60000002384,423733.5,416665.666,416680,416682.261,423748.505,8,400,9,,ISIC_5647554.JPG
break,html.Screen,4_58_1,2023-09-11T23:27:11.863Z,,0,,,NaN,,,,,,false,,,,423735,423734.8000000119,,423733.8000000119,,423748.505,8,400,,,
break_continue,html.Screen,4_58_2,2023-09-11T23:27:11.864Z,,0,,,NaN,,,,,,false,,,,423735.1999999881,423735.1999999881,,423735.10000002384,,423748.505,8,400,,,
sequence,flow.Sequence,4_58,2023-09-11T23:27:11.864Z,,0,,,7052.9389999880805,completion,,,,,false,,,,423735.40000003576,423735.1999999881,416665.666,416680,416682.261,423748.505,8,400,,,
trial,html.Screen,4_59_0,2023-09-11T23:27:16.311Z,,0,2,,4441.994999999995,response,ISIC_1560272.JPG,5,ISIC_8479104.JPG,ISIC_8479104.JPG,false,0,keypress(z),500,428190.6999999881,428190.5,423731.842,423735.5,423748.505,428212.801,8,400,10,,ISIC_1560272.JPG
break,html.Screen,4_59_1,2023-09-11T23:27:16.312Z,,0,,,NaN,,,,,,false,,,,428192,428191.8000000119,,428190.90000003576,,428212.801,8,400,,,
break_continue,html.Screen,4_59_2,2023-09-11T23:27:16.312Z,,0,,,NaN,,,,,,false,,,,428192.3000000119,428192.3000000119,,428192.10000002384,,428212.801,8,400,,,
sequence,flow.Sequence,4_59,2023-09-11T23:27:16.313Z,,0,,,4443.795000011916,completion,,,,,false,,,,428192.5,428192.3000000119,423731.842,423735.5,423748.505,428212.801,8,400,,,
trial,html.Screen,4_60_0,2023-09-11T23:27:21.269Z,,0,2,,4935.699000000022,response,ISIC_9545819.JPG,28,ISIC_0010719.JPG,ISIC_9545819.JPG,false,1,keypress(m),500,433148.8000000119,433148.5,428183.498,428192.60000002384,428212.801,433164.958,8,400,11,,ISIC_0010719.JPG
break,html.Screen,4_60_1,2023-09-11T23:27:21.270Z,,0,,,NaN,,,,,,false,,,,433150.40000003576,433150.1999999881,,433149,,433164.958,8,400,,,
break_continue,html.Screen,4_60_2,2023-09-11T23:27:21.271Z,,0,,,NaN,,,,,,false,,,,433150.60000002384,433150.60000002384,,433150.40000003576,,433164.958,8,400,,,
sequence,flow.Sequence,4_60,2023-09-11T23:27:21.271Z,,0,,,4937.799000023864,completion,,,,,false,,,,433150.8000000119,433150.60000002384,428183.498,428192.60000002384,428212.801,433164.958,8,400,,,
trial,html.Screen,4_61_0,2023-09-11T23:27:25.400Z,,0,2,,4114.642000023858,response,ISIC_0073147.JPG,7,ISIC_6778515.JPG,ISIC_0073147.JPG,false,1,keypress(m),500,437279.8000000119,437279.60000002384,433148.609,433150.8000000119,433164.958,437283.936,8,400,12,,ISIC_6778515.JPG
break,html.Screen,4_61_1,2023-09-11T23:27:25.401Z,,0,,,NaN,,,,,,false,,,,437281.1999999881,437280.90000003576,,437280,,437283.936,8,400,,,
break_continue,html.Screen,4_61_2,2023-09-11T23:27:25.402Z,,0,,,NaN,,,,,,false,,,,437281.5,437281.3000000119,,437281.1999999881,,437283.936,8,400,,,
sequence,flow.Sequence,4_61,2023-09-11T23:27:25.402Z,,0,,,4116.342000011937,completion,,,,,false,,,,437281.60000002384,437281.3000000119,433148.609,433150.8000000119,433164.958,437283.936,8,400,,,
trial,html.Screen,4_62_0,2023-09-11T23:27:30.884Z,,0,2,,5479.564000000013,response,ISIC_0046537.JPG,22,ISIC_0197584.JPG,ISIC_0046537.JPG,false,1,keypress(m),500,442763.8000000119,442763.5,437265.344,437281.6999999881,437283.936,442781.68,8,400,13,,ISIC_0197584.JPG
break,html.Screen,4_62_1,2023-09-11T23:27:30.885Z,,0,,,NaN,,,,,,false,,,,442765.10000002384,442765,,442763.90000003576,,442781.68,8,400,,,
break_continue,html.Screen,4_62_2,2023-09-11T23:27:30.885Z,,0,,,NaN,,,,,,false,,,,442765.40000003576,442765.3000000119,,442765.1999999881,,442781.68,8,400,,,
sequence,flow.Sequence,4_62,2023-09-11T23:27:30.886Z,,0,,,5481.364000011934,completion,,,,,false,,,,442765.5,442765.3000000119,437265.344,437281.60000002384,437283.936,442781.68,8,400,,,
trial,html.Screen,4_63_0,2023-09-11T23:27:35.483Z,,0,2,,4581.320000000007,response,ISIC_5931552.JPG,5,ISIC_0028328.JPG,ISIC_0028328.JPG,false,0,keypress(z),500,447363.3000000119,447363,442748.262,442765.5,442781.68,447381.541,8,400,14,,ISIC_5931552.JPG
break,html.Screen,4_63_1,2023-09-11T23:27:35.485Z,,0,,,NaN,,,,,,false,,,,447364.6999999881,447364.5,,447363.40000003576,,447381.541,8,400,,,
break_continue,html.Screen,4_63_2,2023-09-11T23:27:35.485Z,,0,,,NaN,,,,,,false,,,,447364.90000003576,447364.90000003576,,447364.8000000119,,447381.541,8,400,,,
sequence,flow.Sequence,4_63,2023-09-11T23:27:35.485Z,,0,,,4583.22000003577,completion,,,,,false,,,,447365,447364.90000003576,442748.262,442765.5,442781.68,447381.541,8,400,,,
trial,html.Screen,4_64_0,2023-09-11T23:27:40.240Z,,0,2,,4737.859000035736,response,ISIC_0032226.JPG,20,ISIC_0990298.JPG,ISIC_0990298.JPG,false,0,keypress(z),500,452119.60000002384,452119.40000003576,447348.215,447365.10000002384,447381.541,452131.063,8,400,15,,ISIC_0032226.JPG
break,html.Screen,4_64_1,2023-09-11T23:27:40.241Z,,0,,,NaN,,,,,,false,,,,452120.8000000119,452120.60000002384,,452119.8000000119,,452131.063,8,400,,,
break_continue,html.Screen,4_64_2,2023-09-11T23:27:40.241Z,,0,,,NaN,,,,,,false,,,,452121.10000002384,452121,,452120.90000003576,,452131.063,8,400,,,
sequence,flow.Sequence,4_64,2023-09-11T23:27:40.241Z,,0,,,4739.4589999999735,completion,,,,,false,,,,452121.1999999881,452121,447348.215,447365,447381.541,452131.063,8,400,,,
trial,html.Screen,4_65_0,2023-09-11T23:27:45.329Z,,0,2,,5077.837000035739,response,ISIC_0011035.JPG,6,ISIC_1293403.JPG,ISIC_1293403.JPG,false,0,keypress(z),500,457209.10000002384,457208.90000003576,452116.144,452121.1999999881,452131.063,457216.047,8,400,16,,ISIC_0011035.JPG
break,html.Screen,4_65_1,2023-09-11T23:27:45.331Z,,0,,,NaN,,,,,,false,,,,457210.60000002384,457210.40000003576,,457209.40000003576,,457216.047,8,400,,,
break_continue,html.Screen,4_65_2,2023-09-11T23:27:45.331Z,,0,,,NaN,,,,,,false,,,,457210.90000003576,457210.6999999881,,457210.6999999881,,457216.047,8,400,,,
sequence,flow.Sequence,4_65,2023-09-11T23:27:45.331Z,,0,,,5079.636999988055,completion,,,,,false,,,,457210.90000003576,457210.6999999881,452116.144,452121.1999999881,452131.063,457216.047,8,400,,,
trial,html.Screen,4_66_0,2023-09-11T23:27:49.225Z,,0,2,,3889.1529999880586,response,ISIC_0032248.JPG,6,ISIC_0010636.JPG,ISIC_0032248.JPG,false,1,keypress(m),500,461105.40000003576,461105.1999999881,457198.132,457211,457216.047,461113.876,8,400,17,,ISIC_0010636.JPG
break,html.Screen,4_66_1,2023-09-11T23:27:49.227Z,,0,,,NaN,,,,,,false,,,,461106.6999999881,461106.10000002384,,461105.8000000119,,461113.876,8,400,,,
break_continue,html.Screen,4_66_2,2023-09-11T23:27:49.227Z,,0,,,NaN,,,,,,false,,,,461107.10000002384,461107,,461106.90000003576,,461113.876,8,400,,,
sequence,flow.Sequence,4_66,2023-09-11T23:27:49.227Z,,0,,,3890.9529999999795,completion,,,,,false,,,,461107.3000000119,461107,457198.132,457211,457216.047,461113.876,8,400,,,
trial,html.Screen,4_67_0,2023-09-11T23:27:53.311Z,,0,2,,4076.82399998809,response,ISIC_0033344.JPG,22,ISIC_0647224.JPG,ISIC_0033344.JPG,false,1,keypress(m),500,465191,465190.6999999881,461097.788,461107.40000003576,461113.876,465197.792,8,400,18,,ISIC_0647224.JPG
break,html.Screen,4_67_1,2023-09-11T23:27:53.312Z,,0,,,NaN,,,,,,false,,,,465192.1999999881,465192.10000002384,,465191.10000002384,,465197.792,8,400,,,
break_continue,html.Screen,4_67_2,2023-09-11T23:27:53.313Z,,0,,,NaN,,,,,,false,,,,465192.5,465192.40000003576,,465192.3000000119,,465197.792,8,400,,,
sequence,flow.Sequence,4_67,2023-09-11T23:27:53.313Z,,0,,,4078.5240000357735,completion,,,,,false,,,,465192.60000002384,465192.40000003576,461097.788,461107.40000003576,461113.876,465197.792,8,400,,,
trial,html.Screen,4_68_0,2023-09-11T23:27:59.009Z,,0,2,,5690.608000035747,response,ISIC_9384835.JPG,10,ISIC_7759913.JPG,ISIC_9384835.JPG,false,1,keypress(m),500,470888.6999999881,470888.40000003576,465181.105,465192.6999999881,465197.792,470897.577,8,400,19,,ISIC_7759913.JPG
break,html.Screen,4_68_1,2023-09-11T23:27:59.010Z,,0,,,NaN,,,,,,false,,,,470889.90000003576,470889.8000000119,,470888.8000000119,,470897.577,8,400,,,
break_continue,html.Screen,4_68_2,2023-09-11T23:27:59.010Z,,0,,,NaN,,,,,,false,,,,470890.1999999881,470890.10000002384,,470890,,470897.577,8,400,,,
sequence,flow.Sequence,4_68,2023-09-11T23:27:59.010Z,,0,,,5692.308000023826,completion,,,,,false,,,,470890.3000000119,470890.10000002384,465181.105,465192.6999999881,465197.792,470897.577,8,400,,,
trial,html.Screen,4_69_0,2023-09-11T23:28:03.799Z,,0,2,,4781.023000023852,response,ISIC_0046609.JPG,12,ISIC_6486856.JPG,ISIC_0046609.JPG,false,1,keypress(m),500,475678.8000000119,475678.60000002384,470880.868,470890.40000003576,470897.577,475682.862,8,400,20,,ISIC_6486856.JPG
break,html.Screen,4_69_1,2023-09-11T23:28:03.800Z,,0,,,NaN,,,,,,false,,,,475680.3000000119,475680.10000002384,,475679,,475682.862,8,400,,,
break_continue,html.Screen,4_69_2,2023-09-11T23:28:03.801Z,,0,,,NaN,,,,,,false,,,,475680.5,475680.40000003576,,475680.40000003576,,475682.862,8,400,,,
sequence,flow.Sequence,4_69,2023-09-11T23:28:03.801Z,,0,,,4782.823000035773,completion,,,,,false,,,,475680.60000002384,475680.40000003576,470880.868,470890.40000003576,470897.577,475682.862,8,400,,,
trial,html.Screen,4_70_0,2023-09-11T23:28:09.606Z,,0,2,,5802.837999988056,response,ISIC_5586765.JPG,2,ISIC_7251402.JPG,ISIC_5586765.JPG,false,1,keypress(m),500,481485.90000003576,481485.6999999881,475663.893,475680.6999999881,475682.862,481497.066,8,400,21,,ISIC_7251402.JPG
break,html.Screen,4_70_1,2023-09-11T23:28:09.607Z,,0,,,NaN,,,,,,false,,,,481487.3000000119,481487.1999999881,,481486.10000002384,,481497.066,8,400,,,
break_continue,html.Screen,4_70_2,2023-09-11T23:28:09.608Z,,0,,,NaN,,,,,,false,,,,481487.60000002384,481487.5,,481487.40000003576,,481497.066,8,400,,,
sequence,flow.Sequence,4_70,2023-09-11T23:28:09.608Z,,0,,,5804.637999999977,completion,,,,,false,,,,481487.8000000119,481487.5,475663.893,475680.60000002384,475682.862,481497.066,8,400,,,
trial,html.Screen,4_71_0,2023-09-11T23:28:13.586Z,,0,2,,3960.0340000238502,response,ISIC_0072290.JPG,12,ISIC_0062709.JPG,ISIC_0072290.JPG,false,1,keypress(m),500,485457.6999999881,485457.10000002384,481480.294,481487.8000000119,481497.066,485464.938,8,400,22,,ISIC_0062709.JPG
break,html.Screen,4_71_1,2023-09-11T23:28:13.589Z,,0,,,NaN,,,,,,false,,,,485460.5,485460.1999999881,,485458.1999999881,,485464.938,8,400,,,
break_continue,html.Screen,4_71_2,2023-09-11T23:28:13.589Z,,0,,,NaN,,,,,,false,,,,485461,485460.8000000119,,485460.6999999881,,485464.938,8,400,,,
sequence,flow.Sequence,4_71,2023-09-11T23:28:13.590Z,,0,,,3963.7340000119293,completion,,,,,false,,,,485461.1999999881,485460.8000000119,481480.294,481487.8000000119,481497.066,485464.938,8,400,,,
trial,html.Screen,4_72_0,2023-09-11T23:28:18.239Z,,0,2,,4645.761999988055,response,ISIC_0011343.JPG,23,ISIC_5323725.JPG,ISIC_5323725.JPG,false,0,keypress(z),500,490110.90000003576,490110.6999999881,485447.057,485461.3000000119,485464.938,490115.196,8,400,23,,ISIC_0011343.JPG
break,html.Screen,4_72_1,2023-09-11T23:28:18.241Z,,0,,,NaN,,,,,,false,,,,490112.1999999881,490112,,490111,,490115.196,8,400,,,
break_continue,html.Screen,4_72_2,2023-09-11T23:28:18.241Z,,0,,,NaN,,,,,,false,,,,490112.5,490112.5,,490112.3000000119,,490115.196,8,400,,,
sequence,flow.Sequence,4_72,2023-09-11T23:28:18.241Z,,0,,,4647.561999999976,completion,,,,,false,,,,490112.60000002384,490112.5,485447.057,485461.1999999881,485464.938,490115.196,8,400,,,
trial,html.Screen,4_73_0,2023-09-11T23:28:22.444Z,,0,2,,4199.804000000004,response,ISIC_6967143.JPG,12,ISIC_0000174.JPG,ISIC_0000174.JPG,false,0,keypress(z),500,494315.3000000119,494315,490097.151,490112.6999999881,490115.196,494330.297,8,400,24,,ISIC_6967143.JPG
break,html.Screen,4_73_1,2023-09-11T23:28:22.445Z,,0,,,NaN,,,,,,false,,,,494316.5,494316,,494315.5,,494330.297,8,400,,,
break_continue,html.Screen,4_73_2,2023-09-11T23:28:22.445Z,,0,,,NaN,,,,,,false,,,,494316.90000003576,494316.6999999881,,494316.60000002384,,494330.297,8,400,,,
sequence,flow.Sequence,4_73,2023-09-11T23:28:22.445Z,,0,,,4201.503999988083,completion,,,,,false,,,,494317,494316.6999999881,490097.151,490112.6999999881,490115.196,494330.297,8,400,,,
trial,html.Screen,4_74_0,2023-09-11T23:28:26.201Z,,0,2,,3742.1030000357423,response,ISIC_0026559.JPG,22,ISIC_9626843.JPG,ISIC_0026559.JPG,false,1,keypress(m),500,498072.6999999881,498072.40000003576,494313.768,494317,494330.297,498079.716,8,400,25,,ISIC_9626843.JPG
break,html.Screen,4_74_1,2023-09-11T23:28:26.202Z,,0,,,NaN,,,,,,false,,,,498074,498073.8000000119,,498072.8000000119,,498079.716,8,400,,,
break_continue,html.Screen,4_74_2,2023-09-11T23:28:26.203Z,,0,,,NaN,,,,,,false,,,,498074.1999999881,498074.1999999881,,498074,,498079.716,8,400,,,
sequence,flow.Sequence,4_74,2023-09-11T23:28:26.203Z,,0,,,3743.9029999880586,completion,,,,,false,,,,498074.40000003576,498074.1999999881,494313.768,494317,494330.297,498079.716,8,400,,,
trial,html.Screen,4_75_0,2023-09-11T23:28:30.748Z,,0,2,,4539.084000011906,response,ISIC_6247668.JPG,11,ISIC_0465476.JPG,ISIC_6247668.JPG,false,1,keypress(m),500,502619.10000002384,502618.8000000119,498063.141,498074.5,498079.716,502630.444,8,400,26,,ISIC_0465476.JPG
break,html.Screen,4_75_1,2023-09-11T23:28:30.749Z,,0,,,NaN,,,,,,false,,,,502621,502620.8000000119,,502619.40000003576,,502630.444,8,400,,,
break_continue,html.Screen,4_75_2,2023-09-11T23:28:30.750Z,,0,,,NaN,,,,,,false,,,,502621.1999999881,502621.1999999881,,502621.10000002384,,502630.444,8,400,,,
sequence,flow.Sequence,4_75,2023-09-11T23:28:30.750Z,,0,,,4541.483999988064,completion,,,,,false,,,,502621.3000000119,502621.1999999881,498063.141,498074.5,498079.716,502630.444,8,400,,,
trial,html.Screen,4_76_0,2023-09-11T23:28:34.759Z,,0,2,,3999.956000035745,response,ISIC_0056692.JPG,24,ISIC_2246150.JPG,ISIC_0056692.JPG,false,1,keypress(m),500,506630.60000002384,506630.40000003576,502612.9,502621.5,502630.444,506646.252,8,400,27,,ISIC_2246150.JPG
break,html.Screen,4_76_1,2023-09-11T23:28:34.760Z,,0,,,NaN,,,,,,false,,,,506631.90000003576,506631.8000000119,,506630.6999999881,,506646.252,8,400,,,
break_continue,html.Screen,4_76_2,2023-09-11T23:28:34.761Z,,0,,,NaN,,,,,,false,,,,506632.1999999881,506632.1999999881,,506632,,506646.252,8,400,,,
sequence,flow.Sequence,4_76,2023-09-11T23:28:34.761Z,,0,,,4001.7559999880614,completion,,,,,false,,,,506632.40000003576,506632.1999999881,502612.9,502621.40000003576,502630.444,506646.252,8,400,,,
trial,html.Screen,4_77_0,2023-09-11T23:28:39.079Z,,0,2,,4303.848000023863,response,ISIC_0024333.JPG,14,ISIC_3963183.JPG,ISIC_3963183.JPG,false,0,keypress(z),500,510950.40000003576,510950.10000002384,506629.979,506632.40000003576,506646.252,510962.818,8,400,28,,ISIC_0024333.JPG
break,html.Screen,4_77_1,2023-09-11T23:28:39.080Z,,0,,,NaN,,,,,,false,,,,510951.6999999881,510951.5,,510950.60000002384,,510962.818,8,400,,,
break_continue,html.Screen,4_77_2,2023-09-11T23:28:39.080Z,,0,,,NaN,,,,,,false,,,,510952,510951.90000003576,,510951.8000000119,,510962.818,8,400,,,
sequence,flow.Sequence,4_77,2023-09-11T23:28:39.081Z,,0,,,4305.648000035784,completion,,,,,false,,,,510952.10000002384,510951.90000003576,506629.979,506632.40000003576,506646.252,510962.818,8,400,,,
trial,html.Screen,4_78_0,2023-09-11T23:28:44.032Z,,0,2,,4940.681999999972,response,ISIC_0026281.JPG,11,ISIC_4810142.JPG,ISIC_0026281.JPG,false,1,keypress(m),500,515903.8000000119,515903.5,510945.948,510952.1999999881,510962.818,515912.505,8,400,29,,ISIC_4810142.JPG
break,html.Screen,4_78_1,2023-09-11T23:28:44.034Z,,0,,,NaN,,,,,,false,,,,515905.1999999881,515905.10000002384,,515904,,515912.505,8,400,,,
break_continue,html.Screen,4_78_2,2023-09-11T23:28:44.034Z,,0,,,NaN,,,,,,false,,,,515905.60000002384,515905.5,,515905.3000000119,,515912.505,8,400,,,
sequence,flow.Sequence,4_78,2023-09-11T23:28:44.034Z,,0,,,4942.681999999972,completion,,,,,false,,,,515905.6999999881,515905.5,510945.948,510952.10000002384,510962.818,515912.505,8,400,,,
trial,html.Screen,4_79_0,2023-09-11T23:28:48.578Z,,0,2,,4536.795000011916,response,ISIC_2447578.JPG,7,ISIC_0844312.JPG,ISIC_0844312.JPG,false,0,keypress(z),500,520449.40000003576,520449.3000000119,515896.626,515905.8000000119,515912.505,520462.922,8,400,30,,ISIC_2447578.JPG
break,html.Screen,4_79_1,2023-09-11T23:28:48.579Z,,0,,,NaN,,,,,,false,,,,520450.6999999881,520450.60000002384,,520449.60000002384,,520462.922,8,400,,,
break_continue,html.Screen,4_79_2,2023-09-11T23:28:48.579Z,,0,,,NaN,,,,,,false,,,,520451.10000002384,520450.90000003576,,520450.90000003576,,520462.922,8,400,,,
sequence,flow.Sequence,4_79,2023-09-11T23:28:48.580Z,,0,,,4538.395000035758,completion,,,,,false,,,,520451.1999999881,520450.90000003576,515896.626,515905.6999999881,515912.505,520462.922,8,400,,,
trial,html.Screen,4_80_0,2023-09-11T23:28:52.765Z,,0,2,,4173.478000035742,response,ISIC_0027420.JPG,21,ISIC_0062559.JPG,ISIC_0062559.JPG,false,0,keypress(z),500,524636.6999999881,524636.4000000358,520445.92,520451.1999999881,520462.922,524646.14,8,400,31,,ISIC_0027420.JPG
break,html.Screen,4_80_1,2023-09-11T23:28:52.766Z,,0,,,NaN,,,,,,false,,,,524638,524637.8000000119,,524636.8000000119,,524646.14,8,400,,,
break_continue,html.Screen,4_80_2,2023-09-11T23:28:52.767Z,,0,,,NaN,,,,,,false,,,,524638.3000000119,524638.1999999881,,524638,,524646.14,8,400,,,
sequence,flow.Sequence,4_80,2023-09-11T23:28:52.767Z,,0,,,4175.277999988059,completion,,,,,false,,,,524638.3000000119,524638.1999999881,520445.92,520451.1999999881,520462.922,524646.14,8,400,,,
trial,html.Screen,4_81_0,2023-09-11T23:28:56.577Z,,0,2,,3801.660000011907,response,ISIC_0027235.JPG,10,ISIC_0010878.JPG,ISIC_0027235.JPG,false,1,keypress(m),500,528448.1000000238,528447.8000000119,524629.469,524638.4000000358,524646.14,528462.694,8,400,32,,ISIC_0010878.JPG
break,html.Screen,4_81_1,2023-09-11T23:28:56.578Z,,0,,,NaN,,,,,,false,,,,528449.5,528449.3000000119,,528448.3000000119,,528462.694,8,400,,,
break_continue,html.Screen,4_81_2,2023-09-11T23:28:56.578Z,,0,,,NaN,,,,,,false,,,,528449.6999999881,528449.6999999881,,528449.5,,528462.694,8,400,,,
sequence,flow.Sequence,4_81,2023-09-11T23:28:56.578Z,,0,,,3803.559999988065,completion,,,,,false,,,,528449.8000000119,528449.6999999881,524629.469,524638.4000000358,524646.14,528462.694,8,400,,,
trial,html.Screen,4_82_0,2023-09-11T23:29:00.247Z,,0,2,,3656.0059999880614,response,ISIC_0009886.JPG,28,ISIC_2910705.JPG,ISIC_2910705.JPG,false,0,keypress(z),500,532118.9000000358,532118.6999999881,528446.107,528449.9000000358,528462.694,532129.474,8,400,33,,ISIC_0009886.JPG
break,html.Screen,4_82_1,2023-09-11T23:29:00.249Z,,0,,,NaN,,,,,,false,,,,532120.3000000119,532120.1999999881,,532119.1000000238,,532129.474,8,400,,,
break_continue,html.Screen,4_82_2,2023-09-11T23:29:00.249Z,,0,,,NaN,,,,,,false,,,,532120.6999999881,532120.6000000238,,532120.5,,532129.474,8,400,,,
sequence,flow.Sequence,4_82,2023-09-11T23:29:00.249Z,,0,,,3657.906000023824,completion,,,,,false,,,,532120.8000000119,532120.6000000238,528446.107,528449.9000000358,528462.694,532129.474,8,400,,,
trial,html.Screen,4_83_0,2023-09-11T23:29:05.206Z,,0,2,,4947.326000011875,response,ISIC_7057495.JPG,9,ISIC_0033819.JPG,ISIC_0033819.JPG,false,0,keypress(z),500,537077.1000000238,537076.8000000119,532111.954,532120.9000000358,532129.474,537081.109,8,400,34,,ISIC_7057495.JPG
break,html.Screen,4_83_1,2023-09-11T23:29:05.207Z,,0,,,NaN,,,,,,false,,,,537078.4000000358,537078.1999999881,,537077.3000000119,,537081.109,8,400,,,
break_continue,html.Screen,4_83_2,2023-09-11T23:29:05.207Z,,0,,,NaN,,,,,,false,,,,537078.6999999881,537078.6000000238,,537078.5,,537081.109,8,400,,,
sequence,flow.Sequence,4_83,2023-09-11T23:29:05.207Z,,0,,,4949.126000023796,completion,,,,,false,,,,537078.8000000119,537078.6000000238,532111.954,532120.9000000358,532129.474,537081.109,8,400,,,
trial,html.Screen,4_84_0,2023-09-11T23:29:10.015Z,,0,2,,4804.890999999945,response,ISIC_4138377.JPG,10,ISIC_0030469.JPG,ISIC_0030469.JPG,false,0,keypress(z),500,541886.1999999881,541886,537063.886,537078.9000000358,537081.109,541895.162,8,400,35,,ISIC_4138377.JPG
break,html.Screen,4_84_1,2023-09-11T23:29:10.016Z,,0,,,NaN,,,,,,false,,,,541887.8000000119,541887.6000000238,,541886.4000000358,,541895.162,8,400,,,
break_continue,html.Screen,4_84_2,2023-09-11T23:29:10.017Z,,0,,,NaN,,,,,,false,,,,541888.1000000238,541888,,541887.9000000358,,541895.162,8,400,,,
sequence,flow.Sequence,4_84,2023-09-11T23:29:10.017Z,,0,,,4806.890999999945,completion,,,,,false,,,,541888.1999999881,541888,537063.886,537078.8000000119,537081.109,541895.162,8,400,,,
trial,html.Screen,4_85_0,2023-09-11T23:29:13.821Z,,0,2,,3798.4380000238307,response,ISIC_2507845.JPG,5,ISIC_0071651.JPG,ISIC_0071651.JPG,false,0,keypress(z),500,545693.9000000358,545693.6000000238,541878.957,541888.3000000119,541895.162,545712.208,8,400,36,,ISIC_2507845.JPG
break,html.Screen,4_85_1,2023-09-11T23:29:13.822Z,,0,,,NaN,,,,,,false,,,,545695.4000000358,545695.1999999881,,545694,,545712.208,8,400,,,
break_continue,html.Screen,4_85_2,2023-09-11T23:29:13.823Z,,0,,,NaN,,,,,,false,,,,545695.6000000238,545695.5,,545695.4000000358,,545712.208,8,400,,,
sequence,flow.Sequence,4_85,2023-09-11T23:29:13.823Z,,0,,,3800.337999999989,completion,,,,,false,,,,545695.6999999881,545695.5,541878.957,541888.1999999881,541895.162,545712.208,8,400,,,
trial,html.Screen,4_86_0,2023-09-11T23:29:19.412Z,,0,2,,5572.292000000016,response,ISIC_0064023.JPG,14,ISIC_0053686.JPG,ISIC_0064023.JPG,false,1,keypress(m),500,551284.6999999881,551284.5,545679.121,545695.8000000119,545712.208,551296.087,8,400,37,,ISIC_0053686.JPG
break,html.Screen,4_86_1,2023-09-11T23:29:19.413Z,,0,,,NaN,,,,,,false,,,,551286,551285.9000000358,,551284.9000000358,,551296.087,8,400,,,
break_continue,html.Screen,4_86_2,2023-09-11T23:29:19.413Z,,0,,,NaN,,,,,,false,,,,551286.3000000119,551286.1999999881,,551286.1999999881,,551296.087,8,400,,,
sequence,flow.Sequence,4_86,2023-09-11T23:29:19.413Z,,0,,,5573.991999988095,completion,,,,,false,,,,551286.4000000358,551286.1999999881,545679.121,545695.8000000119,545712.208,551296.087,8,400,,,
trial,html.Screen,4_87_0,2023-09-11T23:29:23.617Z,,0,2,,4193.813000035705,response,ISIC_0011530.JPG,15,ISIC_0072876.JPG,ISIC_0072876.JPG,false,0,keypress(z),500,555490.1000000238,555489.9000000358,551278.595,551286.5,551296.087,555496.415,8,400,38,,ISIC_0011530.JPG
break,html.Screen,4_87_1,2023-09-11T23:29:23.619Z,,0,,,NaN,,,,,,false,,,,555491.5,555491.3000000119,,555490.4000000358,,555496.415,8,400,,,
break_continue,html.Screen,4_87_2,2023-09-11T23:29:23.619Z,,0,,,NaN,,,,,,false,,,,555491.8000000119,555491.6999999881,,555491.6000000238,,555496.415,8,400,,,
sequence,flow.Sequence,4_87,2023-09-11T23:29:23.619Z,,0,,,4195.612999988021,completion,,,,,false,,,,555491.9000000358,555491.6999999881,551278.595,551286.4000000358,551296.087,555496.415,8,400,,,
trial,html.Screen,4_88_0,2023-09-11T23:29:30.749Z,,0,2,,7125.284999988042,response,ISIC_5717433.JPG,22,ISIC_2733056.JPG,ISIC_2733056.JPG,false,0,keypress(z),500,562622,562621.6999999881,555478.501,555492,555496.415,562628.907,8,400,39,,ISIC_5717433.JPG
break,html.Screen,4_88_1,2023-09-11T23:29:30.751Z,,0,,,NaN,,,,,,false,,,,562623.6000000238,562623.4000000358,,562622.1999999881,,562628.907,8,400,,,
break_continue,html.Screen,4_88_2,2023-09-11T23:29:30.751Z,,0,,,NaN,,,,,,false,,,,562623.9000000358,562623.8000000119,,562623.8000000119,,562628.907,8,400,,,
sequence,flow.Sequence,4_88,2023-09-11T23:29:30.751Z,,0,,,7127.385000011884,completion,,,,,false,,,,562624.1000000238,562623.8000000119,555478.501,555492,555496.415,562628.907,8,400,,,
trial,html.Screen,4_89_0,2023-09-11T23:29:34.725Z,,0,2,,3968.8930000119144,response,ISIC_0066429.JPG,5,ISIC_2341875.JPG,ISIC_0066429.JPG,false,1,keypress(m),500,566597.9000000358,566597.8000000119,562611.86,562624.1000000238,562628.907,566611.685,8,400,40,,ISIC_2341875.JPG
break,html.Screen,4_89_1,2023-09-11T23:29:34.726Z,,0,,,NaN,,,,,,false,,,,566599.1999999881,566599,,566598.1000000238,,566611.685,8,400,,,
break_continue,html.Screen,4_89_2,2023-09-11T23:29:34.727Z,,0,,,NaN,,,,,,false,,,,566599.5,566599.4000000358,,566599.3000000119,,566611.685,8,400,,,
sequence,flow.Sequence,4_89,2023-09-11T23:29:34.727Z,,0,,,3970.4930000357563,completion,,,,,false,,,,566599.6000000238,566599.4000000358,562611.86,562624.1000000238,562628.907,566611.685,8,400,,,
trial,html.Screen,4_90_0,2023-09-11T23:29:38.148Z,,0,2,,3409.215000035707,response,ISIC_0033427.JPG,7,ISIC_1396767.JPG,ISIC_1396767.JPG,false,0,keypress(z),500,570021.1000000238,570020.9000000358,566594.488,566599.6000000238,566611.685,570028.375,8,400,41,,ISIC_0033427.JPG
break,html.Screen,4_90_1,2023-09-11T23:29:38.150Z,,0,,,NaN,,,,,,false,,,,570022.6999999881,570022.5,,570021.3000000119,,570028.375,8,400,,,
break_continue,html.Screen,4_90_2,2023-09-11T23:29:38.150Z,,0,,,NaN,,,,,,false,,,,570023.1000000238,570023,,570022.9000000358,,570028.375,8,400,,,
sequence,flow.Sequence,4_90,2023-09-11T23:29:38.150Z,,0,,,3411.314999999944,completion,,,,,false,,,,570023.1999999881,570023,566594.488,566599.6000000238,566611.685,570028.375,8,400,,,
trial,html.Screen,4_91_0,2023-09-11T23:29:41.573Z,,0,2,,3417.425000011921,response,ISIC_0034050.JPG,6,ISIC_8174951.JPG,ISIC_0034050.JPG,false,1,keypress(m),500,573446.1000000238,573445.8000000119,570011.859,570023.1999999881,570028.375,573461.479,8,400,42,,ISIC_8174951.JPG
break,html.Screen,4_91_1,2023-09-11T23:29:41.575Z,,0,,,NaN,,,,,,false,,,,573447.4000000358,573447.1999999881,,573446.3000000119,,573461.479,8,400,,,
break_continue,html.Screen,4_91_2,2023-09-11T23:29:41.575Z,,0,,,NaN,,,,,,false,,,,573447.6999999881,573447.6000000238,,573447.5,,573461.479,8,400,,,
sequence,flow.Sequence,4_91,2023-09-11T23:29:41.575Z,,0,,,3419.225000023842,completion,,,,,false,,,,573447.8000000119,573447.6000000238,570011.859,570023.1999999881,570028.375,573461.479,8,400,,,
trial,html.Screen,4_92_0,2023-09-11T23:29:45.770Z,,0,2,,4180.821000011871,response,ISIC_0011921.JPG,7,ISIC_7196249.JPG,ISIC_0011921.JPG,false,1,keypress(m),500,577642.6000000238,577642.3000000119,573444.213,573447.8000000119,573461.479,577646.673,8,400,43,,ISIC_7196249.JPG
break,html.Screen,4_92_1,2023-09-11T23:29:45.771Z,,0,,,NaN,,,,,,false,,,,577643.8000000119,577643.6999999881,,577642.8000000119,,577646.673,8,400,,,
break_continue,html.Screen,4_92_2,2023-09-11T23:29:45.771Z,,0,,,NaN,,,,,,false,,,,577644.1999999881,577644.1000000238,,577644,,577646.673,8,400,,,
sequence,flow.Sequence,4_92,2023-09-11T23:29:45.771Z,,0,,,4182.621000023792,completion,,,,,false,,,,577644.3000000119,577644.1000000238,573444.213,573447.8000000119,573461.479,577646.673,8,400,,,
trial,html.Screen,4_93_0,2023-09-11T23:29:49.309Z,,0,2,,3534.727000035811,response,ISIC_4538489.JPG,7,ISIC_1956354.JPG,ISIC_4538489.JPG,false,1,keypress(m),500,581181.6000000238,581181.4000000358,577628.124,577644.3000000119,577646.673,581195.056,8,400,44,,ISIC_1956354.JPG
break,html.Screen,4_93_1,2023-09-11T23:29:49.310Z,,0,,,NaN,,,,,,false,,,,581183,581182.8000000119,,581181.9000000358,,581195.056,8,400,,,
break_continue,html.Screen,4_93_2,2023-09-11T23:29:49.310Z,,0,,,NaN,,,,,,false,,,,581183.4000000358,581183.3000000119,,581183.1999999881,,581195.056,8,400,,,
sequence,flow.Sequence,4_93,2023-09-11T23:29:49.311Z,,0,,,3536.6270000119694,completion,,,,,false,,,,581183.5,581183.3000000119,577628.124,577644.3000000119,577646.673,581195.056,8,400,,,
trial,html.Screen,4_94_0,2023-09-11T23:29:54.276Z,,0,2,,4953.54400002386,response,ISIC_9742073.JPG,5,ISIC_2858419.JPG,ISIC_2858419.JPG,false,0,keypress(z),500,586148.9000000358,586148.6000000238,581177.571,581183.6000000238,581195.056,586161.135,8,400,45,,ISIC_9742073.JPG
break,html.Screen,4_94_1,2023-09-11T23:29:54.278Z,,0,,,NaN,,,,,,false,,,,586150.5,586150.3000000119,,586149,,586161.135,8,400,,,
break_continue,html.Screen,4_94_2,2023-09-11T23:29:54.278Z,,0,,,NaN,,,,,,false,,,,586150.8000000119,586150.6000000238,,586150.6000000238,,586161.135,8,400,,,
sequence,flow.Sequence,4_94,2023-09-11T23:29:54.278Z,,0,,,4955.54400002386,completion,,,,,false,,,,586150.9000000358,586150.6000000238,581177.571,581183.5,581195.056,586161.135,8,400,,,
trial,html.Screen,4_95_0,2023-09-11T23:29:59.377Z,,0,2,,5088.56499998807,response,ISIC_0028718.JPG,12,ISIC_7912183.JPG,ISIC_7912183.JPG,false,0,keypress(z),500,591250,591249.6999999881,586144.344,586150.9000000358,586161.135,591261.729,8,400,46,,ISIC_0028718.JPG
break,html.Screen,4_95_1,2023-09-11T23:29:59.379Z,,0,,,NaN,,,,,,false,,,,591251.6000000238,591251.5,,591250.1999999881,,591261.729,8,400,,,
break_continue,html.Screen,4_95_2,2023-09-11T23:29:59.379Z,,0,,,NaN,,,,,,false,,,,591251.9000000358,591251.8000000119,,591251.6999999881,,591261.729,8,400,,,
sequence,flow.Sequence,4_95,2023-09-11T23:29:59.379Z,,0,,,5090.665000011912,completion,,,,,false,,,,591251.9000000358,591251.8000000119,586144.344,586150.9000000358,586161.135,591261.729,8,400,,,
trial,html.Screen,4_96_0,2023-09-11T23:30:05.123Z,,0,2,,5734.1710000357125,response,ISIC_0058164.JPG,11,ISIC_7413786.JPG,ISIC_7413786.JPG,false,0,keypress(z),500,596996.1000000238,596995.9000000358,591244.322,591252,591261.729,597010.278,8,400,47,,ISIC_0058164.JPG
break,html.Screen,4_96_1,2023-09-11T23:30:05.124Z,,0,,,NaN,,,,,,false,,,,596996.6999999881,596996.5,,596996.1999999881,,597010.278,8,400,,,
break_continue,html.Screen,4_96_2,2023-09-11T23:30:05.124Z,,0,,,NaN,,,,,,false,,,,596997.1999999881,596997.1000000238,,596996.6999999881,,597010.278,8,400,,,
sequence,flow.Sequence,4_96,2023-09-11T23:30:05.124Z,,0,,,5735.371000023792,completion,,,,,false,,,,596997.3000000119,596997.1000000238,591244.322,591252,591261.729,597010.278,8,400,,,
trial,html.Screen,4_97_0,2023-09-11T23:30:10.437Z,,0,2,,5299.122000035713,response,ISIC_3586669.JPG,1,ISIC_0032036.JPG,ISIC_0032036.JPG,false,0,keypress(z),500,602309.6000000238,602309.4000000358,596995.668,596997.4000000358,597010.278,602327.215,8,400,48,,ISIC_3586669.JPG
break,html.Screen,4_97_1,2023-09-11T23:30:10.438Z,,0,,,NaN,,,,,,false,,,,602311,602310.8000000119,,602309.8000000119,,602327.215,8,400,,,
break_continue,html.Screen,4_97_2,2023-09-11T23:30:10.438Z,,0,,,NaN,,,,,,false,,,,602311.1999999881,602311.1999999881,,602311.1000000238,,602327.215,8,400,,,
sequence,flow.Sequence,4_97,2023-09-11T23:30:10.438Z,,0,,,5300.92199998803,completion,,,,,false,,,,602311.3000000119,602311.1999999881,596995.668,596997.4000000358,597010.278,602327.215,8,400,,,
trial,html.Screen,4_98_0,2023-09-11T23:30:13.684Z,,0,2,,3228.0850000119535,response,ISIC_0013525.JPG,12,ISIC_0010017.JPG,ISIC_0013525.JPG,false,1,keypress(m),500,605555.4000000358,605555.3000000119,602293.764,602311.5,602327.215,605559.846,8,400,49,,ISIC_0010017.JPG
break,html.Screen,4_98_1,2023-09-11T23:30:13.684Z,,0,,,NaN,,,,,,false,,,,605555.8000000119,605555.6999999881,,605555.5,,605559.846,8,400,,,
break_continue,html.Screen,4_98_2,2023-09-11T23:30:13.684Z,,0,,,NaN,,,,,,false,,,,605556.1000000238,605556,,605556,,605559.846,8,400,,,
sequence,flow.Sequence,4_98,2023-09-11T23:30:13.685Z,,0,,,3228.7850000000326,completion,,,,,false,,,,605556.1000000238,605556,602293.764,602311.4000000358,602327.215,605559.846,8,400,,,
trial,html.Screen,4_99_0,2023-09-11T23:30:18.672Z,,0,2,,4983.8539999880595,response,ISIC_2486088.JPG,20,ISIC_8635853.JPG,ISIC_8635853.JPG,false,0,keypress(z),500,610543.9000000358,610543.6999999881,605543.335,605556.1000000238,605559.846,610559.837,8,400,50,,ISIC_2486088.JPG
break,html.Screen,4_99_1,2023-09-11T23:30:28.673Z,,0,,,10000.381999999983,timeout,,,,,false,,,,620544.4000000358,620543.298,610543.914,610544,610559.837,620560.219,8,400,,,
break_continue,html.Screen,4_99_2,2023-09-11T23:30:30.891Z,,0,,,2188.780999999959,response,,,,,false,continue,keypress(Space),,622762.5,622749,620543.298,620544.5,620560.219,622776.093,8,400,,,
sequence,flow.Sequence,4_99,2023-09-11T23:30:30.891Z,,0,,,17189.15399999998,completion,,,,,false,,,,622762.6000000238,622749,605543.335,605556.1000000238,605559.846,622776.093,8,400,,,
trial,html.Screen,4_100_0,2023-09-11T23:30:35.301Z,,0,3,,4396.4070000000065,response,ISIC_0005686.JPG,20,ISIC_0030110.JPG,ISIC_0005686.JPG,false,1,keypress(m),500,627172.6999999881,627172.5,622760.003,622762.6999999881,622776.093,627179.904,8,400,1,,ISIC_0030110.JPG
break,html.Screen,4_100_1,2023-09-11T23:30:35.302Z,,0,,,NaN,,,,,,false,,,,627173.9000000358,627173.6999999881,,627173,,627179.904,8,400,,,
break_continue,html.Screen,4_100_2,2023-09-11T23:30:35.303Z,,0,,,NaN,,,,,,false,,,,627174.1999999881,627174.1000000238,,627174,,627179.904,8,400,,,
sequence,flow.Sequence,4_100,2023-09-11T23:30:35.303Z,,0,,,4398.007000023848,completion,,,,,false,,,,627174.3000000119,627174.1000000238,622760.003,622762.6999999881,622776.093,627179.904,8,400,,,
trial,html.Screen,4_101_0,2023-09-11T23:30:42.131Z,,0,3,,6822.09600000002,response,ISIC_0059082.JPG,6,ISIC_6447663.JPG,ISIC_6447663.JPG,false,0,keypress(z),500,634002.1999999881,634002,627160.101,627174.3000000119,627179.904,634009.577,8,400,2,,ISIC_0059082.JPG
break,html.Screen,4_101_1,2023-09-11T23:30:42.132Z,,0,,,NaN,,,,,,false,,,,634003.6999999881,634003.5,,634002.4000000358,,634009.577,8,400,,,
break_continue,html.Screen,4_101_2,2023-09-11T23:30:42.132Z,,0,,,NaN,,,,,,false,,,,634004,634003.9000000358,,634003.6999999881,,634009.577,8,400,,,
sequence,flow.Sequence,4_101,2023-09-11T23:30:42.133Z,,0,,,6823.996000035782,completion,,,,,false,,,,634004,634003.9000000358,627160.101,627174.3000000119,627179.904,634009.577,8,400,,,
trial,html.Screen,4_102_0,2023-09-11T23:30:45.932Z,,0,3,,3794.2230000118725,response,ISIC_0027832.JPG,8,ISIC_0010809.JPG,ISIC_0010809.JPG,false,0,keypress(z),500,637804,637803.8000000119,633993.157,634004.1999999881,634009.577,637809.022,8,400,3,,ISIC_0027832.JPG
break,html.Screen,4_102_1,2023-09-11T23:30:45.933Z,,0,,,NaN,,,,,,false,,,,637804.6000000238,637804.4000000358,,637804.1000000238,,637809.022,8,400,,,
break_continue,html.Screen,4_102_2,2023-09-11T23:30:45.933Z,,0,,,NaN,,,,,,false,,,,637804.9000000358,637804.8000000119,,637804.6999999881,,637809.022,8,400,,,
sequence,flow.Sequence,4_102,2023-09-11T23:30:45.933Z,,0,,,3795.2230000118725,completion,,,,,false,,,,637804.9000000358,637804.8000000119,633993.157,634004.1999999881,634009.577,637809.022,8,400,,,
trial,html.Screen,4_103_0,2023-09-11T23:30:50.032Z,,0,3,,4094.677999988082,response,ISIC_1513720.JPG,23,ISIC_0027145.JPG,ISIC_1513720.JPG,false,1,keypress(m),500,641903.9000000358,641903.6999999881,637792.327,637804.9000000358,637809.022,641909.146,8,400,4,,ISIC_0027145.JPG
break,html.Screen,4_103_1,2023-09-11T23:30:50.033Z,,0,,,NaN,,,,,,false,,,,641904.6999999881,641904.4000000358,,641904,,641909.146,8,400,,,
break_continue,html.Screen,4_103_2,2023-09-11T23:30:50.034Z,,0,,,NaN,,,,,,false,,,,641905,641905,,641904.9000000358,,641909.146,8,400,,,
sequence,flow.Sequence,4_103,2023-09-11T23:30:50.034Z,,0,,,4095.978000000003,completion,,,,,false,,,,641905.1999999881,641905,637792.327,637804.9000000358,637809.022,641909.146,8,400,,,
trial,html.Screen,4_104_0,2023-09-11T23:30:55.080Z,,0,3,,5042.454000023892,response,ISIC_5307086.JPG,6,ISIC_0033813.JPG,ISIC_5307086.JPG,false,1,keypress(m),500,646951.8000000119,646951.6000000238,641892.31,641905.1999999881,641909.146,646959.019,8,400,5,,ISIC_0033813.JPG
break,html.Screen,4_104_1,2023-09-11T23:30:55.081Z,,0,,,NaN,,,,,,false,,,,646952.6999999881,646952.3000000119,,646951.9000000358,,646959.019,8,400,,,
break_continue,html.Screen,4_104_2,2023-09-11T23:30:55.081Z,,0,,,NaN,,,,,,false,,,,646953,646952.8000000119,,646952.6999999881,,646959.019,8,400,,,
sequence,flow.Sequence,4_104,2023-09-11T23:30:55.082Z,,0,,,5043.654000011971,completion,,,,,false,,,,646953,646952.8000000119,641892.31,641905.1999999881,641909.146,646959.019,8,400,,,
trial,html.Screen,4_105_0,2023-09-11T23:30:59.424Z,,0,3,,4336.28100001195,response,ISIC_1915890.JPG,9,ISIC_1874480.JPG,ISIC_1874480.JPG,false,0,keypress(z),500,651295.5,651295.3000000119,646942.758,646953.1000000238,646959.019,651309.375,8,400,6,,ISIC_1915890.JPG
break,html.Screen,4_105_1,2023-09-11T23:30:59.425Z,,0,,,NaN,,,,,,false,,,,651296.8000000119,651296.6999999881,,651295.6999999881,,651309.375,8,400,,,
break_continue,html.Screen,4_105_2,2023-09-11T23:30:59.426Z,,0,,,NaN,,,,,,false,,,,651297.1000000238,651297,,651297,,651309.375,8,400,,,
sequence,flow.Sequence,4_105,2023-09-11T23:30:59.426Z,,0,,,4337.981000000029,completion,,,,,false,,,,651297.1999999881,651297,646942.758,646953.1000000238,646959.019,651309.375,8,400,,,
trial,html.Screen,4_106_0,2023-09-11T23:31:03.833Z,,0,3,,4394.925000011921,response,ISIC_0026518.JPG,9,ISIC_5854552.JPG,ISIC_0026518.JPG,false,1,keypress(m),500,655704.5,655704.3000000119,651292.269,651297.3000000119,651309.375,655710.8,8,400,7,,ISIC_5854552.JPG
break,html.Screen,4_106_1,2023-09-11T23:31:03.834Z,,0,,,NaN,,,,,,false,,,,655705.6999999881,655705.5,,655704.6999999881,,655710.8,8,400,,,
break_continue,html.Screen,4_106_2,2023-09-11T23:31:03.834Z,,0,,,NaN,,,,,,false,,,,655705.9000000358,655705.9000000358,,655705.8000000119,,655710.8,8,400,,,
sequence,flow.Sequence,4_106,2023-09-11T23:31:03.834Z,,0,,,4396.525000035763,completion,,,,,false,,,,655706,655705.9000000358,651292.269,651297.3000000119,651309.375,655710.8,8,400,,,
trial,html.Screen,4_107_0,2023-09-11T23:31:08.559Z,,0,3,,4719.699999999953,response,ISIC_0071806.JPG,7,ISIC_5900778.JPG,ISIC_0071806.JPG,false,1,keypress(m),500,660430.6999999881,660430.5,655692.506,655706.1000000238,655710.8,660441.994,8,400,8,,ISIC_5900778.JPG
break,html.Screen,4_107_1,2023-09-11T23:31:08.560Z,,0,,,NaN,,,,,,false,,,,660431.8000000119,660431.6000000238,,660430.8000000119,,660441.994,8,400,,,
break_continue,html.Screen,4_107_2,2023-09-11T23:31:08.560Z,,0,,,NaN,,,,,,false,,,,660432,660431.9000000358,,660431.8000000119,,660441.994,8,400,,,
sequence,flow.Sequence,4_107,2023-09-11T23:31:08.561Z,,0,,,4721.100000035716,completion,,,,,false,,,,660432.1000000238,660431.9000000358,655692.506,655706.1000000238,655710.8,660441.994,8,400,,,
trial,html.Screen,4_108_0,2023-09-11T23:31:13.149Z,,0,3,,4577.705999988131,response,ISIC_4436342.JPG,19,ISIC_3060145.JPG,ISIC_3060145.JPG,false,0,keypress(z),500,665019.9000000358,665019.6999999881,660425.692,660432.1000000238,660441.994,665025.808,8,400,9,,ISIC_4436342.JPG
break,html.Screen,4_108_1,2023-09-11T23:31:13.150Z,,0,,,NaN,,,,,,false,,,,665020.9000000358,665020.6999999881,,665020.1000000238,,665025.808,8,400,,,
break_continue,html.Screen,4_108_2,2023-09-11T23:31:13.150Z,,0,,,NaN,,,,,,false,,,,665021.3000000119,665021.1000000238,,665021,,665025.808,8,400,,,
sequence,flow.Sequence,4_108,2023-09-11T23:31:13.150Z,,0,,,4579.106000023894,completion,,,,,false,,,,665021.4000000358,665021.1000000238,660425.692,660432.1000000238,660441.994,665025.808,8,400,,,
trial,html.Screen,4_109_0,2023-09-11T23:31:18.665Z,,0,3,,5510.792000023881,response,ISIC_2910705.JPG,18,ISIC_0032509.JPG,ISIC_0032509.JPG,false,0,keypress(z),500,670536.9000000358,670536.6000000238,665008.665,665021.4000000358,665025.808,670542.893,8,400,10,,ISIC_2910705.JPG
break,html.Screen,4_109_1,2023-09-11T23:31:18.667Z,,0,,,NaN,,,,,,false,,,,670538.3000000119,670538.1000000238,,670537,,670542.893,8,400,,,
break_continue,html.Screen,4_109_2,2023-09-11T23:31:18.667Z,,0,,,NaN,,,,,,false,,,,670538.6000000238,670538.4000000358,,670538.4000000358,,670542.893,8,400,,,
sequence,flow.Sequence,4_109,2023-09-11T23:31:18.667Z,,0,,,5512.592000035802,completion,,,,,false,,,,670538.6000000238,670538.4000000358,665008.665,665021.4000000358,665025.808,670542.893,8,400,,,
trial,html.Screen,4_110_0,2023-09-11T23:31:22.645Z,,0,3,,3973.407000011881,response,ISIC_7381224.JPG,10,ISIC_0005655.JPG,ISIC_7381224.JPG,false,1,keypress(m),500,674516.6000000238,674516.3000000119,670524.82,670538.6999999881,670542.893,674525.881,8,400,11,,ISIC_0005655.JPG
break,html.Screen,4_110_1,2023-09-11T23:31:22.647Z,,0,,,NaN,,,,,,false,,,,674517.9000000358,674517.8000000119,,674516.6999999881,,674525.881,8,400,,,
break_continue,html.Screen,4_110_2,2023-09-11T23:31:22.647Z,,0,,,NaN,,,,,,false,,,,674518.1999999881,674518.1000000238,,674518,,674525.881,8,400,,,
sequence,flow.Sequence,4_110,2023-09-11T23:31:22.647Z,,0,,,3975.207000023802,completion,,,,,false,,,,674518.3000000119,674518.1000000238,670524.82,670538.6999999881,670542.893,674525.881,8,400,,,
trial,html.Screen,4_111_0,2023-09-11T23:31:27.340Z,,0,3,,4684.818999988027,response,ISIC_1761083.JPG,5,ISIC_0185547.JPG,ISIC_1761083.JPG,false,1,keypress(m),500,679210.9000000358,679210.6999999881,674508.685,674518.4000000358,674525.881,679225.305,8,400,12,,ISIC_0185547.JPG
break,html.Screen,4_111_1,2023-09-11T23:31:27.341Z,,0,,,NaN,,,,,,false,,,,679212.1999999881,679212,,679211.1000000238,,679225.305,8,400,,,
break_continue,html.Screen,4_111_2,2023-09-11T23:31:27.341Z,,0,,,NaN,,,,,,false,,,,679212.4000000358,679212.4000000358,,679212.3000000119,,679225.305,8,400,,,
sequence,flow.Sequence,4_111,2023-09-11T23:31:27.341Z,,0,,,4686.519000035711,completion,,,,,false,,,,679212.6000000238,679212.4000000358,674508.685,674518.3000000119,674525.881,679225.305,8,400,,,
trial,html.Screen,4_112_0,2023-09-11T23:31:31.456Z,,0,3,,4101.694999999949,response,ISIC_2059085.JPG,8,ISIC_6870208.JPG,ISIC_6870208.JPG,false,0,keypress(z),500,683327.1000000238,683327,679208.083,679212.6000000238,679225.305,683341.846,8,400,13,,ISIC_2059085.JPG
break,html.Screen,4_112_1,2023-09-11T23:31:31.457Z,,0,,,NaN,,,,,,false,,,,683328.4000000358,683328.3000000119,,683327.3000000119,,683341.846,8,400,,,
break_continue,html.Screen,4_112_2,2023-09-11T23:31:31.457Z,,0,,,NaN,,,,,,false,,,,683328.6999999881,683328.6000000238,,683328.5,,683341.846,8,400,,,
sequence,flow.Sequence,4_112,2023-09-11T23:31:31.457Z,,0,,,4103.295000023791,completion,,,,,false,,,,683328.6999999881,683328.6000000238,679208.083,679212.6000000238,679225.305,683341.846,8,400,,,
trial,html.Screen,4_113_0,2023-09-11T23:31:35.700Z,,0,3,,4229.754000023822,response,ISIC_6299036.JPG,9,ISIC_1067985.JPG,ISIC_6299036.JPG,false,1,keypress(m),500,687571.8000000119,687571.6000000238,683324.668,683328.8000000119,683341.846,687576.162,8,400,14,,ISIC_1067985.JPG
break,html.Screen,4_113_1,2023-09-11T23:31:35.702Z,,0,,,NaN,,,,,,false,,,,687573.1999999881,687573,,687572,,687576.162,8,400,,,
break_continue,html.Screen,4_113_2,2023-09-11T23:31:35.702Z,,0,,,NaN,,,,,,false,,,,687573.5,687573.5,,687573.3000000119,,687576.162,8,400,,,
sequence,flow.Sequence,4_113,2023-09-11T23:31:35.702Z,,0,,,4231.65399999998,completion,,,,,false,,,,687573.6000000238,687573.5,683324.668,683328.8000000119,683341.846,687576.162,8,400,,,
trial,html.Screen,4_114_0,2023-09-11T23:31:40.097Z,,0,3,,4391.938000023831,response,ISIC_0031028.JPG,6,ISIC_0067318.JPG,ISIC_0067318.JPG,false,0,keypress(z),500,691968.1999999881,691968.1000000238,687558.364,687573.6999999881,687576.162,691974.181,8,400,15,,ISIC_0031028.JPG
break,html.Screen,4_114_1,2023-09-11T23:31:40.098Z,,0,,,NaN,,,,,,false,,,,691969,691968.6999999881,,691968.4000000358,,691974.181,8,400,,,
break_continue,html.Screen,4_114_2,2023-09-11T23:31:40.098Z,,0,,,NaN,,,,,,false,,,,691969.1000000238,691969.1000000238,,691969.1000000238,,691974.181,8,400,,,
sequence,flow.Sequence,4_114,2023-09-11T23:31:40.098Z,,0,,,4392.938000023831,completion,,,,,false,,,,691969.3000000119,691969.1000000238,687558.364,687573.6999999881,687576.162,691974.181,8,400,,,
trial,html.Screen,4_115_0,2023-09-11T23:31:46.221Z,,0,3,,6117.619000011939,response,ISIC_0010503.JPG,12,ISIC_4391909.JPG,ISIC_4391909.JPG,false,0,keypress(z),500,698092,698091.8000000119,691958.723,691969.3000000119,691974.181,698107.915,8,400,16,,ISIC_0010503.JPG
break,html.Screen,4_115_1,2023-09-11T23:31:46.222Z,,0,,,NaN,,,,,,false,,,,698093.1999999881,698093.1000000238,,698092.1000000238,,698107.915,8,400,,,
break_continue,html.Screen,4_115_2,2023-09-11T23:31:46.222Z,,0,,,NaN,,,,,,false,,,,698093.4000000358,698093.4000000358,,698093.3000000119,,698107.915,8,400,,,
sequence,flow.Sequence,4_115,2023-09-11T23:31:46.222Z,,0,,,6119.2190000357805,completion,,,,,false,,,,698093.6000000238,698093.4000000358,691958.723,691969.3000000119,691974.181,698107.915,8,400,,,
trial,html.Screen,4_116_0,2023-09-11T23:31:51.084Z,,0,3,,4847.284999988042,response,ISIC_9529297.JPG,10,ISIC_5709878.JPG,ISIC_5709878.JPG,false,0,keypress(z),500,702955.4000000358,702955.1999999881,698091.346,698093.6000000238,698107.915,702959.721,8,400,17,,ISIC_9529297.JPG
break,html.Screen,4_116_1,2023-09-11T23:31:51.085Z,,0,,,NaN,,,,,,false,,,,702956.8000000119,702956.6999999881,,702955.6000000238,,702959.721,8,400,,,
break_continue,html.Screen,4_116_2,2023-09-11T23:31:51.086Z,,0,,,NaN,,,,,,false,,,,702957.1000000238,702957,,702956.9000000358,,702959.721,8,400,,,
sequence,flow.Sequence,4_116,2023-09-11T23:31:51.086Z,,0,,,4849.084999999963,completion,,,,,false,,,,702957.1999999881,702957,698091.346,698093.6000000238,698107.915,702959.721,8,400,,,
trial,html.Screen,4_117_0,2023-09-11T23:31:54.831Z,,0,3,,3742.0790000119014,response,ISIC_5327271.JPG,11,ISIC_0013997.JPG,ISIC_0013997.JPG,false,0,keypress(z),500,706702,706701.8000000119,702941.506,702957.3000000119,702959.721,706708.299,8,400,18,,ISIC_5327271.JPG
break,html.Screen,4_117_1,2023-09-11T23:31:54.832Z,,0,,,NaN,,,,,,false,,,,706703.3000000119,706703.1999999881,,706702.1999999881,,706708.299,8,400,,,
break_continue,html.Screen,4_117_2,2023-09-11T23:31:54.832Z,,0,,,NaN,,,,,,false,,,,706703.5,706703.5,,706703.4000000358,,706708.299,8,400,,,
sequence,flow.Sequence,4_117,2023-09-11T23:31:54.832Z,,0,,,3743.7789999999804,completion,,,,,false,,,,706703.6999999881,706703.5,702941.506,702957.3000000119,702959.721,706708.299,8,400,,,
trial,html.Screen,4_118_0,2023-09-11T23:32:00.166Z,,0,3,,5328.40099998808,response,ISIC_9239093.JPG,10,ISIC_0071135.JPG,ISIC_0071135.JPG,false,0,keypress(z),500,712037,712036.6999999881,706691.18,706703.8000000119,706708.299,712041.859,8,400,19,,ISIC_9239093.JPG
break,html.Screen,4_118_1,2023-09-11T23:32:00.167Z,,0,,,NaN,,,,,,false,,,,712038.3000000119,712038.1000000238,,712037.1999999881,,712041.859,8,400,,,
break_continue,html.Screen,4_118_2,2023-09-11T23:32:00.167Z,,0,,,NaN,,,,,,false,,,,712038.6000000238,712038.5,,712038.3000000119,,712041.859,8,400,,,
sequence,flow.Sequence,4_118,2023-09-11T23:32:00.167Z,,0,,,5330.201000000001,completion,,,,,false,,,,712038.6000000238,712038.5,706691.18,706703.6999999881,706708.299,712041.859,8,400,,,
trial,html.Screen,4_119_0,2023-09-11T23:32:04.320Z,,0,3,,4149.241000023787,response,ISIC_6692344.JPG,12,ISIC_1076474.JPG,ISIC_6692344.JPG,false,1,keypress(m),500,716191.4000000358,716191.1000000238,712024.326,712038.6999999881,712041.859,716206.92,8,400,20,,ISIC_1076474.JPG
break,html.Screen,4_119_1,2023-09-11T23:32:04.321Z,,0,,,NaN,,,,,,false,,,,716192.8000000119,716192.6000000238,,716191.6000000238,,716206.92,8,400,,,
break_continue,html.Screen,4_119_2,2023-09-11T23:32:04.322Z,,0,,,NaN,,,,,,false,,,,716193.1000000238,716193,,716192.9000000358,,716206.92,8,400,,,
sequence,flow.Sequence,4_119,2023-09-11T23:32:04.322Z,,0,,,4151.140999999945,completion,,,,,false,,,,716193.1999999881,716193,712024.326,712038.6999999881,712041.859,716206.92,8,400,,,
trial,html.Screen,4_120_0,2023-09-11T23:32:07.954Z,,0,3,,3618.380000011879,response,ISIC_7642142.JPG,27,ISIC_9015182.JPG,ISIC_7642142.JPG,false,1,keypress(m),500,719825.5,719825.3000000119,716191.147,716193.3000000119,716206.92,719840.859,8,400,21,,ISIC_9015182.JPG
break,html.Screen,4_120_1,2023-09-11T23:32:07.955Z,,0,,,NaN,,,,,,false,,,,719826.8000000119,719826.6999999881,,719825.6000000238,,719840.859,8,400,,,
break_continue,html.Screen,4_120_2,2023-09-11T23:32:07.956Z,,0,,,NaN,,,,,,false,,,,719827.1000000238,719827,,719826.9000000358,,719840.859,8,400,,,
sequence,flow.Sequence,4_120,2023-09-11T23:32:07.956Z,,0,,,3620.079999999958,completion,,,,,false,,,,719827.3000000119,719827,716191.147,716193.3000000119,716206.92,719840.859,8,400,,,
trial,html.Screen,4_121_0,2023-09-11T23:32:11.635Z,,0,3,,3665.640999999945,response,ISIC_0026278.JPG,9,ISIC_3899323.JPG,ISIC_0026278.JPG,false,1,keypress(m),500,723506.6999999881,723506.5,719825.58,719827.3000000119,719840.859,723540.228,8,400,22,,ISIC_3899323.JPG
break,html.Screen,4_121_1,2023-09-11T23:32:11.637Z,,0,,,NaN,,,,,,false,,,,723508.1999999881,723507.9000000358,,723506.9000000358,,723540.228,8,400,,,
break_continue,html.Screen,4_121_2,2023-09-11T23:32:11.637Z,,0,,,NaN,,,,,,false,,,,723508.4000000358,723508.3000000119,,723508.1999999881,,723540.228,8,400,,,
sequence,flow.Sequence,4_121,2023-09-11T23:32:11.637Z,,0,,,3667.441000011866,completion,,,,,false,,,,723508.5,723508.3000000119,719825.58,719827.3000000119,719840.859,723540.228,8,400,,,
trial,html.Screen,4_122_0,2023-09-11T23:32:16.204Z,,0,3,,4534.971999988076,response,ISIC_6517082.JPG,25,ISIC_6260086.JPG,ISIC_6517082.JPG,false,1,keypress(m),500,728075.4000000358,728075.1999999881,723523.793,723508.6000000238,723540.228,728090.56,8,400,23,,ISIC_6260086.JPG
break,html.Screen,4_122_1,2023-09-11T23:32:16.205Z,,0,,,NaN,,,,,,false,,,,728076.8000000119,728076.6000000238,,728075.6000000238,,728090.56,8,400,,,
break_continue,html.Screen,4_122_2,2023-09-11T23:32:16.206Z,,0,,,NaN,,,,,,false,,,,728077.1000000238,728077,,728076.9000000358,,728090.56,8,400,,,
sequence,flow.Sequence,4_122,2023-09-11T23:32:16.206Z,,0,,,4536.771999999997,completion,,,,,false,,,,728077.1999999881,728077,723523.793,723508.6000000238,723540.228,728090.56,8,400,,,
trial,html.Screen,4_123_0,2023-09-11T23:32:20.485Z,,0,3,,4265.840000035707,response,ISIC_0014782.JPG,12,ISIC_9193127.JPG,ISIC_9193127.JPG,false,0,keypress(z),500,732356.6000000238,732356.4000000358,728073.732,728077.1999999881,728090.56,732373.493,8,400,24,,ISIC_0014782.JPG
break,html.Screen,4_123_1,2023-09-11T23:32:20.487Z,,0,,,NaN,,,,,,false,,,,732358.1999999881,732358,,732356.8000000119,,732373.493,8,400,,,
break_continue,html.Screen,4_123_2,2023-09-11T23:32:20.487Z,,0,,,NaN,,,,,,false,,,,732358.6000000238,732358.5,,732358.3000000119,,732373.493,8,400,,,
sequence,flow.Sequence,4_123,2023-09-11T23:32:20.487Z,,0,,,4267.939999999944,completion,,,,,false,,,,732358.6000000238,732358.5,728073.732,728077.1999999881,728090.56,732373.493,8,400,,,
trial,html.Screen,4_124_0,2023-09-11T23:32:25.660Z,,0,3,,5157.307000011904,response,ISIC_0013874.JPG,25,ISIC_0057593.JPG,ISIC_0057593.JPG,false,0,keypress(z),500,737531.1000000238,737530.8000000119,732342.107,732358.8000000119,732373.493,737553.416,8,400,25,,ISIC_0013874.JPG
break,html.Screen,4_124_1,2023-09-11T23:32:25.661Z,,0,,,NaN,,,,,,false,,,,737532.4000000358,737532.1999999881,,737531.1999999881,,737553.416,8,400,,,
break_continue,html.Screen,4_124_2,2023-09-11T23:32:25.661Z,,0,,,NaN,,,,,,false,,,,737532.6999999881,737532.6000000238,,737532.5,,737553.416,8,400,,,
sequence,flow.Sequence,4_124,2023-09-11T23:32:25.661Z,,0,,,5159.107000023825,completion,,,,,false,,,,737532.8000000119,737532.6000000238,732342.107,732358.6999999881,732373.493,737553.416,8,400,,,
trial,html.Screen,4_125_0,2023-09-11T23:32:29.619Z,,0,3,,3936.9840000357945,response,ISIC_0025127.JPG,20,ISIC_6737771.JPG,ISIC_0025127.JPG,false,1,keypress(m),500,741490.6999999881,741490.4000000358,737525.328,737532.8000000119,737553.416,741506.231,8,400,26,,ISIC_6737771.JPG
break,html.Screen,4_125_1,2023-09-11T23:32:29.621Z,,0,,,NaN,,,,,,false,,,,741492.1000000238,741491.9000000358,,741490.9000000358,,741506.231,8,400,,,
break_continue,html.Screen,4_125_2,2023-09-11T23:32:29.621Z,,0,,,NaN,,,,,,false,,,,741492.4000000358,741492.3000000119,,741492.1999999881,,741506.231,8,400,,,
