sender,sender_type,sender_id,timestamp,meta,,blockNo,condition,duration,ended_on,img_left,img_reveal,img_right,loser,practice,response,response_action,selection_duration,time_commit,time_end,time_render,time_run,time_show,time_switch,total_blocks,total_trials,trialNo,url,winner
informed_consent,html.Screen,0,2023-11-01T16:51:58.618Z,"{""labjs_version"":""20.2.4"",""labjs_build"":{""flavor"":""production"",""commit"":""f5b4a49f956347addd546a832a3327688c2c0fef""},""location"":""https://run.pavlovia.org/MurrayBennett/melanoma-2afc/?participant=66146&platform=sona"",""userAgent"":""Mozilla/5.0 (Macintosh; Intel Mac OS X 10_15_7) AppleWebKit/537.36 (KHTML, like Gecko) Chrome/118.0.0.0 Safari/537.36"",""platform"":""MacIntel"",""language"":""en-US"",""locale"":""en-US"",""timeZone"":""America/Chicago"",""timezoneOffset"":300,""screen_width"":1440,""screen_height"":900,""scroll_width"":1440,""scroll_height"":652,""window_innerWidth"":1440,""window_innerHeight"":700,""devicePixelRatio"":2}",,,,145783.6330000011,response,,,,,,consent,click button,,149229.00000000186,149224.20000000112,3423.901,3438.0999999996275,3440.567,149262.022,,,,"{""participant"":""66146"",""platform"":""sona""}",
Welcome,html.Screen,1,2023-11-01T16:55:43.476Z,,,,colourful,224814.77799999889,response,,,,,,continue,click button,,374080.2000000011,374076.7999999989,149212.024,149229.40000000037,149262.022,374087.384,,,,,
trial,html.Screen,2_0_0,2023-11-01T16:55:51.341Z,,0,0,,7856.816000001098,response,ISIC_0063388.JPG,,ISIC_0025593.JPG,ISIC_0063388.JPG,true,1,keypress(m),500,381944.5999999996,381944.2000000011,374070.718,374080.50000000186,374087.384,381953.736,1,6,1,,ISIC_0025593.JPG
sequence,flow.Sequence,2_0,2023-11-01T16:55:51.341Z,,0,,,7856.816000001098,completion,,,,,true,,,,381945.2000000011,381944.2000000011,374070.718,374080.4000000004,374087.384,381953.736,1,6,,,
trial,html.Screen,2_1_0,2023-11-01T16:56:00.483Z,,0,0,,9132.664000000397,response,ISIC_1309015.JPG,,ISIC_0028178.JPG,ISIC_1309015.JPG,true,1,keypress(m),500,391086.7000000011,391086.4000000004,381937.07,381945.4000000004,381953.736,391092.467,1,6,2,,ISIC_0028178.JPG
sequence,flow.Sequence,2_1,2023-11-01T16:56:00.483Z,,0,,,9132.664000000397,completion,,,,,true,,,,391087.00000000186,391086.4000000004,381937.07,381945.4000000004,381953.736,391092.467,1,6,,,
trial,html.Screen,2_2_0,2023-11-01T16:56:07.929Z,,0,0,,7439.832999998878,response,ISIC_3314853.JPG,,ISIC_0031128.JPG,ISIC_0031128.JPG,true,0,keypress(z),500,398532.5999999996,398532.2999999989,391075.801,391087.2999999989,391092.467,398543.471,1,6,3,,ISIC_3314853.JPG
sequence,flow.Sequence,2_2,2023-11-01T16:56:07.930Z,,0,,,7439.832999998878,completion,,,,,true,,,,398533.00000000186,398532.2999999989,391075.801,391087.2000000011,391092.467,398543.471,1,6,,,
trial,html.Screen,2_3_0,2023-11-01T16:56:16.337Z,,0,0,,8396.729000001098,response,ISIC_8980141.JPG,,ISIC_0031612.JPG,ISIC_8980141.JPG,true,1,keypress(m),500,406940.50000000186,406940.2000000011,398526.805,398533.2000000011,398543.471,406943.135,1,6,4,,ISIC_0031612.JPG
sequence,flow.Sequence,2_3,2023-11-01T16:56:16.338Z,,0,,,8396.729000001098,completion,,,,,true,,,,406941.0999999996,406940.2000000011,398526.805,398533.2000000011,398543.471,406943.135,1,6,,,
trial,html.Screen,2_4_0,2023-11-01T16:56:20.852Z,,0,0,,4511.765000000363,response,ISIC_1197737.JPG,,ISIC_9721604.JPG,ISIC_9721604.JPG,true,0,keypress(z),500,411455.2999999989,411454.9000000004,406926.469,406941.4000000004,406943.135,411458.307,1,6,5,,ISIC_1197737.JPG
sequence,flow.Sequence,2_4,2023-11-01T16:56:20.853Z,,0,,,4511.765000000363,completion,,,,,true,,,,411455.7000000011,411454.9000000004,406926.469,406941.2999999989,406943.135,411458.307,1,6,,,
trial,html.Screen,2_5_0,2023-11-01T16:56:27.722Z,,0,0,,6865.893000001146,response,ISIC_0025346.JPG,,ISIC_0010681.JPG,ISIC_0010681.JPG,true,0,keypress(z),500,418324.5999999996,418324.2000000011,411441.641,411455.9000000004,411458.307,418341.365,1,6,6,,ISIC_0025346.JPG
sequence,flow.Sequence,2_5,2023-11-01T16:56:27.722Z,,0,,,6865.893000001146,completion,,,,,true,,,,418325.00000000186,418324.2000000011,411441.641,411455.9000000004,411458.307,418341.365,1,6,,,
loop,flow.Loop,2,2023-11-01T16:56:27.723Z,,,,,44236.8160000011,completion,,,,,true,,,,418325.2999999989,418324.2000000011,374070.718,374080.4000000004,374087.384,418341.365,1,6,,,
exp_instructions,html.Screen,3,2023-11-01T16:56:57.519Z,,,,,29772.535000000382,response,,,,,,continue,keypress(Space),,448121.0999999996,448113.9000000004,418324.699,418325.4000000004,418341.365,448127.896,,,,,
trial,html.Screen,4_0_0,2023-11-01T16:57:09.022Z,,0,1,,11521.309999999998,timeout,ISIC_0028114.JPG,6,ISIC_0056406.JPG,,false,,,500,459623.0999999996,459622.7999999989,448111.23,448121.50000000186,448127.896,459649.206,8,400,1,,
break,html.Screen,4_0_1,2023-11-01T16:57:09.023Z,,0,,,NaN,,,,,,false,,,,459624.2999999989,459624.00000000186,,459623.2999999989,,459649.206,8,400,,,
break_continue,html.Screen,4_0_2,2023-11-01T16:57:09.024Z,,0,,,NaN,,,,,,false,,,,459625.0999999996,459624.7999999989,,459624.5999999996,,459649.206,8,400,,,
sequence,flow.Sequence,4_0,2023-11-01T16:57:09.024Z,,0,,,11496.903999998874,completion,,,,,false,,,,459625.2999999989,459624.7999999989,448111.23,448121.50000000186,448127.896,459649.206,8,400,,,
trial,html.Screen,4_1_0,2023-11-01T16:57:14.603Z,,0,1,,5554.994000001112,response,ISIC_0645454.JPG,8,ISIC_4879187.JPG,ISIC_0645454.JPG,false,1,keypress(m),500,465204.5999999996,465204.2000000011,459632.54,459625.2999999989,459649.206,465215.65,8,400,2,,ISIC_4879187.JPG
break,html.Screen,4_1_1,2023-11-01T16:57:14.604Z,,0,,,NaN,,,,,,false,,,,465205.5999999996,465205.4000000004,,465204.7999999989,,465215.65,8,400,,,
break_continue,html.Screen,4_1_2,2023-11-01T16:57:14.605Z,,0,,,NaN,,,,,,false,,,,465206.0999999996,465206.00000000186,,465205.7000000011,,465215.65,8,400,,,
sequence,flow.Sequence,4_1,2023-11-01T16:57:14.605Z,,0,,,5556.794000001857,completion,,,,,false,,,,465206.2999999989,465206.00000000186,459632.54,459625.2999999989,459649.206,465215.65,8,400,,,
trial,html.Screen,4_2_0,2023-11-01T16:57:19.301Z,,0,1,,4685.850000001839,response,ISIC_0030194.JPG,6,ISIC_7835257.JPG,ISIC_7835257.JPG,false,0,keypress(z),500,469901.7000000011,469901.50000000186,465198.984,465206.50000000186,465215.65,469909.456,8,400,3,,ISIC_0030194.JPG
break,html.Screen,4_2_1,2023-11-01T16:57:19.302Z,,0,,,NaN,,,,,,false,,,,469903.00000000186,469902.7000000011,,469902.00000000186,,469909.456,8,400,,,
break_continue,html.Screen,4_2_2,2023-11-01T16:57:19.302Z,,0,,,NaN,,,,,,false,,,,469903.50000000186,469903.4000000004,,469903.2000000011,,469909.456,8,400,,,
sequence,flow.Sequence,4_2,2023-11-01T16:57:19.303Z,,0,,,4687.750000000349,completion,,,,,false,,,,469903.7000000011,469903.4000000004,465198.984,465206.50000000186,465215.65,469909.456,8,400,,,
trial,html.Screen,4_3_0,2023-11-01T16:57:23.355Z,,0,1,,4046.744000001112,response,ISIC_5362038.JPG,6,ISIC_0013984.JPG,ISIC_5362038.JPG,false,1,keypress(m),500,473956.50000000186,473956.2000000011,469892.79,469903.9000000004,469909.456,473959.294,8,400,4,,ISIC_0013984.JPG
break,html.Screen,4_3_1,2023-11-01T16:57:23.357Z,,0,,,NaN,,,,,,false,,,,473957.5999999996,473957.2999999989,,473956.7000000011,,473959.294,8,400,,,
break_continue,html.Screen,4_3_2,2023-11-01T16:57:23.357Z,,0,,,NaN,,,,,,false,,,,473958.0999999996,473958.00000000186,,473957.7000000011,,473959.294,8,400,,,
sequence,flow.Sequence,4_3,2023-11-01T16:57:23.357Z,,0,,,4048.544000001857,completion,,,,,false,,,,473958.2999999989,473958.00000000186,469892.79,469903.9000000004,469909.456,473959.294,8,400,,,
trial,html.Screen,4_4_0,2023-11-01T16:57:28.177Z,,0,1,,4818.305999999633,response,ISIC_8296881.JPG,7,ISIC_7562175.JPG,ISIC_7562175.JPG,false,0,keypress(z),500,478777.9000000004,478777.5999999996,473942.628,473958.4000000004,473959.294,478792.434,8,400,5,,ISIC_8296881.JPG
break,html.Screen,4_4_1,2023-11-01T16:57:28.178Z,,0,,,NaN,,,,,,false,,,,478779.00000000186,478778.7999999989,,478778.2000000011,,478792.434,8,400,,,
break_continue,html.Screen,4_4_2,2023-11-01T16:57:28.179Z,,0,,,NaN,,,,,,false,,,,478779.50000000186,478779.50000000186,,478779.2000000011,,478792.434,8,400,,,
sequence,flow.Sequence,4_4,2023-11-01T16:57:28.179Z,,0,,,4820.206000001868,completion,,,,,false,,,,478779.7999999989,478779.50000000186,473942.628,473958.2999999989,473959.294,478792.434,8,400,,,
trial,html.Screen,4_5_0,2023-11-01T16:57:32.518Z,,0,1,,4326.566000001854,response,ISIC_0012069.JPG,6,ISIC_1366765.JPG,ISIC_1366765.JPG,false,0,keypress(z),500,483119.2999999989,483119.00000000186,478775.768,478779.9000000004,478792.434,483130.046,8,400,6,,ISIC_0012069.JPG
break,html.Screen,4_5_1,2023-11-01T16:57:32.520Z,,0,,,NaN,,,,,,false,,,,483120.2999999989,483120.00000000186,,483119.50000000186,,483130.046,8,400,,,
break_continue,html.Screen,4_5_2,2023-11-01T16:57:32.520Z,,0,,,NaN,,,,,,false,,,,483120.9000000004,483120.7000000011,,483120.50000000186,,483130.046,8,400,,,
sequence,flow.Sequence,4_5,2023-11-01T16:57:32.520Z,,0,,,4328.266000001109,completion,,,,,false,,,,483121.0999999996,483120.7000000011,478775.768,478779.9000000004,478792.434,483130.046,8,400,,,
trial,html.Screen,4_6_0,2023-11-01T16:57:38.157Z,,0,1,,5627.45400000189,response,ISIC_0030391.JPG,9,ISIC_0026266.JPG,ISIC_0030391.JPG,false,1,keypress(m),500,488757.7000000011,488757.50000000186,483113.38,483121.2999999989,483130.046,488779.82,8,400,7,,ISIC_0026266.JPG
break,html.Screen,4_6_1,2023-11-01T16:57:38.158Z,,0,,,NaN,,,,,,false,,,,488758.7999999989,488758.50000000186,,488757.9000000004,,488779.82,8,400,,,
break_continue,html.Screen,4_6_2,2023-11-01T16:57:38.159Z,,0,,,NaN,,,,,,false,,,,488759.2999999989,488759.2000000011,,488759.00000000186,,488779.82,8,400,,,
sequence,flow.Sequence,4_6,2023-11-01T16:57:38.159Z,,0,,,5629.154000001145,completion,,,,,false,,,,488759.50000000186,488759.2000000011,483113.38,483121.2000000011,483130.046,488779.82,8,400,,,
trial,html.Screen,4_7_0,2023-11-01T16:57:43.322Z,,0,1,,5142.680000001856,response,ISIC_7110531.JPG,8,ISIC_0059929.JPG,ISIC_7110531.JPG,false,1,keypress(m),500,493922.7999999989,493922.50000000186,488763.154,488759.7000000011,488779.82,493927.43,8,400,8,,ISIC_0059929.JPG
break,html.Screen,4_7_1,2023-11-01T16:57:43.323Z,,0,,,NaN,,,,,,false,,,,493923.7999999989,493923.50000000186,,493923.00000000186,,493927.43,8,400,,,
break_continue,html.Screen,4_7_2,2023-11-01T16:57:43.324Z,,0,,,NaN,,,,,,false,,,,493924.4000000004,493924.2999999989,,493924.00000000186,,493927.43,8,400,,,
sequence,flow.Sequence,4_7,2023-11-01T16:57:43.324Z,,0,,,5144.479999998875,completion,,,,,false,,,,493924.5999999996,493924.2999999989,488763.154,488759.7000000011,488779.82,493927.43,8,400,,,
trial,html.Screen,4_8_0,2023-11-01T16:57:47.233Z,,0,1,,3905.4700000003795,response,ISIC_0015264.JPG,5,ISIC_0058206.JPG,ISIC_0058206.JPG,false,0,keypress(z),500,497833.2000000011,497832.9000000004,493910.764,493924.9000000004,493927.43,497843.94,8,400,9,,ISIC_0015264.JPG
break,html.Screen,4_8_1,2023-11-01T16:57:47.234Z,,0,,,NaN,,,,,,false,,,,497834.4000000004,497834.00000000186,,497833.4000000004,,497843.94,8,400,,,
break_continue,html.Screen,4_8_2,2023-11-01T16:57:47.235Z,,0,,,NaN,,,,,,false,,,,497834.9000000004,497834.7999999989,,497834.50000000186,,497843.94,8,400,,,
sequence,flow.Sequence,4_8,2023-11-01T16:57:47.235Z,,0,,,3907.3699999988894,completion,,,,,false,,,,497835.0999999996,497834.7999999989,493910.764,493924.7999999989,493927.43,497843.94,8,400,,,
trial,html.Screen,4_9_0,2023-11-01T16:57:50.535Z,,0,1,,3291.0600000018603,response,ISIC_7059794.JPG,7,ISIC_0011684.JPG,ISIC_7059794.JPG,false,1,keypress(m),500,501135.4000000004,501135.00000000186,497827.274,497835.2999999989,497843.94,501141.598,8,400,10,,ISIC_0011684.JPG
break,html.Screen,4_9_1,2023-11-01T16:57:50.536Z,,0,,,NaN,,,,,,false,,,,501136.50000000186,501136.2000000011,,501135.7000000011,,501141.598,8,400,,,
break_continue,html.Screen,4_9_2,2023-11-01T16:57:50.537Z,,0,,,NaN,,,,,,false,,,,501137.00000000186,501136.9000000004,,501136.7000000011,,501141.598,8,400,,,
sequence,flow.Sequence,4_9,2023-11-01T16:57:50.537Z,,0,,,3292.96000000037,completion,,,,,false,,,,501137.2000000011,501136.9000000004,497827.274,497835.2000000011,497843.94,501141.598,8,400,,,
trial,html.Screen,4_10_0,2023-11-01T16:57:54.700Z,,0,1,,4157.802000000374,response,ISIC_5442834.JPG,6,ISIC_0004099.JPG,ISIC_0004099.JPG,false,0,keypress(z),500,505299.7000000011,505299.4000000004,501124.932,501137.4000000004,501141.598,505308.098,8,400,11,,ISIC_5442834.JPG
break,html.Screen,4_10_1,2023-11-01T16:57:54.701Z,,0,,,NaN,,,,,,false,,,,505300.7999999989,505300.5999999996,,505300.00000000186,,505308.098,8,400,,,
break_continue,html.Screen,4_10_2,2023-11-01T16:57:54.701Z,,0,,,NaN,,,,,,false,,,,505301.4000000004,505301.2000000011,,505301.00000000186,,505308.098,8,400,,,
sequence,flow.Sequence,4_10,2023-11-01T16:57:54.702Z,,0,,,4159.602000001119,completion,,,,,false,,,,505301.5999999996,505301.2000000011,501124.932,501137.4000000004,501141.598,505308.098,8,400,,,
trial,html.Screen,4_11_0,2023-11-01T16:57:59.063Z,,0,1,,4354.701999998884,response,ISIC_8296881.JPG,7,ISIC_2445475.JPG,ISIC_2445475.JPG,false,0,keypress(z),500,509663.0999999996,509662.7999999989,505291.432,505301.7000000011,505308.098,509674.59,8,400,12,,ISIC_8296881.JPG
break,html.Screen,4_11_1,2023-11-01T16:57:59.064Z,,0,,,NaN,,,,,,false,,,,509664.2999999989,509663.9000000004,,509663.2999999989,,509674.59,8,400,,,
break_continue,html.Screen,4_11_2,2023-11-01T16:57:59.065Z,,0,,,NaN,,,,,,false,,,,509664.7999999989,509664.7000000011,,509664.4000000004,,509674.59,8,400,,,
sequence,flow.Sequence,4_11,2023-11-01T16:57:59.065Z,,0,,,4356.602000001119,completion,,,,,false,,,,509665.00000000186,509664.7000000011,505291.432,505301.7000000011,505308.098,509674.59,8,400,,,
trial,html.Screen,4_12_0,2023-11-01T16:58:05.341Z,,0,1,,6265.709999998857,response,ISIC_2256461.JPG,6,ISIC_8624186.JPG,ISIC_2256461.JPG,false,1,keypress(m),500,515940.50000000186,515940.2999999989,509657.924,509665.0999999996,509674.59,515948.117,8,400,13,,ISIC_8624186.JPG
break,html.Screen,4_12_1,2023-11-01T16:58:05.342Z,,0,,,NaN,,,,,,false,,,,515941.5999999996,515941.2999999989,,515940.7999999989,,515948.117,8,400,,,
break_continue,html.Screen,4_12_2,2023-11-01T16:58:05.342Z,,0,,,NaN,,,,,,false,,,,515942.2000000011,515942.00000000186,,515941.7999999989,,515948.117,8,400,,,
sequence,flow.Sequence,4_12,2023-11-01T16:58:05.343Z,,0,,,6267.410000001837,completion,,,,,false,,,,515942.4000000004,515942.00000000186,509657.924,509665.0999999996,509674.59,515948.117,8,400,,,
trial,html.Screen,4_13_0,2023-11-01T16:58:09.042Z,,0,1,,3692.783000000345,response,ISIC_0031745.JPG,6,ISIC_0641480.JPG,ISIC_0641480.JPG,false,0,keypress(z),500,519641.2000000011,519640.9000000004,515931.451,515942.50000000186,515948.117,519664.635,8,400,14,,ISIC_0031745.JPG
break,html.Screen,4_13_1,2023-11-01T16:58:09.043Z,,0,,,NaN,,,,,,false,,,,519642.50000000186,519642.2000000011,,519641.5999999996,,519664.635,8,400,,,
break_continue,html.Screen,4_13_2,2023-11-01T16:58:09.044Z,,0,,,NaN,,,,,,false,,,,519643.5999999996,519643.4000000004,,519642.7000000011,,519664.635,8,400,,,
sequence,flow.Sequence,4_13,2023-11-01T16:58:09.044Z,,0,,,3695.283000000345,completion,,,,,false,,,,519644.00000000186,519643.4000000004,515931.451,515942.50000000186,515948.117,519664.635,8,400,,,
trial,html.Screen,4_14_0,2023-11-01T16:58:13.071Z,,0,1,,4005.5650000011083,response,ISIC_0031357.JPG,14,ISIC_8865595.JPG,ISIC_8865595.JPG,false,0,keypress(z),500,523670.4000000004,523670.2000000011,519647.969,519644.2999999989,519664.635,523686.673,8,400,15,,ISIC_0031357.JPG
break,html.Screen,4_14_1,2023-11-01T16:58:13.071Z,,0,,,NaN,,,,,,false,,,,523670.7999999989,523670.7000000011,,523670.50000000186,,523686.673,8,400,,,
break_continue,html.Screen,4_14_2,2023-11-01T16:58:13.071Z,,0,,,NaN,,,,,,false,,,,523671.00000000186,523670.9000000004,,523670.9000000004,,523686.673,8,400,,,
sequence,flow.Sequence,4_14,2023-11-01T16:58:13.072Z,,0,,,4006.265000000363,completion,,,,,false,,,,523671.0999999996,523670.9000000004,519647.969,519644.2999999989,519664.635,523686.673,8,400,,,
trial,html.Screen,4_15_0,2023-11-01T16:58:18.866Z,,0,1,,5778.126999998873,response,ISIC_1508215.JPG,6,ISIC_8064866.JPG,ISIC_1508215.JPG,false,1,keypress(m),500,529465.2000000011,529464.7999999989,523670.007,523671.2000000011,523686.673,529469.775,8,400,16,,ISIC_8064866.JPG
break,html.Screen,4_15_1,2023-11-01T16:58:18.867Z,,0,,,NaN,,,,,,false,,,,529466.7000000011,529466.0999999996,,529465.5000000019,,529469.775,8,400,,,
break_continue,html.Screen,4_15_2,2023-11-01T16:58:18.868Z,,0,,,NaN,,,,,,false,,,,529467.5000000019,529467.2999999989,,529467.0000000019,,529469.775,8,400,,,
sequence,flow.Sequence,4_15,2023-11-01T16:58:18.869Z,,0,,,5780.626999998873,completion,,,,,false,,,,529468.0000000019,529467.2999999989,523670.007,523671.2000000011,523686.673,529469.775,8,400,,,
trial,html.Screen,4_16_0,2023-11-01T16:58:22.527Z,,0,1,,3656.7250000018394,response,ISIC_7100755.JPG,8,ISIC_9943579.JPG,ISIC_9943579.JPG,false,0,keypress(z),500,533126.7000000011,533126.5000000019,529453.109,529468.2999999989,529469.775,533132.853,8,400,17,,ISIC_7100755.JPG
break,html.Screen,4_16_1,2023-11-01T16:58:22.529Z,,0,,,NaN,,,,,,false,,,,533127.9000000004,533127.5000000019,,533126.9000000004,,533132.853,8,400,,,
break_continue,html.Screen,4_16_2,2023-11-01T16:58:22.529Z,,0,,,NaN,,,,,,false,,,,533128.4000000004,533128.2000000011,,533128.0000000019,,533132.853,8,400,,,
sequence,flow.Sequence,4_16,2023-11-01T16:58:22.529Z,,0,,,3658.4250000010943,completion,,,,,false,,,,533128.5000000019,533128.2000000011,529453.109,529468.2000000011,529469.775,533132.853,8,400,,,
trial,html.Screen,4_17_0,2023-11-01T16:58:26.452Z,,0,1,,3917.7469999996247,response,ISIC_0011349.JPG,8,ISIC_0026943.JPG,ISIC_0026943.JPG,false,0,keypress(z),500,537050.7999999989,537050.5999999996,533116.187,533128.7000000011,533132.853,537066.029,8,400,18,,ISIC_0011349.JPG
break,html.Screen,4_17_1,2023-11-01T16:58:26.452Z,,0,,,NaN,,,,,,false,,,,537051.2999999989,537051.2000000011,,537050.9000000004,,537066.029,8,400,,,
break_continue,html.Screen,4_17_2,2023-11-01T16:58:26.452Z,,0,,,NaN,,,,,,false,,,,537051.5999999996,537051.5000000019,,537051.4000000004,,537066.029,8,400,,,
sequence,flow.Sequence,4_17,2023-11-01T16:58:26.452Z,,0,,,3918.64700000186,completion,,,,,false,,,,537051.7000000011,537051.5000000019,533116.187,533128.7000000011,533132.853,537066.029,8,400,,,
trial,html.Screen,4_18_0,2023-11-01T16:58:29.773Z,,0,1,,3306.070999999647,response,ISIC_0281291.JPG,7,ISIC_7960321.JPG,ISIC_0281291.JPG,false,1,keypress(m),500,540372.4000000004,540372.0999999996,537049.363,537051.7000000011,537066.029,540382.563,8,400,19,,ISIC_7960321.JPG
break,html.Screen,4_18_1,2023-11-01T16:58:29.774Z,,0,,,NaN,,,,,,false,,,,540373.2999999989,540373.0999999996,,540372.5999999996,,540382.563,8,400,,,
break_continue,html.Screen,4_18_2,2023-11-01T16:58:29.775Z,,0,,,NaN,,,,,,false,,,,540373.9000000004,540373.7000000011,,540373.5000000019,,540382.563,8,400,,,
sequence,flow.Sequence,4_18,2023-11-01T16:58:29.775Z,,0,,,3307.671000001137,completion,,,,,false,,,,540374.0999999996,540373.7000000011,537049.363,537051.7000000011,537066.029,540382.563,8,400,,,
trial,html.Screen,4_19_0,2023-11-01T16:58:34.456Z,,0,1,,4672.236999998917,response,ISIC_0064863.JPG,6,ISIC_0026347.JPG,ISIC_0026347.JPG,false,0,keypress(z),500,545055.0999999996,545054.7999999989,540365.897,540374.2000000011,540382.563,545063.789,8,400,20,,ISIC_0064863.JPG
break,html.Screen,4_19_1,2023-11-01T16:58:34.457Z,,0,,,NaN,,,,,,false,,,,545056.2000000011,545056.0000000019,,545055.2999999989,,545063.789,8,400,,,
break_continue,html.Screen,4_19_2,2023-11-01T16:58:34.458Z,,0,,,NaN,,,,,,false,,,,545056.7999999989,545056.5999999996,,545056.5000000019,,545063.789,8,400,,,
sequence,flow.Sequence,4_19,2023-11-01T16:58:34.458Z,,0,,,4674.036999999662,completion,,,,,false,,,,545057.0000000019,545056.5999999996,540365.897,540374.0999999996,540382.563,545063.789,8,400,,,
trial,html.Screen,4_20_0,2023-11-01T16:58:38.836Z,,0,1,,4371.211000001873,response,ISIC_0011729.JPG,6,ISIC_0069274.JPG,ISIC_0069274.JPG,false,0,keypress(z),500,549435.2000000011,549435.0000000019,545047.123,545057.2000000011,545063.789,549446.947,8,400,21,,ISIC_0011729.JPG
break,html.Screen,4_20_1,2023-11-01T16:58:38.838Z,,0,,,NaN,,,,,,false,,,,549436.4000000004,549436.0999999996,,549435.5000000019,,549446.947,8,400,,,
break_continue,html.Screen,4_20_2,2023-11-01T16:58:38.838Z,,0,,,NaN,,,,,,false,,,,549437.0000000019,549436.7999999989,,549436.5999999996,,549446.947,8,400,,,
sequence,flow.Sequence,4_20,2023-11-01T16:58:38.838Z,,0,,,4373.010999998893,completion,,,,,false,,,,549437.0999999996,549436.7999999989,545047.123,545057.0999999996,545063.789,549446.947,8,400,,,
trial,html.Screen,4_21_0,2023-11-01T16:58:44.638Z,,0,1,,5789.753000001074,response,ISIC_7797853.JPG,9,ISIC_6108795.JPG,ISIC_7797853.JPG,false,1,keypress(m),500,555236.9000000004,555236.7000000011,549430.281,549437.2999999989,549446.947,555242.98,8,400,22,,ISIC_6108795.JPG
break,html.Screen,4_21_1,2023-11-01T16:58:44.640Z,,0,,,NaN,,,,,,false,,,,555238.2000000011,555237.7999999989,,555237.0999999996,,555242.98,8,400,,,
break_continue,html.Screen,4_21_2,2023-11-01T16:58:44.640Z,,0,,,NaN,,,,,,false,,,,555238.7000000011,555238.5999999996,,555238.4000000004,,555242.98,8,400,,,
sequence,flow.Sequence,4_21,2023-11-01T16:58:44.640Z,,0,,,5791.652999999584,completion,,,,,false,,,,555239.0999999996,555238.5999999996,549430.281,549437.2999999989,549446.947,555242.98,8,400,,,
trial,html.Screen,4_22_0,2023-11-01T16:58:48.403Z,,0,1,,3758.5200000018813,response,ISIC_0046596.JPG,5,ISIC_0028420.JPG,ISIC_0028420.JPG,false,0,keypress(z),500,559001.7999999989,559001.5000000019,555226.314,555239.2999999989,555242.98,559009.496,8,400,23,,ISIC_0046596.JPG
break,html.Screen,4_22_1,2023-11-01T16:58:48.404Z,,0,,,NaN,,,,,,false,,,,559002.9000000004,559002.5999999996,,559002.0999999996,,559009.496,8,400,,,
break_continue,html.Screen,4_22_2,2023-11-01T16:58:48.405Z,,0,,,NaN,,,,,,false,,,,559003.4000000004,559003.2999999989,,559003.0999999996,,559009.496,8,400,,,
sequence,flow.Sequence,4_22,2023-11-01T16:58:48.405Z,,0,,,3760.319999998901,completion,,,,,false,,,,559003.5999999996,559003.2999999989,555226.314,555239.2000000011,555242.98,559009.496,8,400,,,
trial,html.Screen,4_23_0,2023-11-01T16:58:53.737Z,,0,1,,5325.40400000033,response,ISIC_0071904.JPG,6,ISIC_6741865.JPG,ISIC_6741865.JPG,false,0,keypress(z),500,564335.0999999996,564334.9000000004,558992.83,559003.7000000011,559009.496,564342.616,8,400,24,,ISIC_0071904.JPG
break,html.Screen,4_23_1,2023-11-01T16:58:53.738Z,,0,,,NaN,,,,,,false,,,,564336.2999999989,564336.0000000019,,564335.4000000004,,564342.616,8,400,,,
break_continue,html.Screen,4_23_2,2023-11-01T16:58:53.738Z,,0,,,NaN,,,,,,false,,,,564336.7999999989,564336.5999999996,,564336.4000000004,,564342.616,8,400,,,
sequence,flow.Sequence,4_23,2023-11-01T16:58:53.739Z,,0,,,5327.103999999585,completion,,,,,false,,,,564337.0000000019,564336.5999999996,558992.83,559003.7000000011,559009.496,564342.616,8,400,,,
trial,html.Screen,4_24_0,2023-11-01T16:58:57.569Z,,0,1,,3824.2840000003343,response,ISIC_0034237.JPG,8,ISIC_0024853.JPG,ISIC_0024853.JPG,false,0,keypress(z),500,568167.2000000011,568166.9000000004,564325.95,564337.0999999996,564342.616,568168.642,8,400,25,,ISIC_0034237.JPG
break,html.Screen,4_24_1,2023-11-01T16:58:57.570Z,,0,,,NaN,,,,,,false,,,,568168.2999999989,568168.0000000019,,568167.4000000004,,568168.642,8,400,,,
break_continue,html.Screen,4_24_2,2023-11-01T16:58:57.572Z,,0,,,NaN,,,,,,false,,,,568170.0000000019,568168.5999999996,,568168.5000000019,,568168.642,8,400,,,
sequence,flow.Sequence,4_24,2023-11-01T16:58:57.572Z,,0,,,3825.9839999995893,completion,,,,,false,,,,568170.2999999989,568168.5999999996,564325.95,564337.0999999996,564342.616,568168.642,8,400,,,
trial,html.Screen,4_25_0,2023-11-01T16:59:01.929Z,,0,1,,4358.25800000038,response,ISIC_8584748.JPG,8,ISIC_0029150.JPG,ISIC_0029150.JPG,false,0,keypress(z),500,572527.2000000011,572526.9000000004,568151.976,568170.5000000019,568168.642,572535.134,8,400,26,,ISIC_8584748.JPG
break,html.Screen,4_25_1,2023-11-01T16:59:01.930Z,,0,,,NaN,,,,,,false,,,,572528.2999999989,572528.0000000019,,572527.4000000004,,572535.134,8,400,,,
break_continue,html.Screen,4_25_2,2023-11-01T16:59:01.931Z,,0,,,NaN,,,,,,false,,,,572528.9000000004,572528.7999999989,,572528.5999999996,,572535.134,8,400,,,
sequence,flow.Sequence,4_25,2023-11-01T16:59:01.931Z,,0,,,4360.15799999889,completion,,,,,false,,,,572529.0999999996,572528.7999999989,568151.976,568170.5000000019,568168.642,572535.134,8,400,,,
trial,html.Screen,4_26_0,2023-11-01T16:59:07.105Z,,0,1,,5167.366000001901,response,ISIC_9052604.JPG,9,ISIC_0029859.JPG,ISIC_9052604.JPG,false,1,keypress(m),500,577702.7000000011,577702.5000000019,572518.468,572529.2000000011,572535.134,577721.459,8,400,27,,ISIC_0029859.JPG
break,html.Screen,4_26_1,2023-11-01T16:59:07.106Z,,0,,,NaN,,,,,,false,,,,577704.0999999996,577703.7999999989,,577703.0999999996,,577721.459,8,400,,,
break_continue,html.Screen,4_26_2,2023-11-01T16:59:07.107Z,,0,,,NaN,,,,,,false,,,,577704.7000000011,577704.5000000019,,577704.4000000004,,577721.459,8,400,,,
sequence,flow.Sequence,4_26,2023-11-01T16:59:07.107Z,,0,,,5169.366000001901,completion,,,,,false,,,,577705.0000000019,577704.5000000019,572518.468,572529.2000000011,572535.134,577721.459,8,400,,,
trial,html.Screen,4_27_0,2023-11-01T16:59:11.332Z,,0,1,,4259.241000001086,response,ISIC_0027391.JPG,3,ISIC_0012721.JPG,ISIC_0012721.JPG,false,0,keypress(z),500,581980.9000000004,581980.7000000011,577704.793,577705.2000000011,577721.459,581987.955,8,400,28,,ISIC_0027391.JPG
break,html.Screen,4_27_1,2023-11-01T16:59:11.333Z,,0,,,NaN,,,,,,false,,,,581982.2000000011,581981.9000000004,,581981.2000000011,,581987.955,8,400,,,
break_continue,html.Screen,4_27_2,2023-11-01T16:59:11.334Z,,0,,,NaN,,,,,,false,,,,581982.7000000011,581982.5999999996,,581982.4000000004,,581987.955,8,400,,,
sequence,flow.Sequence,4_27,2023-11-01T16:59:11.334Z,,0,,,4261.140999999596,completion,,,,,false,,,,581982.9000000004,581982.5999999996,577704.793,577705.0999999996,577721.459,581987.955,8,400,,,
trial,html.Screen,4_28_0,2023-11-01T16:59:16.107Z,,0,1,,4768.045000001905,response,ISIC_7785723.JPG,7,ISIC_1396767.JPG,ISIC_1396767.JPG,false,0,keypress(z),500,586756.2000000011,586756.0000000019,581971.289,581983.0999999996,581987.955,586771.097,8,400,29,,ISIC_7785723.JPG
break,html.Screen,4_28_1,2023-11-01T16:59:16.109Z,,0,,,NaN,,,,,,false,,,,586757.5000000019,586757.0999999996,,586756.5000000019,,586771.097,8,400,,,
break_continue,html.Screen,4_28_2,2023-11-01T16:59:16.109Z,,0,,,NaN,,,,,,false,,,,586758.2000000011,586758.0000000019,,586757.7000000011,,586771.097,8,400,,,
sequence,flow.Sequence,4_28,2023-11-01T16:59:16.109Z,,0,,,4770.045000001905,completion,,,,,false,,,,586758.4000000004,586758.0000000019,581971.289,581983.0999999996,581987.955,586771.097,8,400,,,
trial,html.Screen,4_29_0,2023-11-01T16:59:21.652Z,,0,1,,5529.103000001167,response,ISIC_0025512.JPG,7,ISIC_1124434.JPG,ISIC_1124434.JPG,false,0,keypress(z),500,592300.5000000019,592300.2000000011,586754.431,586758.5000000019,586771.097,592309.048,8,400,30,,ISIC_0025512.JPG
break,html.Screen,4_29_1,2023-11-01T16:59:21.653Z,,0,,,NaN,,,,,,false,,,,592301.5999999996,592301.2999999989,,592300.7000000011,,592309.048,8,400,,,
break_continue,html.Screen,4_29_2,2023-11-01T16:59:21.653Z,,0,,,NaN,,,,,,false,,,,592302.0999999996,592301.9000000004,,592301.7000000011,,592309.048,8,400,,,
sequence,flow.Sequence,4_29,2023-11-01T16:59:21.653Z,,0,,,5530.803000000422,completion,,,,,false,,,,592302.2999999989,592301.9000000004,586754.431,586758.5000000019,586771.097,592309.048,8,400,,,
trial,html.Screen,4_30_0,2023-11-01T16:59:25.596Z,,0,1,,3935.352000000421,response,ISIC_0024236.JPG,6,ISIC_3992223.JPG,ISIC_0024236.JPG,false,1,keypress(m),500,596244.7000000011,596244.4000000004,592292.382,592302.4000000004,592309.048,596258.89,8,400,31,,ISIC_3992223.JPG
break,html.Screen,4_30_1,2023-11-01T16:59:25.597Z,,0,,,NaN,,,,,,false,,,,596245.7999999989,596245.5999999996,,596245.0000000019,,596258.89,8,400,,,
break_continue,html.Screen,4_30_2,2023-11-01T16:59:25.597Z,,0,,,NaN,,,,,,false,,,,596246.2999999989,596246.0999999996,,596245.9000000004,,596258.89,8,400,,,
sequence,flow.Sequence,4_30,2023-11-01T16:59:25.598Z,,0,,,3937.051999999676,completion,,,,,false,,,,596246.4000000004,596246.0999999996,592292.382,592302.4000000004,592309.048,596258.89,8,400,,,
trial,html.Screen,4_31_0,2023-11-01T16:59:29.958Z,,0,1,,4348.010000000359,response,ISIC_7277310.JPG,6,ISIC_4985027.JPG,ISIC_7277310.JPG,false,1,keypress(m),500,600607.2000000011,600606.9000000004,596242.224,596246.5999999996,596258.89,600611.981,8,400,32,,ISIC_4985027.JPG
break,html.Screen,4_31_1,2023-11-01T16:59:29.959Z,,0,,,NaN,,,,,,false,,,,600608.2999999989,600607.9000000004,,600607.4000000004,,600611.981,8,400,,,
break_continue,html.Screen,4_31_2,2023-11-01T16:59:29.960Z,,0,,,NaN,,,,,,false,,,,600608.7999999989,600608.7000000011,,600608.2999999989,,600611.981,8,400,,,
sequence,flow.Sequence,4_31,2023-11-01T16:59:29.960Z,,0,,,4349.810000001104,completion,,,,,false,,,,600608.9000000004,600608.7000000011,596242.224,596246.5999999996,596258.89,600611.981,8,400,,,
trial,html.Screen,4_32_0,2023-11-01T16:59:34.897Z,,0,1,,4933.219000001089,response,ISIC_0011150.JPG,6,ISIC_0064247.JPG,ISIC_0011150.JPG,false,1,keypress(m),500,605545.4000000004,605545.2000000011,600595.315,600609.0999999996,600611.981,605561.783,8,400,33,,ISIC_0064247.JPG
break,html.Screen,4_32_1,2023-11-01T16:59:34.898Z,,0,,,NaN,,,,,,false,,,,605546.5000000019,605546.2000000011,,605545.5999999996,,605561.783,8,400,,,
break_continue,html.Screen,4_32_2,2023-11-01T16:59:34.898Z,,0,,,NaN,,,,,,false,,,,605547.0000000019,605546.7999999989,,605546.5999999996,,605561.783,8,400,,,
sequence,flow.Sequence,4_32,2023-11-01T16:59:34.898Z,,0,,,4934.8189999988535,completion,,,,,false,,,,605547.2000000011,605546.7999999989,600595.315,600609.0999999996,600611.981,605561.783,8,400,,,
trial,html.Screen,4_33_0,2023-11-01T16:59:39.095Z,,0,1,,4181.1170000003185,response,ISIC_8773962.JPG,6,ISIC_6967143.JPG,ISIC_8773962.JPG,false,1,keypress(m),500,609743.2000000011,609742.9000000004,605545.117,605547.2000000011,605561.783,609746.923,8,400,34,,ISIC_6967143.JPG
break,html.Screen,4_33_1,2023-11-01T16:59:39.096Z,,0,,,NaN,,,,,,false,,,,609744.2999999989,609744.0000000019,,609743.5000000019,,609746.923,8,400,,,
break_continue,html.Screen,4_33_2,2023-11-01T16:59:39.096Z,,0,,,NaN,,,,,,false,,,,609744.7999999989,609744.7000000011,,609744.4000000004,,609746.923,8,400,,,
sequence,flow.Sequence,4_33,2023-11-01T16:59:39.096Z,,0,,,4182.917000001064,completion,,,,,false,,,,609745.0000000019,609744.7000000011,605545.117,605547.2000000011,605561.783,609746.923,8,400,,,
trial,html.Screen,4_34_0,2023-11-01T16:59:43.708Z,,0,1,,4609.277000001166,response,ISIC_3685955.JPG,6,ISIC_0027302.JPG,ISIC_3685955.JPG,false,1,keypress(m),500,614356.5000000019,614356.2000000011,609730.257,609745.0999999996,609746.923,614363.405,8,400,35,,ISIC_0027302.JPG
break,html.Screen,4_34_1,2023-11-01T16:59:43.709Z,,0,,,NaN,,,,,,false,,,,614357.5999999996,614357.2999999989,,614356.7000000011,,614363.405,8,400,,,
break_continue,html.Screen,4_34_2,2023-11-01T16:59:43.709Z,,0,,,NaN,,,,,,false,,,,614358.0999999996,614358.0000000019,,614357.7999999989,,614363.405,8,400,,,
sequence,flow.Sequence,4_34,2023-11-01T16:59:43.710Z,,0,,,4611.077000001911,completion,,,,,false,,,,614358.2999999989,614358.0000000019,609730.257,609745.0999999996,609746.923,614363.405,8,400,,,
trial,html.Screen,4_35_0,2023-11-01T16:59:47.937Z,,0,1,,4222.1949999995995,response,ISIC_0062099.JPG,4,ISIC_9776851.JPG,ISIC_9776851.JPG,false,0,keypress(z),500,618585.9000000004,618585.5999999996,614346.739,614358.4000000004,614363.405,618596.569,8,400,36,,ISIC_0062099.JPG
break,html.Screen,4_35_1,2023-11-01T16:59:47.938Z,,0,,,NaN,,,,,,false,,,,618586.9000000004,618586.5999999996,,618586.0999999996,,618596.569,8,400,,,
break_continue,html.Screen,4_35_2,2023-11-01T16:59:47.939Z,,0,,,NaN,,,,,,false,,,,618587.5000000019,618587.2999999989,,618587.0999999996,,618596.569,8,400,,,
sequence,flow.Sequence,4_35,2023-11-01T16:59:47.939Z,,0,,,4223.8949999988545,completion,,,,,false,,,,618587.7000000011,618587.2999999989,614346.739,614358.4000000004,614363.405,618596.569,8,400,,,
trial,html.Screen,4_36_0,2023-11-01T16:59:54.135Z,,0,1,,6186.431000001845,response,ISIC_6946260.JPG,6,ISIC_7948290.JPG,ISIC_6946260.JPG,false,1,keypress(m),500,624783.2000000011,624783.0000000019,618579.903,618587.7999999989,618596.569,624786.112,8,400,37,,ISIC_7948290.JPG
break,html.Screen,4_36_1,2023-11-01T16:59:54.136Z,,0,,,NaN,,,,,,false,,,,624784.4000000004,624784.0999999996,,624783.5999999996,,624786.112,8,400,,,
break_continue,html.Screen,4_36_2,2023-11-01T16:59:54.136Z,,0,,,NaN,,,,,,false,,,,624784.9000000004,624784.7999999989,,624784.5999999996,,624786.112,8,400,,,
sequence,flow.Sequence,4_36,2023-11-01T16:59:54.137Z,,0,,,6188.230999998865,completion,,,,,false,,,,624785.0999999996,624784.7999999989,618579.903,618587.7000000011,618596.569,624786.112,8,400,,,
trial,html.Screen,4_37_0,2023-11-01T16:59:57.836Z,,0,1,,3698.187999998918,response,ISIC_3591332.JPG,6,ISIC_7677876.JPG,ISIC_7677876.JPG,false,0,keypress(z),500,628484.5999999996,628484.2999999989,624769.446,624785.2000000011,624786.112,628502.63,8,400,38,,ISIC_3591332.JPG
break,html.Screen,4_37_1,2023-11-01T16:59:57.837Z,,0,,,NaN,,,,,,false,,,,628485.7999999989,628485.5000000019,,628485.0000000019,,628502.63,8,400,,,
break_continue,html.Screen,4_37_2,2023-11-01T16:59:57.838Z,,0,,,NaN,,,,,,false,,,,628486.2999999989,628486.0999999996,,628485.9000000004,,628502.63,8,400,,,
sequence,flow.Sequence,4_37,2023-11-01T16:59:57.838Z,,0,,,3699.987999999663,completion,,,,,false,,,,628486.5000000019,628486.0999999996,624769.446,624785.2000000011,624786.112,628502.63,8,400,,,
trial,html.Screen,4_38_0,2023-11-01T17:00:01.891Z,,0,1,,4036.270000000368,response,ISIC_0013429.JPG,5,ISIC_0056339.JPG,ISIC_0013429.JPG,false,1,keypress(m),500,632539.2000000011,632538.9000000004,628485.964,628486.7000000011,628502.63,632554.9,8,400,39,,ISIC_0056339.JPG
break,html.Screen,4_38_1,2023-11-01T17:00:01.892Z,,0,,,NaN,,,,,,false,,,,632540.2999999989,632540.0000000019,,632539.5000000019,,632554.9,8,400,,,
break_continue,html.Screen,4_38_2,2023-11-01T17:00:01.892Z,,0,,,NaN,,,,,,false,,,,632540.9000000004,632540.7000000011,,632540.5000000019,,632554.9,8,400,,,
sequence,flow.Sequence,4_38,2023-11-01T17:00:01.893Z,,0,,,4038.070000001113,completion,,,,,false,,,,632541.0000000019,632540.7000000011,628485.964,628486.5999999996,628502.63,632554.9,8,400,,,
trial,html.Screen,4_39_0,2023-11-01T17:00:04.988Z,,0,1,,3081.199999999604,response,ISIC_9406275.JPG,8,ISIC_0031482.JPG,ISIC_9406275.JPG,false,1,keypress(m),500,635636.2999999989,635636.0999999996,632538.234,632541.2000000011,632554.9,635638.11,8,400,40,,ISIC_0031482.JPG
break,html.Screen,4_39_1,2023-11-01T17:00:04.989Z,,0,,,NaN,,,,,,false,,,,635637.2999999989,635637.0000000019,,635636.4000000004,,635638.11,8,400,,,
break_continue,html.Screen,4_39_2,2023-11-01T17:00:04.989Z,,0,,,NaN,,,,,,false,,,,635637.7999999989,635637.5999999996,,635637.4000000004,,635638.11,8,400,,,
sequence,flow.Sequence,4_39,2023-11-01T17:00:04.990Z,,0,,,3082.699999999604,completion,,,,,false,,,,635637.9000000004,635637.5999999996,632538.234,632541.0999999996,632554.9,635638.11,8,400,,,
trial,html.Screen,4_40_0,2023-11-01T17:00:10.295Z,,0,1,,5304.590000001132,response,ISIC_5312584.JPG,7,ISIC_3556039.JPG,ISIC_3556039.JPG,false,0,keypress(z),500,640943.0000000019,640942.7000000011,635621.444,635638.0000000019,635638.11,640948.2,8,400,41,,ISIC_5312584.JPG
break,html.Screen,4_40_1,2023-11-01T17:00:10.296Z,,0,,,NaN,,,,,,false,,,,640944.2000000011,640943.7999999989,,640943.2000000011,,640948.2,8,400,,,
break_continue,html.Screen,4_40_2,2023-11-01T17:00:10.296Z,,0,,,NaN,,,,,,false,,,,640944.5999999996,640944.5000000019,,640944.2999999989,,640948.2,8,400,,,
sequence,flow.Sequence,4_40,2023-11-01T17:00:10.297Z,,0,,,5306.390000001877,completion,,,,,false,,,,640944.7999999989,640944.5000000019,635621.444,635638.0000000019,635638.11,640948.2,8,400,,,
trial,html.Screen,4_41_0,2023-11-01T17:00:13.804Z,,0,1,,3504.099999998929,response,ISIC_2166661.JPG,5,ISIC_0024513.JPG,ISIC_2166661.JPG,false,1,keypress(m),500,644452.5999999996,644452.2999999989,640931.534,640945.0000000019,640948.2,644464.726,8,400,42,,ISIC_0024513.JPG
break,html.Screen,4_41_1,2023-11-01T17:00:13.805Z,,0,,,NaN,,,,,,false,,,,644453.5999999996,644453.4000000004,,644452.7999999989,,644464.726,8,400,,,
break_continue,html.Screen,4_41_2,2023-11-01T17:00:13.806Z,,0,,,NaN,,,,,,false,,,,644454.2000000011,644454.0000000019,,644453.7999999989,,644464.726,8,400,,,
sequence,flow.Sequence,4_41,2023-11-01T17:00:13.806Z,,0,,,3505.800000001909,completion,,,,,false,,,,644454.4000000004,644454.0000000019,640931.534,640944.9000000004,640948.2,644464.726,8,400,,,
trial,html.Screen,4_42_0,2023-11-01T17:00:17.347Z,,0,1,,3530.4740000010934,response,ISIC_4099428.JPG,5,ISIC_0029118.JPG,ISIC_4099428.JPG,false,1,keypress(m),500,647995.4000000004,647995.2000000011,644448.06,644455.5999999996,644464.726,647997.918,8,400,43,,ISIC_0029118.JPG
break,html.Screen,4_42_1,2023-11-01T17:00:17.348Z,,0,,,NaN,,,,,,false,,,,647996.5000000019,647996.2999999989,,647995.5999999996,,647997.918,8,400,,,
break_continue,html.Screen,4_42_2,2023-11-01T17:00:17.349Z,,0,,,NaN,,,,,,false,,,,647997.0000000019,647996.9000000004,,647996.7000000011,,647997.918,8,400,,,
sequence,flow.Sequence,4_42,2023-11-01T17:00:17.349Z,,0,,,3532.1740000003483,completion,,,,,false,,,,647997.2000000011,647996.9000000004,644448.06,644455.5000000019,644464.726,647997.918,8,400,,,
trial,html.Screen,4_43_0,2023-11-01T17:00:23.023Z,,0,1,,5673.282000001171,response,ISIC_0029050.JPG,5,ISIC_2021175.JPG,ISIC_2021175.JPG,false,0,keypress(z),500,653671.4000000004,653671.2000000011,647981.252,647997.4000000004,647997.918,653685.355,8,400,44,,ISIC_0029050.JPG
break,html.Screen,4_43_1,2023-11-01T17:00:23.025Z,,0,,,NaN,,,,,,false,,,,653673.5000000019,653673.0999999996,,653671.7000000011,,653685.355,8,400,,,
break_continue,html.Screen,4_43_2,2023-11-01T17:00:23.026Z,,0,,,NaN,,,,,,false,,,,653674.0999999996,653674.0000000019,,653673.5999999996,,653685.355,8,400,,,
sequence,flow.Sequence,4_43,2023-11-01T17:00:23.026Z,,0,,,5676.082000001916,completion,,,,,false,,,,653674.2999999989,653674.0000000019,647981.252,647997.4000000004,647997.918,653685.355,8,400,,,
trial,html.Screen,4_44_0,2023-11-01T17:00:28.919Z,,0,1,,5881.545000000391,response,ISIC_6739241.JPG,8,ISIC_6701139.JPG,ISIC_6701139.JPG,false,0,keypress(z),500,659567.2000000011,659566.9000000004,653668.689,653674.4000000004,653685.355,659568.453,8,400,45,,ISIC_6739241.JPG
break,html.Screen,4_44_1,2023-11-01T17:00:28.920Z,,0,,,NaN,,,,,,false,,,,659568.2000000011,659568.0000000019,,659567.4000000004,,659568.453,8,400,,,
break_continue,html.Screen,4_44_2,2023-11-01T17:00:28.921Z,,0,,,NaN,,,,,,false,,,,659568.7999999989,659568.7000000011,,659568.4000000004,,659568.453,8,400,,,
sequence,flow.Sequence,4_44,2023-11-01T17:00:28.921Z,,0,,,5883.345000001136,completion,,,,,false,,,,659569.0000000019,659568.7000000011,653668.689,653674.2999999989,653685.355,659568.453,8,400,,,
trial,html.Screen,4_45_0,2023-11-01T17:00:32.076Z,,0,1,,3155.846999998903,response,ISIC_0032862.JPG,6,ISIC_9406275.JPG,ISIC_9406275.JPG,false,0,keypress(z),500,662724.5000000019,662724.2999999989,659551.787,659569.0999999996,659568.453,662741.666,8,400,46,,ISIC_0032862.JPG
break,html.Screen,4_45_1,2023-11-01T17:00:32.078Z,,0,,,NaN,,,,,,false,,,,662725.5999999996,662725.2999999989,,662724.7999999989,,662741.666,8,400,,,
break_continue,html.Screen,4_45_2,2023-11-01T17:00:32.078Z,,0,,,NaN,,,,,,false,,,,662726.0999999996,662726.0000000019,,662725.7000000011,,662741.666,8,400,,,
sequence,flow.Sequence,4_45,2023-11-01T17:00:32.078Z,,0,,,3157.547000001883,completion,,,,,false,,,,662726.2999999989,662726.0000000019,659551.787,659569.0999999996,659568.453,662741.666,8,400,,,
trial,html.Screen,4_46_0,2023-11-01T17:00:35.506Z,,0,1,,3411.933999999659,response,ISIC_0003703.JPG,7,ISIC_8325260.JPG,ISIC_0003703.JPG,false,1,keypress(m),500,666153.7999999989,666153.5999999996,662725,662726.4000000004,662741.666,666158.196,8,400,47,,ISIC_8325260.JPG
break,html.Screen,4_46_1,2023-11-01T17:00:35.507Z,,0,,,NaN,,,,,,false,,,,666154.9000000004,666154.5999999996,,666154.0999999996,,666158.196,8,400,,,
break_continue,html.Screen,4_46_2,2023-11-01T17:00:35.507Z,,0,,,NaN,,,,,,false,,,,666155.5000000019,666155.2999999989,,666155.0999999996,,666158.196,8,400,,,
sequence,flow.Sequence,4_46,2023-11-01T17:00:35.508Z,,0,,,3413.633999998914,completion,,,,,false,,,,666155.5999999996,666155.2999999989,662725,662726.4000000004,662741.666,666158.196,8,400,,,
trial,html.Screen,4_47_0,2023-11-01T17:00:40.809Z,,0,1,,5298.103999998886,response,ISIC_8368872.JPG,6,ISIC_0060992.JPG,ISIC_8368872.JPG,false,1,keypress(m),500,671456.5999999996,671456.2999999989,666141.53,666155.7999999989,666158.196,671457.984,8,400,48,,ISIC_0060992.JPG
break,html.Screen,4_47_1,2023-11-01T17:00:40.810Z,,0,,,NaN,,,,,,false,,,,671457.7000000011,671457.4000000004,,671456.9000000004,,671457.984,8,400,,,
break_continue,html.Screen,4_47_2,2023-11-01T17:00:40.810Z,,0,,,NaN,,,,,,false,,,,671458.2999999989,671458.0999999996,,671457.7999999989,,671457.984,8,400,,,
sequence,flow.Sequence,4_47,2023-11-01T17:00:40.811Z,,0,,,5299.903999999631,completion,,,,,false,,,,671458.5000000019,671458.0999999996,666141.53,666155.7000000011,666158.196,671457.984,8,400,,,
trial,html.Screen,4_48_0,2023-11-01T17:00:44.402Z,,0,1,,3591.6159999995725,response,ISIC_0033518.JPG,4,ISIC_1850388.JPG,ISIC_1850388.JPG,false,0,keypress(z),500,675049.9000000004,675049.5999999996,671441.318,671458.5999999996,671457.984,675063.215,8,400,49,,ISIC_0033518.JPG
break,html.Screen,4_48_1,2023-11-01T17:00:44.403Z,,0,,,NaN,,,,,,false,,,,675051.0999999996,675050.7999999989,,675050.2000000011,,675063.215,8,400,,,
break_continue,html.Screen,4_48_2,2023-11-01T17:00:44.404Z,,0,,,NaN,,,,,,false,,,,675051.5999999996,675051.4000000004,,675051.2999999989,,675063.215,8,400,,,
sequence,flow.Sequence,4_48,2023-11-01T17:00:44.404Z,,0,,,3593.4160000003176,completion,,,,,false,,,,675051.7999999989,675051.4000000004,671441.318,671458.5999999996,671457.984,675063.215,8,400,,,
trial,html.Screen,4_49_0,2023-11-01T17:00:49.865Z,,0,1,,5449.084999998915,response,ISIC_0062978.JPG,6,ISIC_0011695.JPG,ISIC_0062978.JPG,false,1,keypress(m),500,680512.5999999996,680512.2999999989,675046.549,675052.0000000019,675063.215,680529.663,8,400,50,,ISIC_0011695.JPG
break,html.Screen,4_49_1,2023-11-01T17:00:59.868Z,,0,,,9999.504000000074,timeout,,,,,false,,,,690516.0999999996,690512.501,680512.997,680512.7999999989,680529.663,690529.167,8,400,,,
break_continue,html.Screen,4_49_2,2023-11-01T17:01:05.137Z,,0,,,5234.033000001102,response,,,,,false,continue,keypress(Space),,695784.2999999989,695763.2000000011,690512.501,690516.2000000011,690529.167,695795.623,8,400,,,
sequence,flow.Sequence,4_49,2023-11-01T17:01:05.137Z,,0,,,20699.98500000115,completion,,,,,false,,,,695784.5000000019,695763.2000000011,675046.549,675052.0000000019,675063.215,695795.623,8,400,,,
trial,html.Screen,4_50_0,2023-11-01T17:01:12.135Z,,0,2,,6986.577000001096,response,ISIC_0056784.JPG,7,ISIC_0024735.JPG,ISIC_0056784.JPG,false,1,keypress(m),500,702782.5000000019,702782.2000000011,695778.957,695784.5999999996,695795.623,702791.14,8,400,1,,ISIC_0024735.JPG
break,html.Screen,4_50_1,2023-11-01T17:01:12.136Z,,0,,,NaN,,,,,,false,,,,702783.5999999996,702783.2999999989,,702782.7000000011,,702791.14,8,400,,,
break_continue,html.Screen,4_50_2,2023-11-01T17:01:12.137Z,,0,,,NaN,,,,,,false,,,,702784.0999999996,702783.9000000004,,702783.7000000011,,702791.14,8,400,,,
sequence,flow.Sequence,4_50,2023-11-01T17:01:12.137Z,,0,,,6988.277000000351,completion,,,,,false,,,,702784.2999999989,702783.9000000004,695778.957,695784.5999999996,695795.623,702791.14,8,400,,,
trial,html.Screen,4_51_0,2023-11-01T17:01:15.725Z,,0,2,,3581.1599999988684,response,ISIC_0034034.JPG,7,ISIC_0028207.JPG,ISIC_0034034.JPG,false,1,keypress(m),500,706372.5000000019,706372.2999999989,702774.474,702784.4000000004,702791.14,706374.258,8,400,2,,ISIC_0028207.JPG
break,html.Screen,4_51_1,2023-11-01T17:01:15.726Z,,0,,,NaN,,,,,,false,,,,706373.5999999996,706373.2999999989,,706372.7999999989,,706374.258,8,400,,,
break_continue,html.Screen,4_51_2,2023-11-01T17:01:15.727Z,,0,,,NaN,,,,,,false,,,,706374.2000000011,706374.0000000019,,706373.7999999989,,706374.258,8,400,,,
sequence,flow.Sequence,4_51,2023-11-01T17:01:15.727Z,,0,,,3582.8600000018487,completion,,,,,false,,,,706374.2999999989,706374.0000000019,702774.474,702784.2999999989,702791.14,706374.258,8,400,,,
trial,html.Screen,4_52_0,2023-11-01T17:01:20.115Z,,0,2,,4387.442000001087,response,ISIC_3495799.JPG,6,ISIC_8860929.JPG,ISIC_3495799.JPG,false,1,keypress(m),500,710762.0000000019,710761.7000000011,706357.592,706374.5000000019,706374.258,710774.082,8,400,3,,ISIC_8860929.JPG
break,html.Screen,4_52_1,2023-11-01T17:01:20.116Z,,0,,,NaN,,,,,,false,,,,710763.0000000019,710762.7000000011,,710762.2000000011,,710774.082,8,400,,,
break_continue,html.Screen,4_52_2,2023-11-01T17:01:20.116Z,,0,,,NaN,,,,,,false,,,,710763.4000000004,710763.4000000004,,710763.0999999996,,710774.082,8,400,,,
sequence,flow.Sequence,4_52,2023-11-01T17:01:20.116Z,,0,,,4389.142000000342,completion,,,,,false,,,,710763.7000000011,710763.4000000004,706357.592,706374.5000000019,706374.258,710774.082,8,400,,,
trial,html.Screen,4_53_0,2023-11-01T17:01:24.840Z,,0,2,,4712.818000000319,response,ISIC_0062235.JPG,6,ISIC_9142818.JPG,ISIC_9142818.JPG,false,0,keypress(z),500,715487.2000000011,715486.9000000004,710757.416,710763.7000000011,710774.082,715490.56,8,400,4,,ISIC_0062235.JPG
break,html.Screen,4_53_1,2023-11-01T17:01:24.841Z,,0,,,NaN,,,,,,false,,,,715488.2999999989,715487.9000000004,,715487.5000000019,,715490.56,8,400,,,
break_continue,html.Screen,4_53_2,2023-11-01T17:01:24.841Z,,0,,,NaN,,,,,,false,,,,715488.7000000011,715488.5999999996,,715488.2999999989,,715490.56,8,400,,,
sequence,flow.Sequence,4_53,2023-11-01T17:01:24.842Z,,0,,,4714.517999999574,completion,,,,,false,,,,715488.9000000004,715488.5999999996,710757.416,710763.7000000011,710774.082,715490.56,8,400,,,
trial,html.Screen,4_54_0,2023-11-01T17:01:30.220Z,,0,2,,5376.340000000317,response,ISIC_3673080.JPG,4,ISIC_0024507.JPG,ISIC_0024507.JPG,false,0,keypress(z),500,720867.0999999996,720866.9000000004,715473.894,715489.0999999996,715490.56,720882.095,8,400,5,,ISIC_3673080.JPG
break,html.Screen,4_54_1,2023-11-01T17:01:30.221Z,,0,,,NaN,,,,,,false,,,,720868.2999999989,720868.0000000019,,720867.4000000004,,720882.095,8,400,,,
break_continue,html.Screen,4_54_2,2023-11-01T17:01:30.222Z,,0,,,NaN,,,,,,false,,,,720868.7999999989,720868.7000000011,,720868.5000000019,,720882.095,8,400,,,
sequence,flow.Sequence,4_54,2023-11-01T17:01:30.222Z,,0,,,5378.140000001062,completion,,,,,false,,,,720869.0999999996,720868.7000000011,715473.894,715489.0000000019,715490.56,720882.095,8,400,,,
trial,html.Screen,4_55_0,2023-11-01T17:01:34.083Z,,0,2,,3847.5049999996554,response,ISIC_4900077.JPG,7,ISIC_0028041.JPG,ISIC_4900077.JPG,false,1,keypress(m),500,724729.9000000004,724729.5999999996,720865.429,720869.2000000011,720882.095,724731.941,8,400,6,,ISIC_0028041.JPG
break,html.Screen,4_55_1,2023-11-01T17:01:34.084Z,,0,,,NaN,,,,,,false,,,,724731.0000000019,724730.7000000011,,724730.0999999996,,724731.941,8,400,,,
break_continue,html.Screen,4_55_2,2023-11-01T17:01:34.084Z,,0,,,NaN,,,,,,false,,,,724731.5000000019,724731.4000000004,,724731.2000000011,,724731.941,8,400,,,
sequence,flow.Sequence,4_55,2023-11-01T17:01:34.084Z,,0,,,3849.3050000004005,completion,,,,,false,,,,724731.7999999989,724731.4000000004,720865.429,720869.0999999996,720882.095,724731.941,8,400,,,
trial,html.Screen,4_56_0,2023-11-01T17:01:40.104Z,,0,2,,6018.658999999636,response,ISIC_3586669.JPG,6,ISIC_3952694.JPG,ISIC_3952694.JPG,false,0,keypress(z),500,730750.9000000004,730750.5999999996,724715.275,724731.9000000004,724731.941,730763.603,8,400,7,,ISIC_3586669.JPG
break,html.Screen,4_56_1,2023-11-01T17:01:40.105Z,,0,,,NaN,,,,,,false,,,,730752.0000000019,730751.7000000011,,730751.2000000011,,730763.603,8,400,,,
break_continue,html.Screen,4_56_2,2023-11-01T17:01:40.105Z,,0,,,NaN,,,,,,false,,,,730752.5000000019,730752.2999999989,,730752.0999999996,,730763.603,8,400,,,
sequence,flow.Sequence,4_56,2023-11-01T17:01:40.105Z,,0,,,6020.358999998891,completion,,,,,false,,,,730752.5999999996,730752.2999999989,724715.275,724731.7999999989,724731.941,730763.603,8,400,,,
trial,html.Screen,4_57_0,2023-11-01T17:01:44.143Z,,0,2,,4025.9969999996247,response,ISIC_0070048.JPG,7,ISIC_3161477.JPG,ISIC_3161477.JPG,false,0,keypress(z),500,734789.7999999989,734789.5999999996,730746.937,730752.7999999989,730763.603,734796.775,8,400,8,,ISIC_0070048.JPG
break,html.Screen,4_57_1,2023-11-01T17:01:44.144Z,,0,,,NaN,,,,,,false,,,,734791.0000000019,734790.7000000011,,734790.0999999996,,734796.775,8,400,,,
break_continue,html.Screen,4_57_2,2023-11-01T17:01:44.144Z,,0,,,NaN,,,,,,false,,,,734791.5000000019,734791.4000000004,,734791.2000000011,,734796.775,8,400,,,
sequence,flow.Sequence,4_57,2023-11-01T17:01:44.145Z,,0,,,4027.7970000003697,completion,,,,,false,,,,734791.7999999989,734791.4000000004,730746.937,730752.7000000011,730763.603,734796.775,8,400,,,
trial,html.Screen,4_58_0,2023-11-01T17:01:47.452Z,,0,2,,3301.824999999604,response,ISIC_8671119.JPG,5,ISIC_0034239.JPG,ISIC_8671119.JPG,false,1,keypress(m),500,738098.7999999989,738098.5999999996,734780.109,734791.7999999989,734796.775,738109.091,8,400,9,,ISIC_0034239.JPG
break,html.Screen,4_58_1,2023-11-01T17:01:47.453Z,,0,,,NaN,,,,,,false,,,,738100.2000000011,738099.7999999989,,738099.0999999996,,738109.091,8,400,,,
break_continue,html.Screen,4_58_2,2023-11-01T17:01:47.454Z,,0,,,NaN,,,,,,false,,,,738100.7000000011,738100.5999999996,,738100.2999999989,,738109.091,8,400,,,
sequence,flow.Sequence,4_58,2023-11-01T17:01:47.454Z,,0,,,3303.824999999604,completion,,,,,false,,,,738100.9000000004,738100.5999999996,734780.109,734791.7999999989,734796.775,738109.091,8,400,,,
trial,html.Screen,4_59_0,2023-11-01T17:01:53.152Z,,0,2,,5690.008999999613,response,ISIC_0028366.JPG,5,ISIC_5738369.JPG,ISIC_5738369.JPG,false,0,keypress(z),500,743799.2999999989,743799.0999999996,738092.425,738101.0000000019,738109.091,743808.863,8,400,10,,ISIC_0028366.JPG
break,html.Screen,4_59_1,2023-11-01T17:01:53.154Z,,0,,,NaN,,,,,,false,,,,743800.5999999996,743800.2999999989,,743799.7000000011,,743808.863,8,400,,,
break_continue,html.Screen,4_59_2,2023-11-01T17:01:53.154Z,,0,,,NaN,,,,,,false,,,,743801.2000000011,743801.0000000019,,743800.7000000011,,743808.863,8,400,,,
sequence,flow.Sequence,4_59,2023-11-01T17:01:53.154Z,,0,,,5691.909000001848,completion,,,,,false,,,,743801.4000000004,743801.0000000019,738092.425,738101.0000000019,738109.091,743808.863,8,400,,,
trial,html.Screen,4_60_0,2023-11-01T17:01:57.048Z,,0,2,,3885.5370000003604,response,ISIC_5709878.JPG,5,ISIC_0011269.JPG,ISIC_5709878.JPG,false,1,keypress(m),500,747694.7000000011,747694.4000000004,743792.197,743801.5999999996,743808.863,747708.174,8,400,11,,ISIC_0011269.JPG
break,html.Screen,4_60_1,2023-11-01T17:01:57.049Z,,0,,,NaN,,,,,,false,,,,747695.7000000011,747695.4000000004,,747694.9000000004,,747708.174,8,400,,,
break_continue,html.Screen,4_60_2,2023-11-01T17:01:57.049Z,,0,,,NaN,,,,,,false,,,,747696.2999999989,747696.0999999996,,747695.9000000004,,747708.174,8,400,,,
sequence,flow.Sequence,4_60,2023-11-01T17:01:57.049Z,,0,,,3887.2369999996154,completion,,,,,false,,,,747696.5000000019,747696.0999999996,743792.197,743801.5000000019,743808.863,747708.174,8,400,,,
trial,html.Screen,4_61_0,2023-11-01T17:02:00.798Z,,0,2,,3736.1259999988833,response,ISIC_0002578.JPG,7,ISIC_0031463.JPG,ISIC_0002578.JPG,false,1,keypress(m),500,751444.5999999996,751444.2999999989,747691.508,747696.5999999996,747708.174,751458.024,8,400,12,,ISIC_0031463.JPG
break,html.Screen,4_61_1,2023-11-01T17:02:00.799Z,,0,,,NaN,,,,,,false,,,,751445.5999999996,751445.4000000004,,751444.7999999989,,751458.024,8,400,,,
break_continue,html.Screen,4_61_2,2023-11-01T17:02:00.799Z,,0,,,NaN,,,,,,false,,,,751446.0999999996,751446.0000000019,,751445.7999999989,,751458.024,8,400,,,
sequence,flow.Sequence,4_61,2023-11-01T17:02:00.799Z,,0,,,3737.8260000018636,completion,,,,,false,,,,751446.2999999989,751446.0000000019,747691.508,747696.5000000019,747708.174,751458.024,8,400,,,
trial,html.Screen,4_62_0,2023-11-01T17:02:05.496Z,,0,2,,4684.775999998907,response,ISIC_1382271.JPG,8,ISIC_0981639.JPG,ISIC_1382271.JPG,false,1,keypress(m),500,756143.0000000019,756142.7999999989,751441.358,751446.5000000019,751458.024,756157.836,8,400,13,,ISIC_0981639.JPG
break,html.Screen,4_62_1,2023-11-01T17:02:05.497Z,,0,,,NaN,,,,,,false,,,,756144.0999999996,756143.7999999989,,756143.2999999989,,756157.836,8,400,,,
break_continue,html.Screen,4_62_2,2023-11-01T17:02:05.498Z,,0,,,NaN,,,,,,false,,,,756144.7000000011,756144.5000000019,,756144.2000000011,,756157.836,8,400,,,
sequence,flow.Sequence,4_62,2023-11-01T17:02:05.498Z,,0,,,4686.476000001887,completion,,,,,false,,,,756144.7999999989,756144.5000000019,751441.358,751446.4000000004,751458.024,756157.836,8,400,,,
trial,html.Screen,4_63_0,2023-11-01T17:02:10.398Z,,0,2,,4886.463999998872,response,ISIC_6398283.JPG,6,ISIC_0046429.JPG,ISIC_6398283.JPG,false,1,keypress(m),500,761044.5000000019,761044.2999999989,756141.17,756145.0000000019,756157.836,761054.814,8,400,14,,ISIC_0046429.JPG
break,html.Screen,4_63_1,2023-11-01T17:02:10.399Z,,0,,,NaN,,,,,,false,,,,761045.5999999996,761045.2999999989,,761044.7000000011,,761054.814,8,400,,,
break_continue,html.Screen,4_63_2,2023-11-01T17:02:10.399Z,,0,,,NaN,,,,,,false,,,,761046.0999999996,761046.0000000019,,761045.7999999989,,761054.814,8,400,,,
sequence,flow.Sequence,4_63,2023-11-01T17:02:10.399Z,,0,,,4888.164000001852,completion,,,,,false,,,,761046.2999999989,761046.0000000019,756141.17,756144.9000000004,756157.836,761054.814,8,400,,,
trial,html.Screen,4_64_0,2023-11-01T17:02:14.920Z,,0,2,,4511.886000001105,response,ISIC_5476770.JPG,5,ISIC_0024980.JPG,ISIC_5476770.JPG,false,1,keypress(m),500,765567.0000000019,765566.7000000011,761038.148,761046.4000000004,761054.814,765571.3,8,400,15,,ISIC_0024980.JPG
break,html.Screen,4_64_1,2023-11-01T17:02:14.921Z,,0,,,NaN,,,,,,false,,,,765568.0999999996,765567.7999999989,,765567.2999999989,,765571.3,8,400,,,
break_continue,html.Screen,4_64_2,2023-11-01T17:02:14.922Z,,0,,,NaN,,,,,,false,,,,765568.7000000011,765568.4000000004,,765568.2999999989,,765571.3,8,400,,,
sequence,flow.Sequence,4_64,2023-11-01T17:02:14.922Z,,0,,,4513.5860000003595,completion,,,,,false,,,,765568.7999999989,765568.4000000004,761038.148,761046.4000000004,761054.814,765571.3,8,400,,,
trial,html.Screen,4_65_0,2023-11-01T17:02:18.942Z,,0,2,,4016.900000001071,response,ISIC_5628615.JPG,5,ISIC_8901784.JPG,ISIC_5628615.JPG,false,1,keypress(m),500,769588.5999999996,769588.2000000011,765554.634,765569.0000000019,765571.3,769607.06,8,400,16,,ISIC_8901784.JPG
break,html.Screen,4_65_1,2023-11-01T17:02:18.943Z,,0,,,NaN,,,,,,false,,,,769589.7000000011,769589.4000000004,,769588.7999999989,,769607.06,8,400,,,
break_continue,html.Screen,4_65_2,2023-11-01T17:02:18.944Z,,0,,,NaN,,,,,,false,,,,769590.5000000019,769590.2999999989,,769589.9000000004,,769607.06,8,400,,,
sequence,flow.Sequence,4_65,2023-11-01T17:02:18.944Z,,0,,,4018.999999998836,completion,,,,,false,,,,769590.5999999996,769590.2999999989,765554.634,765568.9000000004,765571.3,769607.06,8,400,,,
trial,html.Screen,4_66_0,2023-11-01T17:02:22.871Z,,0,2,,3910.2399999988265,response,ISIC_7967108.JPG,6,ISIC_3568218.JPG,ISIC_7967108.JPG,false,1,keypress(m),500,773517.5999999996,773517.2999999989,769590.394,769590.7999999989,769607.06,773523.57,8,400,17,,ISIC_3568218.JPG
break,html.Screen,4_66_1,2023-11-01T17:02:22.872Z,,0,,,NaN,,,,,,false,,,,773518.5999999996,773518.2999999989,,773517.9000000004,,773523.57,8,400,,,
break_continue,html.Screen,4_66_2,2023-11-01T17:02:22.873Z,,0,,,NaN,,,,,,false,,,,773519.2999999989,773519.0999999996,,773518.7999999989,,773523.57,8,400,,,
sequence,flow.Sequence,4_66,2023-11-01T17:02:22.873Z,,0,,,3912.0399999995716,completion,,,,,false,,,,773519.4000000004,773519.0999999996,769590.394,769590.7000000011,769607.06,773523.57,8,400,,,
trial,html.Screen,4_67_0,2023-11-01T17:02:30.223Z,,0,2,,7346.130000001169,response,ISIC_0057395.JPG,7,ISIC_1300967.JPG,ISIC_0057395.JPG,false,1,keypress(m),500,780869.9000000004,780869.7000000011,773506.904,773519.5999999996,773523.57,780884.945,8,400,18,,ISIC_1300967.JPG
break,html.Screen,4_67_1,2023-11-01T17:02:30.224Z,,0,,,NaN,,,,,,false,,,,780871.0000000019,780870.7000000011,,780870.0999999996,,780884.945,8,400,,,
break_continue,html.Screen,4_67_2,2023-11-01T17:02:30.225Z,,0,,,NaN,,,,,,false,,,,780871.5000000019,780871.4000000004,,780871.2000000011,,780884.945,8,400,,,
sequence,flow.Sequence,4_67,2023-11-01T17:02:30.225Z,,0,,,7347.830000000424,completion,,,,,false,,,,780871.7999999989,780871.4000000004,773506.904,773519.5999999996,773523.57,780884.945,8,400,,,
trial,html.Screen,4_68_0,2023-11-01T17:02:34.471Z,,0,2,,4232.055000001914,response,ISIC_8274622.JPG,5,ISIC_0000445.JPG,ISIC_0000445.JPG,false,0,keypress(z),500,785117.2999999989,785117.0000000019,780868.279,780871.7999999989,780884.945,785134.775,8,400,19,,ISIC_8274622.JPG
break,html.Screen,4_68_1,2023-11-01T17:02:34.472Z,,0,,,NaN,,,,,,false,,,,785118.5000000019,785118.2000000011,,785117.5000000019,,785134.775,8,400,,,
break_continue,html.Screen,4_68_2,2023-11-01T17:02:34.473Z,,0,,,NaN,,,,,,false,,,,785119.0999999996,785118.9000000004,,785118.7000000011,,785134.775,8,400,,,
sequence,flow.Sequence,4_68,2023-11-01T17:02:34.473Z,,0,,,4233.955000000424,completion,,,,,false,,,,785119.2000000011,785118.9000000004,780868.279,780871.7999999989,780884.945,785134.775,8,400,,,
trial,html.Screen,4_69_0,2023-11-01T17:02:38.011Z,,0,2,,3522.2250000018394,response,ISIC_7011122.JPG,8,ISIC_0071245.JPG,ISIC_7011122.JPG,false,1,keypress(m),500,788657.2000000011,788657.0000000019,785118.109,785119.4000000004,785134.775,788667.967,8,400,20,,ISIC_0071245.JPG
break,html.Screen,4_69_1,2023-11-01T17:02:38.012Z,,0,,,NaN,,,,,,false,,,,788658.2999999989,788658.0000000019,,788657.5000000019,,788667.967,8,400,,,
break_continue,html.Screen,4_69_2,2023-11-01T17:02:38.013Z,,0,,,NaN,,,,,,false,,,,788659.0000000019,788658.7999999989,,788658.4000000004,,788667.967,8,400,,,
sequence,flow.Sequence,4_69,2023-11-01T17:02:38.013Z,,0,,,3524.024999998859,completion,,,,,false,,,,788659.2000000011,788658.7999999989,785118.109,785119.4000000004,785134.775,788667.967,8,400,,,
trial,html.Screen,4_70_0,2023-11-01T17:02:41.746Z,,0,2,,3723.8329999989364,response,ISIC_9630931.JPG,8,ISIC_3549225.JPG,ISIC_3549225.JPG,false,0,keypress(z),500,792392.0999999996,792391.7999999989,788651.301,788659.2999999989,788667.967,792402.038,8,400,21,,ISIC_9630931.JPG
break,html.Screen,4_70_1,2023-11-01T17:02:41.747Z,,0,,,NaN,,,,,,false,,,,792393.2000000011,792393.0000000019,,792392.2999999989,,792402.038,8,400,,,
break_continue,html.Screen,4_70_2,2023-11-01T17:02:41.747Z,,0,,,NaN,,,,,,false,,,,792393.7000000011,792393.5000000019,,792393.4000000004,,792402.038,8,400,,,
sequence,flow.Sequence,4_70,2023-11-01T17:02:41.747Z,,0,,,3725.5330000019167,completion,,,,,false,,,,792393.9000000004,792393.5000000019,788651.301,788659.2999999989,788667.967,792402.038,8,400,,,
trial,html.Screen,4_71_0,2023-11-01T17:02:45.421Z,,0,2,,3665.3620000004303,response,ISIC_6681802.JPG,8,ISIC_6771810.JPG,ISIC_6771810.JPG,false,0,keypress(z),500,796067.7000000011,796067.4000000004,792385.372,792394.0999999996,792402.038,796085.224,8,400,22,,ISIC_6681802.JPG
break,html.Screen,4_71_1,2023-11-01T17:02:45.423Z,,0,,,NaN,,,,,,false,,,,796068.9000000004,796068.7000000011,,796067.9000000004,,796085.224,8,400,,,
break_continue,html.Screen,4_71_2,2023-11-01T17:02:45.424Z,,0,,,NaN,,,,,,false,,,,796070.7999999989,796070.5999999996,,796070.2999999989,,796085.224,8,400,,,
sequence,flow.Sequence,4_71,2023-11-01T17:02:45.425Z,,0,,,3668.561999999685,completion,,,,,false,,,,796071.0000000019,796070.5999999996,792385.372,792394.0000000019,792402.038,796085.224,8,400,,,
trial,html.Screen,4_72_0,2023-11-01T17:02:49.238Z,,0,2,,3798.976000001072,response,ISIC_0010409.JPG,4,ISIC_3286956.JPG,ISIC_3286956.JPG,false,0,keypress(z),500,799884.5000000019,799884.2000000011,796068.558,796071.2000000011,796085.224,799901.738,8,400,23,,ISIC_0010409.JPG
break,html.Screen,4_72_1,2023-11-01T17:02:49.239Z,,0,,,NaN,,,,,,false,,,,799885.5999999996,799885.2999999989,,799884.7999999989,,799901.738,8,400,,,
break_continue,html.Screen,4_72_2,2023-11-01T17:02:49.240Z,,0,,,NaN,,,,,,false,,,,799886.0999999996,799886.0000000019,,799885.7999999989,,799901.738,8,400,,,
sequence,flow.Sequence,4_72,2023-11-01T17:02:49.240Z,,0,,,3800.776000001817,completion,,,,,false,,,,799886.2999999989,799886.0000000019,796068.558,796071.0999999996,796085.224,799901.738,8,400,,,
trial,html.Screen,4_73_0,2023-11-01T17:02:52.829Z,,0,2,,3573.2620000018505,response,ISIC_2746860.JPG,8,ISIC_8010862.JPG,ISIC_2746860.JPG,false,1,keypress(m),500,803475.2000000011,803475.0000000019,799885.072,799886.5000000019,799901.738,803488.818,8,400,24,,ISIC_8010862.JPG
break,html.Screen,4_73_1,2023-11-01T17:02:52.830Z,,0,,,NaN,,,,,,false,,,,803476.2999999989,803476.0999999996,,803475.5000000019,,803488.818,8,400,,,
break_continue,html.Screen,4_73_2,2023-11-01T17:02:52.831Z,,0,,,NaN,,,,,,false,,,,803476.9000000004,803476.7000000011,,803476.5999999996,,803488.818,8,400,,,
sequence,flow.Sequence,4_73,2023-11-01T17:02:52.831Z,,0,,,3574.9620000011055,completion,,,,,false,,,,803477.0999999996,803476.7000000011,799885.072,799886.4000000004,799901.738,803488.818,8,400,,,
trial,html.Screen,4_74_0,2023-11-01T17:02:57.267Z,,0,2,,4424.082000000402,response,ISIC_6404049.JPG,7,ISIC_0030704.JPG,ISIC_0030704.JPG,false,0,keypress(z),500,807913.0999999996,807912.9000000004,803472.152,803477.2000000011,803488.818,807921.974,8,400,25,,ISIC_6404049.JPG
break,html.Screen,4_74_1,2023-11-01T17:02:57.268Z,,0,,,NaN,,,,,,false,,,,807914.2000000011,807913.9000000004,,807913.4000000004,,807921.974,8,400,,,
break_continue,html.Screen,4_74_2,2023-11-01T17:02:57.269Z,,0,,,NaN,,,,,,false,,,,807914.7000000011,807914.5999999996,,807914.4000000004,,807921.974,8,400,,,
sequence,flow.Sequence,4_74,2023-11-01T17:02:57.269Z,,0,,,4425.781999999657,completion,,,,,false,,,,807914.9000000004,807914.5999999996,803472.152,803477.2000000011,803488.818,807921.974,8,400,,,
trial,html.Screen,4_75_0,2023-11-01T17:03:01.257Z,,0,2,,3980.926000000327,response,ISIC_3356355.JPG,7,ISIC_0222299.JPG,ISIC_3356355.JPG,false,1,keypress(m),500,811903.2000000011,811902.9000000004,807905.308,807915.0999999996,807921.974,811907.094,8,400,26,,ISIC_0222299.JPG
break,html.Screen,4_75_1,2023-11-01T17:03:01.258Z,,0,,,NaN,,,,,,false,,,,811904.2999999989,811904.0000000019,,811903.4000000004,,811907.094,8,400,,,
break_continue,html.Screen,4_75_2,2023-11-01T17:03:01.259Z,,0,,,NaN,,,,,,false,,,,811904.7000000011,811904.5999999996,,811904.4000000004,,811907.094,8,400,,,
sequence,flow.Sequence,4_75,2023-11-01T17:03:01.259Z,,0,,,3982.625999999582,completion,,,,,false,,,,811904.9000000004,811904.5999999996,807905.308,807915.0000000019,807921.974,811907.094,8,400,,,
trial,html.Screen,4_76_0,2023-11-01T17:03:04.750Z,,0,2,,3489.2059999988414,response,ISIC_9337570.JPG,6,ISIC_4286715.JPG,ISIC_4286715.JPG,false,0,keypress(z),500,815396.5000000019,815396.2999999989,811890.428,811905.0000000019,811907.094,815406.954,8,400,27,,ISIC_9337570.JPG
break,html.Screen,4_76_1,2023-11-01T17:03:04.751Z,,0,,,NaN,,,,,,false,,,,815397.5999999996,815397.2999999989,,815396.7999999989,,815406.954,8,400,,,
break_continue,html.Screen,4_76_2,2023-11-01T17:03:04.752Z,,0,,,NaN,,,,,,false,,,,815398.0999999996,815398.0000000019,,815397.7999999989,,815406.954,8,400,,,
sequence,flow.Sequence,4_76,2023-11-01T17:03:04.752Z,,0,,,3490.9060000018217,completion,,,,,false,,,,815398.2000000011,815398.0000000019,811890.428,811905.0000000019,811907.094,815406.954,8,400,,,
trial,html.Screen,4_77_0,2023-11-01T17:03:09.269Z,,0,2,,4507.6459999996005,response,ISIC_0014290.JPG,6,ISIC_0071916.JPG,ISIC_0014290.JPG,false,1,keypress(m),500,819914.9000000004,819914.5999999996,815390.288,815398.4000000004,815406.954,819923.44,8,400,28,,ISIC_0071916.JPG
break,html.Screen,4_77_1,2023-11-01T17:03:09.270Z,,0,,,NaN,,,,,,false,,,,819915.9000000004,819915.5999999996,,819915.0999999996,,819923.44,8,400,,,
break_continue,html.Screen,4_77_2,2023-11-01T17:03:09.270Z,,0,,,NaN,,,,,,false,,,,819916.5000000019,819916.2999999989,,819916.0999999996,,819923.44,8,400,,,
sequence,flow.Sequence,4_77,2023-11-01T17:03:09.271Z,,0,,,4509.345999998855,completion,,,,,false,,,,819916.5999999996,819916.2999999989,815390.288,815398.4000000004,815406.954,819923.44,8,400,,,
trial,html.Screen,4_78_0,2023-11-01T17:03:12.557Z,,0,2,,3279.3599999989383,response,ISIC_5867911.JPG,5,ISIC_0027266.JPG,ISIC_0027266.JPG,false,0,keypress(z),500,823203.0999999996,823202.7999999989,819906.774,819916.7000000011,819923.44,823206.065,8,400,29,,ISIC_5867911.JPG
break,html.Screen,4_78_1,2023-11-01T17:03:12.558Z,,0,,,NaN,,,,,,false,,,,823204.2000000011,823203.9000000004,,823203.2999999989,,823206.065,8,400,,,
break_continue,html.Screen,4_78_2,2023-11-01T17:03:12.559Z,,0,,,NaN,,,,,,false,,,,823204.7999999989,823204.7000000011,,823204.2999999989,,823206.065,8,400,,,
sequence,flow.Sequence,4_78,2023-11-01T17:03:12.559Z,,0,,,3281.2600000011735,completion,,,,,false,,,,823205.0999999996,823204.7000000011,819906.774,819916.7000000011,819923.44,823206.065,8,400,,,
trial,html.Screen,4_79_0,2023-11-01T17:03:17.955Z,,0,2,,5394.9350000019185,response,ISIC_0064478.JPG,7,ISIC_6289346.JPG,ISIC_0064478.JPG,false,1,keypress(m),500,828601.2999999989,828601.0000000019,823189.399,823205.2000000011,823206.065,828605.849,8,400,30,,ISIC_6289346.JPG
break,html.Screen,4_79_1,2023-11-01T17:03:17.956Z,,0,,,NaN,,,,,,false,,,,828602.4000000004,828602.0000000019,,828601.5000000019,,828605.849,8,400,,,
break_continue,html.Screen,4_79_2,2023-11-01T17:03:17.957Z,,0,,,NaN,,,,,,false,,,,828602.9000000004,828602.7000000011,,828602.5000000019,,828605.849,8,400,,,
sequence,flow.Sequence,4_79,2023-11-01T17:03:17.957Z,,0,,,5396.6350000011735,completion,,,,,false,,,,828603.0999999996,828602.7000000011,823189.399,823205.0999999996,823206.065,828605.849,8,400,,,
trial,html.Screen,4_80_0,2023-11-01T17:03:21.737Z,,0,2,,3777.051000000327,response,ISIC_0011289.JPG,7,ISIC_0014114.JPG,ISIC_0014114.JPG,false,0,keypress(z),500,832383.2000000011,832382.9000000004,828589.183,828603.2000000011,828605.849,832384.251,8,400,31,,ISIC_0011289.JPG
break,html.Screen,4_80_1,2023-11-01T17:03:21.738Z,,0,,,NaN,,,,,,false,,,,832384.2999999989,832384.0000000019,,832383.4000000004,,832384.251,8,400,,,
break_continue,html.Screen,4_80_2,2023-11-01T17:03:21.739Z,,0,,,NaN,,,,,,false,,,,832384.7999999989,832384.5999999996,,832384.4000000004,,832384.251,8,400,,,
sequence,flow.Sequence,4_80,2023-11-01T17:03:21.739Z,,0,,,3778.750999999582,completion,,,,,false,,,,832384.9000000004,832384.5999999996,828589.183,828603.2000000011,828605.849,832384.251,8,400,,,
trial,html.Screen,4_81_0,2023-11-01T17:03:25.263Z,,0,2,,3523.84899999958,response,ISIC_0069481.JPG,6,ISIC_6256797.JPG,ISIC_6256797.JPG,false,0,keypress(z),500,835908.4000000004,835908.0999999996,832367.585,832385.2000000011,832384.251,835917.443,8,400,32,,ISIC_0069481.JPG
break,html.Screen,4_81_1,2023-11-01T17:03:25.264Z,,0,,,NaN,,,,,,false,,,,835909.5999999996,835909.2999999989,,835908.7000000011,,835917.443,8,400,,,
break_continue,html.Screen,4_81_2,2023-11-01T17:03:25.264Z,,0,,,NaN,,,,,,false,,,,835910.0000000019,835909.9000000004,,835909.7000000011,,835917.443,8,400,,,
sequence,flow.Sequence,4_81,2023-11-01T17:03:25.264Z,,0,,,3525.649000000325,completion,,,,,false,,,,835910.2000000011,835909.9000000004,832367.585,832385.0999999996,832384.251,835917.443,8,400,,,
trial,html.Screen,4_82_0,2023-11-01T17:03:29.781Z,,0,2,,4509.457000000402,response,ISIC_0031752.JPG,7,ISIC_2008230.JPG,ISIC_2008230.JPG,false,0,keypress(z),500,840427.2000000011,840426.9000000004,835900.777,835910.4000000004,835917.443,840433.929,8,400,33,,ISIC_0031752.JPG
break,html.Screen,4_82_1,2023-11-01T17:03:29.783Z,,0,,,NaN,,,,,,false,,,,840428.4000000004,840428.0999999996,,840427.4000000004,,840433.929,8,400,,,
break_continue,html.Screen,4_82_2,2023-11-01T17:03:29.783Z,,0,,,NaN,,,,,,false,,,,840428.9000000004,840428.7999999989,,840428.5000000019,,840433.929,8,400,,,
sequence,flow.Sequence,4_82,2023-11-01T17:03:29.783Z,,0,,,4511.356999998912,completion,,,,,false,,,,840429.0999999996,840428.7999999989,835900.777,835910.2999999989,835917.443,840433.929,8,400,,,
trial,html.Screen,4_83_0,2023-11-01T17:03:34.953Z,,0,2,,5164.870999998879,response,ISIC_0068413.JPG,9,ISIC_6255113.JPG,ISIC_6255113.JPG,false,0,keypress(z),500,845598.9000000004,845598.7999999989,840417.263,840429.2000000011,840433.929,845606.831,8,400,34,,ISIC_0068413.JPG
break,html.Screen,4_83_1,2023-11-01T17:03:34.954Z,,0,,,NaN,,,,,,false,,,,845599.7000000011,845599.4000000004,,845599.0999999996,,845606.831,8,400,,,
break_continue,html.Screen,4_83_2,2023-11-01T17:03:34.954Z,,0,,,NaN,,,,,,false,,,,845599.9000000004,845599.7999999989,,845599.7999999989,,845606.831,8,400,,,
sequence,flow.Sequence,4_83,2023-11-01T17:03:34.954Z,,0,,,5165.870999998879,completion,,,,,false,,,,845600.0999999996,845599.7999999989,840417.263,840429.2000000011,840433.929,845606.831,8,400,,,
trial,html.Screen,4_84_0,2023-11-01T17:03:39.234Z,,0,2,,4272.669000001857,response,ISIC_1525284.JPG,7,ISIC_7482149.JPG,ISIC_1525284.JPG,false,1,keypress(m),500,849879.9000000004,849879.5000000019,845590.165,845600.2000000011,845606.831,849889.993,8,400,35,,ISIC_7482149.JPG
break,html.Screen,4_84_1,2023-11-01T17:03:39.235Z,,0,,,NaN,,,,,,false,,,,849881.0000000019,849880.7000000011,,849880.0999999996,,849889.993,8,400,,,
break_continue,html.Screen,4_84_2,2023-11-01T17:03:39.236Z,,0,,,NaN,,,,,,false,,,,849881.4000000004,849881.2999999989,,849881.0999999996,,849889.993,8,400,,,
sequence,flow.Sequence,4_84,2023-11-01T17:03:39.236Z,,0,,,4274.468999998877,completion,,,,,false,,,,849881.7000000011,849881.2999999989,845590.165,845600.2000000011,845606.831,849889.993,8,400,,,
trial,html.Screen,4_85_0,2023-11-01T17:03:43.638Z,,0,2,,4394.007000001846,response,ISIC_0061479.JPG,5,ISIC_0010266.JPG,ISIC_0010266.JPG,false,0,keypress(z),500,854284.0999999996,854284.0000000019,849873.327,849881.7999999989,849889.993,854288.265,8,400,36,,ISIC_0061479.JPG
break,html.Screen,4_85_1,2023-11-01T17:03:43.639Z,,0,,,NaN,,,,,,false,,,,854284.7000000011,854284.5000000019,,854284.2999999989,,854288.265,8,400,,,
break_continue,html.Screen,4_85_2,2023-11-01T17:03:43.639Z,,0,,,NaN,,,,,,false,,,,854285.0000000019,854285.0000000019,,854284.7999999989,,854288.265,8,400,,,
sequence,flow.Sequence,4_85,2023-11-01T17:03:43.640Z,,0,,,4395.007000001846,completion,,,,,false,,,,854285.0999999996,854285.0000000019,849873.327,849881.7999999989,849889.993,854288.265,8,400,,,
trial,html.Screen,4_86_0,2023-11-01T17:03:48.698Z,,0,2,,5054.635000000359,response,ISIC_5568834.JPG,4,ISIC_0013861.JPG,ISIC_0013861.JPG,false,0,keypress(z),500,859343.2000000011,859342.9000000004,854271.599,854285.2999999989,854288.265,859354.729,8,400,37,,ISIC_5568834.JPG
break,html.Screen,4_86_1,2023-11-01T17:03:48.699Z,,0,,,NaN,,,,,,false,,,,859344.2000000011,859344.0000000019,,859343.5000000019,,859354.729,8,400,,,
break_continue,html.Screen,4_86_2,2023-11-01T17:03:48.699Z,,0,,,NaN,,,,,,false,,,,859344.7000000011,859344.5999999996,,859344.4000000004,,859354.729,8,400,,,
sequence,flow.Sequence,4_86,2023-11-01T17:03:48.699Z,,0,,,5056.3349999996135,completion,,,,,false,,,,859345.0000000019,859344.5999999996,854271.599,854285.2000000011,854288.265,859354.729,8,400,,,
trial,html.Screen,4_87_0,2023-11-01T17:03:52.388Z,,0,2,,3678.6710000003222,response,ISIC_8451869.JPG,6,ISIC_0054329.JPG,ISIC_8451869.JPG,false,1,keypress(m),500,863033.5999999996,863033.4000000004,859338.063,859345.2000000011,859354.729,863045.225,8,400,38,,ISIC_0054329.JPG
break,html.Screen,4_87_1,2023-11-01T17:03:52.389Z,,0,,,NaN,,,,,,false,,,,863035.0000000019,863034.4000000004,,863033.7999999989,,863045.225,8,400,,,
break_continue,html.Screen,4_87_2,2023-11-01T17:03:52.390Z,,0,,,NaN,,,,,,false,,,,863035.7000000011,863035.5000000019,,863035.2000000011,,863045.225,8,400,,,
sequence,flow.Sequence,4_87,2023-11-01T17:03:52.390Z,,0,,,3680.7710000018124,completion,,,,,false,,,,863035.9000000004,863035.5000000019,859338.063,859345.0999999996,859354.729,863045.225,8,400,,,
trial,html.Screen,4_88_0,2023-11-01T17:03:55.277Z,,0,2,,2876.5749999989057,response,ISIC_5509212.JPG,6,ISIC_0025369.JPG,ISIC_5509212.JPG,false,1,keypress(m),500,865922.0999999996,865921.7999999989,863028.559,863036.0999999996,863045.225,865928.443,8,400,39,,ISIC_0025369.JPG
break,html.Screen,4_88_1,2023-11-01T17:03:55.278Z,,0,,,NaN,,,,,,false,,,,865923.2000000011,865922.9000000004,,865922.2999999989,,865928.443,8,400,,,
break_continue,html.Screen,4_88_2,2023-11-01T17:03:55.278Z,,0,,,NaN,,,,,,false,,,,865923.7000000011,865923.5999999996,,865923.2999999989,,865928.443,8,400,,,
sequence,flow.Sequence,4_88,2023-11-01T17:03:55.278Z,,0,,,2878.3749999996508,completion,,,,,false,,,,865924.0000000019,865923.5999999996,863028.559,863036.0000000019,863045.225,865928.443,8,400,,,
trial,html.Screen,4_89_0,2023-11-01T17:04:00.775Z,,0,2,,5491.856999998912,response,ISIC_6026759.JPG,5,ISIC_0011863.JPG,ISIC_6026759.JPG,false,1,keypress(m),500,871420.5000000019,871420.2999999989,865911.777,865924.0999999996,865928.443,871433.774,8,400,40,,ISIC_0011863.JPG
break,html.Screen,4_89_1,2023-11-01T17:04:00.776Z,,0,,,NaN,,,,,,false,,,,871421.5000000019,871421.2000000011,,871420.7000000011,,871433.774,8,400,,,
break_continue,html.Screen,4_89_2,2023-11-01T17:04:00.777Z,,0,,,NaN,,,,,,false,,,,871422.0000000019,871421.9000000004,,871421.7000000011,,871433.774,8,400,,,
sequence,flow.Sequence,4_89,2023-11-01T17:04:00.777Z,,0,,,5493.457000000402,completion,,,,,false,,,,871422.2000000011,871421.9000000004,865911.777,865924.0999999996,865928.443,871433.774,8,400,,,
trial,html.Screen,4_90_0,2023-11-01T17:04:04.507Z,,0,2,,3718.726000001887,response,ISIC_4720306.JPG,6,ISIC_0012435.JPG,ISIC_4720306.JPG,false,1,keypress(m),500,875152.7000000011,875152.5000000019,871417.108,871422.2999999989,871433.774,875166.958,8,400,41,,ISIC_0012435.JPG
break,html.Screen,4_90_1,2023-11-01T17:04:04.508Z,,0,,,NaN,,,,,,false,,,,875153.7999999989,875153.5000000019,,875152.9000000004,,875166.958,8,400,,,
break_continue,html.Screen,4_90_2,2023-11-01T17:04:04.509Z,,0,,,NaN,,,,,,false,,,,875154.2999999989,875154.0999999996,,875153.9000000004,,875166.958,8,400,,,
sequence,flow.Sequence,4_90,2023-11-01T17:04:04.509Z,,0,,,3720.3259999996517,completion,,,,,false,,,,875154.5000000019,875154.0999999996,871417.108,871422.2999999989,871433.774,875166.958,8,400,,,
trial,html.Screen,4_91_0,2023-11-01T17:04:08.244Z,,0,2,,3721.5420000018785,response,ISIC_0028705.JPG,9,ISIC_6754835.JPG,ISIC_6754835.JPG,false,0,keypress(z),500,878888.9000000004,878888.5000000019,875150.292,875154.7000000011,875166.958,878900.142,8,400,42,,ISIC_0028705.JPG
break,html.Screen,4_91_1,2023-11-01T17:04:08.245Z,,0,,,NaN,,,,,,false,,,,878890.0000000019,878889.7999999989,,878889.0999999996,,878900.142,8,400,,,
break_continue,html.Screen,4_91_2,2023-11-01T17:04:08.245Z,,0,,,NaN,,,,,,false,,,,878890.7999999989,878890.5999999996,,878890.4000000004,,878900.142,8,400,,,
sequence,flow.Sequence,4_91,2023-11-01T17:04:08.246Z,,0,,,3723.6419999996433,completion,,,,,false,,,,878891.0000000019,878890.5999999996,875150.292,875154.5999999996,875166.958,878900.142,8,400,,,
trial,html.Screen,4_92_0,2023-11-01T17:04:11.577Z,,0,2,,3321.957999999635,response,ISIC_4322954.JPG,6,ISIC_0067120.JPG,ISIC_0067120.JPG,false,0,keypress(z),500,882222.5000000019,882222.0999999996,878883.476,878891.2000000011,878900.142,882224.891,8,400,43,,ISIC_4322954.JPG
break,html.Screen,4_92_1,2023-11-01T17:04:11.578Z,,0,,,NaN,,,,,,false,,,,882223.5000000019,882223.2000000011,,882222.5999999996,,882224.891,8,400,,,
break_continue,html.Screen,4_92_2,2023-11-01T17:04:11.579Z,,0,,,NaN,,,,,,false,,,,882224.0999999996,882223.9000000004,,882223.5999999996,,882224.891,8,400,,,
sequence,flow.Sequence,4_92,2023-11-01T17:04:11.579Z,,0,,,3323.75800000038,completion,,,,,false,,,,882224.2000000011,882223.9000000004,878883.476,878891.0999999996,878900.142,882224.891,8,400,,,
trial,html.Screen,4_93_0,2023-11-01T17:04:15.423Z,,0,2,,3843.1090000019176,response,ISIC_6634951.JPG,7,ISIC_0000452.JPG,ISIC_0000452.JPG,false,0,keypress(z),500,886068.2999999989,886068.0000000019,882208.225,882224.4000000004,882224.891,886074.737,8,400,44,,ISIC_6634951.JPG
break,html.Screen,4_93_1,2023-11-01T17:04:15.424Z,,0,,,NaN,,,,,,false,,,,886069.4000000004,886069.0999999996,,886068.5999999996,,886074.737,8,400,,,
break_continue,html.Screen,4_93_2,2023-11-01T17:04:15.425Z,,0,,,NaN,,,,,,false,,,,886070.2000000011,886069.9000000004,,886069.5999999996,,886074.737,8,400,,,
sequence,flow.Sequence,4_93,2023-11-01T17:04:15.425Z,,0,,,3845.0090000004275,completion,,,,,false,,,,886070.7000000011,886069.9000000004,882208.225,882224.4000000004,882224.891,886074.737,8,400,,,
trial,html.Screen,4_94_0,2023-11-01T17:04:20.677Z,,0,2,,5246.862999999663,response,ISIC_0028501.JPG,5,ISIC_0063926.JPG,ISIC_0028501.JPG,false,1,keypress(m),500,891321.7999999989,891321.5999999996,886058.071,886071.0000000019,886074.737,891324.527,8,400,45,,ISIC_0063926.JPG
break,html.Screen,4_94_1,2023-11-01T17:04:20.678Z,,0,,,NaN,,,,,,false,,,,891322.9000000004,891322.7000000011,,891322.0999999996,,891324.527,8,400,,,
break_continue,html.Screen,4_94_2,2023-11-01T17:04:20.678Z,,0,,,NaN,,,,,,false,,,,891323.5000000019,891323.4000000004,,891323.0999999996,,891324.527,8,400,,,
sequence,flow.Sequence,4_94,2023-11-01T17:04:20.679Z,,0,,,5248.663000000408,completion,,,,,false,,,,891323.5999999996,891323.4000000004,886058.071,886070.9000000004,886074.737,891324.527,8,400,,,
trial,html.Screen,4_95_0,2023-11-01T17:04:23.839Z,,0,2,,3159.473000001861,response,ISIC_0010773.JPG,7,ISIC_0248628.JPG,ISIC_0248628.JPG,false,0,keypress(z),500,894484.2999999989,894484.0000000019,891307.861,891323.7999999989,891324.527,894494.471,8,400,46,,ISIC_0010773.JPG
break,html.Screen,4_95_1,2023-11-01T17:04:23.840Z,,0,,,NaN,,,,,,false,,,,894485.5000000019,894485.2999999989,,894484.7000000011,,894494.471,8,400,,,
break_continue,html.Screen,4_95_2,2023-11-01T17:04:23.841Z,,0,,,NaN,,,,,,false,,,,894486.0999999996,894486.0000000019,,894485.7000000011,,894494.471,8,400,,,
sequence,flow.Sequence,4_95,2023-11-01T17:04:23.841Z,,0,,,3161.473000001861,completion,,,,,false,,,,894486.2999999989,894486.0000000019,891307.861,891323.7999999989,891324.527,894494.471,8,400,,,
trial,html.Screen,4_96_0,2023-11-01T17:04:28.757Z,,0,2,,4907.328999998863,response,ISIC_4624973.JPG,7,ISIC_0010140.JPG,ISIC_4624973.JPG,false,1,keypress(m),500,899402.0000000019,899401.7999999989,894477.805,894486.5000000019,894494.471,899427.607,8,400,47,,ISIC_0010140.JPG
break,html.Screen,4_96_1,2023-11-01T17:04:28.759Z,,0,,,NaN,,,,,,false,,,,899403.5999999996,899403.4000000004,,899402.2999999989,,899427.607,8,400,,,
break_continue,html.Screen,4_96_2,2023-11-01T17:04:28.759Z,,0,,,NaN,,,,,,false,,,,899404.2000000011,899404.0999999996,,899403.9000000004,,899427.607,8,400,,,
sequence,flow.Sequence,4_96,2023-11-01T17:04:28.759Z,,0,,,4909.628999999608,completion,,,,,false,,,,899404.4000000004,899404.0999999996,894477.805,894486.5000000019,894494.471,899427.607,8,400,,,
trial,html.Screen,4_97_0,2023-11-01T17:04:32.526Z,,0,2,,3743.3930000019027,response,ISIC_0011924.JPG,6,ISIC_0055727.JPG,ISIC_0055727.JPG,false,0,keypress(z),500,903171.2000000011,903171.0000000019,899394.275,899404.5000000019,899427.607,903188.836,8,400,48,,ISIC_0011924.JPG
break,html.Screen,4_97_1,2023-11-01T17:04:32.527Z,,0,,,NaN,,,,,,false,,,,903172.5000000019,903172.2000000011,,903171.5999999996,,903188.836,8,400,,,
break_continue,html.Screen,4_97_2,2023-11-01T17:04:32.528Z,,0,,,NaN,,,,,,false,,,,903173.0000000019,903172.9000000004,,903172.7000000011,,903188.836,8,400,,,
sequence,flow.Sequence,4_97,2023-11-01T17:04:32.528Z,,0,,,3745.2930000004126,completion,,,,,false,,,,903173.2000000011,903172.9000000004,899394.275,899404.5000000019,899427.607,903188.836,8,400,,,
trial,html.Screen,4_98_0,2023-11-01T17:04:35.348Z,,0,2,,2804.3640000011073,response,ISIC_2445475.JPG,6,ISIC_0011505.JPG,ISIC_2445475.JPG,false,1,keypress(m),500,905993.4000000004,905993.2000000011,903172.17,903173.5000000019,903188.836,906005.39,8,400,49,,ISIC_0011505.JPG
break,html.Screen,4_98_1,2023-11-01T17:04:35.350Z,,0,,,NaN,,,,,,false,,,,905994.7999999989,905994.5000000019,,905993.7999999989,,906005.39,8,400,,,
break_continue,html.Screen,4_98_2,2023-11-01T17:04:35.350Z,,0,,,NaN,,,,,,false,,,,905995.2999999989,905995.2000000011,,905994.9000000004,,906005.39,8,400,,,
sequence,flow.Sequence,4_98,2023-11-01T17:04:35.351Z,,0,,,2806.3640000011073,completion,,,,,false,,,,905995.5000000019,905995.2000000011,903172.17,903173.2999999989,903188.836,906005.39,8,400,,,
trial,html.Screen,4_99_0,2023-11-01T17:04:38.442Z,,0,2,,3081.6100000018487,response,ISIC_3568801.JPG,6,ISIC_2670475.JPG,ISIC_3568801.JPG,false,1,keypress(m),500,909087.2999999989,909087.0000000019,905988.724,905995.7000000011,906005.39,909088.6,8,400,50,,ISIC_2670475.JPG
break,html.Screen,4_99_1,2023-11-01T17:04:48.435Z,,0,,,10006.533999999985,timeout,,,,,false,,,,919079.7999999989,919078.468,909071.934,909087.5000000019,909088.6,919095.134,8,400,,,
break_continue,html.Screen,4_99_2,2023-11-01T17:06:30.220Z,,0,,,101745.66599999892,response,,,,,false,continue,keypress(Space),,1020863.2999999989,1020840.7999999989,919078.468,919079.9000000004,919095.134,1020878.474,8,400,,,
sequence,flow.Sequence,4_99,2023-11-01T17:06:30.220Z,,0,,,114835.40999999887,completion,,,,,false,,,,1020863.5000000019,1020840.7999999989,905988.724,905995.5999999996,906005.39,1020878.474,8,400,,,
trial,html.Screen,4_100_0,2023-11-01T17:06:34.785Z,,0,3,,4549.726000001072,response,ISIC_0046671.JPG,8,ISIC_6298726.JPG,ISIC_0046671.JPG,false,1,keypress(m),500,1025428.5000000019,1025428.2000000011,1020861.808,1020863.5999999996,1020878.474,1025431.491,8,400,1,,ISIC_6298726.JPG
break,html.Screen,4_100_1,2023-11-01T17:06:34.786Z,,0,,,NaN,,,,,,false,,,,1025429.7999999989,1025429.4000000004,,1025428.7999999989,,1025431.491,8,400,,,
break_continue,html.Screen,4_100_2,2023-11-01T17:06:34.787Z,,0,,,NaN,,,,,,false,,,,1025430.2000000011,1025430.0999999996,,1025429.9000000004,,1025431.491,8,400,,,
sequence,flow.Sequence,4_100,2023-11-01T17:06:34.787Z,,0,,,4551.625999999582,completion,,,,,false,,,,1025430.5000000019,1025430.0999999996,1020861.808,1020863.5999999996,1020878.474,1025431.491,8,400,,,
trial,html.Screen,4_101_0,2023-11-01T17:06:38.173Z,,0,3,,3384.6089999995893,response,ISIC_0033444.JPG,6,ISIC_5591622.JPG,ISIC_5591622.JPG,false,0,keypress(z),500,1028816.4000000004,1028816.0999999996,1025414.825,1025430.5999999996,1025431.491,1028831.355,8,400,2,,ISIC_0033444.JPG
break,html.Screen,4_101_1,2023-11-01T17:06:38.174Z,,0,,,NaN,,,,,,false,,,,1028817.5000000019,1028817.2000000011,,1028816.7000000011,,1028831.355,8,400,,,
break_continue,html.Screen,4_101_2,2023-11-01T17:06:38.175Z,,0,,,NaN,,,,,,false,,,,1028818.0999999996,1028817.9000000004,,1028817.7000000011,,1028831.355,8,400,,,
sequence,flow.Sequence,4_101,2023-11-01T17:06:38.175Z,,0,,,3386.4090000003343,completion,,,,,false,,,,1028818.2999999989,1028817.9000000004,1025414.825,1025430.5000000019,1025431.491,1028831.355,8,400,,,
trial,html.Screen,4_102_0,2023-11-01T17:06:41.206Z,,0,3,,3018.045000000391,response,ISIC_8848134.JPG,8,ISIC_0238570.JPG,ISIC_8848134.JPG,false,1,keypress(m),500,1031849.5999999996,1031849.4000000004,1028814.689,1028818.4000000004,1028831.355,1031862.808,8,400,3,,ISIC_0238570.JPG
break,html.Screen,4_102_1,2023-11-01T17:06:41.207Z,,0,,,NaN,,,,,,false,,,,1031850.7000000011,1031850.4000000004,,1031849.9000000004,,1031862.808,8,400,,,
break_continue,html.Screen,4_102_2,2023-11-01T17:06:41.208Z,,0,,,NaN,,,,,,false,,,,1031851.2000000011,1031851.0999999996,,1031850.9000000004,,1031862.808,8,400,,,
sequence,flow.Sequence,4_102,2023-11-01T17:06:41.208Z,,0,,,3019.744999999646,completion,,,,,false,,,,1031851.4000000004,1031851.0999999996,1028814.689,1028818.2999999989,1028831.355,1031862.808,8,400,,,
trial,html.Screen,4_103_0,2023-11-01T17:06:44.667Z,,0,3,,3447.2919999996666,response,ISIC_8128335.JPG,6,ISIC_7300631.JPG,ISIC_7300631.JPG,false,0,keypress(z),500,1035310.5000000019,1035310.0999999996,1031846.142,1031851.5999999996,1031862.808,1035329.336,8,400,4,,ISIC_8128335.JPG
break,html.Screen,4_103_1,2023-11-01T17:06:44.668Z,,0,,,NaN,,,,,,false,,,,1035311.5000000019,1035311.2000000011,,1035310.5999999996,,1035329.336,8,400,,,
break_continue,html.Screen,4_103_2,2023-11-01T17:06:44.669Z,,0,,,NaN,,,,,,false,,,,1035312.2000000011,1035312.0000000019,,1035311.5999999996,,1035329.336,8,400,,,
sequence,flow.Sequence,4_103,2023-11-01T17:06:44.669Z,,0,,,3449.1920000019018,completion,,,,,false,,,,1035312.5000000019,1035312.0000000019,1031846.142,1031851.5000000019,1031862.808,1035329.336,8,400,,,
trial,html.Screen,4_104_0,2023-11-01T17:06:48.401Z,,0,3,,3714.8640000011073,response,ISIC_0029572.JPG,6,ISIC_5971574.JPG,ISIC_5971574.JPG,false,0,keypress(z),500,1039044.5000000019,1039044.2000000011,1035312.67,1035312.7999999989,1035329.336,1039045.854,8,400,5,,ISIC_0029572.JPG
break,html.Screen,4_104_1,2023-11-01T17:06:48.402Z,,0,,,NaN,,,,,,false,,,,1039045.5999999996,1039045.2999999989,,1039044.7000000011,,1039045.854,8,400,,,
break_continue,html.Screen,4_104_2,2023-11-01T17:06:48.403Z,,0,,,NaN,,,,,,false,,,,1039046.0999999996,1039046.0000000019,,1039045.7000000011,,1039045.854,8,400,,,
sequence,flow.Sequence,4_104,2023-11-01T17:06:48.403Z,,0,,,3716.6640000018524,completion,,,,,false,,,,1039046.2999999989,1039046.0000000019,1035312.67,1035312.5999999996,1035329.336,1039045.854,8,400,,,
trial,html.Screen,4_105_0,2023-11-01T17:06:52.057Z,,0,3,,3654.445999998832,response,ISIC_0061092.JPG,6,ISIC_0013258.JPG,ISIC_0013258.JPG,false,0,keypress(z),500,1042700.5999999996,1042700.2999999989,1039029.188,1039046.4000000004,1039045.854,1042701.644,8,400,6,,ISIC_0061092.JPG
break,html.Screen,4_105_1,2023-11-01T17:06:52.059Z,,0,,,NaN,,,,,,false,,,,1042701.7999999989,1042701.4000000004,,1042700.7999999989,,1042701.644,8,400,,,
break_continue,html.Screen,4_105_2,2023-11-01T17:06:52.059Z,,0,,,NaN,,,,,,false,,,,1042702.4000000004,1042702.0999999996,,1042701.9000000004,,1042701.644,8,400,,,
sequence,flow.Sequence,4_105,2023-11-01T17:06:52.059Z,,0,,,3656.245999999577,completion,,,,,false,,,,1042702.5000000019,1042702.0999999996,1039029.188,1039046.4000000004,1039045.854,1042701.644,8,400,,,
trial,html.Screen,4_106_0,2023-11-01T17:06:55.329Z,,0,3,,3270.2560000004014,response,ISIC_6640227.JPG,9,ISIC_0207268.JPG,ISIC_6640227.JPG,false,1,keypress(m),500,1045972.2000000011,1045971.9000000004,1042684.978,1042702.5999999996,1042701.644,1045984.846,8,400,7,,ISIC_0207268.JPG
break,html.Screen,4_106_1,2023-11-01T17:06:55.330Z,,0,,,NaN,,,,,,false,,,,1045973.2000000011,1045972.9000000004,,1045972.5000000019,,1045984.846,8,400,,,
break_continue,html.Screen,4_106_2,2023-11-01T17:06:55.331Z,,0,,,NaN,,,,,,false,,,,1045973.9000000004,1045973.7999999989,,1045973.5000000019,,1045984.846,8,400,,,
sequence,flow.Sequence,4_106,2023-11-01T17:06:55.331Z,,0,,,3272.1559999989113,completion,,,,,false,,,,1045974.0999999996,1045973.7999999989,1042684.978,1042702.5999999996,1042701.644,1045984.846,8,400,,,
trial,html.Screen,4_107_0,2023-11-01T17:06:59.145Z,,0,3,,3803.354000001098,response,ISIC_0014486.JPG,6,ISIC_0066637.JPG,ISIC_0014486.JPG,false,1,keypress(m),500,1049788.5999999996,1049788.2000000011,1045968.18,1045974.2000000011,1045984.846,1049801.36,8,400,8,,ISIC_0066637.JPG
break,html.Screen,4_107_1,2023-11-01T17:06:59.146Z,,0,,,NaN,,,,,,false,,,,1049789.5999999996,1049789.2999999989,,1049788.7999999989,,1049801.36,8,400,,,
break_continue,html.Screen,4_107_2,2023-11-01T17:06:59.147Z,,0,,,NaN,,,,,,false,,,,1049790.0999999996,1049790.0000000019,,1049789.7999999989,,1049801.36,8,400,,,
sequence,flow.Sequence,4_107,2023-11-01T17:06:59.147Z,,0,,,3805.154000001843,completion,,,,,false,,,,1049790.2999999989,1049790.0000000019,1045968.18,1045974.2000000011,1045984.846,1049801.36,8,400,,,
trial,html.Screen,4_108_0,2023-11-01T17:07:01.877Z,,0,3,,2718.739999999525,response,ISIC_0061606.JPG,8,ISIC_0011256.JPG,ISIC_0011256.JPG,false,0,keypress(z),500,1052520.4000000004,1052520.0999999996,1049784.694,1049790.4000000004,1049801.36,1052527.579,8,400,9,,ISIC_0061606.JPG
break,html.Screen,4_108_1,2023-11-01T17:07:01.878Z,,0,,,NaN,,,,,,false,,,,1052521.5999999996,1052521.2000000011,,1052520.5999999996,,1052527.579,8,400,,,
break_continue,html.Screen,4_108_2,2023-11-01T17:07:01.879Z,,0,,,NaN,,,,,,false,,,,1052522.0999999996,1052522.0000000019,,1052521.7000000011,,1052527.579,8,400,,,
sequence,flow.Sequence,4_108,2023-11-01T17:07:01.879Z,,0,,,2720.64000000176,completion,,,,,false,,,,1052522.2000000011,1052522.0000000019,1049784.694,1049790.4000000004,1049801.36,1052527.579,8,400,,,
trial,html.Screen,4_109_0,2023-11-01T17:07:04.766Z,,0,3,,2881.020999999717,response,ISIC_4129376.JPG,8,ISIC_1035480.JPG,ISIC_4129376.JPG,false,1,keypress(m),500,1055408.9000000004,1055408.5999999996,1052510.913,1052522.4000000004,1052527.579,1055427.463,8,400,10,,ISIC_1035480.JPG
break,html.Screen,4_109_1,2023-11-01T17:07:04.768Z,,0,,,NaN,,,,,,false,,,,1055411.0999999996,1055410.7999999989,,1055410.2999999989,,1055427.463,8,400,,,
break_continue,html.Screen,4_109_2,2023-11-01T17:07:04.768Z,,0,,,NaN,,,,,,false,,,,1055411.5000000019,1055411.4000000004,,1055411.2999999989,,1055427.463,8,400,,,
sequence,flow.Sequence,4_109,2023-11-01T17:07:04.769Z,,0,,,2883.821000000462,completion,,,,,false,,,,1055411.7999999989,1055411.4000000004,1052510.913,1052522.4000000004,1052527.579,1055427.463,8,400,,,
trial,html.Screen,4_110_0,2023-11-01T17:07:08.772Z,,0,3,,3987.4370000003837,response,ISIC_0056984.JPG,8,ISIC_6717727.JPG,ISIC_6717727.JPG,false,0,keypress(z),500,1059415.2000000011,1059414.9000000004,1055410.797,1055412.0000000019,1055427.463,1059427.303,8,400,11,,ISIC_0056984.JPG
break,html.Screen,4_110_1,2023-11-01T17:07:08.773Z,,0,,,NaN,,,,,,false,,,,1059416.2000000011,1059415.9000000004,,1059415.4000000004,,1059427.303,8,400,,,
break_continue,html.Screen,4_110_2,2023-11-01T17:07:08.774Z,,0,,,NaN,,,,,,false,,,,1059416.7000000011,1059416.5000000019,,1059416.2999999989,,1059427.303,8,400,,,
sequence,flow.Sequence,4_110,2023-11-01T17:07:08.774Z,,0,,,3989.037000001874,completion,,,,,false,,,,1059416.9000000004,1059416.5000000019,1055410.797,1055411.9000000004,1055427.463,1059427.303,8,400,,,
trial,html.Screen,4_111_0,2023-11-01T17:07:11.531Z,,0,3,,2746.796999999555,response,ISIC_1885174.JPG,7,ISIC_0032779.JPG,ISIC_0032779.JPG,false,0,keypress(z),500,1062174.2999999989,1062174.0999999996,1059410.637,1059417.0000000019,1059427.303,1062177.193,8,400,12,,ISIC_1885174.JPG
break,html.Screen,4_111_1,2023-11-01T17:07:11.532Z,,0,,,NaN,,,,,,false,,,,1062175.4000000004,1062175.0999999996,,1062174.5999999996,,1062177.193,8,400,,,
break_continue,html.Screen,4_111_2,2023-11-01T17:07:11.533Z,,0,,,NaN,,,,,,false,,,,1062176.0000000019,1062175.7999999989,,1062175.5999999996,,1062177.193,8,400,,,
sequence,flow.Sequence,4_111,2023-11-01T17:07:11.533Z,,0,,,2748.4969999988098,completion,,,,,false,,,,1062176.2000000011,1062175.7999999989,1059410.637,1059416.9000000004,1059427.303,1062177.193,8,400,,,
trial,html.Screen,4_112_0,2023-11-01T17:07:14.705Z,,0,3,,3171.0070000011474,response,ISIC_7489564.JPG,7,ISIC_0000463.JPG,ISIC_7489564.JPG,false,1,keypress(m),500,1065348.4000000004,1065348.2000000011,1062160.527,1062176.2999999989,1062177.193,1065369.345,8,400,13,,ISIC_0000463.JPG
break,html.Screen,4_112_1,2023-11-01T17:07:14.706Z,,0,,,NaN,,,,,,false,,,,1065349.4000000004,1065349.0999999996,,1065348.5999999996,,1065369.345,8,400,,,
break_continue,html.Screen,4_112_2,2023-11-01T17:07:14.707Z,,0,,,NaN,,,,,,false,,,,1065349.9000000004,1065349.7000000011,,1065349.5000000019,,1065369.345,8,400,,,
sequence,flow.Sequence,4_112,2023-11-01T17:07:14.707Z,,0,,,3172.5070000011474,completion,,,,,false,,,,1065350.0999999996,1065349.7000000011,1062160.527,1062176.2999999989,1062177.193,1065369.345,8,400,,,
trial,html.Screen,4_113_0,2023-11-01T17:07:17.687Z,,0,3,,2960.2549999996554,response,ISIC_0026802.JPG,6,ISIC_8869929.JPG,ISIC_8869929.JPG,false,0,keypress(z),500,1068329.7999999989,1068329.5999999996,1065352.679,1065350.2000000011,1065369.345,1068335.893,8,400,14,,ISIC_0026802.JPG
break,html.Screen,4_113_1,2023-11-01T17:07:17.688Z,,0,,,NaN,,,,,,false,,,,1068330.9000000004,1068330.5000000019,,1068330.0000000019,,1068335.893,8,400,,,
break_continue,html.Screen,4_113_2,2023-11-01T17:07:17.688Z,,0,,,NaN,,,,,,false,,,,1068331.4000000004,1068331.2999999989,,1068331.0999999996,,1068335.893,8,400,,,
sequence,flow.Sequence,4_113,2023-11-01T17:07:17.689Z,,0,,,2961.9549999989104,completion,,,,,false,,,,1068331.5000000019,1068331.2999999989,1065352.679,1065350.0999999996,1065369.345,1068335.893,8,400,,,
trial,html.Screen,4_114_0,2023-11-01T17:07:20.812Z,,0,3,,3118.906999998959,response,ISIC_6882080.JPG,6,ISIC_6616542.JPG,ISIC_6616542.JPG,false,0,keypress(z),500,1071455.0999999996,1071454.7999999989,1068319.227,1068331.7000000011,1068335.893,1071469.101,8,400,15,,ISIC_6882080.JPG
break,html.Screen,4_114_1,2023-11-01T17:07:20.813Z,,0,,,NaN,,,,,,false,,,,1071456.2000000011,1071455.7999999989,,1071455.4000000004,,1071469.101,8,400,,,
break_continue,html.Screen,4_114_2,2023-11-01T17:07:20.814Z,,0,,,NaN,,,,,,false,,,,1071456.5999999996,1071456.5000000019,,1071456.2999999989,,1071469.101,8,400,,,
sequence,flow.Sequence,4_114,2023-11-01T17:07:20.814Z,,0,,,3120.607000001939,completion,,,,,false,,,,1071456.7999999989,1071456.5000000019,1068319.227,1068331.7000000011,1068335.893,1071469.101,8,400,,,
trial,html.Screen,4_115_0,2023-11-01T17:07:23.651Z,,0,3,,2824.4989999996033,response,ISIC_9187876.JPG,6,ISIC_0060525.JPG,ISIC_9187876.JPG,false,1,keypress(m),500,1074293.9000000004,1074293.5999999996,1071452.435,1071456.9000000004,1071469.101,1074298.011,8,400,16,,ISIC_0060525.JPG
break,html.Screen,4_115_1,2023-11-01T17:07:23.652Z,,0,,,NaN,,,,,,false,,,,1074295.0999999996,1074294.9000000004,,1074294.0999999996,,1074298.011,8,400,,,
break_continue,html.Screen,4_115_2,2023-11-01T17:07:23.653Z,,0,,,NaN,,,,,,false,,,,1074295.5999999996,1074295.4000000004,,1074295.2999999989,,1074298.011,8,400,,,
sequence,flow.Sequence,4_115,2023-11-01T17:07:23.653Z,,0,,,2826.2990000003483,completion,,,,,false,,,,1074295.7999999989,1074295.4000000004,1071452.435,1071456.9000000004,1071469.101,1074298.011,8,400,,,
trial,html.Screen,4_116_0,2023-11-01T17:07:27.770Z,,0,3,,4114.989000001922,response,ISIC_0070163.JPG,9,ISIC_8350973.JPG,ISIC_8350973.JPG,false,0,keypress(z),500,1078413.2000000011,1078413.0000000019,1074281.345,1074295.9000000004,1074298.011,1078414.513,8,400,17,,ISIC_0070163.JPG
break,html.Screen,4_116_1,2023-11-01T17:07:27.772Z,,0,,,NaN,,,,,,false,,,,1078414.4000000004,1078414.0000000019,,1078413.5000000019,,1078414.513,8,400,,,
break_continue,html.Screen,4_116_2,2023-11-01T17:07:27.772Z,,0,,,NaN,,,,,,false,,,,1078414.7999999989,1078414.7999999989,,1078414.5000000019,,1078414.513,8,400,,,
sequence,flow.Sequence,4_116,2023-11-01T17:07:27.772Z,,0,,,4116.788999998942,completion,,,,,false,,,,1078415.0000000019,1078414.7999999989,1074281.345,1074295.9000000004,1074298.011,1078414.513,8,400,,,
trial,html.Screen,4_117_0,2023-11-01T17:07:32.870Z,,0,3,,5098.187000001082,response,ISIC_0007749.JPG,8,ISIC_3585381.JPG,ISIC_0007749.JPG,false,1,keypress(m),500,1083513.0000000019,1083512.7000000011,1078397.847,1078415.0999999996,1078414.513,1083522.589,8,400,18,,ISIC_3585381.JPG
break,html.Screen,4_117_1,2023-11-01T17:07:32.871Z,,0,,,NaN,,,,,,false,,,,1083514.0999999996,1083513.7000000011,,1083513.2000000011,,1083522.589,8,400,,,
break_continue,html.Screen,4_117_2,2023-11-01T17:07:32.872Z,,0,,,NaN,,,,,,false,,,,1083514.5999999996,1083514.5000000019,,1083514.2999999989,,1083522.589,8,400,,,
sequence,flow.Sequence,4_117,2023-11-01T17:07:32.872Z,,0,,,5099.987000001827,completion,,,,,false,,,,1083514.7999999989,1083514.5000000019,1078397.847,1078415.0999999996,1078414.513,1083522.589,8,400,,,
trial,html.Screen,4_118_0,2023-11-01T17:07:36.556Z,,0,3,,3675.9110000019427,response,ISIC_0031891.JPG,5,ISIC_0031324.JPG,ISIC_0031324.JPG,false,0,keypress(z),500,1087198.7999999989,1087198.5000000019,1083505.923,1083515.0000000019,1083522.589,1087205.775,8,400,19,,ISIC_0031891.JPG
break,html.Screen,4_118_1,2023-11-01T17:07:36.557Z,,0,,,NaN,,,,,,false,,,,1087199.9000000004,1087199.5999999996,,1087199.0999999996,,1087205.775,8,400,,,
break_continue,html.Screen,4_118_2,2023-11-01T17:07:36.558Z,,0,,,NaN,,,,,,false,,,,1087200.4000000004,1087200.2999999989,,1087200.0999999996,,1087205.775,8,400,,,
sequence,flow.Sequence,4_118,2023-11-01T17:07:36.558Z,,0,,,3677.7109999989625,completion,,,,,false,,,,1087200.7000000011,1087200.2999999989,1083505.923,1083514.9000000004,1083522.589,1087205.775,8,400,,,
trial,html.Screen,4_119_0,2023-11-01T17:07:39.508Z,,0,3,,2944.5249999989755,response,ISIC_0069167.JPG,6,ISIC_0061085.JPG,ISIC_0061085.JPG,false,0,keypress(z),500,1090150.5999999996,1090150.2999999989,1087189.109,1087200.7999999989,1087205.775,1090155.657,8,400,20,,ISIC_0069167.JPG
break,html.Screen,4_119_1,2023-11-01T17:07:39.509Z,,0,,,NaN,,,,,,false,,,,1090151.7999999989,1090151.5000000019,,1090150.9000000004,,1090155.657,8,400,,,
break_continue,html.Screen,4_119_2,2023-11-01T17:07:39.510Z,,0,,,NaN,,,,,,false,,,,1090152.2999999989,1090152.2000000011,,1090151.9000000004,,1090155.657,8,400,,,
sequence,flow.Sequence,4_119,2023-11-01T17:07:39.510Z,,0,,,2946.4250000012107,completion,,,,,false,,,,1090152.5000000019,1090152.2000000011,1087189.109,1087200.7000000011,1087205.775,1090155.657,8,400,,,
trial,html.Screen,4_120_0,2023-11-01T17:07:43.227Z,,0,3,,3713.6429999989923,response,ISIC_1566428.JPG,7,ISIC_0013898.JPG,ISIC_0013898.JPG,false,0,keypress(z),500,1093869.5999999996,1093869.2999999989,1090138.991,1090152.5999999996,1090155.657,1093876.495,8,400,21,,ISIC_1566428.JPG
break,html.Screen,4_120_1,2023-11-01T17:07:43.228Z,,0,,,NaN,,,,,,false,,,,1093870.7000000011,1093870.2999999989,,1093869.7999999989,,1093876.495,8,400,,,
break_continue,html.Screen,4_120_2,2023-11-01T17:07:43.229Z,,0,,,NaN,,,,,,false,,,,1093871.0999999996,1093871.0000000019,,1093870.7999999989,,1093876.495,8,400,,,
sequence,flow.Sequence,4_120,2023-11-01T17:07:43.229Z,,0,,,3715.3430000019725,completion,,,,,false,,,,1093871.2999999989,1093871.0000000019,1090138.991,1090152.5999999996,1090155.657,1093876.495,8,400,,,
trial,html.Screen,4_121_0,2023-11-01T17:07:47.013Z,,0,3,,3778.6049999995157,response,ISIC_0031621.JPG,8,ISIC_0029809.JPG,ISIC_0031621.JPG,false,1,keypress(m),500,1097655.2999999989,1097655.0999999996,1093859.829,1093871.5999999996,1093876.495,1097659.677,8,400,22,,ISIC_0029809.JPG
break,html.Screen,4_121_1,2023-11-01T17:07:47.013Z,,0,,,NaN,,,,,,false,,,,1097655.9000000004,1097655.7000000011,,1097655.4000000004,,1097659.677,8,400,,,
break_continue,html.Screen,4_121_2,2023-11-01T17:07:47.014Z,,0,,,NaN,,,,,,false,,,,1097656.0999999996,1097656.0000000019,,1097655.9000000004,,1097659.677,8,400,,,
sequence,flow.Sequence,4_121,2023-11-01T17:07:47.014Z,,0,,,3779.505000001751,completion,,,,,false,,,,1097656.2000000011,1097656.0000000019,1093859.829,1093871.5000000019,1093876.495,1097659.677,8,400,,,
