sender,sender_type,sender_id,timestamp,meta,,blockNo,condition,duration,ended_on,img_left,img_reveal,img_right,loser,practice,response,response_action,selection_duration,time_commit,time_end,time_render,time_run,time_show,time_switch,total_blocks,total_trials,trialNo,url,winner
informed_consent,html.Screen,0,2023-10-31T03:22:21.275Z,"{""labjs_version"":""20.2.4"",""labjs_build"":{""flavor"":""production"",""commit"":""f5b4a49f956347addd546a832a3327688c2c0fef""},""location"":""https://run.pavlovia.org/MurrayBennett/melanoma-2afc/?participant=66643&platform=sona"",""userAgent"":""Mozilla/5.0 (Windows NT 10.0; Win64; x64) AppleWebKit/537.36 (KHTML, like Gecko) Chrome/118.0.0.0 Safari/537.36"",""platform"":""Win32"",""language"":""en-US"",""locale"":""en-US"",""timeZone"":""America/Chicago"",""timezoneOffset"":300,""screen_width"":1920,""screen_height"":1080,""scroll_width"":1920,""scroll_height"":875,""window_innerWidth"":1920,""window_innerHeight"":923,""devicePixelRatio"":1}",,,,15729.136000071525,response,,,,,,consent,click button,,17710,17709.300000071526,1976.026,1977.7000000476837,1980.164,17715.6,,,,"{""participant"":""66643"",""platform"":""sona""}",
Welcome,html.Screen,1,2023-10-31T03:22:42.666Z,,,,uniform,21384.9,response,,,,,,continue,click button,,39100.700000047684,39100.5,17705.646,17710.100000023842,17715.6,39101.803,,,,,
trial,html.Screen,2_0_0,2023-10-31T03:22:49.997Z,,0,0,,7329.096999976158,response,ISIC_0025593.JPG,,ISIC_0063388.JPG,ISIC_0025593.JPG,true,1,keypress(m),500,46431,46430.89999997616,39096.755,39100.89999997616,39101.803,46431.955,1,6,1,,ISIC_0063388.JPG
sequence,flow.Sequence,2_0,2023-10-31T03:22:49.997Z,,0,,,7329.096999976158,completion,,,,,true,,,,46431.200000047684,46430.89999997616,39096.755,39100.800000071526,39101.803,46431.955,1,6,,,
trial,html.Screen,2_1_0,2023-10-31T03:22:57.886Z,,0,0,,7888.745000047682,response,ISIC_0028178.JPG,,ISIC_1309015.JPG,ISIC_0028178.JPG,true,1,keypress(m),500,54320.800000071526,54320.700000047684,46427.639,46431.200000047684,46431.955,54324.674,1,6,2,,ISIC_1309015.JPG
sequence,flow.Sequence,2_1,2023-10-31T03:22:57.887Z,,0,,,7888.745000047682,completion,,,,,true,,,,54320.89999997616,54320.700000047684,46427.639,46431.200000047684,46431.955,54324.674,1,6,,,
trial,html.Screen,2_2_0,2023-10-31T03:23:01.392Z,,0,0,,3501.725999976159,response,ISIC_0031128.JPG,,ISIC_3314853.JPG,ISIC_0031128.JPG,true,1,keypress(m),500,57826.5,57826.39999997616,54320.356,54321,54324.674,57829.385,1,6,3,,ISIC_3314853.JPG
sequence,flow.Sequence,2_2,2023-10-31T03:23:01.392Z,,0,,,3501.725999976159,completion,,,,,true,,,,57826.60000002384,57826.39999997616,54320.356,54320.89999997616,54324.674,57829.385,1,6,,,
trial,html.Screen,2_3_0,2023-10-31T03:23:05.185Z,,0,0,,3790.114999999998,response,ISIC_0031612.JPG,,ISIC_8980141.JPG,ISIC_0031612.JPG,true,1,keypress(m),500,61619.60000002384,61619.5,57825.118,57826.60000002384,57829.385,61621.489,1,6,4,,ISIC_8980141.JPG
sequence,flow.Sequence,2_3,2023-10-31T03:23:05.185Z,,0,,,3790.114999999998,completion,,,,,true,,,,61619.700000047684,61619.5,57825.118,57826.60000002384,57829.385,61621.489,1,6,,,
trial,html.Screen,2_4_0,2023-10-31T03:23:09.715Z,,0,0,,4527.510999999999,response,ISIC_1197737.JPG,,ISIC_9721604.JPG,ISIC_1197737.JPG,true,1,keypress(m),500,66149.10000002384,66149,61617.53,61619.800000071526,61621.489,66151.263,1,6,5,,ISIC_9721604.JPG
sequence,flow.Sequence,2_4,2023-10-31T03:23:09.715Z,,0,,,4527.510999999999,completion,,,,,true,,,,66149.10000002384,66149,61617.53,61619.800000071526,61621.489,66151.263,1,6,,,
trial,html.Screen,2_5_0,2023-10-31T03:23:12.995Z,,0,0,,3278.3370000238356,response,ISIC_0025346.JPG,,ISIC_0010681.JPG,ISIC_0025346.JPG,true,1,keypress(m),500,69429.70000004768,69429.60000002384,66147.02,66149.20000004768,66151.263,69430.864,1,6,6,,ISIC_0010681.JPG
sequence,flow.Sequence,2_5,2023-10-31T03:23:12.995Z,,0,,,3278.3370000238356,completion,,,,,true,,,,69429.70000004768,69429.60000002384,66147.02,66149.10000002384,66151.263,69430.864,1,6,,,
loop,flow.Loop,2,2023-10-31T03:23:12.995Z,,,,,30327.797000023842,completion,,,,,true,,,,69429.80000007153,69429.60000002384,39096.755,39100.800000071526,39101.803,69430.864,1,6,,,
exp_instructions,html.Screen,3,2023-10-31T03:23:19.470Z,,,,,6473.135999999999,response,,,,,,continue,keypress(Space),,75904.20000004768,75904,69426.687,69429.80000007153,69430.864,75906.764,,,,,
trial,html.Screen,4_0_0,2023-10-31T03:23:24.143Z,,0,1,,4670.736000000004,response,ISIC_5290521.JPG,5,ISIC_7826557.JPG,ISIC_7826557.JPG,false,0,keypress(z),500,80577.60000002384,80577.5,75903.623,75904.30000007153,75906.764,80578.193,8,400,1,,ISIC_5290521.JPG
break,html.Screen,4_0_1,2023-10-31T03:23:24.144Z,,0,,,NaN,,,,,,false,,,,80578.10000002384,80578,,80577.70000004768,,80578.193,8,400,,,
break_continue,html.Screen,4_0_2,2023-10-31T03:23:24.144Z,,0,,,NaN,,,,,,false,,,,80578.30000007153,80578.20000004768,,80578.10000002384,,80578.193,8,400,,,
sequence,flow.Sequence,4_0,2023-10-31T03:23:24.144Z,,0,,,4671.436000047688,completion,,,,,false,,,,80578.39999997616,80578.20000004768,75903.623,75904.30000007153,75906.764,80578.193,8,400,,,
trial,html.Screen,4_1_0,2023-10-31T03:23:28.850Z,,0,1,,4706.307000000001,response,ISIC_9210255.JPG,6,ISIC_0659400.JPG,ISIC_9210255.JPG,false,1,keypress(m),500,85284.60000002384,85284.5,80573.884,80578.39999997616,80578.193,85287.134,8,400,2,,ISIC_0659400.JPG
break,html.Screen,4_1_1,2023-10-31T03:23:28.851Z,,0,,,NaN,,,,,,false,,,,85284.89999997616,85284.80000007153,,85284.70000004768,,85287.134,8,400,,,
break_continue,html.Screen,4_1_2,2023-10-31T03:23:28.851Z,,0,,,NaN,,,,,,false,,,,85285,85285,,85284.89999997616,,85287.134,8,400,,,
sequence,flow.Sequence,4_1,2023-10-31T03:23:28.851Z,,0,,,4706.807000000001,completion,,,,,false,,,,85285,85285,80573.884,80578.39999997616,80578.193,85287.134,8,400,,,
trial,html.Screen,4_2_0,2023-10-31T03:23:33.348Z,,0,1,,4494.66600007152,response,ISIC_0210998.JPG,5,ISIC_0011698.JPG,ISIC_0011698.JPG,false,0,keypress(z),500,89781.80000007153,89781.80000007153,85282.841,85285.10000002384,85287.134,89783.615,8,400,3,,ISIC_0210998.JPG
break,html.Screen,4_2_1,2023-10-31T03:23:33.348Z,,0,,,NaN,,,,,,false,,,,89782.10000002384,89782,,89781.89999997616,,89783.615,8,400,,,
break_continue,html.Screen,4_2_2,2023-10-31T03:23:33.348Z,,0,,,NaN,,,,,,false,,,,89782.20000004768,89782.10000002384,,89782.10000002384,,89783.615,8,400,,,
sequence,flow.Sequence,4_2,2023-10-31T03:23:33.348Z,,0,,,4494.966000023836,completion,,,,,false,,,,89782.20000004768,89782.10000002384,85282.841,85285.10000002384,85287.134,89783.615,8,400,,,
trial,html.Screen,4_3_0,2023-10-31T03:23:38.421Z,,0,1,,5071.884999999995,response,ISIC_9852341.JPG,5,ISIC_0028306.JPG,ISIC_0028306.JPG,false,0,keypress(z),500,94855.60000002384,94855.5,89779.278,89782.30000007153,89783.615,94859.276,8,400,4,,ISIC_9852341.JPG
break,html.Screen,4_3_1,2023-10-31T03:23:38.422Z,,0,,,NaN,,,,,,false,,,,94856,94855.80000007153,,94855.70000004768,,94859.276,8,400,,,
break_continue,html.Screen,4_3_2,2023-10-31T03:23:38.422Z,,0,,,NaN,,,,,,false,,,,94856.10000002384,94856.10000002384,,94856,,94859.276,8,400,,,
sequence,flow.Sequence,4_3,2023-10-31T03:23:38.422Z,,0,,,5072.485000023837,completion,,,,,false,,,,94856.10000002384,94856.10000002384,89779.278,89782.30000007153,89783.615,94859.276,8,400,,,
trial,html.Screen,4_4_0,2023-10-31T03:23:44.135Z,,0,1,,5710.024000071528,response,ISIC_0024688.JPG,4,ISIC_0030281.JPG,ISIC_0030281.JPG,false,0,keypress(z),500,100569.39999997616,100569.30000007153,94854.956,94856.10000002384,94859.276,100572.565,8,400,5,,ISIC_0024688.JPG
break,html.Screen,4_4_1,2023-10-31T03:23:44.136Z,,0,,,NaN,,,,,,false,,,,100569.60000002384,100569.5,,100569.5,,100572.565,8,400,,,
break_continue,html.Screen,4_4_2,2023-10-31T03:23:44.136Z,,0,,,NaN,,,,,,false,,,,100569.70000004768,100569.70000004768,,100569.60000002384,,100572.565,8,400,,,
sequence,flow.Sequence,4_4,2023-10-31T03:23:44.136Z,,0,,,5710.424000047686,completion,,,,,false,,,,100569.80000007153,100569.70000004768,94854.956,94856.10000002384,94859.276,100572.565,8,400,,,
trial,html.Screen,4_5_0,2023-10-31T03:23:49.082Z,,0,1,,4943.0350000238395,response,ISIC_0627979.JPG,5,ISIC_1720840.JPG,ISIC_1720840.JPG,false,0,keypress(z),500,105515.60000002384,105515.60000002384,100568.229,100569.89999997616,100572.565,105519.07,8,400,6,,ISIC_0627979.JPG
break,html.Screen,4_5_1,2023-10-31T03:23:49.082Z,,0,,,NaN,,,,,,false,,,,105515.89999997616,105515.89999997616,,105515.70000004768,,105519.07,8,400,,,
break_continue,html.Screen,4_5_2,2023-10-31T03:23:49.082Z,,0,,,NaN,,,,,,false,,,,105516,105516,,105515.89999997616,,105519.07,8,400,,,
sequence,flow.Sequence,4_5,2023-10-31T03:23:49.082Z,,0,,,4943.434999999998,completion,,,,,false,,,,105516.10000002384,105516,100568.229,100569.80000007153,100572.565,105519.07,8,400,,,
trial,html.Screen,4_6_0,2023-10-31T03:23:59.178Z,,0,1,,10093.230000071519,response,ISIC_0030653.JPG,4,ISIC_0027277.JPG,ISIC_0027277.JPG,false,0,keypress(z),500,115612.30000007153,115612.30000007153,105514.601,105516.10000002384,105519.07,115616.237,8,400,7,,ISIC_0030653.JPG
break,html.Screen,4_6_1,2023-10-31T03:23:59.178Z,,0,,,NaN,,,,,,false,,,,115612.60000002384,115612.5,,115612.39999997616,,115616.237,8,400,,,
break_continue,html.Screen,4_6_2,2023-10-31T03:23:59.179Z,,0,,,NaN,,,,,,false,,,,115612.70000004768,115612.70000004768,,115612.70000004768,,115616.237,8,400,,,
sequence,flow.Sequence,4_6,2023-10-31T03:23:59.179Z,,0,,,10093.630000047677,completion,,,,,false,,,,115612.70000004768,115612.70000004768,105514.601,105516.10000002384,105519.07,115616.237,8,400,,,
trial,html.Screen,4_7_0,2023-10-31T03:24:04.061Z,,0,1,,4878.96300004769,response,ISIC_3157046.JPG,5,ISIC_1543770.JPG,ISIC_3157046.JPG,false,1,keypress(m),500,120495.30000007153,120495.20000004768,115612.025,115612.70000004768,115616.237,120496.039,8,400,8,,ISIC_1543770.JPG
break,html.Screen,4_7_1,2023-10-31T03:24:04.062Z,,0,,,NaN,,,,,,false,,,,120495.70000004768,120495.5,,120495.39999997616,,120496.039,8,400,,,
break_continue,html.Screen,4_7_2,2023-10-31T03:24:04.062Z,,0,,,NaN,,,,,,false,,,,120495.70000004768,120495.70000004768,,120495.70000004768,,120496.039,8,400,,,
sequence,flow.Sequence,4_7,2023-10-31T03:24:04.062Z,,0,,,4879.46300004769,completion,,,,,false,,,,120495.80000007153,120495.70000004768,115612.025,115612.70000004768,115616.237,120496.039,8,400,,,
trial,html.Screen,4_8_0,2023-10-31T03:24:08.783Z,,0,1,,4720.561000023838,response,ISIC_9593940.JPG,5,ISIC_9957389.JPG,ISIC_9593940.JPG,false,1,keypress(m),500,125216.70000004768,125216.60000002384,120492.803,120495.80000007153,120496.039,125217.513,8,400,9,,ISIC_9957389.JPG
break,html.Screen,4_8_1,2023-10-31T03:24:08.783Z,,0,,,NaN,,,,,,false,,,,125216.89999997616,125216.89999997616,,125216.80000007153,,125217.513,8,400,,,
break_continue,html.Screen,4_8_2,2023-10-31T03:24:08.783Z,,0,,,NaN,,,,,,false,,,,125217.10000002384,125217,,125217,,125217.513,8,400,,,
sequence,flow.Sequence,4_8,2023-10-31T03:24:08.783Z,,0,,,4720.960999999996,completion,,,,,false,,,,125217.10000002384,125217,120492.803,120495.80000007153,120496.039,125217.513,8,400,,,
trial,html.Screen,4_9_0,2023-10-31T03:24:13.345Z,,0,1,,4561.087000023836,response,ISIC_0011526.JPG,5,ISIC_7562175.JPG,ISIC_0011526.JPG,false,1,keypress(m),500,129778.70000004768,129778.60000002384,125213.08,125217.10000002384,125217.513,129780.679,8,400,10,,ISIC_7562175.JPG
break,html.Screen,4_9_1,2023-10-31T03:24:13.345Z,,0,,,NaN,,,,,,false,,,,129778.89999997616,129778.89999997616,,129778.70000004768,,129780.679,8,400,,,
break_continue,html.Screen,4_9_2,2023-10-31T03:24:13.345Z,,0,,,NaN,,,,,,false,,,,129779,129779,,129778.89999997616,,129780.679,8,400,,,
sequence,flow.Sequence,4_9,2023-10-31T03:24:13.345Z,,0,,,4561.486999999994,completion,,,,,false,,,,129779,129779,125213.08,125217.10000002384,125217.513,129780.679,8,400,,,
trial,html.Screen,4_10_0,2023-10-31T03:24:17.922Z,,0,1,,4575.220999976154,response,ISIC_3448546.JPG,5,ISIC_6779421.JPG,ISIC_3448546.JPG,false,1,keypress(m),500,134356,134355.89999997616,129776.299,129779,129780.679,134356.247,8,400,11,,ISIC_6779421.JPG
break,html.Screen,4_10_1,2023-10-31T03:24:17.922Z,,0,,,NaN,,,,,,false,,,,134356.30000007153,134356.20000004768,,134356.10000002384,,134356.247,8,400,,,
break_continue,html.Screen,4_10_2,2023-10-31T03:24:17.922Z,,0,,,NaN,,,,,,false,,,,134356.39999997616,134356.39999997616,,134356.39999997616,,134356.247,8,400,,,
sequence,flow.Sequence,4_10,2023-10-31T03:24:17.922Z,,0,,,4575.720999976154,completion,,,,,false,,,,134356.39999997616,134356.39999997616,129776.299,129779,129780.679,134356.247,8,400,,,
trial,html.Screen,4_11_0,2023-10-31T03:24:23.171Z,,0,1,,5249.252999999997,response,ISIC_0000305.JPG,6,ISIC_7835257.JPG,ISIC_0000305.JPG,false,1,keypress(m),500,139605.5,139605.5,134356.085,134356.39999997616,134356.247,139606.932,8,400,12,,ISIC_7835257.JPG
break,html.Screen,4_11_1,2023-10-31T03:24:23.172Z,,0,,,NaN,,,,,,false,,,,139605.80000007153,139605.80000007153,,139605.60000002384,,139606.932,8,400,,,
break_continue,html.Screen,4_11_2,2023-10-31T03:24:23.172Z,,0,,,NaN,,,,,,false,,,,139605.89999997616,139605.89999997616,,139605.89999997616,,139606.932,8,400,,,
sequence,flow.Sequence,4_11,2023-10-31T03:24:23.172Z,,0,,,5249.652999976155,completion,,,,,false,,,,139606,139605.89999997616,134356.085,134356.39999997616,134356.247,139606.932,8,400,,,
trial,html.Screen,4_12_0,2023-10-31T03:24:28.981Z,,0,1,,5808.467999976157,response,ISIC_0061067.JPG,5,ISIC_0067467.JPG,ISIC_0061067.JPG,false,1,keypress(m),500,145415.5,145415.39999997616,139604.143,139606,139606.932,145416.086,8,400,13,,ISIC_0067467.JPG
break,html.Screen,4_12_1,2023-10-31T03:24:28.982Z,,0,,,NaN,,,,,,false,,,,145415.70000004768,145415.60000002384,,145415.5,,145416.086,8,400,,,
break_continue,html.Screen,4_12_2,2023-10-31T03:24:28.982Z,,0,,,NaN,,,,,,false,,,,145416.10000002384,145416.10000002384,,145416.10000002384,,145416.086,8,400,,,
sequence,flow.Sequence,4_12,2023-10-31T03:24:28.982Z,,0,,,5809.168000023841,completion,,,,,false,,,,145416.20000004768,145416.10000002384,139604.143,139606,139606.932,145416.086,8,400,,,
trial,html.Screen,4_13_0,2023-10-31T03:24:33.544Z,,0,1,,4561.514000023832,response,ISIC_8635853.JPG,6,ISIC_0032723.JPG,ISIC_0032723.JPG,false,0,keypress(z),500,149977.70000004768,149977.60000002384,145413.378,145416.20000004768,145416.086,149979.161,8,400,14,,ISIC_8635853.JPG
break,html.Screen,4_13_1,2023-10-31T03:24:33.544Z,,0,,,NaN,,,,,,false,,,,149977.89999997616,149977.80000007153,,149977.70000004768,,149979.161,8,400,,,
break_continue,html.Screen,4_13_2,2023-10-31T03:24:33.544Z,,0,,,NaN,,,,,,false,,,,149978,149977.89999997616,,149977.89999997616,,149979.161,8,400,,,
sequence,flow.Sequence,4_13,2023-10-31T03:24:33.544Z,,0,,,4561.813999976148,completion,,,,,false,,,,149978,149977.89999997616,145413.378,145416.20000004768,145416.086,149979.161,8,400,,,
trial,html.Screen,4_14_0,2023-10-31T03:24:38.618Z,,0,1,,5072.439000023849,response,ISIC_0058315.JPG,5,ISIC_6373500.JPG,ISIC_0058315.JPG,false,1,keypress(m),500,155051.60000002384,155051.60000002384,149976.804,149978,149979.161,155054.851,8,400,15,,ISIC_6373500.JPG
break,html.Screen,4_14_1,2023-10-31T03:24:38.618Z,,0,,,NaN,,,,,,false,,,,155051.89999997616,155051.89999997616,,155051.70000004768,,155054.851,8,400,,,
break_continue,html.Screen,4_14_2,2023-10-31T03:24:38.618Z,,0,,,NaN,,,,,,false,,,,155052,155051.89999997616,,155051.89999997616,,155054.851,8,400,,,
sequence,flow.Sequence,4_14,2023-10-31T03:24:38.618Z,,0,,,5072.738999976165,completion,,,,,false,,,,155052,155051.89999997616,149976.804,149978,149979.161,155054.851,8,400,,,
trial,html.Screen,4_15_0,2023-10-31T03:24:43.100Z,,0,1,,4478.9490000715305,response,ISIC_0028181.JPG,5,ISIC_2597678.JPG,ISIC_0028181.JPG,false,1,keypress(m),500,159533.80000007153,159533.80000007153,155051.248,155052.10000002384,155054.851,159534.637,8,400,16,,ISIC_2597678.JPG
break,html.Screen,4_15_1,2023-10-31T03:24:43.100Z,,0,,,NaN,,,,,,false,,,,159534.10000002384,159534.10000002384,,159533.89999997616,,159534.637,8,400,,,
break_continue,html.Screen,4_15_2,2023-10-31T03:24:43.100Z,,0,,,NaN,,,,,,false,,,,159534.10000002384,159534.10000002384,,159534.10000002384,,159534.637,8,400,,,
sequence,flow.Sequence,4_15,2023-10-31T03:24:43.100Z,,0,,,4479.249000023847,completion,,,,,false,,,,159534.10000002384,159534.10000002384,155051.248,155052.10000002384,155054.851,159534.637,8,400,,,
trial,html.Screen,4_16_0,2023-10-31T03:24:47.245Z,,0,1,,4144.063000047696,response,ISIC_7732765.JPG,5,ISIC_9696502.JPG,ISIC_7732765.JPG,false,1,keypress(m),500,163678.80000007153,163678.70000004768,159530.408,159534.20000004768,159534.637,163681.04,8,400,17,,ISIC_9696502.JPG
break,html.Screen,4_16_1,2023-10-31T03:24:47.245Z,,0,,,NaN,,,,,,false,,,,163679,163679,,163678.89999997616,,163681.04,8,400,,,
break_continue,html.Screen,4_16_2,2023-10-31T03:24:47.245Z,,0,,,NaN,,,,,,false,,,,163679.10000002384,163679.10000002384,,163679,,163681.04,8,400,,,
sequence,flow.Sequence,4_16,2023-10-31T03:24:47.245Z,,0,,,4144.463000023854,completion,,,,,false,,,,163679.20000004768,163679.10000002384,159530.408,159534.20000004768,159534.637,163681.04,8,400,,,
trial,html.Screen,4_17_0,2023-10-31T03:24:52.175Z,,0,1,,4927.560000023834,response,ISIC_9295267.JPG,6,ISIC_0024694.JPG,ISIC_0024694.JPG,false,0,keypress(z),500,168608.70000004768,168608.60000002384,163676.676,163679.20000004768,163681.04,168610.822,8,400,18,,ISIC_9295267.JPG
break,html.Screen,4_17_1,2023-10-31T03:24:52.175Z,,0,,,NaN,,,,,,false,,,,168609,168608.89999997616,,168608.70000004768,,168610.822,8,400,,,
break_continue,html.Screen,4_17_2,2023-10-31T03:24:52.175Z,,0,,,NaN,,,,,,false,,,,168609,168609,,168609,,168610.822,8,400,,,
sequence,flow.Sequence,4_17,2023-10-31T03:24:52.175Z,,0,,,4927.959999999992,completion,,,,,false,,,,168609,168609,163676.676,163679.20000004768,163681.04,168610.822,8,400,,,
trial,html.Screen,4_18_0,2023-10-31T03:24:58.304Z,,0,1,,6127.678000000014,response,ISIC_4734111.JPG,6,ISIC_0028410.JPG,ISIC_0028410.JPG,false,0,keypress(z),500,174738.60000002384,174738.5,168604.777,168609,168610.822,174740.87,8,400,19,,ISIC_4734111.JPG
break,html.Screen,4_18_1,2023-10-31T03:24:58.305Z,,0,,,NaN,,,,,,false,,,,174738.89999997616,174738.80000007153,,174738.60000002384,,174740.87,8,400,,,
break_continue,html.Screen,4_18_2,2023-10-31T03:24:58.305Z,,0,,,NaN,,,,,,false,,,,174738.89999997616,174738.89999997616,,174738.89999997616,,174740.87,8,400,,,
sequence,flow.Sequence,4_18,2023-10-31T03:24:58.305Z,,0,,,6128.077999976173,completion,,,,,false,,,,174738.89999997616,174738.89999997616,168604.777,168609,168610.822,174740.87,8,400,,,
trial,html.Screen,4_19_0,2023-10-31T03:25:08.482Z,,0,1,,10175.630000000005,response,ISIC_0029736.JPG,5,ISIC_0024865.JPG,ISIC_0024865.JPG,false,0,keypress(z),500,184916.5,184916.5,174736.49,174739,174740.87,184917.166,8,400,20,,ISIC_0029736.JPG
break,html.Screen,4_19_1,2023-10-31T03:25:08.483Z,,0,,,NaN,,,,,,false,,,,184916.70000004768,184916.70000004768,,184916.5,,184917.166,8,400,,,
break_continue,html.Screen,4_19_2,2023-10-31T03:25:08.483Z,,0,,,NaN,,,,,,false,,,,184916.89999997616,184916.89999997616,,184916.80000007153,,184917.166,8,400,,,
sequence,flow.Sequence,4_19,2023-10-31T03:25:08.483Z,,0,,,10176.029999976163,completion,,,,,false,,,,184916.89999997616,184916.89999997616,174736.49,174739,174740.87,184917.166,8,400,,,
trial,html.Screen,4_20_0,2023-10-31T03:25:12.196Z,,0,1,,3713.134000071528,response,ISIC_7858034.JPG,6,ISIC_4062017.JPG,ISIC_4062017.JPG,false,0,keypress(z),500,188630.39999997616,188630.30000007153,184912.989,184916.89999997616,184917.166,188634.329,8,400,21,,ISIC_7858034.JPG
break,html.Screen,4_20_1,2023-10-31T03:25:12.197Z,,0,,,NaN,,,,,,false,,,,188630.70000004768,188630.60000002384,,188630.5,,188634.329,8,400,,,
break_continue,html.Screen,4_20_2,2023-10-31T03:25:12.197Z,,0,,,NaN,,,,,,false,,,,188630.70000004768,188630.70000004768,,188630.70000004768,,188634.329,8,400,,,
sequence,flow.Sequence,4_20,2023-10-31T03:25:12.197Z,,0,,,3713.5340000476863,completion,,,,,false,,,,188630.80000007153,188630.70000004768,184912.989,184916.89999997616,184917.166,188634.329,8,400,,,
trial,html.Screen,4_21_0,2023-10-31T03:25:18.182Z,,0,1,,5981.671000000002,response,ISIC_0011529.JPG,5,ISIC_0013059.JPG,ISIC_0011529.JPG,false,1,keypress(m),500,194616,194616,188629.94,188630.80000007153,188634.329,194618.49,8,400,22,,ISIC_0013059.JPG
break,html.Screen,4_21_1,2023-10-31T03:25:18.182Z,,0,,,NaN,,,,,,false,,,,194616.30000007153,194616.30000007153,,194616.10000002384,,194618.49,8,400,,,
break_continue,html.Screen,4_21_2,2023-10-31T03:25:18.182Z,,0,,,NaN,,,,,,false,,,,194616.30000007153,194616.30000007153,,194616.30000007153,,194618.49,8,400,,,
sequence,flow.Sequence,4_21,2023-10-31T03:25:18.182Z,,0,,,5981.971000071528,completion,,,,,false,,,,194616.39999997616,194616.30000007153,188629.94,188630.80000007153,188634.329,194618.49,8,400,,,
trial,html.Screen,4_22_0,2023-10-31T03:25:21.352Z,,0,1,,3167.5100000000093,response,ISIC_0060972.JPG,6,ISIC_0758797.JPG,ISIC_0060972.JPG,false,1,keypress(m),500,197786.10000002384,197786,194614.273,194616.39999997616,194618.49,197789.723,8,400,23,,ISIC_0758797.JPG
break,html.Screen,4_22_1,2023-10-31T03:25:21.352Z,,0,,,NaN,,,,,,false,,,,197786.39999997616,197786.30000007153,,197786.20000004768,,197789.723,8,400,,,
break_continue,html.Screen,4_22_2,2023-10-31T03:25:21.352Z,,0,,,NaN,,,,,,false,,,,197786.5,197786.5,,197786.39999997616,,197789.723,8,400,,,
sequence,flow.Sequence,4_22,2023-10-31T03:25:21.352Z,,0,,,3168.0100000000093,completion,,,,,false,,,,197786.5,197786.5,194614.273,194616.39999997616,194618.49,197789.723,8,400,,,
trial,html.Screen,4_23_0,2023-10-31T03:25:28.137Z,,0,1,,6781.077000071527,response,ISIC_9936773.JPG,5,ISIC_3449290.JPG,ISIC_9936773.JPG,false,1,keypress(m),500,204571,204570.80000007153,197785.528,197786.5,197789.723,204578.117,8,400,24,,ISIC_3449290.JPG
break,html.Screen,4_23_1,2023-10-31T03:25:28.137Z,,0,,,NaN,,,,,,false,,,,204571.10000002384,204571.10000002384,,204571,,204578.117,8,400,,,
break_continue,html.Screen,4_23_2,2023-10-31T03:25:28.137Z,,0,,,NaN,,,,,,false,,,,204571.20000004768,204571.20000004768,,204571.20000004768,,204578.117,8,400,,,
sequence,flow.Sequence,4_23,2023-10-31T03:25:28.137Z,,0,,,6781.477000047686,completion,,,,,false,,,,204571.30000007153,204571.20000004768,197785.528,197786.5,197789.723,204578.117,8,400,,,
trial,html.Screen,4_24_0,2023-10-31T03:25:33.051Z,,0,1,,4907.083000047685,response,ISIC_3702669.JPG,5,ISIC_0064964.JPG,ISIC_3702669.JPG,false,1,keypress(m),500,209485.30000007153,209485.20000004768,204573.968,204571.30000007153,204578.117,209487.127,8,400,25,,ISIC_0064964.JPG
break,html.Screen,4_24_1,2023-10-31T03:25:33.051Z,,0,,,NaN,,,,,,false,,,,209485.5,209485.5,,209485.39999997616,,209487.127,8,400,,,
break_continue,html.Screen,4_24_2,2023-10-31T03:25:33.051Z,,0,,,NaN,,,,,,false,,,,209485.60000002384,209485.60000002384,,209485.5,,209487.127,8,400,,,
sequence,flow.Sequence,4_24,2023-10-31T03:25:33.051Z,,0,,,4907.4830000238435,completion,,,,,false,,,,209485.60000002384,209485.60000002384,204573.968,204571.30000007153,204578.117,209487.127,8,400,,,
trial,html.Screen,4_25_0,2023-10-31T03:25:36.844Z,,0,1,,3791.073000047676,response,ISIC_0028780.JPG,6,ISIC_0032544.JPG,ISIC_0032544.JPG,false,0,keypress(z),500,213278.30000007153,213278.20000004768,209482.814,209485.60000002384,209487.127,213279.3,8,400,26,,ISIC_0028780.JPG
break,html.Screen,4_25_1,2023-10-31T03:25:36.844Z,,0,,,NaN,,,,,,false,,,,213278.5,213278.39999997616,,213278.30000007153,,213279.3,8,400,,,
break_continue,html.Screen,4_25_2,2023-10-31T03:25:36.845Z,,0,,,NaN,,,,,,false,,,,213278.70000004768,213278.60000002384,,213278.60000002384,,213279.3,8,400,,,
sequence,flow.Sequence,4_25,2023-10-31T03:25:36.845Z,,0,,,3791.473000023834,completion,,,,,false,,,,213278.70000004768,213278.60000002384,209482.814,209485.60000002384,209487.127,213279.3,8,400,,,
trial,html.Screen,4_26_0,2023-10-31T03:25:43.630Z,,0,1,,6784.8000000238535,response,ISIC_0202167.JPG,5,ISIC_8194835.JPG,ISIC_8194835.JPG,false,0,keypress(z),500,220064.20000004768,220064.10000002384,213274.867,213278.70000004768,213279.3,220067.707,8,400,27,,ISIC_0202167.JPG
break,html.Screen,4_26_1,2023-10-31T03:25:43.630Z,,0,,,NaN,,,,,,false,,,,220064.5,220064.39999997616,,220064.30000007153,,220067.707,8,400,,,
break_continue,html.Screen,4_26_2,2023-10-31T03:25:43.630Z,,0,,,NaN,,,,,,false,,,,220064.60000002384,220064.60000002384,,220064.5,,220067.707,8,400,,,
sequence,flow.Sequence,4_26,2023-10-31T03:25:43.630Z,,0,,,6785.3000000238535,completion,,,,,false,,,,220064.60000002384,220064.60000002384,213274.867,213278.70000004768,213279.3,220067.707,8,400,,,
trial,html.Screen,4_27_0,2023-10-31T03:25:46.880Z,,0,1,,3246.393000023847,response,ISIC_7175697.JPG,4,ISIC_0013651.JPG,ISIC_0013651.JPG,false,0,keypress(z),500,223314.10000002384,223314.10000002384,220063.394,220064.60000002384,220067.707,223318.14,8,400,28,,ISIC_7175697.JPG
break,html.Screen,4_27_1,2023-10-31T03:25:46.880Z,,0,,,NaN,,,,,,false,,,,223314.39999997616,223314.30000007153,,223314.20000004768,,223318.14,8,400,,,
break_continue,html.Screen,4_27_2,2023-10-31T03:25:46.880Z,,0,,,NaN,,,,,,false,,,,223314.5,223314.39999997616,,223314.39999997616,,223318.14,8,400,,,
sequence,flow.Sequence,4_27,2023-10-31T03:25:46.880Z,,0,,,3246.6929999761633,completion,,,,,false,,,,223314.5,223314.39999997616,220063.394,220064.60000002384,220067.707,223318.14,8,400,,,
trial,html.Screen,4_28_0,2023-10-31T03:25:56.562Z,,0,1,,9677.859999999986,response,ISIC_0033473.JPG,5,ISIC_4532303.JPG,ISIC_0033473.JPG,false,1,keypress(m),500,232996,232996,223313.957,223314.5,223318.14,232998.657,8,400,29,,ISIC_4532303.JPG
break,html.Screen,4_28_1,2023-10-31T03:25:56.562Z,,0,,,NaN,,,,,,false,,,,232996.30000007153,232996.20000004768,,232996.10000002384,,232998.657,8,400,,,
break_continue,html.Screen,4_28_2,2023-10-31T03:25:56.562Z,,0,,,NaN,,,,,,false,,,,232996.30000007153,232996.30000007153,,232996.30000007153,,232998.657,8,400,,,
sequence,flow.Sequence,4_28,2023-10-31T03:25:56.562Z,,0,,,9678.160000071512,completion,,,,,false,,,,232996.39999997616,232996.30000007153,223313.957,223314.5,223318.14,232998.657,8,400,,,
trial,html.Screen,4_29_0,2023-10-31T03:26:06.435Z,,0,1,,9870.543000047677,response,ISIC_0055361.JPG,5,ISIC_0030575.JPG,ISIC_0030575.JPG,false,0,keypress(z),500,242869.30000007153,242869.20000004768,232995.622,232996.39999997616,232998.657,242874.928,8,400,30,,ISIC_0055361.JPG
break,html.Screen,4_29_1,2023-10-31T03:26:06.435Z,,0,,,NaN,,,,,,false,,,,242869.5,242869.39999997616,,242869.39999997616,,242874.928,8,400,,,
break_continue,html.Screen,4_29_2,2023-10-31T03:26:06.435Z,,0,,,NaN,,,,,,false,,,,242869.60000002384,242869.60000002384,,242869.60000002384,,242874.928,8,400,,,
sequence,flow.Sequence,4_29,2023-10-31T03:26:06.435Z,,0,,,9870.943000023835,completion,,,,,false,,,,242869.60000002384,242869.60000002384,232995.622,232996.39999997616,232998.657,242874.928,8,400,,,
trial,html.Screen,4_30_0,2023-10-31T03:26:17.938Z,,0,1,,11505.700999999972,timeout,ISIC_0070593.JPG,5,ISIC_6385627.JPG,,false,,,500,254372.5,254372.39999997616,242870.755,242869.60000002384,242874.928,254380.629,8,400,31,,
break,html.Screen,4_30_1,2023-10-31T03:26:17.939Z,,0,,,NaN,,,,,,false,,,,254372.70000004768,254372.60000002384,,254372.60000002384,,254380.629,8,400,,,
break_continue,html.Screen,4_30_2,2023-10-31T03:26:17.939Z,,0,,,NaN,,,,,,false,,,,254372.70000004768,254372.70000004768,,254372.70000004768,,254380.629,8,400,,,
sequence,flow.Sequence,4_30,2023-10-31T03:26:17.939Z,,0,,,11497.77200004767,completion,,,,,false,,,,254372.80000007153,254372.70000004768,242870.755,242869.60000002384,242874.928,254380.629,8,400,,,
trial,html.Screen,4_31_0,2023-10-31T03:26:21.219Z,,0,1,,3272.6710000715393,response,ISIC_0070422.JPG,5,ISIC_0027088.JPG,ISIC_0070422.JPG,false,1,keypress(m),500,257653.5,257653.30000007153,254376.476,254372.80000007153,254380.629,257656.102,8,400,32,,ISIC_0027088.JPG
break,html.Screen,4_31_1,2023-10-31T03:26:21.220Z,,0,,,NaN,,,,,,false,,,,257653.70000004768,257653.70000004768,,257653.5,,257656.102,8,400,,,
break_continue,html.Screen,4_31_2,2023-10-31T03:26:21.220Z,,0,,,NaN,,,,,,false,,,,257653.70000004768,257653.70000004768,,257653.70000004768,,257656.102,8,400,,,
sequence,flow.Sequence,4_31,2023-10-31T03:26:21.220Z,,0,,,3273.0710000476975,completion,,,,,false,,,,257653.80000007153,257653.70000004768,254376.476,254372.80000007153,254380.629,257656.102,8,400,,,
trial,html.Screen,4_32_0,2023-10-31T03:26:25.125Z,,0,1,,3903.198000071512,response,ISIC_3728352.JPG,5,ISIC_7251402.JPG,ISIC_7251402.JPG,false,0,keypress(z),500,261559.30000007153,261559.30000007153,257651.75,257653.80000007153,257656.102,261560.76,8,400,33,,ISIC_3728352.JPG
break,html.Screen,4_32_1,2023-10-31T03:26:25.125Z,,0,,,NaN,,,,,,false,,,,261559.60000002384,261559.60000002384,,261559.39999997616,,261560.76,8,400,,,
break_continue,html.Screen,4_32_2,2023-10-31T03:26:25.126Z,,0,,,NaN,,,,,,false,,,,261559.70000004768,261559.70000004768,,261559.60000002384,,261560.76,8,400,,,
sequence,flow.Sequence,4_32,2023-10-31T03:26:25.126Z,,0,,,3903.59800004767,completion,,,,,false,,,,261559.70000004768,261559.70000004768,257651.75,257653.80000007153,257656.102,261560.76,8,400,,,
trial,html.Screen,4_33_0,2023-10-31T03:26:28.935Z,,0,1,,3808.3400000238325,response,ISIC_8222254.JPG,5,ISIC_4243283.JPG,ISIC_8222254.JPG,false,1,keypress(m),500,265369.2000000477,265369.10000002384,261556.566,261559.70000004768,261560.76,265369.602,8,400,34,,ISIC_4243283.JPG
break,html.Screen,4_33_1,2023-10-31T03:26:28.935Z,,0,,,NaN,,,,,,false,,,,265369.39999997616,265369.39999997616,,265369.3000000715,,265369.602,8,400,,,
break_continue,html.Screen,4_33_2,2023-10-31T03:26:28.935Z,,0,,,NaN,,,,,,false,,,,265369.5,265369.39999997616,,265369.39999997616,,265369.602,8,400,,,
sequence,flow.Sequence,4_33,2023-10-31T03:26:28.935Z,,0,,,3808.639999976149,completion,,,,,false,,,,265369.60000002384,265369.39999997616,261556.566,261559.70000004768,261560.76,265369.602,8,400,,,
trial,html.Screen,4_34_0,2023-10-31T03:26:31.688Z,,0,1,,2752.698000071512,response,ISIC_0032473.JPG,5,ISIC_9100283.JPG,ISIC_9100283.JPG,false,0,keypress(z),500,268122.3000000715,268122.3000000715,265369.335,265369.60000002384,265369.602,268124.139,8,400,35,,ISIC_0032473.JPG
break,html.Screen,4_34_1,2023-10-31T03:26:31.688Z,,0,,,NaN,,,,,,false,,,,268122.60000002384,268122.60000002384,,268122.5,,268124.139,8,400,,,
break_continue,html.Screen,4_34_2,2023-10-31T03:26:31.689Z,,0,,,NaN,,,,,,false,,,,268122.7000000477,268122.7000000477,,268122.60000002384,,268124.139,8,400,,,
sequence,flow.Sequence,4_34,2023-10-31T03:26:31.689Z,,0,,,2753.09800004767,completion,,,,,false,,,,268122.7000000477,268122.7000000477,265369.335,265369.60000002384,265369.602,268124.139,8,400,,,
trial,html.Screen,4_35_0,2023-10-31T03:26:34.633Z,,0,1,,2943.161000071501,response,ISIC_7223327.JPG,5,ISIC_4231346.JPG,ISIC_7223327.JPG,false,1,keypress(m),500,271067.39999997616,271067.3000000715,268119.613,268122.8000000715,268124.139,271070.365,8,400,36,,ISIC_4231346.JPG
break,html.Screen,4_35_1,2023-10-31T03:26:34.633Z,,0,,,NaN,,,,,,false,,,,271067.60000002384,271067.60000002384,,271067.39999997616,,271070.365,8,400,,,
break_continue,html.Screen,4_35_2,2023-10-31T03:26:34.634Z,,0,,,NaN,,,,,,false,,,,271067.60000002384,271067.60000002384,,271067.60000002384,,271070.365,8,400,,,
sequence,flow.Sequence,4_35,2023-10-31T03:26:34.634Z,,0,,,2943.461000023817,completion,,,,,false,,,,271067.7000000477,271067.60000002384,268119.613,268122.8000000715,268124.139,271070.365,8,400,,,
trial,html.Screen,4_36_0,2023-10-31T03:26:37.867Z,,0,1,,3230.6350000000093,response,ISIC_0073102.JPG,4,ISIC_0058016.JPG,ISIC_0058016.JPG,false,0,keypress(z),500,274301.2000000477,274301,271066.051,271067.7000000477,271070.365,274304.143,8,400,37,,ISIC_0073102.JPG
break,html.Screen,4_36_1,2023-10-31T03:26:37.867Z,,0,,,NaN,,,,,,false,,,,274301.5,274301.39999997616,,274301.2000000477,,274304.143,8,400,,,
break_continue,html.Screen,4_36_2,2023-10-31T03:26:37.867Z,,0,,,NaN,,,,,,false,,,,274301.60000002384,274301.60000002384,,274301.5,,274304.143,8,400,,,
sequence,flow.Sequence,4_36,2023-10-31T03:26:37.868Z,,0,,,3231.235000023851,completion,,,,,false,,,,274301.7000000477,274301.60000002384,271066.051,271067.7000000477,271070.365,274304.143,8,400,,,
trial,html.Screen,4_37_0,2023-10-31T03:26:41.277Z,,0,1,,3407.45700002386,response,ISIC_7605678.JPG,4,ISIC_9562157.JPG,ISIC_7605678.JPG,false,1,keypress(m),500,277711.60000002384,277711.60000002384,274299.572,274301.7000000477,274304.143,277712.921,8,400,38,,ISIC_9562157.JPG
break,html.Screen,4_37_1,2023-10-31T03:26:41.277Z,,0,,,NaN,,,,,,false,,,,277711.89999997616,277711.89999997616,,277711.7000000477,,277712.921,8,400,,,
break_continue,html.Screen,4_37_2,2023-10-31T03:26:41.277Z,,0,,,NaN,,,,,,false,,,,277712.10000002384,277712,,277712,,277712.921,8,400,,,
sequence,flow.Sequence,4_37,2023-10-31T03:26:41.277Z,,0,,,3407.857000000018,completion,,,,,false,,,,277712.2000000477,277712,274299.572,274301.7000000477,274304.143,277712.921,8,400,,,
trial,html.Screen,4_38_0,2023-10-31T03:26:45.648Z,,0,1,,4369.379000071553,response,ISIC_0010478.JPG,5,ISIC_7492530.JPG,ISIC_0010478.JPG,false,1,keypress(m),500,282082.5,282082.3000000715,277711.83,277712.60000002384,277712.921,282084.34,8,400,39,,ISIC_7492530.JPG
break,html.Screen,4_38_1,2023-10-31T03:26:45.648Z,,0,,,NaN,,,,,,false,,,,282082.7000000477,282082.7000000477,,282082.60000002384,,282084.34,8,400,,,
break_continue,html.Screen,4_38_2,2023-10-31T03:26:45.648Z,,0,,,NaN,,,,,,false,,,,282082.89999997616,282082.8000000715,,282082.8000000715,,282084.34,8,400,,,
sequence,flow.Sequence,4_38,2023-10-31T03:26:45.648Z,,0,,,4369.879000071553,completion,,,,,false,,,,282083,282082.8000000715,277711.83,277712.60000002384,277712.921,282084.34,8,400,,,
trial,html.Screen,4_39_0,2023-10-31T03:26:49.346Z,,0,1,,3696.6599999999744,response,ISIC_0069645.JPG,5,ISIC_0226072.JPG,ISIC_0069645.JPG,false,1,keypress(m),500,285781.10000002384,285781,282080.02,282083,282084.34,285784.83,8,400,40,,ISIC_0226072.JPG
break,html.Screen,4_39_1,2023-10-31T03:26:49.347Z,,0,,,NaN,,,,,,false,,,,285781.5,285781.39999997616,,285781.2000000477,,285784.83,8,400,,,
break_continue,html.Screen,4_39_2,2023-10-31T03:26:49.347Z,,0,,,NaN,,,,,,false,,,,285781.60000002384,285781.60000002384,,285781.5,,285784.83,8,400,,,
sequence,flow.Sequence,4_39,2023-10-31T03:26:49.347Z,,0,,,3697.2600000238162,completion,,,,,false,,,,285781.7000000477,285781.60000002384,282080.02,282083,282084.34,285784.83,8,400,,,
trial,html.Screen,4_40_0,2023-10-31T03:26:53.012Z,,0,1,,3662.1699999999837,response,ISIC_0032462.JPG,5,ISIC_0510617.JPG,ISIC_0510617.JPG,false,0,keypress(z),500,289447.10000002384,289447,285778.85,285781.7000000477,285784.83,289447.832,8,400,41,,ISIC_0032462.JPG
break,html.Screen,4_40_1,2023-10-31T03:26:53.012Z,,0,,,NaN,,,,,,false,,,,289447.3000000715,289447.2000000477,,289447.10000002384,,289447.832,8,400,,,
break_continue,html.Screen,4_40_2,2023-10-31T03:26:53.013Z,,0,,,NaN,,,,,,false,,,,289447.5,289447.5,,289447.3000000715,,289447.832,8,400,,,
sequence,flow.Sequence,4_40,2023-10-31T03:26:53.013Z,,0,,,3662.6699999999837,completion,,,,,false,,,,289447.5,289447.5,285778.85,285781.7000000477,285784.83,289447.832,8,400,,,
trial,html.Screen,4_41_0,2023-10-31T03:26:57.670Z,,0,1,,4657.067999976163,response,ISIC_4252268.JPG,4,ISIC_0033213.JPG,ISIC_4252268.JPG,false,1,keypress(m),500,294105,294104.89999997616,289443.986,289447.5,289447.832,294106.822,8,400,42,,ISIC_0033213.JPG
break,html.Screen,4_41_1,2023-10-31T03:26:57.670Z,,0,,,NaN,,,,,,false,,,,294105.2000000477,294105.10000002384,,294105,,294106.822,8,400,,,
break_continue,html.Screen,4_41_2,2023-10-31T03:26:57.670Z,,0,,,NaN,,,,,,false,,,,294105.3000000715,294105.2000000477,,294105.2000000477,,294106.822,8,400,,,
sequence,flow.Sequence,4_41,2023-10-31T03:26:57.670Z,,0,,,4657.368000047689,completion,,,,,false,,,,294105.3000000715,294105.2000000477,289443.986,289447.5,289447.832,294106.822,8,400,,,
trial,html.Screen,4_42_0,2023-10-31T03:27:02.168Z,,0,1,,4495.97800007154,response,ISIC_4728589.JPG,4,ISIC_9196033.JPG,ISIC_9196033.JPG,false,0,keypress(z),500,298602.8000000715,298602.8000000715,294103.295,294105.3000000715,294106.822,298603.217,8,400,43,,ISIC_4728589.JPG
break,html.Screen,4_42_1,2023-10-31T03:27:02.168Z,,0,,,NaN,,,,,,false,,,,298603.10000002384,298603,,298602.89999997616,,298603.217,8,400,,,
break_continue,html.Screen,4_42_2,2023-10-31T03:27:02.168Z,,0,,,NaN,,,,,,false,,,,298603.10000002384,298603.10000002384,,298603.10000002384,,298603.217,8,400,,,
sequence,flow.Sequence,4_42,2023-10-31T03:27:02.168Z,,0,,,4496.278000023856,completion,,,,,false,,,,298603.10000002384,298603.10000002384,294103.295,294105.3000000715,294106.822,298603.217,8,400,,,
trial,html.Screen,4_43_0,2023-10-31T03:27:05.066Z,,0,1,,2897.682999976154,response,ISIC_0031425.JPG,6,ISIC_0024756.JPG,ISIC_0024756.JPG,false,0,keypress(z),500,301501,301500.89999997616,298600.008,298603.2000000477,298603.217,301503.603,8,400,44,,ISIC_0031425.JPG
break,html.Screen,4_43_1,2023-10-31T03:27:05.066Z,,0,,,NaN,,,,,,false,,,,301501.3000000715,301501.2000000477,,301501.10000002384,,301503.603,8,400,,,
break_continue,html.Screen,4_43_2,2023-10-31T03:27:05.066Z,,0,,,NaN,,,,,,false,,,,301501.3000000715,301501.3000000715,,301501.3000000715,,301503.603,8,400,,,
sequence,flow.Sequence,4_43,2023-10-31T03:27:05.066Z,,0,,,2898.0830000715214,completion,,,,,false,,,,301501.3000000715,301501.3000000715,298600.008,298603.2000000477,298603.217,301503.603,8,400,,,
trial,html.Screen,4_44_0,2023-10-31T03:27:08.796Z,,0,1,,3726.896999999997,response,ISIC_0000398.JPG,5,ISIC_3686179.JPG,ISIC_0000398.JPG,false,1,keypress(m),500,305230.5,305230.5,301499.285,301501.3000000715,301503.603,305233.287,8,400,45,,ISIC_3686179.JPG
break,html.Screen,4_44_1,2023-10-31T03:27:08.796Z,,0,,,NaN,,,,,,false,,,,305230.7000000477,305230.7000000477,,305230.60000002384,,305233.287,8,400,,,
break_continue,html.Screen,4_44_2,2023-10-31T03:27:08.796Z,,0,,,NaN,,,,,,false,,,,305230.8000000715,305230.8000000715,,305230.8000000715,,305233.287,8,400,,,
sequence,flow.Sequence,4_44,2023-10-31T03:27:08.796Z,,0,,,3727.197000071523,completion,,,,,false,,,,305230.8000000715,305230.8000000715,301499.285,301501.3000000715,301503.603,305233.287,8,400,,,
trial,html.Screen,4_45_0,2023-10-31T03:27:12.237Z,,0,1,,3438.612999976147,response,ISIC_1048077.JPG,5,ISIC_7466175.JPG,ISIC_1048077.JPG,false,1,keypress(m),500,308672,308671.89999997616,305229.066,305230.89999997616,305233.287,308675.397,8,400,46,,ISIC_7466175.JPG
break,html.Screen,4_45_1,2023-10-31T03:27:12.237Z,,0,,,NaN,,,,,,false,,,,308672.3000000715,308672.2000000477,,308672,,308675.397,8,400,,,
break_continue,html.Screen,4_45_2,2023-10-31T03:27:12.237Z,,0,,,NaN,,,,,,false,,,,308672.3000000715,308672.3000000715,,308672.3000000715,,308675.397,8,400,,,
sequence,flow.Sequence,4_45,2023-10-31T03:27:12.237Z,,0,,,3439.0130000715144,completion,,,,,false,,,,308672.39999997616,308672.3000000715,305229.066,305230.89999997616,305233.287,308675.397,8,400,,,
trial,html.Screen,4_46_0,2023-10-31T03:27:16.223Z,,0,1,,3982.8030000476865,response,ISIC_0010618.JPG,5,ISIC_9048840.JPG,ISIC_0010618.JPG,false,1,keypress(m),500,312658.2000000477,312658.2000000477,308671.194,308672.39999997616,308675.397,312659.267,8,400,47,,ISIC_9048840.JPG
break,html.Screen,4_46_1,2023-10-31T03:27:16.223Z,,0,,,NaN,,,,,,false,,,,312658.5,312658.39999997616,,312658.3000000715,,312659.267,8,400,,,
break_continue,html.Screen,4_46_2,2023-10-31T03:27:16.224Z,,0,,,NaN,,,,,,false,,,,312658.60000002384,312658.5,,312658.5,,312659.267,8,400,,,
sequence,flow.Sequence,4_46,2023-10-31T03:27:16.224Z,,0,,,3983.103000000003,completion,,,,,false,,,,312658.60000002384,312658.5,308671.194,308672.39999997616,308675.397,312659.267,8,400,,,
trial,html.Screen,4_47_0,2023-10-31T03:27:19.760Z,,0,1,,3535.8330000238493,response,ISIC_0033640.JPG,5,ISIC_0029609.JPG,ISIC_0029609.JPG,false,0,keypress(z),500,316195.2000000477,316195.10000002384,312654.943,312658.60000002384,312659.267,316197.235,8,400,48,,ISIC_0033640.JPG
break,html.Screen,4_47_1,2023-10-31T03:27:19.760Z,,0,,,NaN,,,,,,false,,,,316195.39999997616,316195.39999997616,,316195.2000000477,,316197.235,8,400,,,
break_continue,html.Screen,4_47_2,2023-10-31T03:27:19.761Z,,0,,,NaN,,,,,,false,,,,316195.5,316195.39999997616,,316195.39999997616,,316197.235,8,400,,,
sequence,flow.Sequence,4_47,2023-10-31T03:27:19.761Z,,0,,,3536.1329999761656,completion,,,,,false,,,,316195.5,316195.39999997616,312654.943,312658.60000002384,312659.267,316197.235,8,400,,,
trial,html.Screen,4_48_0,2023-10-31T03:27:23.362Z,,0,1,,3599.765000000014,response,ISIC_0011649.JPG,5,ISIC_0806303.JPG,ISIC_0806303.JPG,false,0,keypress(z),500,319797.10000002384,319797,316192.924,316195.60000002384,316197.235,319797.708,8,400,49,,ISIC_0011649.JPG
break,html.Screen,4_48_1,2023-10-31T03:27:23.362Z,,0,,,NaN,,,,,,false,,,,319797.2000000477,319797.2000000477,,319797.10000002384,,319797.708,8,400,,,
break_continue,html.Screen,4_48_2,2023-10-31T03:27:23.362Z,,0,,,NaN,,,,,,false,,,,319797.39999997616,319797.39999997616,,319797.3000000715,,319797.708,8,400,,,
sequence,flow.Sequence,4_48,2023-10-31T03:27:23.362Z,,0,,,3600.164999976172,completion,,,,,false,,,,319797.39999997616,319797.39999997616,316192.924,316195.60000002384,316197.235,319797.708,8,400,,,
trial,html.Screen,4_49_0,2023-10-31T03:27:27.172Z,,0,1,,3808.9920000476995,response,ISIC_1955991.JPG,5,ISIC_0027170.JPG,ISIC_1955991.JPG,false,1,keypress(m),500,323606.8000000715,323606.7000000477,319793.517,319797.39999997616,319797.708,323610.725,8,400,50,,ISIC_0027170.JPG
break,html.Screen,4_49_1,2023-10-31T03:27:37.173Z,,0,,,10001.343000000052,timeout,,,,,false,,,,333608.10000002384,333607.897,323606.651,323606.89999997616,323610.725,333612.068,8,400,,,
break_continue,html.Screen,4_49_2,2023-10-31T03:27:41.238Z,,0,,,4058.5320000238135,response,,,,,false,continue,keypress(Space),,337672.89999997616,337670.60000002384,333607.897,333608.2000000477,333612.068,337675.107,8,400,,,
sequence,flow.Sequence,4_49,2023-10-31T03:27:41.238Z,,0,,,17872.892000023858,completion,,,,,false,,,,337672.89999997616,337670.60000002384,319793.517,319797.39999997616,319797.708,337675.107,8,400,,,
trial,html.Screen,4_50_0,2023-10-31T03:27:45.735Z,,0,2,,4494.79299997614,response,ISIC_0028129.JPG,5,ISIC_0014695.JPG,ISIC_0014695.JPG,false,0,keypress(z),500,342169.89999997616,342169.89999997616,337669.751,337673.39999997616,337675.107,342171.543,8,400,1,,ISIC_0028129.JPG
break,html.Screen,4_50_1,2023-10-31T03:27:45.736Z,,0,,,NaN,,,,,,false,,,,342170.2000000477,342170.2000000477,,342170.10000002384,,342171.543,8,400,,,
break_continue,html.Screen,4_50_2,2023-10-31T03:27:45.736Z,,0,,,NaN,,,,,,false,,,,342170.3000000715,342170.3000000715,,342170.2000000477,,342171.543,8,400,,,
sequence,flow.Sequence,4_50,2023-10-31T03:27:45.736Z,,0,,,4495.193000071507,completion,,,,,false,,,,342170.3000000715,342170.3000000715,337669.751,337673.39999997616,337675.107,342171.543,8,400,,,
trial,html.Screen,4_51_0,2023-10-31T03:27:48.809Z,,0,2,,3072.2570000715205,response,ISIC_0011956.JPG,5,ISIC_0527350.JPG,ISIC_0011956.JPG,false,1,keypress(m),500,345243.89999997616,345243.8000000715,342167.22,342170.3000000715,342171.543,345246.979,8,400,2,,ISIC_0527350.JPG
break,html.Screen,4_51_1,2023-10-31T03:27:48.810Z,,0,,,NaN,,,,,,false,,,,345244.10000002384,345244,,345243.89999997616,,345246.979,8,400,,,
break_continue,html.Screen,4_51_2,2023-10-31T03:27:48.810Z,,0,,,NaN,,,,,,false,,,,345244.2000000477,345244.2000000477,,345244.10000002384,,345246.979,8,400,,,
sequence,flow.Sequence,4_51,2023-10-31T03:27:48.810Z,,0,,,3072.6570000476786,completion,,,,,false,,,,345244.3000000715,345244.2000000477,342167.22,342170.3000000715,342171.543,345246.979,8,400,,,
trial,html.Screen,4_52_0,2023-10-31T03:27:52.476Z,,0,2,,3663.12100002385,response,ISIC_4961708.JPG,4,ISIC_0055624.JPG,ISIC_0055624.JPG,false,0,keypress(z),500,348910.2000000477,348910.10000002384,345241.21,345244.3000000715,345246.979,348914.112,8,400,3,,ISIC_4961708.JPG
break,html.Screen,4_52_1,2023-10-31T03:27:52.476Z,,0,,,NaN,,,,,,false,,,,348910.5,348910.39999997616,,348910.3000000715,,348914.112,8,400,,,
break_continue,html.Screen,4_52_2,2023-10-31T03:27:52.476Z,,0,,,NaN,,,,,,false,,,,348910.60000002384,348910.60000002384,,348910.60000002384,,348914.112,8,400,,,
sequence,flow.Sequence,4_52,2023-10-31T03:27:52.476Z,,0,,,3663.62100002385,completion,,,,,false,,,,348910.60000002384,348910.60000002384,345241.21,345244.3000000715,345246.979,348914.112,8,400,,,
trial,html.Screen,4_53_0,2023-10-31T03:27:55.629Z,,0,2,,3149.6880000715028,response,ISIC_7939816.JPG,6,ISIC_3171104.JPG,ISIC_7939816.JPG,false,1,keypress(m),500,352063.8000000715,352063.8000000715,348907.173,348910.60000002384,348914.112,352068.692,8,400,4,,ISIC_3171104.JPG
break,html.Screen,4_53_1,2023-10-31T03:27:55.630Z,,0,,,NaN,,,,,,false,,,,352064.10000002384,352064.10000002384,,352064,,352068.692,8,400,,,
break_continue,html.Screen,4_53_2,2023-10-31T03:27:55.630Z,,0,,,NaN,,,,,,false,,,,352064.2000000477,352064.10000002384,,352064.10000002384,,352068.692,8,400,,,
sequence,flow.Sequence,4_53,2023-10-31T03:27:55.630Z,,0,,,3149.988000023819,completion,,,,,false,,,,352064.2000000477,352064.10000002384,348907.173,348910.60000002384,348914.112,352068.692,8,400,,,
trial,html.Screen,4_54_0,2023-10-31T03:27:58.398Z,,0,2,,2764.2079999761772,response,ISIC_0024221.JPG,5,ISIC_4264600.JPG,ISIC_0024221.JPG,false,1,keypress(m),500,354833,354832.89999997616,352064.528,352064.2000000477,352068.692,354835.733,8,400,5,,ISIC_4264600.JPG
break,html.Screen,4_54_1,2023-10-31T03:27:58.399Z,,0,,,NaN,,,,,,false,,,,354833.2000000477,354833.10000002384,,354833,,354835.733,8,400,,,
break_continue,html.Screen,4_54_2,2023-10-31T03:27:58.399Z,,0,,,NaN,,,,,,false,,,,354833.3000000715,354833.3000000715,,354833.2000000477,,354835.733,8,400,,,
sequence,flow.Sequence,4_54,2023-10-31T03:27:58.399Z,,0,,,2764.6080000715447,completion,,,,,false,,,,354833.3000000715,354833.3000000715,352064.528,352064.2000000477,352068.692,354835.733,8,400,,,
trial,html.Screen,4_55_0,2023-10-31T03:28:03.664Z,,0,2,,5262.467000047676,response,ISIC_7323761.JPG,5,ISIC_6637542.JPG,ISIC_7323761.JPG,false,1,keypress(m),500,360098.3000000715,360098.2000000477,354831.426,354833.3000000715,354835.733,360098.938,8,400,6,,ISIC_6637542.JPG
break,html.Screen,4_55_1,2023-10-31T03:28:03.664Z,,0,,,NaN,,,,,,false,,,,360098.5,360098.5,,360098.3000000715,,360098.938,8,400,,,
break_continue,html.Screen,4_55_2,2023-10-31T03:28:03.664Z,,0,,,NaN,,,,,,false,,,,360098.60000002384,360098.5,,360098.5,,360098.938,8,400,,,
sequence,flow.Sequence,4_55,2023-10-31T03:28:03.664Z,,0,,,5262.766999999993,completion,,,,,false,,,,360098.7000000477,360098.5,354831.426,354833.3000000715,354835.733,360098.938,8,400,,,
trial,html.Screen,4_56_0,2023-10-31T03:28:06.770Z,,0,2,,3105.162000023818,response,ISIC_9842269.JPG,6,ISIC_0025751.JPG,ISIC_0025751.JPG,false,0,keypress(z),500,363204.2000000477,363204.10000002384,360094.779,360098.7000000477,360098.938,363207.696,8,400,7,,ISIC_9842269.JPG
break,html.Screen,4_56_1,2023-10-31T03:28:06.770Z,,0,,,NaN,,,,,,false,,,,363204.39999997616,363204.39999997616,,363204.3000000715,,363207.696,8,400,,,
break_continue,html.Screen,4_56_2,2023-10-31T03:28:06.770Z,,0,,,NaN,,,,,,false,,,,363204.5,363204.5,,363204.5,,363207.696,8,400,,,
sequence,flow.Sequence,4_56,2023-10-31T03:28:06.770Z,,0,,,3105.5619999999763,completion,,,,,false,,,,363204.7000000477,363204.5,360094.779,360098.7000000477,360098.938,363207.696,8,400,,,
trial,html.Screen,4_57_0,2023-10-31T03:28:10.707Z,,0,2,,3934.203999976162,response,ISIC_0029777.JPG,5,ISIC_0315631.JPG,ISIC_0315631.JPG,false,0,keypress(z),500,367141.89999997616,367141.89999997616,363203.375,363204.7000000477,363207.696,367145.753,8,400,8,,ISIC_0029777.JPG
break,html.Screen,4_57_1,2023-10-31T03:28:10.708Z,,0,,,NaN,,,,,,false,,,,367142.2000000477,367142.10000002384,,367142,,367145.753,8,400,,,
break_continue,html.Screen,4_57_2,2023-10-31T03:28:10.708Z,,0,,,NaN,,,,,,false,,,,367142.3000000715,367142.2000000477,,367142.2000000477,,367145.753,8,400,,,
sequence,flow.Sequence,4_57,2023-10-31T03:28:10.708Z,,0,,,3934.5040000476874,completion,,,,,false,,,,367142.3000000715,367142.2000000477,363203.375,363204.7000000477,363207.696,367145.753,8,400,,,
trial,html.Screen,4_58_0,2023-10-31T03:28:14.293Z,,0,2,,3582.0470000714995,response,ISIC_4856536.JPG,5,ISIC_9688119.JPG,ISIC_4856536.JPG,false,1,keypress(m),500,370727.89999997616,370727.8000000715,367141.635,367142.3000000715,367145.753,370729.564,8,400,9,,ISIC_9688119.JPG
break,html.Screen,4_58_1,2023-10-31T03:28:14.294Z,,0,,,NaN,,,,,,false,,,,370728.5,370728.5,,370728.39999997616,,370729.564,8,400,,,
break_continue,html.Screen,4_58_2,2023-10-31T03:28:14.294Z,,0,,,NaN,,,,,,false,,,,370728.60000002384,370728.60000002384,,370728.60000002384,,370729.564,8,400,,,
sequence,flow.Sequence,4_58,2023-10-31T03:28:14.294Z,,0,,,3582.847000023816,completion,,,,,false,,,,370728.7000000477,370728.60000002384,367141.635,367142.3000000715,367145.753,370729.564,8,400,,,
trial,html.Screen,4_59_0,2023-10-31T03:28:18.088Z,,0,2,,3792.6360000476707,response,ISIC_0031741.JPG,5,ISIC_4231346.JPG,ISIC_0031741.JPG,false,1,keypress(m),500,374522.2000000477,374522.2000000477,370725.217,370728.8000000715,370729.564,374525.908,8,400,10,,ISIC_4231346.JPG
break,html.Screen,4_59_1,2023-10-31T03:28:18.088Z,,0,,,NaN,,,,,,false,,,,374522.5,374522.5,,374522.2000000477,,374525.908,8,400,,,
break_continue,html.Screen,4_59_2,2023-10-31T03:28:18.088Z,,0,,,NaN,,,,,,false,,,,374522.60000002384,374522.5,,374522.5,,374525.908,8,400,,,
sequence,flow.Sequence,4_59,2023-10-31T03:28:18.088Z,,0,,,3792.935999999987,completion,,,,,false,,,,374522.60000002384,374522.5,370725.217,370728.7000000477,370729.564,374525.908,8,400,,,
trial,html.Screen,4_60_0,2023-10-31T03:28:22.329Z,,0,2,,4237.092000000004,response,ISIC_0064261.JPG,5,ISIC_0054146.JPG,ISIC_0054146.JPG,false,0,keypress(z),500,378763.10000002384,378763,374519.253,374522.7000000477,374525.908,378763.926,8,400,11,,ISIC_0064261.JPG
break,html.Screen,4_60_1,2023-10-31T03:28:22.329Z,,0,,,NaN,,,,,,false,,,,378763.39999997616,378763.3000000715,,378763.2000000477,,378763.926,8,400,,,
break_continue,html.Screen,4_60_2,2023-10-31T03:28:22.329Z,,0,,,NaN,,,,,,false,,,,378763.39999997616,378763.39999997616,,378763.39999997616,,378763.926,8,400,,,
sequence,flow.Sequence,4_60,2023-10-31T03:28:22.329Z,,0,,,4237.491999976162,completion,,,,,false,,,,378763.5,378763.39999997616,374519.253,374522.7000000477,374525.908,378763.926,8,400,,,
trial,html.Screen,4_61_0,2023-10-31T03:28:25.610Z,,0,2,,3280.774000047706,response,ISIC_1342117.JPG,5,ISIC_0034294.JPG,ISIC_0034294.JPG,false,0,keypress(z),500,382044.7000000477,382044.7000000477,378761.042,378763.5,378763.926,382047.732,8,400,12,,ISIC_1342117.JPG
break,html.Screen,4_61_1,2023-10-31T03:28:25.610Z,,0,,,NaN,,,,,,false,,,,382045,382044.89999997616,,382044.8000000715,,382047.732,8,400,,,
break_continue,html.Screen,4_61_2,2023-10-31T03:28:25.611Z,,0,,,NaN,,,,,,false,,,,382045.10000002384,382045,,382045,,382047.732,8,400,,,
sequence,flow.Sequence,4_61,2023-10-31T03:28:25.611Z,,0,,,3281.0740000000224,completion,,,,,false,,,,382045.10000002384,382045,378761.042,378763.5,378763.926,382047.732,8,400,,,
trial,html.Screen,4_62_0,2023-10-31T03:28:29.899Z,,0,2,,4286.068000071507,response,ISIC_0055996.JPG,4,ISIC_7455460.JPG,ISIC_7455460.JPG,false,0,keypress(z),500,386334,386333.8000000715,382043.632,382045.10000002384,382047.732,386335.786,8,400,13,,ISIC_0055996.JPG
break,html.Screen,4_62_1,2023-10-31T03:28:29.900Z,,0,,,NaN,,,,,,false,,,,386334.2000000477,386334.2000000477,,386334,,386335.786,8,400,,,
break_continue,html.Screen,4_62_2,2023-10-31T03:28:29.900Z,,0,,,NaN,,,,,,false,,,,386334.3000000715,386334.3000000715,,386334.3000000715,,386335.786,8,400,,,
sequence,flow.Sequence,4_62,2023-10-31T03:28:29.900Z,,0,,,4286.568000071507,completion,,,,,false,,,,386334.39999997616,386334.3000000715,382043.632,382045.10000002384,382047.732,386335.786,8,400,,,
trial,html.Screen,4_63_0,2023-10-31T03:28:33.437Z,,0,2,,3535.914000047662,response,ISIC_8869929.JPG,5,ISIC_0010772.JPG,ISIC_0010772.JPG,false,0,keypress(z),500,389871.8000000715,389871.7000000477,386330.765,386334.5,386335.786,389873.806,8,400,14,,ISIC_8869929.JPG
break,html.Screen,4_63_1,2023-10-31T03:28:33.438Z,,0,,,NaN,,,,,,false,,,,389872.10000002384,389872,,389871.89999997616,,389873.806,8,400,,,
break_continue,html.Screen,4_63_2,2023-10-31T03:28:33.438Z,,0,,,NaN,,,,,,false,,,,389872.2000000477,389872.2000000477,,389872.10000002384,,389873.806,8,400,,,
sequence,flow.Sequence,4_63,2023-10-31T03:28:33.438Z,,0,,,3536.414000047662,completion,,,,,false,,,,389872.2000000477,389872.2000000477,386330.765,386334.39999997616,386335.786,389873.806,8,400,,,
trial,html.Screen,4_64_0,2023-10-31T03:28:36.718Z,,0,2,,3278.9940000715433,response,ISIC_9776851.JPG,5,ISIC_0908367.JPG,ISIC_0908367.JPG,false,0,keypress(z),500,393152.89999997616,393152.8000000715,389869.679,389872.2000000477,389873.806,393153.355,8,400,15,,ISIC_9776851.JPG
break,html.Screen,4_64_1,2023-10-31T03:28:36.719Z,,0,,,NaN,,,,,,false,,,,393153.3000000715,393153.2000000477,,393153,,393153.355,8,400,,,
break_continue,html.Screen,4_64_2,2023-10-31T03:28:36.719Z,,0,,,NaN,,,,,,false,,,,393153.3000000715,393153.3000000715,,393153.3000000715,,393153.355,8,400,,,
sequence,flow.Sequence,4_64,2023-10-31T03:28:36.719Z,,0,,,3279.4940000715433,completion,,,,,false,,,,393153.39999997616,393153.3000000715,389869.679,389872.2000000477,389873.806,393153.355,8,400,,,
trial,html.Screen,4_65_0,2023-10-31T03:28:40.015Z,,0,2,,3296.5449999761768,response,ISIC_5884700.JPG,5,ISIC_0000538.JPG,ISIC_0000538.JPG,false,0,keypress(z),500,396449.89999997616,396449.89999997616,393149.132,393153.5,393153.355,396453.8,8,400,16,,ISIC_5884700.JPG
break,html.Screen,4_65_1,2023-10-31T03:28:40.016Z,,0,,,NaN,,,,,,false,,,,396450.3000000715,396450.3000000715,,396450,,396453.8,8,400,,,
break_continue,html.Screen,4_65_2,2023-10-31T03:28:40.016Z,,0,,,NaN,,,,,,false,,,,396450.3000000715,396450.3000000715,,396450.3000000715,,396453.8,8,400,,,
sequence,flow.Sequence,4_65,2023-10-31T03:28:40.016Z,,0,,,3296.945000071544,completion,,,,,false,,,,396450.39999997616,396450.3000000715,393149.132,393153.5,393153.355,396453.8,8,400,,,
trial,html.Screen,4_66_0,2023-10-31T03:28:43.778Z,,0,2,,3758.500000071537,response,ISIC_0062576.JPG,5,ISIC_0008621.JPG,ISIC_0008621.JPG,false,0,keypress(z),500,400212.39999997616,400212.3000000715,396449.596,396450.5,396453.8,400212.636,8,400,17,,ISIC_0062576.JPG
break,html.Screen,4_66_1,2023-10-31T03:28:43.779Z,,0,,,NaN,,,,,,false,,,,400212.7000000477,400212.7000000477,,400212.5,,400212.636,8,400,,,
break_continue,html.Screen,4_66_2,2023-10-31T03:28:43.779Z,,0,,,NaN,,,,,,false,,,,400212.8000000715,400212.8000000715,,400212.8000000715,,400212.636,8,400,,,
sequence,flow.Sequence,4_66,2023-10-31T03:28:43.779Z,,0,,,3759.000000071537,completion,,,,,false,,,,400212.8000000715,400212.8000000715,396449.596,396450.5,396453.8,400212.636,8,400,,,
trial,html.Screen,4_67_0,2023-10-31T03:28:48.852Z,,0,2,,5073.864000000001,response,ISIC_0011264.JPG,5,ISIC_1312827.JPG,ISIC_0011264.JPG,false,1,keypress(m),500,405286.60000002384,405286.5,400208.685,400212.89999997616,400212.636,405288.311,8,400,18,,ISIC_1312827.JPG
break,html.Screen,4_67_1,2023-10-31T03:28:48.853Z,,0,,,NaN,,,,,,false,,,,405286.89999997616,405286.8000000715,,405286.7000000477,,405288.311,8,400,,,
break_continue,html.Screen,4_67_2,2023-10-31T03:28:48.853Z,,0,,,NaN,,,,,,false,,,,405286.89999997616,405286.89999997616,,405286.89999997616,,405288.311,8,400,,,
sequence,flow.Sequence,4_67,2023-10-31T03:28:48.853Z,,0,,,5074.2639999761595,completion,,,,,false,,,,405286.89999997616,405286.89999997616,400208.685,400212.89999997616,400212.636,405288.311,8,400,,,
trial,html.Screen,4_68_0,2023-10-31T03:28:52.246Z,,0,2,,3391.4890000715386,response,ISIC_0026103.JPG,5,ISIC_2161864.JPG,ISIC_0026103.JPG,false,1,keypress(m),500,408679.8000000715,408679.8000000715,405283.037,405287,405288.311,408680.447,8,400,19,,ISIC_2161864.JPG
break,html.Screen,4_68_1,2023-10-31T03:28:52.246Z,,0,,,NaN,,,,,,false,,,,408680,408680,,408679.89999997616,,408680.447,8,400,,,
break_continue,html.Screen,4_68_2,2023-10-31T03:28:52.246Z,,0,,,NaN,,,,,,false,,,,408680.10000002384,408680.10000002384,,408680.10000002384,,408680.447,8,400,,,
sequence,flow.Sequence,4_68,2023-10-31T03:28:52.246Z,,0,,,3391.789000023855,completion,,,,,false,,,,408680.2000000477,408680.10000002384,405283.037,405287,405288.311,408680.447,8,400,,,
trial,html.Screen,4_69_0,2023-10-31T03:28:55.592Z,,0,2,,3345.1530000238563,response,ISIC_0011007.JPG,5,ISIC_0602494.JPG,ISIC_0011007.JPG,false,1,keypress(m),500,412025.7000000477,412025.60000002384,408675.9,408680.2000000477,408680.447,412026.712,8,400,20,,ISIC_0602494.JPG
break,html.Screen,4_69_1,2023-10-31T03:28:55.592Z,,0,,,NaN,,,,,,false,,,,412026.5,412025.89999997616,,412025.8000000715,,412026.712,8,400,,,
break_continue,html.Screen,4_69_2,2023-10-31T03:28:55.592Z,,0,,,NaN,,,,,,false,,,,412026.60000002384,412026.5,,412026.5,,412026.712,8,400,,,
sequence,flow.Sequence,4_69,2023-10-31T03:28:55.592Z,,0,,,3346.0530000000144,completion,,,,,false,,,,412026.60000002384,412026.5,408675.9,408680.2000000477,408680.447,412026.712,8,400,,,
trial,html.Screen,4_70_0,2023-10-31T03:29:00.906Z,,0,2,,5313.888000023842,response,ISIC_0003822.JPG,5,ISIC_4331481.JPG,ISIC_0003822.JPG,false,1,keypress(m),500,417340.60000002384,417340.60000002384,412025.037,412026.60000002384,412026.712,417344.089,8,400,21,,ISIC_4331481.JPG
break,html.Screen,4_70_1,2023-10-31T03:29:00.907Z,,0,,,NaN,,,,,,false,,,,417340.8000000715,417340.7000000477,,417340.7000000477,,417344.089,8,400,,,
break_continue,html.Screen,4_70_2,2023-10-31T03:29:00.907Z,,0,,,NaN,,,,,,false,,,,417340.89999997616,417340.89999997616,,417340.8000000715,,417344.089,8,400,,,
sequence,flow.Sequence,4_70,2023-10-31T03:29:00.907Z,,0,,,5314.187999976159,completion,,,,,false,,,,417340.89999997616,417340.89999997616,412025.037,412026.60000002384,412026.712,417344.089,8,400,,,
trial,html.Screen,4_71_0,2023-10-31T03:29:04.493Z,,0,2,,3582.5110000238637,response,ISIC_0027663.JPG,5,ISIC_0032840.JPG,ISIC_0032840.JPG,false,0,keypress(z),500,420926.8000000715,420926.60000002384,417340.726,417341,417344.089,420927.942,8,400,22,,ISIC_0027663.JPG
break,html.Screen,4_71_1,2023-10-31T03:29:04.493Z,,0,,,NaN,,,,,,false,,,,420927,420927,,420926.8000000715,,420927.942,8,400,,,
break_continue,html.Screen,4_71_2,2023-10-31T03:29:04.493Z,,0,,,NaN,,,,,,false,,,,420927,420927,,420927,,420927.942,8,400,,,
sequence,flow.Sequence,4_71,2023-10-31T03:29:04.493Z,,0,,,3582.911000000022,completion,,,,,false,,,,420927,420927,417340.726,417340.89999997616,417344.089,420927.942,8,400,,,
trial,html.Screen,4_72_0,2023-10-31T03:29:09.615Z,,0,2,,5120.558000000019,response,ISIC_6822870.JPG,5,ISIC_0024811.JPG,ISIC_6822870.JPG,false,1,keypress(m),500,426048.7000000477,426048.5,420924.727,420927.10000002384,420927.942,426049.423,8,400,23,,ISIC_0024811.JPG
break,html.Screen,4_72_1,2023-10-31T03:29:09.615Z,,0,,,NaN,,,,,,false,,,,426048.89999997616,426048.8000000715,,426048.7000000477,,426049.423,8,400,,,
break_continue,html.Screen,4_72_2,2023-10-31T03:29:09.615Z,,0,,,NaN,,,,,,false,,,,426049,426048.89999997616,,426048.89999997616,,426049.423,8,400,,,
sequence,flow.Sequence,4_72,2023-10-31T03:29:09.615Z,,0,,,5120.957999976177,completion,,,,,false,,,,426049,426048.89999997616,420924.727,420927.10000002384,420927.942,426049.423,8,400,,,
trial,html.Screen,4_73_0,2023-10-31T03:29:13.824Z,,0,2,,4208.377000071516,response,ISIC_7532154.JPG,5,ISIC_1883330.JPG,ISIC_7532154.JPG,false,1,keypress(m),500,430257.89999997616,430257.8000000715,426044.757,426049,426049.423,430258.437,8,400,24,,ISIC_1883330.JPG
break,html.Screen,4_73_1,2023-10-31T03:29:13.824Z,,0,,,NaN,,,,,,false,,,,430258.10000002384,430258.10000002384,,430257.89999997616,,430258.437,8,400,,,
break_continue,html.Screen,4_73_2,2023-10-31T03:29:13.825Z,,0,,,NaN,,,,,,false,,,,430258.60000002384,430258.2000000477,,430258.10000002384,,430258.437,8,400,,,
sequence,flow.Sequence,4_73,2023-10-31T03:29:13.825Z,,0,,,4208.777000047674,completion,,,,,false,,,,430258.7000000477,430258.2000000477,426044.757,426049,426049.423,430258.437,8,400,,,
trial,html.Screen,4_74_0,2023-10-31T03:29:17.730Z,,0,2,,3905.962999976182,response,ISIC_0010409.JPG,4,ISIC_5449076.JPG,ISIC_0010409.JPG,false,1,keypress(m),500,434164.5,434164.39999997616,430255.014,430258.8000000715,430258.437,434167.204,8,400,25,,ISIC_5449076.JPG
break,html.Screen,4_74_1,2023-10-31T03:29:17.731Z,,0,,,NaN,,,,,,false,,,,434164.7000000477,434164.7000000477,,434164.60000002384,,434167.204,8,400,,,
break_continue,html.Screen,4_74_2,2023-10-31T03:29:17.731Z,,0,,,NaN,,,,,,false,,,,434164.8000000715,434164.8000000715,,434164.7000000477,,434167.204,8,400,,,
sequence,flow.Sequence,4_74,2023-10-31T03:29:17.731Z,,0,,,3906.3630000715493,completion,,,,,false,,,,434164.89999997616,434164.8000000715,430255.014,430258.8000000715,430258.437,434167.204,8,400,,,
trial,html.Screen,4_75_0,2023-10-31T03:29:22.212Z,,0,2,,4479.195999976131,response,ISIC_0027110.JPG,5,ISIC_0682543.JPG,ISIC_0027110.JPG,false,1,keypress(m),500,438646.5,438646.39999997616,434162.571,434164.89999997616,434167.204,438646.937,8,400,26,,ISIC_0682543.JPG
break,html.Screen,4_75_1,2023-10-31T03:29:22.213Z,,0,,,NaN,,,,,,false,,,,438646.7000000477,438646.60000002384,,438646.5,,438646.937,8,400,,,
break_continue,html.Screen,4_75_2,2023-10-31T03:29:22.213Z,,0,,,NaN,,,,,,false,,,,438646.8000000715,438646.8000000715,,438646.8000000715,,438646.937,8,400,,,
sequence,flow.Sequence,4_75,2023-10-31T03:29:22.213Z,,0,,,4479.596000071499,completion,,,,,false,,,,438646.89999997616,438646.8000000715,434162.571,434164.89999997616,434167.204,438646.937,8,400,,,
trial,html.Screen,4_76_0,2023-10-31T03:29:28.407Z,,0,2,,6193.7630000477075,response,ISIC_9476244.JPG,4,ISIC_0026150.JPG,ISIC_0026150.JPG,false,0,keypress(z),500,444840.89999997616,444840.7000000477,438645.67,438646.89999997616,438646.937,444843.623,8,400,27,,ISIC_9476244.JPG
break,html.Screen,4_76_1,2023-10-31T03:29:28.407Z,,0,,,NaN,,,,,,false,,,,444841.10000002384,444841.10000002384,,444840.89999997616,,444843.623,8,400,,,
break_continue,html.Screen,4_76_2,2023-10-31T03:29:28.407Z,,0,,,NaN,,,,,,false,,,,444841.3000000715,444841.2000000477,,444841.2000000477,,444843.623,8,400,,,
sequence,flow.Sequence,4_76,2023-10-31T03:29:28.407Z,,0,,,6194.2630000477075,completion,,,,,false,,,,444841.3000000715,444841.2000000477,438645.67,438646.89999997616,438646.937,444843.623,8,400,,,
trial,html.Screen,4_77_0,2023-10-31T03:29:31.801Z,,0,2,,3391.0770000476623,response,ISIC_0003052.JPG,5,ISIC_0055048.JPG,ISIC_0055048.JPG,false,0,keypress(z),500,448234.8000000715,448234.7000000477,444839.58,444841.3000000715,444843.623,448235.752,8,400,28,,ISIC_0003052.JPG
break,html.Screen,4_77_1,2023-10-31T03:29:31.801Z,,0,,,NaN,,,,,,false,,,,448235.10000002384,448235,,448234.89999997616,,448235.752,8,400,,,
break_continue,html.Screen,4_77_2,2023-10-31T03:29:31.801Z,,0,,,NaN,,,,,,false,,,,448235.2000000477,448235.10000002384,,448235.10000002384,,448235.752,8,400,,,
sequence,flow.Sequence,4_77,2023-10-31T03:29:31.801Z,,0,,,3391.4770000238204,completion,,,,,false,,,,448235.2000000477,448235.10000002384,444839.58,444841.3000000715,444843.623,448235.752,8,400,,,
trial,html.Screen,4_78_0,2023-10-31T03:29:34.906Z,,0,2,,3104.2480000000214,response,ISIC_0363130.JPG,5,ISIC_0034104.JPG,ISIC_0034104.JPG,false,0,keypress(z),500,451340.10000002384,451340,448231.531,448235.2000000477,448235.752,451344.465,8,400,29,,ISIC_0363130.JPG
break,html.Screen,4_78_1,2023-10-31T03:29:34.906Z,,0,,,NaN,,,,,,false,,,,451340.39999997616,451340.3000000715,,451340.2000000477,,451344.465,8,400,,,
break_continue,html.Screen,4_78_2,2023-10-31T03:29:34.906Z,,0,,,NaN,,,,,,false,,,,451340.5,451340.5,,451340.5,,451344.465,8,400,,,
sequence,flow.Sequence,4_78,2023-10-31T03:29:34.906Z,,0,,,3104.7480000000214,completion,,,,,false,,,,451340.5,451340.5,448231.531,448235.2000000477,448235.752,451344.465,8,400,,,
trial,html.Screen,4_79_0,2023-10-31T03:29:39.788Z,,0,2,,4877.135000023816,response,ISIC_0027063.JPG,5,ISIC_9223156.JPG,ISIC_9223156.JPG,false,0,keypress(z),500,456221.7000000477,456221.60000002384,451340.302,451340.5,451344.465,456224.317,8,400,30,,ISIC_0027063.JPG
break,html.Screen,4_79_1,2023-10-31T03:29:39.788Z,,0,,,NaN,,,,,,false,,,,456222,456221.89999997616,,456221.8000000715,,456224.317,8,400,,,
break_continue,html.Screen,4_79_2,2023-10-31T03:29:39.788Z,,0,,,NaN,,,,,,false,,,,456222,456222,,456222,,456224.317,8,400,,,
sequence,flow.Sequence,4_79,2023-10-31T03:29:39.788Z,,0,,,4877.534999999974,completion,,,,,false,,,,456222.10000002384,456222,451340.302,451340.5,451344.465,456224.317,8,400,,,
trial,html.Screen,4_80_0,2023-10-31T03:29:43.134Z,,0,2,,3343.4830000715447,response,ISIC_2974214.JPG,5,ISIC_0055367.JPG,ISIC_0055367.JPG,false,0,keypress(z),500,459567.8000000715,459567.8000000715,456219.98,456222.10000002384,456224.317,459570.577,8,400,31,,ISIC_2974214.JPG
break,html.Screen,4_80_1,2023-10-31T03:29:43.134Z,,0,,,NaN,,,,,,false,,,,459568.10000002384,459568,,459567.89999997616,,459570.577,8,400,,,
break_continue,html.Screen,4_80_2,2023-10-31T03:29:43.134Z,,0,,,NaN,,,,,,false,,,,459568.10000002384,459568.10000002384,,459568.10000002384,,459570.577,8,400,,,
sequence,flow.Sequence,4_80,2023-10-31T03:29:43.134Z,,0,,,3343.783000023861,completion,,,,,false,,,,459568.2000000477,459568.10000002384,456219.98,456222.10000002384,456224.317,459570.577,8,400,,,
trial,html.Screen,4_81_0,2023-10-31T03:29:46.335Z,,0,2,,3198.5230000238516,response,ISIC_6997433.JPG,5,ISIC_4045323.JPG,ISIC_4045323.JPG,false,0,keypress(z),500,462769.2000000477,462769.10000002384,459566.251,459568.2000000477,459570.577,462771.007,8,400,32,,ISIC_6997433.JPG
break,html.Screen,4_81_1,2023-10-31T03:29:46.335Z,,0,,,NaN,,,,,,false,,,,462769.39999997616,462769.3000000715,,462769.2000000477,,462771.007,8,400,,,
break_continue,html.Screen,4_81_2,2023-10-31T03:29:46.335Z,,0,,,NaN,,,,,,false,,,,462769.5,462769.5,,462769.39999997616,,462771.007,8,400,,,
sequence,flow.Sequence,4_81,2023-10-31T03:29:46.335Z,,0,,,3198.92300000001,completion,,,,,false,,,,462769.5,462769.5,459566.251,459568.2000000477,459570.577,462771.007,8,400,,,
trial,html.Screen,4_82_0,2023-10-31T03:29:50.049Z,,0,2,,3711.9930000000168,response,ISIC_8036544.JPG,6,ISIC_0034246.JPG,ISIC_0034246.JPG,false,0,keypress(z),500,466483,466483,462766.681,462769.5,462771.007,466483.992,8,400,33,,ISIC_8036544.JPG
break,html.Screen,4_82_1,2023-10-31T03:29:50.049Z,,0,,,NaN,,,,,,false,,,,466483.3000000715,466483.3000000715,,466483.10000002384,,466483.992,8,400,,,
break_continue,html.Screen,4_82_2,2023-10-31T03:29:50.049Z,,0,,,NaN,,,,,,false,,,,466483.39999997616,466483.3000000715,,466483.3000000715,,466483.992,8,400,,,
sequence,flow.Sequence,4_82,2023-10-31T03:29:50.049Z,,0,,,3712.2930000715423,completion,,,,,false,,,,466483.39999997616,466483.3000000715,462766.681,462769.5,462771.007,466483.992,8,400,,,
trial,html.Screen,4_83_0,2023-10-31T03:29:53.138Z,,0,2,,3088.5079999999725,response,ISIC_0055404.JPG,5,ISIC_3356355.JPG,ISIC_0055404.JPG,false,1,keypress(m),500,469572.60000002384,469572.5,466479.757,466483.39999997616,466483.992,469576.07,8,400,34,,ISIC_3356355.JPG
break,html.Screen,4_83_1,2023-10-31T03:29:53.139Z,,0,,,NaN,,,,,,false,,,,469572.8000000715,469572.8000000715,,469572.7000000477,,469576.07,8,400,,,
break_continue,html.Screen,4_83_2,2023-10-31T03:29:53.139Z,,0,,,NaN,,,,,,false,,,,469572.89999997616,469572.89999997616,,469572.8000000715,,469576.07,8,400,,,
sequence,flow.Sequence,4_83,2023-10-31T03:29:53.139Z,,0,,,3088.9079999761307,completion,,,,,false,,,,469573,469572.89999997616,466479.757,466483.39999997616,466483.992,469576.07,8,400,,,
trial,html.Screen,4_84_0,2023-10-31T03:29:56.676Z,,0,2,,3534.329999976151,response,ISIC_6155782.JPG,5,ISIC_6829008.JPG,ISIC_6829008.JPG,false,0,keypress(z),500,473110.5,473110.39999997616,469571.907,469573,469576.07,473114.057,8,400,35,,ISIC_6155782.JPG
break,html.Screen,4_84_1,2023-10-31T03:29:56.677Z,,0,,,NaN,,,,,,false,,,,473110.8000000715,473110.7000000477,,473110.60000002384,,473114.057,8,400,,,
break_continue,html.Screen,4_84_2,2023-10-31T03:29:56.677Z,,0,,,NaN,,,,,,false,,,,473110.89999997616,473110.89999997616,,473110.89999997616,,473114.057,8,400,,,
sequence,flow.Sequence,4_84,2023-10-31T03:29:56.677Z,,0,,,3534.829999976151,completion,,,,,false,,,,473110.89999997616,473110.89999997616,469571.907,469573,469576.07,473114.057,8,400,,,
trial,html.Screen,4_85_0,2023-10-31T03:29:59.878Z,,0,2,,3197.5430000238703,response,ISIC_3368468.JPG,5,ISIC_0014695.JPG,ISIC_0014695.JPG,false,0,keypress(z),500,476311.60000002384,476311.60000002384,473106.775,473110.89999997616,473114.057,476314.492,8,400,36,,ISIC_3368468.JPG
break,html.Screen,4_85_1,2023-10-31T03:29:59.878Z,,0,,,NaN,,,,,,false,,,,476311.89999997616,476311.8000000715,,476311.7000000477,,476314.492,8,400,,,
break_continue,html.Screen,4_85_2,2023-10-31T03:29:59.878Z,,0,,,NaN,,,,,,false,,,,476312.3000000715,476311.89999997616,,476311.89999997616,,476314.492,8,400,,,
sequence,flow.Sequence,4_85,2023-10-31T03:29:59.878Z,,0,,,3197.8429999761865,completion,,,,,false,,,,476312.5,476311.89999997616,473106.775,473110.89999997616,473114.057,476314.492,8,400,,,
trial,html.Screen,4_86_0,2023-10-31T03:30:03.495Z,,0,2,,3615.0079999999725,response,ISIC_5581297.JPG,5,ISIC_6673506.JPG,ISIC_5581297.JPG,false,1,keypress(m),500,479929.60000002384,479929.5,476310.637,476312.5,476314.492,479931.628,8,400,37,,ISIC_6673506.JPG
break,html.Screen,4_86_1,2023-10-31T03:30:03.496Z,,0,,,NaN,,,,,,false,,,,479929.8000000715,479929.8000000715,,479929.60000002384,,479931.628,8,400,,,
break_continue,html.Screen,4_86_2,2023-10-31T03:30:03.496Z,,0,,,NaN,,,,,,false,,,,479929.89999997616,479929.89999997616,,479929.8000000715,,479931.628,8,400,,,
sequence,flow.Sequence,4_86,2023-10-31T03:30:03.496Z,,0,,,3615.4079999761307,completion,,,,,false,,,,479930,479929.89999997616,476310.637,476312.5,476314.492,479931.628,8,400,,,
trial,html.Screen,4_87_0,2023-10-31T03:30:06.857Z,,0,2,,3359.771999976132,response,ISIC_1608524.JPG,5,ISIC_0032165.JPG,ISIC_1608524.JPG,false,1,keypress(m),500,483291.5,483291.39999997616,479927.441,479930,479931.628,483294.572,8,400,38,,ISIC_0032165.JPG
break,html.Screen,4_87_1,2023-10-31T03:30:06.858Z,,0,,,NaN,,,,,,false,,,,483291.7000000477,483291.7000000477,,483291.60000002384,,483294.572,8,400,,,
break_continue,html.Screen,4_87_2,2023-10-31T03:30:06.858Z,,0,,,NaN,,,,,,false,,,,483291.8000000715,483291.8000000715,,483291.8000000715,,483294.572,8,400,,,
sequence,flow.Sequence,4_87,2023-10-31T03:30:06.858Z,,0,,,3360.1720000714995,completion,,,,,false,,,,483291.8000000715,483291.8000000715,479927.441,479930,479931.628,483294.572,8,400,,,
trial,html.Screen,4_88_0,2023-10-31T03:30:10.267Z,,0,2,,3406.22800007154,response,ISIC_0476606.JPG,6,ISIC_5273029.JPG,ISIC_5273029.JPG,false,0,keypress(z),500,486700.89999997616,486700.8000000715,483290.19,483291.89999997616,483294.572,486703.392,8,400,39,,ISIC_0476606.JPG
break,html.Screen,4_88_1,2023-10-31T03:30:10.267Z,,0,,,NaN,,,,,,false,,,,486701.10000002384,486701,,486701,,486703.392,8,400,,,
break_continue,html.Screen,4_88_2,2023-10-31T03:30:10.267Z,,0,,,NaN,,,,,,false,,,,486701.2000000477,486701.2000000477,,486701.2000000477,,486703.392,8,400,,,
sequence,flow.Sequence,4_88,2023-10-31T03:30:10.267Z,,0,,,3406.628000047698,completion,,,,,false,,,,486701.2000000477,486701.2000000477,483290.19,483291.89999997616,483294.572,486703.392,8,400,,,
trial,html.Screen,4_89_0,2023-10-31T03:30:13.500Z,,0,2,,3230.6080000000075,response,ISIC_4086323.JPG,6,ISIC_6336926.JPG,ISIC_4086323.JPG,false,1,keypress(m),500,489934,489934,486699.076,486701.3000000715,486703.392,489937.121,8,400,40,,ISIC_6336926.JPG
break,html.Screen,4_89_1,2023-10-31T03:30:13.500Z,,0,,,NaN,,,,,,false,,,,489934.3000000715,489934.3000000715,,489934.2000000477,,489937.121,8,400,,,
break_continue,html.Screen,4_89_2,2023-10-31T03:30:13.500Z,,0,,,NaN,,,,,,false,,,,489934.39999997616,489934.39999997616,,489934.39999997616,,489937.121,8,400,,,
sequence,flow.Sequence,4_89,2023-10-31T03:30:13.500Z,,0,,,3231.0079999761656,completion,,,,,false,,,,489934.5,489934.39999997616,486699.076,486701.3000000715,486703.392,489937.121,8,400,,,
trial,html.Screen,4_90_0,2023-10-31T03:30:16.733Z,,0,2,,3229.979000023857,response,ISIC_1910158.JPG,5,ISIC_5821293.JPG,ISIC_1910158.JPG,false,1,keypress(m),500,493167.3000000715,493167.10000002384,489932.973,489934.5,489937.121,493175.062,8,400,41,,ISIC_5821293.JPG
break,html.Screen,4_90_1,2023-10-31T03:30:16.733Z,,0,,,NaN,,,,,,false,,,,493167.39999997616,493167.39999997616,,493167.3000000715,,493175.062,8,400,,,
break_continue,html.Screen,4_90_2,2023-10-31T03:30:16.733Z,,0,,,NaN,,,,,,false,,,,493167.5,493167.5,,493167.39999997616,,493175.062,8,400,,,
sequence,flow.Sequence,4_90,2023-10-31T03:30:16.733Z,,0,,,3230.3790000000154,completion,,,,,false,,,,493167.5,493167.5,489932.973,489934.5,489937.121,493175.062,8,400,,,
trial,html.Screen,4_91_0,2023-10-31T03:30:19.503Z,,0,2,,2762.1380000477075,response,ISIC_3496800.JPG,5,ISIC_0014366.JPG,ISIC_0014366.JPG,false,0,keypress(z),500,495937.3000000715,495937.2000000477,493170.893,493167.5,493175.062,495942.093,8,400,42,,ISIC_3496800.JPG
break,html.Screen,4_91_1,2023-10-31T03:30:19.503Z,,0,,,NaN,,,,,,false,,,,495937.60000002384,495937.60000002384,,495937.39999997616,,495942.093,8,400,,,
break_continue,html.Screen,4_91_2,2023-10-31T03:30:19.504Z,,0,,,NaN,,,,,,false,,,,495937.7000000477,495937.7000000477,,495937.60000002384,,495942.093,8,400,,,
sequence,flow.Sequence,4_91,2023-10-31T03:30:19.504Z,,0,,,2762.6380000477075,completion,,,,,false,,,,495937.7000000477,495937.7000000477,493170.893,493167.5,493175.062,495942.093,8,400,,,
trial,html.Screen,4_92_0,2023-10-31T03:30:23.297Z,,0,2,,3788.5070000238484,response,ISIC_0067614.JPG,5,ISIC_0024865.JPG,ISIC_0067614.JPG,false,1,keypress(m),500,499730.7000000477,499730.60000002384,495937.938,495937.7000000477,495942.093,499734.248,8,400,43,,ISIC_0024865.JPG
break,html.Screen,4_92_1,2023-10-31T03:30:23.297Z,,0,,,NaN,,,,,,false,,,,499730.89999997616,499730.89999997616,,499730.7000000477,,499734.248,8,400,,,
break_continue,html.Screen,4_92_2,2023-10-31T03:30:23.297Z,,0,,,NaN,,,,,,false,,,,499731.10000002384,499731,,499730.89999997616,,499734.248,8,400,,,
sequence,flow.Sequence,4_92,2023-10-31T03:30:23.297Z,,0,,,3788.9070000000065,completion,,,,,false,,,,499731.10000002384,499731,495937.938,495937.7000000477,495942.093,499734.248,8,400,,,
trial,html.Screen,4_93_0,2023-10-31T03:30:26.994Z,,0,2,,3694.3520000238204,response,ISIC_0012298.JPG,6,ISIC_2858419.JPG,ISIC_0012298.JPG,false,1,keypress(m),500,503428.60000002384,503428.60000002384,499730.076,499731.10000002384,499734.248,503430.597,8,400,44,,ISIC_2858419.JPG
break,html.Screen,4_93_1,2023-10-31T03:30:26.995Z,,0,,,NaN,,,,,,false,,,,503428.8000000715,503428.7000000477,,503428.60000002384,,503430.597,8,400,,,
break_continue,html.Screen,4_93_2,2023-10-31T03:30:26.995Z,,0,,,NaN,,,,,,false,,,,503429,503428.89999997616,,503428.89999997616,,503430.597,8,400,,,
sequence,flow.Sequence,4_93,2023-10-31T03:30:26.995Z,,0,,,3694.6519999761367,completion,,,,,false,,,,503429,503428.89999997616,499730.076,499731.10000002384,499734.248,503430.597,8,400,,,
trial,html.Screen,4_94_0,2023-10-31T03:30:30.756Z,,0,2,,3759.8029999761493,response,ISIC_5537876.JPG,5,ISIC_0033621.JPG,ISIC_0033621.JPG,false,0,keypress(z),500,507190.5,507190.39999997616,503426.359,503429,503430.597,507193.612,8,400,45,,ISIC_5537876.JPG
break,html.Screen,4_94_1,2023-10-31T03:30:30.757Z,,0,,,NaN,,,,,,false,,,,507190.8000000715,507190.8000000715,,507190.7000000477,,507193.612,8,400,,,
break_continue,html.Screen,4_94_2,2023-10-31T03:30:30.757Z,,0,,,NaN,,,,,,false,,,,507191,507190.89999997616,,507190.89999997616,,507193.612,8,400,,,
sequence,flow.Sequence,4_94,2023-10-31T03:30:30.757Z,,0,,,3760.3029999761493,completion,,,,,false,,,,507191,507190.89999997616,503426.359,503429,503430.597,507193.612,8,400,,,
trial,html.Screen,4_95_0,2023-10-31T03:30:33.701Z,,0,2,,2941.887999999977,response,ISIC_2479512.JPG,5,ISIC_0422299.JPG,ISIC_2479512.JPG,false,1,keypress(m),500,510135.60000002384,510135.5,507189.286,507191,507193.612,510139.832,8,400,46,,ISIC_0422299.JPG
break,html.Screen,4_95_1,2023-10-31T03:30:33.702Z,,0,,,NaN,,,,,,false,,,,510135.89999997616,510135.8000000715,,510135.60000002384,,510139.832,8,400,,,
break_continue,html.Screen,4_95_2,2023-10-31T03:30:33.702Z,,0,,,NaN,,,,,,false,,,,510135.89999997616,510135.89999997616,,510135.89999997616,,510139.832,8,400,,,
sequence,flow.Sequence,4_95,2023-10-31T03:30:33.702Z,,0,,,2942.2879999761353,completion,,,,,false,,,,510136,510135.89999997616,507189.286,507191,507193.612,510139.832,8,400,,,
trial,html.Screen,4_96_0,2023-10-31T03:30:36.855Z,,0,2,,3148.768000023847,response,ISIC_7811951.JPG,5,ISIC_2000959.JPG,ISIC_7811951.JPG,false,1,keypress(m),500,513288.7000000477,513288.60000002384,510135.352,510136,510139.832,513294.415,8,400,47,,ISIC_2000959.JPG
break,html.Screen,4_96_1,2023-10-31T03:30:36.855Z,,0,,,NaN,,,,,,false,,,,513288.89999997616,513288.8000000715,,513288.7000000477,,513294.415,8,400,,,
break_continue,html.Screen,4_96_2,2023-10-31T03:30:36.855Z,,0,,,NaN,,,,,,false,,,,513289,513288.89999997616,,513288.89999997616,,513294.415,8,400,,,
sequence,flow.Sequence,4_96,2023-10-31T03:30:36.855Z,,0,,,3149.0679999761633,completion,,,,,false,,,,513289,513288.89999997616,510135.352,510136,510139.832,513294.415,8,400,,,
trial,html.Screen,4_97_0,2023-10-31T03:30:42.024Z,,0,2,,5163.484999976179,response,ISIC_0026558.JPG,5,ISIC_4728968.JPG,ISIC_0026558.JPG,false,1,keypress(m),500,518458,518457.89999997616,513290.242,513289,513294.415,518461.778,8,400,48,,ISIC_4728968.JPG
break,html.Screen,4_97_1,2023-10-31T03:30:42.024Z,,0,,,NaN,,,,,,false,,,,518458.2000000477,518458.10000002384,,518458.10000002384,,518461.778,8,400,,,
break_continue,html.Screen,4_97_2,2023-10-31T03:30:42.024Z,,0,,,NaN,,,,,,false,,,,518458.3000000715,518458.3000000715,,518458.3000000715,,518461.778,8,400,,,
sequence,flow.Sequence,4_97,2023-10-31T03:30:42.024Z,,0,,,5163.8850000715465,completion,,,,,false,,,,518458.3000000715,518458.3000000715,513290.242,513289,513294.415,518461.778,8,400,,,
trial,html.Screen,4_98_0,2023-10-31T03:30:45.049Z,,0,2,,3021.222000000009,response,ISIC_1745182.JPG,5,ISIC_7266604.JPG,ISIC_1745182.JPG,false,1,keypress(m),500,521483.10000002384,521483,518455.913,518458.39999997616,518461.778,521487.178,8,400,49,,ISIC_7266604.JPG
break,html.Screen,4_98_1,2023-10-31T03:30:45.050Z,,0,,,NaN,,,,,,false,,,,521483.89999997616,521483.8000000715,,521483.7000000477,,521487.178,8,400,,,
break_continue,html.Screen,4_98_2,2023-10-31T03:30:45.050Z,,0,,,NaN,,,,,,false,,,,521484.10000002384,521484,,521484,,521487.178,8,400,,,
sequence,flow.Sequence,4_98,2023-10-31T03:30:45.050Z,,0,,,3022.222000000009,completion,,,,,false,,,,521484.10000002384,521484,518455.913,518458.3000000715,518461.778,521487.178,8,400,,,
trial,html.Screen,4_99_0,2023-10-31T03:30:48.075Z,,0,2,,3022.2219999761437,response,ISIC_0028579.JPG,5,ISIC_8010862.JPG,ISIC_0028579.JPG,false,1,keypress(m),500,524509.5,524509.3999999762,521482.743,521484.2000000477,521487.178,524512.589,8,400,50,,ISIC_8010862.JPG
break,html.Screen,4_99_1,2023-10-31T03:30:58.076Z,,0,,,10001.333999999915,timeout,,,,,false,,,,534509.8999999762,534509.789,524508.153,524509.6000000238,524512.589,534513.923,8,400,,,
break_continue,html.Screen,4_99_2,2023-10-31T03:31:01.416Z,,0,,,3332.777000047732,response,,,,,false,continue,keypress(Space),,537850.1000000238,537846.7000000477,534509.789,534510,534513.923,537855.841,8,400,,,
sequence,flow.Sequence,4_99,2023-10-31T03:31:01.416Z,,0,,,16359.52200004767,completion,,,,,false,,,,537850.2000000477,537846.7000000477,521482.743,521484.10000002384,521487.178,537855.841,8,400,,,
trial,html.Screen,4_100_0,2023-10-31T03:31:06.009Z,,0,3,,4587.359000047669,response,ISIC_0033638.JPG,5,ISIC_6912979.JPG,ISIC_6912979.JPG,false,0,keypress(z),500,542443.2000000477,542443.2000000477,537846.733,537850.2000000477,537855.841,542444.162,8,400,1,,ISIC_0033638.JPG
break,html.Screen,4_100_1,2023-10-31T03:31:06.009Z,,0,,,NaN,,,,,,false,,,,542443.6000000238,542443.5,,542443.3999999762,,542444.162,8,400,,,
break_continue,html.Screen,4_100_2,2023-10-31T03:31:06.009Z,,0,,,NaN,,,,,,false,,,,542443.7000000477,542443.6000000238,,542443.6000000238,,542444.162,8,400,,,
sequence,flow.Sequence,4_100,2023-10-31T03:31:06.010Z,,0,,,4587.759000023827,completion,,,,,false,,,,542443.7000000477,542443.6000000238,537846.733,537850.2000000477,537855.841,542444.162,8,400,,,
trial,html.Screen,4_101_0,2023-10-31T03:31:08.987Z,,0,3,,2976.6380000715144,response,ISIC_5628615.JPG,5,ISIC_5502342.JPG,ISIC_5502342.JPG,false,0,keypress(z),500,545420.8999999762,545420.8000000715,542440.014,542443.7000000477,542444.162,545423.71,8,400,2,,ISIC_5628615.JPG
break,html.Screen,4_101_1,2023-10-31T03:31:08.987Z,,0,,,NaN,,,,,,false,,,,545421.1000000238,545421.1000000238,,545421,,545423.71,8,400,,,
break_continue,html.Screen,4_101_2,2023-10-31T03:31:08.987Z,,0,,,NaN,,,,,,false,,,,545421.2000000477,545421.1000000238,,545421.1000000238,,545423.71,8,400,,,
sequence,flow.Sequence,4_101,2023-10-31T03:31:08.987Z,,0,,,2976.9380000238307,completion,,,,,false,,,,545421.2000000477,545421.1000000238,542440.014,542443.7000000477,542444.162,545423.71,8,400,,,
trial,html.Screen,4_102_0,2023-10-31T03:31:13.580Z,,0,3,,4590.390000023879,response,ISIC_1668831.JPG,5,ISIC_0032447.JPG,ISIC_0032447.JPG,false,0,keypress(z),500,550014.3000000715,550014.1000000238,545417.257,545421.3000000715,545423.71,550016.028,8,400,3,,ISIC_1668831.JPG
break,html.Screen,4_102_1,2023-10-31T03:31:13.580Z,,0,,,NaN,,,,,,false,,,,550014.5,550014.5,,550014.3000000715,,550016.028,8,400,,,
break_continue,html.Screen,4_102_2,2023-10-31T03:31:13.580Z,,0,,,NaN,,,,,,false,,,,550014.6000000238,550014.6000000238,,550014.5,,550016.028,8,400,,,
sequence,flow.Sequence,4_102,2023-10-31T03:31:13.580Z,,0,,,4590.890000023879,completion,,,,,false,,,,550014.6000000238,550014.6000000238,545417.257,545421.3000000715,545423.71,550016.028,8,400,,,
trial,html.Screen,4_103_0,2023-10-31T03:31:17.310Z,,0,3,,3728.4719999999506,response,ISIC_0001578.JPG,4,ISIC_8344345.JPG,ISIC_8344345.JPG,false,0,keypress(z),500,553744.7000000477,553744.5,550011.68,550014.7000000477,550016.028,553745.666,8,400,4,,ISIC_0001578.JPG
break,html.Screen,4_103_1,2023-10-31T03:31:17.311Z,,0,,,NaN,,,,,,false,,,,553744.8999999762,553744.8000000715,,553744.7000000477,,553745.666,8,400,,,
break_continue,html.Screen,4_103_2,2023-10-31T03:31:17.311Z,,0,,,NaN,,,,,,false,,,,553745,553744.8999999762,,553744.8999999762,,553745.666,8,400,,,
sequence,flow.Sequence,4_103,2023-10-31T03:31:17.311Z,,0,,,3728.871999976109,completion,,,,,false,,,,553745,553744.8999999762,550011.68,550014.7000000477,550016.028,553745.666,8,400,,,
trial,html.Screen,4_104_0,2023-10-31T03:31:21.808Z,,0,3,,4496.034000047715,response,ISIC_0033496.JPG,5,ISIC_9546876.JPG,ISIC_9546876.JPG,false,0,keypress(z),500,558241.7000000477,558241.7000000477,553741.345,553745,553745.666,558242.102,8,400,5,,ISIC_0033496.JPG
break,html.Screen,4_104_1,2023-10-31T03:31:21.808Z,,0,,,NaN,,,,,,false,,,,558242,558242,,558241.8000000715,,558242.102,8,400,,,
break_continue,html.Screen,4_104_2,2023-10-31T03:31:21.808Z,,0,,,NaN,,,,,,false,,,,558242.1000000238,558242.1000000238,,558242,,558242.102,8,400,,,
sequence,flow.Sequence,4_104,2023-10-31T03:31:21.808Z,,0,,,4496.4340000238735,completion,,,,,false,,,,558242.1000000238,558242.1000000238,553741.345,553745,553745.666,558242.102,8,400,,,
trial,html.Screen,4_105_0,2023-10-31T03:31:26.610Z,,0,3,,4801.498000023887,response,ISIC_6220625.JPG,5,ISIC_0064141.JPG,ISIC_0064141.JPG,false,0,keypress(z),500,563043.7000000477,563043.6000000238,558241.944,558242.2000000477,558242.102,563046.897,8,400,6,,ISIC_6220625.JPG
break,html.Screen,4_105_1,2023-10-31T03:31:26.610Z,,0,,,NaN,,,,,,false,,,,563043.8999999762,563043.8999999762,,563043.7000000477,,563046.897,8,400,,,
break_continue,html.Screen,4_105_2,2023-10-31T03:31:26.610Z,,0,,,NaN,,,,,,false,,,,563044,563044,,563044,,563046.897,8,400,,,
sequence,flow.Sequence,4_105,2023-10-31T03:31:26.610Z,,0,,,4801.898000000045,completion,,,,,false,,,,563044,563044,558241.944,558242.1000000238,558242.102,563046.897,8,400,,,
trial,html.Screen,4_106_0,2023-10-31T03:31:30.547Z,,0,3,,3933.9030000715284,response,ISIC_2930792.JPG,5,ISIC_0056389.JPG,ISIC_0056389.JPG,false,0,keypress(z),500,566981,566980.8000000715,563043.357,563044,563046.897,566984.931,8,400,7,,ISIC_2930792.JPG
break,html.Screen,4_106_1,2023-10-31T03:31:30.547Z,,0,,,NaN,,,,,,false,,,,566981.2000000477,566981.1000000238,,566981,,566984.931,8,400,,,
break_continue,html.Screen,4_106_2,2023-10-31T03:31:30.547Z,,0,,,NaN,,,,,,false,,,,566981.3000000715,566981.3000000715,,566981.3000000715,,566984.931,8,400,,,
sequence,flow.Sequence,4_106,2023-10-31T03:31:30.547Z,,0,,,3934.4030000715284,completion,,,,,false,,,,566981.3000000715,566981.3000000715,563043.357,563044,563046.897,566984.931,8,400,,,
trial,html.Screen,4_107_0,2023-10-31T03:31:33.925Z,,0,3,,3374.3690000715433,response,ISIC_3786438.JPG,5,ISIC_0024455.JPG,ISIC_0024455.JPG,false,0,keypress(z),500,570359.3999999762,570359.3000000715,566976.994,566981.3999999762,566984.931,570360.371,8,400,8,,ISIC_3786438.JPG
break,html.Screen,4_107_1,2023-10-31T03:31:33.926Z,,0,,,NaN,,,,,,false,,,,570359.7000000477,570359.7000000477,,570359.5,,570360.371,8,400,,,
break_continue,html.Screen,4_107_2,2023-10-31T03:31:33.926Z,,0,,,NaN,,,,,,false,,,,570359.8000000715,570359.8000000715,,570359.7000000477,,570360.371,8,400,,,
sequence,flow.Sequence,4_107,2023-10-31T03:31:33.926Z,,0,,,3374.8690000715433,completion,,,,,false,,,,570359.8000000715,570359.8000000715,566976.994,566981.3999999762,566984.931,570360.371,8,400,,,
trial,html.Screen,4_108_0,2023-10-31T03:31:38.503Z,,0,3,,4576.929000071483,response,ISIC_6377883.JPG,5,ISIC_0011924.JPG,ISIC_6377883.JPG,false,1,keypress(m),500,574937.3000000715,574937.3000000715,570357.006,570359.8999999762,570360.371,574940.153,8,400,9,,ISIC_0011924.JPG
break,html.Screen,4_108_1,2023-10-31T03:31:38.503Z,,0,,,NaN,,,,,,false,,,,574937.6000000238,574937.6000000238,,574937.5,,574940.153,8,400,,,
break_continue,html.Screen,4_108_2,2023-10-31T03:31:38.504Z,,0,,,NaN,,,,,,false,,,,574937.7000000477,574937.6000000238,,574937.6000000238,,574940.153,8,400,,,
sequence,flow.Sequence,4_108,2023-10-31T03:31:38.504Z,,0,,,4577.229000023799,completion,,,,,false,,,,574937.7000000477,574937.6000000238,570357.006,570359.8000000715,570360.371,574940.153,8,400,,,
trial,html.Screen,4_109_0,2023-10-31T03:31:42.441Z,,0,3,,3935.147000071476,response,ISIC_6111078.JPG,4,ISIC_0033832.JPG,ISIC_0033832.JPG,false,0,keypress(z),500,578875.5,578875.3000000715,574935.623,574937.7000000477,574940.153,578878.202,8,400,10,,ISIC_6111078.JPG
break,html.Screen,4_109_1,2023-10-31T03:31:42.442Z,,0,,,NaN,,,,,,false,,,,578875.7000000477,578875.7000000477,,578875.5,,578878.202,8,400,,,
break_continue,html.Screen,4_109_2,2023-10-31T03:31:42.442Z,,0,,,NaN,,,,,,false,,,,578875.8000000715,578875.7000000477,,578875.7000000477,,578878.202,8,400,,,
sequence,flow.Sequence,4_109,2023-10-31T03:31:42.442Z,,0,,,3935.5470000476344,completion,,,,,false,,,,578875.8000000715,578875.7000000477,574935.623,574937.7000000477,574940.153,578878.202,8,400,,,
trial,html.Screen,4_110_0,2023-10-31T03:31:46.427Z,,0,3,,3983.098000071477,response,ISIC_8409262.JPG,5,ISIC_5581936.JPG,ISIC_5581936.JPG,false,0,keypress(z),500,582861.5,582861.3000000715,578873.865,578875.8000000715,578878.202,582862.048,8,400,11,,ISIC_8409262.JPG
break,html.Screen,4_110_1,2023-10-31T03:31:46.428Z,,0,,,NaN,,,,,,false,,,,582861.7000000477,582861.7000000477,,582861.5,,582862.048,8,400,,,
break_continue,html.Screen,4_110_2,2023-10-31T03:31:46.428Z,,0,,,NaN,,,,,,false,,,,582861.8000000715,582861.8000000715,,582861.7000000477,,582862.048,8,400,,,
sequence,flow.Sequence,4_110,2023-10-31T03:31:46.428Z,,0,,,3983.598000071477,completion,,,,,false,,,,582861.8000000715,582861.8000000715,578873.865,578875.8000000715,578878.202,582862.048,8,400,,,
trial,html.Screen,4_111_0,2023-10-31T03:31:51.453Z,,0,3,,5024.55200002389,response,ISIC_0046361.JPG,5,ISIC_9913573.JPG,ISIC_0046361.JPG,false,1,keypress(m),500,587886.7000000477,587886.6000000238,582857.733,582861.8000000715,582862.048,587887.717,8,400,12,,ISIC_9913573.JPG
break,html.Screen,4_111_1,2023-10-31T03:31:51.453Z,,0,,,NaN,,,,,,false,,,,587887.3000000715,587886.8999999762,,587886.7000000477,,587887.717,8,400,,,
break_continue,html.Screen,4_111_2,2023-10-31T03:31:51.453Z,,0,,,NaN,,,,,,false,,,,587887.3999999762,587887.3999999762,,587887.3000000715,,587887.717,8,400,,,
sequence,flow.Sequence,4_111,2023-10-31T03:31:51.453Z,,0,,,5025.351999976207,completion,,,,,false,,,,587887.5,587887.3999999762,582857.733,582861.8000000715,582862.048,587887.717,8,400,,,
trial,html.Screen,4_112_0,2023-10-31T03:31:57.199Z,,0,3,,5745.08300007158,response,ISIC_0033037.JPG,5,ISIC_0010347.JPG,ISIC_0033037.JPG,false,1,keypress(m),500,593632.8999999762,593632.8000000715,587884.594,587887.5,587887.717,593634.332,8,400,13,,ISIC_0010347.JPG
break,html.Screen,4_112_1,2023-10-31T03:31:57.199Z,,0,,,NaN,,,,,,false,,,,593633.2000000477,593633.2000000477,,593633,,593634.332,8,400,,,
break_continue,html.Screen,4_112_2,2023-10-31T03:31:57.199Z,,0,,,NaN,,,,,,false,,,,593633.2000000477,593633.2000000477,,593633.2000000477,,593634.332,8,400,,,
sequence,flow.Sequence,4_112,2023-10-31T03:31:57.199Z,,0,,,5745.483000047738,completion,,,,,false,,,,593633.3000000715,593633.2000000477,587884.594,587887.5,587887.717,593634.332,8,400,,,
trial,html.Screen,4_113_0,2023-10-31T03:32:00.272Z,,0,3,,3071.8680000476306,response,ISIC_9876515.JPG,5,ISIC_6552552.JPG,ISIC_9876515.JPG,false,1,keypress(m),500,596706.3000000715,596706.2000000477,593632.983,593633.3000000715,593634.332,596709.73,8,400,14,,ISIC_6552552.JPG
break,html.Screen,4_113_1,2023-10-31T03:32:00.272Z,,0,,,NaN,,,,,,false,,,,596706.5,596706.5,,596706.3999999762,,596709.73,8,400,,,
break_continue,html.Screen,4_113_2,2023-10-31T03:32:00.273Z,,0,,,NaN,,,,,,false,,,,596706.6000000238,596706.6000000238,,596706.6000000238,,596709.73,8,400,,,
sequence,flow.Sequence,4_113,2023-10-31T03:32:00.273Z,,0,,,3072.2680000237888,completion,,,,,false,,,,596706.7000000477,596706.6000000238,593632.983,593633.3000000715,593634.332,596709.73,8,400,,,
trial,html.Screen,4_114_0,2023-10-31T03:32:02.914Z,,0,3,,2638.4700000477023,response,ISIC_2597678.JPG,4,ISIC_0024962.JPG,ISIC_0024962.JPG,false,0,keypress(z),500,599348.3000000715,599348.2000000477,596704.365,596706.7000000477,596709.73,599351.743,8,400,15,,ISIC_2597678.JPG
break,html.Screen,4_114_1,2023-10-31T03:32:02.914Z,,0,,,NaN,,,,,,false,,,,599348.7000000477,599348.6000000238,,599348.3999999762,,599351.743,8,400,,,
break_continue,html.Screen,4_114_2,2023-10-31T03:32:02.915Z,,0,,,NaN,,,,,,false,,,,599348.8000000715,599348.7000000477,,599348.7000000477,,599351.743,8,400,,,
sequence,flow.Sequence,4_114,2023-10-31T03:32:02.915Z,,0,,,2638.9700000477023,completion,,,,,false,,,,599348.8000000715,599348.7000000477,596704.365,596706.7000000477,596709.73,599351.743,8,400,,,
trial,html.Screen,4_115_0,2023-10-31T03:32:06.147Z,,0,3,,3229.6569999761414,response,ISIC_0010850.JPG,5,ISIC_0032861.JPG,ISIC_0032861.JPG,false,0,keypress(z),500,602581.5,602581.3999999762,599347.442,599348.8000000715,599351.743,602585.511,8,400,16,,ISIC_0010850.JPG
break,html.Screen,4_115_1,2023-10-31T03:32:06.148Z,,0,,,NaN,,,,,,false,,,,602581.7000000477,602581.7000000477,,602581.6000000238,,602585.511,8,400,,,
break_continue,html.Screen,4_115_2,2023-10-31T03:32:06.148Z,,0,,,NaN,,,,,,false,,,,602581.8000000715,602581.8000000715,,602581.7000000477,,602585.511,8,400,,,
sequence,flow.Sequence,4_115,2023-10-31T03:32:06.148Z,,0,,,3230.057000071509,completion,,,,,false,,,,602581.8999999762,602581.8000000715,599347.442,599348.8000000715,599351.743,602585.511,8,400,,,
trial,html.Screen,4_116_0,2023-10-31T03:32:09.765Z,,0,3,,3613.3889999761013,response,ISIC_2739547.JPG,5,ISIC_4325452.JPG,ISIC_2739547.JPG,false,1,keypress(m),500,606199,606198.8999999762,602578.11,602581.8999999762,602585.511,606202.67,8,400,17,,ISIC_4325452.JPG
break,html.Screen,4_116_1,2023-10-31T03:32:09.765Z,,0,,,NaN,,,,,,false,,,,606199.3000000715,606199.2000000477,,606199,,606202.67,8,400,,,
break_continue,html.Screen,4_116_2,2023-10-31T03:32:09.765Z,,0,,,NaN,,,,,,false,,,,606199.3000000715,606199.3000000715,,606199.3000000715,,606202.67,8,400,,,
sequence,flow.Sequence,4_116,2023-10-31T03:32:09.765Z,,0,,,3613.7890000714688,completion,,,,,false,,,,606199.3000000715,606199.3000000715,602578.11,602581.8999999762,602585.511,606202.67,8,400,,,
trial,html.Screen,4_117_0,2023-10-31T03:32:15.255Z,,0,3,,5486.630000071484,response,ISIC_1089617.JPG,5,ISIC_3549225.JPG,ISIC_3549225.JPG,false,0,keypress(z),500,611689.3999999762,611689.3000000715,606198.356,606199.3000000715,606202.67,611690.893,8,400,18,,ISIC_1089617.JPG
break,html.Screen,4_117_1,2023-10-31T03:32:15.255Z,,0,,,NaN,,,,,,false,,,,611689.6000000238,611689.5,,611689.5,,611690.893,8,400,,,
break_continue,html.Screen,4_117_2,2023-10-31T03:32:15.256Z,,0,,,NaN,,,,,,false,,,,611689.7000000477,611689.7000000477,,611689.6000000238,,611690.893,8,400,,,
sequence,flow.Sequence,4_117,2023-10-31T03:32:15.256Z,,0,,,5487.030000047642,completion,,,,,false,,,,611689.7000000477,611689.7000000477,606198.356,606199.3000000715,606202.67,611690.893,8,400,,,
trial,html.Screen,4_118_0,2023-10-31T03:32:18.201Z,,0,3,,2944.707000023802,response,ISIC_0013767.JPG,5,ISIC_0030342.JPG,ISIC_0030342.JPG,false,0,keypress(z),500,614635.7000000477,614635.6000000238,611687.192,611689.7000000477,611690.893,614637.126,8,400,19,,ISIC_0013767.JPG
break,html.Screen,4_118_1,2023-10-31T03:32:18.202Z,,0,,,NaN,,,,,,false,,,,614635.8999999762,614635.8000000715,,614635.7000000477,,614637.126,8,400,,,
break_continue,html.Screen,4_118_2,2023-10-31T03:32:18.202Z,,0,,,NaN,,,,,,false,,,,614636.1000000238,614636,,614636,,614637.126,8,400,,,
sequence,flow.Sequence,4_118,2023-10-31T03:32:18.202Z,,0,,,2945.10699999996,completion,,,,,false,,,,614636.1000000238,614636,611687.192,611689.7000000477,611690.893,614637.126,8,400,,,
trial,html.Screen,4_119_0,2023-10-31T03:32:21.227Z,,0,3,,3024.2739999761106,response,ISIC_0061566.JPG,4,ISIC_4193253.JPG,ISIC_0061566.JPG,false,1,keypress(m),500,617661.6000000238,617661.3999999762,614632.821,614636.1000000238,614637.126,617662.526,8,400,20,,ISIC_4193253.JPG
break,html.Screen,4_119_1,2023-10-31T03:32:21.228Z,,0,,,NaN,,,,,,false,,,,617661.8000000715,617661.8000000715,,617661.6000000238,,617662.526,8,400,,,
break_continue,html.Screen,4_119_2,2023-10-31T03:32:21.228Z,,0,,,NaN,,,,,,false,,,,617661.8000000715,617661.8000000715,,617661.8000000715,,617662.526,8,400,,,
sequence,flow.Sequence,4_119,2023-10-31T03:32:21.228Z,,0,,,3024.674000071478,completion,,,,,false,,,,617661.8999999762,617661.8000000715,614632.821,614636.1000000238,614637.126,617662.526,8,400,,,
trial,html.Screen,4_120_0,2023-10-31T03:32:25.278Z,,0,3,,4049.0740000238875,response,ISIC_0193456.JPG,5,ISIC_0032044.JPG,ISIC_0032044.JPG,false,0,keypress(z),500,621711.6000000238,621711.6000000238,617658.217,617661.8999999762,617662.526,621713.068,8,400,21,,ISIC_0193456.JPG
break,html.Screen,4_120_1,2023-10-31T03:32:25.278Z,,0,,,NaN,,,,,,false,,,,621711.8999999762,621711.8000000715,,621711.7000000477,,621713.068,8,400,,,
break_continue,html.Screen,4_120_2,2023-10-31T03:32:25.278Z,,0,,,NaN,,,,,,false,,,,621712,621711.8999999762,,621711.8999999762,,621713.068,8,400,,,
sequence,flow.Sequence,4_120,2023-10-31T03:32:25.278Z,,0,,,4049.373999976204,completion,,,,,false,,,,621712,621711.8999999762,617658.217,617661.8999999762,617662.526,621713.068,8,400,,,
trial,html.Screen,4_121_0,2023-10-31T03:32:29.809Z,,0,3,,4529.732000071555,response,ISIC_0063164.JPG,5,ISIC_0060829.JPG,ISIC_0060829.JPG,false,0,keypress(z),500,626242.8999999762,626242.8000000715,621708.881,621712,621713.068,626245.066,8,400,22,,ISIC_0063164.JPG
break,html.Screen,4_121_1,2023-10-31T03:32:29.809Z,,0,,,NaN,,,,,,false,,,,626243.3000000715,626243.2000000477,,626242.8999999762,,626245.066,8,400,,,
break_continue,html.Screen,4_121_2,2023-10-31T03:32:29.809Z,,0,,,NaN,,,,,,false,,,,626243.3999999762,626243.3999999762,,626243.3000000715,,626245.066,8,400,,,
sequence,flow.Sequence,4_121,2023-10-31T03:32:29.809Z,,0,,,4530.331999976188,completion,,,,,false,,,,626243.3999999762,626243.3999999762,621708.881,621712,621713.068,626245.066,8,400,,,
trial,html.Screen,4_122_0,2023-10-31T03:32:33.203Z,,0,3,,3392.134000047692,response,ISIC_8777813.JPG,5,ISIC_2430137.JPG,ISIC_2430137.JPG,false,0,keypress(z),500,629637.3000000715,629637.2000000477,626242.698,626243.3999999762,626245.066,629639.13,8,400,23,,ISIC_8777813.JPG
break,html.Screen,4_122_1,2023-10-31T03:32:33.203Z,,0,,,NaN,,,,,,false,,,,629637.6000000238,629637.5,,629637.3000000715,,629639.13,8,400,,,
break_continue,html.Screen,4_122_2,2023-10-31T03:32:33.204Z,,0,,,NaN,,,,,,false,,,,629637.7000000477,629637.6000000238,,629637.6000000238,,629639.13,8,400,,,
sequence,flow.Sequence,4_122,2023-10-31T03:32:33.204Z,,0,,,3392.5340000238502,completion,,,,,false,,,,629637.7000000477,629637.6000000238,626242.698,626243.3999999762,626245.066,629639.13,8,400,,,
trial,html.Screen,4_123_0,2023-10-31T03:32:36.485Z,,0,3,,3279.970000023837,response,ISIC_6356522.JPG,5,ISIC_0411688.JPG,ISIC_0411688.JPG,false,0,keypress(z),500,632919.2000000477,632919.1000000238,629634.57,629637.7000000477,629639.13,632922.896,8,400,24,,ISIC_6356522.JPG
break,html.Screen,4_123_1,2023-10-31T03:32:36.485Z,,0,,,NaN,,,,,,false,,,,632919.5,632919.3999999762,,632919.2000000477,,632922.896,8,400,,,
break_continue,html.Screen,4_123_2,2023-10-31T03:32:36.485Z,,0,,,NaN,,,,,,false,,,,632919.6000000238,632919.5,,632919.5,,632922.896,8,400,,,
sequence,flow.Sequence,4_123,2023-10-31T03:32:36.485Z,,0,,,3280.3699999999953,completion,,,,,false,,,,632919.6000000238,632919.5,629634.57,629637.7000000477,629639.13,632922.896,8,400,,,
trial,html.Screen,4_124_0,2023-10-31T03:32:40.583Z,,0,3,,4094.0039999762084,response,ISIC_7883190.JPG,5,ISIC_0030994.JPG,ISIC_0030994.JPG,false,0,keypress(z),500,637017,637016.8999999762,632918.704,632919.6000000238,632922.896,637019.287,8,400,25,,ISIC_7883190.JPG
break,html.Screen,4_124_1,2023-10-31T03:32:40.583Z,,0,,,NaN,,,,,,false,,,,637017.3000000715,637017.3000000715,,637017.1000000238,,637019.287,8,400,,,
break_continue,html.Screen,4_124_2,2023-10-31T03:32:40.583Z,,0,,,NaN,,,,,,false,,,,637017.3000000715,637017.3000000715,,637017.3000000715,,637019.287,8,400,,,
sequence,flow.Sequence,4_124,2023-10-31T03:32:40.583Z,,0,,,4094.404000071576,completion,,,,,false,,,,637017.3999999762,637017.3000000715,632918.704,632919.6000000238,632922.896,637019.287,8,400,,,
trial,html.Screen,4_125_0,2023-10-31T03:32:45.945Z,,0,3,,5359.612999976147,response,ISIC_0055086.JPG,6,ISIC_1296490.JPG,ISIC_1296490.JPG,false,0,keypress(z),500,642379,642378.8999999762,637014.961,637017.5,637019.287,642382.503,8,400,26,,ISIC_0055086.JPG
break,html.Screen,4_125_1,2023-10-31T03:32:45.945Z,,0,,,NaN,,,,,,false,,,,642379.3000000715,642379.3000000715,,642379.1000000238,,642382.503,8,400,,,
break_continue,html.Screen,4_125_2,2023-10-31T03:32:45.945Z,,0,,,NaN,,,,,,false,,,,642379.3999999762,642379.3999999762,,642379.3000000715,,642382.503,8,400,,,
sequence,flow.Sequence,4_125,2023-10-31T03:32:45.945Z,,0,,,5360.112999976147,completion,,,,,false,,,,642379.3999999762,642379.3999999762,637014.961,637017.5,637019.287,642382.503,8,400,,,
