sender,sender_type,sender_id,timestamp,meta,,blockNo,condition,duration,ended_on,img_left,img_reveal,img_right,loser,practice,response,response_action,selection_duration,time_commit,time_end,time_render,time_run,time_show,time_switch,total_blocks,total_trials,trialNo,url,winner
informed_consent,html.Screen,0,2023-10-31T17:09:10.062Z,"{""labjs_version"":""20.2.4"",""labjs_build"":{""flavor"":""production"",""commit"":""f5b4a49f956347addd546a832a3327688c2c0fef""},""location"":""https://run.pavlovia.org/MurrayBennett/melanoma-2afc/?participant=67311&platform=sona"",""userAgent"":""Mozilla/5.0 (Macintosh; Intel Mac OS X 10_15_7) AppleWebKit/537.36 (KHTML, like Gecko) Chrome/118.0.0.0 Safari/537.36"",""platform"":""MacIntel"",""language"":""en-US"",""locale"":""en-US"",""timeZone"":""America/Chicago"",""timezoneOffset"":300,""screen_width"":1440,""screen_height"":900,""scroll_width"":1440,""scroll_height"":735,""window_innerWidth"":1440,""window_innerHeight"":783,""devicePixelRatio"":2}",,,,9466.28599999404,response,,,,,,consent,click button,,10044.59999999404,10023.59999999404,540.648,539.2000000178814,557.314,10057.197,,,,"{""participant"":""67311"",""platform"":""sona""}",
Welcome,html.Screen,1,2023-10-31T17:09:32.751Z,,,,asymmetry,22656.20300000596,response,,,,,,continue,click button,,32732.90000000596,32713.40000000596,10040.531,10044.800000011921,10057.197,32740.179,,,,,
trial,html.Screen,2_0_0,2023-10-31T17:09:44.244Z,,0,0,,11516.543000000001,timeout,ISIC_0069348.JPG,,ISIC_6997061.JPG,,true,,,500,44225.59999999404,44225.30000001192,32723.513,32733.5,32740.179,44256.722,1,6,1,,
sequence,flow.Sequence,2_0,2023-10-31T17:09:44.244Z,,0,,,11485.12100001192,completion,,,,,true,,,,44225.80000001192,44225.30000001192,32723.513,32733.40000000596,32740.179,44256.722,1,6,,,
trial,html.Screen,2_1_0,2023-10-31T17:09:48.459Z,,0,0,,4183.47800001788,response,ISIC_0057368.JPG,,ISIC_0009529.JPG,ISIC_0009529.JPG,true,0,keypress(Z),500,48440.5,48440.20000001788,44240.056,44226,44256.722,48456.554,1,6,2,,ISIC_0057368.JPG
sequence,flow.Sequence,2_1,2023-10-31T17:09:48.459Z,,0,,,4183.47800001788,completion,,,,,true,,,,48440.70000001788,48440.20000001788,44240.056,44225.90000000596,44256.722,48456.554,1,6,,,
trial,html.Screen,2_2_0,2023-10-31T17:09:54.112Z,,0,0,,5636.846000005964,response,ISIC_0064954.JPG,,ISIC_9758671.JPG,ISIC_9758671.JPG,true,0,keypress(Z),500,54093.80000001192,54093.40000000596,48439.888,48440.90000000596,48456.554,54106.607,1,6,3,,ISIC_0064954.JPG
sequence,flow.Sequence,2_2,2023-10-31T17:09:54.113Z,,0,,,5636.846000005964,completion,,,,,true,,,,54094.09999999404,54093.40000000596,48439.888,48440.80000001192,48456.554,54106.607,1,6,,,
trial,html.Screen,2_3_0,2023-10-31T17:09:59.732Z,,0,0,,5606.093000017878,response,ISIC_0000080.JPG,,ISIC_0005785.JPG,ISIC_0005785.JPG,true,0,keypress(Z),500,59713,59712.70000001788,54089.941,54094.30000001192,54106.607,59723.049,1,6,4,,ISIC_0000080.JPG
sequence,flow.Sequence,2_3,2023-10-31T17:09:59.732Z,,0,,,5606.093000017878,completion,,,,,true,,,,59713.40000000596,59712.70000001788,54089.941,54094.30000001192,54106.607,59723.049,1,6,,,
trial,html.Screen,2_4_0,2023-10-31T17:10:03.000Z,,0,0,,3257.8510000059614,response,ISIC_5390060.JPG,,ISIC_7944028.JPG,ISIC_7944028.JPG,true,0,keypress(Z),500,62981.40000000596,62980.90000000596,59706.383,59713.59999999404,59723.049,62989.853,1,6,5,,ISIC_5390060.JPG
sequence,flow.Sequence,2_4,2023-10-31T17:10:03.001Z,,0,,,3257.8510000059614,completion,,,,,true,,,,62981.70000001788,62980.90000000596,59706.383,59713.59999999404,59723.049,62989.853,1,6,,,
trial,html.Screen,2_5_0,2023-10-31T17:10:06.899Z,,0,0,,3889.5470000059577,response,ISIC_0794216.JPG,,ISIC_0010188.JPG,ISIC_0010188.JPG,true,0,keypress(Z),500,66879.70000001788,66879.40000000596,62973.187,62981.90000000596,62989.853,66889.697,1,6,6,,ISIC_0794216.JPG
sequence,flow.Sequence,2_5,2023-10-31T17:10:06.899Z,,0,,,3889.5470000059577,completion,,,,,true,,,,66880,66879.40000000596,62973.187,62981.90000000596,62989.853,66889.697,1,6,,,
loop,flow.Loop,2,2023-10-31T17:10:06.899Z,,,,,34139.22100000596,completion,,,,,true,,,,66880.30000001192,66879.40000000596,32723.513,32733.30000001192,32740.179,66889.697,1,6,,,
exp_instructions,html.Screen,3,2023-10-31T17:10:29.909Z,,,,,22995.40299999404,response,,,,,,continue,keypress(Space),,89890,89885.09999999404,66873.031,66880.40000000596,66889.697,89905.968,,,,,
trial,html.Screen,4_0_0,2023-10-31T17:10:41.413Z,,0,1,,11516.767000000007,timeout,ISIC_0025357.JPG,5,ISIC_0011684.JPG,,false,,,500,101393.90000000596,101393.70000001788,89889.302,89890.20000001788,89905.968,101422.735,8,400,1,,
break,html.Screen,4_0_1,2023-10-31T17:10:41.414Z,,0,,,NaN,,,,,,false,,,,101394.70000001788,101394.5,,101394,,101422.735,8,400,,,
break_continue,html.Screen,4_0_2,2023-10-31T17:10:41.415Z,,0,,,NaN,,,,,,false,,,,101395.09999999404,101395,,101394.90000000596,,101422.735,8,400,,,
sequence,flow.Sequence,4_0,2023-10-31T17:10:41.415Z,,0,,,11489.032000000007,completion,,,,,false,,,,101395.30000001192,101395,89889.302,89890.09999999404,89905.968,101422.735,8,400,,,
trial,html.Screen,4_1_0,2023-10-31T17:10:52.204Z,,0,1,,10761.56500001192,response,ISIC_3418978.JPG,5,ISIC_0000459.JPG,ISIC_0000459.JPG,false,0,keypress(Z),500,112184.5,112184.30000001192,101406.069,101395.40000000596,101422.735,112189.234,8,400,2,,ISIC_3418978.JPG
break,html.Screen,4_1_1,2023-10-31T17:10:52.205Z,,0,,,NaN,,,,,,false,,,,112185.40000000596,112185.30000001192,,112184.70000001788,,112189.234,8,400,,,
break_continue,html.Screen,4_1_2,2023-10-31T17:10:52.206Z,,0,,,NaN,,,,,,false,,,,112185.80000001192,112185.59999999404,,112185.59999999404,,112189.234,8,400,,,
sequence,flow.Sequence,4_1,2023-10-31T17:10:52.206Z,,0,,,10762.864999994039,completion,,,,,false,,,,112185.90000000596,112185.59999999404,101406.069,101395.40000000596,101422.735,112189.234,8,400,,,
trial,html.Screen,4_2_0,2023-10-31T17:10:59.873Z,,0,1,,7663.266000000003,response,ISIC_0026188.JPG,7,ISIC_0069432.JPG,ISIC_0069432.JPG,false,0,keypress(Z),500,119852.70000001788,119852.5,112172.568,112186,112189.234,119855.594,8,400,3,,ISIC_0026188.JPG
break,html.Screen,4_2_1,2023-10-31T17:10:59.874Z,,0,,,NaN,,,,,,false,,,,119853.70000001788,119853.5,,119853,,119855.594,8,400,,,
break_continue,html.Screen,4_2_2,2023-10-31T17:10:59.874Z,,0,,,NaN,,,,,,false,,,,119854.09999999404,119853.90000000596,,119853.90000000596,,119855.594,8,400,,,
sequence,flow.Sequence,4_2,2023-10-31T17:10:59.874Z,,0,,,7664.666000005964,completion,,,,,false,,,,119854.20000001788,119853.90000000596,112172.568,112186,112189.234,119855.594,8,400,,,
trial,html.Screen,4_3_0,2023-10-31T17:11:03.304Z,,0,1,,3427.606000017884,response,ISIC_0001148.JPG,7,ISIC_0000535.JPG,ISIC_0000535.JPG,false,0,keypress(Z),500,123283.5,123283.20000001788,119838.928,119854.30000001192,119855.594,123289.054,8,400,4,,ISIC_0001148.JPG
break,html.Screen,4_3_1,2023-10-31T17:11:03.304Z,,0,,,NaN,,,,,,false,,,,123284.5,123284.30000001192,,123283.70000001788,,123289.054,8,400,,,
break_continue,html.Screen,4_3_2,2023-10-31T17:11:03.305Z,,0,,,NaN,,,,,,false,,,,123284.80000001192,123284.70000001788,,123284.59999999404,,123289.054,8,400,,,
sequence,flow.Sequence,4_3,2023-10-31T17:11:03.305Z,,0,,,3429.106000017884,completion,,,,,false,,,,123284.90000000596,123284.70000001788,119838.928,119854.30000001192,119855.594,123289.054,8,400,,,
trial,html.Screen,4_4_0,2023-10-31T17:11:11.214Z,,0,1,,7904.346000005957,response,ISIC_0031843.JPG,6,ISIC_0026302.JPG,ISIC_0026302.JPG,false,0,keypress(Z),500,131193.59999999404,131193.40000000596,123272.388,123285,123289.054,131205.404,8,400,5,,ISIC_0031843.JPG
break,html.Screen,4_4_1,2023-10-31T17:11:11.215Z,,0,,,NaN,,,,,,false,,,,131194.5,131194.30000001192,,131193.80000001192,,131205.404,8,400,,,
break_continue,html.Screen,4_4_2,2023-10-31T17:11:11.215Z,,0,,,NaN,,,,,,false,,,,131194.80000001192,131194.80000001192,,131194.5,,131205.404,8,400,,,
sequence,flow.Sequence,4_4,2023-10-31T17:11:11.215Z,,0,,,7905.746000011917,completion,,,,,false,,,,131194.90000000596,131194.80000001192,123272.388,123285,123289.054,131205.404,8,400,,,
trial,html.Screen,4_5_0,2023-10-31T17:11:15.015Z,,0,1,,3789.19599999403,response,ISIC_2209697.JPG,8,ISIC_0072768.JPG,ISIC_0072768.JPG,false,0,keypress(Z),500,134994.80000001192,134994.59999999404,131188.738,131195.09999999404,131205.404,135005.536,8,400,6,,ISIC_2209697.JPG
break,html.Screen,4_5_1,2023-10-31T17:11:15.016Z,,0,,,NaN,,,,,,false,,,,134995.80000001192,134995.59999999404,,134995,,135005.536,8,400,,,
break_continue,html.Screen,4_5_2,2023-10-31T17:11:15.016Z,,0,,,NaN,,,,,,false,,,,134996.09999999404,134996,,134995.90000000596,,135005.536,8,400,,,
sequence,flow.Sequence,4_5,2023-10-31T17:11:15.017Z,,0,,,3790.5959999999905,completion,,,,,false,,,,134996.20000001788,134996,131188.738,131195,131205.404,135005.536,8,400,,,
trial,html.Screen,4_6_0,2023-10-31T17:11:22.686Z,,0,1,,7659.563999994047,response,ISIC_0000077.JPG,8,ISIC_0027125.JPG,ISIC_0027125.JPG,false,0,keypress(Z),500,142665.40000000596,142665.09999999404,134988.87,134996.30000001192,135005.536,142671.896,8,400,7,,ISIC_0000077.JPG
break,html.Screen,4_6_1,2023-10-31T17:11:22.687Z,,0,,,NaN,,,,,,false,,,,142666.40000000596,142666.09999999404,,142665.70000001788,,142671.896,8,400,,,
break_continue,html.Screen,4_6_2,2023-10-31T17:11:22.687Z,,0,,,NaN,,,,,,false,,,,142666.80000001192,142666.70000001788,,142666.5,,142671.896,8,400,,,
sequence,flow.Sequence,4_6,2023-10-31T17:11:22.687Z,,0,,,7661.164000017889,completion,,,,,false,,,,142666.90000000596,142666.70000001788,134988.87,134996.30000001192,135005.536,142671.896,8,400,,,
trial,html.Screen,4_7_0,2023-10-31T17:11:34.181Z,,0,1,,11516.775999999983,timeout,ISIC_4525317.JPG,8,ISIC_5628615.JPG,,false,,,500,154160.20000001788,154159.90000000596,142655.23,142667,142671.896,154188.672,8,400,8,,
break,html.Screen,4_7_1,2023-10-31T17:11:34.182Z,,0,,,NaN,,,,,,false,,,,154161,154160.80000001192,,154160.40000000596,,154188.672,8,400,,,
break_continue,html.Screen,4_7_2,2023-10-31T17:11:34.182Z,,0,,,NaN,,,,,,false,,,,154161.40000000596,154161.20000001788,,154161,,154188.672,8,400,,,
sequence,flow.Sequence,4_7,2023-10-31T17:11:34.182Z,,0,,,11489.304000017873,completion,,,,,false,,,,154161.40000000596,154161.20000001788,142655.23,142666.90000000596,142671.896,154188.672,8,400,,,
trial,html.Screen,4_8_0,2023-10-31T17:11:37.580Z,,0,1,,3369.927999994048,response,ISIC_1886756.JPG,7,ISIC_0015193.JPG,ISIC_0015193.JPG,false,0,keypress(Z),500,157558.80000001192,157558.59999999404,154172.006,154161.5,154188.672,157571.87,8,400,9,,ISIC_1886756.JPG
break,html.Screen,4_8_1,2023-10-31T17:11:37.580Z,,0,,,NaN,,,,,,false,,,,157559.80000001192,157559.5,,157559,,157571.87,8,400,,,
break_continue,html.Screen,4_8_2,2023-10-31T17:11:37.581Z,,0,,,NaN,,,,,,false,,,,157560.09999999404,157560,,157559.80000001192,,157571.87,8,400,,,
sequence,flow.Sequence,4_8,2023-10-31T17:11:37.581Z,,0,,,3371.3280000000086,completion,,,,,false,,,,157560.20000001788,157560,154172.006,154161.5,154188.672,157571.87,8,400,,,
trial,html.Screen,4_9_0,2023-10-31T17:11:40.516Z,,0,1,,2923.4300000119256,response,ISIC_0013691.JPG,8,ISIC_0058666.JPG,ISIC_0013691.JPG,false,1,keypress(m),500,160495.5,160495.30000001192,157555.204,157560.40000000596,157571.87,160505.086,8,400,10,,ISIC_0058666.JPG
break,html.Screen,4_9_1,2023-10-31T17:11:40.517Z,,0,,,NaN,,,,,,false,,,,160496.59999999404,160496.30000001192,,160495.70000001788,,160505.086,8,400,,,
break_continue,html.Screen,4_9_2,2023-10-31T17:11:40.518Z,,0,,,NaN,,,,,,false,,,,160496.90000000596,160496.80000001192,,160496.59999999404,,160505.086,8,400,,,
sequence,flow.Sequence,4_9,2023-10-31T17:11:40.518Z,,0,,,2924.9300000119256,completion,,,,,false,,,,160497.09999999404,160496.80000001192,157555.204,157560.20000001788,157571.87,160505.086,8,400,,,
trial,html.Screen,4_10_0,2023-10-31T17:11:45.467Z,,0,1,,4941.114000017871,response,ISIC_5482805.JPG,5,ISIC_0010231.JPG,ISIC_5482805.JPG,false,1,keypress(m),500,165446.5,165446.20000001788,160488.42,160497.09999999404,160505.086,165455.15,8,400,11,,ISIC_0010231.JPG
break,html.Screen,4_10_1,2023-10-31T17:11:45.469Z,,0,,,NaN,,,,,,false,,,,165448.5,165447.30000001192,,165446.80000001192,,165455.15,8,400,,,
break_continue,html.Screen,4_10_2,2023-10-31T17:11:45.470Z,,0,,,NaN,,,,,,false,,,,165448.90000000596,165448.80000001192,,165448.70000001788,,165455.15,8,400,,,
sequence,flow.Sequence,4_10,2023-10-31T17:11:45.470Z,,0,,,4943.714000011911,completion,,,,,false,,,,165449,165448.80000001192,160488.42,160497.09999999404,160505.086,165455.15,8,400,,,
trial,html.Screen,4_11_0,2023-10-31T17:11:49.042Z,,0,1,,3565.550000017887,response,ISIC_8590883.JPG,7,ISIC_6945634.JPG,ISIC_6945634.JPG,false,0,keypress(z),500,169020.90000000596,169020.70000001788,165438.484,165449.09999999404,165455.15,169021.674,8,400,12,,ISIC_8590883.JPG
break,html.Screen,4_11_1,2023-10-31T17:11:49.043Z,,0,,,NaN,,,,,,false,,,,169021.90000000596,169021.59999999404,,169021.20000001788,,169021.674,8,400,,,
break_continue,html.Screen,4_11_2,2023-10-31T17:11:49.043Z,,0,,,NaN,,,,,,false,,,,169022.20000001788,169022.09999999404,,169022,,169021.674,8,400,,,
sequence,flow.Sequence,4_11,2023-10-31T17:11:49.043Z,,0,,,3566.9499999940454,completion,,,,,false,,,,169022.30000001192,169022.09999999404,165438.484,165449.09999999404,165455.15,169021.674,8,400,,,
trial,html.Screen,4_12_0,2023-10-31T17:11:52.374Z,,0,1,,3331.0260000178823,response,ISIC_0028910.JPG,7,ISIC_0028883.JPG,ISIC_0028910.JPG,false,1,keypress(m),500,172352.90000000596,172352.70000001788,169005.008,169022.40000000596,169021.674,172354.874,8,400,13,,ISIC_0028883.JPG
break,html.Screen,4_12_1,2023-10-31T17:11:52.375Z,,0,,,NaN,,,,,,false,,,,172354,172353.80000001192,,172353.09999999404,,172354.874,8,400,,,
break_continue,html.Screen,4_12_2,2023-10-31T17:11:52.375Z,,0,,,NaN,,,,,,false,,,,172354.30000001192,172354.20000001788,,172354,,172354.874,8,400,,,
sequence,flow.Sequence,4_12,2023-10-31T17:11:52.375Z,,0,,,3332.5260000178823,completion,,,,,false,,,,172354.40000000596,172354.20000001788,169005.008,169022.40000000596,169021.674,172354.874,8,400,,,
trial,html.Screen,4_13_0,2023-10-31T17:11:59.642Z,,0,1,,7265.725999994029,response,ISIC_9860255.JPG,7,ISIC_1328804.JPG,ISIC_1328804.JPG,false,0,keypress(z),500,179620.90000000596,179620.59999999404,172338.208,172354.5,172354.874,179638.21,8,400,14,,ISIC_9860255.JPG
break,html.Screen,4_13_1,2023-10-31T17:11:59.643Z,,0,,,NaN,,,,,,false,,,,179621.80000001192,179621.59999999404,,179621.09999999404,,179638.21,8,400,,,
break_continue,html.Screen,4_13_2,2023-10-31T17:11:59.643Z,,0,,,NaN,,,,,,false,,,,179622.09999999404,179622,,179621.90000000596,,179638.21,8,400,,,
sequence,flow.Sequence,4_13,2023-10-31T17:11:59.643Z,,0,,,7267.125999999989,completion,,,,,false,,,,179622.30000001192,179622,172338.208,172354.40000000596,172354.874,179638.21,8,400,,,
trial,html.Screen,4_14_0,2023-10-31T17:12:07.585Z,,0,1,,7925.090000011929,response,ISIC_0067733.JPG,7,ISIC_0032709.JPG,ISIC_0032709.JPG,false,0,keypress(z),500,187563.59999999404,187563.30000001192,179621.544,179622.40000000596,179638.21,187571.535,8,400,15,,ISIC_0067733.JPG
break,html.Screen,4_14_1,2023-10-31T17:12:07.586Z,,0,,,NaN,,,,,,false,,,,187564.5,187564.30000001192,,187563.70000001788,,187571.535,8,400,,,
break_continue,html.Screen,4_14_2,2023-10-31T17:12:07.586Z,,0,,,NaN,,,,,,false,,,,187564.80000001192,187564.80000001192,,187564.59999999404,,187571.535,8,400,,,
sequence,flow.Sequence,4_14,2023-10-31T17:12:07.586Z,,0,,,7926.590000011929,completion,,,,,false,,,,187564.90000000596,187564.80000001192,179621.544,179622.30000001192,179638.21,187571.535,8,400,,,
trial,html.Screen,4_15_0,2023-10-31T17:12:15.479Z,,0,1,,7885.265000011917,response,ISIC_7161002.JPG,8,ISIC_0065324.JPG,ISIC_0065324.JPG,false,0,keypress(z),500,195457.09999999404,195456.80000001192,187554.869,187565.09999999404,187571.535,195471.219,8,400,16,,ISIC_7161002.JPG
break,html.Screen,4_15_1,2023-10-31T17:12:15.480Z,,0,,,NaN,,,,,,false,,,,195458.09999999404,195457.80000001192,,195457.30000001192,,195471.219,8,400,,,
break_continue,html.Screen,4_15_2,2023-10-31T17:12:15.480Z,,0,,,NaN,,,,,,false,,,,195458.40000000596,195458.30000001192,,195458.20000001788,,195471.219,8,400,,,
sequence,flow.Sequence,4_15,2023-10-31T17:12:15.480Z,,0,,,7886.765000011917,completion,,,,,false,,,,195458.59999999404,195458.30000001192,187554.869,187565.09999999404,187571.535,195471.219,8,400,,,
trial,html.Screen,4_16_0,2023-10-31T17:12:19.231Z,,0,1,,3738.081000011909,response,ISIC_7299650.JPG,5,ISIC_1300967.JPG,ISIC_1300967.JPG,false,0,keypress(z),500,199209.5,199209.30000001192,195454.553,195458.70000001788,195471.219,199221.338,8,400,17,,ISIC_7299650.JPG
break,html.Screen,4_16_1,2023-10-31T17:12:19.232Z,,0,,,NaN,,,,,,false,,,,199210.5,199210.30000001192,,199209.80000001192,,199221.338,8,400,,,
break_continue,html.Screen,4_16_2,2023-10-31T17:12:19.232Z,,0,,,NaN,,,,,,false,,,,199210.90000000596,199210.80000001192,,199210.59999999404,,199221.338,8,400,,,
sequence,flow.Sequence,4_16,2023-10-31T17:12:19.233Z,,0,,,3739.581000011909,completion,,,,,false,,,,199211,199210.80000001192,195454.553,195458.59999999404,195471.219,199221.338,8,400,,,
trial,html.Screen,4_17_0,2023-10-31T17:12:29.683Z,,0,1,,10440.062000005972,response,ISIC_8086526.JPG,9,ISIC_4927943.JPG,ISIC_8086526.JPG,false,1,keypress(m),500,209661.59999999404,209661.40000000596,199204.672,199211.09999999404,199221.338,209671.226,8,400,18,,ISIC_4927943.JPG
break,html.Screen,4_17_1,2023-10-31T17:12:29.684Z,,0,,,NaN,,,,,,false,,,,209662.5,209662.40000000596,,209661.90000000596,,209671.226,8,400,,,
break_continue,html.Screen,4_17_2,2023-10-31T17:12:29.685Z,,0,,,NaN,,,,,,false,,,,209662.90000000596,209662.80000001192,,209662.59999999404,,209671.226,8,400,,,
sequence,flow.Sequence,4_17,2023-10-31T17:12:29.685Z,,0,,,10441.462000011932,completion,,,,,false,,,,209663,209662.80000001192,199204.672,199211.09999999404,199221.338,209671.226,8,400,,,
trial,html.Screen,4_18_0,2023-10-31T17:12:34.041Z,,0,1,,4347.774000000005,response,ISIC_0497390.JPG,7,ISIC_6507640.JPG,ISIC_6507640.JPG,false,0,keypress(z),500,214019.20000001788,214019,209654.56,209663.09999999404,209671.226,214021.052,8,400,19,,ISIC_0497390.JPG
break,html.Screen,4_18_1,2023-10-31T17:12:34.042Z,,0,,,NaN,,,,,,false,,,,214020.20000001788,214020,,214019.40000000596,,214021.052,8,400,,,
break_continue,html.Screen,4_18_2,2023-10-31T17:12:34.042Z,,0,,,NaN,,,,,,false,,,,214020.5,214020.5,,214020.30000001192,,214021.052,8,400,,,
sequence,flow.Sequence,4_18,2023-10-31T17:12:34.043Z,,0,,,4349.274000000005,completion,,,,,false,,,,214020.70000001788,214020.5,209654.56,209663.09999999404,209671.226,214021.052,8,400,,,
trial,html.Screen,4_19_0,2023-10-31T17:12:44.271Z,,0,1,,10227.248000011925,response,ISIC_0054925.JPG,8,ISIC_2070595.JPG,ISIC_0054925.JPG,false,1,keypress(m),500,224248.59999999404,224248.30000001192,214004.386,214020.80000001192,214021.052,224254.249,8,400,20,,ISIC_2070595.JPG
break,html.Screen,4_19_1,2023-10-31T17:12:44.272Z,,0,,,NaN,,,,,,false,,,,224249.5,224249.40000000596,,224248.80000001192,,224254.249,8,400,,,
break_continue,html.Screen,4_19_2,2023-10-31T17:12:44.272Z,,0,,,NaN,,,,,,false,,,,224249.90000000596,224249.70000001788,,224249.59999999404,,224254.249,8,400,,,
sequence,flow.Sequence,4_19,2023-10-31T17:12:44.272Z,,0,,,10228.648000017885,completion,,,,,false,,,,224249.90000000596,224249.70000001788,214004.386,214020.70000001788,214021.052,224254.249,8,400,,,
trial,html.Screen,4_20_0,2023-10-31T17:12:53.924Z,,0,1,,9647.15100000595,response,ISIC_0032162.JPG,9,ISIC_3635014.JPG,ISIC_0032162.JPG,false,1,keypress(m),500,233901.59999999404,233901.40000000596,224237.583,224250.09999999404,224254.249,233904.227,8,400,21,,ISIC_3635014.JPG
break,html.Screen,4_20_1,2023-10-31T17:12:53.925Z,,0,,,NaN,,,,,,false,,,,233902.59999999404,233902.40000000596,,233901.90000000596,,233904.227,8,400,,,
break_continue,html.Screen,4_20_2,2023-10-31T17:12:53.925Z,,0,,,NaN,,,,,,false,,,,233902.90000000596,233902.80000001192,,233902.70000001788,,233904.227,8,400,,,
sequence,flow.Sequence,4_20,2023-10-31T17:12:53.925Z,,0,,,9648.55100001191,completion,,,,,false,,,,233903,233902.80000001192,224237.583,224250,224254.249,233904.227,8,400,,,
trial,html.Screen,4_21_0,2023-10-31T17:12:57.259Z,,0,1,,3332.372999994026,response,ISIC_0029639.JPG,5,ISIC_6038490.JPG,ISIC_6038490.JPG,false,0,keypress(z),500,237236.80000001192,237236.59999999404,233887.561,233903.09999999404,233904.227,237254.093,8,400,22,,ISIC_0029639.JPG
break,html.Screen,4_21_1,2023-10-31T17:12:57.260Z,,0,,,NaN,,,,,,false,,,,237237.90000000596,237237.59999999404,,237237.09999999404,,237254.093,8,400,,,
break_continue,html.Screen,4_21_2,2023-10-31T17:12:57.261Z,,0,,,NaN,,,,,,false,,,,237238.20000001788,237238.09999999404,,237237.90000000596,,237254.093,8,400,,,
sequence,flow.Sequence,4_21,2023-10-31T17:12:57.261Z,,0,,,3333.872999994026,completion,,,,,false,,,,237238.30000001192,237238.09999999404,233887.561,233903.09999999404,233904.227,237254.093,8,400,,,
trial,html.Screen,4_22_0,2023-10-31T17:13:01.184Z,,0,1,,3907.2070000119274,response,ISIC_0055297.JPG,6,ISIC_9402324.JPG,ISIC_0055297.JPG,false,1,keypress(m),500,241161.5,241161.30000001192,237237.427,237238.40000000596,237254.093,241170.603,8,400,23,,ISIC_9402324.JPG
break,html.Screen,4_22_1,2023-10-31T17:13:01.185Z,,0,,,NaN,,,,,,false,,,,241162.5,241162.40000000596,,241161.70000001788,,241170.603,8,400,,,
break_continue,html.Screen,4_22_2,2023-10-31T17:13:01.185Z,,0,,,NaN,,,,,,false,,,,241163,241162.80000001192,,241162.70000001788,,241170.603,8,400,,,
sequence,flow.Sequence,4_22,2023-10-31T17:13:01.186Z,,0,,,3908.7070000119274,completion,,,,,false,,,,241163.80000001192,241162.80000001192,237237.427,237238.40000000596,237254.093,241170.603,8,400,,,
trial,html.Screen,4_23_0,2023-10-31T17:13:04.536Z,,0,1,,3342.2970000059577,response,ISIC_0034207.JPG,8,ISIC_6761269.JPG,ISIC_0034207.JPG,false,1,keypress(m),500,244513.20000001788,244512.90000000596,241153.937,241164,241170.603,244520.739,8,400,24,,ISIC_6761269.JPG
break,html.Screen,4_23_1,2023-10-31T17:13:04.537Z,,0,,,NaN,,,,,,false,,,,244514.20000001788,244514.09999999404,,244513.40000000596,,244520.739,8,400,,,
break_continue,html.Screen,4_23_2,2023-10-31T17:13:04.537Z,,0,,,NaN,,,,,,false,,,,244514.59999999404,244514.59999999404,,244514.40000000596,,244520.739,8,400,,,
sequence,flow.Sequence,4_23,2023-10-31T17:13:04.537Z,,0,,,3343.9969999940367,completion,,,,,false,,,,244514.70000001788,244514.59999999404,241153.937,241163.90000000596,241170.603,244520.739,8,400,,,
trial,html.Screen,4_24_0,2023-10-31T17:13:09.501Z,,0,1,,4957.161000005959,response,ISIC_0013672.JPG,8,ISIC_0033901.JPG,ISIC_0033901.JPG,false,0,keypress(z),500,249478.20000001788,249477.90000000596,244504.073,244514.80000001192,244520.739,249487.207,8,400,25,,ISIC_0013672.JPG
break,html.Screen,4_24_1,2023-10-31T17:13:09.502Z,,0,,,NaN,,,,,,false,,,,249479.09999999404,249478.80000001192,,249478.40000000596,,249487.207,8,400,,,
break_continue,html.Screen,4_24_2,2023-10-31T17:13:09.502Z,,0,,,NaN,,,,,,false,,,,249479.5,249479.40000000596,,249479.20000001788,,249487.207,8,400,,,
sequence,flow.Sequence,4_24,2023-10-31T17:13:09.502Z,,0,,,4958.661000005959,completion,,,,,false,,,,249479.5,249479.40000000596,244504.073,244514.80000001192,244520.739,249487.207,8,400,,,
trial,html.Screen,4_25_0,2023-10-31T17:13:14.115Z,,0,1,,4604.793000000005,response,ISIC_7462953.JPG,6,ISIC_0062158.JPG,ISIC_0062158.JPG,false,0,keypress(z),500,254092.20000001788,254092,249470.541,249479.59999999404,249487.207,254103.689,8,400,26,,ISIC_7462953.JPG
break,html.Screen,4_25_1,2023-10-31T17:13:14.116Z,,0,,,NaN,,,,,,false,,,,254093.20000001788,254093,,254092.40000000596,,254103.689,8,400,,,
break_continue,html.Screen,4_25_2,2023-10-31T17:13:14.116Z,,0,,,NaN,,,,,,false,,,,254093.5,254093.40000000596,,254093.30000001192,,254103.689,8,400,,,
sequence,flow.Sequence,4_25,2023-10-31T17:13:14.116Z,,0,,,4606.193000005966,completion,,,,,false,,,,254093.59999999404,254093.40000000596,249470.541,249479.59999999404,249487.207,254103.689,8,400,,,
trial,html.Screen,4_26_0,2023-10-31T17:13:17.614Z,,0,1,,3486.9109999940265,response,ISIC_0844312.JPG,5,ISIC_0271408.JPG,ISIC_0271408.JPG,false,0,keypress(z),500,257590.80000001192,257590.59999999404,254087.023,254093.80000001192,254103.689,257603.82,8,400,27,,ISIC_0844312.JPG
break,html.Screen,4_26_1,2023-10-31T17:13:17.615Z,,0,,,NaN,,,,,,false,,,,257591.90000000596,257591.59999999404,,257591,,257603.82,8,400,,,
break_continue,html.Screen,4_26_2,2023-10-31T17:13:17.615Z,,0,,,NaN,,,,,,false,,,,257592.20000001788,257592.09999999404,,257592,,257603.82,8,400,,,
sequence,flow.Sequence,4_26,2023-10-31T17:13:17.615Z,,0,,,3488.4109999940265,completion,,,,,false,,,,257592.30000001192,257592.09999999404,254087.023,254093.70000001788,254103.689,257603.82,8,400,,,
trial,html.Screen,4_27_0,2023-10-31T17:13:22.134Z,,0,1,,4507.179999999993,response,ISIC_0024967.JPG,7,ISIC_6916213.JPG,ISIC_0024967.JPG,false,1,keypress(m),500,262111.20000001788,262111,257587.154,257592.5,257603.82,262120.306,8,400,28,,ISIC_6916213.JPG
break,html.Screen,4_27_1,2023-10-31T17:13:22.135Z,,0,,,NaN,,,,,,false,,,,262112.09999999404,262112,,262111.40000000596,,262120.306,8,400,,,
break_continue,html.Screen,4_27_2,2023-10-31T17:13:22.135Z,,0,,,NaN,,,,,,false,,,,262112.59999999404,262112.5,,262112.30000001192,,262120.306,8,400,,,
sequence,flow.Sequence,4_27,2023-10-31T17:13:22.136Z,,0,,,4508.679999999993,completion,,,,,false,,,,262112.70000001788,262112.5,257587.154,257592.5,257603.82,262120.306,8,400,,,
trial,html.Screen,4_28_0,2023-10-31T17:13:26.922Z,,0,1,,4778.39400001787,response,ISIC_5486725.JPG,6,ISIC_1258986.JPG,ISIC_5486725.JPG,false,1,keypress(m),500,266899,266898.7000000179,262103.64,262112.80000001192,262120.306,266903.77,8,400,29,,ISIC_1258986.JPG
break,html.Screen,4_28_1,2023-10-31T17:13:26.923Z,,0,,,NaN,,,,,,false,,,,266900,266899.8000000119,,266899.2000000179,,266903.77,8,400,,,
break_continue,html.Screen,4_28_2,2023-10-31T17:13:26.923Z,,0,,,NaN,,,,,,false,,,,266900.40000000596,266900.3000000119,,266900.09999999404,,266903.77,8,400,,,
sequence,flow.Sequence,4_28,2023-10-31T17:13:26.923Z,,0,,,4779.9940000119095,completion,,,,,false,,,,266900.5,266900.3000000119,262103.64,262112.70000001788,262120.306,266903.77,8,400,,,
trial,html.Screen,4_29_0,2023-10-31T17:13:30.721Z,,0,1,,3794.0300000119023,response,ISIC_0031752.JPG,7,ISIC_5049365.JPG,ISIC_5049365.JPG,false,0,keypress(z),500,270698.09999999404,270697.8000000119,266887.104,266900.59999999404,266903.77,270703.618,8,400,30,,ISIC_0031752.JPG
break,html.Screen,4_29_1,2023-10-31T17:13:30.722Z,,0,,,NaN,,,,,,false,,,,270699,270698.7000000179,,270698.2000000179,,270703.618,8,400,,,
break_continue,html.Screen,4_29_2,2023-10-31T17:13:30.722Z,,0,,,NaN,,,,,,false,,,,270699.3000000119,270699.2000000179,,270699,,270703.618,8,400,,,
sequence,flow.Sequence,4_29,2023-10-31T17:13:30.722Z,,0,,,3795.4300000178628,completion,,,,,false,,,,270699.5,270699.2000000179,266887.104,266900.59999999404,266903.77,270703.618,8,400,,,
trial,html.Screen,4_30_0,2023-10-31T17:13:36.950Z,,0,1,,6222.582000017865,response,ISIC_0472513.JPG,9,ISIC_0033289.JPG,ISIC_0472513.JPG,false,1,keypress(m),500,276926.5,276926.2000000179,270686.952,270699.5,270703.618,276953.631,8,400,31,,ISIC_0033289.JPG
break,html.Screen,4_30_1,2023-10-31T17:13:36.951Z,,0,,,NaN,,,,,,false,,,,276927.3000000119,276927.09999999404,,276926.7000000179,,276953.631,8,400,,,
break_continue,html.Screen,4_30_2,2023-10-31T17:13:36.951Z,,0,,,NaN,,,,,,false,,,,276927.7000000179,276927.59999999404,,276927.5,,276953.631,8,400,,,
sequence,flow.Sequence,4_30,2023-10-31T17:13:36.951Z,,0,,,6223.981999994023,completion,,,,,false,,,,276927.8000000119,276927.59999999404,270686.952,270699.5,270703.618,276953.631,8,400,,,
trial,html.Screen,4_31_0,2023-10-31T17:13:40.970Z,,0,1,,3992.369000000006,response,ISIC_9646599.JPG,4,ISIC_2619533.JPG,ISIC_9646599.JPG,false,1,keypress(m),500,280946.3000000119,280946,276936.965,276927.90000000596,276953.631,280953.471,8,400,32,,ISIC_2619533.JPG
break,html.Screen,4_31_1,2023-10-31T17:13:40.970Z,,0,,,NaN,,,,,,false,,,,280947.2000000179,280947,,280946.5,,280953.471,8,400,,,
break_continue,html.Screen,4_31_2,2023-10-31T17:13:40.971Z,,0,,,NaN,,,,,,false,,,,280947.5,280947.40000000596,,280947.3000000119,,280953.471,8,400,,,
sequence,flow.Sequence,4_31,2023-10-31T17:13:40.971Z,,0,,,3993.7690000059665,completion,,,,,false,,,,280947.59999999404,280947.40000000596,276936.965,276927.90000000596,276953.631,280953.471,8,400,,,
trial,html.Screen,4_32_0,2023-10-31T17:13:46.407Z,,0,1,,5429.829000011901,response,ISIC_0060589.JPG,7,ISIC_6535558.JPG,ISIC_6535558.JPG,false,0,keypress(z),500,286383.5,286383.3000000119,280936.805,280947.8000000119,280953.471,286386.587,8,400,33,,ISIC_0060589.JPG
break,html.Screen,4_32_1,2023-10-31T17:13:46.408Z,,0,,,NaN,,,,,,false,,,,286384.59999999404,286384.3000000119,,286383.8000000119,,286386.587,8,400,,,
break_continue,html.Screen,4_32_2,2023-10-31T17:13:46.408Z,,0,,,NaN,,,,,,false,,,,286384.8000000119,286384.7000000179,,286384.59999999404,,286386.587,8,400,,,
sequence,flow.Sequence,4_32,2023-10-31T17:13:46.408Z,,0,,,5431.229000017862,completion,,,,,false,,,,286384.90000000596,286384.7000000179,280936.805,280947.7000000179,280953.471,286386.587,8,400,,,
trial,html.Screen,4_33_0,2023-10-31T17:13:50.299Z,,0,1,,3888.7130000119214,response,ISIC_0013908.JPG,7,ISIC_7685920.JPG,ISIC_0013908.JPG,false,1,keypress(m),500,290275.59999999404,290275.3000000119,286369.921,286385.09999999404,286386.587,290286.695,8,400,34,,ISIC_7685920.JPG
break,html.Screen,4_33_1,2023-10-31T17:13:50.300Z,,0,,,NaN,,,,,,false,,,,290276.59999999404,290276.3000000119,,290275.8000000119,,290286.695,8,400,,,
break_continue,html.Screen,4_33_2,2023-10-31T17:13:50.300Z,,0,,,NaN,,,,,,false,,,,290277,290276.90000000596,,290276.7000000179,,290286.695,8,400,,,
sequence,flow.Sequence,4_33,2023-10-31T17:13:50.301Z,,0,,,3890.313000005961,completion,,,,,false,,,,290277.09999999404,290276.90000000596,286369.921,286385.09999999404,286386.587,290286.695,8,400,,,
trial,html.Screen,4_34_0,2023-10-31T17:13:56.562Z,,0,1,,6251.304999999993,response,ISIC_3506204.JPG,7,ISIC_1441260.JPG,ISIC_1441260.JPG,false,0,keypress(z),500,296538.2000000179,296538,290270.029,290277.2000000179,290286.695,296553.111,8,400,35,,ISIC_3506204.JPG
break,html.Screen,4_34_1,2023-10-31T17:13:56.563Z,,0,,,NaN,,,,,,false,,,,296539.3000000119,296539.09999999404,,296538.40000000596,,296553.111,8,400,,,
break_continue,html.Screen,4_34_2,2023-10-31T17:13:56.563Z,,0,,,NaN,,,,,,false,,,,296539.59999999404,296539.40000000596,,296539.3000000119,,296553.111,8,400,,,
sequence,flow.Sequence,4_34,2023-10-31T17:13:56.563Z,,0,,,6252.7050000059535,completion,,,,,false,,,,296539.7000000179,296539.40000000596,290270.029,290277.09999999404,290286.695,296553.111,8,400,,,
trial,html.Screen,4_35_0,2023-10-31T17:14:03.384Z,,0,1,,6806.589000017906,response,ISIC_2924968.JPG,6,ISIC_0062734.JPG,ISIC_0062734.JPG,false,0,keypress(z),500,303360,303359.7000000179,296536.445,296539.8000000119,296553.111,303369.768,8,400,36,,ISIC_2924968.JPG
break,html.Screen,4_35_1,2023-10-31T17:14:03.385Z,,0,,,NaN,,,,,,false,,,,303360.90000000596,303360.59999999404,,303360.09999999404,,303369.768,8,400,,,
break_continue,html.Screen,4_35_2,2023-10-31T17:14:03.385Z,,0,,,NaN,,,,,,false,,,,303361.2000000179,303361.09999999404,,303361,,303369.768,8,400,,,
sequence,flow.Sequence,4_35,2023-10-31T17:14:03.385Z,,0,,,6807.988999994064,completion,,,,,false,,,,303361.3000000119,303361.09999999404,296536.445,296539.8000000119,296553.111,303369.768,8,400,,,
trial,html.Screen,4_36_0,2023-10-31T17:14:06.829Z,,0,1,,3434.732000000018,response,ISIC_5278307.JPG,7,ISIC_2241755.JPG,ISIC_5278307.JPG,false,1,keypress(m),500,306804.90000000596,306804.5,303353.102,303361.40000000596,303369.768,306819.63,8,400,37,,ISIC_2241755.JPG
break,html.Screen,4_36_1,2023-10-31T17:14:06.830Z,,0,,,NaN,,,,,,false,,,,306805.8000000119,306805.59999999404,,306805,,306819.63,8,400,,,
break_continue,html.Screen,4_36_2,2023-10-31T17:14:06.830Z,,0,,,NaN,,,,,,false,,,,306806.09999999404,306806,,306805.90000000596,,306819.63,8,400,,,
sequence,flow.Sequence,4_36,2023-10-31T17:14:06.830Z,,0,,,3436.232000000018,completion,,,,,false,,,,306806.2000000179,306806,303353.102,303361.3000000119,303369.768,306819.63,8,400,,,
trial,html.Screen,4_37_0,2023-10-31T17:14:10.418Z,,0,1,,3573.969999994035,response,ISIC_0058658.JPG,8,ISIC_0032047.JPG,ISIC_0058658.JPG,false,1,keypress(m),500,310393.90000000596,310393.59999999404,306802.964,306806.2000000179,306819.63,310403.087,8,400,38,,ISIC_0032047.JPG
break,html.Screen,4_37_1,2023-10-31T17:14:10.419Z,,0,,,NaN,,,,,,false,,,,310395,310394.7000000179,,310394.09999999404,,310403.087,8,400,,,
break_continue,html.Screen,4_37_2,2023-10-31T17:14:10.419Z,,0,,,NaN,,,,,,false,,,,310395.3000000119,310395.2000000179,,310395,,310403.087,8,400,,,
sequence,flow.Sequence,4_37,2023-10-31T17:14:10.419Z,,0,,,3575.5700000178767,completion,,,,,false,,,,310395.40000000596,310395.2000000179,306802.964,306806.2000000179,306819.63,310403.087,8,400,,,
trial,html.Screen,4_38_0,2023-10-31T17:14:14.791Z,,0,1,,4363.4130000000005,response,ISIC_8495875.JPG,8,ISIC_0014110.JPG,ISIC_8495875.JPG,false,1,keypress(m),500,314766.7000000179,314766.5,310386.421,310395.5,310403.087,314769.579,8,400,39,,ISIC_0014110.JPG
break,html.Screen,4_38_1,2023-10-31T17:14:14.792Z,,0,,,NaN,,,,,,false,,,,314767.7000000179,314767.40000000596,,314767,,314769.579,8,400,,,
break_continue,html.Screen,4_38_2,2023-10-31T17:14:14.792Z,,0,,,NaN,,,,,,false,,,,314768,314767.90000000596,,314767.8000000119,,314769.579,8,400,,,
sequence,flow.Sequence,4_38,2023-10-31T17:14:14.792Z,,0,,,4364.813000005961,completion,,,,,false,,,,314768.09999999404,314767.90000000596,310386.421,310395.5,310403.087,314769.579,8,400,,,
trial,html.Screen,4_39_0,2023-10-31T17:14:18.813Z,,0,1,,4018.920999999973,response,ISIC_0060999.JPG,7,ISIC_0059065.JPG,ISIC_0060999.JPG,false,1,keypress(m),500,318788.7000000179,318788.5,314752.913,314768.2000000179,314769.579,318803.051,8,400,40,,ISIC_0059065.JPG
break,html.Screen,4_39_1,2023-10-31T17:14:18.814Z,,0,,,NaN,,,,,,false,,,,318789.7000000179,318789.5,,318789,,318803.051,8,400,,,
break_continue,html.Screen,4_39_2,2023-10-31T17:14:18.814Z,,0,,,NaN,,,,,,false,,,,318790,318790,,318789.8000000119,,318803.051,8,400,,,
sequence,flow.Sequence,4_39,2023-10-31T17:14:18.814Z,,0,,,4020.420999999973,completion,,,,,false,,,,318790.2000000179,318790,314752.913,314768.09999999404,314769.579,318803.051,8,400,,,
trial,html.Screen,4_40_0,2023-10-31T17:14:22.337Z,,0,1,,3509.9490000000224,response,ISIC_4943797.JPG,5,ISIC_0028718.JPG,ISIC_0028718.JPG,false,0,keypress(z),500,322313.3000000119,322313,318786.385,318790.2000000179,318803.051,322319.577,8,400,41,,ISIC_4943797.JPG
break,html.Screen,4_40_1,2023-10-31T17:14:22.338Z,,0,,,NaN,,,,,,false,,,,322314.2000000179,322314,,322313.59999999404,,322319.577,8,400,,,
break_continue,html.Screen,4_40_2,2023-10-31T17:14:22.339Z,,0,,,NaN,,,,,,false,,,,322314.59999999404,322314.5,,322314.3000000119,,322319.577,8,400,,,
sequence,flow.Sequence,4_40,2023-10-31T17:14:22.339Z,,0,,,3511.4490000000224,completion,,,,,false,,,,322314.59999999404,322314.5,318786.385,318790.2000000179,318803.051,322319.577,8,400,,,
trial,html.Screen,4_41_0,2023-10-31T17:14:26.698Z,,0,1,,4353.623000017891,response,ISIC_0066262.JPG,6,ISIC_0061516.JPG,ISIC_0066262.JPG,false,1,keypress(m),500,326673.40000000596,326673.2000000179,322302.911,322314.8000000119,322319.577,326686.069,8,400,42,,ISIC_0061516.JPG
break,html.Screen,4_41_1,2023-10-31T17:14:26.699Z,,0,,,NaN,,,,,,false,,,,326674.40000000596,326674.2000000179,,326673.59999999404,,326686.069,8,400,,,
break_continue,html.Screen,4_41_2,2023-10-31T17:14:26.699Z,,0,,,NaN,,,,,,false,,,,326674.8000000119,326674.7000000179,,326674.5,,326686.069,8,400,,,
sequence,flow.Sequence,4_41,2023-10-31T17:14:26.699Z,,0,,,4355.123000017891,completion,,,,,false,,,,326674.90000000596,326674.7000000179,322302.911,322314.8000000119,322319.577,326686.069,8,400,,,
trial,html.Screen,4_42_0,2023-10-31T17:14:29.793Z,,0,1,,3082.030999994022,response,ISIC_0028781.JPG,5,ISIC_0010049.JPG,ISIC_0028781.JPG,false,1,keypress(m),500,329768.3000000119,329768.09999999404,326669.403,326675,326686.069,329769.55,8,400,43,,ISIC_0010049.JPG
break,html.Screen,4_42_1,2023-10-31T17:14:29.793Z,,0,,,NaN,,,,,,false,,,,329769.3000000119,329769.09999999404,,329768.5,,329769.55,8,400,,,
break_continue,html.Screen,4_42_2,2023-10-31T17:14:29.794Z,,0,,,NaN,,,,,,false,,,,329769.5,329769.5,,329769.40000000596,,329769.55,8,400,,,
sequence,flow.Sequence,4_42,2023-10-31T17:14:29.794Z,,0,,,3083.4309999999823,completion,,,,,false,,,,329769.7000000179,329769.5,326669.403,326675,326686.069,329769.55,8,400,,,
trial,html.Screen,4_43_0,2023-10-31T17:14:33.094Z,,0,1,,3300.049999994051,response,ISIC_1922084.JPG,5,ISIC_0014127.JPG,ISIC_0014127.JPG,false,0,keypress(z),500,333069.90000000596,333069.59999999404,329752.884,329769.8000000119,329769.55,333086.084,8,400,44,,ISIC_1922084.JPG
break,html.Screen,4_43_1,2023-10-31T17:14:33.095Z,,0,,,NaN,,,,,,false,,,,333070.8000000119,333070.59999999404,,333070.09999999404,,333086.084,8,400,,,
break_continue,html.Screen,4_43_2,2023-10-31T17:14:33.095Z,,0,,,NaN,,,,,,false,,,,333071.09999999404,333071,,333070.90000000596,,333086.084,8,400,,,
sequence,flow.Sequence,4_43,2023-10-31T17:14:33.096Z,,0,,,3301.4500000000116,completion,,,,,false,,,,333071.3000000119,333071,329752.884,329769.7000000179,329769.55,333086.084,8,400,,,
trial,html.Screen,4_44_0,2023-10-31T17:14:37.661Z,,0,1,,4550.316000005987,response,ISIC_3582787.JPG,7,ISIC_7287303.JPG,ISIC_3582787.JPG,false,1,keypress(m),500,337636.7000000179,337636.40000000596,333069.418,333071.40000000596,333086.084,337652.568,8,400,45,,ISIC_7287303.JPG
break,html.Screen,4_44_1,2023-10-31T17:14:37.662Z,,0,,,NaN,,,,,,false,,,,337637.7000000179,337637.5,,337636.90000000596,,337652.568,8,400,,,
break_continue,html.Screen,4_44_2,2023-10-31T17:14:37.662Z,,0,,,NaN,,,,,,false,,,,337638.09999999404,337638.09999999404,,337637.8000000119,,337652.568,8,400,,,
sequence,flow.Sequence,4_44,2023-10-31T17:14:37.663Z,,0,,,4552.015999994066,completion,,,,,false,,,,337638.2000000179,337638.09999999404,333069.418,333071.3000000119,333086.084,337652.568,8,400,,,
trial,html.Screen,4_45_0,2023-10-31T17:14:40.739Z,,0,1,,3062.2320000118925,response,ISIC_0025512.JPG,8,ISIC_0067609.JPG,ISIC_0067609.JPG,false,0,keypress(z),500,340715.09999999404,340714.8000000119,337635.902,337638.3000000119,337652.568,340719.375,8,400,46,,ISIC_0025512.JPG
break,html.Screen,4_45_1,2023-10-31T17:14:40.740Z,,0,,,NaN,,,,,,false,,,,340716,340715.8000000119,,340715.2000000179,,340719.375,8,400,,,
break_continue,html.Screen,4_45_2,2023-10-31T17:14:40.741Z,,0,,,NaN,,,,,,false,,,,340716.3000000119,340716.2000000179,,340716,,340719.375,8,400,,,
sequence,flow.Sequence,4_45,2023-10-31T17:14:40.741Z,,0,,,3063.632000017853,completion,,,,,false,,,,340716.40000000596,340716.2000000179,337635.902,337638.3000000119,337652.568,340719.375,8,400,,,
trial,html.Screen,4_46_0,2023-10-31T17:14:43.850Z,,0,1,,3106.0250000059605,response,ISIC_0528044.JPG,7,ISIC_3948754.JPG,ISIC_3948754.JPG,false,0,keypress(z),500,343825.59999999404,343825.40000000596,340702.709,340716.40000000596,340719.375,343835.917,8,400,47,,ISIC_0528044.JPG
break,html.Screen,4_46_1,2023-10-31T17:14:43.851Z,,0,,,NaN,,,,,,false,,,,343826.59999999404,343826.3000000119,,343825.8000000119,,343835.917,8,400,,,
break_continue,html.Screen,4_46_2,2023-10-31T17:14:43.851Z,,0,,,NaN,,,,,,false,,,,343826.90000000596,343826.8000000119,,343826.59999999404,,343835.917,8,400,,,
sequence,flow.Sequence,4_46,2023-10-31T17:14:43.851Z,,0,,,3107.425000011921,completion,,,,,false,,,,343826.90000000596,343826.8000000119,340702.709,340716.40000000596,340719.375,343835.917,8,400,,,
trial,html.Screen,4_47_0,2023-10-31T17:14:47.038Z,,0,1,,3177.383000011905,response,ISIC_0357043.JPG,8,ISIC_3744940.JPG,ISIC_0357043.JPG,false,1,keypress(m),500,347013.5,347013.3000000119,343819.251,343827,343835.917,347019.123,8,400,48,,ISIC_3744940.JPG
break,html.Screen,4_47_1,2023-10-31T17:14:47.039Z,,0,,,NaN,,,,,,false,,,,347014.40000000596,347014.2000000179,,347013.7000000179,,347019.123,8,400,,,
break_continue,html.Screen,4_47_2,2023-10-31T17:14:47.039Z,,0,,,NaN,,,,,,false,,,,347014.7000000179,347014.59999999404,,347014.5,,347019.123,8,400,,,
sequence,flow.Sequence,4_47,2023-10-31T17:14:47.039Z,,0,,,3178.6829999940237,completion,,,,,false,,,,347014.7000000179,347014.59999999404,343819.251,343827,343835.917,347019.123,8,400,,,
trial,html.Screen,4_48_0,2023-10-31T17:14:51.345Z,,0,1,,4301.476999994018,response,ISIC_3899323.JPG,7,ISIC_9095975.JPG,ISIC_3899323.JPG,false,1,keypress(m),500,351320.8000000119,351320.59999999404,347002.457,347014.90000000596,347019.123,351335.928,8,400,49,,ISIC_9095975.JPG
break,html.Screen,4_48_1,2023-10-31T17:14:51.346Z,,0,,,NaN,,,,,,false,,,,351321.7000000179,351321.5,,351321,,351335.928,8,400,,,
break_continue,html.Screen,4_48_2,2023-10-31T17:14:51.347Z,,0,,,NaN,,,,,,false,,,,351322.09999999404,351322,,351321.7000000179,,351335.928,8,400,,,
sequence,flow.Sequence,4_48,2023-10-31T17:14:51.347Z,,0,,,4302.876999999979,completion,,,,,false,,,,351322.09999999404,351322,347002.457,347014.90000000596,347019.123,351335.928,8,400,,,
trial,html.Screen,4_49_0,2023-10-31T17:14:54.584Z,,0,1,,3222.972000005946,response,ISIC_0071733.JPG,7,ISIC_0066506.JPG,ISIC_0066506.JPG,false,0,keypress(z),500,354559.2000000179,354558.90000000596,351319.262,351322.2000000179,351335.928,354569.132,8,400,50,,ISIC_0071733.JPG
break,html.Screen,4_49_1,2023-10-31T17:15:04.581Z,,0,,,9999.862000000023,timeout,,,,,false,,,,364556.2000000179,364552.328,354552.466,354559.3000000119,354569.132,364568.994,8,400,,,
break_continue,html.Screen,4_49_2,2023-10-31T17:16:17.628Z,,0,,,73018.90600000595,response,,,,,false,continue,keypress(Space),,437601.7000000179,437587.90000000596,364552.328,364556.40000000596,364568.994,437616.072,8,400,,,
sequence,flow.Sequence,4_49,2023-10-31T17:16:17.628Z,,0,,,86251.97200000595,completion,,,,,false,,,,437601.8000000119,437587.90000000596,351319.262,351322.2000000179,351335.928,437616.072,8,400,,,
trial,html.Screen,4_50_0,2023-10-31T17:16:29.132Z,,0,2,,11518.516999999993,timeout,ISIC_0012049.JPG,7,ISIC_9073150.JPG,,false,,,500,449105.7000000179,449105.5,437599.406,437601.90000000596,437616.072,449134.589,8,400,1,,
break,html.Screen,4_50_1,2023-10-31T17:16:29.133Z,,0,,,NaN,,,,,,false,,,,449106.40000000596,449106.3000000119,,449105.90000000596,,449134.589,8,400,,,
break_continue,html.Screen,4_50_2,2023-10-31T17:16:29.133Z,,0,,,NaN,,,,,,false,,,,449106.8000000119,449106.7000000179,,449106.59999999404,,449134.589,8,400,,,
sequence,flow.Sequence,4_50,2023-10-31T17:16:29.133Z,,0,,,11490.628000017896,completion,,,,,false,,,,449106.8000000119,449106.7000000179,437599.406,437601.90000000596,437616.072,449134.589,8,400,,,
trial,html.Screen,4_51_0,2023-10-31T17:16:33.714Z,,0,2,,4552.611000017903,response,ISIC_8190708.JPG,7,ISIC_0028788.JPG,ISIC_8190708.JPG,false,1,keypress(m),500,453687.40000000596,453687.2000000179,449117.923,449107,449134.589,453701.073,8,400,2,,ISIC_0028788.JPG
break,html.Screen,4_51_1,2023-10-31T17:16:33.715Z,,0,,,NaN,,,,,,false,,,,453688.40000000596,453688.09999999404,,453687.59999999404,,453701.073,8,400,,,
break_continue,html.Screen,4_51_2,2023-10-31T17:16:33.715Z,,0,,,NaN,,,,,,false,,,,453688.7000000179,453688.5,,453688.40000000596,,453701.073,8,400,,,
sequence,flow.Sequence,4_51,2023-10-31T17:16:33.715Z,,0,,,4553.911000000022,completion,,,,,false,,,,453688.7000000179,453688.5,449117.923,449107,449134.589,453701.073,8,400,,,
trial,html.Screen,4_52_0,2023-10-31T17:16:37.575Z,,0,2,,3846.427000000025,response,ISIC_6588982.JPG,6,ISIC_0014127.JPG,ISIC_6588982.JPG,false,1,keypress(m),500,457547.8000000119,457547.5,453684.407,453688.90000000596,453701.073,457550.919,8,400,3,,ISIC_0014127.JPG
break,html.Screen,4_52_1,2023-10-31T17:16:37.576Z,,0,,,NaN,,,,,,false,,,,457548.8000000119,457548.59999999404,,457548,,457550.919,8,400,,,
break_continue,html.Screen,4_52_2,2023-10-31T17:16:37.576Z,,0,,,NaN,,,,,,false,,,,457549.09999999404,457548.90000000596,,457548.8000000119,,457550.919,8,400,,,
sequence,flow.Sequence,4_52,2023-10-31T17:16:37.576Z,,0,,,3847.8270000059856,completion,,,,,false,,,,457549.2000000179,457548.90000000596,453684.407,453688.8000000119,453701.073,457550.919,8,400,,,
trial,html.Screen,4_53_0,2023-10-31T17:16:41.501Z,,0,2,,3923.281000017887,response,ISIC_0254517.JPG,5,ISIC_0010061.JPG,ISIC_0010061.JPG,false,0,keypress(z),500,461474.40000000596,461474.2000000179,457534.253,457549.3000000119,457550.919,461484.358,8,400,4,,ISIC_0254517.JPG
break,html.Screen,4_53_1,2023-10-31T17:16:41.502Z,,0,,,NaN,,,,,,false,,,,461475.3000000119,461475.2000000179,,461474.59999999404,,461484.358,8,400,,,
break_continue,html.Screen,4_53_2,2023-10-31T17:16:41.503Z,,0,,,NaN,,,,,,false,,,,461475.7000000179,461475.5,,461475.40000000596,,461484.358,8,400,,,
sequence,flow.Sequence,4_53,2023-10-31T17:16:41.503Z,,0,,,3924.5810000000056,completion,,,,,false,,,,461475.8000000119,461475.5,457534.253,457549.3000000119,457550.919,461484.358,8,400,,,
trial,html.Screen,4_54_0,2023-10-31T17:16:45.174Z,,0,2,,3662.4420000119135,response,ISIC_2598575.JPG,8,ISIC_0062546.JPG,ISIC_0062546.JPG,false,0,keypress(z),500,465147,465146.8000000119,461467.692,461475.90000000596,461484.358,465150.878,8,400,5,,ISIC_2598575.JPG
break,html.Screen,4_54_1,2023-10-31T17:16:45.175Z,,0,,,NaN,,,,,,false,,,,465148.09999999404,465147.8000000119,,465147.3000000119,,465150.878,8,400,,,
break_continue,html.Screen,4_54_2,2023-10-31T17:16:45.175Z,,0,,,NaN,,,,,,false,,,,465148.40000000596,465148.2000000179,,465148.09999999404,,465150.878,8,400,,,
sequence,flow.Sequence,4_54,2023-10-31T17:16:45.175Z,,0,,,3663.842000017874,completion,,,,,false,,,,465148.5,465148.2000000179,461467.692,461475.8000000119,461484.358,465150.878,8,400,,,
trial,html.Screen,4_55_0,2023-10-31T17:16:48.236Z,,0,2,,3058.2219999940135,response,ISIC_0027221.JPG,5,ISIC_0071012.JPG,ISIC_0027221.JPG,false,1,keypress(m),500,468209.40000000596,468209.09999999404,465134.212,465148.5,465150.878,468217.422,8,400,6,,ISIC_0071012.JPG
break,html.Screen,4_55_1,2023-10-31T17:16:48.237Z,,0,,,NaN,,,,,,false,,,,468210.3000000119,468210.09999999404,,468209.59999999404,,468217.422,8,400,,,
break_continue,html.Screen,4_55_2,2023-10-31T17:16:48.238Z,,0,,,NaN,,,,,,false,,,,468210.59999999404,468210.5,,468210.3000000119,,468217.422,8,400,,,
sequence,flow.Sequence,4_55,2023-10-31T17:16:48.238Z,,0,,,3059.621999999974,completion,,,,,false,,,,468210.7000000179,468210.5,465134.212,465148.5,465150.878,468217.422,8,400,,,
trial,html.Screen,4_56_0,2023-10-31T17:16:52.498Z,,0,2,,4253.278000017861,response,ISIC_0283506.JPG,8,ISIC_0064669.JPG,ISIC_0064669.JPG,false,0,keypress(z),500,472471,472470.7000000179,468200.756,468210.8000000119,468217.422,472484.186,8,400,7,,ISIC_0283506.JPG
break,html.Screen,4_56_1,2023-10-31T17:16:52.499Z,,0,,,NaN,,,,,,false,,,,472471.8000000119,472471.7000000179,,472471.2000000179,,472484.186,8,400,,,
break_continue,html.Screen,4_56_2,2023-10-31T17:16:52.499Z,,0,,,NaN,,,,,,false,,,,472472.2000000179,472472.09999999404,,472472,,472484.186,8,400,,,
sequence,flow.Sequence,4_56,2023-10-31T17:16:52.499Z,,0,,,4254.677999994019,completion,,,,,false,,,,472472.3000000119,472472.09999999404,468200.756,468210.8000000119,468217.422,472484.186,8,400,,,
trial,html.Screen,4_57_0,2023-10-31T17:16:57.112Z,,0,2,,4600.614000011934,response,ISIC_8319768.JPG,7,ISIC_0066106.JPG,ISIC_0066106.JPG,false,0,keypress(z),500,477085.09999999404,477084.8000000119,472467.52,472472.40000000596,472484.186,477100.668,8,400,8,,ISIC_8319768.JPG
break,html.Screen,4_57_1,2023-10-31T17:16:57.113Z,,0,,,NaN,,,,,,false,,,,477086.09999999404,477085.90000000596,,477085.40000000596,,477100.668,8,400,,,
break_continue,html.Screen,4_57_2,2023-10-31T17:16:57.114Z,,0,,,NaN,,,,,,false,,,,477086.5,477086.3000000119,,477086.3000000119,,477100.668,8,400,,,
sequence,flow.Sequence,4_57,2023-10-31T17:16:57.114Z,,0,,,4602.114000011934,completion,,,,,false,,,,477086.59999999404,477086.3000000119,472467.52,472472.3000000119,472484.186,477100.668,8,400,,,
trial,html.Screen,4_58_0,2023-10-31T17:17:00.368Z,,0,2,,3239.7320000059553,response,ISIC_5223280.JPG,8,ISIC_1985436.JPG,ISIC_5223280.JPG,false,1,keypress(m),500,480340.59999999404,480340.40000000596,477084.002,477086.59999999404,477100.668,480350.816,8,400,9,,ISIC_1985436.JPG
break,html.Screen,4_58_1,2023-10-31T17:17:00.369Z,,0,,,NaN,,,,,,false,,,,480341.59999999404,480341.40000000596,,480340.8000000119,,480350.816,8,400,,,
break_continue,html.Screen,4_58_2,2023-10-31T17:17:00.369Z,,0,,,NaN,,,,,,false,,,,480341.90000000596,480341.8000000119,,480341.7000000179,,480350.816,8,400,,,
sequence,flow.Sequence,4_58,2023-10-31T17:17:00.369Z,,0,,,3241.132000011916,completion,,,,,false,,,,480342.09999999404,480341.8000000119,477084.002,477086.59999999404,477100.668,480350.816,8,400,,,
trial,html.Screen,4_59_0,2023-10-31T17:17:04.276Z,,0,2,,3897.38400001789,response,ISIC_9406755.JPG,8,ISIC_0027842.JPG,ISIC_0027842.JPG,false,0,keypress(z),500,484248.5,484248.2000000179,480334.15,480342.09999999404,480350.816,484250.66,8,400,10,,ISIC_9406755.JPG
break,html.Screen,4_59_1,2023-10-31T17:17:04.277Z,,0,,,NaN,,,,,,false,,,,484249.5,484249.3000000119,,484248.8000000119,,484250.66,8,400,,,
break_continue,html.Screen,4_59_2,2023-10-31T17:17:04.277Z,,0,,,NaN,,,,,,false,,,,484249.8000000119,484249.7000000179,,484249.5,,484250.66,8,400,,,
sequence,flow.Sequence,4_59,2023-10-31T17:17:04.277Z,,0,,,3898.88400001789,completion,,,,,false,,,,484249.90000000596,484249.7000000179,480334.15,480342.09999999404,480350.816,484250.66,8,400,,,
trial,html.Screen,4_60_0,2023-10-31T17:17:08.443Z,,0,2,,4164.540000017907,response,ISIC_0059836.JPG,7,ISIC_6926118.JPG,ISIC_6926118.JPG,false,0,keypress(z),500,488415.3000000119,488415.2000000179,484233.994,484249.90000000596,484250.66,488417.16,8,400,11,,ISIC_0059836.JPG
break,html.Screen,4_60_1,2023-10-31T17:17:08.444Z,,0,,,NaN,,,,,,false,,,,488416.3000000119,488416.09999999404,,488415.5,,488417.16,8,400,,,
break_continue,html.Screen,4_60_2,2023-10-31T17:17:08.444Z,,0,,,NaN,,,,,,false,,,,488416.59999999404,488416.5,,488416.40000000596,,488417.16,8,400,,,
sequence,flow.Sequence,4_60,2023-10-31T17:17:08.444Z,,0,,,4165.840000000026,completion,,,,,false,,,,488416.7000000179,488416.5,484233.994,484249.90000000596,484250.66,488417.16,8,400,,,
trial,html.Screen,4_61_0,2023-10-31T17:17:13.779Z,,0,2,,5334.1400000119465,response,ISIC_0059506.JPG,8,ISIC_0031203.JPG,ISIC_0031203.JPG,false,0,keypress(z),500,493751.5,493751.3000000119,488400.494,488416.8000000119,488417.16,493767.21,8,400,12,,ISIC_0059506.JPG
break,html.Screen,4_61_1,2023-10-31T17:17:13.780Z,,0,,,NaN,,,,,,false,,,,493752.40000000596,493752.2000000179,,493751.7000000179,,493767.21,8,400,,,
break_continue,html.Screen,4_61_2,2023-10-31T17:17:13.780Z,,0,,,NaN,,,,,,false,,,,493752.8000000119,493752.7000000179,,493752.5,,493767.21,8,400,,,
sequence,flow.Sequence,4_61,2023-10-31T17:17:13.780Z,,0,,,5335.540000017907,completion,,,,,false,,,,493752.8000000119,493752.7000000179,488400.494,488416.8000000119,488417.16,493767.21,8,400,,,
trial,html.Screen,4_62_0,2023-10-31T17:17:18.782Z,,0,2,,4987.289999999979,response,ISIC_1545544.JPG,8,ISIC_0053572.JPG,ISIC_0053572.JPG,false,0,keypress(z),500,498754.7000000179,498754.5,493750.544,493752.90000000596,493767.21,498767.01,8,400,13,,ISIC_1545544.JPG
break,html.Screen,4_62_1,2023-10-31T17:17:18.783Z,,0,,,NaN,,,,,,false,,,,498755.7000000179,498755.40000000596,,498754.90000000596,,498767.01,8,400,,,
break_continue,html.Screen,4_62_2,2023-10-31T17:17:18.784Z,,0,,,NaN,,,,,,false,,,,498756,498756,,498755.8000000119,,498767.01,8,400,,,
sequence,flow.Sequence,4_62,2023-10-31T17:17:18.784Z,,0,,,4988.789999999979,completion,,,,,false,,,,498756.09999999404,498756,493750.544,493752.90000000596,493767.21,498767.01,8,400,,,
trial,html.Screen,4_63_0,2023-10-31T17:17:22.243Z,,0,2,,3448.390000005951,response,ISIC_1109641.JPG,8,ISIC_8398000.JPG,ISIC_8398000.JPG,false,0,keypress(z),500,502215.59999999404,502215.40000000596,498750.344,498756.2000000179,498767.01,502217.142,8,400,14,,ISIC_1109641.JPG
break,html.Screen,4_63_1,2023-10-31T17:17:22.244Z,,0,,,NaN,,,,,,false,,,,502216.5,502216.3000000119,,502215.8000000119,,502217.142,8,400,,,
break_continue,html.Screen,4_63_2,2023-10-31T17:17:22.245Z,,0,,,NaN,,,,,,false,,,,502216.8000000119,502216.7000000179,,502216.59999999404,,502217.142,8,400,,,
sequence,flow.Sequence,4_63,2023-10-31T17:17:22.245Z,,0,,,3449.690000017872,completion,,,,,false,,,,502216.90000000596,502216.7000000179,498750.344,498756.2000000179,498767.01,502217.142,8,400,,,
trial,html.Screen,4_64_0,2023-10-31T17:17:27.034Z,,0,2,,4788.858000000007,response,ISIC_0032112.JPG,6,ISIC_0030900.JPG,ISIC_0030900.JPG,false,0,keypress(z),500,507006.2000000179,507006,502200.476,502218,502217.142,507016.95,8,400,15,,ISIC_0032112.JPG
break,html.Screen,4_64_1,2023-10-31T17:17:27.035Z,,0,,,NaN,,,,,,false,,,,507007.2000000179,507007,,507006.5,,507016.95,8,400,,,
break_continue,html.Screen,4_64_2,2023-10-31T17:17:27.035Z,,0,,,NaN,,,,,,false,,,,507007.5,507007.40000000596,,507007.3000000119,,507016.95,8,400,,,
sequence,flow.Sequence,4_64,2023-10-31T17:17:27.035Z,,0,,,4790.258000005968,completion,,,,,false,,,,507007.7000000179,507007.40000000596,502200.476,502217.90000000596,502217.142,507016.95,8,400,,,
trial,html.Screen,4_65_0,2023-10-31T17:17:31.120Z,,0,2,,4075.3500000119093,response,ISIC_1945381.JPG,6,ISIC_0026506.JPG,ISIC_0026506.JPG,false,0,keypress(z),500,511092.5,511092.3000000119,507000.284,507007.8000000119,507016.95,511100.39,8,400,16,,ISIC_1945381.JPG
break,html.Screen,4_65_1,2023-10-31T17:17:31.121Z,,0,,,NaN,,,,,,false,,,,511093,511092.90000000596,,511092.59999999404,,511100.39,8,400,,,
break_continue,html.Screen,4_65_2,2023-10-31T17:17:31.121Z,,0,,,NaN,,,,,,false,,,,511093.2000000179,511093.2000000179,,511093.09999999404,,511100.39,8,400,,,
sequence,flow.Sequence,4_65,2023-10-31T17:17:31.121Z,,0,,,4076.2500000178698,completion,,,,,false,,,,511093.40000000596,511093.2000000179,507000.284,507007.8000000119,507016.95,511100.39,8,400,,,
trial,html.Screen,4_66_0,2023-10-31T17:17:34.343Z,,0,2,,3214.910000011907,response,ISIC_3295750.JPG,6,ISIC_0056271.JPG,ISIC_0056271.JPG,false,0,keypress(z),500,514315.5,514315.3000000119,511083.724,511093.5,511100.39,514316.928,8,400,17,,ISIC_3295750.JPG
break,html.Screen,4_66_1,2023-10-31T17:17:34.344Z,,0,,,NaN,,,,,,false,,,,514316.5,514316.3000000119,,514315.7000000179,,514316.928,8,400,,,
break_continue,html.Screen,4_66_2,2023-10-31T17:17:34.345Z,,0,,,NaN,,,,,,false,,,,514316.90000000596,514316.7000000179,,514316.59999999404,,514316.928,8,400,,,
sequence,flow.Sequence,4_66,2023-10-31T17:17:34.345Z,,0,,,3216.3100000178674,completion,,,,,false,,,,514316.90000000596,514316.7000000179,511083.724,511093.40000000596,511100.39,514316.928,8,400,,,
trial,html.Screen,4_67_0,2023-10-31T17:17:37.789Z,,0,2,,3444.171999994025,response,ISIC_2868199.JPG,7,ISIC_6808543.JPG,ISIC_6808543.JPG,false,0,keypress(z),500,517761.40000000596,517761.09999999404,514300.262,514317.09999999404,514316.928,517766.79,8,400,18,,ISIC_2868199.JPG
break,html.Screen,4_67_1,2023-10-31T17:17:37.790Z,,0,,,NaN,,,,,,false,,,,517762.40000000596,517762.09999999404,,517761.7000000179,,517766.79,8,400,,,
break_continue,html.Screen,4_67_2,2023-10-31T17:17:37.791Z,,0,,,NaN,,,,,,false,,,,517762.7000000179,517762.59999999404,,517762.40000000596,,517766.79,8,400,,,
sequence,flow.Sequence,4_67,2023-10-31T17:17:37.791Z,,0,,,3445.671999994025,completion,,,,,false,,,,517762.7000000179,517762.59999999404,514300.262,514317,514316.928,517766.79,8,400,,,
trial,html.Screen,4_68_0,2023-10-31T17:17:40.836Z,,0,2,,3041.210000000021,response,ISIC_2874218.JPG,7,ISIC_0011921.JPG,ISIC_0011921.JPG,false,0,keypress(z),500,520808.3000000119,520808,517750.124,517762.90000000596,517766.79,520816.668,8,400,19,,ISIC_2874218.JPG
break,html.Screen,4_68_1,2023-10-31T17:17:40.837Z,,0,,,NaN,,,,,,false,,,,520809.40000000596,520809.09999999404,,520808.59999999404,,520816.668,8,400,,,
break_continue,html.Screen,4_68_2,2023-10-31T17:17:40.838Z,,0,,,NaN,,,,,,false,,,,520809.7000000179,520809.5,,520809.40000000596,,520816.668,8,400,,,
sequence,flow.Sequence,4_68,2023-10-31T17:17:40.838Z,,0,,,3042.710000000021,completion,,,,,false,,,,520809.8000000119,520809.5,517750.124,517762.8000000119,517766.79,520816.668,8,400,,,
trial,html.Screen,4_69_0,2023-10-31T17:17:45.370Z,,0,2,,4524.632000011916,response,ISIC_5789263.JPG,7,ISIC_8502869.JPG,ISIC_8502869.JPG,false,0,keypress(z),500,525341.599999994,525341.3000000119,520800.002,520809.8000000119,520816.668,525350.088,8,400,20,,ISIC_5789263.JPG
break,html.Screen,4_69_1,2023-10-31T17:17:45.371Z,,0,,,NaN,,,,,,false,,,,525342.599999994,525342.3000000119,,525341.8000000119,,525350.088,8,400,,,
break_continue,html.Screen,4_69_2,2023-10-31T17:17:45.371Z,,0,,,NaN,,,,,,false,,,,525342.900000006,525342.8000000119,,525342.7000000179,,525350.088,8,400,,,
sequence,flow.Sequence,4_69,2023-10-31T17:17:45.371Z,,0,,,4526.132000011916,completion,,,,,false,,,,525343,525342.8000000119,520800.002,520809.8000000119,520816.668,525350.088,8,400,,,
trial,html.Screen,4_70_0,2023-10-31T17:17:49.185Z,,0,2,,3806.912000000011,response,ISIC_2647198.JPG,8,ISIC_0058837.JPG,ISIC_2647198.JPG,false,1,keypress(m),500,529157.2000000179,529157,525333.422,525343.099999994,525350.088,529166.602,8,400,21,,ISIC_0058837.JPG
break,html.Screen,4_70_1,2023-10-31T17:17:49.186Z,,0,,,NaN,,,,,,false,,,,529158.2000000179,529157.900000006,,529157.400000006,,529166.602,8,400,,,
break_continue,html.Screen,4_70_2,2023-10-31T17:17:49.187Z,,0,,,NaN,,,,,,false,,,,529158.5,529158.5,,529158.3000000119,,529166.602,8,400,,,
sequence,flow.Sequence,4_70,2023-10-31T17:17:49.187Z,,0,,,3808.412000000011,completion,,,,,false,,,,529158.599999994,529158.5,525333.422,525343.099999994,525350.088,529166.602,8,400,,,
trial,html.Screen,4_71_0,2023-10-31T17:17:52.875Z,,0,2,,3680.298000006005,response,ISIC_5388493.JPG,7,ISIC_0527170.JPG,ISIC_0527170.JPG,false,0,keypress(z),500,532847.2000000179,532846.900000006,529149.936,529158.7000000179,529166.602,532850.089,8,400,22,,ISIC_5388493.JPG
break,html.Screen,4_71_1,2023-10-31T17:17:52.876Z,,0,,,NaN,,,,,,false,,,,532848.099999994,532847.900000006,,532847.400000006,,532850.089,8,400,,,
break_continue,html.Screen,4_71_2,2023-10-31T17:17:52.877Z,,0,,,NaN,,,,,,false,,,,532848.5,532848.400000006,,532848.2000000179,,532850.089,8,400,,,
sequence,flow.Sequence,4_71,2023-10-31T17:17:52.877Z,,0,,,3681.798000006005,completion,,,,,false,,,,532848.599999994,532848.400000006,529149.936,529158.599999994,529166.602,532850.089,8,400,,,
trial,html.Screen,4_72_0,2023-10-31T17:17:56.625Z,,0,2,,3745.7110000118846,response,ISIC_7266604.JPG,8,ISIC_0009006.JPG,ISIC_7266604.JPG,false,1,keypress(m),500,536596.2000000179,536595.8000000119,532833.423,532848.599999994,532850.089,536599.939,8,400,23,,ISIC_0009006.JPG
break,html.Screen,4_72_1,2023-10-31T17:17:56.625Z,,0,,,NaN,,,,,,false,,,,536597.099999994,536596.900000006,,536596.400000006,,536599.939,8,400,,,
break_continue,html.Screen,4_72_2,2023-10-31T17:17:56.626Z,,0,,,NaN,,,,,,false,,,,536597.400000006,536597.3000000119,,536597.2000000179,,536599.939,8,400,,,
sequence,flow.Sequence,4_72,2023-10-31T17:17:56.626Z,,0,,,3747.2110000118846,completion,,,,,false,,,,536597.5,536597.3000000119,532833.423,532848.599999994,532850.089,536599.939,8,400,,,
trial,html.Screen,4_73_0,2023-10-31T17:17:59.622Z,,0,2,,2993.7610000178684,response,ISIC_0027842.JPG,8,ISIC_4533833.JPG,ISIC_0027842.JPG,false,1,keypress(m),500,539593.900000006,539593.7000000179,536583.273,536597.599999994,536599.939,539599.819,8,400,24,,ISIC_4533833.JPG
break,html.Screen,4_73_1,2023-10-31T17:17:59.623Z,,0,,,NaN,,,,,,false,,,,539594.900000006,539594.599999994,,539594.2000000179,,539599.819,8,400,,,
break_continue,html.Screen,4_73_2,2023-10-31T17:17:59.624Z,,0,,,NaN,,,,,,false,,,,539595.2000000179,539595.099999994,,539595,,539599.819,8,400,,,
sequence,flow.Sequence,4_73,2023-10-31T17:17:59.624Z,,0,,,2995.1609999940265,completion,,,,,false,,,,539595.3000000119,539595.099999994,536583.273,536597.599999994,536599.939,539599.819,8,400,,,
trial,html.Screen,4_74_0,2023-10-31T17:18:05.310Z,,0,2,,5680.881000017864,response,ISIC_0053884.JPG,7,ISIC_1768733.JPG,ISIC_0053884.JPG,false,1,keypress(m),500,545281,545280.7000000179,539583.153,539595.400000006,539599.819,545283.196,8,400,25,,ISIC_1768733.JPG
break,html.Screen,4_74_1,2023-10-31T17:18:05.310Z,,0,,,NaN,,,,,,false,,,,545282,545281.7000000179,,545281.099999994,,545283.196,8,400,,,
break_continue,html.Screen,4_74_2,2023-10-31T17:18:05.311Z,,0,,,NaN,,,,,,false,,,,545282.3000000119,545282.2000000179,,545282.099999994,,545283.196,8,400,,,
sequence,flow.Sequence,4_74,2023-10-31T17:18:05.311Z,,0,,,5682.381000017864,completion,,,,,false,,,,545282.400000006,545282.2000000179,539583.153,539595.3000000119,539599.819,545283.196,8,400,,,
trial,html.Screen,4_75_0,2023-10-31T17:18:09.780Z,,0,2,,4467.804000000004,response,ISIC_0046645.JPG,7,ISIC_2122488.JPG,ISIC_0046645.JPG,false,1,keypress(m),500,549751.3000000119,549751,545266.53,545282.400000006,545283.196,549766.35,8,400,26,,ISIC_2122488.JPG
break,html.Screen,4_75_1,2023-10-31T17:18:09.781Z,,0,,,NaN,,,,,,false,,,,549752.3000000119,549752.099999994,,549751.599999994,,549766.35,8,400,,,
break_continue,html.Screen,4_75_2,2023-10-31T17:18:09.781Z,,0,,,NaN,,,,,,false,,,,549752.599999994,549752.5,,549752.400000006,,549766.35,8,400,,,
sequence,flow.Sequence,4_75,2023-10-31T17:18:09.781Z,,0,,,4469.304000000004,completion,,,,,false,,,,549752.7000000179,549752.5,545266.53,545282.400000006,545283.196,549766.35,8,400,,,
trial,html.Screen,4_76_0,2023-10-31T17:18:15.225Z,,0,2,,5429.650000000023,response,ISIC_0031363.JPG,7,ISIC_0062158.JPG,ISIC_0031363.JPG,false,1,keypress(m),500,555196.2000000179,555196,549749.684,549752.8000000119,549766.35,555216.446,8,400,27,,ISIC_0062158.JPG
break,html.Screen,4_76_1,2023-10-31T17:18:15.226Z,,0,,,NaN,,,,,,false,,,,555197.2000000179,555197,,555196.5,,555216.446,8,400,,,
break_continue,html.Screen,4_76_2,2023-10-31T17:18:15.226Z,,0,,,NaN,,,,,,false,,,,555197.599999994,555197.5,,555197.400000006,,555216.446,8,400,,,
sequence,flow.Sequence,4_76,2023-10-31T17:18:15.226Z,,0,,,5431.150000000023,completion,,,,,false,,,,555197.8000000119,555197.5,549749.684,549752.7000000179,549766.35,555216.446,8,400,,,
trial,html.Screen,4_77_0,2023-10-31T17:18:18.097Z,,0,2,,2851.6539999940433,response,ISIC_4732241.JPG,9,ISIC_0069970.JPG,ISIC_0069970.JPG,false,0,keypress(z),500,558068.3000000119,558068.099999994,555199.78,555197.8000000119,555216.446,558082.998,8,400,28,,ISIC_4732241.JPG
break,html.Screen,4_77_1,2023-10-31T17:18:18.098Z,,0,,,NaN,,,,,,false,,,,558069.2000000179,558069.099999994,,558068.599999994,,558082.998,8,400,,,
break_continue,html.Screen,4_77_2,2023-10-31T17:18:18.098Z,,0,,,NaN,,,,,,false,,,,558069.5,558069.5,,558069.400000006,,558082.998,8,400,,,
sequence,flow.Sequence,4_77,2023-10-31T17:18:18.099Z,,0,,,2853.0540000000037,completion,,,,,false,,,,558069.7000000179,558069.5,555199.78,555197.8000000119,555216.446,558082.998,8,400,,,
trial,html.Screen,4_78_0,2023-10-31T17:18:21.290Z,,0,2,,3178.0019999999786,response,ISIC_0029328.JPG,8,ISIC_0001832.JPG,ISIC_0029328.JPG,false,1,keypress(m),500,561261.099999994,561261,558066.332,558069.8000000119,558082.998,561266.204,8,400,29,,ISIC_0001832.JPG
break,html.Screen,4_78_1,2023-10-31T17:18:21.291Z,,0,,,NaN,,,,,,false,,,,561261.900000006,561261.7000000179,,561261.3000000119,,561266.204,8,400,,,
break_continue,html.Screen,4_78_2,2023-10-31T17:18:21.291Z,,0,,,NaN,,,,,,false,,,,561262.2000000179,561262.099999994,,561262,,561266.204,8,400,,,
sequence,flow.Sequence,4_78,2023-10-31T17:18:21.291Z,,0,,,3179.101999994018,completion,,,,,false,,,,561262.3000000119,561262.099999994,558066.332,558069.8000000119,558082.998,561266.204,8,400,,,
trial,html.Screen,4_79_0,2023-10-31T17:18:24.654Z,,0,2,,3358.6960000059335,response,ISIC_5015378.JPG,4,ISIC_0822116.JPG,ISIC_5015378.JPG,false,1,keypress(m),500,564625.099999994,564624.900000006,561249.538,561262.3000000119,561266.204,564632.736,8,400,30,,ISIC_0822116.JPG
break,html.Screen,4_79_1,2023-10-31T17:18:24.655Z,,0,,,NaN,,,,,,false,,,,564626,564625.8000000119,,564625.3000000119,,564632.736,8,400,,,
break_continue,html.Screen,4_79_2,2023-10-31T17:18:24.655Z,,0,,,NaN,,,,,,false,,,,564626.400000006,564626.3000000119,,564626.099999994,,564632.736,8,400,,,
sequence,flow.Sequence,4_79,2023-10-31T17:18:24.655Z,,0,,,3360.096000011894,completion,,,,,false,,,,564626.599999994,564626.3000000119,561249.538,561262.3000000119,561266.204,564632.736,8,400,,,
trial,html.Screen,4_80_0,2023-10-31T17:18:27.719Z,,0,2,,3056.5640000118874,response,ISIC_7746479.JPG,7,ISIC_1696845.JPG,ISIC_1696845.JPG,false,0,keypress(z),500,567689.599999994,567689.3000000119,564616.07,564626.599999994,564632.736,567699.544,8,400,31,,ISIC_7746479.JPG
break,html.Screen,4_80_1,2023-10-31T17:18:27.720Z,,0,,,NaN,,,,,,false,,,,567690.5,567690.3000000119,,567689.8000000119,,567699.544,8,400,,,
break_continue,html.Screen,4_80_2,2023-10-31T17:18:27.720Z,,0,,,NaN,,,,,,false,,,,567690.900000006,567690.7000000179,,567690.7000000179,,567699.544,8,400,,,
sequence,flow.Sequence,4_80,2023-10-31T17:18:27.720Z,,0,,,3057.964000017848,completion,,,,,false,,,,567691,567690.7000000179,564616.07,564626.599999994,564632.736,567699.544,8,400,,,
trial,html.Screen,4_81_0,2023-10-31T17:18:31.338Z,,0,2,,3609.4560000000056,response,ISIC_6475049.JPG,4,ISIC_0010442.JPG,ISIC_0010442.JPG,false,0,keypress(z),500,571309.2000000179,571309,567682.878,567691.099999994,567699.544,571316.066,8,400,32,,ISIC_6475049.JPG
break,html.Screen,4_81_1,2023-10-31T17:18:31.339Z,,0,,,NaN,,,,,,false,,,,571310.2000000179,571309.900000006,,571309.400000006,,571316.066,8,400,,,
break_continue,html.Screen,4_81_2,2023-10-31T17:18:31.340Z,,0,,,NaN,,,,,,false,,,,571310.5,571310.400000006,,571310.3000000119,,571316.066,8,400,,,
sequence,flow.Sequence,4_81,2023-10-31T17:18:31.340Z,,0,,,3610.856000005966,completion,,,,,false,,,,571310.599999994,571310.400000006,567682.878,567691.099999994,567699.544,571316.066,8,400,,,
trial,html.Screen,4_82_0,2023-10-31T17:18:37.518Z,,0,2,,6172.734000011929,response,ISIC_0067012.JPG,9,ISIC_5994645.JPG,ISIC_5994645.JPG,false,0,keypress(z),500,577489.099999994,577488.8000000119,571299.4,571310.599999994,571316.066,577499.471,8,400,33,,ISIC_0067012.JPG
break,html.Screen,4_82_1,2023-10-31T17:18:37.519Z,,0,,,NaN,,,,,,false,,,,577490.099999994,577489.900000006,,577489.400000006,,577499.471,8,400,,,
break_continue,html.Screen,4_82_2,2023-10-31T17:18:37.520Z,,0,,,NaN,,,,,,false,,,,577490.5,577490.3000000119,,577490.099999994,,577499.471,8,400,,,
sequence,flow.Sequence,4_82,2023-10-31T17:18:37.520Z,,0,,,6174.234000011929,completion,,,,,false,,,,577490.5,577490.3000000119,571299.4,571310.599999994,571316.066,577499.471,8,400,,,
trial,html.Screen,4_83_0,2023-10-31T17:18:41.570Z,,0,2,,4041.12899999402,response,ISIC_3094758.JPG,7,ISIC_0726170.JPG,ISIC_3094758.JPG,false,1,keypress(m),500,581540.8000000119,581540.599999994,577482.805,577490.7000000179,577499.471,581549.309,8,400,34,,ISIC_0726170.JPG
break,html.Screen,4_83_1,2023-10-31T17:18:41.571Z,,0,,,NaN,,,,,,false,,,,581541.7000000179,581541.5,,581541,,581549.309,8,400,,,
break_continue,html.Screen,4_83_2,2023-10-31T17:18:41.571Z,,0,,,NaN,,,,,,false,,,,581542.099999994,581542,,581541.8000000119,,581549.309,8,400,,,
sequence,flow.Sequence,4_83,2023-10-31T17:18:41.571Z,,0,,,4042.5289999999804,completion,,,,,false,,,,581542.2000000179,581542,577482.805,577490.599999994,577499.471,581549.309,8,400,,,
trial,html.Screen,4_84_0,2023-10-31T17:18:44.906Z,,0,2,,3326.790999994031,response,ISIC_2146346.JPG,7,ISIC_9059311.JPG,ISIC_2146346.JPG,false,1,keypress(m),500,584876.400000006,584876.099999994,581532.643,581542.3000000119,581549.309,584882.509,8,400,35,,ISIC_9059311.JPG
break,html.Screen,4_84_1,2023-10-31T17:18:44.907Z,,0,,,NaN,,,,,,false,,,,584877.2000000179,584877,,584876.599999994,,584882.509,8,400,,,
break_continue,html.Screen,4_84_2,2023-10-31T17:18:44.907Z,,0,,,NaN,,,,,,false,,,,584877.400000006,584877.3000000119,,584877.3000000119,,584882.509,8,400,,,
sequence,flow.Sequence,4_84,2023-10-31T17:18:44.907Z,,0,,,3327.9910000119125,completion,,,,,false,,,,584877.5,584877.3000000119,581532.643,581542.3000000119,581549.309,584882.509,8,400,,,
trial,html.Screen,4_85_0,2023-10-31T17:18:51.101Z,,0,2,,6188.590999994078,response,ISIC_2724529.JPG,7,ISIC_6942437.JPG,ISIC_6942437.JPG,false,0,keypress(z),500,591071.3000000119,591071.099999994,584865.843,584877.7000000179,584882.509,591082.532,8,400,36,,ISIC_2724529.JPG
break,html.Screen,4_85_1,2023-10-31T17:18:51.102Z,,0,,,NaN,,,,,,false,,,,591072.3000000119,591072,,591071.5,,591082.532,8,400,,,
break_continue,html.Screen,4_85_2,2023-10-31T17:18:51.102Z,,0,,,NaN,,,,,,false,,,,591072.599999994,591072.5,,591072.400000006,,591082.532,8,400,,,
sequence,flow.Sequence,4_85,2023-10-31T17:18:51.102Z,,0,,,6189.991000000038,completion,,,,,false,,,,591072.7000000179,591072.5,584865.843,584877.599999994,584882.509,591082.532,8,400,,,
trial,html.Screen,4_86_0,2023-10-31T17:18:54.740Z,,0,2,,3627.668000017875,response,ISIC_3453832.JPG,5,ISIC_0027604.JPG,ISIC_0027604.JPG,false,0,keypress(z),500,594710.7000000179,594710.2000000179,591065.866,591072.8000000119,591082.532,594732.386,8,400,37,,ISIC_3453832.JPG
break,html.Screen,4_86_1,2023-10-31T17:18:54.741Z,,0,,,NaN,,,,,,false,,,,594711.3000000119,594711.099999994,,594710.7000000179,,594732.386,8,400,,,
break_continue,html.Screen,4_86_2,2023-10-31T17:18:54.741Z,,0,,,NaN,,,,,,false,,,,594711.599999994,594711.5,,594711.400000006,,594732.386,8,400,,,
sequence,flow.Sequence,4_86,2023-10-31T17:18:54.741Z,,0,,,3628.9679999999935,completion,,,,,false,,,,594711.8000000119,594711.5,591065.866,591072.8000000119,591082.532,594732.386,8,400,,,
trial,html.Screen,4_87_0,2023-10-31T17:18:58.959Z,,0,2,,4196.713999993983,response,ISIC_1534391.JPG,5,ISIC_0029033.JPG,ISIC_0029033.JPG,false,0,keypress(z),500,598929.3000000119,598929.099999994,594715.72,594711.8000000119,594732.386,598932.508,8,400,38,,ISIC_1534391.JPG
break,html.Screen,4_87_1,2023-10-31T17:18:58.960Z,,0,,,NaN,,,,,,false,,,,598930.2000000179,598930.099999994,,598929.5,,598932.508,8,400,,,
break_continue,html.Screen,4_87_2,2023-10-31T17:18:58.960Z,,0,,,NaN,,,,,,false,,,,598930.5,598930.5,,598930.400000006,,598932.508,8,400,,,
sequence,flow.Sequence,4_87,2023-10-31T17:18:58.960Z,,0,,,4198.113999999943,completion,,,,,false,,,,598930.599999994,598930.5,594715.72,594711.8000000119,594732.386,598932.508,8,400,,,
trial,html.Screen,4_88_0,2023-10-31T17:19:02.242Z,,0,2,,3279.6920000178507,response,ISIC_4978697.JPG,8,ISIC_5611515.JPG,ISIC_5611515.JPG,false,0,keypress(z),500,602212.400000006,602212.2000000179,598915.842,598930.7000000179,598932.508,602215.71,8,400,39,,ISIC_4978697.JPG
break,html.Screen,4_88_1,2023-10-31T17:19:02.243Z,,0,,,NaN,,,,,,false,,,,602213.400000006,602213.099999994,,602212.599999994,,602215.71,8,400,,,
break_continue,html.Screen,4_88_2,2023-10-31T17:19:02.243Z,,0,,,NaN,,,,,,false,,,,602213.7000000179,602213.599999994,,602213.5,,602215.71,8,400,,,
sequence,flow.Sequence,4_88,2023-10-31T17:19:02.244Z,,0,,,3281.091999994009,completion,,,,,false,,,,602213.8000000119,602213.599999994,598915.842,598930.7000000179,598932.508,602215.71,8,400,,,
trial,html.Screen,4_89_0,2023-10-31T17:19:06.711Z,,0,2,,4464.290000000037,response,ISIC_0055931.JPG,7,ISIC_0033730.JPG,ISIC_0033730.JPG,false,0,keypress(z),500,606680.8000000119,606680,602199.044,602213.900000006,602215.71,606682.198,8,400,40,,ISIC_0055931.JPG
break,html.Screen,4_89_1,2023-10-31T17:19:06.712Z,,0,,,NaN,,,,,,false,,,,606681.900000006,606681.7000000179,,606681,,606682.198,8,400,,,
break_continue,html.Screen,4_89_2,2023-10-31T17:19:06.712Z,,0,,,NaN,,,,,,false,,,,606682.2000000179,606682.2000000179,,606681.900000006,,606682.198,8,400,,,
sequence,flow.Sequence,4_89,2023-10-31T17:19:06.712Z,,0,,,4466.490000017919,completion,,,,,false,,,,606682.400000006,606682.2000000179,602199.044,602213.900000006,602215.71,606682.198,8,400,,,
trial,html.Screen,4_90_0,2023-10-31T17:19:10.493Z,,0,2,,3780.802000000025,response,ISIC_5238111.JPG,8,ISIC_2904067.JPG,ISIC_2904067.JPG,false,0,keypress(z),500,610463.3000000119,610463,606665.532,606682.400000006,606682.198,610465.651,8,400,41,,ISIC_5238111.JPG
break,html.Screen,4_90_1,2023-10-31T17:19:10.494Z,,0,,,NaN,,,,,,false,,,,610464.2000000179,610464,,610463.5,,610465.651,8,400,,,
break_continue,html.Screen,4_90_2,2023-10-31T17:19:10.494Z,,0,,,NaN,,,,,,false,,,,610464.599999994,610464.400000006,,610464.3000000119,,610465.651,8,400,,,
sequence,flow.Sequence,4_90,2023-10-31T17:19:10.495Z,,0,,,3782.2020000059856,completion,,,,,false,,,,610464.7000000179,610464.400000006,606665.532,606682.400000006,606682.198,610465.651,8,400,,,
trial,html.Screen,4_91_0,2023-10-31T17:19:13.954Z,,0,2,,3458.6490000119666,response,ISIC_0010440.JPG,6,ISIC_3213469.JPG,ISIC_3213469.JPG,false,0,keypress(z),500,613924.5,613924.3000000119,610448.985,610464.8000000119,610465.651,613932.179,8,400,42,,ISIC_0010440.JPG
break,html.Screen,4_91_1,2023-10-31T17:19:13.955Z,,0,,,NaN,,,,,,false,,,,613925.3000000119,613925.2000000179,,613924.7000000179,,613932.179,8,400,,,
break_continue,html.Screen,4_91_2,2023-10-31T17:19:13.956Z,,0,,,NaN,,,,,,false,,,,613925.7000000179,613925.5,,613925.400000006,,613932.179,8,400,,,
sequence,flow.Sequence,4_91,2023-10-31T17:19:13.956Z,,0,,,3459.8490000000456,completion,,,,,false,,,,613925.8000000119,613925.5,610448.985,610464.7000000179,610465.651,613932.179,8,400,,,
trial,html.Screen,4_92_0,2023-10-31T17:19:16.888Z,,0,2,,2925.121000011917,response,ISIC_0029963.JPG,6,ISIC_8509219.JPG,ISIC_0029963.JPG,false,1,keypress(m),500,616857.7000000179,616857.3000000119,613915.513,613925.900000006,613932.179,616865.395,8,400,43,,ISIC_8509219.JPG
break,html.Screen,4_92_1,2023-10-31T17:19:16.889Z,,0,,,NaN,,,,,,false,,,,616858.599999994,616858.3000000119,,616857.900000006,,616865.395,8,400,,,
break_continue,html.Screen,4_92_2,2023-10-31T17:19:16.889Z,,0,,,NaN,,,,,,false,,,,616858.900000006,616858.8000000119,,616858.7000000179,,616865.395,8,400,,,
sequence,flow.Sequence,4_92,2023-10-31T17:19:16.889Z,,0,,,2926.621000011917,completion,,,,,false,,,,616859,616858.8000000119,613915.513,613925.900000006,613932.179,616865.395,8,400,,,
trial,html.Screen,4_93_0,2023-10-31T17:19:20.075Z,,0,2,,3179.6049999999814,response,ISIC_7614221.JPG,7,ISIC_2400177.JPG,ISIC_2400177.JPG,false,0,keypress(z),500,620045.099999994,620045,616848.729,616859.099999994,616865.395,620048.882,8,400,44,,ISIC_7614221.JPG
break,html.Screen,4_93_1,2023-10-31T17:19:20.076Z,,0,,,NaN,,,,,,false,,,,620045.900000006,620045.7000000179,,620045.3000000119,,620048.882,8,400,,,
break_continue,html.Screen,4_93_2,2023-10-31T17:19:20.076Z,,0,,,NaN,,,,,,false,,,,620046.2000000179,620046.099999994,,620046,,620048.882,8,400,,,
sequence,flow.Sequence,4_93,2023-10-31T17:19:20.076Z,,0,,,3180.704999994021,completion,,,,,false,,,,620046.3000000119,620046.099999994,616848.729,616859.099999994,616865.395,620048.882,8,400,,,
trial,html.Screen,4_94_0,2023-10-31T17:19:24.000Z,,0,2,,3920.4180000119377,response,ISIC_1034397.JPG,8,ISIC_0064393.JPG,ISIC_1034397.JPG,false,1,keypress(m),500,623969.599999994,623969.3000000119,620032.216,620046.3000000119,620048.882,623982.058,8,400,45,,ISIC_0064393.JPG
break,html.Screen,4_94_1,2023-10-31T17:19:24.001Z,,0,,,NaN,,,,,,false,,,,623970.400000006,623970.2000000179,,623969.900000006,,623982.058,8,400,,,
break_continue,html.Screen,4_94_2,2023-10-31T17:19:24.001Z,,0,,,NaN,,,,,,false,,,,623970.7000000179,623970.7000000179,,623970.599999994,,623982.058,8,400,,,
sequence,flow.Sequence,4_94,2023-10-31T17:19:24.001Z,,0,,,3921.818000017898,completion,,,,,false,,,,623970.900000006,623970.7000000179,620032.216,620046.3000000119,620048.882,623982.058,8,400,,,
trial,html.Screen,4_95_0,2023-10-31T17:19:27.830Z,,0,2,,3817.5419999940787,response,ISIC_0033166.JPG,7,ISIC_0032771.JPG,ISIC_0033166.JPG,false,1,keypress(m),500,627799.900000006,627799.599999994,623965.392,623971,623982.058,627815.238,8,400,46,,ISIC_0032771.JPG
break,html.Screen,4_95_1,2023-10-31T17:19:27.831Z,,0,,,NaN,,,,,,false,,,,627800.900000006,627800.599999994,,627800.099999994,,627815.238,8,400,,,
break_continue,html.Screen,4_95_2,2023-10-31T17:19:27.831Z,,0,,,NaN,,,,,,false,,,,627801.099999994,627801.099999994,,627800.900000006,,627815.238,8,400,,,
sequence,flow.Sequence,4_95,2023-10-31T17:19:27.832Z,,0,,,3819.0419999940787,completion,,,,,false,,,,627801.3000000119,627801.099999994,623965.392,623970.900000006,623982.058,627815.238,8,400,,,
trial,html.Screen,4_96_0,2023-10-31T17:19:32.221Z,,0,2,,4374.962000017869,response,ISIC_3914140.JPG,8,ISIC_3440004.JPG,ISIC_3914140.JPG,false,1,keypress(m),500,632190.400000006,632190.2000000179,627798.572,627801.400000006,627815.238,632198.667,8,400,47,,ISIC_3440004.JPG
break,html.Screen,4_96_1,2023-10-31T17:19:32.221Z,,0,,,NaN,,,,,,false,,,,632190.900000006,632190.7000000179,,632190.5,,632198.667,8,400,,,
break_continue,html.Screen,4_96_2,2023-10-31T17:19:32.221Z,,0,,,NaN,,,,,,false,,,,632191,632191,,632190.900000006,,632198.667,8,400,,,
sequence,flow.Sequence,4_96,2023-10-31T17:19:32.221Z,,0,,,4375.761999999988,completion,,,,,false,,,,632191,632191,627798.572,627801.400000006,627815.238,632198.667,8,400,,,
trial,html.Screen,4_97_0,2023-10-31T17:19:35.762Z,,0,2,,3532.832999999984,response,ISIC_2058516.JPG,4,ISIC_7017387.JPG,ISIC_7017387.JPG,false,0,keypress(z),500,635731.900000006,635731.5,632182.001,632191.099999994,632198.667,635748.525,8,400,48,,ISIC_2058516.JPG
break,html.Screen,4_97_1,2023-10-31T17:19:35.763Z,,0,,,NaN,,,,,,false,,,,635732.7000000179,635732.599999994,,635732.099999994,,635748.525,8,400,,,
break_continue,html.Screen,4_97_2,2023-10-31T17:19:35.764Z,,0,,,NaN,,,,,,false,,,,635733.099999994,635733,,635732.900000006,,635748.525,8,400,,,
sequence,flow.Sequence,4_97,2023-10-31T17:19:35.764Z,,0,,,3534.332999999984,completion,,,,,false,,,,635733.2000000179,635733,632182.001,632191.099999994,632198.667,635748.525,8,400,,,
trial,html.Screen,4_98_0,2023-10-31T17:19:40.695Z,,0,2,,4915.875000005937,response,ISIC_3464344.JPG,6,ISIC_9350507.JPG,ISIC_9350507.JPG,false,0,keypress(z),500,640664.7000000179,640664.400000006,635731.859,635733.3000000119,635748.525,640681.93,8,400,49,,ISIC_3464344.JPG
break,html.Screen,4_98_1,2023-10-31T17:19:40.696Z,,0,,,NaN,,,,,,false,,,,640665.599999994,640665.400000006,,640664.900000006,,640681.93,8,400,,,
break_continue,html.Screen,4_98_2,2023-10-31T17:19:40.696Z,,0,,,NaN,,,,,,false,,,,640666,640665.8000000119,,640665.7000000179,,640681.93,8,400,,,
sequence,flow.Sequence,4_98,2023-10-31T17:19:40.697Z,,0,,,4917.275000011898,completion,,,,,false,,,,640666.099999994,640665.8000000119,635731.859,635733.3000000119,635748.525,640681.93,8,400,,,
trial,html.Screen,4_99_0,2023-10-31T17:19:44.174Z,,0,2,,3461.3700000118697,response,ISIC_2134975.JPG,5,ISIC_3260571.JPG,ISIC_2134975.JPG,false,1,keypress(m),500,644143.5,644143.3000000119,640665.264,640666.2000000179,640681.93,644148.458,8,400,50,,ISIC_3260571.JPG
break,html.Screen,4_99_1,2023-10-31T17:19:54.164Z,,0,,,9999.861999999965,timeout,,,,,false,,,,654133,654131.654,644131.792,644143.7000000179,644148.458,654148.32,8,400,,,
break_continue,html.Screen,4_99_2,2023-10-31T17:20:35.906Z,,0,,,41708.68000000005,response,,,,,false,continue,keypress(Space),,695874.599999994,695857,654131.654,654133.099999994,654148.32,695879.984,8,400,,,
sequence,flow.Sequence,4_99,2023-10-31T17:20:35.906Z,,0,,,55175.06999999995,completion,,,,,false,,,,695874.7000000179,695857,640665.264,640666.099999994,640681.93,695879.984,8,400,,,
trial,html.Screen,4_100_0,2023-10-31T17:20:39.624Z,,0,3,,3712.316000011866,response,ISIC_2489504.JPG,7,ISIC_3926397.JPG,ISIC_3926397.JPG,false,0,keypress(z),500,699592.599999994,699592.3000000119,695863.318,695874.7000000179,695879.984,699597.697,8,400,1,,ISIC_2489504.JPG
break,html.Screen,4_100_1,2023-10-31T17:20:39.625Z,,0,,,NaN,,,,,,false,,,,699593.5,699593.3000000119,,699592.8000000119,,699597.697,8,400,,,
break_continue,html.Screen,4_100_2,2023-10-31T17:20:39.626Z,,0,,,NaN,,,,,,false,,,,699593.8000000119,699593.8000000119,,699593.5,,699597.697,8,400,,,
sequence,flow.Sequence,4_100,2023-10-31T17:20:39.626Z,,0,,,3713.816000011866,completion,,,,,false,,,,699593.900000006,699593.8000000119,695863.318,695874.7000000179,695879.984,699597.697,8,400,,,
trial,html.Screen,4_101_0,2023-10-31T17:20:42.478Z,,0,3,,2848.0030000178376,response,ISIC_6220953.JPG,6,ISIC_0012245.JPG,ISIC_6220953.JPG,false,1,keypress(m),500,702445.900000006,702445.7000000179,699581.031,699594.099999994,699597.697,702447.583,8,400,2,,ISIC_0012245.JPG
break,html.Screen,4_101_1,2023-10-31T17:20:42.478Z,,0,,,NaN,,,,,,false,,,,702446.7000000179,702446.5,,702446.099999994,,702447.583,8,400,,,
break_continue,html.Screen,4_101_2,2023-10-31T17:20:42.479Z,,0,,,NaN,,,,,,false,,,,702446.900000006,702446.900000006,,702446.7000000179,,702447.583,8,400,,,
sequence,flow.Sequence,4_101,2023-10-31T17:20:42.479Z,,0,,,2849.2030000059167,completion,,,,,false,,,,702447,702446.900000006,699581.031,699594,699597.697,702447.583,8,400,,,
trial,html.Screen,4_102_0,2023-10-31T17:20:45.940Z,,0,3,,3460.5169999940554,response,ISIC_3544821.JPG,8,ISIC_5789994.JPG,ISIC_3544821.JPG,false,1,keypress(m),500,705908.400000006,705908.099999994,702430.917,702447.099999994,702447.583,705914.111,8,400,3,,ISIC_5789994.JPG
break,html.Screen,4_102_1,2023-10-31T17:20:45.941Z,,0,,,NaN,,,,,,false,,,,705909.3000000119,705909.2000000179,,705908.599999994,,705914.111,8,400,,,
break_continue,html.Screen,4_102_2,2023-10-31T17:20:45.941Z,,0,,,NaN,,,,,,false,,,,705909.599999994,705909.5,,705909.400000006,,705914.111,8,400,,,
sequence,flow.Sequence,4_102,2023-10-31T17:20:45.942Z,,0,,,3461.917000000016,completion,,,,,false,,,,705909.7000000179,705909.5,702430.917,702447.099999994,702447.583,705914.111,8,400,,,
trial,html.Screen,4_103_0,2023-10-31T17:20:49.595Z,,0,3,,3648.789000005927,response,ISIC_0034202.JPG,9,ISIC_0010850.JPG,ISIC_0034202.JPG,false,1,keypress(m),500,709563.099999994,709562.900000006,705897.445,705909.8000000119,705914.111,709580.894,8,400,4,,ISIC_0010850.JPG
break,html.Screen,4_103_1,2023-10-31T17:20:49.596Z,,0,,,NaN,,,,,,false,,,,709564.2000000179,709564,,709563.400000006,,709580.894,8,400,,,
break_continue,html.Screen,4_103_2,2023-10-31T17:20:49.596Z,,0,,,NaN,,,,,,false,,,,709564.5,709564.400000006,,709564.2000000179,,709580.894,8,400,,,
sequence,flow.Sequence,4_103,2023-10-31T17:20:49.596Z,,0,,,3650.289000005927,completion,,,,,false,,,,709564.599999994,709564.400000006,705897.445,705909.8000000119,705914.111,709580.894,8,400,,,
trial,html.Screen,4_104_0,2023-10-31T17:20:53.538Z,,0,3,,3924.7059999940684,response,ISIC_8224270.JPG,8,ISIC_0031482.JPG,ISIC_8224270.JPG,false,1,keypress(m),500,713505.8000000119,713505.599999994,709564.228,709564.7000000179,709580.894,713514.07,8,400,5,,ISIC_0031482.JPG
break,html.Screen,4_104_1,2023-10-31T17:20:53.539Z,,0,,,NaN,,,,,,false,,,,713506.599999994,713506.400000006,,713505.900000006,,713514.07,8,400,,,
break_continue,html.Screen,4_104_2,2023-10-31T17:20:53.539Z,,0,,,NaN,,,,,,false,,,,713507,713506.8000000119,,713506.7000000179,,713514.07,8,400,,,
sequence,flow.Sequence,4_104,2023-10-31T17:20:53.539Z,,0,,,3925.90600001195,completion,,,,,false,,,,713507.099999994,713506.8000000119,709564.228,709564.7000000179,709580.894,713514.07,8,400,,,
trial,html.Screen,4_105_0,2023-10-31T17:20:56.728Z,,0,3,,3181.930000000051,response,ISIC_0011404.JPG,7,ISIC_0069183.JPG,ISIC_0069183.JPG,false,0,keypress(z),500,716696.3000000119,716696,713497.404,713507.2000000179,713514.07,716697.545,8,400,6,,ISIC_0011404.JPG
break,html.Screen,4_105_1,2023-10-31T17:20:56.729Z,,0,,,NaN,,,,,,false,,,,716697.099999994,716697,,716696.5,,716697.545,8,400,,,
break_continue,html.Screen,4_105_2,2023-10-31T17:20:56.730Z,,0,,,NaN,,,,,,false,,,,716697.5,716697.400000006,,716697.3000000119,,716697.545,8,400,,,
sequence,flow.Sequence,4_105,2023-10-31T17:20:56.730Z,,0,,,3183.3300000060117,completion,,,,,false,,,,716697.599999994,716697.400000006,713497.404,713507.099999994,713514.07,716697.545,8,400,,,
trial,html.Screen,4_106_0,2023-10-31T17:20:59.726Z,,0,3,,2995.954999999958,response,ISIC_0000054.JPG,8,ISIC_2673511.JPG,ISIC_2673511.JPG,false,0,keypress(z),500,719693.7000000179,719693.5,716680.879,716697.7000000179,716697.545,719697.425,8,400,7,,ISIC_0000054.JPG
break,html.Screen,4_106_1,2023-10-31T17:20:59.727Z,,0,,,NaN,,,,,,false,,,,719694.599999994,719694.5,,719694,,719697.425,8,400,,,
break_continue,html.Screen,4_106_2,2023-10-31T17:20:59.727Z,,0,,,NaN,,,,,,false,,,,719695,719694.900000006,,719694.7000000179,,719697.425,8,400,,,
sequence,flow.Sequence,4_106,2023-10-31T17:20:59.727Z,,0,,,2997.3550000059186,completion,,,,,false,,,,719695,719694.900000006,716680.879,716697.7000000179,716697.545,719697.425,8,400,,,
trial,html.Screen,4_107_0,2023-10-31T17:21:02.837Z,,0,3,,3107.475000005914,response,ISIC_0011365.JPG,7,ISIC_2087913.JPG,ISIC_0011365.JPG,false,1,keypress(m),500,722805.099999994,722804.900000006,719680.759,719695.2000000179,719697.425,722813.967,8,400,8,,ISIC_2087913.JPG
break,html.Screen,4_107_1,2023-10-31T17:21:02.838Z,,0,,,NaN,,,,,,false,,,,722806.099999994,722806,,722805.400000006,,722813.967,8,400,,,
break_continue,html.Screen,4_107_2,2023-10-31T17:21:02.839Z,,0,,,NaN,,,,,,false,,,,722806.5,722806.3000000119,,722806.2000000179,,722813.967,8,400,,,
sequence,flow.Sequence,4_107,2023-10-31T17:21:02.839Z,,0,,,3108.8750000118744,completion,,,,,false,,,,722806.599999994,722806.3000000119,719680.759,719695.2000000179,719697.425,722813.967,8,400,,,
trial,html.Screen,4_108_0,2023-10-31T17:21:06.800Z,,0,3,,3953.6329999940936,response,ISIC_8659618.JPG,7,ISIC_4643298.JPG,ISIC_4643298.JPG,false,0,keypress(z),500,726767.900000006,726767.599999994,722797.301,722806.599999994,722813.967,726780.739,8,400,9,,ISIC_8659618.JPG
break,html.Screen,4_108_1,2023-10-31T17:21:06.801Z,,0,,,NaN,,,,,,false,,,,726768.8000000119,726768.599999994,,726768.099999994,,726780.739,8,400,,,
break_continue,html.Screen,4_108_2,2023-10-31T17:21:06.801Z,,0,,,NaN,,,,,,false,,,,726769.2000000179,726769.2000000179,,726768.900000006,,726780.739,8,400,,,
sequence,flow.Sequence,4_108,2023-10-31T17:21:06.802Z,,0,,,3955.2330000179354,completion,,,,,false,,,,726769.3000000119,726769.2000000179,722797.301,722806.599999994,722813.967,726780.739,8,400,,,
trial,html.Screen,4_109_0,2023-10-31T17:21:10.837Z,,0,3,,4023.461000017938,response,ISIC_7260492.JPG,9,ISIC_0939648.JPG,ISIC_7260492.JPG,false,1,keypress(m),500,730804.599999994,730804.2000000179,726764.073,726769.5,726780.739,730813.911,8,400,10,,ISIC_0939648.JPG
break,html.Screen,4_109_1,2023-10-31T17:21:10.838Z,,0,,,NaN,,,,,,false,,,,730805.400000006,730805.2000000179,,730804.8000000119,,730813.911,8,400,,,
break_continue,html.Screen,4_109_2,2023-10-31T17:21:10.838Z,,0,,,NaN,,,,,,false,,,,730805.8000000119,730805.7000000179,,730805.5,,730813.911,8,400,,,
sequence,flow.Sequence,4_109,2023-10-31T17:21:10.838Z,,0,,,4024.961000017938,completion,,,,,false,,,,730805.900000006,730805.7000000179,726764.073,726769.5,726780.739,730813.911,8,400,,,
trial,html.Screen,4_110_0,2023-10-31T17:21:14.111Z,,0,3,,3264.0890000000363,response,ISIC_0029021.JPG,7,ISIC_7658729.JPG,ISIC_7658729.JPG,false,0,keypress(z),500,734078.400000006,734078,730797.245,730806,730813.911,734097.113,8,400,11,,ISIC_0029021.JPG
break,html.Screen,4_110_1,2023-10-31T17:21:14.114Z,,0,,,NaN,,,,,,false,,,,734082,734081.5,,734078.900000006,,734097.113,8,400,,,
break_continue,html.Screen,4_110_2,2023-10-31T17:21:14.115Z,,0,,,NaN,,,,,,false,,,,734082.3000000119,734082.2000000179,,734082.099999994,,734097.113,8,400,,,
sequence,flow.Sequence,4_110,2023-10-31T17:21:14.115Z,,0,,,3268.2890000179177,completion,,,,,false,,,,734082.3000000119,734082.2000000179,730797.245,730805.900000006,730813.911,734097.113,8,400,,,
trial,html.Screen,4_111_0,2023-10-31T17:21:17.286Z,,0,3,,3155.7870000059484,response,ISIC_0000240.JPG,5,ISIC_0000141.JPG,ISIC_0000141.JPG,false,0,keypress(z),500,737253.099999994,737252.900000006,734080.447,734082.3000000119,734097.113,737263.923,8,400,12,,ISIC_0000240.JPG
break,html.Screen,4_111_1,2023-10-31T17:21:17.286Z,,0,,,NaN,,,,,,false,,,,737253.900000006,737253.7000000179,,737253.3000000119,,737263.923,8,400,,,
break_continue,html.Screen,4_111_2,2023-10-31T17:21:17.287Z,,0,,,NaN,,,,,,false,,,,737254.2000000179,737254.099999994,,737254,,737263.923,8,400,,,
sequence,flow.Sequence,4_111,2023-10-31T17:21:17.287Z,,0,,,3156.9869999940274,completion,,,,,false,,,,737254.3000000119,737254.099999994,734080.447,734082.3000000119,734097.113,737263.923,8,400,,,
trial,html.Screen,4_112_0,2023-10-31T17:21:21.018Z,,0,3,,3721.676999994088,response,ISIC_0027881.JPG,6,ISIC_0485529.JPG,ISIC_0027881.JPG,false,1,keypress(m),500,740985.900000006,740985.599999994,737247.257,737254.400000006,737263.923,740997.107,8,400,13,,ISIC_0485529.JPG
break,html.Screen,4_112_1,2023-10-31T17:21:21.019Z,,0,,,NaN,,,,,,false,,,,740986.8000000119,740986.599999994,,740986,,740997.107,8,400,,,
break_continue,html.Screen,4_112_2,2023-10-31T17:21:21.020Z,,0,,,NaN,,,,,,false,,,,740987.099999994,740987,,740986.900000006,,740997.107,8,400,,,
sequence,flow.Sequence,4_112,2023-10-31T17:21:21.020Z,,0,,,3723.0770000000484,completion,,,,,false,,,,740987.3000000119,740987,737247.257,737254.3000000119,737263.923,740997.107,8,400,,,
trial,html.Screen,4_113_0,2023-10-31T17:21:26.447Z,,0,3,,5416.7930000060005,response,ISIC_1413242.JPG,8,ISIC_0009882.JPG,ISIC_1413242.JPG,false,1,keypress(m),500,746414.2000000179,746413.900000006,740980.441,740987.3000000119,740997.107,746430.223,8,400,14,,ISIC_0009882.JPG
break,html.Screen,4_113_1,2023-10-31T17:21:26.448Z,,0,,,NaN,,,,,,false,,,,746415.099999994,746414.8000000119,,746414.400000006,,746430.223,8,400,,,
break_continue,html.Screen,4_113_2,2023-10-31T17:21:26.448Z,,0,,,NaN,,,,,,false,,,,746415.400000006,746415.3000000119,,746415.099999994,,746430.223,8,400,,,
sequence,flow.Sequence,4_113,2023-10-31T17:21:26.448Z,,0,,,5418.193000011961,completion,,,,,false,,,,746415.5,746415.3000000119,740980.441,740987.3000000119,740997.107,746430.223,8,400,,,
trial,html.Screen,4_114_0,2023-10-31T17:21:29.705Z,,0,3,,3242.1770000059623,response,ISIC_9268487.JPG,7,ISIC_0026247.JPG,ISIC_0026247.JPG,false,0,keypress(z),500,749672.7000000179,749672.400000006,746413.557,746415.599999994,746430.223,749680.367,8,400,15,,ISIC_9268487.JPG
break,html.Screen,4_114_1,2023-10-31T17:21:29.706Z,,0,,,NaN,,,,,,false,,,,749673.599999994,749673.400000006,,749672.8000000119,,749680.367,8,400,,,
break_continue,html.Screen,4_114_2,2023-10-31T17:21:29.707Z,,0,,,NaN,,,,,,false,,,,749673.900000006,749673.900000006,,749673.7000000179,,749680.367,8,400,,,
sequence,flow.Sequence,4_114,2023-10-31T17:21:29.707Z,,0,,,3243.6770000059623,completion,,,,,false,,,,749674,749673.900000006,746413.557,746415.599999994,746430.223,749680.367,8,400,,,
trial,html.Screen,4_115_0,2023-10-31T17:21:32.735Z,,0,3,,3021.7329999940703,response,ISIC_0011858.JPG,5,ISIC_0009298.JPG,ISIC_0011858.JPG,false,1,keypress(m),500,752702.400000006,752702.099999994,749663.701,749674.099999994,749680.367,752713.579,8,400,16,,ISIC_0009298.JPG
break,html.Screen,4_115_1,2023-10-31T17:21:32.736Z,,0,,,NaN,,,,,,false,,,,752703.3000000119,752703.2000000179,,752702.599999994,,752713.579,8,400,,,
break_continue,html.Screen,4_115_2,2023-10-31T17:21:32.736Z,,0,,,NaN,,,,,,false,,,,752703.599999994,752703.599999994,,752703.5,,752713.579,8,400,,,
sequence,flow.Sequence,4_115,2023-10-31T17:21:32.737Z,,0,,,3023.2329999940703,completion,,,,,false,,,,752703.8000000119,752703.599999994,749663.701,749674.099999994,749680.367,752713.579,8,400,,,
trial,html.Screen,4_116_0,2023-10-31T17:21:36.228Z,,0,3,,3481.6210000178544,response,ISIC_0887530.JPG,5,ISIC_8354042.JPG,ISIC_8354042.JPG,false,0,keypress(z),500,756195.5,756195.2000000179,752696.913,752703.900000006,752713.579,756196.773,8,400,17,,ISIC_0887530.JPG
break,html.Screen,4_116_1,2023-10-31T17:21:36.229Z,,0,,,NaN,,,,,,false,,,,756196.400000006,756196.3000000119,,756195.7000000179,,756196.773,8,400,,,
break_continue,html.Screen,4_116_2,2023-10-31T17:21:36.230Z,,0,,,NaN,,,,,,false,,,,756196.8000000119,756196.7000000179,,756196.599999994,,756196.773,8,400,,,
sequence,flow.Sequence,4_116,2023-10-31T17:21:36.230Z,,0,,,3483.1210000178544,completion,,,,,false,,,,756196.900000006,756196.7000000179,752696.913,752703.900000006,752713.579,756196.773,8,400,,,
trial,html.Screen,4_117_0,2023-10-31T17:21:41.369Z,,0,3,,5139.427000017837,response,ISIC_8646115.JPG,7,ISIC_0011337.JPG,ISIC_8646115.JPG,false,1,keypress(m),500,761336.400000006,761336.2000000179,756180.107,756197,756196.773,761346.832,8,400,18,,ISIC_0011337.JPG
break,html.Screen,4_117_1,2023-10-31T17:21:41.370Z,,0,,,NaN,,,,,,false,,,,761337.3000000119,761337.099999994,,761336.599999994,,761346.832,8,400,,,
break_continue,html.Screen,4_117_2,2023-10-31T17:21:41.371Z,,0,,,NaN,,,,,,false,,,,761337.7000000179,761337.5,,761337.400000006,,761346.832,8,400,,,
sequence,flow.Sequence,4_117,2023-10-31T17:21:41.371Z,,0,,,5140.726999999955,completion,,,,,false,,,,761337.8000000119,761337.5,756180.107,756197,756196.773,761346.832,8,400,,,
trial,html.Screen,4_118_0,2023-10-31T17:21:45.709Z,,0,3,,4328.667999999947,response,ISIC_0806138.JPG,9,ISIC_8714502.JPG,ISIC_8714502.JPG,false,0,keypress(z),500,765675.8000000119,765675.5,761330.166,761337.8000000119,761346.832,765679.992,8,400,19,,ISIC_0806138.JPG
break,html.Screen,4_118_1,2023-10-31T17:21:45.710Z,,0,,,NaN,,,,,,false,,,,765676.5,765676.3000000119,,765675.900000006,,765679.992,8,400,,,
break_continue,html.Screen,4_118_2,2023-10-31T17:21:45.710Z,,0,,,NaN,,,,,,false,,,,765676.8000000119,765676.7000000179,,765676.599999994,,765679.992,8,400,,,
sequence,flow.Sequence,4_118,2023-10-31T17:21:45.710Z,,0,,,4329.868000017828,completion,,,,,false,,,,765676.900000006,765676.7000000179,761330.166,761337.8000000119,761346.832,765679.992,8,400,,,
trial,html.Screen,4_119_0,2023-10-31T17:21:49.943Z,,0,3,,4229.408000005991,response,ISIC_1072321.JPG,7,ISIC_3590997.JPG,ISIC_1072321.JPG,false,1,keypress(m),500,769909.599999994,769909.400000006,765663.326,765677,765679.992,769913.475,8,400,20,,ISIC_3590997.JPG
break,html.Screen,4_119_1,2023-10-31T17:21:49.944Z,,0,,,NaN,,,,,,false,,,,769910.5,769910.2000000179,,769909.7000000179,,769913.475,8,400,,,
break_continue,html.Screen,4_119_2,2023-10-31T17:21:49.944Z,,0,,,NaN,,,,,,false,,,,769910.8000000119,769910.7000000179,,769910.599999994,,769913.475,8,400,,,
sequence,flow.Sequence,4_119,2023-10-31T17:21:49.944Z,,0,,,4230.708000017912,completion,,,,,false,,,,769911,769910.7000000179,765663.326,765677,765679.992,769913.475,8,400,,,
trial,html.Screen,4_120_0,2023-10-31T17:21:54.235Z,,0,3,,4288.325000011944,response,ISIC_7768567.JPG,8,ISIC_0002057.JPG,ISIC_0002057.JPG,false,0,keypress(z),500,774202.099999994,774201.8000000119,769896.809,769911,769913.475,774213.303,8,400,21,,ISIC_7768567.JPG
break,html.Screen,4_120_1,2023-10-31T17:21:54.236Z,,0,,,NaN,,,,,,false,,,,774203,774202.900000006,,774202.3000000119,,774213.303,8,400,,,
break_continue,html.Screen,4_120_2,2023-10-31T17:21:54.237Z,,0,,,NaN,,,,,,false,,,,774203.400000006,774203.3000000119,,774203.099999994,,774213.303,8,400,,,
sequence,flow.Sequence,4_120,2023-10-31T17:21:54.237Z,,0,,,4289.825000011944,completion,,,,,false,,,,774203.5,774203.3000000119,769896.809,769911,769913.475,774213.303,8,400,,,
trial,html.Screen,4_121_0,2023-10-31T17:21:58.886Z,,0,3,,4639.097000006004,response,ISIC_0014059.JPG,7,ISIC_0003910.JPG,ISIC_0003910.JPG,false,0,keypress(z),500,778852.7000000179,778852.400000006,774196.637,774203.599999994,774213.303,778863.117,8,400,22,,ISIC_0014059.JPG
break,html.Screen,4_121_1,2023-10-31T17:21:58.887Z,,0,,,NaN,,,,,,false,,,,778853.599999994,778853.400000006,,778852.900000006,,778863.117,8,400,,,
break_continue,html.Screen,4_121_2,2023-10-31T17:21:58.887Z,,0,,,NaN,,,,,,false,,,,778854.099999994,778853.900000006,,778853.7000000179,,778863.117,8,400,,,
sequence,flow.Sequence,4_121,2023-10-31T17:21:58.887Z,,0,,,4640.597000006004,completion,,,,,false,,,,778854.099999994,778853.900000006,774196.637,774203.599999994,774213.303,778863.117,8,400,,,
trial,html.Screen,4_122_0,2023-10-31T17:22:05.147Z,,0,3,,6249.883000000031,response,ISIC_8711854.JPG,6,ISIC_0028325.JPG,ISIC_8711854.JPG,false,1,keypress(m),500,785113.3000000119,785113,778846.451,778854.2000000179,778863.117,785129.803,8,400,23,,ISIC_0028325.JPG
break,html.Screen,4_122_1,2023-10-31T17:22:05.148Z,,0,,,NaN,,,,,,false,,,,785114.3000000119,785114,,785113.5,,785129.803,8,400,,,
break_continue,html.Screen,4_122_2,2023-10-31T17:22:05.148Z,,0,,,NaN,,,,,,false,,,,785114.599999994,785114.5,,785114.400000006,,785129.803,8,400,,,
sequence,flow.Sequence,4_122,2023-10-31T17:22:05.148Z,,0,,,6251.383000000031,completion,,,,,false,,,,785114.7000000179,785114.5,778846.451,778854.2000000179,778863.117,785129.803,8,400,,,
trial,html.Screen,4_123_0,2023-10-31T17:22:10.223Z,,0,3,,5059.397000017925,response,ISIC_9079361.JPG,7,ISIC_6330529.JPG,ISIC_9079361.JPG,false,1,keypress(m),500,790189.599999994,790189.2000000179,785113.137,785114.8000000119,785129.803,790196.267,8,400,24,,ISIC_6330529.JPG
break,html.Screen,4_123_1,2023-10-31T17:22:10.224Z,,0,,,NaN,,,,,,false,,,,790190.5,790190.3000000119,,790189.900000006,,790196.267,8,400,,,
break_continue,html.Screen,4_123_2,2023-10-31T17:22:10.224Z,,0,,,NaN,,,,,,false,,,,790191,790190.8000000119,,790190.7000000179,,790196.267,8,400,,,
sequence,flow.Sequence,4_123,2023-10-31T17:22:10.225Z,,0,,,5060.997000011965,completion,,,,,false,,,,790191.099999994,790190.8000000119,785113.137,785114.8000000119,785129.803,790196.267,8,400,,,
trial,html.Screen,4_124_0,2023-10-31T17:22:15.318Z,,0,3,,5087.633000005968,response,ISIC_0024246.JPG,7,ISIC_5315062.JPG,ISIC_5315062.JPG,false,0,keypress(z),500,795284.2000000179,795283.900000006,790179.601,790191.2000000179,790196.267,795296.337,8,400,25,,ISIC_0024246.JPG
break,html.Screen,4_124_1,2023-10-31T17:22:15.319Z,,0,,,NaN,,,,,,false,,,,795285.099999994,795284.900000006,,795284.400000006,,795296.337,8,400,,,
break_continue,html.Screen,4_124_2,2023-10-31T17:22:15.319Z,,0,,,NaN,,,,,,false,,,,795285.5,795285.400000006,,795285.3000000119,,795296.337,8,400,,,
sequence,flow.Sequence,4_124,2023-10-31T17:22:15.319Z,,0,,,5089.133000005968,completion,,,,,false,,,,795285.7000000179,795285.400000006,790179.601,790191.2000000179,790196.267,795296.337,8,400,,,
trial,html.Screen,4_125_0,2023-10-31T17:22:20.845Z,,0,3,,5514.363000017824,response,ISIC_0070860.JPG,8,ISIC_0011366.JPG,ISIC_0070860.JPG,false,1,keypress(m),500,800810.900000006,800810.7000000179,795279.671,795285.8000000119,795296.337,800813.047,8,400,26,,ISIC_0011366.JPG
break,html.Screen,4_125_1,2023-10-31T17:22:20.846Z,,0,,,NaN,,,,,,false,,,,800811.900000006,800811.7000000179,,800811.099999994,,800813.047,8,400,,,
break_continue,html.Screen,4_125_2,2023-10-31T17:22:20.846Z,,0,,,NaN,,,,,,false,,,,800812.3000000119,800812.099999994,,800812,,800813.047,8,400,,,
sequence,flow.Sequence,4_125,2023-10-31T17:22:20.846Z,,0,,,5515.762999993982,completion,,,,,false,,,,800812.400000006,800812.099999994,795279.671,795285.7000000179,795296.337,800813.047,8,400,,,
trial,html.Screen,4_126_0,2023-10-31T17:22:27.282Z,,0,3,,6435.153000017861,response,ISIC_0030900.JPG,8,ISIC_0010901.JPG,ISIC_0030900.JPG,false,1,keypress(m),500,807248.5,807248.2000000179,800796.381,800812.5,800813.047,807262.789,8,400,27,,ISIC_0010901.JPG
break,html.Screen,4_126_1,2023-10-31T17:22:27.283Z,,0,,,NaN,,,,,,false,,,,807249.400000006,807249.3000000119,,807248.7000000179,,807262.789,8,400,,,
break_continue,html.Screen,4_126_2,2023-10-31T17:22:27.284Z,,0,,,NaN,,,,,,false,,,,807249.7000000179,807249.599999994,,807249.5,,807262.789,8,400,,,
