sender,sender_type,sender_id,timestamp,meta,,blockNo,condition,duration,ended_on,img_left,img_reveal,img_right,loser,practice,response,response_action,selection_duration,time_commit,time_end,time_render,time_run,time_show,time_switch,total_blocks,total_trials,trialNo,url,winner
informed_consent,html.Screen,0,2023-09-08T20:42:41.477Z,"{""labjs_version"":""20.2.4"",""labjs_build"":{""flavor"":""production"",""commit"":""f5b4a49f956347addd546a832a3327688c2c0fef""},""location"":""https://run.pavlovia.org/MurrayBennett/melanoma-2afc/?participant=6175e05636b79082f8d345c5&STUDY_ID=64f8c92207ba404bcb356c90&SESSION_ID=64fb871fbc7a12f49de3225b&platform=prolific"",""userAgent"":""Mozilla/5.0 (Windows NT 10.0; Win64; x64) AppleWebKit/537.36 (KHTML, like Gecko) Chrome/116.0.0.0 Safari/537.36"",""platform"":""Win32"",""language"":""en-US"",""locale"":""en-US"",""timeZone"":""America/New_York"",""timezoneOffset"":240,""screen_width"":1600,""screen_height"":900,""scroll_width"":1600,""scroll_height"":703,""window_innerWidth"":1600,""window_innerHeight"":751,""devicePixelRatio"":1}",,,,14262.97,response,,,,,,consent,click button,,17812,17808,3478.366,3496,3545.03,17927.788,,,,"{""participant"":""6175e05636b79082f8d345c5"",""STUDY_ID"":""64f8c92207ba404bcb356c90"",""SESSION_ID"":""64fb871fbc7a12f49de3225b"",""platform"":""prolific""}",
Welcome,html.Screen,1,2023-09-08T20:44:21.438Z,,,,asymmetry,99844.212,response,,,,,,continue,click button,,117773,117772,17794.46,17812,17927.788,117790.46,,,,,
trial,html.Screen,2_0_0,2023-09-08T20:44:25.092Z,,0,0,,3635.5399999999936,response,ISIC_0069348.JPG,,ISIC_6997061.JPG,ISIC_6997061.JPG,true,0,keypress(z),500,121427,121426,117757.128,117773,117790.46,121440.314,1,6,1,,ISIC_0069348.JPG
sequence,flow.Sequence,2_0,2023-09-08T20:44:25.093Z,,0,,,3635.5399999999936,completion,,,,,true,,,,121428,121426,117757.128,117773,117790.46,121440.314,1,6,,,
trial,html.Screen,2_1_0,2023-09-08T20:44:28.328Z,,0,0,,3222.6860000000015,response,ISIC_0009529.JPG,,ISIC_0057368.JPG,ISIC_0009529.JPG,true,1,keypress(m),500,124663,124663,121423.648,121429,121440.314,124673.518,1,6,2,,ISIC_0057368.JPG
sequence,flow.Sequence,2_1,2023-09-08T20:44:28.329Z,,0,,,3222.6860000000015,completion,,,,,true,,,,124664,124663,121423.648,121429,121440.314,124673.518,1,6,,,
trial,html.Screen,2_2_0,2023-09-08T20:44:31.804Z,,0,0,,3465.4820000000036,response,ISIC_9758671.JPG,,ISIC_0064954.JPG,ISIC_0064954.JPG,true,0,keypress(z),500,128139,128139,124656.852,124665,124673.518,128156.712,1,6,3,,ISIC_9758671.JPG
sequence,flow.Sequence,2_2,2023-09-08T20:44:31.805Z,,0,,,3465.4820000000036,completion,,,,,true,,,,128140,128139,124656.852,124664,124673.518,128156.712,1,6,,,
trial,html.Screen,2_3_0,2023-09-08T20:44:34.804Z,,0,0,,2982.2880000000005,response,ISIC_0005785.JPG,,ISIC_0000080.JPG,ISIC_0000080.JPG,true,0,keypress(z),500,131139,131139,128140.046,128141,128156.712,131173.258,1,6,4,,ISIC_0005785.JPG
sequence,flow.Sequence,2_3,2023-09-08T20:44:34.805Z,,0,,,2982.2880000000005,completion,,,,,true,,,,131140,131139,128140.046,128141,128156.712,131173.258,1,6,,,
trial,html.Screen,2_4_0,2023-09-08T20:44:37.913Z,,0,0,,3073.7419999999984,response,ISIC_7944028.JPG,,ISIC_5390060.JPG,ISIC_7944028.JPG,true,1,keypress(m),500,134248,134247,131139.926,131141,131173.258,134256.468,1,6,5,,ISIC_5390060.JPG
sequence,flow.Sequence,2_4,2023-09-08T20:44:37.914Z,,0,,,3073.7419999999984,completion,,,,,true,,,,134249,134247,131139.926,131141,131173.258,134256.468,1,6,,,
trial,html.Screen,2_5_0,2023-09-08T20:44:40.672Z,,0,0,,2750.5320000000065,response,ISIC_0010188.JPG,,ISIC_0794216.JPG,ISIC_0794216.JPG,true,0,keypress(z),500,137007,137007,134239.802,134249,134256.468,137023.024,1,6,6,,ISIC_0010188.JPG
sequence,flow.Sequence,2_5,2023-09-08T20:44:40.672Z,,0,,,2750.5320000000065,completion,,,,,true,,,,137007,137007,134239.802,134249,134256.468,137023.024,1,6,,,
loop,flow.Loop,2,2023-09-08T20:44:40.673Z,,,,,19216.539999999994,completion,,,,,true,,,,137008,137007,117757.128,117773,117790.46,137023.024,1,6,,,
exp_instructions,html.Screen,3,2023-09-08T20:44:55.040Z,,,,,14349.975999999995,response,,,,,,continue,keypress(Space),,151375,151373,137006.358,137008,137023.024,151405.782,,,,,
trial,html.Screen,4_0_0,2023-09-08T20:44:57.849Z,,0,1,,2777.2179999999935,response,ISIC_2479512.JPG,5,ISIC_1117369.JPG,ISIC_2479512.JPG,false,1,keypress(m),500,154184,154183,151372.45,151375,151405.782,154189.004,8,400,1,,ISIC_1117369.JPG
break,html.Screen,4_0_1,2023-09-08T20:44:57.852Z,,0,,,NaN,,,,,,false,,,,154187,154186,,154184,,154189.004,8,400,,,
break_continue,html.Screen,4_0_2,2023-09-08T20:44:57.854Z,,0,,,NaN,,,,,,false,,,,154189,154188,,154187,,154189.004,8,400,,,
sequence,flow.Sequence,4_0,2023-09-08T20:44:57.854Z,,0,,,2782.2179999999935,completion,,,,,false,,,,154189,154188,151372.45,151375,151405.782,154189.004,8,400,,,
trial,html.Screen,4_1_0,2023-09-08T20:45:00.658Z,,0,1,,2803.9960000000137,response,ISIC_6553389.JPG,5,ISIC_0063961.JPG,ISIC_0063961.JPG,false,0,keypress(z),500,156993,156993,154172.338,154190,154189.004,157005.558,8,400,2,,ISIC_6553389.JPG
break,html.Screen,4_1_1,2023-09-08T20:45:00.661Z,,0,,,NaN,,,,,,false,,,,156996,156995,,156994,,157005.558,8,400,,,
break_continue,html.Screen,4_1_2,2023-09-08T20:45:00.662Z,,0,,,NaN,,,,,,false,,,,156997,156997,,156996,,157005.558,8,400,,,
sequence,flow.Sequence,4_1,2023-09-08T20:45:00.663Z,,0,,,2807.9960000000137,completion,,,,,false,,,,156998,156997,154172.338,154189,154189.004,157005.558,8,400,,,
trial,html.Screen,4_2_0,2023-09-08T20:45:03.818Z,,0,1,,3147.44200000001,response,ISIC_5913155.JPG,4,ISIC_0011092.JPG,ISIC_5913155.JPG,false,1,keypress(m),500,160153,160153,156988.892,156998,157005.558,160155.432,8,400,3,,ISIC_0011092.JPG
break,html.Screen,4_2_1,2023-09-08T20:45:03.819Z,,0,,,NaN,,,,,,false,,,,160154,160154,,160153,,160155.432,8,400,,,
break_continue,html.Screen,4_2_2,2023-09-08T20:45:03.819Z,,0,,,NaN,,,,,,false,,,,160154,160154,,160154,,160155.432,8,400,,,
sequence,flow.Sequence,4_2,2023-09-08T20:45:03.820Z,,0,,,3148.44200000001,completion,,,,,false,,,,160155,160154,156988.892,156998,157005.558,160155.432,8,400,,,
trial,html.Screen,4_3_0,2023-09-08T20:45:06.525Z,,0,1,,2704.5679999999993,response,ISIC_2987579.JPG,4,ISIC_0010316.JPG,ISIC_0010316.JPG,false,0,keypress(z),500,162860,162860,160138.766,160155,160155.432,162871.99,8,400,4,,ISIC_2987579.JPG
break,html.Screen,4_3_1,2023-09-08T20:45:06.526Z,,0,,,NaN,,,,,,false,,,,162861,162861,,162860,,162871.99,8,400,,,
break_continue,html.Screen,4_3_2,2023-09-08T20:45:06.527Z,,0,,,NaN,,,,,,false,,,,162862,162861,,162861,,162871.99,8,400,,,
sequence,flow.Sequence,4_3,2023-09-08T20:45:06.527Z,,0,,,2705.5679999999993,completion,,,,,false,,,,162862,162861,160138.766,160155,160155.432,162871.99,8,400,,,
trial,html.Screen,4_4_0,2023-09-08T20:45:09.542Z,,0,1,,3005.0100000000093,response,ISIC_0024333.JPG,4,ISIC_0066106.JPG,ISIC_0024333.JPG,false,1,keypress(m),500,165877,165877,162855.324,162862,162871.99,165888.536,8,400,5,,ISIC_0066106.JPG
break,html.Screen,4_4_1,2023-09-08T20:45:09.545Z,,0,,,NaN,,,,,,false,,,,165880,165879,,165878,,165888.536,8,400,,,
break_continue,html.Screen,4_4_2,2023-09-08T20:45:09.546Z,,0,,,NaN,,,,,,false,,,,165881,165881,,165880,,165888.536,8,400,,,
sequence,flow.Sequence,4_4,2023-09-08T20:45:09.546Z,,0,,,3009.0100000000093,completion,,,,,false,,,,165881,165881,162855.324,162862,162871.99,165888.536,8,400,,,
trial,html.Screen,4_5_0,2023-09-08T20:45:12.477Z,,0,1,,2923.464000000007,response,ISIC_0033148.JPG,4,ISIC_4404772.JPG,ISIC_0033148.JPG,false,1,keypress(m),500,168812,168812,165871.87,165882,165888.536,168838.418,8,400,6,,ISIC_4404772.JPG
break,html.Screen,4_5_1,2023-09-08T20:45:12.478Z,,0,,,NaN,,,,,,false,,,,168813,168813,,168812,,168838.418,8,400,,,
break_continue,html.Screen,4_5_2,2023-09-08T20:45:12.479Z,,0,,,NaN,,,,,,false,,,,168814,168814,,168814,,168838.418,8,400,,,
sequence,flow.Sequence,4_5,2023-09-08T20:45:12.479Z,,0,,,2925.464000000007,completion,,,,,false,,,,168814,168814,165871.87,165882,165888.536,168838.418,8,400,,,
trial,html.Screen,4_6_0,2023-09-08T20:45:15.793Z,,0,1,,3289.581999999995,response,ISIC_0024756.JPG,5,ISIC_4695396.JPG,ISIC_4695396.JPG,false,0,keypress(z),500,172128,172128,168805.086,168815,168838.418,172138.286,8,400,7,,ISIC_0024756.JPG
break,html.Screen,4_6_1,2023-09-08T20:45:15.796Z,,0,,,NaN,,,,,,false,,,,172131,172130,,172129,,172138.286,8,400,,,
break_continue,html.Screen,4_6_2,2023-09-08T20:45:15.797Z,,0,,,NaN,,,,,,false,,,,172132,172132,,172131,,172138.286,8,400,,,
sequence,flow.Sequence,4_6,2023-09-08T20:45:15.798Z,,0,,,3293.581999999995,completion,,,,,false,,,,172133,172132,168805.086,168814,168838.418,172138.286,8,400,,,
trial,html.Screen,4_7_0,2023-09-08T20:45:19.052Z,,0,1,,3248.714000000007,response,ISIC_2272218.JPG,6,ISIC_5116614.JPG,ISIC_5116614.JPG,false,0,keypress(z),500,175387,175387,172121.62,172133,172138.286,175421.488,8,400,8,,ISIC_2272218.JPG
break,html.Screen,4_7_1,2023-09-08T20:45:19.055Z,,0,,,NaN,,,,,,false,,,,175390,175389,,175388,,175421.488,8,400,,,
break_continue,html.Screen,4_7_2,2023-09-08T20:45:19.056Z,,0,,,NaN,,,,,,false,,,,175391,175391,,175390,,175421.488,8,400,,,
sequence,flow.Sequence,4_7,2023-09-08T20:45:19.057Z,,0,,,3252.714000000007,completion,,,,,false,,,,175392,175391,172121.62,172133,172138.286,175421.488,8,400,,,
trial,html.Screen,4_8_0,2023-09-08T20:45:22.371Z,,0,1,,3284.511999999988,response,ISIC_6124481.JPG,4,ISIC_3105136.JPG,ISIC_3105136.JPG,false,0,keypress(z),500,178706,178706,175388.156,175392,175421.488,178721.356,8,400,9,,ISIC_6124481.JPG
break,html.Screen,4_8_1,2023-09-08T20:45:22.373Z,,0,,,NaN,,,,,,false,,,,178708,178708,,178707,,178721.356,8,400,,,
break_continue,html.Screen,4_8_2,2023-09-08T20:45:22.374Z,,0,,,NaN,,,,,,false,,,,178709,178709,,178709,,178721.356,8,400,,,
sequence,flow.Sequence,4_8,2023-09-08T20:45:22.375Z,,0,,,3287.511999999988,completion,,,,,false,,,,178710,178709,175388.156,175392,175421.488,178721.356,8,400,,,
trial,html.Screen,4_9_0,2023-09-08T20:45:25.378Z,,0,1,,2991.6440000000002,response,ISIC_0008864.JPG,5,ISIC_0001151.JPG,ISIC_0008864.JPG,false,1,keypress(m),500,181713,181713,178704.69,178710,178721.356,181721.236,8,400,10,,ISIC_0001151.JPG
break,html.Screen,4_9_1,2023-09-08T20:45:25.381Z,,0,,,NaN,,,,,,false,,,,181716,181715,,181714,,181721.236,8,400,,,
break_continue,html.Screen,4_9_2,2023-09-08T20:45:25.382Z,,0,,,NaN,,,,,,false,,,,181717,181716,,181716,,181721.236,8,400,,,
sequence,flow.Sequence,4_9,2023-09-08T20:45:25.382Z,,0,,,2994.6440000000002,completion,,,,,false,,,,181717,181716,178704.69,178710,178721.356,181721.236,8,400,,,
trial,html.Screen,4_10_0,2023-09-08T20:45:28.579Z,,0,1,,3192.7639999999956,response,ISIC_5491641.JPG,7,ISIC_8509219.JPG,ISIC_5491641.JPG,false,1,keypress(m),500,184914,184914,181704.57,181718,181721.236,184921.108,8,400,11,,ISIC_8509219.JPG
break,html.Screen,4_10_1,2023-09-08T20:45:28.582Z,,0,,,NaN,,,,,,false,,,,184917,184916,,184915,,184921.108,8,400,,,
break_continue,html.Screen,4_10_2,2023-09-08T20:45:28.583Z,,0,,,NaN,,,,,,false,,,,184918,184917,,184917,,184921.108,8,400,,,
sequence,flow.Sequence,4_10,2023-09-08T20:45:28.583Z,,0,,,3195.7639999999956,completion,,,,,false,,,,184918,184917,181704.57,181717,181721.236,184921.108,8,400,,,
trial,html.Screen,4_11_0,2023-09-08T20:45:31.674Z,,0,1,,3087.8919999999925,response,ISIC_0028764.JPG,4,ISIC_0033063.JPG,ISIC_0028764.JPG,false,1,keypress(m),500,188009,188009,184904.442,184919,184921.108,188020.984,8,400,12,,ISIC_0033063.JPG
break,html.Screen,4_11_1,2023-09-08T20:45:31.677Z,,0,,,NaN,,,,,,false,,,,188012,188011,,188010,,188020.984,8,400,,,
break_continue,html.Screen,4_11_2,2023-09-08T20:45:31.678Z,,0,,,NaN,,,,,,false,,,,188013,188013,,188012,,188020.984,8,400,,,
sequence,flow.Sequence,4_11,2023-09-08T20:45:31.678Z,,0,,,3091.8919999999925,completion,,,,,false,,,,188013,188013,184904.442,184919,184921.108,188020.984,8,400,,,
trial,html.Screen,4_12_0,2023-09-08T20:45:34.931Z,,0,1,,3245.0160000000033,response,ISIC_5422432.JPG,4,ISIC_0056389.JPG,ISIC_5422432.JPG,false,1,keypress(m),500,191266,191266,188004.318,188014,188020.984,191270.854,8,400,13,,ISIC_0056389.JPG
break,html.Screen,4_12_1,2023-09-08T20:45:34.934Z,,0,,,NaN,,,,,,false,,,,191269,191268,,191267,,191270.854,8,400,,,
break_continue,html.Screen,4_12_2,2023-09-08T20:45:34.935Z,,0,,,NaN,,,,,,false,,,,191270,191269,,191269,,191270.854,8,400,,,
sequence,flow.Sequence,4_12,2023-09-08T20:45:34.935Z,,0,,,3248.0160000000033,completion,,,,,false,,,,191270,191269,188004.318,188014,188020.984,191270.854,8,400,,,
trial,html.Screen,4_13_0,2023-09-08T20:45:38.922Z,,0,1,,3986.146000000008,response,ISIC_0068696.JPG,4,ISIC_0010313.JPG,ISIC_0010313.JPG,false,0,keypress(z),500,195257,195257,191254.188,191271,191270.854,195270.694,8,400,14,,ISIC_0068696.JPG
break,html.Screen,4_13_1,2023-09-08T20:45:38.926Z,,0,,,NaN,,,,,,false,,,,195261,195260,,195258,,195270.694,8,400,,,
break_continue,html.Screen,4_13_2,2023-09-08T20:45:38.927Z,,0,,,NaN,,,,,,false,,,,195262,195262,,195261,,195270.694,8,400,,,
sequence,flow.Sequence,4_13,2023-09-08T20:45:38.928Z,,0,,,3991.146000000008,completion,,,,,false,,,,195263,195262,191254.188,191271,191270.854,195270.694,8,400,,,
trial,html.Screen,4_14_0,2023-09-08T20:45:42.450Z,,0,1,,3514.3060000000114,response,ISIC_7521698.JPG,4,ISIC_0030481.JPG,ISIC_7521698.JPG,false,1,keypress(m),500,198785,198785,195254.028,195263,195270.694,198787.22,8,400,15,,ISIC_0030481.JPG
break,html.Screen,4_14_1,2023-09-08T20:45:42.453Z,,0,,,NaN,,,,,,false,,,,198788,198787,,198786,,198787.22,8,400,,,
break_continue,html.Screen,4_14_2,2023-09-08T20:45:42.454Z,,0,,,NaN,,,,,,false,,,,198789,198789,,198788,,198787.22,8,400,,,
sequence,flow.Sequence,4_14,2023-09-08T20:45:42.455Z,,0,,,3518.3060000000114,completion,,,,,false,,,,198790,198789,195254.028,195263,195270.694,198787.22,8,400,,,
trial,html.Screen,4_15_0,2023-09-08T20:45:45.904Z,,0,1,,3451.779999999999,response,ISIC_6260969.JPG,5,ISIC_0033561.JPG,ISIC_6260969.JPG,false,1,keypress(m),500,202239,202239,198770.554,198790,198787.22,202253.748,8,400,16,,ISIC_0033561.JPG
break,html.Screen,4_15_1,2023-09-08T20:45:45.908Z,,0,,,NaN,,,,,,false,,,,202243,202242,,202240,,202253.748,8,400,,,
break_continue,html.Screen,4_15_2,2023-09-08T20:45:45.909Z,,0,,,NaN,,,,,,false,,,,202244,202243,,202243,,202253.748,8,400,,,
sequence,flow.Sequence,4_15,2023-09-08T20:45:45.909Z,,0,,,3455.779999999999,completion,,,,,false,,,,202244,202243,198770.554,198790,198787.22,202253.748,8,400,,,
trial,html.Screen,4_16_0,2023-09-08T20:45:49.385Z,,0,1,,3466.2520000000077,response,ISIC_0056041.JPG,4,ISIC_0033204.JPG,ISIC_0056041.JPG,false,1,keypress(m),500,205720,205720,202237.082,202245,202253.748,205736.942,8,400,17,,ISIC_0033204.JPG
break,html.Screen,4_16_1,2023-09-08T20:45:49.388Z,,0,,,NaN,,,,,,false,,,,205723,205722,,205721,,205736.942,8,400,,,
break_continue,html.Screen,4_16_2,2023-09-08T20:45:49.389Z,,0,,,NaN,,,,,,false,,,,205724,205723,,205723,,205736.942,8,400,,,
sequence,flow.Sequence,4_16,2023-09-08T20:45:49.389Z,,0,,,3469.2520000000077,completion,,,,,false,,,,205724,205723,202237.082,202245,202253.748,205736.942,8,400,,,
trial,html.Screen,4_17_0,2023-09-08T20:45:53.077Z,,0,1,,3675.05799999999,response,ISIC_0053796.JPG,4,ISIC_6464772.JPG,ISIC_0053796.JPG,false,1,keypress(m),500,209412,209412,205720.276,205725,205736.942,209420.128,8,400,18,,ISIC_6464772.JPG
break,html.Screen,4_17_1,2023-09-08T20:45:53.081Z,,0,,,NaN,,,,,,false,,,,209416,209415,,209414,,209420.128,8,400,,,
break_continue,html.Screen,4_17_2,2023-09-08T20:45:53.083Z,,0,,,NaN,,,,,,false,,,,209418,209418,,209416,,209420.128,8,400,,,
sequence,flow.Sequence,4_17,2023-09-08T20:45:53.084Z,,0,,,3681.05799999999,completion,,,,,false,,,,209419,209418,205720.276,205725,205736.942,209420.128,8,400,,,
trial,html.Screen,4_18_0,2023-09-08T20:45:56.307Z,,0,1,,3221.872000000003,response,ISIC_6507492.JPG,5,ISIC_4762702.JPG,ISIC_4762702.JPG,false,0,keypress(z),500,212642,212642,209403.462,209419,209420.128,212653.332,8,400,19,,ISIC_6507492.JPG
break,html.Screen,4_18_1,2023-09-08T20:45:56.310Z,,0,,,NaN,,,,,,false,,,,212645,212644,,212643,,212653.332,8,400,,,
break_continue,html.Screen,4_18_2,2023-09-08T20:45:56.311Z,,0,,,NaN,,,,,,false,,,,212646,212646,,212645,,212653.332,8,400,,,
sequence,flow.Sequence,4_18,2023-09-08T20:45:56.311Z,,0,,,3225.872000000003,completion,,,,,false,,,,212646,212646,209403.462,209419,209420.128,212653.332,8,400,,,
trial,html.Screen,4_19_0,2023-09-08T20:45:59.451Z,,0,1,,3132.668000000005,response,ISIC_0024805.JPG,4,ISIC_0046983.JPG,ISIC_0046983.JPG,false,0,keypress(z),500,215786,215786,212636.666,212647,212653.332,215836.538,8,400,20,,ISIC_0024805.JPG
break,html.Screen,4_19_1,2023-09-08T20:45:59.454Z,,0,,,NaN,,,,,,false,,,,215789,215788,,215787,,215836.538,8,400,,,
break_continue,html.Screen,4_19_2,2023-09-08T20:45:59.455Z,,0,,,NaN,,,,,,false,,,,215790,215790,,215789,,215836.538,8,400,,,
sequence,flow.Sequence,4_19,2023-09-08T20:45:59.455Z,,0,,,3136.668000000005,completion,,,,,false,,,,215790,215790,212636.666,212647,212653.332,215836.538,8,400,,,
trial,html.Screen,4_20_0,2023-09-08T20:46:03.764Z,,0,1,,4262.4619999999995,response,ISIC_0000058.JPG,4,ISIC_9696502.JPG,ISIC_9696502.JPG,false,0,keypress(z),500,220099,220099,215786.54,215791,215836.538,220103.034,8,400,21,,ISIC_0000058.JPG
break,html.Screen,4_20_1,2023-09-08T20:46:03.767Z,,0,,,NaN,,,,,,false,,,,220102,220101,,220100,,220103.034,8,400,,,
break_continue,html.Screen,4_20_2,2023-09-08T20:46:03.768Z,,0,,,NaN,,,,,,false,,,,220103,220103,,220102,,220103.034,8,400,,,
sequence,flow.Sequence,4_20,2023-09-08T20:46:03.768Z,,0,,,4266.4619999999995,completion,,,,,false,,,,220103,220103,215786.54,215791,215836.538,220103.034,8,400,,,
trial,html.Screen,4_21_0,2023-09-08T20:46:07.316Z,,0,1,,3546.965999999986,response,ISIC_0026685.JPG,4,ISIC_0068696.JPG,ISIC_0026685.JPG,false,1,keypress(m),500,223651,223650,220086.368,220104,220103.034,223686.224,8,400,22,,ISIC_0068696.JPG
break,html.Screen,4_21_1,2023-09-08T20:46:07.319Z,,0,,,NaN,,,,,,false,,,,223654,223653,,223651,,223686.224,8,400,,,
break_continue,html.Screen,4_21_2,2023-09-08T20:46:07.320Z,,0,,,NaN,,,,,,false,,,,223655,223654,,223654,,223686.224,8,400,,,
sequence,flow.Sequence,4_21,2023-09-08T20:46:07.320Z,,0,,,3550.965999999986,completion,,,,,false,,,,223655,223654,220086.368,220104,220103.034,223686.224,8,400,,,
trial,html.Screen,4_22_0,2023-09-08T20:46:11.228Z,,0,1,,3876.7760000000126,response,ISIC_0025579.JPG,4,ISIC_2380341.JPG,ISIC_0025579.JPG,false,1,keypress(m),500,227563,227563,223652.892,223656,223686.224,227569.402,8,400,23,,ISIC_2380341.JPG
break,html.Screen,4_22_1,2023-09-08T20:46:11.231Z,,0,,,NaN,,,,,,false,,,,227566,227565,,227564,,227569.402,8,400,,,
break_continue,html.Screen,4_22_2,2023-09-08T20:46:11.232Z,,0,,,NaN,,,,,,false,,,,227567,227567,,227566,,227569.402,8,400,,,
sequence,flow.Sequence,4_22,2023-09-08T20:46:11.232Z,,0,,,3880.7760000000126,completion,,,,,false,,,,227567,227567,223652.892,223656,223686.224,227569.402,8,400,,,
trial,html.Screen,4_23_0,2023-09-08T20:46:14.837Z,,0,1,,3602.597999999998,response,ISIC_0061583.JPG,4,ISIC_0030681.JPG,ISIC_0061583.JPG,false,1,keypress(m),500,231172,231172,227552.736,227568,227569.402,231185.924,8,400,24,,ISIC_0030681.JPG
break,html.Screen,4_23_1,2023-09-08T20:46:14.840Z,,0,,,NaN,,,,,,false,,,,231175,231174,,231173,,231185.924,8,400,,,
break_continue,html.Screen,4_23_2,2023-09-08T20:46:14.841Z,,0,,,NaN,,,,,,false,,,,231176,231175,,231175,,231185.924,8,400,,,
sequence,flow.Sequence,4_23,2023-09-08T20:46:14.841Z,,0,,,3605.597999999998,completion,,,,,false,,,,231176,231175,227552.736,227568,227569.402,231185.924,8,400,,,
trial,html.Screen,4_24_0,2023-09-08T20:46:18.060Z,,0,1,,3209.076000000001,response,ISIC_0055841.JPG,4,ISIC_6691962.JPG,ISIC_6691962.JPG,false,0,keypress(z),500,234395,234395,231169.258,231177,231185.924,234402.462,8,400,25,,ISIC_0055841.JPG
break,html.Screen,4_24_1,2023-09-08T20:46:18.063Z,,0,,,NaN,,,,,,false,,,,234398,234397,,234396,,234402.462,8,400,,,
break_continue,html.Screen,4_24_2,2023-09-08T20:46:18.064Z,,0,,,NaN,,,,,,false,,,,234399,234399,,234398,,234402.462,8,400,,,
sequence,flow.Sequence,4_24,2023-09-08T20:46:18.065Z,,0,,,3213.076000000001,completion,,,,,false,,,,234400,234399,231169.258,231177,231185.924,234402.462,8,400,,,
trial,html.Screen,4_25_0,2023-09-08T20:46:22.133Z,,0,1,,4065.5380000000005,response,ISIC_0064836.JPG,5,ISIC_0010421.JPG,ISIC_0064836.JPG,false,1,keypress(m),500,238468,238468,234385.796,234400,234402.462,238502.298,8,400,26,,ISIC_0010421.JPG
break,html.Screen,4_25_1,2023-09-08T20:46:22.136Z,,0,,,NaN,,,,,,false,,,,238471,238470,,238469,,238502.298,8,400,,,
break_continue,html.Screen,4_25_2,2023-09-08T20:46:22.137Z,,0,,,NaN,,,,,,false,,,,238472,238472,,238471,,238502.298,8,400,,,
sequence,flow.Sequence,4_25,2023-09-08T20:46:22.138Z,,0,,,4069.5380000000005,completion,,,,,false,,,,238473,238472,234385.796,234400,234402.462,238502.298,8,400,,,
trial,html.Screen,4_26_0,2023-09-08T20:46:25.485Z,,0,1,,3317.70199999999,response,ISIC_0056707.JPG,5,ISIC_0027838.JPG,ISIC_0056707.JPG,false,1,keypress(m),500,241820,241820,238468.966,238473,238502.298,241835.498,8,400,27,,ISIC_0027838.JPG
break,html.Screen,4_26_1,2023-09-08T20:46:25.488Z,,0,,,NaN,,,,,,false,,,,241823,241822,,241821,,241835.498,8,400,,,
break_continue,html.Screen,4_26_2,2023-09-08T20:46:25.489Z,,0,,,NaN,,,,,,false,,,,241824,241824,,241823,,241835.498,8,400,,,
sequence,flow.Sequence,4_26,2023-09-08T20:46:25.490Z,,0,,,3321.70199999999,completion,,,,,false,,,,241825,241824,238468.966,238473,238502.298,241835.498,8,400,,,
trial,html.Screen,4_27_0,2023-09-08T20:46:29.285Z,,0,1,,3784.5020000000077,response,ISIC_0025313.JPG,4,ISIC_0185547.JPG,ISIC_0025313.JPG,false,1,keypress(m),500,245620,245620,241818.832,241825,241835.498,245635.346,8,400,28,,ISIC_0185547.JPG
break,html.Screen,4_27_1,2023-09-08T20:46:29.288Z,,0,,,NaN,,,,,,false,,,,245623,245622,,245621,,245635.346,8,400,,,
break_continue,html.Screen,4_27_2,2023-09-08T20:46:29.289Z,,0,,,NaN,,,,,,false,,,,245624,245623,,245623,,245635.346,8,400,,,
sequence,flow.Sequence,4_27,2023-09-08T20:46:29.289Z,,0,,,3787.5020000000077,completion,,,,,false,,,,245624,245623,241818.832,241825,241835.498,245635.346,8,400,,,
trial,html.Screen,4_28_0,2023-09-08T20:46:33.172Z,,0,1,,3871.6540000000095,response,ISIC_0054025.JPG,4,ISIC_5607452.JPG,ISIC_5607452.JPG,false,0,keypress(z),500,249507,249507,245618.68,245625,245635.346,249518.524,8,400,29,,ISIC_0054025.JPG
break,html.Screen,4_28_1,2023-09-08T20:46:33.175Z,,0,,,NaN,,,,,,false,,,,249510,249510,,249508,,249518.524,8,400,,,
break_continue,html.Screen,4_28_2,2023-09-08T20:46:33.177Z,,0,,,NaN,,,,,,false,,,,249512,249511,,249511,,249518.524,8,400,,,
sequence,flow.Sequence,4_28,2023-09-08T20:46:33.177Z,,0,,,3875.6540000000095,completion,,,,,false,,,,249512,249511,245618.68,245625,245635.346,249518.524,8,400,,,
trial,html.Screen,4_29_0,2023-09-08T20:46:36.253Z,,0,1,,3069.475999999995,response,ISIC_0001118.JPG,5,ISIC_6959281.JPG,ISIC_6959281.JPG,false,0,keypress(z),500,252588,252588,249501.858,249513,249518.524,252601.734,8,400,30,,ISIC_0001118.JPG
break,html.Screen,4_29_1,2023-09-08T20:46:36.256Z,,0,,,NaN,,,,,,false,,,,252591,252590,,252589,,252601.734,8,400,,,
break_continue,html.Screen,4_29_2,2023-09-08T20:46:36.257Z,,0,,,NaN,,,,,,false,,,,252592,252592,,252591,,252601.734,8,400,,,
sequence,flow.Sequence,4_29,2023-09-08T20:46:36.257Z,,0,,,3073.475999999995,completion,,,,,false,,,,252592,252592,249501.858,249513,249518.524,252601.734,8,400,,,
trial,html.Screen,4_30_0,2023-09-08T20:46:39.668Z,,0,1,,3401.2660000000033,response,ISIC_0055491.JPG,4,ISIC_4587506.JPG,ISIC_4587506.JPG,false,0,keypress(z),500,256003,256003,252585.068,252593,252601.734,256018.264,8,400,31,,ISIC_0055491.JPG
break,html.Screen,4_30_1,2023-09-08T20:46:39.671Z,,0,,,NaN,,,,,,false,,,,256006,256005,,256004,,256018.264,8,400,,,
break_continue,html.Screen,4_30_2,2023-09-08T20:46:39.672Z,,0,,,NaN,,,,,,false,,,,256007,256007,,256006,,256018.264,8,400,,,
sequence,flow.Sequence,4_30,2023-09-08T20:46:39.673Z,,0,,,3405.2660000000033,completion,,,,,false,,,,256008,256007,252585.068,252593,252601.734,256018.264,8,400,,,
trial,html.Screen,4_31_0,2023-09-08T20:46:43.372Z,,0,1,,3688.7360000000044,response,ISIC_0025169.JPG,4,ISIC_0031931.JPG,ISIC_0025169.JPG,false,1,keypress(m),500,259707,259707,256001.598,256009,256018.264,259718.116,8,400,32,,ISIC_0031931.JPG
break,html.Screen,4_31_1,2023-09-08T20:46:43.376Z,,0,,,NaN,,,,,,false,,,,259711,259711,,259708,,259718.116,8,400,,,
break_continue,html.Screen,4_31_2,2023-09-08T20:46:43.377Z,,0,,,NaN,,,,,,false,,,,259712,259712,,259711,,259718.116,8,400,,,
sequence,flow.Sequence,4_31,2023-09-08T20:46:43.377Z,,0,,,3693.7360000000044,completion,,,,,false,,,,259712,259712,256001.598,256009,256018.264,259718.116,8,400,,,
trial,html.Screen,4_32_0,2023-09-08T20:46:47.802Z,,0,1,,4418.883999999991,response,ISIC_0998962.JPG,4,ISIC_2151727.JPG,ISIC_0998962.JPG,false,1,keypress(m),500,264137,264137,259701.45,259712,259718.116,264151.272,8,400,33,,ISIC_2151727.JPG
break,html.Screen,4_32_1,2023-09-08T20:46:47.803Z,,0,,,NaN,,,,,,false,,,,264138,264138,,264137,,264151.272,8,400,,,
break_continue,html.Screen,4_32_2,2023-09-08T20:46:47.803Z,,0,,,NaN,,,,,,false,,,,264138,264138,,264138,,264151.272,8,400,,,
sequence,flow.Sequence,4_32,2023-09-08T20:46:47.804Z,,0,,,4419.883999999991,completion,,,,,false,,,,264139,264138,259701.45,259712,259718.116,264151.272,8,400,,,
trial,html.Screen,4_33_0,2023-09-08T20:46:51.589Z,,0,1,,3772.728000000003,response,ISIC_0014428.JPG,5,ISIC_8340256.JPG,ISIC_0014428.JPG,false,1,keypress(m),500,267924,267924,264134.606,264139,264151.272,267934.454,8,400,34,,ISIC_8340256.JPG
break,html.Screen,4_33_1,2023-09-08T20:46:51.592Z,,0,,,NaN,,,,,,false,,,,267927,267926,,267925,,267934.454,8,400,,,
break_continue,html.Screen,4_33_2,2023-09-08T20:46:51.593Z,,0,,,NaN,,,,,,false,,,,267928,267927,,267927,,267934.454,8,400,,,
sequence,flow.Sequence,4_33,2023-09-08T20:46:51.593Z,,0,,,3775.728000000003,completion,,,,,false,,,,267928,267927,264134.606,264139,264151.272,267934.454,8,400,,,
trial,html.Screen,4_34_0,2023-09-08T20:46:55.283Z,,0,1,,3683.545999999973,response,ISIC_0062382.JPG,4,ISIC_0003324.JPG,ISIC_0003324.JPG,false,0,keypress(z),500,271618,271618,267917.788,267929,267934.454,271634.306,8,400,35,,ISIC_0062382.JPG
break,html.Screen,4_34_1,2023-09-08T20:46:55.286Z,,0,,,NaN,,,,,,false,,,,271621,271620,,271619,,271634.306,8,400,,,
break_continue,html.Screen,4_34_2,2023-09-08T20:46:55.291Z,,0,,,NaN,,,,,,false,,,,271626,271622,,271621,,271634.306,8,400,,,
sequence,flow.Sequence,4_34,2023-09-08T20:46:55.292Z,,0,,,3687.545999999973,completion,,,,,false,,,,271627,271622,267917.788,267929,267934.454,271634.306,8,400,,,
trial,html.Screen,4_35_0,2023-09-08T20:46:59.071Z,,0,1,,3771.6940000000177,response,ISIC_9350507.JPG,4,ISIC_6385627.JPG,ISIC_9350507.JPG,false,1,keypress(m),500,275406,275406,271617.64,271627,271634.306,275417.488,8,400,36,,ISIC_6385627.JPG
break,html.Screen,4_35_1,2023-09-08T20:46:59.074Z,,0,,,NaN,,,,,,false,,,,275409,275408,,275407,,275417.488,8,400,,,
break_continue,html.Screen,4_35_2,2023-09-08T20:46:59.075Z,,0,,,NaN,,,,,,false,,,,275410,275409,,275409,,275417.488,8,400,,,
sequence,flow.Sequence,4_35,2023-09-08T20:46:59.075Z,,0,,,3774.6940000000177,completion,,,,,false,,,,275410,275409,271617.64,271627,271634.306,275417.488,8,400,,,
trial,html.Screen,4_36_0,2023-09-08T20:47:03.820Z,,0,1,,4737.511999999988,response,ISIC_6220953.JPG,5,ISIC_5768032.JPG,ISIC_6220953.JPG,false,1,keypress(m),500,280155,280155,275400.822,275411,275417.488,280167.298,8,400,37,,ISIC_5768032.JPG
break,html.Screen,4_36_1,2023-09-08T20:47:03.823Z,,0,,,NaN,,,,,,false,,,,280158,280157,,280156,,280167.298,8,400,,,
break_continue,html.Screen,4_36_2,2023-09-08T20:47:03.824Z,,0,,,NaN,,,,,,false,,,,280159,280159,,280158,,280167.298,8,400,,,
sequence,flow.Sequence,4_36,2023-09-08T20:47:03.825Z,,0,,,4741.511999999988,completion,,,,,false,,,,280160,280159,275400.822,275411,275417.488,280167.298,8,400,,,
trial,html.Screen,4_37_0,2023-09-08T20:47:07.571Z,,0,1,,3738.70199999999,response,ISIC_0071966.JPG,4,ISIC_4768512.JPG,ISIC_0071966.JPG,false,1,keypress(m),500,283906,283906,280150.632,280160,280167.298,283917.148,8,400,38,,ISIC_4768512.JPG
break,html.Screen,4_37_1,2023-09-08T20:47:07.574Z,,0,,,NaN,,,,,,false,,,,283909,283908,,283907,,283917.148,8,400,,,
break_continue,html.Screen,4_37_2,2023-09-08T20:47:07.576Z,,0,,,NaN,,,,,,false,,,,283911,283910,,283909,,283917.148,8,400,,,
sequence,flow.Sequence,4_37,2023-09-08T20:47:07.576Z,,0,,,3742.70199999999,completion,,,,,false,,,,283911,283910,280150.632,280160,280167.298,283917.148,8,400,,,
trial,html.Screen,4_38_0,2023-09-08T20:47:11.427Z,,0,1,,3844.8520000000135,response,ISIC_9754098.JPG,5,ISIC_5499139.JPG,ISIC_5499139.JPG,false,0,keypress(z),500,287762,287762,283900.482,283912,283917.148,287766.994,8,400,39,,ISIC_9754098.JPG
break,html.Screen,4_38_1,2023-09-08T20:47:11.430Z,,0,,,NaN,,,,,,false,,,,287765,287764,,287763,,287766.994,8,400,,,
break_continue,html.Screen,4_38_2,2023-09-08T20:47:11.431Z,,0,,,NaN,,,,,,false,,,,287766,287765,,287765,,287766.994,8,400,,,
sequence,flow.Sequence,4_38,2023-09-08T20:47:11.431Z,,0,,,3847.8520000000135,completion,,,,,false,,,,287766,287765,283900.482,283912,283917.148,287766.994,8,400,,,
trial,html.Screen,4_39_0,2023-09-08T20:47:15.418Z,,0,1,,3986.005999999994,response,ISIC_6899527.JPG,4,ISIC_0011127.JPG,ISIC_6899527.JPG,false,1,keypress(m),500,291753,291753,287750.328,287767,287766.994,291766.834,8,400,40,,ISIC_0011127.JPG
break,html.Screen,4_39_1,2023-09-08T20:47:15.421Z,,0,,,NaN,,,,,,false,,,,291756,291755,,291754,,291766.834,8,400,,,
break_continue,html.Screen,4_39_2,2023-09-08T20:47:15.422Z,,0,,,NaN,,,,,,false,,,,291757,291757,,291756,,291766.834,8,400,,,
sequence,flow.Sequence,4_39,2023-09-08T20:47:15.423Z,,0,,,3990.005999999994,completion,,,,,false,,,,291758,291757,287750.328,287767,287766.994,291766.834,8,400,,,
trial,html.Screen,4_40_0,2023-09-08T20:47:18.961Z,,0,1,,3529.1660000000265,response,ISIC_4384341.JPG,4,ISIC_6613150.JPG,ISIC_4384341.JPG,false,1,keypress(m),500,295296,295296,291750.168,291758,291766.834,295300.026,8,400,41,,ISIC_6613150.JPG
break,html.Screen,4_40_1,2023-09-08T20:47:18.964Z,,0,,,NaN,,,,,,false,,,,295299,295298,,295297,,295300.026,8,400,,,
break_continue,html.Screen,4_40_2,2023-09-08T20:47:18.965Z,,0,,,NaN,,,,,,false,,,,295300,295300,,295299,,295300.026,8,400,,,
sequence,flow.Sequence,4_40,2023-09-08T20:47:18.966Z,,0,,,3533.1660000000265,completion,,,,,false,,,,295301,295300,291750.168,291758,291766.834,295300.026,8,400,,,
trial,html.Screen,4_41_0,2023-09-08T20:47:22.249Z,,0,1,,3283.9739999999874,response,ISIC_0030641.JPG,4,ISIC_0033428.JPG,ISIC_0030641.JPG,false,1,keypress(m),500,298584,298584,295283.36,295301,295300.026,298599.894,8,400,42,,ISIC_0033428.JPG
break,html.Screen,4_41_1,2023-09-08T20:47:22.252Z,,0,,,NaN,,,,,,false,,,,298587,298586,,298585,,298599.894,8,400,,,
break_continue,html.Screen,4_41_2,2023-09-08T20:47:22.253Z,,0,,,NaN,,,,,,false,,,,298588,298588,,298587,,298599.894,8,400,,,
sequence,flow.Sequence,4_41,2023-09-08T20:47:22.254Z,,0,,,3287.9739999999874,completion,,,,,false,,,,298589,298588,295283.36,295301,295300.026,298599.894,8,400,,,
trial,html.Screen,4_42_0,2023-09-08T20:47:25.334Z,,0,1,,3068.106000000029,response,ISIC_1080647.JPG,4,ISIC_0013778.JPG,ISIC_1080647.JPG,false,1,keypress(m),500,301669,301668,298583.228,298589,298599.894,301699.77,8,400,43,,ISIC_0013778.JPG
break,html.Screen,4_42_1,2023-09-08T20:47:25.336Z,,0,,,NaN,,,,,,false,,,,301671,301671,,301670,,301699.77,8,400,,,
break_continue,html.Screen,4_42_2,2023-09-08T20:47:25.338Z,,0,,,NaN,,,,,,false,,,,301672,301672,,301672,,301699.77,8,400,,,
sequence,flow.Sequence,4_42,2023-09-08T20:47:25.338Z,,0,,,3072.106000000029,completion,,,,,false,,,,301673,301672,298583.228,298589,298599.894,301699.77,8,400,,,
trial,html.Screen,4_43_0,2023-09-08T20:47:28.973Z,,0,1,,3608.2299999999814,response,ISIC_0057164.JPG,4,ISIC_0058149.JPG,ISIC_0057164.JPG,false,1,keypress(m),500,305308,305308,301683.104,301674,301699.77,305316.292,8,400,44,,ISIC_0058149.JPG
break,html.Screen,4_43_1,2023-09-08T20:47:28.975Z,,0,,,NaN,,,,,,false,,,,305310,305310,,305309,,305316.292,8,400,,,
break_continue,html.Screen,4_43_2,2023-09-08T20:47:28.976Z,,0,,,NaN,,,,,,false,,,,305311,305311,,305311,,305316.292,8,400,,,
sequence,flow.Sequence,4_43,2023-09-08T20:47:28.977Z,,0,,,3611.2299999999814,completion,,,,,false,,,,305312,305311,301683.104,301673,301699.77,305316.292,8,400,,,
trial,html.Screen,4_44_0,2023-09-08T20:47:32.419Z,,0,1,,3437.707999999984,response,ISIC_0062991.JPG,5,ISIC_4220326.JPG,ISIC_0062991.JPG,false,1,keypress(m),500,308754,308754,305299.626,305312,305316.292,308766.154,8,400,45,,ISIC_4220326.JPG
break,html.Screen,4_44_1,2023-09-08T20:47:32.420Z,,0,,,NaN,,,,,,false,,,,308755,308755,,308754,,308766.154,8,400,,,
break_continue,html.Screen,4_44_2,2023-09-08T20:47:32.421Z,,0,,,NaN,,,,,,false,,,,308756,308756,,308755,,308766.154,8,400,,,
sequence,flow.Sequence,4_44,2023-09-08T20:47:32.421Z,,0,,,3439.707999999984,completion,,,,,false,,,,308756,308756,305299.626,305312,305316.292,308766.154,8,400,,,
trial,html.Screen,4_45_0,2023-09-08T20:47:35.702Z,,0,1,,3270.8460000000196,response,ISIC_2366652.JPG,4,ISIC_0057821.JPG,ISIC_2366652.JPG,false,1,keypress(m),500,312037,312037,308749.488,308756,308766.154,312049.356,8,400,46,,ISIC_0057821.JPG
break,html.Screen,4_45_1,2023-09-08T20:47:35.705Z,,0,,,NaN,,,,,,false,,,,312040,312039,,312038,,312049.356,8,400,,,
break_continue,html.Screen,4_45_2,2023-09-08T20:47:35.706Z,,0,,,NaN,,,,,,false,,,,312041,312041,,312040,,312049.356,8,400,,,
sequence,flow.Sequence,4_45,2023-09-08T20:47:35.707Z,,0,,,3274.8460000000196,completion,,,,,false,,,,312042,312041,308749.488,308756,308766.154,312049.356,8,400,,,
trial,html.Screen,4_46_0,2023-09-08T20:47:39.172Z,,0,1,,3457.643999999971,response,ISIC_0033166.JPG,4,ISIC_0024694.JPG,ISIC_0033166.JPG,false,1,keypress(m),500,315507,315507,312032.69,312042,312049.356,315515.884,8,400,47,,ISIC_0024694.JPG
break,html.Screen,4_46_1,2023-09-08T20:47:39.175Z,,0,,,NaN,,,,,,false,,,,315510,315509,,315508,,315515.884,8,400,,,
break_continue,html.Screen,4_46_2,2023-09-08T20:47:39.176Z,,0,,,NaN,,,,,,false,,,,315511,315511,,315510,,315515.884,8,400,,,
sequence,flow.Sequence,4_46,2023-09-08T20:47:39.176Z,,0,,,3461.643999999971,completion,,,,,false,,,,315511,315511,312032.69,312042,312049.356,315515.884,8,400,,,
trial,html.Screen,4_47_0,2023-09-08T20:47:42.843Z,,0,1,,3662.11599999998,response,ISIC_0011219.JPG,5,ISIC_6178088.JPG,ISIC_6178088.JPG,false,0,keypress(z),500,319178,319178,315499.218,315512,315515.884,319182.404,8,400,48,,ISIC_0011219.JPG
break,html.Screen,4_47_1,2023-09-08T20:47:42.844Z,,0,,,NaN,,,,,,false,,,,319179,319179,,319178,,319182.404,8,400,,,
break_continue,html.Screen,4_47_2,2023-09-08T20:47:42.845Z,,0,,,NaN,,,,,,false,,,,319180,319180,,319179,,319182.404,8,400,,,
sequence,flow.Sequence,4_47,2023-09-08T20:47:42.845Z,,0,,,3664.11599999998,completion,,,,,false,,,,319180,319180,315499.218,315512,315515.884,319182.404,8,400,,,
trial,html.Screen,4_48_0,2023-09-08T20:47:46.756Z,,0,1,,3908.5960000000196,response,ISIC_0032134.JPG,4,ISIC_0065943.JPG,ISIC_0032134.JPG,false,1,keypress(m),500,323091,323091,319165.738,319180,319182.404,323098.914,8,400,49,,ISIC_0065943.JPG
break,html.Screen,4_48_1,2023-09-08T20:47:46.759Z,,0,,,NaN,,,,,,false,,,,323094,323093,,323092,,323098.914,8,400,,,
break_continue,html.Screen,4_48_2,2023-09-08T20:47:46.760Z,,0,,,NaN,,,,,,false,,,,323095,323094,,323094,,323098.914,8,400,,,
sequence,flow.Sequence,4_48,2023-09-08T20:47:46.760Z,,0,,,3911.5960000000196,completion,,,,,false,,,,323095,323094,319165.738,319180,319182.404,323098.914,8,400,,,
trial,html.Screen,4_49_0,2023-09-08T20:47:49.852Z,,0,1,,3088.0860000000102,response,ISIC_0070092.JPG,6,ISIC_9193127.JPG,ISIC_9193127.JPG,false,0,keypress(z),500,326187,326187,323082.248,323096,323098.914,326198.79,8,400,50,,ISIC_0070092.JPG
break,html.Screen,4_49_1,2023-09-08T20:47:59.850Z,,0,,,10016.266000000003,timeout,,,,,false,,,,336185,336181.724,326182.124,326188,326198.79,336215.056,8,400,,,
break_continue,html.Screen,4_49_2,2023-09-08T20:48:01.746Z,,0,,,1829.9440000000177,response,,,,,false,continue,keypress(Space),,338081,338045,336181.724,336185,336215.056,338098.314,8,400,,,
sequence,flow.Sequence,4_49,2023-09-08T20:48:01.747Z,,0,,,14946.08600000001,completion,,,,,false,,,,338082,338045,323082.248,323095,323098.914,338098.314,8,400,,,
trial,html.Screen,4_50_0,2023-09-08T20:48:05.918Z,,0,2,,4154.685999999987,response,ISIC_2658858.JPG,4,ISIC_5306427.JPG,ISIC_2658858.JPG,false,1,keypress(m),500,342253,342253,338081.648,338082,338098.314,342264.814,8,400,1,,ISIC_5306427.JPG
break,html.Screen,4_50_1,2023-09-08T20:48:05.919Z,,0,,,NaN,,,,,,false,,,,342254,342254,,342253,,342264.814,8,400,,,
break_continue,html.Screen,4_50_2,2023-09-08T20:48:05.919Z,,0,,,NaN,,,,,,false,,,,342254,342254,,342254,,342264.814,8,400,,,
sequence,flow.Sequence,4_50,2023-09-08T20:48:05.920Z,,0,,,4155.685999999987,completion,,,,,false,,,,342255,342254,338081.648,338082,338098.314,342264.814,8,400,,,
trial,html.Screen,4_51_0,2023-09-08T20:48:09.121Z,,0,2,,3191.185999999987,response,ISIC_0011483.JPG,4,ISIC_0003664.JPG,ISIC_0003664.JPG,false,0,keypress(z),500,345456,345456,342248.148,342255,342264.814,345464.686,8,400,2,,ISIC_0011483.JPG
break,html.Screen,4_51_1,2023-09-08T20:48:09.124Z,,0,,,NaN,,,,,,false,,,,345459,345458,,345457,,345464.686,8,400,,,
break_continue,html.Screen,4_51_2,2023-09-08T20:48:09.125Z,,0,,,NaN,,,,,,false,,,,345460,345459,,345459,,345464.686,8,400,,,
sequence,flow.Sequence,4_51,2023-09-08T20:48:09.125Z,,0,,,3194.185999999987,completion,,,,,false,,,,345460,345459,342248.148,342255,342264.814,345464.686,8,400,,,
trial,html.Screen,4_52_0,2023-09-08T20:48:12.104Z,,0,2,,2974.314000000013,response,ISIC_0594534.JPG,6,ISIC_0066935.JPG,ISIC_0594534.JPG,false,1,keypress(m),500,348439,348439,345448.02,345461,345464.686,348447.9,8,400,3,,ISIC_0066935.JPG
break,html.Screen,4_52_1,2023-09-08T20:48:12.105Z,,0,,,NaN,,,,,,false,,,,348440,348440,,348439,,348447.9,8,400,,,
break_continue,html.Screen,4_52_2,2023-09-08T20:48:12.105Z,,0,,,NaN,,,,,,false,,,,348440,348440,,348440,,348447.9,8,400,,,
sequence,flow.Sequence,4_52,2023-09-08T20:48:12.105Z,,0,,,2975.314000000013,completion,,,,,false,,,,348440,348440,345448.02,345461,345464.686,348447.9,8,400,,,
trial,html.Screen,4_53_0,2023-09-08T20:48:15.297Z,,0,2,,3184.0999999999767,response,ISIC_0026188.JPG,4,ISIC_0012435.JPG,ISIC_0012435.JPG,false,0,keypress(z),500,351632,351632,348431.234,348441,348447.9,351647.772,8,400,4,,ISIC_0026188.JPG
break,html.Screen,4_53_1,2023-09-08T20:48:15.300Z,,0,,,NaN,,,,,,false,,,,351635,351634,,351633,,351647.772,8,400,,,
break_continue,html.Screen,4_53_2,2023-09-08T20:48:15.301Z,,0,,,NaN,,,,,,false,,,,351636,351636,,351635,,351647.772,8,400,,,
sequence,flow.Sequence,4_53,2023-09-08T20:48:15.301Z,,0,,,3188.0999999999767,completion,,,,,false,,,,351636,351636,348431.234,348441,348447.9,351647.772,8,400,,,
trial,html.Screen,4_54_0,2023-09-08T20:48:18.460Z,,0,2,,3147.228000000003,response,ISIC_0032695.JPG,5,ISIC_0059625.JPG,ISIC_0059625.JPG,false,0,keypress(z),500,354795,354795,351631.106,351637,351647.772,354830.978,8,400,5,,ISIC_0032695.JPG
break,html.Screen,4_54_1,2023-09-08T20:48:18.463Z,,0,,,NaN,,,,,,false,,,,354798,354797,,354796,,354830.978,8,400,,,
break_continue,html.Screen,4_54_2,2023-09-08T20:48:18.465Z,,0,,,NaN,,,,,,false,,,,354800,354799,,354799,,354830.978,8,400,,,
sequence,flow.Sequence,4_54,2023-09-08T20:48:18.465Z,,0,,,3151.228000000003,completion,,,,,false,,,,354800,354799,351631.106,351637,351647.772,354830.978,8,400,,,
trial,html.Screen,4_55_0,2023-09-08T20:48:21.716Z,,0,2,,3220.021999999997,response,ISIC_0025877.JPG,5,ISIC_9772383.JPG,ISIC_9772383.JPG,false,0,keypress(z),500,358051,358051,354797.646,354801,354830.978,358064.182,8,400,6,,ISIC_0025877.JPG
break,html.Screen,4_55_1,2023-09-08T20:48:21.719Z,,0,,,NaN,,,,,,false,,,,358054,358053,,358052,,358064.182,8,400,,,
break_continue,html.Screen,4_55_2,2023-09-08T20:48:21.720Z,,0,,,NaN,,,,,,false,,,,358055,358055,,358054,,358064.182,8,400,,,
sequence,flow.Sequence,4_55,2023-09-08T20:48:21.721Z,,0,,,3224.021999999997,completion,,,,,false,,,,358056,358055,354797.646,354800,354830.978,358064.182,8,400,,,
trial,html.Screen,4_56_0,2023-09-08T20:48:25.100Z,,0,2,,3370.8180000000284,response,ISIC_0007351.JPG,4,ISIC_6162308.JPG,ISIC_0007351.JPG,false,1,keypress(m),500,361435,361435,358047.516,358056,358064.182,361447.38,8,400,7,,ISIC_6162308.JPG
break,html.Screen,4_56_1,2023-09-08T20:48:25.103Z,,0,,,NaN,,,,,,false,,,,361438,361437,,361436,,361447.38,8,400,,,
break_continue,html.Screen,4_56_2,2023-09-08T20:48:25.104Z,,0,,,NaN,,,,,,false,,,,361439,361438,,361438,,361447.38,8,400,,,
sequence,flow.Sequence,4_56,2023-09-08T20:48:25.104Z,,0,,,3373.8180000000284,completion,,,,,false,,,,361439,361438,358047.516,358056,358064.182,361447.38,8,400,,,
trial,html.Screen,4_57_0,2023-09-08T20:48:28.099Z,,0,2,,2986.6199999999953,response,ISIC_0013778.JPG,5,ISIC_7477006.JPG,ISIC_7477006.JPG,false,0,keypress(z),500,364434,364434,361430.714,361440,361447.38,364447.26,8,400,8,,ISIC_0013778.JPG
break,html.Screen,4_57_1,2023-09-08T20:48:28.102Z,,0,,,NaN,,,,,,false,,,,364437,364436,,364435,,364447.26,8,400,,,
break_continue,html.Screen,4_57_2,2023-09-08T20:48:28.103Z,,0,,,NaN,,,,,,false,,,,364438,364437,,364437,,364447.26,8,400,,,
sequence,flow.Sequence,4_57,2023-09-08T20:48:28.103Z,,0,,,2989.6199999999953,completion,,,,,false,,,,364438,364437,361430.714,361439,361447.38,364447.26,8,400,,,
trial,html.Screen,4_58_0,2023-09-08T20:48:31.370Z,,0,2,,3257.7399999999907,response,ISIC_0034170.JPG,5,ISIC_7185913.JPG,ISIC_7185913.JPG,false,0,keypress(z),500,367705,367705,364430.594,364439,364447.26,367713.796,8,400,9,,ISIC_0034170.JPG
break,html.Screen,4_58_1,2023-09-08T20:48:31.373Z,,0,,,NaN,,,,,,false,,,,367708,367707,,367706,,367713.796,8,400,,,
break_continue,html.Screen,4_58_2,2023-09-08T20:48:31.374Z,,0,,,NaN,,,,,,false,,,,367709,367709,,367708,,367713.796,8,400,,,
sequence,flow.Sequence,4_58,2023-09-08T20:48:31.374Z,,0,,,3261.7399999999907,completion,,,,,false,,,,367709,367709,364430.594,364439,364447.26,367713.796,8,400,,,
trial,html.Screen,4_59_0,2023-09-08T20:48:34.625Z,,0,2,,3246.204000000027,response,ISIC_0256715.JPG,5,ISIC_4930632.JPG,ISIC_4930632.JPG,false,0,keypress(z),500,370960,370960,367697.13,367710,367713.796,370963.666,8,400,10,,ISIC_0256715.JPG
break,html.Screen,4_59_1,2023-09-08T20:48:34.628Z,,0,,,NaN,,,,,,false,,,,370963,370962,,370961,,370963.666,8,400,,,
break_continue,html.Screen,4_59_2,2023-09-08T20:48:34.629Z,,0,,,NaN,,,,,,false,,,,370964,370963,,370963,,370963.666,8,400,,,
sequence,flow.Sequence,4_59,2023-09-08T20:48:34.629Z,,0,,,3249.204000000027,completion,,,,,false,,,,370964,370963,367697.13,367710,367713.796,370963.666,8,400,,,
trial,html.Screen,4_60_0,2023-09-08T20:48:37.961Z,,0,2,,3332.3339999999735,response,ISIC_0013213.JPG,4,ISIC_3105136.JPG,ISIC_0013213.JPG,false,1,keypress(m),500,374296,374296,370947,370965,370963.666,374330.198,8,400,11,,ISIC_3105136.JPG
break,html.Screen,4_60_1,2023-09-08T20:48:37.963Z,,0,,,NaN,,,,,,false,,,,374298,374298,,374297,,374330.198,8,400,,,
break_continue,html.Screen,4_60_2,2023-09-08T20:48:37.965Z,,0,,,NaN,,,,,,false,,,,374300,374299,,374299,,374330.198,8,400,,,
sequence,flow.Sequence,4_60,2023-09-08T20:48:37.965Z,,0,,,3335.3339999999735,completion,,,,,false,,,,374300,374299,370947,370965,370963.666,374330.198,8,400,,,
trial,html.Screen,4_61_0,2023-09-08T20:48:41.296Z,,0,2,,3300.802000000025,response,ISIC_0011481.JPG,5,ISIC_0031985.JPG,ISIC_0031985.JPG,false,0,keypress(z),500,377631,377631,374296.866,374301,374330.198,377680.064,8,400,12,,ISIC_0011481.JPG
break,html.Screen,4_61_1,2023-09-08T20:48:41.299Z,,0,,,NaN,,,,,,false,,,,377634,377633,,377632,,377680.064,8,400,,,
break_continue,html.Screen,4_61_2,2023-09-08T20:48:41.300Z,,0,,,NaN,,,,,,false,,,,377635,377634,,377634,,377680.064,8,400,,,
sequence,flow.Sequence,4_61,2023-09-08T20:48:41.300Z,,0,,,3303.802000000025,completion,,,,,false,,,,377635,377634,374296.866,374301,374330.198,377680.064,8,400,,,
trial,html.Screen,4_62_0,2023-09-08T20:48:44.877Z,,0,2,,3531.935999999987,response,ISIC_6529819.JPG,6,ISIC_2378211.JPG,ISIC_2378211.JPG,false,0,keypress(z),500,381212,381212,377630.066,377636,377680.064,381246.588,8,400,13,,ISIC_6529819.JPG
break,html.Screen,4_62_1,2023-09-08T20:48:44.880Z,,0,,,NaN,,,,,,false,,,,381215,381214,,381213,,381246.588,8,400,,,
break_continue,html.Screen,4_62_2,2023-09-08T20:48:44.881Z,,0,,,NaN,,,,,,false,,,,381216,381216,,381215,,381246.588,8,400,,,
sequence,flow.Sequence,4_62,2023-09-08T20:48:44.881Z,,0,,,3535.935999999987,completion,,,,,false,,,,381216,381216,377630.066,377635,377680.064,381246.588,8,400,,,
trial,html.Screen,4_63_0,2023-09-08T20:48:48.181Z,,0,2,,3269.412000000011,response,ISIC_0032160.JPG,4,ISIC_6201199.JPG,ISIC_6201199.JPG,false,0,keypress(z),500,384516,384516,381213.256,381217,381246.588,384529.79,8,400,14,,ISIC_0032160.JPG
break,html.Screen,4_63_1,2023-09-08T20:48:48.185Z,,0,,,NaN,,,,,,false,,,,384520,384518,,384517,,384529.79,8,400,,,
break_continue,html.Screen,4_63_2,2023-09-08T20:48:48.186Z,,0,,,NaN,,,,,,false,,,,384521,384521,,384520,,384529.79,8,400,,,
sequence,flow.Sequence,4_63,2023-09-08T20:48:48.187Z,,0,,,3274.412000000011,completion,,,,,false,,,,384522,384521,381213.256,381217,381246.588,384529.79,8,400,,,
trial,html.Screen,4_64_0,2023-09-08T20:48:51.342Z,,0,2,,3147.210000000021,response,ISIC_5768602.JPG,5,ISIC_0028472.JPG,ISIC_0028472.JPG,false,0,keypress(z),500,387677,387677,384513.124,384522,384529.79,387712.996,8,400,15,,ISIC_5768602.JPG
break,html.Screen,4_64_1,2023-09-08T20:48:51.344Z,,0,,,NaN,,,,,,false,,,,387679,387679,,387678,,387712.996,8,400,,,
break_continue,html.Screen,4_64_2,2023-09-08T20:48:51.346Z,,0,,,NaN,,,,,,false,,,,387681,387680,,387680,,387712.996,8,400,,,
sequence,flow.Sequence,4_64,2023-09-08T20:48:51.346Z,,0,,,3150.210000000021,completion,,,,,false,,,,387681,387680,384513.124,384522,384529.79,387712.996,8,400,,,
trial,html.Screen,4_65_0,2023-09-08T20:48:54.773Z,,0,2,,3395.0040000000154,response,ISIC_0053796.JPG,4,ISIC_9471156.JPG,ISIC_0053796.JPG,false,1,keypress(m),500,391108,391108,387679.664,387682,387712.996,391146.192,8,400,16,,ISIC_9471156.JPG
break,html.Screen,4_65_1,2023-09-08T20:48:54.775Z,,0,,,NaN,,,,,,false,,,,391110,391110,,391109,,391146.192,8,400,,,
break_continue,html.Screen,4_65_2,2023-09-08T20:48:54.776Z,,0,,,NaN,,,,,,false,,,,391111,391111,,391111,,391146.192,8,400,,,
sequence,flow.Sequence,4_65,2023-09-08T20:48:54.777Z,,0,,,3398.0040000000154,completion,,,,,false,,,,391112,391111,387679.664,387682,387712.996,391146.192,8,400,,,
trial,html.Screen,4_66_0,2023-09-08T20:48:58.107Z,,0,2,,3295.808000000019,response,ISIC_0071693.JPG,4,ISIC_0013492.JPG,ISIC_0013492.JPG,false,0,keypress(z),500,394442,394442,391112.86,391112,391146.192,394479.392,8,400,17,,ISIC_0071693.JPG
break,html.Screen,4_66_1,2023-09-08T20:48:58.109Z,,0,,,NaN,,,,,,false,,,,394444,394444,,394443,,394479.392,8,400,,,
break_continue,html.Screen,4_66_2,2023-09-08T20:48:58.110Z,,0,,,NaN,,,,,,false,,,,394445,394445,,394445,,394479.392,8,400,,,
sequence,flow.Sequence,4_66,2023-09-08T20:48:58.111Z,,0,,,3298.808000000019,completion,,,,,false,,,,394446,394445,391112.86,391112,391146.192,394479.392,8,400,,,
trial,html.Screen,4_67_0,2023-09-08T20:49:01.378Z,,0,2,,3233.6080000000075,response,ISIC_9011718.JPG,5,ISIC_0028655.JPG,ISIC_9011718.JPG,false,1,keypress(m),500,397713,397713,394446.06,394446,394479.392,397729.262,8,400,18,,ISIC_0028655.JPG
break,html.Screen,4_67_1,2023-09-08T20:49:01.381Z,,0,,,NaN,,,,,,false,,,,397716,397715,,397714,,397729.262,8,400,,,
break_continue,html.Screen,4_67_2,2023-09-08T20:49:01.382Z,,0,,,NaN,,,,,,false,,,,397717,397717,,397716,,397729.262,8,400,,,
sequence,flow.Sequence,4_67,2023-09-08T20:49:01.382Z,,0,,,3237.6080000000075,completion,,,,,false,,,,397717,397717,394446.06,394446,394479.392,397729.262,8,400,,,
trial,html.Screen,4_68_0,2023-09-08T20:49:04.413Z,,0,2,,3018.738000000012,response,ISIC_0026916.JPG,4,ISIC_0028800.JPG,ISIC_0028800.JPG,false,0,keypress(z),500,400748,400748,397712.596,397718,397729.262,400762.474,8,400,19,,ISIC_0026916.JPG
break,html.Screen,4_68_1,2023-09-08T20:49:04.416Z,,0,,,NaN,,,,,,false,,,,400751,400750,,400749,,400762.474,8,400,,,
break_continue,html.Screen,4_68_2,2023-09-08T20:49:04.417Z,,0,,,NaN,,,,,,false,,,,400752,400752,,400751,,400762.474,8,400,,,
sequence,flow.Sequence,4_68,2023-09-08T20:49:04.417Z,,0,,,3022.738000000012,completion,,,,,false,,,,400752,400752,397712.596,397718,397729.262,400762.474,8,400,,,
trial,html.Screen,4_69_0,2023-09-08T20:49:07.622Z,,0,2,,3194.5260000000126,response,ISIC_5198780.JPG,5,ISIC_0031744.JPG,ISIC_5198780.JPG,false,1,keypress(m),500,403957,403957,400745.808,400753,400762.474,403962.346,8,400,20,,ISIC_0031744.JPG
break,html.Screen,4_69_1,2023-09-08T20:49:07.624Z,,0,,,NaN,,,,,,false,,,,403959,403958,,403957,,403962.346,8,400,,,
break_continue,html.Screen,4_69_2,2023-09-08T20:49:07.625Z,,0,,,NaN,,,,,,false,,,,403960,403959,,403959,,403962.346,8,400,,,
sequence,flow.Sequence,4_69,2023-09-08T20:49:07.625Z,,0,,,3196.5260000000126,completion,,,,,false,,,,403960,403959,400745.808,400753,400762.474,403962.346,8,400,,,
trial,html.Screen,4_70_0,2023-09-08T20:49:11.228Z,,0,2,,3600.6539999999804,response,ISIC_5323725.JPG,5,ISIC_0011798.JPG,ISIC_5323725.JPG,false,1,keypress(m),500,407563,407563,403945.68,403961,403962.346,407578.868,8,400,21,,ISIC_0011798.JPG
break,html.Screen,4_70_1,2023-09-08T20:49:11.231Z,,0,,,NaN,,,,,,false,,,,407566,407565,,407564,,407578.868,8,400,,,
break_continue,html.Screen,4_70_2,2023-09-08T20:49:11.232Z,,0,,,NaN,,,,,,false,,,,407567,407567,,407566,,407578.868,8,400,,,
sequence,flow.Sequence,4_70,2023-09-08T20:49:11.232Z,,0,,,3604.6539999999804,completion,,,,,false,,,,407567,407567,403945.68,403961,403962.346,407578.868,8,400,,,
trial,html.Screen,4_71_0,2023-09-08T20:49:14.806Z,,0,2,,3562.1319999999832,response,ISIC_8338755.JPG,4,ISIC_0010235.JPG,ISIC_8338755.JPG,false,1,keypress(m),500,411141,411141,407562.202,407568,407578.868,411145.392,8,400,22,,ISIC_0010235.JPG
break,html.Screen,4_71_1,2023-09-08T20:49:14.809Z,,0,,,NaN,,,,,,false,,,,411144,411144,,411142,,411145.392,8,400,,,
break_continue,html.Screen,4_71_2,2023-09-08T20:49:14.811Z,,0,,,NaN,,,,,,false,,,,411146,411145,,411145,,411145.392,8,400,,,
sequence,flow.Sequence,4_71,2023-09-08T20:49:14.811Z,,0,,,3566.1319999999832,completion,,,,,false,,,,411146,411145,407562.202,407568,407578.868,411145.392,8,400,,,
trial,html.Screen,4_72_0,2023-09-08T20:49:18.510Z,,0,2,,3699.6080000000075,response,ISIC_0062114.JPG,4,ISIC_0033692.JPG,ISIC_0033692.JPG,false,0,keypress(z),500,414845,414845,411128.726,411147,411145.392,414878.576,8,400,23,,ISIC_0062114.JPG
break,html.Screen,4_72_1,2023-09-08T20:49:18.513Z,,0,,,NaN,,,,,,false,,,,414848,414847,,414846,,414878.576,8,400,,,
break_continue,html.Screen,4_72_2,2023-09-08T20:49:18.514Z,,0,,,NaN,,,,,,false,,,,414849,414849,,414848,,414878.576,8,400,,,
sequence,flow.Sequence,4_72,2023-09-08T20:49:18.515Z,,0,,,3703.6080000000075,completion,,,,,false,,,,414850,414849,411128.726,411146,411145.392,414878.576,8,400,,,
trial,html.Screen,4_73_0,2023-09-08T20:49:21.541Z,,0,2,,2997.423999999999,response,ISIC_6532137.JPG,4,ISIC_0056740.JPG,ISIC_6532137.JPG,false,1,keypress(m),500,417876,417876,414845.244,414850,414878.576,417878.456,8,400,24,,ISIC_0056740.JPG
break,html.Screen,4_73_1,2023-09-08T20:49:21.544Z,,0,,,NaN,,,,,,false,,,,417879,417878,,417877,,417878.456,8,400,,,
break_continue,html.Screen,4_73_2,2023-09-08T20:49:21.545Z,,0,,,NaN,,,,,,false,,,,417880,417879,,417879,,417878.456,8,400,,,
sequence,flow.Sequence,4_73,2023-09-08T20:49:21.545Z,,0,,,3000.423999999999,completion,,,,,false,,,,417880,417879,414845.244,414850,414878.576,417878.456,8,400,,,
trial,html.Screen,4_74_0,2023-09-08T20:49:25.148Z,,0,2,,3604.5439999999944,response,ISIC_0024232.JPG,4,ISIC_6404049.JPG,ISIC_0024232.JPG,false,1,keypress(m),500,421483,421483,417861.79,417881,417878.456,421494.978,8,400,25,,ISIC_6404049.JPG
break,html.Screen,4_74_1,2023-09-08T20:49:25.152Z,,0,,,NaN,,,,,,false,,,,421487,421486,,421484,,421494.978,8,400,,,
break_continue,html.Screen,4_74_2,2023-09-08T20:49:25.153Z,,0,,,NaN,,,,,,false,,,,421488,421488,,421487,,421494.978,8,400,,,
sequence,flow.Sequence,4_74,2023-09-08T20:49:25.154Z,,0,,,3609.5439999999944,completion,,,,,false,,,,421489,421488,417861.79,417881,417878.456,421494.978,8,400,,,
trial,html.Screen,4_75_0,2023-09-08T20:49:28.388Z,,0,2,,3228.021999999997,response,ISIC_9407690.JPG,36,ISIC_9469284.JPG,ISIC_9407690.JPG,false,1,keypress(m),500,424723,424723,421478.312,421489,421494.978,424761.514,8,400,26,,ISIC_9469284.JPG
break,html.Screen,4_75_1,2023-09-08T20:49:28.390Z,,0,,,NaN,,,,,,false,,,,424725,424725,,424724,,424761.514,8,400,,,
break_continue,html.Screen,4_75_2,2023-09-08T20:49:28.391Z,,0,,,NaN,,,,,,false,,,,424726,424726,,424726,,424761.514,8,400,,,
sequence,flow.Sequence,4_75,2023-09-08T20:49:28.392Z,,0,,,3231.021999999997,completion,,,,,false,,,,424727,424726,421478.312,421489,421494.978,424761.514,8,400,,,
trial,html.Screen,4_76_0,2023-09-08T20:49:32.477Z,,0,2,,4050.4859999999753,response,ISIC_7114660.JPG,4,ISIC_0057593.JPG,ISIC_0057593.JPG,false,0,keypress(z),500,428812,428812,424728.182,424727,424761.514,428861.35,8,400,27,,ISIC_7114660.JPG
break,html.Screen,4_76_1,2023-09-08T20:49:32.480Z,,0,,,NaN,,,,,,false,,,,428815,428814,,428813,,428861.35,8,400,,,
break_continue,html.Screen,4_76_2,2023-09-08T20:49:32.481Z,,0,,,NaN,,,,,,false,,,,428816,428815,,428815,,428861.35,8,400,,,
sequence,flow.Sequence,4_76,2023-09-08T20:49:32.481Z,,0,,,4053.4859999999753,completion,,,,,false,,,,428816,428815,424728.182,424727,424761.514,428861.35,8,400,,,
trial,html.Screen,4_77_0,2023-09-08T20:49:36.517Z,,0,2,,3990.6500000000233,response,ISIC_0055143.JPG,5,ISIC_0026500.JPG,ISIC_0055143.JPG,false,1,keypress(m),500,432852,432852,428811.352,428817,428861.35,432861.19,8,400,28,,ISIC_0026500.JPG
break,html.Screen,4_77_1,2023-09-08T20:49:36.520Z,,0,,,NaN,,,,,,false,,,,432855,432854,,432853,,432861.19,8,400,,,
break_continue,html.Screen,4_77_2,2023-09-08T20:49:36.522Z,,0,,,NaN,,,,,,false,,,,432857,432856,,432856,,432861.19,8,400,,,
sequence,flow.Sequence,4_77,2023-09-08T20:49:36.522Z,,0,,,3994.6500000000233,completion,,,,,false,,,,432857,432856,428811.352,428816,428861.35,432861.19,8,400,,,
trial,html.Screen,4_78_0,2023-09-08T20:49:40.289Z,,0,2,,3762.8099999999977,response,ISIC_0001100.JPG,4,ISIC_0064798.JPG,ISIC_0064798.JPG,false,0,keypress(z),500,436624,436624,432844.524,432858,432861.19,436627.706,8,400,29,,ISIC_0001100.JPG
break,html.Screen,4_78_1,2023-09-08T20:49:40.290Z,,0,,,NaN,,,,,,false,,,,436625,436625,,436624,,436627.706,8,400,,,
break_continue,html.Screen,4_78_2,2023-09-08T20:49:40.290Z,,0,,,NaN,,,,,,false,,,,436625,436625,,436625,,436627.706,8,400,,,
sequence,flow.Sequence,4_78,2023-09-08T20:49:40.291Z,,0,,,3763.8099999999977,completion,,,,,false,,,,436626,436625,432844.524,432858,432861.19,436627.706,8,400,,,
trial,html.Screen,4_79_0,2023-09-08T20:49:43.667Z,,0,2,,3374.2939999999944,response,ISIC_1323048.JPG,5,ISIC_2565154.JPG,ISIC_2565154.JPG,false,0,keypress(z),500,440002,440002,436611.04,436626,436627.706,440010.904,8,400,30,,ISIC_1323048.JPG
break,html.Screen,4_79_1,2023-09-08T20:49:43.668Z,,0,,,NaN,,,,,,false,,,,440003,440003,,440002,,440010.904,8,400,,,
break_continue,html.Screen,4_79_2,2023-09-08T20:49:43.669Z,,0,,,NaN,,,,,,false,,,,440004,440004,,440004,,440010.904,8,400,,,
sequence,flow.Sequence,4_79,2023-09-08T20:49:43.669Z,,0,,,3376.2939999999944,completion,,,,,false,,,,440004,440004,436611.04,436626,436627.706,440010.904,8,400,,,
trial,html.Screen,4_80_0,2023-09-08T20:49:47.655Z,,0,2,,3979.0960000000196,response,ISIC_0056817.JPG,4,ISIC_0000473.JPG,ISIC_0000473.JPG,false,0,keypress(z),500,443990,443990,439994.238,440004,440010.904,443994.078,8,400,31,,ISIC_0056817.JPG
break,html.Screen,4_80_1,2023-09-08T20:49:47.658Z,,0,,,NaN,,,,,,false,,,,443993,443992,,443991,,443994.078,8,400,,,
break_continue,html.Screen,4_80_2,2023-09-08T20:49:47.659Z,,0,,,NaN,,,,,,false,,,,443994,443994,,443993,,443994.078,8,400,,,
sequence,flow.Sequence,4_80,2023-09-08T20:49:47.659Z,,0,,,3983.0960000000196,completion,,,,,false,,,,443994,443994,439994.238,440004,440010.904,443994.078,8,400,,,
trial,html.Screen,4_81_0,2023-09-08T20:49:50.737Z,,0,2,,3077.9220000000205,response,ISIC_4718313.JPG,4,ISIC_5922588.JPG,ISIC_4718313.JPG,false,1,keypress(m),500,447072,447072,443977.412,443995,443994.078,447077.288,8,400,32,,ISIC_5922588.JPG
break,html.Screen,4_81_1,2023-09-08T20:49:50.740Z,,0,,,NaN,,,,,,false,,,,447075,447074,,447073,,447077.288,8,400,,,
break_continue,html.Screen,4_81_2,2023-09-08T20:49:50.741Z,,0,,,NaN,,,,,,false,,,,447076,447075,,447075,,447077.288,8,400,,,
sequence,flow.Sequence,4_81,2023-09-08T20:49:50.741Z,,0,,,3080.9220000000205,completion,,,,,false,,,,447076,447075,443977.412,443995,443994.078,447077.288,8,400,,,
trial,html.Screen,4_82_0,2023-09-08T20:49:54.136Z,,0,2,,3393.7119999999995,response,ISIC_9169586.JPG,5,ISIC_0057656.JPG,ISIC_9169586.JPG,false,1,keypress(m),500,450471,450471,447060.622,447077,447077.288,450477.152,8,400,33,,ISIC_0057656.JPG
break,html.Screen,4_82_1,2023-09-08T20:49:54.139Z,,0,,,NaN,,,,,,false,,,,450474,450473,,450472,,450477.152,8,400,,,
break_continue,html.Screen,4_82_2,2023-09-08T20:49:54.140Z,,0,,,NaN,,,,,,false,,,,450475,450475,,450474,,450477.152,8,400,,,
sequence,flow.Sequence,4_82,2023-09-08T20:49:54.140Z,,0,,,3397.7119999999995,completion,,,,,false,,,,450475,450475,447060.622,447076,447077.288,450477.152,8,400,,,
trial,html.Screen,4_83_0,2023-09-08T20:49:57.237Z,,0,2,,3094.847999999998,response,ISIC_0004482.JPG,5,ISIC_3787339.JPG,ISIC_0004482.JPG,false,1,keypress(m),500,453572,453572,450460.486,450476,450477.152,453577.028,8,400,34,,ISIC_3787339.JPG
break,html.Screen,4_83_1,2023-09-08T20:49:57.240Z,,0,,,NaN,,,,,,false,,,,453575,453574,,453573,,453577.028,8,400,,,
break_continue,html.Screen,4_83_2,2023-09-08T20:49:57.241Z,,0,,,NaN,,,,,,false,,,,453576,453575,,453575,,453577.028,8,400,,,
sequence,flow.Sequence,4_83,2023-09-08T20:49:57.241Z,,0,,,3097.847999999998,completion,,,,,false,,,,453576,453575,450460.486,450476,450477.152,453577.028,8,400,,,
trial,html.Screen,4_84_0,2023-09-08T20:50:00.493Z,,0,2,,3250.972000000009,response,ISIC_0030006.JPG,5,ISIC_0944273.JPG,ISIC_0944273.JPG,false,0,keypress(z),500,456828,456828,453560.362,453576,453577.028,456843.564,8,400,35,,ISIC_0030006.JPG
break,html.Screen,4_84_1,2023-09-08T20:50:00.494Z,,0,,,NaN,,,,,,false,,,,456829,456829,,456828,,456843.564,8,400,,,
break_continue,html.Screen,4_84_2,2023-09-08T20:50:00.495Z,,0,,,NaN,,,,,,false,,,,456830,456829,,456829,,456843.564,8,400,,,
sequence,flow.Sequence,4_84,2023-09-08T20:50:00.495Z,,0,,,3251.972000000009,completion,,,,,false,,,,456830,456829,453560.362,453576,453577.028,456843.564,8,400,,,
trial,html.Screen,4_85_0,2023-09-08T20:50:04.224Z,,0,2,,3715.435999999987,response,ISIC_5614446.JPG,4,ISIC_0024697.JPG,ISIC_0024697.JPG,false,0,keypress(z),500,460559,460559,456826.898,456830,456843.564,460593.414,8,400,36,,ISIC_5614446.JPG
break,html.Screen,4_85_1,2023-09-08T20:50:04.227Z,,0,,,NaN,,,,,,false,,,,460562,460561,,460560,,460593.414,8,400,,,
break_continue,html.Screen,4_85_2,2023-09-08T20:50:04.228Z,,0,,,NaN,,,,,,false,,,,460563,460563,,460562,,460593.414,8,400,,,
sequence,flow.Sequence,4_85,2023-09-08T20:50:04.229Z,,0,,,3719.435999999987,completion,,,,,false,,,,460564,460563,456826.898,456830,456843.564,460593.414,8,400,,,
trial,html.Screen,4_86_0,2023-09-08T20:50:07.239Z,,0,2,,2980.5860000000102,response,ISIC_0027304.JPG,4,ISIC_0009992.JPG,ISIC_0027304.JPG,false,1,keypress(m),500,463574,463574,460560.082,460564,460593.414,463593.294,8,400,37,,ISIC_0009992.JPG
break,html.Screen,4_86_1,2023-09-08T20:50:07.240Z,,0,,,NaN,,,,,,false,,,,463575,463575,,463574,,463593.294,8,400,,,
break_continue,html.Screen,4_86_2,2023-09-08T20:50:07.240Z,,0,,,NaN,,,,,,false,,,,463575,463575,,463575,,463593.294,8,400,,,
sequence,flow.Sequence,4_86,2023-09-08T20:50:07.241Z,,0,,,2981.5860000000102,completion,,,,,false,,,,463576,463575,460560.082,460564,460593.414,463593.294,8,400,,,
trial,html.Screen,4_87_0,2023-09-08T20:50:10.718Z,,0,2,,3459.7060000000056,response,ISIC_7927525.JPG,5,ISIC_4882389.JPG,ISIC_4882389.JPG,false,0,keypress(z),500,467053,467053,463576.628,463576,463593.294,467059.822,8,400,38,,ISIC_7927525.JPG
break,html.Screen,4_87_1,2023-09-08T20:50:10.721Z,,0,,,NaN,,,,,,false,,,,467056,467055,,467054,,467059.822,8,400,,,
break_continue,html.Screen,4_87_2,2023-09-08T20:50:10.722Z,,0,,,NaN,,,,,,false,,,,467057,467057,,467056,,467059.822,8,400,,,
sequence,flow.Sequence,4_87,2023-09-08T20:50:10.722Z,,0,,,3463.7060000000056,completion,,,,,false,,,,467057,467057,463576.628,463576,463593.294,467059.822,8,400,,,
trial,html.Screen,4_88_0,2023-09-08T20:50:14.101Z,,0,2,,3376.1780000000144,response,ISIC_0058206.JPG,4,ISIC_0032549.JPG,ISIC_0032549.JPG,false,0,keypress(z),500,470436,470436,467043.156,467058,467059.822,470459.686,8,400,39,,ISIC_0058206.JPG
break,html.Screen,4_88_1,2023-09-08T20:50:14.103Z,,0,,,NaN,,,,,,false,,,,470438,470438,,470437,,470459.686,8,400,,,
break_continue,html.Screen,4_88_2,2023-09-08T20:50:14.105Z,,0,,,NaN,,,,,,false,,,,470440,470439,,470439,,470459.686,8,400,,,
sequence,flow.Sequence,4_88,2023-09-08T20:50:14.105Z,,0,,,3379.1780000000144,completion,,,,,false,,,,470440,470439,467043.156,467058,467059.822,470459.686,8,400,,,
trial,html.Screen,4_89_0,2023-09-08T20:50:17.517Z,,0,2,,3392.314000000013,response,ISIC_0055251.JPG,5,ISIC_0028945.JPG,ISIC_0028945.JPG,false,0,keypress(z),500,473852,473852,470443.02,470440,470459.686,473859.55,8,400,40,,ISIC_0055251.JPG
break,html.Screen,4_89_1,2023-09-08T20:50:17.520Z,,0,,,NaN,,,,,,false,,,,473855,473854,,473853,,473859.55,8,400,,,
break_continue,html.Screen,4_89_2,2023-09-08T20:50:17.521Z,,0,,,NaN,,,,,,false,,,,473856,473856,,473855,,473859.55,8,400,,,
sequence,flow.Sequence,4_89,2023-09-08T20:50:17.522Z,,0,,,3396.314000000013,completion,,,,,false,,,,473857,473856,470443.02,470440,470459.686,473859.55,8,400,,,
trial,html.Screen,4_90_0,2023-09-08T20:50:20.566Z,,0,2,,3041.4500000000116,response,ISIC_1434141.JPG,5,ISIC_0059341.JPG,ISIC_0059341.JPG,false,0,keypress(z),500,476902,476901,473842.884,473857,473859.55,476942.76,8,400,41,,ISIC_1434141.JPG
break,html.Screen,4_90_1,2023-09-08T20:50:20.568Z,,0,,,NaN,,,,,,false,,,,476904,476903,,476902,,476942.76,8,400,,,
break_continue,html.Screen,4_90_2,2023-09-08T20:50:20.569Z,,0,,,NaN,,,,,,false,,,,476905,476904,,476904,,476942.76,8,400,,,
sequence,flow.Sequence,4_90,2023-09-08T20:50:20.569Z,,0,,,3044.4500000000116,completion,,,,,false,,,,476905,476904,473842.884,473857,473859.55,476942.76,8,400,,,
trial,html.Screen,4_91_0,2023-09-08T20:50:24.030Z,,0,2,,3423.2399999999907,response,ISIC_0067458.JPG,5,ISIC_7677876.JPG,ISIC_0067458.JPG,false,1,keypress(m),500,480366,480366,476909.428,476906,476942.76,480409.288,8,400,42,,ISIC_7677876.JPG
break,html.Screen,4_91_1,2023-09-08T20:50:24.031Z,,0,,,NaN,,,,,,false,,,,480367,480367,,480366,,480409.288,8,400,,,
break_continue,html.Screen,4_91_2,2023-09-08T20:50:24.032Z,,0,,,NaN,,,,,,false,,,,480368,480367,,480367,,480409.288,8,400,,,
sequence,flow.Sequence,4_91,2023-09-08T20:50:24.032Z,,0,,,3424.2399999999907,completion,,,,,false,,,,480368,480367,476909.428,476905,476942.76,480409.288,8,400,,,
trial,html.Screen,4_92_0,2023-09-08T20:50:27.122Z,,0,2,,3048.7119999999995,response,ISIC_0057484.JPG,4,ISIC_0011295.JPG,ISIC_0057484.JPG,false,1,keypress(m),500,483458,483458,480375.956,480368,480409.288,483475.832,8,400,43,,ISIC_0011295.JPG
break,html.Screen,4_92_1,2023-09-08T20:50:27.125Z,,0,,,NaN,,,,,,false,,,,483461,483460,,483459,,483475.832,8,400,,,
break_continue,html.Screen,4_92_2,2023-09-08T20:50:27.126Z,,0,,,NaN,,,,,,false,,,,483462,483462,,483461,,483475.832,8,400,,,
sequence,flow.Sequence,4_92,2023-09-08T20:50:27.127Z,,0,,,3052.7119999999995,completion,,,,,false,,,,483463,483462,480375.956,480368,480409.288,483475.832,8,400,,,
trial,html.Screen,4_93_0,2023-09-08T20:50:31.020Z,,0,2,,3880.168000000005,response,ISIC_5964173.JPG,5,ISIC_7025487.JPG,ISIC_5964173.JPG,false,1,keypress(m),500,487356,487356,483459.166,483463,483475.832,487359.01,8,400,44,,ISIC_7025487.JPG
break,html.Screen,4_93_1,2023-09-08T20:50:31.023Z,,0,,,NaN,,,,,,false,,,,487359,487358,,487357,,487359.01,8,400,,,
break_continue,html.Screen,4_93_2,2023-09-08T20:50:31.024Z,,0,,,NaN,,,,,,false,,,,487360,487360,,487359,,487359.01,8,400,,,
sequence,flow.Sequence,4_93,2023-09-08T20:50:31.025Z,,0,,,3884.168000000005,completion,,,,,false,,,,487361,487360,483459.166,483463,483475.832,487359.01,8,400,,,
trial,html.Screen,4_94_0,2023-09-08T20:50:34.211Z,,0,2,,3187.9899999999907,response,ISIC_6398283.JPG,4,ISIC_0003664.JPG,ISIC_0003664.JPG,false,0,keypress(z),500,490547,490547,487342.344,487361,487359.01,490558.882,8,400,45,,ISIC_6398283.JPG
break,html.Screen,4_94_1,2023-09-08T20:50:34.214Z,,0,,,NaN,,,,,,false,,,,490550,490549,,490548,,490558.882,8,400,,,
break_continue,html.Screen,4_94_2,2023-09-08T20:50:34.215Z,,0,,,NaN,,,,,,false,,,,490551,490551,,490550,,490558.882,8,400,,,
sequence,flow.Sequence,4_94,2023-09-08T20:50:34.216Z,,0,,,3191.9899999999907,completion,,,,,false,,,,490552,490551,487342.344,487361,487359.01,490558.882,8,400,,,
trial,html.Screen,4_95_0,2023-09-08T20:50:37.789Z,,0,2,,3566.1180000000168,response,ISIC_9989617.JPG,4,ISIC_0028967.JPG,ISIC_9989617.JPG,false,1,keypress(m),500,494125,494125,490542.216,490552,490558.882,494158.738,8,400,46,,ISIC_0028967.JPG
break,html.Screen,4_95_1,2023-09-08T20:50:37.792Z,,0,,,NaN,,,,,,false,,,,494128,494127,,494126,,494158.738,8,400,,,
break_continue,html.Screen,4_95_2,2023-09-08T20:50:37.793Z,,0,,,NaN,,,,,,false,,,,494129,494128,,494128,,494158.738,8,400,,,
sequence,flow.Sequence,4_95,2023-09-08T20:50:37.793Z,,0,,,3569.1180000000168,completion,,,,,false,,,,494129,494128,490542.216,490552,490558.882,494158.738,8,400,,,
trial,html.Screen,4_96_0,2023-09-08T20:50:40.805Z,,0,2,,2982.261999999988,response,ISIC_0054444.JPG,5,ISIC_1210011.JPG,ISIC_0054444.JPG,false,1,keypress(m),500,497141,497141,494125.406,494130,494158.738,497158.618,8,400,47,,ISIC_1210011.JPG
break,html.Screen,4_96_1,2023-09-08T20:50:40.808Z,,0,,,NaN,,,,,,false,,,,497144,497144,,497142,,497158.618,8,400,,,
break_continue,html.Screen,4_96_2,2023-09-08T20:50:40.810Z,,0,,,NaN,,,,,,false,,,,497146,497145,,497145,,497158.618,8,400,,,
sequence,flow.Sequence,4_96,2023-09-08T20:50:40.810Z,,0,,,2986.261999999988,completion,,,,,false,,,,497146,497145,494125.406,494130,494158.738,497158.618,8,400,,,
trial,html.Screen,4_97_0,2023-09-08T20:50:45.037Z,,0,2,,4214.381999999983,response,ISIC_0031553.JPG,4,ISIC_4069836.JPG,ISIC_4069836.JPG,false,0,keypress(z),500,501373,501373,497141.952,497147,497158.618,501375.116,8,400,48,,ISIC_0031553.JPG
break,html.Screen,4_97_1,2023-09-08T20:50:45.040Z,,0,,,NaN,,,,,,false,,,,501376,501375,,501374,,501375.116,8,400,,,
break_continue,html.Screen,4_97_2,2023-09-08T20:50:45.041Z,,0,,,NaN,,,,,,false,,,,501377,501377,,501376,,501375.116,8,400,,,
sequence,flow.Sequence,4_97,2023-09-08T20:50:45.041Z,,0,,,4218.381999999983,completion,,,,,false,,,,501377,501377,497141.952,497147,497158.618,501375.116,8,400,,,
trial,html.Screen,4_98_0,2023-09-08T20:50:48.261Z,,0,2,,3221.88400000002,response,ISIC_0028723.JPG,5,ISIC_0046345.JPG,ISIC_0028723.JPG,false,1,keypress(m),500,504597,504597,501358.45,501378,501375.116,504608.32,8,400,49,,ISIC_0046345.JPG
break,html.Screen,4_98_1,2023-09-08T20:50:48.264Z,,0,,,NaN,,,,,,false,,,,504600,504599,,504598,,504608.32,8,400,,,
break_continue,html.Screen,4_98_2,2023-09-08T20:50:48.265Z,,0,,,NaN,,,,,,false,,,,504601,504601,,504600,,504608.32,8,400,,,
sequence,flow.Sequence,4_98,2023-09-08T20:50:48.265Z,,0,,,3225.88400000002,completion,,,,,false,,,,504601,504601,501358.45,501378,501375.116,504608.32,8,400,,,
trial,html.Screen,4_99_0,2023-09-08T20:50:52.668Z,,0,2,,4395.679999999993,response,ISIC_0029863.JPG,5,ISIC_6345354.JPG,ISIC_0029863.JPG,false,1,keypress(m),500,509004,509004,504591.654,504602,504608.32,509008.144,8,400,50,,ISIC_6345354.JPG
break,html.Screen,4_99_1,2023-09-08T20:51:02.657Z,,0,,,9999.600000000035,timeout,,,,,false,,,,518993,518991.078,508991.478,509004,509008.144,519007.744,8,400,,,
break_continue,html.Screen,4_99_2,2023-09-08T20:51:04.075Z,,0,,,1356.255999999994,response,,,,,false,continue,keypress(Space),,520411,520364,518991.078,518993,519007.744,520424.354,8,400,,,
sequence,flow.Sequence,4_99,2023-09-08T20:51:04.075Z,,0,,,15755.679999999993,completion,,,,,false,,,,520411,520364,504591.654,504602,504608.32,520424.354,8,400,,,
trial,html.Screen,4_100_0,2023-09-08T20:51:07.134Z,,0,3,,3044.646000000008,response,ISIC_0011483.JPG,4,ISIC_0027402.JPG,ISIC_0027402.JPG,false,0,keypress(z),500,523470,523469,520407.688,520411,520424.354,523474.232,8,400,1,,ISIC_0011483.JPG
break,html.Screen,4_100_1,2023-09-08T20:51:07.137Z,,0,,,NaN,,,,,,false,,,,523473,523472,,523470,,523474.232,8,400,,,
break_continue,html.Screen,4_100_2,2023-09-08T20:51:07.138Z,,0,,,NaN,,,,,,false,,,,523474,523473,,523473,,523474.232,8,400,,,
sequence,flow.Sequence,4_100,2023-09-08T20:51:07.138Z,,0,,,3048.646000000008,completion,,,,,false,,,,523474,523473,520407.688,520411,520424.354,523474.232,8,400,,,
trial,html.Screen,4_101_0,2023-09-08T20:51:10.029Z,,0,3,,2890.767999999982,response,ISIC_4241907.JPG,5,ISIC_3049506.JPG,ISIC_4241907.JPG,false,1,keypress(m),500,526365,526365,523457.566,523476,523474.232,526374.116,8,400,2,,ISIC_3049506.JPG
break,html.Screen,4_101_1,2023-09-08T20:51:10.032Z,,0,,,NaN,,,,,,false,,,,526368,526367,,526366,,526374.116,8,400,,,
break_continue,html.Screen,4_101_2,2023-09-08T20:51:10.033Z,,0,,,NaN,,,,,,false,,,,526369,526368,,526368,,526374.116,8,400,,,
sequence,flow.Sequence,4_101,2023-09-08T20:51:10.033Z,,0,,,2893.767999999982,completion,,,,,false,,,,526369,526368,523457.566,523475,523474.232,526374.116,8,400,,,
trial,html.Screen,4_102_0,2023-09-08T20:51:12.788Z,,0,3,,2749.883999999962,response,ISIC_0011289.JPG,5,ISIC_2851852.JPG,ISIC_2851852.JPG,false,0,keypress(z),500,529124,529124,526357.45,526370,526374.116,529157.338,8,400,3,,ISIC_0011289.JPG
break,html.Screen,4_102_1,2023-09-08T20:51:12.791Z,,0,,,NaN,,,,,,false,,,,529127,529126,,529125,,529157.338,8,400,,,
break_continue,html.Screen,4_102_2,2023-09-08T20:51:12.792Z,,0,,,NaN,,,,,,false,,,,529128,529128,,529127,,529157.338,8,400,,,
sequence,flow.Sequence,4_102,2023-09-08T20:51:12.792Z,,0,,,2753.883999999962,completion,,,,,false,,,,529128,529128,526357.45,526370,526374.116,529157.338,8,400,,,
trial,html.Screen,4_103_0,2023-09-08T20:51:15.819Z,,0,3,,2997.662000000011,response,ISIC_4494516.JPG,4,ISIC_9278685.JPG,ISIC_9278685.JPG,false,0,keypress(z),500,532155,532155,529124.006,529129,529157.338,532157.218,8,400,4,,ISIC_4494516.JPG
break,html.Screen,4_103_1,2023-09-08T20:51:15.822Z,,0,,,NaN,,,,,,false,,,,532158,532157,,532156,,532157.218,8,400,,,
break_continue,html.Screen,4_103_2,2023-09-08T20:51:15.823Z,,0,,,NaN,,,,,,false,,,,532159,532159,,532158,,532157.218,8,400,,,
sequence,flow.Sequence,4_103,2023-09-08T20:51:15.824Z,,0,,,3001.662000000011,completion,,,,,false,,,,532160,532159,529124.006,529129,529157.338,532157.218,8,400,,,
trial,html.Screen,4_104_0,2023-09-08T20:51:18.644Z,,0,3,,2822.7820000000065,response,ISIC_0071740.JPG,5,ISIC_0032331.JPG,ISIC_0032331.JPG,false,0,keypress(z),500,534980,534980,532140.552,532161,532157.218,534990.438,8,400,5,,ISIC_0071740.JPG
break,html.Screen,4_104_1,2023-09-08T20:51:18.647Z,,0,,,NaN,,,,,,false,,,,534983,534982,,534981,,534990.438,8,400,,,
break_continue,html.Screen,4_104_2,2023-09-08T20:51:18.648Z,,0,,,NaN,,,,,,false,,,,534984,534983,,534983,,534990.438,8,400,,,
sequence,flow.Sequence,4_104,2023-09-08T20:51:18.648Z,,0,,,2825.7820000000065,completion,,,,,false,,,,534984,534983,532140.552,532160,532157.218,534990.438,8,400,,,
trial,html.Screen,4_105_0,2023-09-08T20:51:21.902Z,,0,3,,3246.5620000000345,response,ISIC_0006730.JPG,4,ISIC_2937407.JPG,ISIC_0006730.JPG,false,1,keypress(m),500,538237,538237,534973.772,534985,534990.438,538240.308,8,400,6,,ISIC_2937407.JPG
break,html.Screen,4_105_1,2023-09-08T20:51:21.905Z,,0,,,NaN,,,,,,false,,,,538240,538239,,538238,,538240.308,8,400,,,
break_continue,html.Screen,4_105_2,2023-09-08T20:51:21.906Z,,0,,,NaN,,,,,,false,,,,538241,538240,,538240,,538240.308,8,400,,,
sequence,flow.Sequence,4_105,2023-09-08T20:51:21.907Z,,0,,,3249.5620000000345,completion,,,,,false,,,,538242,538240,534973.772,534985,534990.438,538240.308,8,400,,,
trial,html.Screen,4_106_0,2023-09-08T20:51:25.239Z,,0,3,,3333.692000000039,response,ISIC_8727731.JPG,4,ISIC_2937642.JPG,ISIC_8727731.JPG,false,1,keypress(m),500,541574,541574,538223.642,538242,538240.308,541606.84,8,400,7,,ISIC_2937642.JPG
break,html.Screen,4_106_1,2023-09-08T20:51:25.242Z,,0,,,NaN,,,,,,false,,,,541577,541576,,541575,,541606.84,8,400,,,
break_continue,html.Screen,4_106_2,2023-09-08T20:51:25.243Z,,0,,,NaN,,,,,,false,,,,541578,541577,,541577,,541606.84,8,400,,,
sequence,flow.Sequence,4_106,2023-09-08T20:51:25.243Z,,0,,,3336.692000000039,completion,,,,,false,,,,541578,541577,538223.642,538242,538240.308,541606.84,8,400,,,
trial,html.Screen,4_107_0,2023-09-08T20:51:28.190Z,,0,3,,2918.1600000000326,response,ISIC_3552245.JPG,5,ISIC_1899683.JPG,ISIC_1899683.JPG,false,0,keypress(z),500,544525,544525,541573.508,541579,541606.84,544540.056,8,400,8,,ISIC_3552245.JPG
break,html.Screen,4_107_1,2023-09-08T20:51:28.193Z,,0,,,NaN,,,,,,false,,,,544528,544527,,544526,,544540.056,8,400,,,
break_continue,html.Screen,4_107_2,2023-09-08T20:51:28.194Z,,0,,,NaN,,,,,,false,,,,544529,544528,,544528,,544540.056,8,400,,,
sequence,flow.Sequence,4_107,2023-09-08T20:51:28.195Z,,0,,,2921.1600000000326,completion,,,,,false,,,,544530,544528,541573.508,541578,541606.84,544540.056,8,400,,,
trial,html.Screen,4_108_0,2023-09-08T20:51:32.574Z,,0,3,,4368.944000000018,response,ISIC_0031621.JPG,4,ISIC_9126343.JPG,ISIC_9126343.JPG,false,0,keypress(z),500,548909,548909,544523.39,544530,544540.056,548923.214,8,400,9,,ISIC_0031621.JPG
break,html.Screen,4_108_1,2023-09-08T20:51:32.577Z,,0,,,NaN,,,,,,false,,,,548912,548911,,548910,,548923.214,8,400,,,
break_continue,html.Screen,4_108_2,2023-09-08T20:51:32.578Z,,0,,,NaN,,,,,,false,,,,548913,548912,,548912,,548923.214,8,400,,,
sequence,flow.Sequence,4_108,2023-09-08T20:51:32.578Z,,0,,,4371.944000000018,completion,,,,,false,,,,548913,548912,544523.39,544530,544540.056,548923.214,8,400,,,
trial,html.Screen,4_109_0,2023-09-08T20:51:35.590Z,,0,3,,3001.7859999999637,response,ISIC_0022661.JPG,5,ISIC_2583592.JPG,ISIC_2583592.JPG,false,0,keypress(z),500,551925,551925,548906.548,548913,548923.214,551939.76,8,400,10,,ISIC_0022661.JPG
break,html.Screen,4_109_1,2023-09-08T20:51:35.593Z,,0,,,NaN,,,,,,false,,,,551928,551927,,551926,,551939.76,8,400,,,
break_continue,html.Screen,4_109_2,2023-09-08T20:51:35.594Z,,0,,,NaN,,,,,,false,,,,551929,551929,,551928,,551939.76,8,400,,,
sequence,flow.Sequence,4_109,2023-09-08T20:51:35.595Z,,0,,,3005.7859999999637,completion,,,,,false,,,,551930,551929,548906.548,548913,548923.214,551939.76,8,400,,,
trial,html.Screen,4_110_0,2023-09-08T20:51:38.742Z,,0,3,,3137.2399999999907,response,ISIC_3686329.JPG,5,ISIC_0011509.JPG,ISIC_3686329.JPG,false,1,keypress(m),500,555077,555077,551923.094,551930,551939.76,555089.634,8,400,11,,ISIC_0011509.JPG
break,html.Screen,4_110_1,2023-09-08T20:51:38.745Z,,0,,,NaN,,,,,,false,,,,555080,555079,,555078,,555089.634,8,400,,,
break_continue,html.Screen,4_110_2,2023-09-08T20:51:38.746Z,,0,,,NaN,,,,,,false,,,,555081,555080,,555080,,555089.634,8,400,,,
sequence,flow.Sequence,4_110,2023-09-08T20:51:38.746Z,,0,,,3140.2399999999907,completion,,,,,false,,,,555081,555080,551923.094,551930,551939.76,555089.634,8,400,,,
trial,html.Screen,4_111_0,2023-09-08T20:51:43.294Z,,0,3,,4539.366000000038,response,ISIC_1216139.JPG,4,ISIC_1017377.JPG,ISIC_1017377.JPG,false,0,keypress(z),500,559629,559629,555072.968,555082,555089.634,559639.452,8,400,12,,ISIC_1216139.JPG
break,html.Screen,4_111_1,2023-09-08T20:51:43.297Z,,0,,,NaN,,,,,,false,,,,559632,559631,,559630,,559639.452,8,400,,,
break_continue,html.Screen,4_111_2,2023-09-08T20:51:43.298Z,,0,,,NaN,,,,,,false,,,,559633,559633,,559632,,559639.452,8,400,,,
sequence,flow.Sequence,4_111,2023-09-08T20:51:43.298Z,,0,,,4543.366000000038,completion,,,,,false,,,,559633,559633,555072.968,555081,555089.634,559639.452,8,400,,,
trial,html.Screen,4_112_0,2023-09-08T20:51:46.806Z,,0,3,,3501.5479999999516,response,ISIC_9181399.JPG,5,ISIC_0010046.JPG,ISIC_9181399.JPG,false,1,keypress(m),500,563141,563141,559622.786,559634,559639.452,563155.978,8,400,13,,ISIC_0010046.JPG
break,html.Screen,4_112_1,2023-09-08T20:51:46.809Z,,0,,,NaN,,,,,,false,,,,563144,563143,,563142,,563155.978,8,400,,,
break_continue,html.Screen,4_112_2,2023-09-08T20:51:46.810Z,,0,,,NaN,,,,,,false,,,,563145,563144,,563144,,563155.978,8,400,,,
sequence,flow.Sequence,4_112,2023-09-08T20:51:46.810Z,,0,,,3504.5479999999516,completion,,,,,false,,,,563145,563144,559622.786,559634,559639.452,563155.978,8,400,,,
trial,html.Screen,4_113_0,2023-09-08T20:51:50.221Z,,0,3,,3400.021999999997,response,ISIC_0064124.JPG,5,ISIC_0026392.JPG,ISIC_0064124.JPG,false,1,keypress(m),500,566556,566556,563139.312,563146,563155.978,566572.508,8,400,14,,ISIC_0026392.JPG
break,html.Screen,4_113_1,2023-09-08T20:51:50.222Z,,0,,,NaN,,,,,,false,,,,566557,566557,,566556,,566572.508,8,400,,,
break_continue,html.Screen,4_113_2,2023-09-08T20:51:50.223Z,,0,,,NaN,,,,,,false,,,,566558,566558,,566558,,566572.508,8,400,,,
sequence,flow.Sequence,4_113,2023-09-08T20:51:50.223Z,,0,,,3402.021999999997,completion,,,,,false,,,,566558,566558,563139.312,563145,563155.978,566572.508,8,400,,,
trial,html.Screen,4_114_0,2023-09-08T20:51:53.847Z,,0,3,,3609.4919999999693,response,ISIC_9450906.JPG,4,ISIC_0068126.JPG,ISIC_9450906.JPG,false,1,keypress(m),500,570182,570182,566555.842,566559,566572.508,570189.03,8,400,15,,ISIC_0068126.JPG
break,html.Screen,4_114_1,2023-09-08T20:51:53.850Z,,0,,,NaN,,,,,,false,,,,570185,570184,,570183,,570189.03,8,400,,,
break_continue,html.Screen,4_114_2,2023-09-08T20:51:53.851Z,,0,,,NaN,,,,,,false,,,,570186,570185,,570185,,570189.03,8,400,,,
sequence,flow.Sequence,4_114,2023-09-08T20:51:53.851Z,,0,,,3612.4919999999693,completion,,,,,false,,,,570186,570185,566555.842,566559,566572.508,570189.03,8,400,,,
trial,html.Screen,4_115_0,2023-09-08T20:51:57.312Z,,0,3,,3457.969999999972,response,ISIC_6717322.JPG,6,ISIC_0010705.JPG,ISIC_6717322.JPG,false,1,keypress(m),500,573647,573647,570172.364,570186,570189.03,573655.558,8,400,16,,ISIC_0010705.JPG
break,html.Screen,4_115_1,2023-09-08T20:51:57.315Z,,0,,,NaN,,,,,,false,,,,573650,573649,,573648,,573655.558,8,400,,,
break_continue,html.Screen,4_115_2,2023-09-08T20:51:57.316Z,,0,,,NaN,,,,,,false,,,,573651,573651,,573650,,573655.558,8,400,,,
sequence,flow.Sequence,4_115,2023-09-08T20:51:57.317Z,,0,,,3461.969999999972,completion,,,,,false,,,,573652,573651,570172.364,570186,570189.03,573655.558,8,400,,,
trial,html.Screen,4_116_0,2023-09-08T20:52:01.518Z,,0,3,,4197.442000000039,response,ISIC_0579047.JPG,5,ISIC_7129085.JPG,ISIC_0579047.JPG,false,1,keypress(m),500,577853,577853,573638.892,573652,573655.558,577855.39,8,400,17,,ISIC_7129085.JPG
break,html.Screen,4_116_1,2023-09-08T20:52:01.521Z,,0,,,NaN,,,,,,false,,,,577856,577855,,577854,,577855.39,8,400,,,
break_continue,html.Screen,4_116_2,2023-09-08T20:52:01.522Z,,0,,,NaN,,,,,,false,,,,577857,577857,,577856,,577855.39,8,400,,,
sequence,flow.Sequence,4_116,2023-09-08T20:52:01.523Z,,0,,,4201.442000000039,completion,,,,,false,,,,577858,577857,573638.892,573652,573655.558,577855.39,8,400,,,
trial,html.Screen,4_117_0,2023-09-08T20:52:05.462Z,,0,3,,3941.609999999986,response,ISIC_9680433.JPG,4,ISIC_0059987.JPG,ISIC_9680433.JPG,false,1,keypress(m),500,581797,581797,577838.724,577858,577855.39,581805.232,8,400,18,,ISIC_0059987.JPG
break,html.Screen,4_117_1,2023-09-08T20:52:05.465Z,,0,,,NaN,,,,,,false,,,,581800,581799,,581798,,581805.232,8,400,,,
break_continue,html.Screen,4_117_2,2023-09-08T20:52:05.466Z,,0,,,NaN,,,,,,false,,,,581801,581800,,581800,,581805.232,8,400,,,
sequence,flow.Sequence,4_117,2023-09-08T20:52:05.466Z,,0,,,3944.609999999986,completion,,,,,false,,,,581801,581800,577838.724,577858,577855.39,581805.232,8,400,,,
trial,html.Screen,4_118_0,2023-09-08T20:52:08.895Z,,0,3,,3424.76800000004,response,ISIC_0000444.JPG,5,ISIC_0071208.JPG,ISIC_0000444.JPG,false,1,keypress(m),500,585230,585230,581788.566,581802,581805.232,585238.428,8,400,19,,ISIC_0071208.JPG
break,html.Screen,4_118_1,2023-09-08T20:52:08.898Z,,0,,,NaN,,,,,,false,,,,585233,585232,,585231,,585238.428,8,400,,,
break_continue,html.Screen,4_118_2,2023-09-08T20:52:08.899Z,,0,,,NaN,,,,,,false,,,,585234,585234,,585233,,585238.428,8,400,,,
sequence,flow.Sequence,4_118,2023-09-08T20:52:08.899Z,,0,,,3428.76800000004,completion,,,,,false,,,,585234,585234,581788.566,581802,581805.232,585238.428,8,400,,,
trial,html.Screen,4_119_0,2023-09-08T20:52:12.790Z,,0,3,,3886.5720000000438,response,ISIC_4248013.JPG,5,ISIC_4397068.JPG,ISIC_4248013.JPG,false,1,keypress(m),500,589125,589125,585221.762,585235,585238.428,589138.272,8,400,20,,ISIC_4397068.JPG
break,html.Screen,4_119_1,2023-09-08T20:52:12.793Z,,0,,,NaN,,,,,,false,,,,589128,589127,,589126,,589138.272,8,400,,,
break_continue,html.Screen,4_119_2,2023-09-08T20:52:12.794Z,,0,,,NaN,,,,,,false,,,,589129,589129,,589128,,589138.272,8,400,,,
sequence,flow.Sequence,4_119,2023-09-08T20:52:12.795Z,,0,,,3890.5720000000438,completion,,,,,false,,,,589129,589129,585221.762,585235,585238.428,589138.272,8,400,,,
trial,html.Screen,4_120_0,2023-09-08T20:52:16.062Z,,0,3,,3257.728000000003,response,ISIC_0064060.JPG,4,ISIC_0033946.JPG,ISIC_0064060.JPG,false,1,keypress(m),500,592397,592396,589121.606,589130,589138.272,592404.808,8,400,21,,ISIC_0033946.JPG
break,html.Screen,4_120_1,2023-09-08T20:52:16.065Z,,0,,,NaN,,,,,,false,,,,592400,592399,,592397,,592404.808,8,400,,,
break_continue,html.Screen,4_120_2,2023-09-08T20:52:16.066Z,,0,,,NaN,,,,,,false,,,,592401,592400,,592400,,592404.808,8,400,,,
sequence,flow.Sequence,4_120,2023-09-08T20:52:16.066Z,,0,,,3261.728000000003,completion,,,,,false,,,,592401,592400,589121.606,589130,589138.272,592404.808,8,400,,,
trial,html.Screen,4_121_0,2023-09-08T20:52:20.422Z,,0,3,,4352.192000000039,response,ISIC_0064557.JPG,5,ISIC_5059476.JPG,ISIC_0064557.JPG,false,1,keypress(m),500,596757,596757,592388.142,592402,592404.808,596771.3,8,400,22,,ISIC_5059476.JPG
break,html.Screen,4_121_1,2023-09-08T20:52:20.425Z,,0,,,NaN,,,,,,false,,,,596760,596759,,596758,,596771.3,8,400,,,
break_continue,html.Screen,4_121_2,2023-09-08T20:52:20.426Z,,0,,,NaN,,,,,,false,,,,596761,596761,,596760,,596771.3,8,400,,,
sequence,flow.Sequence,4_121,2023-09-08T20:52:20.426Z,,0,,,4356.192000000039,completion,,,,,false,,,,596761,596761,592388.142,592401,592404.808,596771.3,8,400,,,
trial,html.Screen,4_122_0,2023-09-08T20:52:24.798Z,,0,3,,4361.699999999953,response,ISIC_3181358.JPG,5,ISIC_0065582.JPG,ISIC_3181358.JPG,false,1,keypress(m),500,601133,601133,596754.634,596762,596771.3,601137.792,8,400,23,,ISIC_0065582.JPG
break,html.Screen,4_122_1,2023-09-08T20:52:24.801Z,,0,,,NaN,,,,,,false,,,,601136,601135,,601134,,601137.792,8,400,,,
break_continue,html.Screen,4_122_2,2023-09-08T20:52:24.802Z,,0,,,NaN,,,,,,false,,,,601137,601136,,601136,,601137.792,8,400,,,
sequence,flow.Sequence,4_122,2023-09-08T20:52:24.802Z,,0,,,4364.699999999953,completion,,,,,false,,,,601137,601136,596754.634,596762,596771.3,601137.792,8,400,,,
trial,html.Screen,4_123_0,2023-09-08T20:52:29.429Z,,0,3,,4626.207999999984,response,ISIC_8855102.JPG,4,ISIC_0027432.JPG,ISIC_8855102.JPG,false,1,keypress(m),500,605764,605764,601121.126,601138,601137.792,605770.94,8,400,24,,ISIC_0027432.JPG
break,html.Screen,4_123_1,2023-09-08T20:52:29.432Z,,0,,,NaN,,,,,,false,,,,605767,605766,,605765,,605770.94,8,400,,,
break_continue,html.Screen,4_123_2,2023-09-08T20:52:29.433Z,,0,,,NaN,,,,,,false,,,,605768,605767,,605767,,605770.94,8,400,,,
sequence,flow.Sequence,4_123,2023-09-08T20:52:29.433Z,,0,,,4629.207999999984,completion,,,,,false,,,,605768,605767,601121.126,601137,601137.792,605770.94,8,400,,,
trial,html.Screen,4_124_0,2023-09-08T20:52:33.538Z,,0,3,,4102.060000000056,response,ISIC_0055289.JPG,5,ISIC_0071536.JPG,ISIC_0055289.JPG,false,1,keypress(m),500,609873,609873,605754.274,605769,605770.94,609887.442,8,400,25,,ISIC_0071536.JPG
break,html.Screen,4_124_1,2023-09-08T20:52:33.540Z,,0,,,NaN,,,,,,false,,,,609875,609875,,609874,,609887.442,8,400,,,
break_continue,html.Screen,4_124_2,2023-09-08T20:52:33.541Z,,0,,,NaN,,,,,,false,,,,609876,609876,,609876,,609887.442,8,400,,,
sequence,flow.Sequence,4_124,2023-09-08T20:52:33.542Z,,0,,,4105.060000000056,completion,,,,,false,,,,609877,609876,605754.274,605768,605770.94,609887.442,8,400,,,
trial,html.Screen,4_125_0,2023-09-08T20:52:37.600Z,,0,3,,4047.557999999961,response,ISIC_0014694.JPG,4,ISIC_0010767.JPG,ISIC_0014694.JPG,false,1,keypress(m),500,613935,613935,609870.776,609877,609887.442,613937.28,8,400,26,,ISIC_0010767.JPG
break,html.Screen,4_125_1,2023-09-08T20:52:37.603Z,,0,,,NaN,,,,,,false,,,,613938,613937,,613936,,613937.28,8,400,,,
break_continue,html.Screen,4_125_2,2023-09-08T20:52:37.604Z,,0,,,NaN,,,,,,false,,,,613939,613939,,613938,,613937.28,8,400,,,
sequence,flow.Sequence,4_125,2023-09-08T20:52:37.605Z,,0,,,4051.557999999961,completion,,,,,false,,,,613940,613939,609870.776,609877,609887.442,613937.28,8,400,,,
trial,html.Screen,4_126_0,2023-09-08T20:52:40.686Z,,0,3,,3083.719999999972,response,ISIC_3996796.JPG,5,ISIC_5688950.JPG,ISIC_5688950.JPG,false,0,keypress(z),500,617021,617021,613920.614,613940,613937.28,617053.822,8,400,27,,ISIC_3996796.JPG
break,html.Screen,4_126_1,2023-09-08T20:52:40.689Z,,0,,,NaN,,,,,,false,,,,617024,617023,,617022,,617053.822,8,400,,,
break_continue,html.Screen,4_126_2,2023-09-08T20:52:40.690Z,,0,,,NaN,,,,,,false,,,,617025,617024,,617024,,617053.822,8,400,,,
sequence,flow.Sequence,4_126,2023-09-08T20:52:40.690Z,,0,,,3086.719999999972,completion,,,,,false,,,,617025,617024,613920.614,613940,613937.28,617053.822,8,400,,,
trial,html.Screen,4_127_0,2023-09-08T20:52:43.847Z,,0,3,,3128.1779999999562,response,ISIC_2545299.JPG,5,ISIC_7670149.JPG,ISIC_2545299.JPG,false,1,keypress(m),500,620182,620182,617020.49,617026,617053.822,620187.03,8,400,28,,ISIC_7670149.JPG
break,html.Screen,4_127_1,2023-09-08T20:52:43.850Z,,0,,,NaN,,,,,,false,,,,620185,620184,,620183,,620187.03,8,400,,,
break_continue,html.Screen,4_127_2,2023-09-08T20:52:43.851Z,,0,,,NaN,,,,,,false,,,,620186,620185,,620185,,620187.03,8,400,,,
sequence,flow.Sequence,4_127,2023-09-08T20:52:43.851Z,,0,,,3131.1779999999562,completion,,,,,false,,,,620186,620185,617020.49,617025,617053.822,620187.03,8,400,,,
trial,html.Screen,4_128_0,2023-09-08T20:52:47.335Z,,0,3,,3482.969999999972,response,ISIC_9685931.JPG,5,ISIC_2853290.JPG,ISIC_2853290.JPG,false,0,keypress(z),500,623670,623670,620170.364,620187,620187.03,623686.89,8,400,29,,ISIC_9685931.JPG
break,html.Screen,4_128_1,2023-09-08T20:52:47.338Z,,0,,,NaN,,,,,,false,,,,623673,623672,,623671,,623686.89,8,400,,,
break_continue,html.Screen,4_128_2,2023-09-08T20:52:47.339Z,,0,,,NaN,,,,,,false,,,,623674,623673,,623673,,623686.89,8,400,,,
sequence,flow.Sequence,4_128,2023-09-08T20:52:47.339Z,,0,,,3485.969999999972,completion,,,,,false,,,,623674,623673,620170.364,620187,620187.03,623686.89,8,400,,,
trial,html.Screen,4_129_0,2023-09-08T20:52:50.911Z,,0,3,,3559.109999999986,response,ISIC_0024427.JPG,5,ISIC_0070666.JPG,ISIC_0070666.JPG,false,0,keypress(z),500,627246,627246,623670.224,623675,623686.89,627253.414,8,400,30,,ISIC_0024427.JPG
break,html.Screen,4_129_1,2023-09-08T20:52:50.914Z,,0,,,NaN,,,,,,false,,,,627249,627248,,627247,,627253.414,8,400,,,
break_continue,html.Screen,4_129_2,2023-09-08T20:52:50.915Z,,0,,,NaN,,,,,,false,,,,627250,627249,,627249,,627253.414,8,400,,,
sequence,flow.Sequence,4_129,2023-09-08T20:52:50.915Z,,0,,,3562.109999999986,completion,,,,,false,,,,627250,627249,623670.224,623675,623686.89,627253.414,8,400,,,
trial,html.Screen,4_130_0,2023-09-08T20:52:54.550Z,,0,3,,3631.5860000000102,response,ISIC_1654342.JPG,5,ISIC_4851652.JPG,ISIC_1654342.JPG,false,1,keypress(m),500,630885,630885,627236.748,627251,627253.414,630919.934,8,400,31,,ISIC_4851652.JPG
break,html.Screen,4_130_1,2023-09-08T20:52:54.553Z,,0,,,NaN,,,,,,false,,,,630888,630887,,630886,,630919.934,8,400,,,
break_continue,html.Screen,4_130_2,2023-09-08T20:52:54.554Z,,0,,,NaN,,,,,,false,,,,630889,630889,,630888,,630919.934,8,400,,,
sequence,flow.Sequence,4_130,2023-09-08T20:52:54.554Z,,0,,,3635.5860000000102,completion,,,,,false,,,,630889,630889,627236.748,627251,627253.414,630919.934,8,400,,,
trial,html.Screen,4_131_0,2023-09-08T20:52:58.221Z,,0,3,,3636.0659999999916,response,ISIC_0027101.JPG,4,ISIC_0000660.JPG,ISIC_0000660.JPG,false,0,keypress(z),500,634556,634556,630886.602,630890,630919.934,634569.788,8,400,32,,ISIC_0027101.JPG
break,html.Screen,4_131_1,2023-09-08T20:52:58.224Z,,0,,,NaN,,,,,,false,,,,634559,634558,,634557,,634569.788,8,400,,,
break_continue,html.Screen,4_131_2,2023-09-08T20:52:58.225Z,,0,,,NaN,,,,,,false,,,,634560,634560,,634559,,634569.788,8,400,,,
sequence,flow.Sequence,4_131,2023-09-08T20:52:58.225Z,,0,,,3640.0659999999916,completion,,,,,false,,,,634560,634560,630886.602,630890,630919.934,634569.788,8,400,,,
trial,html.Screen,4_132_0,2023-09-08T20:53:02.676Z,,0,3,,4441.212000000058,response,ISIC_9109361.JPG,5,ISIC_0594695.JPG,ISIC_9109361.JPG,false,1,keypress(m),500,639011,639011,634553.122,634561,634569.788,639019.61,8,400,33,,ISIC_0594695.JPG
break,html.Screen,4_132_1,2023-09-08T20:53:02.679Z,,0,,,NaN,,,,,,false,,,,639014,639013,,639012,,639019.61,8,400,,,
break_continue,html.Screen,4_132_2,2023-09-08T20:53:02.680Z,,0,,,NaN,,,,,,false,,,,639015,639014,,639014,,639019.61,8,400,,,
sequence,flow.Sequence,4_132,2023-09-08T20:53:02.680Z,,0,,,4444.212000000058,completion,,,,,false,,,,639015,639014,634553.122,634561,634569.788,639019.61,8,400,,,
trial,html.Screen,4_133_0,2023-09-08T20:53:06.031Z,,0,3,,3346.390000000014,response,ISIC_8100185.JPG,5,ISIC_0069946.JPG,ISIC_8100185.JPG,false,1,keypress(m),500,642366,642366,639002.944,639016,639019.61,642369.476,8,400,34,,ISIC_0069946.JPG
break,html.Screen,4_133_1,2023-09-08T20:53:06.034Z,,0,,,NaN,,,,,,false,,,,642369,642368,,642367,,642369.476,8,400,,,
break_continue,html.Screen,4_133_2,2023-09-08T20:53:06.035Z,,0,,,NaN,,,,,,false,,,,642370,642369,,642369,,642369.476,8,400,,,
sequence,flow.Sequence,4_133,2023-09-08T20:53:06.036Z,,0,,,3349.390000000014,completion,,,,,false,,,,642371,642369,639002.944,639016,639019.61,642369.476,8,400,,,
trial,html.Screen,4_134_0,2023-09-08T20:53:09.703Z,,0,3,,3668.523999999976,response,ISIC_0032509.JPG,4,ISIC_0032204.JPG,ISIC_0032204.JPG,false,0,keypress(z),500,646038,646038,642352.81,642371,642369.476,646052.662,8,400,35,,ISIC_0032509.JPG
break,html.Screen,4_134_1,2023-09-08T20:53:09.706Z,,0,,,NaN,,,,,,false,,,,646041,646040,,646039,,646052.662,8,400,,,
break_continue,html.Screen,4_134_2,2023-09-08T20:53:09.707Z,,0,,,NaN,,,,,,false,,,,646042,646042,,646041,,646052.662,8,400,,,
sequence,flow.Sequence,4_134,2023-09-08T20:53:09.707Z,,0,,,3672.523999999976,completion,,,,,false,,,,646042,646042,642352.81,642371,642369.476,646052.662,8,400,,,
trial,html.Screen,4_135_0,2023-09-08T20:53:13.534Z,,0,3,,3816.337999999989,response,ISIC_8428097.JPG,6,ISIC_0032695.JPG,ISIC_8428097.JPG,false,1,keypress(m),500,649869,649869,646035.996,646043,646052.662,649869.176,8,400,36,,ISIC_0032695.JPG
break,html.Screen,4_135_1,2023-09-08T20:53:13.535Z,,0,,,NaN,,,,,,false,,,,649870,649870,,649869,,649869.176,8,400,,,
break_continue,html.Screen,4_135_2,2023-09-08T20:53:13.535Z,,0,,,NaN,,,,,,false,,,,649870,649870,,649870,,649869.176,8,400,,,
sequence,flow.Sequence,4_135,2023-09-08T20:53:13.535Z,,0,,,3817.337999999989,completion,,,,,false,,,,649870,649870,646035.996,646043,646052.662,649869.176,8,400,,,
trial,html.Screen,4_136_0,2023-09-08T20:53:16.880Z,,0,3,,3345.8240000000224,response,ISIC_0010347.JPG,4,ISIC_0025357.JPG,ISIC_0025357.JPG,false,0,keypress(z),500,653215,653215,649852.51,649871,649869.176,653219.042,8,400,37,,ISIC_0010347.JPG
break,html.Screen,4_136_1,2023-09-08T20:53:16.883Z,,0,,,NaN,,,,,,false,,,,653218,653217,,653216,,653219.042,8,400,,,
break_continue,html.Screen,4_136_2,2023-09-08T20:53:16.884Z,,0,,,NaN,,,,,,false,,,,653219,653219,,653218,,653219.042,8,400,,,
sequence,flow.Sequence,4_136,2023-09-08T20:53:16.884Z,,0,,,3349.8240000000224,completion,,,,,false,,,,653219,653219,649852.51,649871,649869.176,653219.042,8,400,,,
trial,html.Screen,4_137_0,2023-09-08T20:53:20.894Z,,0,3,,4009.957999999984,response,ISIC_9996128.JPG,6,ISIC_8892236.JPG,ISIC_8892236.JPG,false,0,keypress(z),500,657229,657229,653202.376,653220,653219.042,657235.548,8,400,38,,ISIC_9996128.JPG
break,html.Screen,4_137_1,2023-09-08T20:53:20.897Z,,0,,,NaN,,,,,,false,,,,657232,657231,,657230,,657235.548,8,400,,,
break_continue,html.Screen,4_137_2,2023-09-08T20:53:20.898Z,,0,,,NaN,,,,,,false,,,,657233,657232,,657232,,657235.548,8,400,,,
sequence,flow.Sequence,4_137,2023-09-08T20:53:20.898Z,,0,,,4012.957999999984,completion,,,,,false,,,,657233,657232,653202.376,653220,653219.042,657235.548,8,400,,,
trial,html.Screen,4_138_0,2023-09-08T20:53:24.326Z,,0,3,,3425.4520000000484,response,ISIC_0062709.JPG,5,ISIC_9688119.JPG,ISIC_9688119.JPG,false,0,keypress(z),500,660661,660661,657218.882,657234,657235.548,660668.744,8,400,39,,ISIC_0062709.JPG
break,html.Screen,4_138_1,2023-09-08T20:53:24.328Z,,0,,,NaN,,,,,,false,,,,660663,660662,,660661,,660668.744,8,400,,,
break_continue,html.Screen,4_138_2,2023-09-08T20:53:24.329Z,,0,,,NaN,,,,,,false,,,,660664,660663,,660663,,660668.744,8,400,,,
sequence,flow.Sequence,4_138,2023-09-08T20:53:24.329Z,,0,,,3427.4520000000484,completion,,,,,false,,,,660664,660663,657218.882,657234,657235.548,660668.744,8,400,,,
trial,html.Screen,4_139_0,2023-09-08T20:53:28.808Z,,0,3,,4473.256000000052,response,ISIC_8462070.JPG,5,ISIC_0030171.JPG,ISIC_8462070.JPG,false,1,keypress(m),500,665143,665142,660652.078,660665,660668.744,665151.898,8,400,40,,ISIC_0030171.JPG
break,html.Screen,4_139_1,2023-09-08T20:53:28.811Z,,0,,,NaN,,,,,,false,,,,665146,665145,,665143,,665151.898,8,400,,,
break_continue,html.Screen,4_139_2,2023-09-08T20:53:28.812Z,,0,,,NaN,,,,,,false,,,,665147,665147,,665146,,665151.898,8,400,,,
sequence,flow.Sequence,4_139,2023-09-08T20:53:28.812Z,,0,,,4478.256000000052,completion,,,,,false,,,,665147,665147,660652.078,660665,660668.744,665151.898,8,400,,,
trial,html.Screen,4_140_0,2023-09-08T20:53:31.710Z,,0,3,,2893.1019999999553,response,ISIC_2006783.JPG,4,ISIC_0027132.JPG,ISIC_0027132.JPG,false,0,keypress(z),500,668045,668045,665135.232,665147,665151.898,668051.782,8,400,41,,ISIC_2006783.JPG
break,html.Screen,4_140_1,2023-09-08T20:53:31.713Z,,0,,,NaN,,,,,,false,,,,668048,668047,,668046,,668051.782,8,400,,,
break_continue,html.Screen,4_140_2,2023-09-08T20:53:31.714Z,,0,,,NaN,,,,,,false,,,,668049,668049,,668048,,668051.782,8,400,,,
sequence,flow.Sequence,4_140,2023-09-08T20:53:31.714Z,,0,,,2897.1019999999553,completion,,,,,false,,,,668049,668049,665135.232,665147,665151.898,668051.782,8,400,,,
trial,html.Screen,4_141_0,2023-09-08T20:53:34.757Z,,0,3,,3040.2179999999935,response,ISIC_9947369.JPG,4,ISIC_0059435.JPG,ISIC_9947369.JPG,false,1,keypress(m),500,671092,671092,668035.116,668050,668051.782,671101.66,8,400,42,,ISIC_0059435.JPG
break,html.Screen,4_141_1,2023-09-08T20:53:34.760Z,,0,,,NaN,,,,,,false,,,,671095,671094,,671093,,671101.66,8,400,,,
break_continue,html.Screen,4_141_2,2023-09-08T20:53:34.761Z,,0,,,NaN,,,,,,false,,,,671096,671096,,671095,,671101.66,8,400,,,
sequence,flow.Sequence,4_141,2023-09-08T20:53:34.761Z,,0,,,3044.2179999999935,completion,,,,,false,,,,671096,671096,668035.116,668050,668051.782,671101.66,8,400,,,
trial,html.Screen,4_142_0,2023-09-08T20:53:39.616Z,,0,3,,4849.339999999967,response,ISIC_4468549.JPG,4,ISIC_0066889.JPG,ISIC_0066889.JPG,false,0,keypress(z),500,675951,675951,671084.994,671097,671101.66,676001.464,8,400,43,,ISIC_4468549.JPG
break,html.Screen,4_142_1,2023-09-08T20:53:39.619Z,,0,,,NaN,,,,,,false,,,,675954,675953,,675952,,676001.464,8,400,,,
break_continue,html.Screen,4_142_2,2023-09-08T20:53:39.620Z,,0,,,NaN,,,,,,false,,,,675955,675954,,675954,,676001.464,8,400,,,
sequence,flow.Sequence,4_142,2023-09-08T20:53:39.620Z,,0,,,4852.339999999967,completion,,,,,false,,,,675955,675954,671084.994,671097,671101.66,676001.464,8,400,,,
trial,html.Screen,4_143_0,2023-09-08T20:53:44.791Z,,0,3,,5124.535999999964,response,ISIC_8543040.JPG,5,ISIC_0760740.JPG,ISIC_0760740.JPG,false,0,keypress(z),500,681126,681126,675951.466,675956,676001.464,681134.592,8,400,44,,ISIC_8543040.JPG
break,html.Screen,4_143_1,2023-09-08T20:53:44.794Z,,0,,,NaN,,,,,,false,,,,681129,681128,,681127,,681134.592,8,400,,,
break_continue,html.Screen,4_143_2,2023-09-08T20:53:44.795Z,,0,,,NaN,,,,,,false,,,,681130,681129,,681129,,681134.592,8,400,,,
sequence,flow.Sequence,4_143,2023-09-08T20:53:44.795Z,,0,,,5127.535999999964,completion,,,,,false,,,,681130,681129,675951.466,675956,676001.464,681134.592,8,400,,,
trial,html.Screen,4_144_0,2023-09-08T20:53:48.703Z,,0,3,,3903.408000000054,response,ISIC_0067195.JPG,5,ISIC_0032549.JPG,ISIC_0032549.JPG,false,0,keypress(z),500,685038,685038,681117.926,681131,681134.592,685051.102,8,400,45,,ISIC_0067195.JPG
break,html.Screen,4_144_1,2023-09-08T20:53:48.704Z,,0,,,NaN,,,,,,false,,,,685039,685039,,685038,,685051.102,8,400,,,
break_continue,html.Screen,4_144_2,2023-09-08T20:53:48.705Z,,0,,,NaN,,,,,,false,,,,685040,685040,,685039,,685051.102,8,400,,,
sequence,flow.Sequence,4_144,2023-09-08T20:53:48.705Z,,0,,,3905.408000000054,completion,,,,,false,,,,685040,685040,681117.926,681130,681134.592,685051.102,8,400,,,
trial,html.Screen,4_145_0,2023-09-08T20:53:51.875Z,,0,3,,3158.8980000000447,response,ISIC_4396553.JPG,5,ISIC_0030110.JPG,ISIC_4396553.JPG,false,1,keypress(m),500,688210,688210,685034.436,685040,685051.102,688217.642,8,400,46,,ISIC_0030110.JPG
break,html.Screen,4_145_1,2023-09-08T20:53:51.878Z,,0,,,NaN,,,,,,false,,,,688213,688212,,688211,,688217.642,8,400,,,
break_continue,html.Screen,4_145_2,2023-09-08T20:53:51.879Z,,0,,,NaN,,,,,,false,,,,688214,688214,,688213,,688217.642,8,400,,,
sequence,flow.Sequence,4_145,2023-09-08T20:53:51.879Z,,0,,,3162.8980000000447,completion,,,,,false,,,,688214,688214,685034.436,685040,685051.102,688217.642,8,400,,,
trial,html.Screen,4_146_0,2023-09-08T20:53:55.418Z,,0,3,,3535.3580000000075,response,ISIC_4105234.JPG,5,ISIC_4701063.JPG,ISIC_4701063.JPG,false,0,keypress(z),500,691753,691753,688200.976,688215,688217.642,691767.5,8,400,47,,ISIC_4105234.JPG
break,html.Screen,4_146_1,2023-09-08T20:53:55.421Z,,0,,,NaN,,,,,,false,,,,691756,691755,,691754,,691767.5,8,400,,,
break_continue,html.Screen,4_146_2,2023-09-08T20:53:55.422Z,,0,,,NaN,,,,,,false,,,,691757,691757,,691756,,691767.5,8,400,,,
sequence,flow.Sequence,4_146,2023-09-08T20:53:55.423Z,,0,,,3539.3580000000075,completion,,,,,false,,,,691758,691757,688200.976,688215,688217.642,691767.5,8,400,,,
trial,html.Screen,4_147_0,2023-09-08T20:53:58.881Z,,0,3,,3448.5,response,ISIC_2562668.JPG,4,ISIC_0033463.JPG,ISIC_0033463.JPG,false,0,keypress(z),500,695216,695216,691750.834,691758,691767.5,695267.36,8,400,48,,ISIC_2562668.JPG
break,html.Screen,4_147_1,2023-09-08T20:53:58.884Z,,0,,,NaN,,,,,,false,,,,695219,695218,,695217,,695267.36,8,400,,,
break_continue,html.Screen,4_147_2,2023-09-08T20:53:58.885Z,,0,,,NaN,,,,,,false,,,,695220,695220,,695219,,695267.36,8,400,,,
sequence,flow.Sequence,4_147,2023-09-08T20:53:58.886Z,,0,,,3452.5,completion,,,,,false,,,,695221,695220,691750.834,691758,691767.5,695267.36,8,400,,,
