sender,sender_type,sender_id,timestamp,meta,,blockNo,condition,duration,ended_on,img_left,img_reveal,img_right,loser,practice,response,response_action,selection_duration,time_commit,time_end,time_render,time_run,time_show,time_switch,total_blocks,total_trials,trialNo,url,winner
informed_consent,html.Screen,0,2023-05-01T16:07:00.351Z,"{""labjs_version"":""20.2.4"",""labjs_build"":{""flavor"":""production"",""commit"":""f5b4a49f956347addd546a832a3327688c2c0fef""},""location"":""https://run.pavlovia.org/MurrayBennett/melanoma-2afc/?participant=65201"",""userAgent"":""Mozilla/5.0 (Windows NT 10.0; Win64; x64) AppleWebKit/537.36 (KHTML, like Gecko) Chrome/112.0.0.0 Safari/537.36"",""platform"":""Win32"",""language"":""en-US"",""locale"":""en-US"",""timeZone"":""America/Chicago"",""timezoneOffset"":300,""screen_width"":1536,""screen_height"":864,""scroll_width"":1536,""scroll_height"":670,""window_innerWidth"":1536,""window_innerHeight"":718,""devicePixelRatio"":1.25}",,,,30907,response,,,,,,continue,click button,,33215,33213,2300,2298,2306,33233,,,,"{""participant"":""65201""}",
Welcome,html.Screen,1,2023-05-01T16:07:43.558Z,,,,irregular,43188,response,,,,,,continue,click button,,76422,76421,33209,33215,33233,76424,,,,,
trial,html.Screen,2_0_0,2023-05-01T16:07:48.773Z,,0,0,,5214,response,ISIC_0061792.JPG,,ISIC_4679428.JPG,ISIC_0061792.JPG,true,1,keypress(m),500,81638,81638,76419,76422,76424,81641,1,6,1,,ISIC_4679428.JPG
sequence,flow.Sequence,2_0,2023-05-01T16:07:48.774Z,,0,,,5214,completion,,,,,true,,,,81638,81638,76419,76422,76424,81641,1,6,,,
trial,html.Screen,2_1_0,2023-05-01T16:07:52.480Z,,0,0,,3703,response,ISIC_0776486.JPG,,ISIC_5199497.JPG,ISIC_5199497.JPG,true,0,keypress(z),500,85344,85344,81635,81638,81641,85349,1,6,2,,ISIC_0776486.JPG
sequence,flow.Sequence,2_1,2023-05-01T16:07:52.481Z,,0,,,3703,completion,,,,,true,,,,85345,85344,81635,81638,81641,85349,1,6,,,
trial,html.Screen,2_2_0,2023-05-01T16:07:55.969Z,,0,0,,3484,response,ISIC_2556187.JPG,,ISIC_8575776.JPG,ISIC_8575776.JPG,true,0,keypress(z),500,88833,88833,85344,85345,85349,88840,1,6,3,,ISIC_2556187.JPG
sequence,flow.Sequence,2_2,2023-05-01T16:07:55.969Z,,0,,,3484,completion,,,,,true,,,,88833,88833,85344,85345,85349,88840,1,6,,,
trial,html.Screen,2_3_0,2023-05-01T16:07:59.162Z,,0,0,,3185,response,ISIC_8141769.JPG,,ISIC_9238366.JPG,ISIC_9238366.JPG,true,0,keypress(z),500,92025,92025,88834,88833,88840,92027,1,6,4,,ISIC_8141769.JPG
sequence,flow.Sequence,2_3,2023-05-01T16:07:59.162Z,,0,,,3185,completion,,,,,true,,,,92026,92025,88834,88833,88840,92027,1,6,,,
trial,html.Screen,2_4_0,2023-05-01T16:08:02.502Z,,0,0,,3338,response,ISIC_8949026.JPG,,ISIC_9959593.JPG,ISIC_8949026.JPG,true,1,keypress(m),500,95366,95365,92021,92027,92027,95372,1,6,5,,ISIC_9959593.JPG
sequence,flow.Sequence,2_4,2023-05-01T16:08:02.502Z,,0,,,3338,completion,,,,,true,,,,95367,95365,92021,92027,92027,95372,1,6,,,
trial,html.Screen,2_5_0,2023-05-01T16:08:05.312Z,,0,0,,2804,response,ISIC_0010479.JPG,,ISIC_0460240.JPG,ISIC_0460240.JPG,true,0,keypress(z),500,98176,98176,95365,95367,95372,98183,1,6,6,,ISIC_0010479.JPG
sequence,flow.Sequence,2_5,2023-05-01T16:08:05.312Z,,0,,,2804,completion,,,,,true,,,,98176,98176,95365,95367,95372,98183,1,6,,,
loop,flow.Loop,2,2023-05-01T16:08:05.312Z,,,,,21752,completion,,,,,true,,,,98176,98176,76419,76422,76424,98183,1,6,,,
exp_instructions,html.Screen,3,2023-05-01T16:08:11.553Z,,,,,6233,response,,,,,,continue,keypress(Space),,104418,104416,98172,98177,98183,104424,,,,,
trial,html.Screen,4_0_0,2023-05-01T16:08:14.733Z,,0,1,,3173,response,ISIC_2202486.JPG,,ISIC_2077116.JPG,ISIC_2077116.JPG,false,0,keypress(z),500,107597,107597,104417,104418,104424,107600,6,300,1,,ISIC_2202486.JPG
break,html.Screen,4_0_1,2023-05-01T16:08:14.735Z,,0,,,NaN,,,,,,false,,,,107599,107598,,107597,,107600,6,300,,,
break_continue,html.Screen,4_0_2,2023-05-01T16:08:14.736Z,,0,,,NaN,,,,,,false,,,,107600,107600,,107599,,107600,6,300,,,
sequence,flow.Sequence,4_0,2023-05-01T16:08:14.736Z,,0,,,3176,completion,,,,,false,,,,107600,107600,104417,104418,104424,107600,6,300,,,
trial,html.Screen,4_1_0,2023-05-01T16:08:18.251Z,,0,1,,3514,response,ISIC_9445196.JPG,,ISIC_1604845.JPG,ISIC_9445196.JPG,false,1,keypress(m),500,111114,111114,107593,107600,107600,111120,6,300,2,,ISIC_1604845.JPG
break,html.Screen,4_1_1,2023-05-01T16:08:18.252Z,,0,,,NaN,,,,,,false,,,,111115,111115,,111115,,111120,6,300,,,
break_continue,html.Screen,4_1_2,2023-05-01T16:08:18.252Z,,0,,,NaN,,,,,,false,,,,111116,111116,,111116,,111120,6,300,,,
sequence,flow.Sequence,4_1,2023-05-01T16:08:18.252Z,,0,,,3516,completion,,,,,false,,,,111116,111116,107593,107600,107600,111120,6,300,,,
trial,html.Screen,4_2_0,2023-05-01T16:08:23.049Z,,0,1,,4792,response,ISIC_7424320.JPG,,ISIC_8899350.JPG,ISIC_8899350.JPG,false,0,keypress(z),500,115913,115912,111111,111116,111120,115919,6,300,3,,ISIC_7424320.JPG
break,html.Screen,4_2_1,2023-05-01T16:08:23.051Z,,0,,,NaN,,,,,,false,,,,115915,115915,,115913,,115919,6,300,,,
break_continue,html.Screen,4_2_2,2023-05-01T16:08:23.051Z,,0,,,NaN,,,,,,false,,,,115916,115916,,115915,,115919,6,300,,,
sequence,flow.Sequence,4_2,2023-05-01T16:08:23.051Z,,0,,,4796,completion,,,,,false,,,,115916,115916,111111,111116,111120,115919,6,300,,,
trial,html.Screen,4_3_0,2023-05-01T16:08:29.720Z,,0,1,,6665,response,ISIC_0060032.JPG,,ISIC_4412555.JPG,ISIC_4412555.JPG,false,0,keypress(z),500,122584,122584,115913,115916,115919,122590,6,300,4,,ISIC_0060032.JPG
break,html.Screen,4_3_1,2023-05-01T16:08:29.722Z,,0,,,NaN,,,,,,false,,,,122587,122586,,122585,,122590,6,300,,,
break_continue,html.Screen,4_3_2,2023-05-01T16:08:29.723Z,,0,,,NaN,,,,,,false,,,,122587,122587,,122587,,122590,6,300,,,
sequence,flow.Sequence,4_3,2023-05-01T16:08:29.723Z,,0,,,6668,completion,,,,,false,,,,122587,122587,115913,115916,115919,122590,6,300,,,
trial,html.Screen,4_4_0,2023-05-01T16:08:37.298Z,,0,1,,7572,response,ISIC_9029813.JPG,,ISIC_0014110.JPG,ISIC_9029813.JPG,false,1,keypress(m),500,130162,130162,122584,122587,122590,130164,6,300,5,,ISIC_0014110.JPG
break,html.Screen,4_4_1,2023-05-01T16:08:37.299Z,,0,,,NaN,,,,,,false,,,,130163,130163,,130162,,130164,6,300,,,
break_continue,html.Screen,4_4_2,2023-05-01T16:08:37.299Z,,0,,,NaN,,,,,,false,,,,130163,130163,,130163,,130164,6,300,,,
sequence,flow.Sequence,4_4,2023-05-01T16:08:37.299Z,,0,,,7573,completion,,,,,false,,,,130163,130163,122584,122587,122590,130164,6,300,,,
trial,html.Screen,4_5_0,2023-05-01T16:08:43.278Z,,0,1,,5978,response,ISIC_4481362.JPG,,ISIC_0000291.JPG,ISIC_4481362.JPG,false,1,keypress(m),500,136142,136142,130161,130163,130164,136145,6,300,6,,ISIC_0000291.JPG
break,html.Screen,4_5_1,2023-05-01T16:08:43.280Z,,0,,,NaN,,,,,,false,,,,136144,136143,,136142,,136145,6,300,,,
break_continue,html.Screen,4_5_2,2023-05-01T16:08:43.280Z,,0,,,NaN,,,,,,false,,,,136144,136144,,136144,,136145,6,300,,,
sequence,flow.Sequence,4_5,2023-05-01T16:08:43.280Z,,0,,,5980,completion,,,,,false,,,,136144,136144,130161,130163,130164,136145,6,300,,,
trial,html.Screen,4_6_0,2023-05-01T16:08:46.079Z,,0,1,,2798,response,ISIC_4014307.JPG,,ISIC_0025277.JPG,ISIC_4014307.JPG,false,1,keypress(m),500,138943,138943,136142,136144,136145,138950,6,300,7,,ISIC_0025277.JPG
break,html.Screen,4_6_1,2023-05-01T16:08:46.081Z,,0,,,NaN,,,,,,false,,,,138945,138945,,138943,,138950,6,300,,,
break_continue,html.Screen,4_6_2,2023-05-01T16:08:46.082Z,,0,,,NaN,,,,,,false,,,,138946,138946,,138946,,138950,6,300,,,
sequence,flow.Sequence,4_6,2023-05-01T16:08:46.082Z,,0,,,2801,completion,,,,,false,,,,138946,138946,136142,136144,136145,138950,6,300,,,
trial,html.Screen,4_7_0,2023-05-01T16:08:53.101Z,,0,1,,7014,response,ISIC_0000175.JPG,,ISIC_0011329.JPG,ISIC_0011329.JPG,false,0,keypress(z),500,145965,145964,138944,138946,138950,145967,6,300,8,,ISIC_0000175.JPG
break,html.Screen,4_7_1,2023-05-01T16:08:53.102Z,,0,,,NaN,,,,,,false,,,,145966,145966,,145965,,145967,6,300,,,
break_continue,html.Screen,4_7_2,2023-05-01T16:08:53.103Z,,0,,,NaN,,,,,,false,,,,145967,145967,,145966,,145967,6,300,,,
sequence,flow.Sequence,4_7,2023-05-01T16:08:53.103Z,,0,,,7017,completion,,,,,false,,,,145967,145967,138944,138946,138950,145967,6,300,,,
trial,html.Screen,4_8_0,2023-05-01T16:08:56.357Z,,0,1,,3253,response,ISIC_0032112.JPG,,ISIC_9803747.JPG,ISIC_9803747.JPG,false,0,keypress(z),500,149221,149220,145961,145967,145967,149227,6,300,9,,ISIC_0032112.JPG
break,html.Screen,4_8_1,2023-05-01T16:08:56.358Z,,0,,,NaN,,,,,,false,,,,149222,149222,,149221,,149227,6,300,,,
break_continue,html.Screen,4_8_2,2023-05-01T16:08:56.359Z,,0,,,NaN,,,,,,false,,,,149223,149223,,149222,,149227,6,300,,,
sequence,flow.Sequence,4_8,2023-05-01T16:08:56.359Z,,0,,,3256,completion,,,,,false,,,,149223,149223,145961,145967,145967,149227,6,300,,,
trial,html.Screen,4_9_0,2023-05-01T16:09:00.677Z,,0,1,,4314,response,ISIC_6613150.JPG,,ISIC_0060934.JPG,ISIC_0060934.JPG,false,0,keypress(z),500,153541,153541,149221,149224,149227,153547,6,300,10,,ISIC_6613150.JPG
break,html.Screen,4_9_1,2023-05-01T16:09:00.679Z,,0,,,NaN,,,,,,false,,,,153543,153542,,153541,,153547,6,300,,,
break_continue,html.Screen,4_9_2,2023-05-01T16:09:00.680Z,,0,,,NaN,,,,,,false,,,,153544,153544,,153543,,153547,6,300,,,
sequence,flow.Sequence,4_9,2023-05-01T16:09:00.680Z,,0,,,4317,completion,,,,,false,,,,153544,153544,149221,149224,149227,153547,6,300,,,
trial,html.Screen,4_10_0,2023-05-01T16:09:05.790Z,,0,1,,5106,response,ISIC_3018550.JPG,,ISIC_0007740.JPG,ISIC_0007740.JPG,false,0,keypress(z),500,158654,158653,153538,153544,153547,158656,6,300,11,,ISIC_3018550.JPG
break,html.Screen,4_10_1,2023-05-01T16:09:05.792Z,,0,,,NaN,,,,,,false,,,,158656,158655,,158654,,158656,6,300,,,
break_continue,html.Screen,4_10_2,2023-05-01T16:09:05.792Z,,0,,,NaN,,,,,,false,,,,158657,158656,,158656,,158656,6,300,,,
sequence,flow.Sequence,4_10,2023-05-01T16:09:05.792Z,,0,,,5109,completion,,,,,false,,,,158657,158656,153538,153544,153547,158656,6,300,,,
trial,html.Screen,4_11_0,2023-05-01T16:09:09.435Z,,0,1,,3643,response,ISIC_4468148.JPG,,ISIC_9864402.JPG,ISIC_9864402.JPG,false,0,keypress(z),500,162300,162299,158654,158657,158656,162303,6,300,12,,ISIC_4468148.JPG
break,html.Screen,4_11_1,2023-05-01T16:09:09.437Z,,0,,,NaN,,,,,,false,,,,162301,162301,,162300,,162303,6,300,,,
break_continue,html.Screen,4_11_2,2023-05-01T16:09:09.437Z,,0,,,NaN,,,,,,false,,,,162301,162301,,162301,,162303,6,300,,,
sequence,flow.Sequence,4_11,2023-05-01T16:09:09.437Z,,0,,,3645,completion,,,,,false,,,,162301,162301,158654,158657,158656,162303,6,300,,,
trial,html.Screen,4_12_0,2023-05-01T16:09:13.438Z,,0,1,,3999,response,ISIC_8375123.JPG,,ISIC_0062906.JPG,ISIC_0062906.JPG,false,0,keypress(z),500,166303,166302,162299,162301,162303,166308,6,300,13,,ISIC_8375123.JPG
break,html.Screen,4_12_1,2023-05-01T16:09:13.440Z,,0,,,NaN,,,,,,false,,,,166304,166304,,166303,,166308,6,300,,,
break_continue,html.Screen,4_12_2,2023-05-01T16:09:13.440Z,,0,,,NaN,,,,,,false,,,,166304,166304,,166304,,166308,6,300,,,
sequence,flow.Sequence,4_12,2023-05-01T16:09:13.440Z,,0,,,4001,completion,,,,,false,,,,166305,166304,162299,162301,162303,166308,6,300,,,
trial,html.Screen,4_13_0,2023-05-01T16:09:17.434Z,,0,1,,3989,response,ISIC_5675703.JPG,,ISIC_0011669.JPG,ISIC_0011669.JPG,false,0,keypress(z),500,170297,170297,166303,166305,166308,170301,6,300,14,,ISIC_5675703.JPG
break,html.Screen,4_13_1,2023-05-01T16:09:17.435Z,,0,,,NaN,,,,,,false,,,,170299,170299,,170298,,170301,6,300,,,
break_continue,html.Screen,4_13_2,2023-05-01T16:09:17.435Z,,0,,,NaN,,,,,,false,,,,170300,170300,,170300,,170301,6,300,,,
sequence,flow.Sequence,4_13,2023-05-01T16:09:17.435Z,,0,,,3992,completion,,,,,false,,,,170300,170300,166303,166305,166308,170301,6,300,,,
trial,html.Screen,4_14_0,2023-05-01T16:09:20.954Z,,0,1,,3516,response,ISIC_0033500.JPG,,ISIC_0010850.JPG,ISIC_0033500.JPG,false,1,keypress(m),500,173818,173817,170296,170300,170301,173822,6,300,15,,ISIC_0010850.JPG
break,html.Screen,4_14_1,2023-05-01T16:09:20.956Z,,0,,,NaN,,,,,,false,,,,173820,173820,,173819,,173822,6,300,,,
break_continue,html.Screen,4_14_2,2023-05-01T16:09:20.956Z,,0,,,NaN,,,,,,false,,,,173820,173820,,173820,,173822,6,300,,,
sequence,flow.Sequence,4_14,2023-05-01T16:09:20.956Z,,0,,,3519,completion,,,,,false,,,,173821,173820,170296,170300,170301,173822,6,300,,,
trial,html.Screen,4_15_0,2023-05-01T16:09:24.585Z,,0,1,,3627,response,ISIC_4128129.JPG,,ISIC_0624779.JPG,ISIC_0624779.JPG,false,0,keypress(z),500,177449,177449,173816,173821,173822,177451,6,300,16,,ISIC_4128129.JPG
break,html.Screen,4_15_1,2023-05-01T16:09:24.588Z,,0,,,NaN,,,,,,false,,,,177452,177451,,177450,,177451,6,300,,,
break_continue,html.Screen,4_15_2,2023-05-01T16:09:24.588Z,,0,,,NaN,,,,,,false,,,,177453,177453,,177452,,177451,6,300,,,
sequence,flow.Sequence,4_15,2023-05-01T16:09:24.588Z,,0,,,3631,completion,,,,,false,,,,177453,177453,173816,173821,173822,177451,6,300,,,
trial,html.Screen,4_16_0,2023-05-01T16:09:27.361Z,,0,1,,2775,response,ISIC_0066033.JPG,,ISIC_0000522.JPG,ISIC_0066033.JPG,false,1,keypress(m),500,180226,180226,177447,177453,177451,180227,6,300,17,,ISIC_0000522.JPG
break,html.Screen,4_16_1,2023-05-01T16:09:27.363Z,,0,,,NaN,,,,,,false,,,,180227,180227,,180226,,180227,6,300,,,
break_continue,html.Screen,4_16_2,2023-05-01T16:09:27.364Z,,0,,,NaN,,,,,,false,,,,180227,180227,,180227,,180227,6,300,,,
sequence,flow.Sequence,4_16,2023-05-01T16:09:27.364Z,,0,,,2776,completion,,,,,false,,,,180228,180227,177447,177453,177451,180227,6,300,,,
trial,html.Screen,4_17_0,2023-05-01T16:09:31.469Z,,0,1,,4106,response,ISIC_1874480.JPG,,ISIC_0033893.JPG,ISIC_1874480.JPG,false,1,keypress(m),500,184333,184333,180223,180229,180227,184335,6,300,18,,ISIC_0033893.JPG
break,html.Screen,4_17_1,2023-05-01T16:09:31.470Z,,0,,,NaN,,,,,,false,,,,184335,184334,,184334,,184335,6,300,,,
break_continue,html.Screen,4_17_2,2023-05-01T16:09:31.471Z,,0,,,NaN,,,,,,false,,,,184335,184335,,184335,,184335,6,300,,,
sequence,flow.Sequence,4_17,2023-05-01T16:09:31.471Z,,0,,,4108,completion,,,,,false,,,,184335,184335,180223,180228,180227,184335,6,300,,,
trial,html.Screen,4_18_0,2023-05-01T16:09:35.484Z,,0,1,,4012,response,ISIC_0032287.JPG,,ISIC_0056330.JPG,ISIC_0032287.JPG,false,1,keypress(m),500,188348,188347,184333,184335,184335,188352,6,300,19,,ISIC_0056330.JPG
break,html.Screen,4_18_1,2023-05-01T16:09:35.485Z,,0,,,NaN,,,,,,false,,,,188349,188349,,188348,,188352,6,300,,,
break_continue,html.Screen,4_18_2,2023-05-01T16:09:35.486Z,,0,,,NaN,,,,,,false,,,,188350,188350,,188350,,188352,6,300,,,
sequence,flow.Sequence,4_18,2023-05-01T16:09:35.486Z,,0,,,4015,completion,,,,,false,,,,188350,188350,184333,184335,184335,188352,6,300,,,
trial,html.Screen,4_19_0,2023-05-01T16:09:38.625Z,,0,1,,3137,response,ISIC_0029112.JPG,,ISIC_3428523.JPG,ISIC_3428523.JPG,false,0,keypress(z),500,191489,191489,188346,188350,188352,191491,6,300,20,,ISIC_0029112.JPG
break,html.Screen,4_19_1,2023-05-01T16:09:38.627Z,,0,,,NaN,,,,,,false,,,,191491,191491,,191489,,191491,6,300,,,
break_continue,html.Screen,4_19_2,2023-05-01T16:09:38.628Z,,0,,,NaN,,,,,,false,,,,191492,191492,,191491,,191491,6,300,,,
sequence,flow.Sequence,4_19,2023-05-01T16:09:38.628Z,,0,,,3140,completion,,,,,false,,,,191492,191492,188346,188350,188352,191491,6,300,,,
trial,html.Screen,4_20_0,2023-05-01T16:09:41.551Z,,0,1,,2924,response,ISIC_2051278.JPG,,ISIC_0032873.JPG,ISIC_2051278.JPG,false,1,keypress(m),500,194415,194415,191485,191492,191491,194418,6,300,21,,ISIC_0032873.JPG
break,html.Screen,4_20_1,2023-05-01T16:09:41.553Z,,0,,,NaN,,,,,,false,,,,194417,194416,,194416,,194418,6,300,,,
break_continue,html.Screen,4_20_2,2023-05-01T16:09:41.553Z,,0,,,NaN,,,,,,false,,,,194417,194417,,194417,,194418,6,300,,,
sequence,flow.Sequence,4_20,2023-05-01T16:09:41.554Z,,0,,,2926,completion,,,,,false,,,,194417,194417,191485,191492,191491,194418,6,300,,,
trial,html.Screen,4_21_0,2023-05-01T16:09:45.094Z,,0,1,,3540,response,ISIC_0061029.JPG,,ISIC_0069891.JPG,ISIC_0061029.JPG,false,1,keypress(m),500,197958,197958,194412,194418,194418,197962,6,300,22,,ISIC_0069891.JPG
break,html.Screen,4_21_1,2023-05-01T16:09:45.096Z,,0,,,NaN,,,,,,false,,,,197959,197959,,197958,,197962,6,300,,,
break_continue,html.Screen,4_21_2,2023-05-01T16:09:45.096Z,,0,,,NaN,,,,,,false,,,,197961,197960,,197959,,197962,6,300,,,
sequence,flow.Sequence,4_21,2023-05-01T16:09:45.096Z,,0,,,3542,completion,,,,,false,,,,197961,197960,194412,194418,194418,197962,6,300,,,
trial,html.Screen,4_22_0,2023-05-01T16:09:48.684Z,,0,1,,3585,response,ISIC_5641619.JPG,,ISIC_0032441.JPG,ISIC_5641619.JPG,false,1,keypress(m),500,201548,201547,197955,197961,197962,201549,6,300,23,,ISIC_0032441.JPG
break,html.Screen,4_22_1,2023-05-01T16:09:48.686Z,,0,,,NaN,,,,,,false,,,,201551,201550,,201548,,201549,6,300,,,
break_continue,html.Screen,4_22_2,2023-05-01T16:09:48.687Z,,0,,,NaN,,,,,,false,,,,201551,201551,,201551,,201549,6,300,,,
sequence,flow.Sequence,4_22,2023-05-01T16:09:48.687Z,,0,,,3589,completion,,,,,false,,,,201551,201551,197955,197961,197962,201549,6,300,,,
trial,html.Screen,4_23_0,2023-05-01T16:09:51.694Z,,0,1,,3009,response,ISIC_0057362.JPG,,ISIC_9090822.JPG,ISIC_9090822.JPG,false,0,keypress(z),500,204558,204558,201549,201551,201549,204561,6,300,24,,ISIC_0057362.JPG
break,html.Screen,4_23_1,2023-05-01T16:09:51.695Z,,0,,,NaN,,,,,,false,,,,204559,204559,,204558,,204561,6,300,,,
break_continue,html.Screen,4_23_2,2023-05-01T16:09:51.695Z,,0,,,NaN,,,,,,false,,,,204559,204559,,204559,,204561,6,300,,,
sequence,flow.Sequence,4_23,2023-05-01T16:09:51.696Z,,0,,,3010,completion,,,,,false,,,,204560,204559,201549,201551,201549,204561,6,300,,,
trial,html.Screen,4_24_0,2023-05-01T16:09:55.132Z,,0,1,,3434,response,ISIC_3673080.JPG,,ISIC_6961503.JPG,ISIC_3673080.JPG,false,1,keypress(m),500,207996,207995,204554,204560,204561,208003,6,300,25,,ISIC_6961503.JPG
break,html.Screen,4_24_1,2023-05-01T16:09:55.133Z,,0,,,NaN,,,,,,false,,,,207997,207997,,207996,,208003,6,300,,,
break_continue,html.Screen,4_24_2,2023-05-01T16:09:55.134Z,,0,,,NaN,,,,,,false,,,,207997,207997,,207997,,208003,6,300,,,
sequence,flow.Sequence,4_24,2023-05-01T16:09:55.134Z,,0,,,3436,completion,,,,,false,,,,207998,207997,204554,204560,204561,208003,6,300,,,
trial,html.Screen,4_25_0,2023-05-01T16:10:00.695Z,,0,1,,5555,response,ISIC_0013059.JPG,,ISIC_0011422.JPG,ISIC_0013059.JPG,false,1,keypress(m),500,213559,213558,207996,207998,208003,213565,6,300,26,,ISIC_0011422.JPG
break,html.Screen,4_25_1,2023-05-01T16:10:00.697Z,,0,,,NaN,,,,,,false,,,,213561,213561,,213559,,213565,6,300,,,
break_continue,html.Screen,4_25_2,2023-05-01T16:10:00.697Z,,0,,,NaN,,,,,,false,,,,213562,213562,,213561,,213565,6,300,,,
sequence,flow.Sequence,4_25,2023-05-01T16:10:00.698Z,,0,,,5559,completion,,,,,false,,,,213562,213562,207996,207998,208003,213565,6,300,,,
trial,html.Screen,4_26_0,2023-05-01T16:10:04.237Z,,0,1,,3536,response,ISIC_7852890.JPG,,ISIC_0063745.JPG,ISIC_0063745.JPG,false,0,keypress(z),500,217101,217101,213557,213562,213565,217104,6,300,27,,ISIC_7852890.JPG
break,html.Screen,4_26_1,2023-05-01T16:10:04.239Z,,0,,,NaN,,,,,,false,,,,217103,217102,,217102,,217104,6,300,,,
break_continue,html.Screen,4_26_2,2023-05-01T16:10:04.240Z,,0,,,NaN,,,,,,false,,,,217105,217104,,217103,,217104,6,300,,,
sequence,flow.Sequence,4_26,2023-05-01T16:10:04.240Z,,0,,,3539,completion,,,,,false,,,,217105,217104,213557,213562,213565,217104,6,300,,,
trial,html.Screen,4_27_0,2023-05-01T16:10:07.191Z,,0,1,,2950,response,ISIC_3418245.JPG,,ISIC_0033555.JPG,ISIC_3418245.JPG,false,1,keypress(m),500,220055,220054,217101,217105,217104,220061,6,300,28,,ISIC_0033555.JPG
break,html.Screen,4_27_1,2023-05-01T16:10:07.193Z,,0,,,NaN,,,,,,false,,,,220057,220057,,220055,,220061,6,300,,,
break_continue,html.Screen,4_27_2,2023-05-01T16:10:07.194Z,,0,,,NaN,,,,,,false,,,,220058,220058,,220057,,220061,6,300,,,
sequence,flow.Sequence,4_27,2023-05-01T16:10:07.194Z,,0,,,2954,completion,,,,,false,,,,220058,220058,217101,217105,217104,220061,6,300,,,
trial,html.Screen,4_28_0,2023-05-01T16:10:14.397Z,,0,1,,7199,response,ISIC_0057913.JPG,,ISIC_3305055.JPG,ISIC_3305055.JPG,false,0,keypress(z),500,227261,227260,220054,220058,220061,227265,6,300,29,,ISIC_0057913.JPG
break,html.Screen,4_28_1,2023-05-01T16:10:14.398Z,,0,,,NaN,,,,,,false,,,,227262,227262,,227262,,227265,6,300,,,
break_continue,html.Screen,4_28_2,2023-05-01T16:10:14.399Z,,0,,,NaN,,,,,,false,,,,227263,227263,,227263,,227265,6,300,,,
sequence,flow.Sequence,4_28,2023-05-01T16:10:14.399Z,,0,,,7202,completion,,,,,false,,,,227263,227263,220054,220058,220061,227265,6,300,,,
trial,html.Screen,4_29_0,2023-05-01T16:10:20.003Z,,0,1,,5602,response,ISIC_4966865.JPG,,ISIC_2457859.JPG,ISIC_4966865.JPG,false,1,keypress(m),500,232868,232867,227257,227263,227265,232870,6,300,30,,ISIC_2457859.JPG
break,html.Screen,4_29_1,2023-05-01T16:10:20.005Z,,0,,,NaN,,,,,,false,,,,232869,232868,,232868,,232870,6,300,,,
break_continue,html.Screen,4_29_2,2023-05-01T16:10:20.005Z,,0,,,NaN,,,,,,false,,,,232870,232870,,232869,,232870,6,300,,,
sequence,flow.Sequence,4_29,2023-05-01T16:10:20.006Z,,0,,,5605,completion,,,,,false,,,,232870,232870,227257,227263,227265,232870,6,300,,,
trial,html.Screen,4_30_0,2023-05-01T16:10:22.915Z,,0,1,,2909,response,ISIC_0072021.JPG,,ISIC_0523125.JPG,ISIC_0523125.JPG,false,0,keypress(z),500,235779,235779,232864,232870,232870,235785,6,300,31,,ISIC_0072021.JPG
break,html.Screen,4_30_1,2023-05-01T16:10:22.916Z,,0,,,NaN,,,,,,false,,,,235781,235780,,235779,,235785,6,300,,,
break_continue,html.Screen,4_30_2,2023-05-01T16:10:22.917Z,,0,,,NaN,,,,,,false,,,,235781,235781,,235781,,235785,6,300,,,
sequence,flow.Sequence,4_30,2023-05-01T16:10:22.917Z,,0,,,2911,completion,,,,,false,,,,235781,235781,232864,232870,232870,235785,6,300,,,
trial,html.Screen,4_31_0,2023-05-01T16:10:27.890Z,,0,1,,4968,response,ISIC_9028997.JPG,,ISIC_9727132.JPG,ISIC_9727132.JPG,false,0,keypress(z),500,240754,240753,235778,235782,235785,240759,6,300,32,,ISIC_9028997.JPG
break,html.Screen,4_31_1,2023-05-01T16:10:27.891Z,,0,,,NaN,,,,,,false,,,,240755,240755,,240754,,240759,6,300,,,
break_continue,html.Screen,4_31_2,2023-05-01T16:10:27.892Z,,0,,,NaN,,,,,,false,,,,240756,240756,,240755,,240759,6,300,,,
sequence,flow.Sequence,4_31,2023-05-01T16:10:27.892Z,,0,,,4971,completion,,,,,false,,,,240756,240756,235778,235781,235785,240759,6,300,,,
trial,html.Screen,4_32_0,2023-05-01T16:10:31.098Z,,0,1,,3203,response,ISIC_0026694.JPG,,ISIC_2585066.JPG,ISIC_2585066.JPG,false,0,keypress(z),500,243962,243962,240753,240756,240759,243965,6,300,33,,ISIC_0026694.JPG
break,html.Screen,4_32_1,2023-05-01T16:10:31.100Z,,0,,,NaN,,,,,,false,,,,243964,243964,,243962,,243965,6,300,,,
break_continue,html.Screen,4_32_2,2023-05-01T16:10:31.101Z,,0,,,NaN,,,,,,false,,,,243964,243964,,243964,,243965,6,300,,,
sequence,flow.Sequence,4_32,2023-05-01T16:10:31.101Z,,0,,,3205,completion,,,,,false,,,,243965,243964,240753,240756,240759,243965,6,300,,,
trial,html.Screen,4_33_0,2023-05-01T16:10:34.757Z,,0,1,,3656,response,ISIC_0029693.JPG,,ISIC_3610783.JPG,ISIC_0029693.JPG,false,1,keypress(m),500,247621,247621,243959,243966,243965,247625,6,300,34,,ISIC_3610783.JPG
break,html.Screen,4_33_1,2023-05-01T16:10:34.759Z,,0,,,NaN,,,,,,false,,,,247623,247623,,247622,,247625,6,300,,,
break_continue,html.Screen,4_33_2,2023-05-01T16:10:34.759Z,,0,,,NaN,,,,,,false,,,,247623,247623,,247623,,247625,6,300,,,
sequence,flow.Sequence,4_33,2023-05-01T16:10:34.759Z,,0,,,3658,completion,,,,,false,,,,247623,247623,243959,243965,243965,247625,6,300,,,
trial,html.Screen,4_34_0,2023-05-01T16:10:38.760Z,,0,1,,4000,response,ISIC_0032736.JPG,,ISIC_0066878.JPG,ISIC_0066878.JPG,false,0,keypress(z),500,251625,251625,247619,247623,247625,251630,6,300,35,,ISIC_0032736.JPG
break,html.Screen,4_34_1,2023-05-01T16:10:38.762Z,,0,,,NaN,,,,,,false,,,,251627,251626,,251625,,251630,6,300,,,
break_continue,html.Screen,4_34_2,2023-05-01T16:10:38.762Z,,0,,,NaN,,,,,,false,,,,251627,251627,,251627,,251630,6,300,,,
sequence,flow.Sequence,4_34,2023-05-01T16:10:38.762Z,,0,,,4002,completion,,,,,false,,,,251627,251627,247619,247623,247625,251630,6,300,,,
trial,html.Screen,4_35_0,2023-05-01T16:10:41.942Z,,0,1,,3177,response,ISIC_0031507.JPG,,ISIC_1054090.JPG,ISIC_1054090.JPG,false,0,keypress(z),500,254807,254807,251624,251627,251630,254817,6,300,36,,ISIC_0031507.JPG
break,html.Screen,4_35_1,2023-05-01T16:10:41.943Z,,0,,,NaN,,,,,,false,,,,254808,254808,,254807,,254817,6,300,,,
break_continue,html.Screen,4_35_2,2023-05-01T16:10:41.944Z,,0,,,NaN,,,,,,false,,,,254809,254808,,254808,,254817,6,300,,,
sequence,flow.Sequence,4_35,2023-05-01T16:10:41.944Z,,0,,,3178,completion,,,,,false,,,,254809,254808,251624,251627,251630,254817,6,300,,,
trial,html.Screen,4_36_0,2023-05-01T16:10:47.394Z,,0,1,,5441,response,ISIC_0062709.JPG,,ISIC_0283506.JPG,ISIC_0062709.JPG,false,1,keypress(m),500,260259,260258,254811,254809,254817,260264,6,300,37,,ISIC_0283506.JPG
break,html.Screen,4_36_1,2023-05-01T16:10:47.394Z,,0,,,NaN,,,,,,false,,,,260259,260259,,260259,,260264,6,300,,,
break_continue,html.Screen,4_36_2,2023-05-01T16:10:47.395Z,,0,,,NaN,,,,,,false,,,,260259,260259,,260259,,260264,6,300,,,
sequence,flow.Sequence,4_36,2023-05-01T16:10:47.395Z,,0,,,5442,completion,,,,,false,,,,260260,260259,254811,254809,254817,260264,6,300,,,
trial,html.Screen,4_37_0,2023-05-01T16:10:54.893Z,,0,1,,7493,response,ISIC_3260571.JPG,,ISIC_5468164.JPG,ISIC_5468164.JPG,false,0,keypress(z),500,267758,267757,260258,260260,260264,267760,6,300,38,,ISIC_3260571.JPG
break,html.Screen,4_37_1,2023-05-01T16:10:54.895Z,,0,,,NaN,,,,,,false,,,,267759,267759,,267758,,267760,6,300,,,
break_continue,html.Screen,4_37_2,2023-05-01T16:10:54.895Z,,0,,,NaN,,,,,,false,,,,267761,267760,,267760,,267760,6,300,,,
sequence,flow.Sequence,4_37,2023-05-01T16:10:54.895Z,,0,,,7496,completion,,,,,false,,,,267761,267760,260258,260260,260264,267760,6,300,,,
trial,html.Screen,4_38_0,2023-05-01T16:10:59.640Z,,0,1,,4745,response,ISIC_2731621.JPG,,ISIC_0000029.JPG,ISIC_0000029.JPG,false,0,keypress(z),500,272505,272505,267754,267761,267760,272510,6,300,39,,ISIC_2731621.JPG
break,html.Screen,4_38_1,2023-05-01T16:10:59.642Z,,0,,,NaN,,,,,,false,,,,272506,272506,,272505,,272510,6,300,,,
break_continue,html.Screen,4_38_2,2023-05-01T16:10:59.642Z,,0,,,NaN,,,,,,false,,,,272508,272507,,272506,,272510,6,300,,,
sequence,flow.Sequence,4_38,2023-05-01T16:10:59.643Z,,0,,,4747,completion,,,,,false,,,,272508,272507,267754,267761,267760,272510,6,300,,,
trial,html.Screen,4_39_0,2023-05-01T16:11:06.454Z,,0,1,,6809,response,ISIC_0025892.JPG,,ISIC_2746860.JPG,ISIC_2746860.JPG,false,0,keypress(z),500,279319,279319,272504,272508,272510,279321,6,300,40,,ISIC_0025892.JPG
break,html.Screen,4_39_1,2023-05-01T16:11:06.456Z,,0,,,NaN,,,,,,false,,,,279320,279320,,279319,,279321,6,300,,,
break_continue,html.Screen,4_39_2,2023-05-01T16:11:06.456Z,,0,,,NaN,,,,,,false,,,,279321,279321,,279320,,279321,6,300,,,
sequence,flow.Sequence,4_39,2023-05-01T16:11:06.456Z,,0,,,6811,completion,,,,,false,,,,279321,279321,272504,272508,272510,279321,6,300,,,
trial,html.Screen,4_40_0,2023-05-01T16:11:15.336Z,,0,1,,8880,response,ISIC_0014657.JPG,,ISIC_0011403.JPG,ISIC_0014657.JPG,false,1,keypress(m),500,288201,288201,279319,279321,279321,288204,6,300,41,,ISIC_0011403.JPG
break,html.Screen,4_40_1,2023-05-01T16:11:15.338Z,,0,,,NaN,,,,,,false,,,,288202,288202,,288201,,288204,6,300,,,
break_continue,html.Screen,4_40_2,2023-05-01T16:11:15.338Z,,0,,,NaN,,,,,,false,,,,288203,288203,,288203,,288204,6,300,,,
sequence,flow.Sequence,4_40,2023-05-01T16:11:15.338Z,,0,,,8882,completion,,,,,false,,,,288204,288203,279319,279321,279321,288204,6,300,,,
trial,html.Screen,4_41_0,2023-05-01T16:11:21.930Z,,0,1,,6590,response,ISIC_0000550.JPG,,ISIC_0012512.JPG,ISIC_0012512.JPG,false,0,keypress(z),500,294795,294794,288198,288204,288204,294797,6,300,42,,ISIC_0000550.JPG
break,html.Screen,4_41_1,2023-05-01T16:11:21.931Z,,0,,,NaN,,,,,,false,,,,294796,294795,,294795,,294797,6,300,,,
break_continue,html.Screen,4_41_2,2023-05-01T16:11:21.932Z,,0,,,NaN,,,,,,false,,,,294797,294796,,294796,,294797,6,300,,,
sequence,flow.Sequence,4_41,2023-05-01T16:11:21.932Z,,0,,,6592,completion,,,,,false,,,,294797,294796,288198,288204,288204,294797,6,300,,,
trial,html.Screen,4_42_0,2023-05-01T16:11:28.890Z,,0,1,,6957,response,ISIC_0248628.JPG,,ISIC_1795529.JPG,ISIC_0248628.JPG,false,1,keypress(m),500,301754,301754,294789,294797,294797,301759,6,300,43,,ISIC_1795529.JPG
break,html.Screen,4_42_1,2023-05-01T16:11:28.892Z,,0,,,NaN,,,,,,false,,,,301756,301756,,301755,,301759,6,300,,,
break_continue,html.Screen,4_42_2,2023-05-01T16:11:28.892Z,,0,,,NaN,,,,,,false,,,,301757,301757,,301756,,301759,6,300,,,
sequence,flow.Sequence,4_42,2023-05-01T16:11:28.892Z,,0,,,6960,completion,,,,,false,,,,301757,301757,294789,294797,294797,301759,6,300,,,
trial,html.Screen,4_43_0,2023-05-01T16:11:34.937Z,,0,1,,6042,response,ISIC_8692155.JPG,,ISIC_4911407.JPG,ISIC_8692155.JPG,false,1,keypress(m),500,307802,307801,301753,301757,301759,307806,6,300,44,,ISIC_4911407.JPG
break,html.Screen,4_43_1,2023-05-01T16:11:34.938Z,,0,,,NaN,,,,,,false,,,,307803,307803,,307802,,307806,6,300,,,
break_continue,html.Screen,4_43_2,2023-05-01T16:11:34.939Z,,0,,,NaN,,,,,,false,,,,307803,307803,,307803,,307806,6,300,,,
sequence,flow.Sequence,4_43,2023-05-01T16:11:34.939Z,,0,,,6044,completion,,,,,false,,,,307804,307803,301753,301757,301759,307806,6,300,,,
trial,html.Screen,4_44_0,2023-05-01T16:11:40.807Z,,0,1,,5866,response,ISIC_0032095.JPG,,ISIC_0032233.JPG,ISIC_0032095.JPG,false,1,keypress(m),500,313672,313672,307798,307804,307806,313677,6,300,45,,ISIC_0032233.JPG
break,html.Screen,4_44_1,2023-05-01T16:11:40.808Z,,0,,,NaN,,,,,,false,,,,313673,313673,,313672,,313677,6,300,,,
break_continue,html.Screen,4_44_2,2023-05-01T16:11:40.809Z,,0,,,NaN,,,,,,false,,,,313674,313674,,313674,,313677,6,300,,,
sequence,flow.Sequence,4_44,2023-05-01T16:11:40.809Z,,0,,,5868,completion,,,,,false,,,,313674,313674,307798,307804,307806,313677,6,300,,,
trial,html.Screen,4_45_0,2023-05-01T16:11:43.787Z,,0,1,,2975,response,ISIC_0033641.JPG,,ISIC_0069668.JPG,ISIC_0033641.JPG,false,1,keypress(m),500,316652,316652,313670,313674,313677,316659,6,300,46,,ISIC_0069668.JPG
break,html.Screen,4_45_1,2023-05-01T16:11:43.789Z,,0,,,NaN,,,,,,false,,,,316654,316654,,316652,,316659,6,300,,,
break_continue,html.Screen,4_45_2,2023-05-01T16:11:43.789Z,,0,,,NaN,,,,,,false,,,,316654,316654,,316654,,316659,6,300,,,
sequence,flow.Sequence,4_45,2023-05-01T16:11:43.790Z,,0,,,2977,completion,,,,,false,,,,316655,316654,313670,313674,313677,316659,6,300,,,
trial,html.Screen,4_46_0,2023-05-01T16:11:47.875Z,,0,1,,4081,response,ISIC_0029397.JPG,,ISIC_6416533.JPG,ISIC_6416533.JPG,false,0,keypress(z),500,320740,320740,316650,316655,316659,320743,6,300,47,,ISIC_0029397.JPG
break,html.Screen,4_46_1,2023-05-01T16:11:47.876Z,,0,,,NaN,,,,,,false,,,,320741,320740,,320740,,320743,6,300,,,
break_continue,html.Screen,4_46_2,2023-05-01T16:11:47.876Z,,0,,,NaN,,,,,,false,,,,320741,320741,,320741,,320743,6,300,,,
sequence,flow.Sequence,4_46,2023-05-01T16:11:47.876Z,,0,,,4082,completion,,,,,false,,,,320741,320741,316650,316655,316659,320743,6,300,,,
trial,html.Screen,4_47_0,2023-05-01T16:11:51.151Z,,0,1,,3273,response,ISIC_8588033.JPG,,ISIC_4554381.JPG,ISIC_8588033.JPG,false,1,keypress(m),500,324016,324016,320735,320741,320743,324021,6,300,48,,ISIC_4554381.JPG
break,html.Screen,4_47_1,2023-05-01T16:11:51.153Z,,0,,,NaN,,,,,,false,,,,324018,324018,,324017,,324021,6,300,,,
break_continue,html.Screen,4_47_2,2023-05-01T16:11:51.154Z,,0,,,NaN,,,,,,false,,,,324018,324018,,324018,,324021,6,300,,,
sequence,flow.Sequence,4_47,2023-05-01T16:11:51.154Z,,0,,,3275,completion,,,,,false,,,,324018,324018,320735,320741,320743,324021,6,300,,,
trial,html.Screen,4_48_0,2023-05-01T16:11:53.854Z,,0,1,,2699,response,ISIC_0027253.JPG,,ISIC_0010822.JPG,ISIC_0010822.JPG,false,0,keypress(z),500,326720,326720,324013,324019,324021,326723,6,300,49,,ISIC_0027253.JPG
break,html.Screen,4_48_1,2023-05-01T16:11:53.856Z,,0,,,NaN,,,,,,false,,,,326721,326720,,326720,,326723,6,300,,,
break_continue,html.Screen,4_48_2,2023-05-01T16:11:53.856Z,,0,,,NaN,,,,,,false,,,,326721,326721,,326721,,326723,6,300,,,
sequence,flow.Sequence,4_48,2023-05-01T16:11:53.857Z,,0,,,2700,completion,,,,,false,,,,326721,326721,324013,324019,324021,326723,6,300,,,
trial,html.Screen,4_49_0,2023-05-01T16:11:58.013Z,,0,1,,4155,response,ISIC_0058950.JPG,,ISIC_0645477.JPG,ISIC_0058950.JPG,false,1,keypress(m),500,330878,330878,326716,326721,326723,330880,6,300,50,,ISIC_0645477.JPG
break,html.Screen,4_49_1,2023-05-01T16:12:03.006Z,,0,,,5005,timeout,,,,,false,,,,335871,335867,330874,330879,330880,335885,6,300,,,
break_continue,html.Screen,4_49_2,2023-05-01T16:12:14.785Z,,0,,,11745,response,,,,,false,continue,keypress(Space),,347649,347630,335867,335872,335885,347652,6,300,,,
sequence,flow.Sequence,4_49,2023-05-01T16:12:14.785Z,,0,,,20907,completion,,,,,false,,,,347649,347630,326716,326721,326723,347652,6,300,,,
trial,html.Screen,4_50_0,2023-05-01T16:12:18.622Z,,0,2,,3835,response,ISIC_0032671.JPG,,ISIC_3123711.JPG,ISIC_3123711.JPG,false,0,keypress(z),500,351487,351487,347648,347649,347652,351494,6,300,1,,ISIC_0032671.JPG
break,html.Screen,4_50_1,2023-05-01T16:12:18.625Z,,0,,,NaN,,,,,,false,,,,351490,351488,,351487,,351494,6,300,,,
break_continue,html.Screen,4_50_2,2023-05-01T16:12:18.626Z,,0,,,NaN,,,,,,false,,,,351491,351491,,351490,,351494,6,300,,,
sequence,flow.Sequence,4_50,2023-05-01T16:12:18.626Z,,0,,,3839,completion,,,,,false,,,,351491,351491,347648,347649,347652,351494,6,300,,,
trial,html.Screen,4_51_0,2023-05-01T16:12:22.067Z,,0,2,,3438,response,ISIC_0029013.JPG,,ISIC_5063476.JPG,ISIC_0029013.JPG,false,1,keypress(m),500,354932,354932,351487,351491,351494,354936,6,300,2,,ISIC_5063476.JPG
break,html.Screen,4_51_1,2023-05-01T16:12:22.068Z,,0,,,NaN,,,,,,false,,,,354933,354933,,354932,,354936,6,300,,,
break_continue,html.Screen,4_51_2,2023-05-01T16:12:22.069Z,,0,,,NaN,,,,,,false,,,,354934,354933,,354933,,354936,6,300,,,
sequence,flow.Sequence,4_51,2023-05-01T16:12:22.069Z,,0,,,3439,completion,,,,,false,,,,354934,354933,351487,351491,351494,354936,6,300,,,
trial,html.Screen,4_52_0,2023-05-01T16:12:25.199Z,,0,2,,3127,response,ISIC_0046635.JPG,,ISIC_8184471.JPG,ISIC_0046635.JPG,false,1,keypress(m),500,358063,358063,354929,354934,354936,358068,6,300,3,,ISIC_8184471.JPG
break,html.Screen,4_52_1,2023-05-01T16:12:25.200Z,,0,,,NaN,,,,,,false,,,,358065,358065,,358063,,358068,6,300,,,
break_continue,html.Screen,4_52_2,2023-05-01T16:12:25.200Z,,0,,,NaN,,,,,,false,,,,358065,358065,,358065,,358068,6,300,,,
sequence,flow.Sequence,4_52,2023-05-01T16:12:25.201Z,,0,,,3129,completion,,,,,false,,,,358065,358065,354929,354934,354936,358068,6,300,,,
trial,html.Screen,4_53_0,2023-05-01T16:12:28.807Z,,0,2,,3604,response,ISIC_0065233.JPG,,ISIC_5765854.JPG,ISIC_5765854.JPG,false,0,keypress(z),500,361673,361672,358062,358065,358068,361674,6,300,4,,ISIC_0065233.JPG
break,html.Screen,4_53_1,2023-05-01T16:12:28.809Z,,0,,,NaN,,,,,,false,,,,361674,361674,,361673,,361674,6,300,,,
break_continue,html.Screen,4_53_2,2023-05-01T16:12:28.810Z,,0,,,NaN,,,,,,false,,,,361675,361675,,361675,,361674,6,300,,,
sequence,flow.Sequence,4_53,2023-05-01T16:12:28.810Z,,0,,,3607,completion,,,,,false,,,,361675,361675,358062,358065,358068,361674,6,300,,,
trial,html.Screen,4_54_0,2023-05-01T16:12:32.050Z,,0,2,,3241,response,ISIC_0012887.JPG,,ISIC_9791275.JPG,ISIC_0012887.JPG,false,1,keypress(m),500,364915,364915,361667,361675,361674,364927,6,300,5,,ISIC_9791275.JPG
break,html.Screen,4_54_1,2023-05-01T16:12:32.052Z,,0,,,NaN,,,,,,false,,,,364916,364916,,364915,,364927,6,300,,,
break_continue,html.Screen,4_54_2,2023-05-01T16:12:32.052Z,,0,,,NaN,,,,,,false,,,,364918,364918,,364917,,364927,6,300,,,
sequence,flow.Sequence,4_54,2023-05-01T16:12:32.053Z,,0,,,3244,completion,,,,,false,,,,364918,364918,361667,361675,361674,364927,6,300,,,
trial,html.Screen,4_55_0,2023-05-01T16:12:34.820Z,,0,2,,2758,response,ISIC_0062161.JPG,,ISIC_0063516.JPG,ISIC_0063516.JPG,false,0,keypress(z),500,367686,367685,364921,364918,364927,367691,6,300,6,,ISIC_0062161.JPG
break,html.Screen,4_55_1,2023-05-01T16:12:34.822Z,,0,,,NaN,,,,,,false,,,,367687,367686,,367686,,367691,6,300,,,
break_continue,html.Screen,4_55_2,2023-05-01T16:12:34.823Z,,0,,,NaN,,,,,,false,,,,367688,367688,,367687,,367691,6,300,,,
sequence,flow.Sequence,4_55,2023-05-01T16:12:34.823Z,,0,,,2761,completion,,,,,false,,,,367688,367688,364921,364918,364927,367691,6,300,,,
trial,html.Screen,4_56_0,2023-05-01T16:12:37.464Z,,0,2,,2637,response,ISIC_0058496.JPG,,ISIC_0065774.JPG,ISIC_0058496.JPG,false,1,keypress(m),500,370328,370328,367684,367688,367691,370332,6,300,7,,ISIC_0065774.JPG
break,html.Screen,4_56_1,2023-05-01T16:12:37.466Z,,0,,,NaN,,,,,,false,,,,370331,370330,,370328,,370332,6,300,,,
break_continue,html.Screen,4_56_2,2023-05-01T16:12:37.466Z,,0,,,NaN,,,,,,false,,,,370331,370331,,370331,,370332,6,300,,,
sequence,flow.Sequence,4_56,2023-05-01T16:12:37.466Z,,0,,,2640,completion,,,,,false,,,,370331,370331,367684,367688,367691,370332,6,300,,,
trial,html.Screen,4_57_0,2023-05-01T16:12:40.517Z,,0,2,,3048,response,ISIC_9048840.JPG,,ISIC_2479134.JPG,ISIC_9048840.JPG,false,1,keypress(m),500,373381,373380,370326,370331,370332,373386,6,300,8,,ISIC_2479134.JPG
break,html.Screen,4_57_1,2023-05-01T16:12:40.519Z,,0,,,NaN,,,,,,false,,,,373383,373383,,373381,,373386,6,300,,,
break_continue,html.Screen,4_57_2,2023-05-01T16:12:40.519Z,,0,,,NaN,,,,,,false,,,,373383,373383,,373383,,373386,6,300,,,
sequence,flow.Sequence,4_57,2023-05-01T16:12:40.519Z,,0,,,3051,completion,,,,,false,,,,373383,373383,370326,370331,370332,373386,6,300,,,
trial,html.Screen,4_58_0,2023-05-01T16:12:43.622Z,,0,2,,3100,response,ISIC_0010098.JPG,,ISIC_0025603.JPG,ISIC_0025603.JPG,false,0,keypress(z),500,376486,376486,373380,373383,373386,376489,6,300,9,,ISIC_0010098.JPG
break,html.Screen,4_58_1,2023-05-01T16:12:43.624Z,,0,,,NaN,,,,,,false,,,,376488,376488,,376486,,376489,6,300,,,
break_continue,html.Screen,4_58_2,2023-05-01T16:12:43.625Z,,0,,,NaN,,,,,,false,,,,376490,376490,,376489,,376489,6,300,,,
sequence,flow.Sequence,4_58,2023-05-01T16:12:43.626Z,,0,,,3104,completion,,,,,false,,,,376490,376490,373380,373383,373386,376489,6,300,,,
trial,html.Screen,4_59_0,2023-05-01T16:12:47.183Z,,0,2,,3558,response,ISIC_2742786.JPG,,ISIC_0033074.JPG,ISIC_2742786.JPG,false,1,keypress(m),500,380048,380047,376482,376490,376489,380052,6,300,10,,ISIC_0033074.JPG
break,html.Screen,4_59_1,2023-05-01T16:12:47.184Z,,0,,,NaN,,,,,,false,,,,380049,380049,,380048,,380052,6,300,,,
break_continue,html.Screen,4_59_2,2023-05-01T16:12:47.185Z,,0,,,NaN,,,,,,false,,,,380049,380049,,380049,,380052,6,300,,,
sequence,flow.Sequence,4_59,2023-05-01T16:12:47.185Z,,0,,,3560,completion,,,,,false,,,,380049,380049,376482,376490,376489,380052,6,300,,,
trial,html.Screen,4_60_0,2023-05-01T16:12:49.868Z,,0,2,,2680,response,ISIC_6507640.JPG,,ISIC_8835545.JPG,ISIC_6507640.JPG,false,1,keypress(m),500,382732,382732,380045,380049,380052,382736,6,300,11,,ISIC_8835545.JPG
break,html.Screen,4_60_1,2023-05-01T16:12:49.870Z,,0,,,NaN,,,,,,false,,,,382734,382733,,382733,,382736,6,300,,,
break_continue,html.Screen,4_60_2,2023-05-01T16:12:49.870Z,,0,,,NaN,,,,,,false,,,,382734,382734,,382734,,382736,6,300,,,
sequence,flow.Sequence,4_60,2023-05-01T16:12:49.870Z,,0,,,2682,completion,,,,,false,,,,382734,382734,380045,380049,380052,382736,6,300,,,
trial,html.Screen,4_61_0,2023-05-01T16:12:52.594Z,,0,2,,2722,response,ISIC_2908315.JPG,,ISIC_0014974.JPG,ISIC_2908315.JPG,false,1,keypress(m),500,385458,385458,382730,382734,382736,385463,6,300,12,,ISIC_0014974.JPG
break,html.Screen,4_61_1,2023-05-01T16:12:52.596Z,,0,,,NaN,,,,,,false,,,,385460,385460,,385459,,385463,6,300,,,
break_continue,html.Screen,4_61_2,2023-05-01T16:12:52.597Z,,0,,,NaN,,,,,,false,,,,385460,385460,,385460,,385463,6,300,,,
sequence,flow.Sequence,4_61,2023-05-01T16:12:52.597Z,,0,,,2724,completion,,,,,false,,,,385461,385460,382730,382734,382736,385463,6,300,,,
trial,html.Screen,4_62_0,2023-05-01T16:12:55.354Z,,0,2,,2755,response,ISIC_0294399.JPG,,ISIC_0065351.JPG,ISIC_0065351.JPG,false,0,keypress(z),500,388218,388218,385456,385461,385463,388220,6,300,13,,ISIC_0294399.JPG
break,html.Screen,4_62_1,2023-05-01T16:12:55.356Z,,0,,,NaN,,,,,,false,,,,388220,388219,,388218,,388220,6,300,,,
break_continue,html.Screen,4_62_2,2023-05-01T16:12:55.356Z,,0,,,NaN,,,,,,false,,,,388221,388221,,388220,,388220,6,300,,,
sequence,flow.Sequence,4_62,2023-05-01T16:12:55.356Z,,0,,,2758,completion,,,,,false,,,,388221,388221,385456,385461,385463,388220,6,300,,,
trial,html.Screen,4_63_0,2023-05-01T16:12:58.759Z,,0,2,,3404,response,ISIC_0033007.JPG,,ISIC_5233226.JPG,ISIC_5233226.JPG,false,0,keypress(z),500,391624,391624,388213,388221,388220,391625,6,300,14,,ISIC_0033007.JPG
break,html.Screen,4_63_1,2023-05-01T16:12:58.761Z,,0,,,NaN,,,,,,false,,,,391625,391624,,391624,,391625,6,300,,,
break_continue,html.Screen,4_63_2,2023-05-01T16:12:58.761Z,,0,,,NaN,,,,,,false,,,,391625,391625,,391625,,391625,6,300,,,
sequence,flow.Sequence,4_63,2023-05-01T16:12:58.761Z,,0,,,3405,completion,,,,,false,,,,391625,391625,388213,388221,388220,391625,6,300,,,
trial,html.Screen,4_64_0,2023-05-01T16:13:02.595Z,,0,2,,3834,response,ISIC_0000585.JPG,,ISIC_9865097.JPG,ISIC_0000585.JPG,false,1,keypress(m),500,395460,395459,391625,391625,391625,395460,6,300,15,,ISIC_9865097.JPG
break,html.Screen,4_64_1,2023-05-01T16:13:02.597Z,,0,,,NaN,,,,,,false,,,,395461,395461,,395460,,395460,6,300,,,
break_continue,html.Screen,4_64_2,2023-05-01T16:13:02.598Z,,0,,,NaN,,,,,,false,,,,395463,395463,,395462,,395460,6,300,,,
sequence,flow.Sequence,4_64,2023-05-01T16:13:02.598Z,,0,,,3838,completion,,,,,false,,,,395463,395463,391625,391625,391625,395460,6,300,,,
trial,html.Screen,4_65_0,2023-05-01T16:13:05.702Z,,0,2,,3106,response,ISIC_9417173.JPG,,ISIC_0000155.JPG,ISIC_9417173.JPG,false,1,keypress(m),500,398566,398566,395454,395463,395460,398569,6,300,16,,ISIC_0000155.JPG
break,html.Screen,4_65_1,2023-05-01T16:13:05.703Z,,0,,,NaN,,,,,,false,,,,398568,398568,,398566,,398569,6,300,,,
break_continue,html.Screen,4_65_2,2023-05-01T16:13:05.704Z,,0,,,NaN,,,,,,false,,,,398569,398568,,398568,,398569,6,300,,,
sequence,flow.Sequence,4_65,2023-05-01T16:13:05.704Z,,0,,,3108,completion,,,,,false,,,,398569,398568,395454,395463,395460,398569,6,300,,,
trial,html.Screen,4_66_0,2023-05-01T16:13:08.385Z,,0,2,,2680,response,ISIC_0058496.JPG,,ISIC_0046222.JPG,ISIC_0046222.JPG,false,0,keypress(z),500,401249,401249,398562,398569,398569,401253,6,300,17,,ISIC_0058496.JPG
break,html.Screen,4_66_1,2023-05-01T16:13:08.386Z,,0,,,NaN,,,,,,false,,,,401250,401250,,401250,,401253,6,300,,,
break_continue,html.Screen,4_66_2,2023-05-01T16:13:08.386Z,,0,,,NaN,,,,,,false,,,,401250,401250,,401250,,401253,6,300,,,
sequence,flow.Sequence,4_66,2023-05-01T16:13:08.386Z,,0,,,2681,completion,,,,,false,,,,401250,401250,398562,398569,398569,401253,6,300,,,
trial,html.Screen,4_67_0,2023-05-01T16:13:11.212Z,,0,2,,2822,response,ISIC_9476244.JPG,,ISIC_9015182.JPG,ISIC_9476244.JPG,false,1,keypress(m),500,404076,404075,401247,401250,401253,404083,6,300,18,,ISIC_9015182.JPG
break,html.Screen,4_67_1,2023-05-01T16:13:11.213Z,,0,,,NaN,,,,,,false,,,,404078,404077,,404076,,404083,6,300,,,
break_continue,html.Screen,4_67_2,2023-05-01T16:13:11.213Z,,0,,,NaN,,,,,,false,,,,404078,404078,,404078,,404083,6,300,,,
sequence,flow.Sequence,4_67,2023-05-01T16:13:11.214Z,,0,,,2825,completion,,,,,false,,,,404078,404078,401247,401250,401253,404083,6,300,,,
trial,html.Screen,4_68_0,2023-05-01T16:13:14.149Z,,0,2,,2930,response,ISIC_0030694.JPG,,ISIC_4570724.JPG,ISIC_4570724.JPG,false,0,keypress(z),500,407013,407013,404076,404078,404083,407016,6,300,19,,ISIC_0030694.JPG
break,html.Screen,4_68_1,2023-05-01T16:13:14.150Z,,0,,,NaN,,,,,,false,,,,407015,407014,,407013,,407016,6,300,,,
break_continue,html.Screen,4_68_2,2023-05-01T16:13:14.151Z,,0,,,NaN,,,,,,false,,,,407015,407015,,407015,,407016,6,300,,,
sequence,flow.Sequence,4_68,2023-05-01T16:13:14.151Z,,0,,,2932,completion,,,,,false,,,,407015,407015,404076,404078,404083,407016,6,300,,,
trial,html.Screen,4_69_0,2023-05-01T16:13:17.074Z,,0,2,,2923,response,ISIC_2376016.JPG,,ISIC_0056921.JPG,ISIC_2376016.JPG,false,1,keypress(m),500,409939,409939,407010,407015,407016,409942,6,300,20,,ISIC_0056921.JPG
break,html.Screen,4_69_1,2023-05-01T16:13:17.075Z,,0,,,NaN,,,,,,false,,,,409940,409939,,409939,,409942,6,300,,,
break_continue,html.Screen,4_69_2,2023-05-01T16:13:17.076Z,,0,,,NaN,,,,,,false,,,,409940,409940,,409940,,409942,6,300,,,
sequence,flow.Sequence,4_69,2023-05-01T16:13:17.076Z,,0,,,2924,completion,,,,,false,,,,409940,409940,407010,407015,407016,409942,6,300,,,
trial,html.Screen,4_70_0,2023-05-01T16:13:20.153Z,,0,2,,3076,response,ISIC_0011517.JPG,,ISIC_0012883.JPG,ISIC_0012883.JPG,false,0,keypress(z),500,413018,413018,409936,409941,409942,413020,6,300,21,,ISIC_0011517.JPG
break,html.Screen,4_70_1,2023-05-01T16:13:20.155Z,,0,,,NaN,,,,,,false,,,,413019,413018,,413018,,413020,6,300,,,
break_continue,html.Screen,4_70_2,2023-05-01T16:13:20.155Z,,0,,,NaN,,,,,,false,,,,413020,413019,,413019,,413020,6,300,,,
sequence,flow.Sequence,4_70,2023-05-01T16:13:20.155Z,,0,,,3077,completion,,,,,false,,,,413020,413019,409936,409941,409942,413020,6,300,,,
trial,html.Screen,4_71_0,2023-05-01T16:13:22.808Z,,0,2,,2653,response,ISIC_5324623.JPG,,ISIC_0064406.JPG,ISIC_5324623.JPG,false,1,keypress(m),500,415673,415673,413014,413020,413020,415674,6,300,22,,ISIC_0064406.JPG
break,html.Screen,4_71_1,2023-05-01T16:13:22.810Z,,0,,,NaN,,,,,,false,,,,415674,415674,,415673,,415674,6,300,,,
break_continue,html.Screen,4_71_2,2023-05-01T16:13:22.811Z,,0,,,NaN,,,,,,false,,,,415675,415675,,415674,,415674,6,300,,,
sequence,flow.Sequence,4_71,2023-05-01T16:13:22.811Z,,0,,,2655,completion,,,,,false,,,,415675,415675,413014,413020,413020,415674,6,300,,,
trial,html.Screen,4_72_0,2023-05-01T16:13:26.000Z,,0,2,,3190,response,ISIC_0065728.JPG,,ISIC_0027499.JPG,ISIC_0065728.JPG,false,1,keypress(m),500,418864,418864,415668,415675,415674,418868,6,300,23,,ISIC_0027499.JPG
break,html.Screen,4_72_1,2023-05-01T16:13:26.002Z,,0,,,NaN,,,,,,false,,,,418865,418865,,418864,,418868,6,300,,,
break_continue,html.Screen,4_72_2,2023-05-01T16:13:26.002Z,,0,,,NaN,,,,,,false,,,,418866,418866,,418866,,418868,6,300,,,
sequence,flow.Sequence,4_72,2023-05-01T16:13:26.002Z,,0,,,3192,completion,,,,,false,,,,418866,418866,415668,415675,415674,418868,6,300,,,
trial,html.Screen,4_73_0,2023-05-01T16:13:28.956Z,,0,2,,2952,response,ISIC_0010591.JPG,,ISIC_5721110.JPG,ISIC_5721110.JPG,false,0,keypress(z),500,421820,421820,418862,418866,418868,421825,6,300,24,,ISIC_0010591.JPG
break,html.Screen,4_73_1,2023-05-01T16:13:28.957Z,,0,,,NaN,,,,,,false,,,,421821,421821,,421821,,421825,6,300,,,
break_continue,html.Screen,4_73_2,2023-05-01T16:13:28.957Z,,0,,,NaN,,,,,,false,,,,421821,421821,,421821,,421825,6,300,,,
sequence,flow.Sequence,4_73,2023-05-01T16:13:28.957Z,,0,,,2953,completion,,,,,false,,,,421821,421821,418862,418866,418868,421825,6,300,,,
trial,html.Screen,4_74_0,2023-05-01T16:13:31.850Z,,0,2,,2889,response,ISIC_6691962.JPG,,ISIC_4811165.JPG,ISIC_6691962.JPG,false,1,keypress(m),500,424714,424714,421818,421821,421825,424721,6,300,25,,ISIC_4811165.JPG
break,html.Screen,4_74_1,2023-05-01T16:13:31.851Z,,0,,,NaN,,,,,,false,,,,424715,424715,,424715,,424721,6,300,,,
break_continue,html.Screen,4_74_2,2023-05-01T16:13:31.852Z,,0,,,NaN,,,,,,false,,,,424716,424716,,424715,,424721,6,300,,,
sequence,flow.Sequence,4_74,2023-05-01T16:13:31.852Z,,0,,,2891,completion,,,,,false,,,,424716,424716,421818,421821,421825,424721,6,300,,,
trial,html.Screen,4_75_0,2023-05-01T16:13:35.598Z,,0,2,,3740,response,ISIC_0025508.JPG,,ISIC_4720306.JPG,ISIC_4720306.JPG,false,0,keypress(z),500,428462,428461,424709,424717,424721,428466,6,300,26,,ISIC_0025508.JPG
break,html.Screen,4_75_1,2023-05-01T16:13:35.599Z,,0,,,NaN,,,,,,false,,,,428464,428463,,428462,,428466,6,300,,,
break_continue,html.Screen,4_75_2,2023-05-01T16:13:35.600Z,,0,,,NaN,,,,,,false,,,,428464,428464,,428464,,428466,6,300,,,
sequence,flow.Sequence,4_75,2023-05-01T16:13:35.600Z,,0,,,3743,completion,,,,,false,,,,428464,428464,424709,424717,424721,428466,6,300,,,
trial,html.Screen,4_76_0,2023-05-01T16:13:38.314Z,,0,2,,2713,response,ISIC_4796100.JPG,,ISIC_0032278.JPG,ISIC_4796100.JPG,false,1,keypress(m),500,431179,431179,428460,428464,428466,431180,6,300,27,,ISIC_0032278.JPG
break,html.Screen,4_76_1,2023-05-01T16:13:38.316Z,,0,,,NaN,,,,,,false,,,,431181,431179,,431179,,431180,6,300,,,
break_continue,html.Screen,4_76_2,2023-05-01T16:13:38.317Z,,0,,,NaN,,,,,,false,,,,431181,431181,,431181,,431180,6,300,,,
sequence,flow.Sequence,4_76,2023-05-01T16:13:38.317Z,,0,,,2715,completion,,,,,false,,,,431181,431181,428460,428464,428466,431180,6,300,,,
trial,html.Screen,4_77_0,2023-05-01T16:13:43.691Z,,0,2,,5375,response,ISIC_0397464.JPG,,ISIC_0000523.JPG,ISIC_0000523.JPG,false,0,keypress(z),500,436555,436555,431174,431181,431180,436561,6,300,28,,ISIC_0397464.JPG
break,html.Screen,4_77_1,2023-05-01T16:13:43.693Z,,0,,,NaN,,,,,,false,,,,436556,436556,,436555,,436561,6,300,,,
break_continue,html.Screen,4_77_2,2023-05-01T16:13:43.693Z,,0,,,NaN,,,,,,false,,,,436557,436557,,436557,,436561,6,300,,,
sequence,flow.Sequence,4_77,2023-05-01T16:13:43.693Z,,0,,,5377,completion,,,,,false,,,,436557,436557,431174,431181,431180,436561,6,300,,,
trial,html.Screen,4_78_0,2023-05-01T16:13:47.297Z,,0,2,,3600,response,ISIC_0028317.JPG,,ISIC_0543351.JPG,ISIC_0543351.JPG,false,0,keypress(z),500,440162,440161,436555,436557,436561,440166,6,300,29,,ISIC_0028317.JPG
break,html.Screen,4_78_1,2023-05-01T16:13:47.299Z,,0,,,NaN,,,,,,false,,,,440164,440164,,440162,,440166,6,300,,,
break_continue,html.Screen,4_78_2,2023-05-01T16:13:47.300Z,,0,,,NaN,,,,,,false,,,,440164,440164,,440164,,440166,6,300,,,
sequence,flow.Sequence,4_78,2023-05-01T16:13:47.300Z,,0,,,3603,completion,,,,,false,,,,440164,440164,436555,436557,436561,440166,6,300,,,
trial,html.Screen,4_79_0,2023-05-01T16:13:50.113Z,,0,2,,2812,response,ISIC_0010265.JPG,,ISIC_8764464.JPG,ISIC_8764464.JPG,false,0,keypress(z),500,442978,442978,440161,440164,440166,442984,6,300,30,,ISIC_0010265.JPG
break,html.Screen,4_79_1,2023-05-01T16:13:50.115Z,,0,,,NaN,,,,,,false,,,,442979,442979,,442978,,442984,6,300,,,
break_continue,html.Screen,4_79_2,2023-05-01T16:13:50.115Z,,0,,,NaN,,,,,,false,,,,442980,442980,,442979,,442984,6,300,,,
sequence,flow.Sequence,4_79,2023-05-01T16:13:50.116Z,,0,,,2814,completion,,,,,false,,,,442980,442980,440161,440164,440166,442984,6,300,,,
trial,html.Screen,4_80_0,2023-05-01T16:13:54.869Z,,0,2,,4749,response,ISIC_0481702.JPG,,ISIC_6793603.JPG,ISIC_0481702.JPG,false,1,keypress(m),500,447733,447733,442978,442980,442984,447740,6,300,31,,ISIC_6793603.JPG
break,html.Screen,4_80_1,2023-05-01T16:13:54.871Z,,0,,,NaN,,,,,,false,,,,447736,447735,,447733,,447740,6,300,,,
break_continue,html.Screen,4_80_2,2023-05-01T16:13:54.871Z,,0,,,NaN,,,,,,false,,,,447736,447736,,447736,,447740,6,300,,,
sequence,flow.Sequence,4_80,2023-05-01T16:13:54.872Z,,0,,,4752,completion,,,,,false,,,,447736,447736,442978,442980,442984,447740,6,300,,,
trial,html.Screen,4_81_0,2023-05-01T16:13:58.918Z,,0,2,,4041,response,ISIC_0015046.JPG,,ISIC_0029905.JPG,ISIC_0029905.JPG,false,0,keypress(z),500,451782,451781,447729,447736,447740,451788,6,300,32,,ISIC_0015046.JPG
break,html.Screen,4_81_1,2023-05-01T16:13:58.919Z,,0,,,NaN,,,,,,false,,,,451783,451783,,451782,,451788,6,300,,,
break_continue,html.Screen,4_81_2,2023-05-01T16:13:58.920Z,,0,,,NaN,,,,,,false,,,,451784,451784,,451784,,451788,6,300,,,
sequence,flow.Sequence,4_81,2023-05-01T16:13:58.920Z,,0,,,4044,completion,,,,,false,,,,451784,451784,447729,447736,447740,451788,6,300,,,
trial,html.Screen,4_82_0,2023-05-01T16:14:04.940Z,,0,2,,6016,response,ISIC_0064964.JPG,,ISIC_5900778.JPG,ISIC_0064964.JPG,false,1,keypress(m),500,457804,457804,451782,451785,451788,457805,6,300,33,,ISIC_5900778.JPG
break,html.Screen,4_82_1,2023-05-01T16:14:04.941Z,,0,,,NaN,,,,,,false,,,,457806,457806,,457804,,457805,6,300,,,
break_continue,html.Screen,4_82_2,2023-05-01T16:14:04.942Z,,0,,,NaN,,,,,,false,,,,457806,457806,,457806,,457805,6,300,,,
sequence,flow.Sequence,4_82,2023-05-01T16:14:04.942Z,,0,,,6018,completion,,,,,false,,,,457806,457806,451782,451784,451788,457805,6,300,,,
trial,html.Screen,4_83_0,2023-05-01T16:14:09.660Z,,0,2,,4719,response,ISIC_0000274.JPG,,ISIC_2864893.JPG,ISIC_0000274.JPG,false,1,keypress(m),500,462524,462524,457805,457806,457805,462531,6,300,34,,ISIC_2864893.JPG
break,html.Screen,4_83_1,2023-05-01T16:14:09.663Z,,0,,,NaN,,,,,,false,,,,462527,462527,,462525,,462531,6,300,,,
break_continue,html.Screen,4_83_2,2023-05-01T16:14:09.663Z,,0,,,NaN,,,,,,false,,,,462528,462528,,462527,,462531,6,300,,,
sequence,flow.Sequence,4_83,2023-05-01T16:14:09.664Z,,0,,,4723,completion,,,,,false,,,,462528,462528,457805,457806,457805,462531,6,300,,,
trial,html.Screen,4_84_0,2023-05-01T16:14:13.031Z,,0,2,,3364,response,ISIC_6617618.JPG,,ISIC_0013136.JPG,ISIC_6617618.JPG,false,1,keypress(m),500,465896,465895,462525,462528,462531,465900,6,300,35,,ISIC_0013136.JPG
break,html.Screen,4_84_1,2023-05-01T16:14:13.032Z,,0,,,NaN,,,,,,false,,,,465897,465897,,465896,,465900,6,300,,,
break_continue,html.Screen,4_84_2,2023-05-01T16:14:13.033Z,,0,,,NaN,,,,,,false,,,,465897,465897,,465897,,465900,6,300,,,
sequence,flow.Sequence,4_84,2023-05-01T16:14:13.033Z,,0,,,3366,completion,,,,,false,,,,465897,465897,462525,462528,462531,465900,6,300,,,
trial,html.Screen,4_85_0,2023-05-01T16:14:18.594Z,,0,2,,5557,response,ISIC_0033393.JPG,,ISIC_4404772.JPG,ISIC_0033393.JPG,false,1,keypress(m),500,471458,471457,465894,465897,465900,471463,6,300,36,,ISIC_4404772.JPG
break,html.Screen,4_85_1,2023-05-01T16:14:18.595Z,,0,,,NaN,,,,,,false,,,,471459,471459,,471458,,471463,6,300,,,
break_continue,html.Screen,4_85_2,2023-05-01T16:14:18.595Z,,0,,,NaN,,,,,,false,,,,471460,471460,,471459,,471463,6,300,,,
sequence,flow.Sequence,4_85,2023-05-01T16:14:18.596Z,,0,,,5560,completion,,,,,false,,,,471460,471460,465894,465897,465900,471463,6,300,,,
trial,html.Screen,4_86_0,2023-05-01T16:14:23.047Z,,0,2,,4448,response,ISIC_9174306.JPG,,ISIC_6663112.JPG,ISIC_9174306.JPG,false,1,keypress(m),500,475912,475911,471456,471460,471463,475916,6,300,37,,ISIC_6663112.JPG
break,html.Screen,4_86_1,2023-05-01T16:14:23.048Z,,0,,,NaN,,,,,,false,,,,475913,475912,,475912,,475916,6,300,,,
break_continue,html.Screen,4_86_2,2023-05-01T16:14:23.049Z,,0,,,NaN,,,,,,false,,,,475913,475913,,475913,,475916,6,300,,,
sequence,flow.Sequence,4_86,2023-05-01T16:14:23.049Z,,0,,,4450,completion,,,,,false,,,,475913,475913,471456,471460,471463,475916,6,300,,,
trial,html.Screen,4_87_0,2023-05-01T16:14:27.221Z,,0,2,,4169,response,ISIC_0553932.JPG,,ISIC_2131962.JPG,ISIC_0553932.JPG,false,1,keypress(m),500,480085,480085,475910,475913,475916,480091,6,300,38,,ISIC_2131962.JPG
break,html.Screen,4_87_1,2023-05-01T16:14:27.222Z,,0,,,NaN,,,,,,false,,,,480086,480086,,480085,,480091,6,300,,,
break_continue,html.Screen,4_87_2,2023-05-01T16:14:27.222Z,,0,,,NaN,,,,,,false,,,,480087,480087,,480086,,480091,6,300,,,
sequence,flow.Sequence,4_87,2023-05-01T16:14:27.222Z,,0,,,4171,completion,,,,,false,,,,480087,480087,475910,475913,475916,480091,6,300,,,
trial,html.Screen,4_88_0,2023-05-01T16:14:30.258Z,,0,2,,3031,response,ISIC_0032532.JPG,,ISIC_8663136.JPG,ISIC_8663136.JPG,false,0,keypress(z),500,483122,483122,480085,480087,480091,483127,6,300,39,,ISIC_0032532.JPG
break,html.Screen,4_88_1,2023-05-01T16:14:30.259Z,,0,,,NaN,,,,,,false,,,,483124,483124,,483122,,483127,6,300,,,
break_continue,html.Screen,4_88_2,2023-05-01T16:14:30.260Z,,0,,,NaN,,,,,,false,,,,483124,483124,,483124,,483127,6,300,,,
sequence,flow.Sequence,4_88,2023-05-01T16:14:30.260Z,,0,,,3033,completion,,,,,false,,,,483124,483124,480085,480087,480091,483127,6,300,,,
trial,html.Screen,4_89_0,2023-05-01T16:14:34.609Z,,0,2,,4346,response,ISIC_6054977.JPG,,ISIC_0053674.JPG,ISIC_0053674.JPG,false,0,keypress(z),500,487473,487473,483122,483124,483127,487478,6,300,40,,ISIC_6054977.JPG
break,html.Screen,4_89_1,2023-05-01T16:14:34.610Z,,0,,,NaN,,,,,,false,,,,487475,487474,,487473,,487478,6,300,,,
break_continue,html.Screen,4_89_2,2023-05-01T16:14:34.611Z,,0,,,NaN,,,,,,false,,,,487476,487475,,487475,,487478,6,300,,,
sequence,flow.Sequence,4_89,2023-05-01T16:14:34.611Z,,0,,,4348,completion,,,,,false,,,,487476,487475,483122,483124,483127,487478,6,300,,,
trial,html.Screen,4_90_0,2023-05-01T16:14:38.501Z,,0,2,,3886,response,ISIC_0054480.JPG,,ISIC_9268487.JPG,ISIC_0054480.JPG,false,1,keypress(m),500,491365,491364,487471,487476,487478,491368,6,300,41,,ISIC_9268487.JPG
break,html.Screen,4_90_1,2023-05-01T16:14:38.502Z,,0,,,NaN,,,,,,false,,,,491366,491366,,491366,,491368,6,300,,,
break_continue,html.Screen,4_90_2,2023-05-01T16:14:38.503Z,,0,,,NaN,,,,,,false,,,,491367,491367,,491367,,491368,6,300,,,
sequence,flow.Sequence,4_90,2023-05-01T16:14:38.503Z,,0,,,3889,completion,,,,,false,,,,491368,491367,487471,487476,487478,491368,6,300,,,
trial,html.Screen,4_91_0,2023-05-01T16:14:41.726Z,,0,2,,3223,response,ISIC_0070246.JPG,,ISIC_0026247.JPG,ISIC_0070246.JPG,false,1,keypress(m),500,494591,494591,491361,491368,491368,494597,6,300,42,,ISIC_0026247.JPG
break,html.Screen,4_91_1,2023-05-01T16:14:41.727Z,,0,,,NaN,,,,,,false,,,,494591,494591,,494591,,494597,6,300,,,
break_continue,html.Screen,4_91_2,2023-05-01T16:14:41.727Z,,0,,,NaN,,,,,,false,,,,494591,494591,,494591,,494597,6,300,,,
sequence,flow.Sequence,4_91,2023-05-01T16:14:41.727Z,,0,,,3223,completion,,,,,false,,,,494591,494591,491361,491368,491368,494597,6,300,,,
trial,html.Screen,4_92_0,2023-05-01T16:14:44.480Z,,0,2,,2748,response,ISIC_0034046.JPG,,ISIC_6507640.JPG,ISIC_6507640.JPG,false,0,keypress(z),500,497345,497345,494591,494591,494597,497348,6,300,43,,ISIC_0034046.JPG
break,html.Screen,4_92_1,2023-05-01T16:14:44.482Z,,0,,,NaN,,,,,,false,,,,497346,497346,,497345,,497348,6,300,,,
break_continue,html.Screen,4_92_2,2023-05-01T16:14:44.483Z,,0,,,NaN,,,,,,false,,,,497347,497347,,497346,,497348,6,300,,,
sequence,flow.Sequence,4_92,2023-05-01T16:14:44.483Z,,0,,,2750,completion,,,,,false,,,,497347,497347,494591,494591,494597,497348,6,300,,,
trial,html.Screen,4_93_0,2023-05-01T16:14:48.088Z,,0,2,,3604,response,ISIC_0034233.JPG,,ISIC_0056119.JPG,ISIC_0056119.JPG,false,0,keypress(z),500,500952,500952,497342,497348,497348,500954,6,300,44,,ISIC_0034233.JPG
break,html.Screen,4_93_1,2023-05-01T16:14:48.090Z,,0,,,NaN,,,,,,false,,,,500954,500954,,500953,,500954,6,300,,,
break_continue,html.Screen,4_93_2,2023-05-01T16:14:48.091Z,,0,,,NaN,,,,,,false,,,,500956,500956,,500954,,500954,6,300,,,
sequence,flow.Sequence,4_93,2023-05-01T16:14:48.091Z,,0,,,3608,completion,,,,,false,,,,500956,500956,497342,497347,497348,500954,6,300,,,
trial,html.Screen,4_94_0,2023-05-01T16:14:51.155Z,,0,2,,3066,response,ISIC_7837503.JPG,,ISIC_0067027.JPG,ISIC_7837503.JPG,false,1,keypress(m),500,504020,504020,500948,500956,500954,504026,6,300,45,,ISIC_0067027.JPG
break,html.Screen,4_94_1,2023-05-01T16:14:51.156Z,,0,,,NaN,,,,,,false,,,,504021,504020,,504020,,504026,6,300,,,
break_continue,html.Screen,4_94_2,2023-05-01T16:14:51.157Z,,0,,,NaN,,,,,,false,,,,504021,504021,,504021,,504026,6,300,,,
sequence,flow.Sequence,4_94,2023-05-01T16:14:51.157Z,,0,,,3067,completion,,,,,false,,,,504021,504021,500948,500956,500954,504026,6,300,,,
trial,html.Screen,4_95_0,2023-05-01T16:14:54.013Z,,0,2,,2852,response,ISIC_0063026.JPG,,ISIC_9384835.JPG,ISIC_9384835.JPG,false,0,keypress(z),500,506878,506878,504019,504022,504026,506880,6,300,46,,ISIC_0063026.JPG
break,html.Screen,4_95_1,2023-05-01T16:14:54.015Z,,0,,,NaN,,,,,,false,,,,506880,506879,,506878,,506880,6,300,,,
break_continue,html.Screen,4_95_2,2023-05-01T16:14:54.016Z,,0,,,NaN,,,,,,false,,,,506880,506880,,506880,,506880,6,300,,,
sequence,flow.Sequence,4_95,2023-05-01T16:14:54.016Z,,0,,,2854,completion,,,,,false,,,,506880,506880,504019,504022,504026,506880,6,300,,,
trial,html.Screen,4_96_0,2023-05-01T16:14:56.703Z,,0,2,,2687,response,ISIC_6717452.JPG,,ISIC_0032836.JPG,ISIC_6717452.JPG,false,1,keypress(m),500,509568,509567,506874,506881,506880,509570,6,300,47,,ISIC_0032836.JPG
break,html.Screen,4_96_1,2023-05-01T16:14:56.704Z,,0,,,NaN,,,,,,false,,,,509568,509568,,509568,,509570,6,300,,,
break_continue,html.Screen,4_96_2,2023-05-01T16:14:56.704Z,,0,,,NaN,,,,,,false,,,,509568,509568,,509568,,509570,6,300,,,
sequence,flow.Sequence,4_96,2023-05-01T16:14:56.704Z,,0,,,2688,completion,,,,,false,,,,509568,509568,506874,506880,506880,509570,6,300,,,
trial,html.Screen,4_97_0,2023-05-01T16:14:59.342Z,,0,2,,2635,response,ISIC_3923443.JPG,,ISIC_3677945.JPG,ISIC_3923443.JPG,false,1,keypress(m),500,512206,512205,509563,509568,509570,512212,6,300,48,,ISIC_3677945.JPG
break,html.Screen,4_97_1,2023-05-01T16:14:59.344Z,,0,,,NaN,,,,,,false,,,,512208,512207,,512206,,512212,6,300,,,
break_continue,html.Screen,4_97_2,2023-05-01T16:14:59.344Z,,0,,,NaN,,,,,,false,,,,512209,512209,,512208,,512212,6,300,,,
sequence,flow.Sequence,4_97,2023-05-01T16:14:59.344Z,,0,,,2639,completion,,,,,false,,,,512209,512209,509563,509568,509570,512212,6,300,,,
trial,html.Screen,4_98_0,2023-05-01T16:15:01.956Z,,0,2,,2608,response,ISIC_0031985.JPG,,ISIC_0029902.JPG,ISIC_0029902.JPG,false,0,keypress(z),500,514820,514820,512206,512209,512212,514824,6,300,49,,ISIC_0031985.JPG
break,html.Screen,4_98_1,2023-05-01T16:15:01.957Z,,0,,,NaN,,,,,,false,,,,514821,514821,,514820,,514824,6,300,,,
break_continue,html.Screen,4_98_2,2023-05-01T16:15:01.957Z,,0,,,NaN,,,,,,false,,,,514822,514821,,514821,,514824,6,300,,,
sequence,flow.Sequence,4_98,2023-05-01T16:15:01.958Z,,0,,,2609,completion,,,,,false,,,,514822,514821,512206,512209,512212,514824,6,300,,,
trial,html.Screen,4_99_0,2023-05-01T16:15:05.091Z,,0,2,,3131,response,ISIC_9958062.JPG,,ISIC_0504165.JPG,ISIC_9958062.JPG,false,1,keypress(m),500,517956,517955,514817,514822,514824,517962,6,300,50,,ISIC_0504165.JPG
break,html.Screen,4_99_1,2023-05-01T16:15:10.100Z,,0,,,5017,timeout,,,,,false,,,,522964,522961,517956,517956,517962,522979,6,300,,,
break_continue,html.Screen,4_99_2,2023-05-01T16:15:14.810Z,,0,,,4681,response,,,,,false,continue,keypress(Space),,527674,527660,522961,522964,522979,527683,6,300,,,
sequence,flow.Sequence,4_99,2023-05-01T16:15:14.810Z,,0,,,12836,completion,,,,,false,,,,527674,527660,514817,514822,514824,527683,6,300,,,
trial,html.Screen,4_100_0,2023-05-01T16:15:18.949Z,,0,3,,4130,response,ISIC_1598039.JPG,,ISIC_0010629.JPG,ISIC_1598039.JPG,false,1,keypress(m),500,531814,531813,527674,527674,527683,531820,6,300,1,,ISIC_0010629.JPG
break,html.Screen,4_100_1,2023-05-01T16:15:18.949Z,,0,,,NaN,,,,,,false,,,,531814,531814,,531814,,531820,6,300,,,
break_continue,html.Screen,4_100_2,2023-05-01T16:15:18.950Z,,0,,,NaN,,,,,,false,,,,531814,531814,,531814,,531820,6,300,,,
sequence,flow.Sequence,4_100,2023-05-01T16:15:18.950Z,,0,,,4131,completion,,,,,false,,,,531814,531814,527674,527674,527683,531820,6,300,,,
trial,html.Screen,4_101_0,2023-05-01T16:15:22.372Z,,0,3,,3415,response,ISIC_0055737.JPG,,ISIC_2075121.JPG,ISIC_2075121.JPG,false,0,keypress(z),500,535236,535235,531814,531814,531820,535237,6,300,2,,ISIC_0055737.JPG
break,html.Screen,4_101_1,2023-05-01T16:15:22.373Z,,0,,,NaN,,,,,,false,,,,535238,535238,,535236,,535237,6,300,,,
break_continue,html.Screen,4_101_2,2023-05-01T16:15:22.374Z,,0,,,NaN,,,,,,false,,,,535238,535238,,535238,,535237,6,300,,,
sequence,flow.Sequence,4_101,2023-05-01T16:15:22.374Z,,0,,,3418,completion,,,,,false,,,,535239,535238,531814,531814,531820,535237,6,300,,,
trial,html.Screen,4_102_0,2023-05-01T16:15:25.079Z,,0,3,,2706,response,ISIC_0072917.JPG,,ISIC_0084086.JPG,ISIC_0084086.JPG,false,0,keypress(z),500,537943,537943,535231,535239,535237,537946,6,300,3,,ISIC_0072917.JPG
break,html.Screen,4_102_1,2023-05-01T16:15:25.080Z,,0,,,NaN,,,,,,false,,,,537945,537944,,537943,,537946,6,300,,,
break_continue,html.Screen,4_102_2,2023-05-01T16:15:25.081Z,,0,,,NaN,,,,,,false,,,,537946,537945,,537945,,537946,6,300,,,
sequence,flow.Sequence,4_102,2023-05-01T16:15:25.081Z,,0,,,2708,completion,,,,,false,,,,537946,537945,535231,535239,535237,537946,6,300,,,
trial,html.Screen,4_103_0,2023-05-01T16:15:27.734Z,,0,3,,2652,response,ISIC_5029636.JPG,,ISIC_0027696.JPG,ISIC_5029636.JPG,false,1,keypress(m),500,540598,540598,537940,537946,537946,540600,6,300,4,,ISIC_0027696.JPG
break,html.Screen,4_103_1,2023-05-01T16:15:27.736Z,,0,,,NaN,,,,,,false,,,,540600,540600,,540598,,540600,6,300,,,
break_continue,html.Screen,4_103_2,2023-05-01T16:15:27.736Z,,0,,,NaN,,,,,,false,,,,540600,540600,,540600,,540600,6,300,,,
sequence,flow.Sequence,4_103,2023-05-01T16:15:27.736Z,,0,,,2654,completion,,,,,false,,,,540601,540600,537940,537946,537946,540600,6,300,,,
trial,html.Screen,4_104_0,2023-05-01T16:15:31.228Z,,0,3,,3492,response,ISIC_0059427.JPG,,ISIC_3234908.JPG,ISIC_3234908.JPG,false,0,keypress(z),500,544093,544092,540594,540601,540600,544096,6,300,5,,ISIC_0059427.JPG
break,html.Screen,4_104_1,2023-05-01T16:15:31.229Z,,0,,,NaN,,,,,,false,,,,544094,544093,,544093,,544096,6,300,,,
break_continue,html.Screen,4_104_2,2023-05-01T16:15:31.230Z,,0,,,NaN,,,,,,false,,,,544095,544095,,544094,,544096,6,300,,,
sequence,flow.Sequence,4_104,2023-05-01T16:15:31.230Z,,0,,,3495,completion,,,,,false,,,,544095,544095,540594,540601,540600,544096,6,300,,,
trial,html.Screen,4_105_0,2023-05-01T16:15:34.309Z,,0,3,,3078,response,ISIC_9008095.JPG,,ISIC_5555700.JPG,ISIC_5555700.JPG,false,0,keypress(z),500,547174,547174,544090,544095,544096,547180,6,300,6,,ISIC_9008095.JPG
break,html.Screen,4_105_1,2023-05-01T16:15:34.311Z,,0,,,NaN,,,,,,false,,,,547175,547175,,547174,,547180,6,300,,,
break_continue,html.Screen,4_105_2,2023-05-01T16:15:34.311Z,,0,,,NaN,,,,,,false,,,,547176,547176,,547176,,547180,6,300,,,
sequence,flow.Sequence,4_105,2023-05-01T16:15:34.311Z,,0,,,3080,completion,,,,,false,,,,547176,547176,544090,544095,544096,547180,6,300,,,
trial,html.Screen,4_106_0,2023-05-01T16:15:38.446Z,,0,3,,4130,response,ISIC_2430137.JPG,,ISIC_6784593.JPG,ISIC_2430137.JPG,false,1,keypress(m),500,551311,551310,547174,547176,547180,551313,6,300,7,,ISIC_6784593.JPG
break,html.Screen,4_106_1,2023-05-01T16:15:38.448Z,,0,,,NaN,,,,,,false,,,,551312,551312,,551311,,551313,6,300,,,
break_continue,html.Screen,4_106_2,2023-05-01T16:15:38.448Z,,0,,,NaN,,,,,,false,,,,551313,551312,,551312,,551313,6,300,,,
sequence,flow.Sequence,4_106,2023-05-01T16:15:38.449Z,,0,,,4132,completion,,,,,false,,,,551313,551312,547174,547176,547180,551313,6,300,,,
trial,html.Screen,4_107_0,2023-05-01T16:15:41.784Z,,0,3,,3335,response,ISIC_2406492.JPG,,ISIC_0030336.JPG,ISIC_0030336.JPG,false,0,keypress(z),500,554648,554648,551307,551313,551313,554652,6,300,8,,ISIC_2406492.JPG
break,html.Screen,4_107_1,2023-05-01T16:15:41.786Z,,0,,,NaN,,,,,,false,,,,554650,554650,,554648,,554652,6,300,,,
break_continue,html.Screen,4_107_2,2023-05-01T16:15:41.787Z,,0,,,NaN,,,,,,false,,,,554651,554651,,554650,,554652,6,300,,,
sequence,flow.Sequence,4_107,2023-05-01T16:15:41.787Z,,0,,,3338,completion,,,,,false,,,,554651,554651,551307,551313,551313,554652,6,300,,,
trial,html.Screen,4_108_0,2023-05-01T16:15:44.422Z,,0,3,,2633,response,ISIC_0026996.JPG,,ISIC_8433108.JPG,ISIC_0026996.JPG,false,1,keypress(m),500,557286,557285,554645,554652,554652,557287,6,300,9,,ISIC_8433108.JPG
break,html.Screen,4_108_1,2023-05-01T16:15:44.424Z,,0,,,NaN,,,,,,false,,,,557288,557287,,557286,,557287,6,300,,,
break_continue,html.Screen,4_108_2,2023-05-01T16:15:44.424Z,,0,,,NaN,,,,,,false,,,,557289,557288,,557288,,557287,6,300,,,
sequence,flow.Sequence,4_108,2023-05-01T16:15:44.424Z,,0,,,2636,completion,,,,,false,,,,557289,557288,554645,554652,554652,557287,6,300,,,
trial,html.Screen,4_109_0,2023-05-01T16:15:47.246Z,,0,3,,2823,response,ISIC_0000539.JPG,,ISIC_0773096.JPG,ISIC_0773096.JPG,false,0,keypress(z),500,560111,560110,557281,557289,557287,560117,6,300,10,,ISIC_0000539.JPG
break,html.Screen,4_109_1,2023-05-01T16:15:47.248Z,,0,,,NaN,,,,,,false,,,,560112,560112,,560111,,560117,6,300,,,
break_continue,html.Screen,4_109_2,2023-05-01T16:15:47.248Z,,0,,,NaN,,,,,,false,,,,560113,560113,,560112,,560117,6,300,,,
sequence,flow.Sequence,4_109,2023-05-01T16:15:47.248Z,,0,,,2826,completion,,,,,false,,,,560113,560113,557281,557289,557287,560117,6,300,,,
trial,html.Screen,4_110_0,2023-05-01T16:15:54.133Z,,0,3,,6881,response,ISIC_7945429.JPG,,ISIC_8451869.JPG,ISIC_8451869.JPG,false,0,keypress(z),500,566998,566998,560111,560113,560117,567000,6,300,11,,ISIC_7945429.JPG
break,html.Screen,4_110_1,2023-05-01T16:15:54.135Z,,0,,,NaN,,,,,,false,,,,566999,566999,,566998,,567000,6,300,,,
break_continue,html.Screen,4_110_2,2023-05-01T16:15:54.136Z,,0,,,NaN,,,,,,false,,,,567001,567000,,567000,,567000,6,300,,,
sequence,flow.Sequence,4_110,2023-05-01T16:15:54.136Z,,0,,,6883,completion,,,,,false,,,,567001,567000,560111,560113,560117,567000,6,300,,,
trial,html.Screen,4_111_0,2023-05-01T16:15:58.084Z,,0,3,,3949,response,ISIC_0056260.JPG,,ISIC_0013365.JPG,ISIC_0013365.JPG,false,0,keypress(z),500,570949,570949,566994,567001,567000,570951,6,300,12,,ISIC_0056260.JPG
break,html.Screen,4_111_1,2023-05-01T16:15:58.086Z,,0,,,NaN,,,,,,false,,,,570950,570950,,570949,,570951,6,300,,,
break_continue,html.Screen,4_111_2,2023-05-01T16:15:58.086Z,,0,,,NaN,,,,,,false,,,,570951,570951,,570951,,570951,6,300,,,
sequence,flow.Sequence,4_111,2023-05-01T16:15:58.087Z,,0,,,3951,completion,,,,,false,,,,570951,570951,566994,567001,567000,570951,6,300,,,
trial,html.Screen,4_112_0,2023-05-01T16:16:00.158Z,,0,3,,2070,response,ISIC_2410240.JPG,,ISIC_0046671.JPG,ISIC_2410240.JPG,false,1,keypress(m),500,573022,573021,570945,570951,570951,573023,6,300,13,,ISIC_0046671.JPG
break,html.Screen,4_112_1,2023-05-01T16:16:00.159Z,,0,,,NaN,,,,,,false,,,,573023,573023,,573022,,573023,6,300,,,
break_continue,html.Screen,4_112_2,2023-05-01T16:16:00.160Z,,0,,,NaN,,,,,,false,,,,573024,573023,,573023,,573023,6,300,,,
sequence,flow.Sequence,4_112,2023-05-01T16:16:00.160Z,,0,,,2072,completion,,,,,false,,,,573024,573023,570945,570951,570951,573023,6,300,,,
trial,html.Screen,4_113_0,2023-05-01T16:16:02.281Z,,0,3,,2122,response,ISIC_3857463.JPG,,ISIC_0029740.JPG,ISIC_3857463.JPG,false,1,keypress(m),500,575145,575145,573017,573024,573023,575150,6,300,14,,ISIC_0029740.JPG
break,html.Screen,4_113_1,2023-05-01T16:16:02.282Z,,0,,,NaN,,,,,,false,,,,575146,575146,,575145,,575150,6,300,,,
break_continue,html.Screen,4_113_2,2023-05-01T16:16:02.283Z,,0,,,NaN,,,,,,false,,,,575147,575147,,575147,,575150,6,300,,,
sequence,flow.Sequence,4_113,2023-05-01T16:16:02.283Z,,0,,,2124,completion,,,,,false,,,,575147,575147,573017,573024,573023,575150,6,300,,,
trial,html.Screen,4_114_0,2023-05-01T16:16:04.896Z,,0,3,,2610,response,ISIC_0034046.JPG,,ISIC_6423964.JPG,ISIC_6423964.JPG,false,0,keypress(z),500,577760,577760,575144,575147,575150,577762,6,300,15,,ISIC_0034046.JPG
break,html.Screen,4_114_1,2023-05-01T16:16:04.898Z,,0,,,NaN,,,,,,false,,,,577762,577762,,577761,,577762,6,300,,,
break_continue,html.Screen,4_114_2,2023-05-01T16:16:04.898Z,,0,,,NaN,,,,,,false,,,,577762,577762,,577762,,577762,6,300,,,
sequence,flow.Sequence,4_114,2023-05-01T16:16:04.899Z,,0,,,2612,completion,,,,,false,,,,577762,577762,575144,575147,575150,577762,6,300,,,
trial,html.Screen,4_115_0,2023-05-01T16:16:07.988Z,,0,3,,3090,response,ISIC_9544832.JPG,,ISIC_1353668.JPG,ISIC_9544832.JPG,false,1,keypress(m),500,580852,580852,577756,577763,577762,580858,6,300,16,,ISIC_1353668.JPG
break,html.Screen,4_115_1,2023-05-01T16:16:07.990Z,,0,,,NaN,,,,,,false,,,,580854,580854,,580852,,580858,6,300,,,
break_continue,html.Screen,4_115_2,2023-05-01T16:16:07.990Z,,0,,,NaN,,,,,,false,,,,580854,580854,,580854,,580858,6,300,,,
sequence,flow.Sequence,4_115,2023-05-01T16:16:07.990Z,,0,,,3092,completion,,,,,false,,,,580855,580854,577756,577762,577762,580858,6,300,,,
trial,html.Screen,4_116_0,2023-05-01T16:16:10.860Z,,0,3,,2866,response,ISIC_2225927.JPG,,ISIC_0064472.JPG,ISIC_0064472.JPG,false,0,keypress(z),500,583725,583724,580852,580855,580858,583730,6,300,17,,ISIC_2225927.JPG
break,html.Screen,4_116_1,2023-05-01T16:16:10.861Z,,0,,,NaN,,,,,,false,,,,583725,583725,,583725,,583730,6,300,,,
break_continue,html.Screen,4_116_2,2023-05-01T16:16:10.862Z,,0,,,NaN,,,,,,false,,,,583726,583726,,583725,,583730,6,300,,,
sequence,flow.Sequence,4_116,2023-05-01T16:16:10.862Z,,0,,,2868,completion,,,,,false,,,,583726,583726,580852,580855,580858,583730,6,300,,,
trial,html.Screen,4_117_0,2023-05-01T16:16:15.149Z,,0,3,,4284,response,ISIC_0030820.JPG,,ISIC_0024227.JPG,ISIC_0024227.JPG,false,0,keypress(z),500,588014,588014,583724,583726,583730,588020,6,300,18,,ISIC_0030820.JPG
break,html.Screen,4_117_1,2023-05-01T16:16:15.151Z,,0,,,NaN,,,,,,false,,,,588015,588014,,588014,,588020,6,300,,,
break_continue,html.Screen,4_117_2,2023-05-01T16:16:15.151Z,,0,,,NaN,,,,,,false,,,,588015,588015,,588015,,588020,6,300,,,
sequence,flow.Sequence,4_117,2023-05-01T16:16:15.152Z,,0,,,4285,completion,,,,,false,,,,588016,588015,583724,583726,583730,588020,6,300,,,
trial,html.Screen,4_118_0,2023-05-01T16:16:19.128Z,,0,3,,3972,response,ISIC_0609067.JPG,,ISIC_0062382.JPG,ISIC_0609067.JPG,false,1,keypress(m),500,591992,591992,588014,588016,588020,591995,6,300,19,,ISIC_0062382.JPG
break,html.Screen,4_118_1,2023-05-01T16:16:19.130Z,,0,,,NaN,,,,,,false,,,,591994,591994,,591992,,591995,6,300,,,
break_continue,html.Screen,4_118_2,2023-05-01T16:16:19.130Z,,0,,,NaN,,,,,,false,,,,591995,591995,,591994,,591995,6,300,,,
sequence,flow.Sequence,4_118,2023-05-01T16:16:19.131Z,,0,,,3975,completion,,,,,false,,,,591995,591995,588014,588016,588020,591995,6,300,,,
trial,html.Screen,4_119_0,2023-05-01T16:16:23.877Z,,0,3,,4746,response,ISIC_0008630.JPG,,ISIC_0010551.JPG,ISIC_0010551.JPG,false,0,keypress(z),500,596741,596741,591989,591995,591995,596746,6,300,20,,ISIC_0008630.JPG
break,html.Screen,4_119_1,2023-05-01T16:16:23.879Z,,0,,,NaN,,,,,,false,,,,596743,596742,,596742,,596746,6,300,,,
break_continue,html.Screen,4_119_2,2023-05-01T16:16:23.879Z,,0,,,NaN,,,,,,false,,,,596743,596743,,596743,,596746,6,300,,,
sequence,flow.Sequence,4_119,2023-05-01T16:16:23.879Z,,0,,,4748,completion,,,,,false,,,,596743,596743,591989,591995,591995,596746,6,300,,,
trial,html.Screen,4_120_0,2023-05-01T16:16:28.231Z,,0,3,,4348,response,ISIC_0011348.JPG,,ISIC_7953039.JPG,ISIC_7953039.JPG,false,0,keypress(z),500,601096,601094,596740,596743,596746,601096,6,300,21,,ISIC_0011348.JPG
break,html.Screen,4_120_1,2023-05-01T16:16:28.233Z,,0,,,NaN,,,,,,false,,,,601097,601096,,601096,,601096,6,300,,,
break_continue,html.Screen,4_120_2,2023-05-01T16:16:28.233Z,,0,,,NaN,,,,,,false,,,,601097,601097,,601097,,601096,6,300,,,
sequence,flow.Sequence,4_120,2023-05-01T16:16:28.233Z,,0,,,4351,completion,,,,,false,,,,601097,601097,596740,596743,596746,601096,6,300,,,
trial,html.Screen,4_121_0,2023-05-01T16:16:31.203Z,,0,3,,2970,response,ISIC_0026087.JPG,,ISIC_7545340.JPG,ISIC_0026087.JPG,false,1,keypress(m),500,604067,604066,601090,601097,601096,604071,6,300,22,,ISIC_7545340.JPG
break,html.Screen,4_121_1,2023-05-01T16:16:31.205Z,,0,,,NaN,,,,,,false,,,,604069,604068,,604067,,604071,6,300,,,
break_continue,html.Screen,4_121_2,2023-05-01T16:16:31.205Z,,0,,,NaN,,,,,,false,,,,604069,604069,,604069,,604071,6,300,,,
sequence,flow.Sequence,4_121,2023-05-01T16:16:31.205Z,,0,,,2973,completion,,,,,false,,,,604070,604069,601090,601097,601096,604071,6,300,,,
trial,html.Screen,4_122_0,2023-05-01T16:16:34.349Z,,0,3,,3142,response,ISIC_2693412.JPG,,ISIC_3771332.JPG,ISIC_2693412.JPG,false,1,keypress(m),500,607213,607213,604065,604070,604071,607216,6,300,23,,ISIC_3771332.JPG
break,html.Screen,4_122_1,2023-05-01T16:16:34.350Z,,0,,,NaN,,,,,,false,,,,607215,607214,,607214,,607216,6,300,,,
break_continue,html.Screen,4_122_2,2023-05-01T16:16:34.351Z,,0,,,NaN,,,,,,false,,,,607215,607215,,607215,,607216,6,300,,,
sequence,flow.Sequence,4_122,2023-05-01T16:16:34.351Z,,0,,,3144,completion,,,,,false,,,,607215,607215,604065,604070,604071,607216,6,300,,,
trial,html.Screen,4_123_0,2023-05-01T16:16:38.355Z,,0,3,,4003,response,ISIC_0067621.JPG,,ISIC_0059082.JPG,ISIC_0067621.JPG,false,1,keypress(m),500,611219,611219,607210,607215,607216,611221,6,300,24,,ISIC_0059082.JPG
break,html.Screen,4_123_1,2023-05-01T16:16:38.357Z,,0,,,NaN,,,,,,false,,,,611221,611221,,611220,,611221,6,300,,,
break_continue,html.Screen,4_123_2,2023-05-01T16:16:38.358Z,,0,,,NaN,,,,,,false,,,,611222,611221,,611221,,611221,6,300,,,
sequence,flow.Sequence,4_123,2023-05-01T16:16:38.358Z,,0,,,4005,completion,,,,,false,,,,611222,611221,607210,607215,607216,611221,6,300,,,
trial,html.Screen,4_124_0,2023-05-01T16:16:41.955Z,,0,3,,3597,response,ISIC_6828892.JPG,,ISIC_0011398.JPG,ISIC_6828892.JPG,false,1,keypress(m),500,614819,614818,611215,611223,611221,614821,6,300,25,,ISIC_0011398.JPG
break,html.Screen,4_124_1,2023-05-01T16:16:41.957Z,,0,,,NaN,,,,,,false,,,,614822,614821,,614819,,614821,6,300,,,
break_continue,html.Screen,4_124_2,2023-05-01T16:16:41.958Z,,0,,,NaN,,,,,,false,,,,614822,614822,,614822,,614821,6,300,,,
sequence,flow.Sequence,4_124,2023-05-01T16:16:41.958Z,,0,,,3601,completion,,,,,false,,,,614822,614822,611215,611223,611221,614821,6,300,,,
trial,html.Screen,4_125_0,2023-05-01T16:16:45.914Z,,0,3,,3957,response,ISIC_0682543.JPG,,ISIC_0009927.JPG,ISIC_0009927.JPG,false,0,keypress(z),500,618779,618778,614814,614822,614821,618784,6,300,26,,ISIC_0682543.JPG
break,html.Screen,4_125_1,2023-05-01T16:16:45.916Z,,0,,,NaN,,,,,,false,,,,618780,618779,,618779,,618784,6,300,,,
break_continue,html.Screen,4_125_2,2023-05-01T16:16:45.916Z,,0,,,NaN,,,,,,false,,,,618780,618780,,618780,,618784,6,300,,,
sequence,flow.Sequence,4_125,2023-05-01T16:16:45.916Z,,0,,,3959,completion,,,,,false,,,,618780,618780,614814,614822,614821,618784,6,300,,,
trial,html.Screen,4_126_0,2023-05-01T16:16:49.386Z,,0,3,,3466,response,ISIC_1189461.JPG,,ISIC_8140072.JPG,ISIC_1189461.JPG,false,1,keypress(m),500,622250,622250,618777,618780,618784,622255,6,300,27,,ISIC_8140072.JPG
break,html.Screen,4_126_1,2023-05-01T16:16:49.387Z,,0,,,NaN,,,,,,false,,,,622251,622251,,622250,,622255,6,300,,,
break_continue,html.Screen,4_126_2,2023-05-01T16:16:49.387Z,,0,,,NaN,,,,,,false,,,,622251,622251,,622251,,622255,6,300,,,
sequence,flow.Sequence,4_126,2023-05-01T16:16:49.387Z,,0,,,3467,completion,,,,,false,,,,622251,622251,618777,618780,618784,622255,6,300,,,
trial,html.Screen,4_127_0,2023-05-01T16:16:52.073Z,,0,3,,2681,response,ISIC_2050638.JPG,,ISIC_0070215.JPG,ISIC_2050638.JPG,false,1,keypress(m),500,624937,624936,622249,622251,622255,624940,6,300,28,,ISIC_0070215.JPG
break,html.Screen,4_127_1,2023-05-01T16:16:52.076Z,,0,,,NaN,,,,,,false,,,,624941,624939,,624937,,624940,6,300,,,
break_continue,html.Screen,4_127_2,2023-05-01T16:16:52.077Z,,0,,,NaN,,,,,,false,,,,624941,624941,,624941,,624940,6,300,,,
sequence,flow.Sequence,4_127,2023-05-01T16:16:52.077Z,,0,,,2686,completion,,,,,false,,,,624941,624941,622249,622251,622255,624940,6,300,,,
trial,html.Screen,4_128_0,2023-05-01T16:16:55.231Z,,0,3,,3155,response,ISIC_3899323.JPG,,ISIC_9403390.JPG,ISIC_9403390.JPG,false,0,keypress(z),500,628095,628095,624934,624941,624940,628097,6,300,29,,ISIC_3899323.JPG
break,html.Screen,4_128_1,2023-05-01T16:16:55.231Z,,0,,,NaN,,,,,,false,,,,628095,628095,,628095,,628097,6,300,,,
break_continue,html.Screen,4_128_2,2023-05-01T16:16:55.231Z,,0,,,NaN,,,,,,false,,,,628095,628095,,628095,,628097,6,300,,,
sequence,flow.Sequence,4_128,2023-05-01T16:16:55.231Z,,0,,,3155,completion,,,,,false,,,,628096,628095,624934,624941,624940,628097,6,300,,,
trial,html.Screen,4_129_0,2023-05-01T16:16:58.745Z,,0,3,,3511,response,ISIC_0067985.JPG,,ISIC_1763577.JPG,ISIC_1763577.JPG,false,0,keypress(z),500,631609,631608,628091,628096,628097,631611,6,300,30,,ISIC_0067985.JPG
break,html.Screen,4_129_1,2023-05-01T16:16:58.746Z,,0,,,NaN,,,,,,false,,,,631610,631610,,631609,,631611,6,300,,,
break_continue,html.Screen,4_129_2,2023-05-01T16:16:58.747Z,,0,,,NaN,,,,,,false,,,,631611,631610,,631610,,631611,6,300,,,
sequence,flow.Sequence,4_129,2023-05-01T16:16:58.747Z,,0,,,3513,completion,,,,,false,,,,631611,631610,628091,628096,628097,631611,6,300,,,
trial,html.Screen,4_130_0,2023-05-01T16:17:01.719Z,,0,3,,2972,response,ISIC_7526548.JPG,,ISIC_0070351.JPG,ISIC_7526548.JPG,false,1,keypress(m),500,634583,634583,631605,631612,631611,634586,6,300,31,,ISIC_0070351.JPG
break,html.Screen,4_130_1,2023-05-01T16:17:01.721Z,,0,,,NaN,,,,,,false,,,,634585,634584,,634584,,634586,6,300,,,
break_continue,html.Screen,4_130_2,2023-05-01T16:17:01.721Z,,0,,,NaN,,,,,,false,,,,634585,634585,,634585,,634586,6,300,,,
sequence,flow.Sequence,4_130,2023-05-01T16:17:01.721Z,,0,,,2974,completion,,,,,false,,,,634585,634585,631605,631612,631611,634586,6,300,,,
trial,html.Screen,4_131_0,2023-05-01T16:17:05.388Z,,0,3,,3666,response,ISIC_0031642.JPG,,ISIC_0014222.JPG,ISIC_0014222.JPG,false,0,keypress(z),500,638252,638252,634580,634585,634586,638258,6,300,32,,ISIC_0031642.JPG
break,html.Screen,4_131_1,2023-05-01T16:17:05.389Z,,0,,,NaN,,,,,,false,,,,638253,638253,,638252,,638258,6,300,,,
break_continue,html.Screen,4_131_2,2023-05-01T16:17:05.389Z,,0,,,NaN,,,,,,false,,,,638253,638253,,638253,,638258,6,300,,,
sequence,flow.Sequence,4_131,2023-05-01T16:17:05.389Z,,0,,,3667,completion,,,,,false,,,,638253,638253,634580,634585,634586,638258,6,300,,,
trial,html.Screen,4_132_0,2023-05-01T16:17:08.758Z,,0,3,,3364,response,ISIC_0027031.JPG,,ISIC_9593940.JPG,ISIC_0027031.JPG,false,1,keypress(m),500,641622,641622,638252,638253,638258,641627,6,300,33,,ISIC_9593940.JPG
break,html.Screen,4_132_1,2023-05-01T16:17:08.759Z,,0,,,NaN,,,,,,false,,,,641624,641623,,641623,,641627,6,300,,,
break_continue,html.Screen,4_132_2,2023-05-01T16:17:08.760Z,,0,,,NaN,,,,,,false,,,,641624,641624,,641624,,641627,6,300,,,
sequence,flow.Sequence,4_132,2023-05-01T16:17:08.760Z,,0,,,3366,completion,,,,,false,,,,641624,641624,638252,638253,638258,641627,6,300,,,
trial,html.Screen,4_133_0,2023-05-01T16:17:12.484Z,,0,3,,3721,response,ISIC_2500254.JPG,,ISIC_5569091.JPG,ISIC_5569091.JPG,false,0,keypress(z),500,645348,645348,641621,641624,641627,645354,6,300,34,,ISIC_2500254.JPG
break,html.Screen,4_133_1,2023-05-01T16:17:12.486Z,,0,,,NaN,,,,,,false,,,,645350,645349,,645348,,645354,6,300,,,
break_continue,html.Screen,4_133_2,2023-05-01T16:17:12.486Z,,0,,,NaN,,,,,,false,,,,645351,645350,,645350,,645354,6,300,,,
sequence,flow.Sequence,4_133,2023-05-01T16:17:12.486Z,,0,,,3723,completion,,,,,false,,,,645351,645350,641621,641624,641627,645354,6,300,,,
trial,html.Screen,4_134_0,2023-05-01T16:17:16.667Z,,0,3,,4176,response,ISIC_0254517.JPG,,ISIC_1369273.JPG,ISIC_0254517.JPG,false,1,keypress(m),500,649532,649530,645348,645351,645354,649535,6,300,35,,ISIC_1369273.JPG
break,html.Screen,4_134_1,2023-05-01T16:17:16.669Z,,0,,,NaN,,,,,,false,,,,649533,649532,,649532,,649535,6,300,,,
break_continue,html.Screen,4_134_2,2023-05-01T16:17:16.669Z,,0,,,NaN,,,,,,false,,,,649533,649533,,649533,,649535,6,300,,,
sequence,flow.Sequence,4_134,2023-05-01T16:17:16.669Z,,0,,,4179,completion,,,,,false,,,,649533,649533,645348,645351,645354,649535,6,300,,,
trial,html.Screen,4_135_0,2023-05-01T16:17:19.562Z,,0,3,,2891,response,ISIC_7670149.JPG,,ISIC_2410240.JPG,ISIC_2410240.JPG,false,0,keypress(z),500,652426,652426,649529,649533,649535,652431,6,300,36,,ISIC_7670149.JPG
break,html.Screen,4_135_1,2023-05-01T16:17:19.563Z,,0,,,NaN,,,,,,false,,,,652428,652426,,652426,,652431,6,300,,,
break_continue,html.Screen,4_135_2,2023-05-01T16:17:19.564Z,,0,,,NaN,,,,,,false,,,,652428,652428,,652428,,652431,6,300,,,
sequence,flow.Sequence,4_135,2023-05-01T16:17:19.564Z,,0,,,2893,completion,,,,,false,,,,652428,652428,649529,649533,649535,652431,6,300,,,
trial,html.Screen,4_136_0,2023-05-01T16:17:22.717Z,,0,3,,3149,response,ISIC_4789377.JPG,,ISIC_0060233.JPG,ISIC_4789377.JPG,false,1,keypress(m),500,655581,655580,652425,652428,652431,655588,6,300,37,,ISIC_0060233.JPG
break,html.Screen,4_136_1,2023-05-01T16:17:22.718Z,,0,,,NaN,,,,,,false,,,,655583,655582,,655582,,655588,6,300,,,
break_continue,html.Screen,4_136_2,2023-05-01T16:17:22.719Z,,0,,,NaN,,,,,,false,,,,655584,655584,,655583,,655588,6,300,,,
sequence,flow.Sequence,4_136,2023-05-01T16:17:22.720Z,,0,,,3153,completion,,,,,false,,,,655584,655584,652425,652428,652431,655588,6,300,,,
trial,html.Screen,4_137_0,2023-05-01T16:17:27.237Z,,0,3,,4513,response,ISIC_4540332.JPG,,ISIC_8188797.JPG,ISIC_8188797.JPG,false,0,keypress(z),500,660101,660101,655582,655584,655588,660102,6,300,38,,ISIC_4540332.JPG
break,html.Screen,4_137_1,2023-05-01T16:17:27.238Z,,0,,,NaN,,,,,,false,,,,660102,660102,,660101,,660102,6,300,,,
break_continue,html.Screen,4_137_2,2023-05-01T16:17:27.239Z,,0,,,NaN,,,,,,false,,,,660103,660102,,660102,,660102,6,300,,,
sequence,flow.Sequence,4_137,2023-05-01T16:17:27.239Z,,0,,,4514,completion,,,,,false,,,,660104,660102,655582,655584,655588,660102,6,300,,,
trial,html.Screen,4_138_0,2023-05-01T16:17:30.286Z,,0,3,,3047,response,ISIC_0939648.JPG,,ISIC_0028696.JPG,ISIC_0939648.JPG,false,1,keypress(m),500,663149,663149,660096,660104,660102,663156,6,300,39,,ISIC_0028696.JPG
break,html.Screen,4_138_1,2023-05-01T16:17:30.287Z,,0,,,NaN,,,,,,false,,,,663152,663151,,663150,,663156,6,300,,,
break_continue,html.Screen,4_138_2,2023-05-01T16:17:30.288Z,,0,,,NaN,,,,,,false,,,,663152,663152,,663152,,663156,6,300,,,
sequence,flow.Sequence,4_138,2023-05-01T16:17:30.288Z,,0,,,3050,completion,,,,,false,,,,663152,663152,660096,660104,660102,663156,6,300,,,
trial,html.Screen,4_139_0,2023-05-01T16:17:34.843Z,,0,3,,4551,response,ISIC_2126035.JPG,,ISIC_5536710.JPG,ISIC_2126035.JPG,false,1,keypress(m),500,667707,667707,663150,663152,663156,667713,6,300,40,,ISIC_5536710.JPG
break,html.Screen,4_139_1,2023-05-01T16:17:34.844Z,,0,,,NaN,,,,,,false,,,,667708,667708,,667707,,667713,6,300,,,
break_continue,html.Screen,4_139_2,2023-05-01T16:17:34.845Z,,0,,,NaN,,,,,,false,,,,667709,667709,,667709,,667713,6,300,,,
sequence,flow.Sequence,4_139,2023-05-01T16:17:34.845Z,,0,,,4553,completion,,,,,false,,,,667709,667709,663150,663152,663156,667713,6,300,,,
trial,html.Screen,4_140_0,2023-05-01T16:17:39.764Z,,0,3,,4915,response,ISIC_0031249.JPG,,ISIC_6178088.JPG,ISIC_6178088.JPG,false,0,keypress(z),500,672628,672628,667707,667709,667713,672639,6,300,41,,ISIC_0031249.JPG
break,html.Screen,4_140_1,2023-05-01T16:17:39.765Z,,0,,,NaN,,,,,,false,,,,672629,672629,,672628,,672639,6,300,,,
break_continue,html.Screen,4_140_2,2023-05-01T16:17:39.765Z,,0,,,NaN,,,,,,false,,,,672629,672629,,672629,,672639,6,300,,,
sequence,flow.Sequence,4_140,2023-05-01T16:17:39.765Z,,0,,,4916,completion,,,,,false,,,,672629,672629,667707,667709,667713,672639,6,300,,,
trial,html.Screen,4_141_0,2023-05-01T16:17:43.722Z,,0,3,,3948,response,ISIC_3610783.JPG,,ISIC_5234605.JPG,ISIC_5234605.JPG,false,0,keypress(z),500,676588,676587,672633,672629,672639,676590,6,300,42,,ISIC_3610783.JPG
break,html.Screen,4_141_1,2023-05-01T16:17:43.724Z,,0,,,NaN,,,,,,false,,,,676589,676589,,676588,,676590,6,300,,,
break_continue,html.Screen,4_141_2,2023-05-01T16:17:43.724Z,,0,,,NaN,,,,,,false,,,,676590,676590,,676589,,676590,6,300,,,
sequence,flow.Sequence,4_141,2023-05-01T16:17:43.725Z,,0,,,3951,completion,,,,,false,,,,676590,676590,672633,672629,672639,676590,6,300,,,
trial,html.Screen,4_142_0,2023-05-01T16:17:46.589Z,,0,3,,2863,response,ISIC_9498448.JPG,,ISIC_0028297.JPG,ISIC_9498448.JPG,false,1,keypress(m),500,679453,679453,676584,676590,676590,679456,6,300,43,,ISIC_0028297.JPG
break,html.Screen,4_142_1,2023-05-01T16:17:46.591Z,,0,,,NaN,,,,,,false,,,,679455,679455,,679453,,679456,6,300,,,
break_continue,html.Screen,4_142_2,2023-05-01T16:17:46.591Z,,0,,,NaN,,,,,,false,,,,679456,679456,,679456,,679456,6,300,,,
sequence,flow.Sequence,4_142,2023-05-01T16:17:46.592Z,,0,,,2866,completion,,,,,false,,,,679457,679456,676584,676590,676590,679456,6,300,,,
trial,html.Screen,4_143_0,2023-05-01T16:17:49.473Z,,0,3,,2882,response,ISIC_0830217.JPG,,ISIC_0034188.JPG,ISIC_0034188.JPG,false,0,keypress(z),500,682338,682338,679450,679457,679456,682340,6,300,44,,ISIC_0830217.JPG
break,html.Screen,4_143_1,2023-05-01T16:17:49.475Z,,0,,,NaN,,,,,,false,,,,682340,682339,,682338,,682340,6,300,,,
break_continue,html.Screen,4_143_2,2023-05-01T16:17:49.475Z,,0,,,NaN,,,,,,false,,,,682340,682340,,682340,,682340,6,300,,,
sequence,flow.Sequence,4_143,2023-05-01T16:17:49.475Z,,0,,,2884,completion,,,,,false,,,,682340,682340,679450,679457,679456,682340,6,300,,,
trial,html.Screen,4_144_0,2023-05-01T16:17:52.160Z,,0,3,,2685,response,ISIC_0054673.JPG,,ISIC_0032844.JPG,ISIC_0032844.JPG,false,0,keypress(z),500,685025,685025,682334,682340,682340,685030,6,300,45,,ISIC_0054673.JPG
break,html.Screen,4_144_1,2023-05-01T16:17:52.162Z,,0,,,NaN,,,,,,false,,,,685027,685027,,685025,,685030,6,300,,,
break_continue,html.Screen,4_144_2,2023-05-01T16:17:52.163Z,,0,,,NaN,,,,,,false,,,,685028,685027,,685027,,685030,6,300,,,
sequence,flow.Sequence,4_144,2023-05-01T16:17:52.163Z,,0,,,2687,completion,,,,,false,,,,685028,685027,682334,682340,682340,685030,6,300,,,
trial,html.Screen,4_145_0,2023-05-01T16:17:55.321Z,,0,3,,3156,response,ISIC_0027266.JPG,,ISIC_2506200.JPG,ISIC_2506200.JPG,false,0,keypress(z),500,688186,688186,685024,685028,685030,688193,6,300,46,,ISIC_0027266.JPG
break,html.Screen,4_145_1,2023-05-01T16:17:55.324Z,,0,,,NaN,,,,,,false,,,,688188,688188,,688186,,688193,6,300,,,
break_continue,html.Screen,4_145_2,2023-05-01T16:17:55.324Z,,0,,,NaN,,,,,,false,,,,688189,688189,,688189,,688193,6,300,,,
sequence,flow.Sequence,4_145,2023-05-01T16:17:55.324Z,,0,,,3159,completion,,,,,false,,,,688189,688189,685024,685028,685030,688193,6,300,,,
trial,html.Screen,4_146_0,2023-05-01T16:17:59.303Z,,0,3,,3975,response,ISIC_0011665.JPG,,ISIC_0032265.JPG,ISIC_0032265.JPG,false,0,keypress(z),500,692169,692168,688187,688189,688193,692174,6,300,47,,ISIC_0011665.JPG
break,html.Screen,4_146_1,2023-05-01T16:17:59.305Z,,0,,,NaN,,,,,,false,,,,692170,692170,,692169,,692174,6,300,,,
break_continue,html.Screen,4_146_2,2023-05-01T16:17:59.305Z,,0,,,NaN,,,,,,false,,,,692170,692170,,692170,,692174,6,300,,,
sequence,flow.Sequence,4_146,2023-05-01T16:17:59.305Z,,0,,,3977,completion,,,,,false,,,,692170,692170,688187,688189,688193,692174,6,300,,,
trial,html.Screen,4_147_0,2023-05-01T16:18:05.110Z,,0,3,,5800,response,ISIC_3632419.JPG,,ISIC_0010900.JPG,ISIC_3632419.JPG,false,1,keypress(m),500,697974,697974,692168,692170,692174,697979,6,300,48,,ISIC_0010900.JPG
break,html.Screen,4_147_1,2023-05-01T16:18:05.111Z,,0,,,NaN,,,,,,false,,,,697976,697976,,697974,,697979,6,300,,,
break_continue,html.Screen,4_147_2,2023-05-01T16:18:05.112Z,,0,,,NaN,,,,,,false,,,,697977,697977,,697977,,697979,6,300,,,
sequence,flow.Sequence,4_147,2023-05-01T16:18:05.112Z,,0,,,5803,completion,,,,,false,,,,697977,697977,692168,692170,692174,697979,6,300,,,
trial,html.Screen,4_148_0,2023-05-01T16:18:08.038Z,,0,3,,2924,response,ISIC_0485996.JPG,,ISIC_2159510.JPG,ISIC_2159510.JPG,false,0,keypress(z),500,700904,700903,697973,697977,697979,700906,6,300,49,,ISIC_0485996.JPG
break,html.Screen,4_148_1,2023-05-01T16:18:08.040Z,,0,,,NaN,,,,,,false,,,,700904,700904,,700904,,700906,6,300,,,
break_continue,html.Screen,4_148_2,2023-05-01T16:18:08.040Z,,0,,,NaN,,,,,,false,,,,700905,700905,,700905,,700906,6,300,,,
sequence,flow.Sequence,4_148,2023-05-01T16:18:08.040Z,,0,,,2926,completion,,,,,false,,,,700905,700905,697973,697977,697979,700906,6,300,,,
trial,html.Screen,4_149_0,2023-05-01T16:18:10.646Z,,0,3,,2605,response,ISIC_0011531.JPG,,ISIC_1473511.JPG,ISIC_1473511.JPG,false,0,keypress(z),500,703511,703511,700900,700906,700906,703517,6,300,50,,ISIC_0011531.JPG
break,html.Screen,4_149_1,2023-05-01T16:18:15.656Z,,0,,,5018,timeout,,,,,false,,,,708520,708516,703511,703511,703517,708535,6,300,,,
break_continue,html.Screen,4_149_2,2023-05-01T16:18:25.013Z,,0,,,9320,response,,,,,false,continue,keypress(Space),,717878,717855,708516,708521,708535,717884,6,300,,,
sequence,flow.Sequence,4_149,2023-05-01T16:18:25.013Z,,0,,,16949,completion,,,,,false,,,,717878,717855,700900,700906,700906,717884,6,300,,,
trial,html.Screen,4_150_0,2023-05-01T16:18:29.013Z,,0,4,,3993,response,ISIC_0065883.JPG,,ISIC_0010690.JPG,ISIC_0065883.JPG,false,1,keypress(m),500,721877,721877,717876,717878,717884,721883,6,300,1,,ISIC_0010690.JPG
break,html.Screen,4_150_1,2023-05-01T16:18:29.014Z,,0,,,NaN,,,,,,false,,,,721879,721879,,721878,,721883,6,300,,,
break_continue,html.Screen,4_150_2,2023-05-01T16:18:29.015Z,,0,,,NaN,,,,,,false,,,,721880,721880,,721880,,721883,6,300,,,
sequence,flow.Sequence,4_150,2023-05-01T16:18:29.016Z,,0,,,3996,completion,,,,,false,,,,721881,721880,717876,717878,717884,721883,6,300,,,
trial,html.Screen,4_151_0,2023-05-01T16:18:32.364Z,,0,4,,3346,response,ISIC_0071740.JPG,,ISIC_0068975.JPG,ISIC_0071740.JPG,false,1,keypress(m),500,725229,725229,721877,721881,721883,725234,6,300,2,,ISIC_0068975.JPG
break,html.Screen,4_151_1,2023-05-01T16:18:32.365Z,,0,,,NaN,,,,,,false,,,,725230,725230,,725229,,725234,6,300,,,
break_continue,html.Screen,4_151_2,2023-05-01T16:18:32.366Z,,0,,,NaN,,,,,,false,,,,725230,725230,,725230,,725234,6,300,,,
sequence,flow.Sequence,4_151,2023-05-01T16:18:32.366Z,,0,,,3347,completion,,,,,false,,,,725231,725230,721877,721881,721883,725234,6,300,,,
trial,html.Screen,4_152_0,2023-05-01T16:18:35.510Z,,0,4,,3140,response,ISIC_0027666.JPG,,ISIC_1638357.JPG,ISIC_1638357.JPG,false,0,keypress(z),500,728375,728374,725228,725231,725234,728379,6,300,3,,ISIC_0027666.JPG
break,html.Screen,4_152_1,2023-05-01T16:18:35.512Z,,0,,,NaN,,,,,,false,,,,728376,728376,,728375,,728379,6,300,,,
break_continue,html.Screen,4_152_2,2023-05-01T16:18:35.512Z,,0,,,NaN,,,,,,false,,,,728376,728376,,728376,,728379,6,300,,,
sequence,flow.Sequence,4_152,2023-05-01T16:18:35.512Z,,0,,,3142,completion,,,,,false,,,,728377,728376,725228,725231,725234,728379,6,300,,,
trial,html.Screen,4_153_0,2023-05-01T16:18:39.469Z,,0,4,,3954,response,ISIC_4864523.JPG,,ISIC_0007622.JPG,ISIC_0007622.JPG,false,0,keypress(z),500,732334,732333,728373,728377,728379,732336,6,300,4,,ISIC_4864523.JPG
break,html.Screen,4_153_1,2023-05-01T16:18:39.470Z,,0,,,NaN,,,,,,false,,,,732335,732334,,732334,,732336,6,300,,,
break_continue,html.Screen,4_153_2,2023-05-01T16:18:39.470Z,,0,,,NaN,,,,,,false,,,,732335,732335,,732335,,732336,6,300,,,
sequence,flow.Sequence,4_153,2023-05-01T16:18:39.471Z,,0,,,3956,completion,,,,,false,,,,732336,732335,728373,728377,728379,732336,6,300,,,
trial,html.Screen,4_154_0,2023-05-01T16:18:42.551Z,,0,4,,3080,response,ISIC_0033641.JPG,,ISIC_6576397.JPG,ISIC_0033641.JPG,false,1,keypress(m),500,735416,735416,732329,732336,732336,735420,6,300,5,,ISIC_6576397.JPG
break,html.Screen,4_154_1,2023-05-01T16:18:42.552Z,,0,,,NaN,,,,,,false,,,,735417,735417,,735416,,735420,6,300,,,
break_continue,html.Screen,4_154_2,2023-05-01T16:18:42.553Z,,0,,,NaN,,,,,,false,,,,735418,735418,,735417,,735420,6,300,,,
sequence,flow.Sequence,4_154,2023-05-01T16:18:42.553Z,,0,,,3082,completion,,,,,false,,,,735418,735418,732329,732336,732336,735420,6,300,,,
trial,html.Screen,4_155_0,2023-05-01T16:18:46.900Z,,0,4,,4344,response,ISIC_1641823.JPG,,ISIC_8910589.JPG,ISIC_1641823.JPG,false,0,keypress(z),500,739764,739764,735414,735418,735420,739770,6,300,6,,ISIC_8910589.JPG
break,html.Screen,4_155_1,2023-05-01T16:18:46.901Z,,0,,,NaN,,,,,,false,,,,739765,739765,,739765,,739770,6,300,,,
break_continue,html.Screen,4_155_2,2023-05-01T16:18:46.902Z,,0,,,NaN,,,,,,false,,,,739765,739765,,739765,,739770,6,300,,,
sequence,flow.Sequence,4_155,2023-05-01T16:18:46.902Z,,0,,,4345,completion,,,,,false,,,,739765,739765,735414,735418,735420,739770,6,300,,,
trial,html.Screen,4_156_0,2023-05-01T16:18:51.209Z,,0,4,,4303,response,ISIC_2967024.JPG,,ISIC_0060403.JPG,ISIC_0060403.JPG,false,1,keypress(m),500,744073,744073,739764,739765,739770,,6,300,7,,ISIC_2967024.JPG
break,html.Screen,4_156_1,2023-05-01T16:18:51.211Z,,0,,,NaN,,,,,,false,,,,744075,744074,,744073,,744079,6,300,,,
break_continue,html.Screen,4_156_2,2023-05-01T16:18:51.212Z,,0,,,NaN,,,,,,false,,,,744075,744075,,744075,,744079,6,300,,,
sequence,flow.Sequence,4_156,2023-05-01T16:18:51.212Z,,0,,,4305,completion,,,,,false,,,,744075,744075,739764,739765,739770,744079,6,300,,,
trial,html.Screen,4_156_0,2023-05-01T16:18:51.216Z,,0,4,,4310,response,ISIC_2967024.JPG,,ISIC_0060403.JPG,ISIC_0060403.JPG,false,0,keypress(z),500,744080,744080,739764,739765,739770,744079,6,300,7,,ISIC_2967024.JPG
trial,html.Screen,4_157_0,2023-05-01T16:18:58.637Z,,0,4,,7422,response,ISIC_0057067.JPG,,ISIC_9000234.JPG,ISIC_0057067.JPG,false,1,keypress(m),500,751501,751501,744073,744076,744079,751507,6,300,8,,ISIC_9000234.JPG
break,html.Screen,4_157_1,2023-05-01T16:18:58.639Z,,0,,,NaN,,,,,,false,,,,751503,751503,,751501,,751507,6,300,,,
break_continue,html.Screen,4_157_2,2023-05-01T16:18:58.639Z,,0,,,NaN,,,,,,false,,,,751503,751503,,751503,,751507,6,300,,,
sequence,flow.Sequence,4_157,2023-05-01T16:18:58.640Z,,0,,,7424,completion,,,,,false,,,,751503,751503,744073,744076,744079,751507,6,300,,,
trial,html.Screen,4_158_0,2023-05-01T16:19:02.391Z,,0,4,,3748,response,ISIC_9163466.JPG,,ISIC_0027674.JPG,ISIC_9163466.JPG,false,1,keypress(m),500,755255,755255,751501,751503,751507,755258,6,300,9,,ISIC_0027674.JPG
break,html.Screen,4_158_1,2023-05-01T16:19:02.394Z,,0,,,NaN,,,,,,false,,,,755257,755257,,755256,,755258,6,300,,,
break_continue,html.Screen,4_158_2,2023-05-01T16:19:02.395Z,,0,,,NaN,,,,,,false,,,,755258,755258,,755258,,755258,6,300,,,
sequence,flow.Sequence,4_158,2023-05-01T16:19:02.395Z,,0,,,3751,completion,,,,,false,,,,755259,755258,751501,751503,751507,755258,6,300,,,
trial,html.Screen,4_159_0,2023-05-01T16:19:07.681Z,,0,4,,5287,response,ISIC_4579262.JPG,,ISIC_0071797.JPG,ISIC_4579262.JPG,false,1,keypress(m),500,760545,760545,755252,755259,755258,760548,6,300,10,,ISIC_0071797.JPG
break,html.Screen,4_159_1,2023-05-01T16:19:07.683Z,,0,,,NaN,,,,,,false,,,,760547,760547,,760546,,760548,6,300,,,
break_continue,html.Screen,4_159_2,2023-05-01T16:19:07.683Z,,0,,,NaN,,,,,,false,,,,760547,760547,,760547,,760548,6,300,,,
sequence,flow.Sequence,4_159,2023-05-01T16:19:07.683Z,,0,,,5289,completion,,,,,false,,,,760548,760547,755252,755259,755258,760548,6,300,,,
trial,html.Screen,4_160_0,2023-05-01T16:19:11.969Z,,0,4,,4285,response,ISIC_4538207.JPG,,ISIC_2486088.JPG,ISIC_4538207.JPG,false,1,keypress(m),500,764834,764833,760542,760548,760548,764838,6,300,11,,ISIC_2486088.JPG
break,html.Screen,4_160_1,2023-05-01T16:19:11.971Z,,0,,,NaN,,,,,,false,,,,764835,764835,,764834,,764838,6,300,,,
break_continue,html.Screen,4_160_2,2023-05-01T16:19:11.972Z,,0,,,NaN,,,,,,false,,,,764836,764836,,764835,,764838,6,300,,,
sequence,flow.Sequence,4_160,2023-05-01T16:19:11.972Z,,0,,,4288,completion,,,,,false,,,,764836,764836,760542,760548,760548,764838,6,300,,,
trial,html.Screen,4_161_0,2023-05-01T16:19:14.715Z,,0,4,,2740,response,ISIC_0032447.JPG,,ISIC_3926305.JPG,ISIC_3926305.JPG,false,0,keypress(z),500,767578,767578,764832,764836,764838,767583,6,300,12,,ISIC_0032447.JPG
break,html.Screen,4_161_1,2023-05-01T16:19:14.716Z,,0,,,NaN,,,,,,false,,,,767580,767580,,767579,,767583,6,300,,,
break_continue,html.Screen,4_161_2,2023-05-01T16:19:14.717Z,,0,,,NaN,,,,,,false,,,,767580,767580,,767580,,767583,6,300,,,
sequence,flow.Sequence,4_161,2023-05-01T16:19:14.717Z,,0,,,2742,completion,,,,,false,,,,767580,767580,764832,764836,764838,767583,6,300,,,
trial,html.Screen,4_162_0,2023-05-01T16:19:17.815Z,,0,4,,3095,response,ISIC_0485529.JPG,,ISIC_0060390.JPG,ISIC_0485529.JPG,false,1,keypress(m),500,770678,770678,767577,767581,767583,770685,6,300,13,,ISIC_0060390.JPG
break,html.Screen,4_162_1,2023-05-01T16:19:17.816Z,,0,,,NaN,,,,,,false,,,,770680,770680,,770679,,770685,6,300,,,
break_continue,html.Screen,4_162_2,2023-05-01T16:19:17.817Z,,0,,,NaN,,,,,,false,,,,770681,770681,,770681,,770685,6,300,,,
sequence,flow.Sequence,4_162,2023-05-01T16:19:17.817Z,,0,,,3098,completion,,,,,false,,,,770681,770681,767577,767581,767583,770685,6,300,,,
trial,html.Screen,4_163_0,2023-05-01T16:19:20.628Z,,0,4,,2807,response,ISIC_3304982.JPG,,ISIC_0001108.JPG,ISIC_0001108.JPG,false,0,keypress(z),500,773492,773492,770679,770681,770685,773497,6,300,14,,ISIC_3304982.JPG
break,html.Screen,4_163_1,2023-05-01T16:19:20.629Z,,0,,,NaN,,,,,,false,,,,773493,773493,,773492,,773497,6,300,,,
