sender,sender_type,sender_id,timestamp,meta,,blockNo,condition,duration,ended_on,img_left,img_reveal,img_right,loser,practice,response,response_action,selection_duration,time_commit,time_end,time_render,time_run,time_show,time_switch,total_blocks,total_trials,trialNo,url,winner
informed_consent,html.Screen,0,2023-09-11T17:13:59.287Z,"{""labjs_version"":""20.2.4"",""labjs_build"":{""flavor"":""production"",""commit"":""f5b4a49f956347addd546a832a3327688c2c0fef""},""location"":""https://run.pavlovia.org/MurrayBennett/melanoma-2afc/?participant=66062&platform=sona"",""userAgent"":""Mozilla/5.0 (Windows NT 10.0; Win64; x64; rv:109.0) Gecko/20100101 Firefox/116.0"",""platform"":""Win32"",""language"":""en-US"",""locale"":""en-US"",""timeZone"":""America/Chicago"",""timezoneOffset"":300,""screen_width"":1536,""screen_height"":864,""scroll_width"":1536,""scroll_height"":663,""window_innerWidth"":1536,""window_innerHeight"":711,""devicePixelRatio"":1.25}",,,,31574.46,response,,,,,,consent,click button,,34969,34958,3366.88,3367,3383.54,34975.7,,,,"{""participant"":""66062"",""platform"":""sona""}",
Welcome,html.Screen,1,2023-09-11T17:14:21.569Z,,,,irregular,22265.300000000003,response,,,,,,continue,click button,,57252,57241,34966.88,34970,34975.7,57253.54,,,,,
trial,html.Screen,2_0_0,2023-09-11T17:14:27.369Z,,0,0,,5797.459999999999,response,ISIC_0061792.JPG,,ISIC_4679428.JPG,ISIC_0061792.JPG,true,1,keypress(m),500,63052,63051,57251.74,57253,57253.54,63053.6,1,6,1,,ISIC_4679428.JPG
sequence,flow.Sequence,2_0,2023-09-11T17:14:27.369Z,,0,,,5797.459999999999,completion,,,,,true,,,,63053,63051,57251.74,57253,57253.54,63053.6,1,6,,,
trial,html.Screen,2_1_0,2023-09-11T17:14:33.099Z,,0,0,,5727.4000000000015,response,ISIC_5199497.JPG,,ISIC_0776486.JPG,ISIC_5199497.JPG,true,1,keypress(m),500,68781,68781,63053.12,63053,63053.6,68783.26,1,6,2,,ISIC_0776486.JPG
sequence,flow.Sequence,2_1,2023-09-11T17:14:33.099Z,,0,,,5727.4000000000015,completion,,,,,true,,,,68782,68781,63053.12,63053,63053.6,68783.26,1,6,,,
trial,html.Screen,2_2_0,2023-09-11T17:14:36.248Z,,0,0,,3147.7400000000052,response,ISIC_2556187.JPG,,ISIC_8575776.JPG,ISIC_8575776.JPG,true,0,keypress(z),500,71931,71931,68782.66,68782,68783.26,71933.02,1,6,3,,ISIC_2556187.JPG
sequence,flow.Sequence,2_2,2023-09-11T17:14:36.249Z,,0,,,3147.7400000000052,completion,,,,,true,,,,71932,71931,68782.66,68782,68783.26,71933.02,1,6,,,
trial,html.Screen,2_3_0,2023-09-11T17:14:40.381Z,,0,0,,4127.979999999996,response,ISIC_8141769.JPG,,ISIC_9238366.JPG,ISIC_9238366.JPG,true,0,keypress(z),500,76065,76061,71932.48,71932,71933.02,76068.26,1,6,4,,ISIC_8141769.JPG
sequence,flow.Sequence,2_3,2023-09-11T17:14:40.384Z,,0,,,4127.979999999996,completion,,,,,true,,,,76066,76061,71932.48,71932,71933.02,76068.26,1,6,,,
trial,html.Screen,2_4_0,2023-09-11T17:14:43.719Z,,0,0,,3332.7400000000052,response,ISIC_9959593.JPG,,ISIC_8949026.JPG,ISIC_8949026.JPG,true,0,keypress(z),500,79402,79401,76067.7,76067,76068.26,79403.98,1,6,5,,ISIC_9959593.JPG
sequence,flow.Sequence,2_4,2023-09-11T17:14:43.720Z,,0,,,3332.7400000000052,completion,,,,,true,,,,79403,79401,76067.7,76067,76068.26,79403.98,1,6,,,
trial,html.Screen,2_5_0,2023-09-11T17:14:48.428Z,,0,0,,4707.020000000004,response,ISIC_0010479.JPG,,ISIC_0460240.JPG,ISIC_0460240.JPG,true,0,keypress(z),500,84112,84111,79403.42,79403,79403.98,84113.54,1,6,6,,ISIC_0010479.JPG
sequence,flow.Sequence,2_5,2023-09-11T17:14:48.429Z,,0,,,4707.020000000004,completion,,,,,true,,,,84112,84111,79403.42,79403,79403.98,84113.54,1,6,,,
loop,flow.Loop,2,2023-09-11T17:14:48.429Z,,,,,26857.46,completion,,,,,true,,,,84113,84111,57251.74,57253,57253.54,84113.54,1,6,,,
exp_instructions,html.Screen,3,2023-09-11T17:14:52.835Z,,,,,4391.460000000006,response,,,,,,continue,keypress(Space),,88518,88505,84112.94,84113,84113.54,88519.22,,,,,
trial,html.Screen,4_0_0,2023-09-11T17:14:56.469Z,,0,1,,3631.779999999999,response,ISIC_0305928.JPG,0,ISIC_0678758.JPG,ISIC_0678758.JPG,false,0,keypress(z),500,92151,92151,88518.74,88519,88519.22,92152.52,8,400,1,,ISIC_0305928.JPG
break,html.Screen,4_0_1,2023-09-11T17:14:56.470Z,,0,,,NaN,,,,,,false,,,,92154,92153,,92152,,92152.52,8,400,,,
break_continue,html.Screen,4_0_2,2023-09-11T17:14:56.471Z,,0,,,NaN,,,,,,false,,,,92155,92154,,92154,,92152.52,8,400,,,
sequence,flow.Sequence,4_0,2023-09-11T17:14:56.472Z,,0,,,3634.779999999999,completion,,,,,false,,,,92155,92154,88518.74,88518,88519.22,92152.52,8,400,,,
trial,html.Screen,4_1_0,2023-09-11T17:14:59.598Z,,0,1,,3128.479999999996,response,ISIC_0000166.JPG,6,ISIC_8096177.JPG,ISIC_8096177.JPG,false,0,keypress(z),500,95281,95281,92151.98,92155,92152.52,95282.3,8,400,2,,ISIC_0000166.JPG
break,html.Screen,4_1_1,2023-09-11T17:14:59.600Z,,0,,,NaN,,,,,,false,,,,95283,95283,,95282,,95282.3,8,400,,,
break_continue,html.Screen,4_1_2,2023-09-11T17:14:59.601Z,,0,,,NaN,,,,,,false,,,,95284,95284,,95284,,95282.3,8,400,,,
sequence,flow.Sequence,4_1,2023-09-11T17:14:59.602Z,,0,,,3131.479999999996,completion,,,,,false,,,,95285,95284,92151.98,92155,92152.52,95282.3,8,400,,,
trial,html.Screen,4_2_0,2023-09-11T17:15:05.628Z,,0,1,,6028.699999999997,response,ISIC_5611104.JPG,15,ISIC_1398618.JPG,ISIC_1398618.JPG,false,0,keypress(z),500,101311,101311,95281.74,95285,95282.3,101312.04,8,400,3,,ISIC_5611104.JPG
break,html.Screen,4_2_1,2023-09-11T17:15:05.630Z,,0,,,NaN,,,,,,false,,,,101313,101312,,101311,,101312.04,8,400,,,
break_continue,html.Screen,4_2_2,2023-09-11T17:15:05.631Z,,0,,,NaN,,,,,,false,,,,101314,101314,,101313,,101312.04,8,400,,,
sequence,flow.Sequence,4_2,2023-09-11T17:15:05.631Z,,0,,,6031.699999999997,completion,,,,,false,,,,101315,101314,95281.74,95285,95282.3,101312.04,8,400,,,
trial,html.Screen,4_3_0,2023-09-11T17:15:11.102Z,,0,1,,5471.960000000006,response,ISIC_0013936.JPG,14,ISIC_3653492.JPG,ISIC_0013936.JPG,false,1,keypress(m),500,106784,106784,101311.5,101315,101312.04,106791.28,8,400,4,,ISIC_3653492.JPG
break,html.Screen,4_3_1,2023-09-11T17:15:11.103Z,,0,,,NaN,,,,,,false,,,,106786,106786,,106785,,106791.28,8,400,,,
break_continue,html.Screen,4_3_2,2023-09-11T17:15:11.104Z,,0,,,NaN,,,,,,false,,,,106787,106787,,106787,,106791.28,8,400,,,
sequence,flow.Sequence,4_3,2023-09-11T17:15:11.105Z,,0,,,5474.960000000006,completion,,,,,false,,,,106788,106787,101311.5,101315,101312.04,106791.28,8,400,,,
trial,html.Screen,4_4_0,2023-09-11T17:15:15.258Z,,0,1,,4149.720000000001,response,ISIC_0032913.JPG,12,ISIC_0026993.JPG,ISIC_0032913.JPG,false,1,keypress(m),500,110941,110941,106784.72,106788,106791.28,110942.32,8,400,5,,ISIC_0026993.JPG
break,html.Screen,4_4_1,2023-09-11T17:15:15.260Z,,0,,,NaN,,,,,,false,,,,110943,110943,,110942,,110942.32,8,400,,,
break_continue,html.Screen,4_4_2,2023-09-11T17:15:15.261Z,,0,,,NaN,,,,,,false,,,,110944,110944,,110943,,110942.32,8,400,,,
sequence,flow.Sequence,4_4,2023-09-11T17:15:15.261Z,,0,,,4152.720000000001,completion,,,,,false,,,,110945,110944,106784.72,106788,106791.28,110942.32,8,400,,,
trial,html.Screen,4_5_0,2023-09-11T17:15:21.978Z,,0,1,,6718.679999999993,response,ISIC_0001875.JPG,5,ISIC_4974868.JPG,ISIC_0001875.JPG,false,1,keypress(m),500,117662,117661,110941.72,110945,110942.32,117662.22,8,400,6,,ISIC_4974868.JPG
break,html.Screen,4_5_1,2023-09-11T17:15:21.980Z,,0,,,NaN,,,,,,false,,,,117663,117662,,117662,,117662.22,8,400,,,
break_continue,html.Screen,4_5_2,2023-09-11T17:15:21.981Z,,0,,,NaN,,,,,,false,,,,117664,117664,,117663,,117662.22,8,400,,,
sequence,flow.Sequence,4_5,2023-09-11T17:15:21.981Z,,0,,,6721.679999999993,completion,,,,,false,,,,117664,117664,110941.72,110945,110942.32,117662.22,8,400,,,
trial,html.Screen,4_6_0,2023-09-11T17:15:27.331Z,,0,1,,5350.779999999999,response,ISIC_0029081.JPG,4,ISIC_0034170.JPG,ISIC_0029081.JPG,false,1,keypress(m),500,123013,123013,117661.68,117665,117662.22,123020.7,8,400,7,,ISIC_0034170.JPG
break,html.Screen,4_6_1,2023-09-11T17:15:27.332Z,,0,,,NaN,,,,,,false,,,,123016,123015,,123014,,123020.7,8,400,,,
break_continue,html.Screen,4_6_2,2023-09-11T17:15:27.333Z,,0,,,NaN,,,,,,false,,,,123016,123016,,123016,,123020.7,8,400,,,
sequence,flow.Sequence,4_6,2023-09-11T17:15:27.335Z,,0,,,5353.779999999999,completion,,,,,false,,,,123017,123016,117661.68,117665,117662.22,123020.7,8,400,,,
trial,html.Screen,4_7_0,2023-09-11T17:15:32.788Z,,0,1,,5450.300000000003,response,ISIC_0030139.JPG,12,ISIC_7533983.JPG,ISIC_0030139.JPG,false,1,keypress(m),500,128471,128471,123014.34,123017,123020.7,128472.02,8,400,8,,ISIC_7533983.JPG
break,html.Screen,4_7_1,2023-09-11T17:15:32.790Z,,0,,,NaN,,,,,,false,,,,128473,128473,,128472,,128472.02,8,400,,,
break_continue,html.Screen,4_7_2,2023-09-11T17:15:32.790Z,,0,,,NaN,,,,,,false,,,,128474,128474,,128473,,128472.02,8,400,,,
sequence,flow.Sequence,4_7,2023-09-11T17:15:32.792Z,,0,,,5453.300000000003,completion,,,,,false,,,,128474,128474,123014.34,123017,123020.7,128472.02,8,400,,,
trial,html.Screen,4_8_0,2023-09-11T17:15:36.078Z,,0,1,,3288.979999999996,response,ISIC_0002349.JPG,5,ISIC_0072976.JPG,ISIC_0002349.JPG,false,1,keypress(m),500,131761,131761,128471.5,128475,128472.02,131761.98,8,400,9,,ISIC_0072976.JPG
break,html.Screen,4_8_1,2023-09-11T17:15:36.080Z,,0,,,NaN,,,,,,false,,,,131762,131762,,131761,,131761.98,8,400,,,
break_continue,html.Screen,4_8_2,2023-09-11T17:15:36.081Z,,0,,,NaN,,,,,,false,,,,131763,131763,,131763,,131761.98,8,400,,,
sequence,flow.Sequence,4_8,2023-09-11T17:15:36.081Z,,0,,,3290.979999999996,completion,,,,,false,,,,131764,131763,128471.5,128475,128472.02,131761.98,8,400,,,
trial,html.Screen,4_9_0,2023-09-11T17:15:38.818Z,,0,1,,2739.0199999999895,response,ISIC_0032419.JPG,15,ISIC_0071367.JPG,ISIC_0032419.JPG,false,1,keypress(m),500,134501,134501,131761.44,131764,131761.98,134502.32,8,400,10,,ISIC_0071367.JPG
break,html.Screen,4_9_1,2023-09-11T17:15:38.820Z,,0,,,NaN,,,,,,false,,,,134503,134503,,134501,,134502.32,8,400,,,
break_continue,html.Screen,4_9_2,2023-09-11T17:15:38.821Z,,0,,,NaN,,,,,,false,,,,134504,134504,,134504,,134502.32,8,400,,,
sequence,flow.Sequence,4_9,2023-09-11T17:15:38.822Z,,0,,,2742.0199999999895,completion,,,,,false,,,,134505,134504,131761.44,131764,131761.98,134502.32,8,400,,,
trial,html.Screen,4_10_0,2023-09-11T17:15:41.949Z,,0,1,,3127.679999999993,response,ISIC_9798721.JPG,4,ISIC_0031844.JPG,ISIC_9798721.JPG,false,1,keypress(m),500,137631,137630,134501.78,134505,134502.32,137633.74,8,400,11,,ISIC_0031844.JPG
break,html.Screen,4_10_1,2023-09-11T17:15:41.950Z,,0,,,NaN,,,,,,false,,,,137633,137632,,137631,,137633.74,8,400,,,
break_continue,html.Screen,4_10_2,2023-09-11T17:15:41.951Z,,0,,,NaN,,,,,,false,,,,137634,137634,,137633,,137633.74,8,400,,,
sequence,flow.Sequence,4_10,2023-09-11T17:15:41.952Z,,0,,,3131.679999999993,completion,,,,,false,,,,137634,137634,134501.78,134505,134502.32,137633.74,8,400,,,
trial,html.Screen,4_11_0,2023-09-11T17:15:46.767Z,,0,1,,4817.260000000009,response,ISIC_6707990.JPG,4,ISIC_0674746.JPG,ISIC_6707990.JPG,false,1,keypress(m),500,142451,142451,137631.54,137634,137633.74,142451.82,8,400,12,,ISIC_0674746.JPG
break,html.Screen,4_11_1,2023-09-11T17:15:46.769Z,,0,,,NaN,,,,,,false,,,,142452,142451,,142451,,142451.82,8,400,,,
break_continue,html.Screen,4_11_2,2023-09-11T17:15:46.769Z,,0,,,NaN,,,,,,false,,,,142452,142452,,142452,,142451.82,8,400,,,
sequence,flow.Sequence,4_11,2023-09-11T17:15:46.770Z,,0,,,4818.260000000009,completion,,,,,false,,,,142453,142452,137631.54,137634,137633.74,142451.82,8,400,,,
trial,html.Screen,4_12_0,2023-09-11T17:15:51.548Z,,0,1,,4779.179999999993,response,ISIC_0061562.JPG,7,ISIC_8274622.JPG,ISIC_0061562.JPG,false,1,keypress(m),500,147231,147231,142450.92,142453,142451.82,147232.48,8,400,13,,ISIC_8274622.JPG
break,html.Screen,4_12_1,2023-09-11T17:15:51.550Z,,0,,,NaN,,,,,,false,,,,147234,147233,,147232,,147232.48,8,400,,,
break_continue,html.Screen,4_12_2,2023-09-11T17:15:51.551Z,,0,,,NaN,,,,,,false,,,,147235,147235,,147234,,147232.48,8,400,,,
sequence,flow.Sequence,4_12,2023-09-11T17:15:51.552Z,,0,,,4783.179999999993,completion,,,,,false,,,,147235,147235,142450.92,142453,142451.82,147232.48,8,400,,,
trial,html.Screen,4_13_0,2023-09-11T17:15:54.789Z,,0,1,,3238.5199999999895,response,ISIC_9182285.JPG,13,ISIC_0066678.JPG,ISIC_9182285.JPG,false,1,keypress(m),500,150471,150471,147231.76,147235,147232.48,150472.02,8,400,14,,ISIC_0066678.JPG
break,html.Screen,4_13_1,2023-09-11T17:15:54.789Z,,0,,,NaN,,,,,,false,,,,150473,150472,,150471,,150472.02,8,400,,,
break_continue,html.Screen,4_13_2,2023-09-11T17:15:54.790Z,,0,,,NaN,,,,,,false,,,,150473,150473,,150473,,150472.02,8,400,,,
sequence,flow.Sequence,4_13,2023-09-11T17:15:54.791Z,,0,,,3240.5199999999895,completion,,,,,false,,,,150474,150473,147231.76,147235,147232.48,150472.02,8,400,,,
trial,html.Screen,4_14_0,2023-09-11T17:15:59.497Z,,0,1,,4707.9800000000105,response,ISIC_0027095.JPG,16,ISIC_0064342.JPG,ISIC_0027095.JPG,false,1,keypress(m),500,155181,155180,150471.48,150474,150472.02,155181.62,8,400,15,,ISIC_0064342.JPG
break,html.Screen,4_14_1,2023-09-11T17:15:59.499Z,,0,,,NaN,,,,,,false,,,,155182,155182,,155181,,155181.62,8,400,,,
break_continue,html.Screen,4_14_2,2023-09-11T17:15:59.500Z,,0,,,NaN,,,,,,false,,,,155183,155183,,155182,,155181.62,8,400,,,
sequence,flow.Sequence,4_14,2023-09-11T17:15:59.500Z,,0,,,4710.9800000000105,completion,,,,,false,,,,155183,155183,150471.48,150474,150472.02,155181.62,8,400,,,
trial,html.Screen,4_15_0,2023-09-11T17:16:03.088Z,,0,1,,3589.3800000000047,response,ISIC_0011490.JPG,15,ISIC_9720518.JPG,ISIC_9720518.JPG,false,0,keypress(z),500,158772,158771,155181.1,155184,155181.62,158772.2,8,400,16,,ISIC_0011490.JPG
break,html.Screen,4_15_1,2023-09-11T17:16:03.090Z,,0,,,NaN,,,,,,false,,,,158773,158773,,158772,,158772.2,8,400,,,
break_continue,html.Screen,4_15_2,2023-09-11T17:16:03.091Z,,0,,,NaN,,,,,,false,,,,158774,158774,,158773,,158772.2,8,400,,,
sequence,flow.Sequence,4_15,2023-09-11T17:16:03.091Z,,0,,,3592.3800000000047,completion,,,,,false,,,,158774,158774,155181.1,155184,155181.62,158772.2,8,400,,,
trial,html.Screen,4_16_0,2023-09-11T17:16:10.878Z,,0,1,,7787.799999999988,response,ISIC_0032862.JPG,14,ISIC_0068176.JPG,ISIC_0032862.JPG,false,1,keypress(m),500,166560,166560,158771.64,158774,158772.2,166561.88,8,400,17,,ISIC_0068176.JPG
break,html.Screen,4_16_1,2023-09-11T17:16:10.879Z,,0,,,NaN,,,,,,false,,,,166562,166562,,166561,,166561.88,8,400,,,
break_continue,html.Screen,4_16_2,2023-09-11T17:16:10.880Z,,0,,,NaN,,,,,,false,,,,166563,166563,,166563,,166561.88,8,400,,,
sequence,flow.Sequence,4_16,2023-09-11T17:16:10.881Z,,0,,,7790.799999999988,completion,,,,,false,,,,166564,166563,158771.64,158774,158772.2,166561.88,8,400,,,
trial,html.Screen,4_17_0,2023-09-11T17:16:15.193Z,,0,1,,4313.119999999995,response,ISIC_0056679.JPG,16,ISIC_0025195.JPG,ISIC_0056679.JPG,false,1,keypress(m),500,170876,170875,166561.34,166564,166561.88,170877,8,400,18,,ISIC_0025195.JPG
break,html.Screen,4_17_1,2023-09-11T17:16:15.194Z,,0,,,NaN,,,,,,false,,,,170878,170877,,170876,,170877,8,400,,,
break_continue,html.Screen,4_17_2,2023-09-11T17:16:15.196Z,,0,,,NaN,,,,,,false,,,,170879,170878,,170878,,170877,8,400,,,
sequence,flow.Sequence,4_17,2023-09-11T17:16:15.196Z,,0,,,4316.119999999995,completion,,,,,false,,,,170879,170878,166561.34,166564,166561.88,170877,8,400,,,
trial,html.Screen,4_18_0,2023-09-11T17:16:22.348Z,,0,1,,7154,response,ISIC_4701900.JPG,0,ISIC_8479913.JPG,ISIC_8479913.JPG,false,0,keypress(z),500,178031,178031,170876.42,170879,170877,178031.92,8,400,19,,ISIC_4701900.JPG
break,html.Screen,4_18_1,2023-09-11T17:16:22.349Z,,0,,,NaN,,,,,,false,,,,178033,178032,,178031,,178031.92,8,400,,,
break_continue,html.Screen,4_18_2,2023-09-11T17:16:22.350Z,,0,,,NaN,,,,,,false,,,,178033,178033,,178033,,178031.92,8,400,,,
sequence,flow.Sequence,4_18,2023-09-11T17:16:22.351Z,,0,,,7156,completion,,,,,false,,,,178034,178033,170876.42,170879,170877,178031.92,8,400,,,
trial,html.Screen,4_19_0,2023-09-11T17:16:26.918Z,,0,1,,4568.079999999987,response,ISIC_0695029.JPG,15,ISIC_4596803.JPG,ISIC_0695029.JPG,false,1,keypress(m),500,182601,182600,178031.36,178034,178031.92,182605.96,8,400,20,,ISIC_4596803.JPG
break,html.Screen,4_19_1,2023-09-11T17:16:26.919Z,,0,,,NaN,,,,,,false,,,,182603,182602,,182601,,182605.96,8,400,,,
break_continue,html.Screen,4_19_2,2023-09-11T17:16:26.920Z,,0,,,NaN,,,,,,false,,,,182604,182604,,182603,,182605.96,8,400,,,
sequence,flow.Sequence,4_19,2023-09-11T17:16:26.921Z,,0,,,4572.079999999987,completion,,,,,false,,,,182605,182604,178031.36,178034,178031.92,182605.96,8,400,,,
trial,html.Screen,4_20_0,2023-09-11T17:16:30.587Z,,0,1,,3664.040000000008,response,ISIC_7084553.JPG,15,ISIC_0010271.JPG,ISIC_7084553.JPG,false,1,keypress(m),500,186271,186270,182601.24,182605,182605.96,186271.78,8,400,21,,ISIC_0010271.JPG
break,html.Screen,4_20_1,2023-09-11T17:16:30.589Z,,0,,,NaN,,,,,,false,,,,186272,186272,,186271,,186271.78,8,400,,,
break_continue,html.Screen,4_20_2,2023-09-11T17:16:30.590Z,,0,,,NaN,,,,,,false,,,,186274,186273,,186272,,186271.78,8,400,,,
sequence,flow.Sequence,4_20,2023-09-11T17:16:30.591Z,,0,,,3667.040000000008,completion,,,,,false,,,,186274,186273,182601.24,182605,182605.96,186271.78,8,400,,,
trial,html.Screen,4_21_0,2023-09-11T17:16:34.108Z,,0,1,,3519.220000000001,response,ISIC_2805573.JPG,4,ISIC_6176182.JPG,ISIC_2805573.JPG,false,1,keypress(m),500,189791,189791,186271.14,186275,186271.78,189791.76,8,400,22,,ISIC_6176182.JPG
break,html.Screen,4_21_1,2023-09-11T17:16:34.109Z,,0,,,NaN,,,,,,false,,,,189793,189792,,189791,,189791.76,8,400,,,
break_continue,html.Screen,4_21_2,2023-09-11T17:16:34.110Z,,0,,,NaN,,,,,,false,,,,189794,189793,,189793,,189791.76,8,400,,,
sequence,flow.Sequence,4_21,2023-09-11T17:16:34.111Z,,0,,,3521.220000000001,completion,,,,,false,,,,189794,189793,186271.14,186275,186271.78,189791.76,8,400,,,
trial,html.Screen,4_22_0,2023-09-11T17:16:39.219Z,,0,1,,5109.239999999991,response,ISIC_8478591.JPG,5,ISIC_0031401.JPG,ISIC_8478591.JPG,false,1,keypress(m),500,194901,194901,189791.2,189795,189791.76,194902.14,8,400,23,,ISIC_0031401.JPG
break,html.Screen,4_22_1,2023-09-11T17:16:39.219Z,,0,,,NaN,,,,,,false,,,,194903,194903,,194902,,194902.14,8,400,,,
break_continue,html.Screen,4_22_2,2023-09-11T17:16:39.220Z,,0,,,NaN,,,,,,false,,,,194904,194904,,194904,,194902.14,8,400,,,
sequence,flow.Sequence,4_22,2023-09-11T17:16:39.222Z,,0,,,5112.239999999991,completion,,,,,false,,,,194905,194904,189791.2,189795,189791.76,194902.14,8,400,,,
trial,html.Screen,4_23_0,2023-09-11T17:16:43.368Z,,0,1,,4147.859999999986,response,ISIC_5566396.JPG,14,ISIC_0059005.JPG,ISIC_5566396.JPG,false,1,keypress(m),500,199051,199050,194901.6,194905,194902.14,199051.6,8,400,24,,ISIC_0059005.JPG
break,html.Screen,4_23_1,2023-09-11T17:16:43.370Z,,0,,,NaN,,,,,,false,,,,199052,199052,,199051,,199051.6,8,400,,,
break_continue,html.Screen,4_23_2,2023-09-11T17:16:43.370Z,,0,,,NaN,,,,,,false,,,,199053,199053,,199052,,199051.6,8,400,,,
sequence,flow.Sequence,4_23,2023-09-11T17:16:43.371Z,,0,,,4150.859999999986,completion,,,,,false,,,,199053,199053,194901.6,194905,194902.14,199051.6,8,400,,,
trial,html.Screen,4_24_0,2023-09-11T17:16:46.538Z,,0,1,,3168.399999999994,response,ISIC_2418276.JPG,15,ISIC_0004455.JPG,ISIC_0004455.JPG,false,0,keypress(z),500,202221,202220,199051.02,199054,199051.6,202221.84,8,400,25,,ISIC_2418276.JPG
break,html.Screen,4_24_1,2023-09-11T17:16:46.539Z,,0,,,NaN,,,,,,false,,,,202222,202222,,202221,,202221.84,8,400,,,
break_continue,html.Screen,4_24_2,2023-09-11T17:16:46.540Z,,0,,,NaN,,,,,,false,,,,202223,202223,,202223,,202221.84,8,400,,,
sequence,flow.Sequence,4_24,2023-09-11T17:16:46.540Z,,0,,,3171.399999999994,completion,,,,,false,,,,202224,202223,199051.02,199054,199051.6,202221.84,8,400,,,
trial,html.Screen,4_25_0,2023-09-11T17:16:52.528Z,,0,1,,5989.1600000000035,response,ISIC_1445277.JPG,5,ISIC_4326917.JPG,ISIC_1445277.JPG,false,1,keypress(m),500,208212,208211,202221.26,202224,202221.84,208216.3,8,400,26,,ISIC_4326917.JPG
break,html.Screen,4_25_1,2023-09-11T17:16:52.530Z,,0,,,NaN,,,,,,false,,,,208213,208213,,208212,,208216.3,8,400,,,
break_continue,html.Screen,4_25_2,2023-09-11T17:16:52.530Z,,0,,,NaN,,,,,,false,,,,208214,208214,,208213,,208216.3,8,400,,,
sequence,flow.Sequence,4_25,2023-09-11T17:16:52.531Z,,0,,,5992.1600000000035,completion,,,,,false,,,,208214,208214,202221.26,202224,202221.84,208216.3,8,400,,,
trial,html.Screen,4_26_0,2023-09-11T17:16:55.488Z,,0,1,,2953.7000000000116,response,ISIC_4980656.JPG,14,ISIC_2483825.JPG,ISIC_2483825.JPG,false,0,keypress(z),500,211171,211170,208211.64,208214,208216.3,211171.98,8,400,27,,ISIC_4980656.JPG
break,html.Screen,4_26_1,2023-09-11T17:16:55.490Z,,0,,,NaN,,,,,,false,,,,211173,211173,,211171,,211171.98,8,400,,,
break_continue,html.Screen,4_26_2,2023-09-11T17:16:55.491Z,,0,,,NaN,,,,,,false,,,,211174,211174,,211173,,211171.98,8,400,,,
sequence,flow.Sequence,4_26,2023-09-11T17:16:55.491Z,,0,,,2957.7000000000116,completion,,,,,false,,,,211174,211174,208211.64,208214,208216.3,211171.98,8,400,,,
trial,html.Screen,4_27_0,2023-09-11T17:17:00.018Z,,0,1,,4528.0199999999895,response,ISIC_9996128.JPG,15,ISIC_7543736.JPG,ISIC_7543736.JPG,false,0,keypress(z),500,215701,215700,211171.38,211174,211171.98,215701.36,8,400,28,,ISIC_9996128.JPG
break,html.Screen,4_27_1,2023-09-11T17:17:00.019Z,,0,,,NaN,,,,,,false,,,,215702,215702,,215701,,215701.36,8,400,,,
break_continue,html.Screen,4_27_2,2023-09-11T17:17:00.020Z,,0,,,NaN,,,,,,false,,,,215703,215702,,215702,,215701.36,8,400,,,
sequence,flow.Sequence,4_27,2023-09-11T17:17:00.020Z,,0,,,4530.0199999999895,completion,,,,,false,,,,215703,215702,211171.38,211174,211171.98,215701.36,8,400,,,
trial,html.Screen,4_28_0,2023-09-11T17:17:05.148Z,,0,1,,5128.640000000014,response,ISIC_5536710.JPG,6,ISIC_0066506.JPG,ISIC_5536710.JPG,false,1,keypress(m),500,220831,220830,215700.88,215704,215701.36,220832.1,8,400,29,,ISIC_0066506.JPG
break,html.Screen,4_28_1,2023-09-11T17:17:05.150Z,,0,,,NaN,,,,,,false,,,,220832,220832,,220831,,220832.1,8,400,,,
break_continue,html.Screen,4_28_2,2023-09-11T17:17:05.151Z,,0,,,NaN,,,,,,false,,,,220834,220834,,220833,,220832.1,8,400,,,
sequence,flow.Sequence,4_28,2023-09-11T17:17:05.152Z,,0,,,5132.640000000014,completion,,,,,false,,,,220834,220834,215700.88,215703,215701.36,220832.1,8,400,,,
trial,html.Screen,4_29_0,2023-09-11T17:17:09.078Z,,0,1,,3928.899999999994,response,ISIC_7544537.JPG,14,ISIC_0399220.JPG,ISIC_0399220.JPG,false,0,keypress(z),500,224761,224761,220831.5,220834,220832.1,224761.92,8,400,30,,ISIC_7544537.JPG
break,html.Screen,4_29_1,2023-09-11T17:17:09.080Z,,0,,,NaN,,,,,,false,,,,224762,224762,,224761,,224761.92,8,400,,,
break_continue,html.Screen,4_29_2,2023-09-11T17:17:09.080Z,,0,,,NaN,,,,,,false,,,,224764,224763,,224763,,224761.92,8,400,,,
sequence,flow.Sequence,4_29,2023-09-11T17:17:09.081Z,,0,,,3930.899999999994,completion,,,,,false,,,,224764,224763,220831.5,220834,220832.1,224761.92,8,400,,,
trial,html.Screen,4_30_0,2023-09-11T17:17:13.058Z,,0,1,,3978.079999999987,response,ISIC_4166490.JPG,16,ISIC_4568084.JPG,ISIC_4568084.JPG,false,0,keypress(z),500,228741,228740,224761.36,224764,224761.92,228744.58,8,400,31,,ISIC_4166490.JPG
break,html.Screen,4_30_1,2023-09-11T17:17:13.059Z,,0,,,NaN,,,,,,false,,,,228743,228742,,228741,,228744.58,8,400,,,
break_continue,html.Screen,4_30_2,2023-09-11T17:17:13.060Z,,0,,,NaN,,,,,,false,,,,228743,228743,,228743,,228744.58,8,400,,,
sequence,flow.Sequence,4_30,2023-09-11T17:17:13.061Z,,0,,,3981.079999999987,completion,,,,,false,,,,228744,228743,224761.36,224764,224761.92,228744.58,8,400,,,
trial,html.Screen,4_31_0,2023-09-11T17:17:19.045Z,,0,1,,5982.420000000013,response,ISIC_0055797.JPG,5,ISIC_0026694.JPG,ISIC_0055797.JPG,false,1,keypress(m),500,234727,234727,228741.22,228744,228744.58,234759.74,8,400,32,,ISIC_0026694.JPG
break,html.Screen,4_31_1,2023-09-11T17:17:19.046Z,,0,,,NaN,,,,,,false,,,,234729,234728,,234728,,234759.74,8,400,,,
break_continue,html.Screen,4_31_2,2023-09-11T17:17:19.046Z,,0,,,NaN,,,,,,false,,,,234730,234729,,234729,,234759.74,8,400,,,
sequence,flow.Sequence,4_31,2023-09-11T17:17:19.048Z,,0,,,5984.420000000013,completion,,,,,false,,,,234730,234729,228741.22,228744,228744.58,234759.74,8,400,,,
trial,html.Screen,4_32_0,2023-09-11T17:17:23.137Z,,0,1,,4060.2600000000093,response,ISIC_0013867.JPG,8,ISIC_0029942.JPG,ISIC_0029942.JPG,false,0,keypress(z),500,238821,238820,234743.08,234731,234759.74,238825.4,8,400,33,,ISIC_0013867.JPG
break,html.Screen,4_32_1,2023-09-11T17:17:23.139Z,,0,,,NaN,,,,,,false,,,,238822,238822,,238821,,238825.4,8,400,,,
break_continue,html.Screen,4_32_2,2023-09-11T17:17:23.140Z,,0,,,NaN,,,,,,false,,,,238823,238823,,238823,,238825.4,8,400,,,
sequence,flow.Sequence,4_32,2023-09-11T17:17:23.141Z,,0,,,4063.2600000000093,completion,,,,,false,,,,238824,238823,234743.08,234730,234759.74,238825.4,8,400,,,
trial,html.Screen,4_33_0,2023-09-11T17:17:28.338Z,,0,1,,5194.600000000006,response,ISIC_6114646.JPG,15,ISIC_0014557.JPG,ISIC_6114646.JPG,false,1,keypress(m),500,244021,244020,238821.08,238824,238825.4,244024.06,8,400,34,,ISIC_0014557.JPG
break,html.Screen,4_33_1,2023-09-11T17:17:28.340Z,,0,,,NaN,,,,,,false,,,,244023,244022,,244021,,244024.06,8,400,,,
break_continue,html.Screen,4_33_2,2023-09-11T17:17:28.341Z,,0,,,NaN,,,,,,false,,,,244024,244023,,244023,,244024.06,8,400,,,
sequence,flow.Sequence,4_33,2023-09-11T17:17:28.341Z,,0,,,5197.600000000006,completion,,,,,false,,,,244024,244023,238821.08,238824,238825.4,244024.06,8,400,,,
trial,html.Screen,4_34_0,2023-09-11T17:17:31.811Z,,0,1,,3468.9400000000023,response,ISIC_7928137.JPG,17,ISIC_5409902.JPG,ISIC_5409902.JPG,false,0,keypress(z),500,247494,247493,244021.36,244024,244024.06,247494.64,8,400,35,,ISIC_7928137.JPG
break,html.Screen,4_34_1,2023-09-11T17:17:31.812Z,,0,,,NaN,,,,,,false,,,,247495,247495,,247494,,247494.64,8,400,,,
break_continue,html.Screen,4_34_2,2023-09-11T17:17:31.813Z,,0,,,NaN,,,,,,false,,,,247496,247496,,247496,,247494.64,8,400,,,
sequence,flow.Sequence,4_34,2023-09-11T17:17:31.813Z,,0,,,3471.9400000000023,completion,,,,,false,,,,247497,247496,244021.36,244024,244024.06,247494.64,8,400,,,
trial,html.Screen,4_35_0,2023-09-11T17:17:38.428Z,,0,1,,6615.359999999986,response,ISIC_0031365.JPG,2,ISIC_2433965.JPG,ISIC_0031365.JPG,false,1,keypress(m),500,254110,254110,247494.04,247497,247494.64,254111.42,8,400,36,,ISIC_2433965.JPG
break,html.Screen,4_35_1,2023-09-11T17:17:38.429Z,,0,,,NaN,,,,,,false,,,,254112,254111,,254111,,254111.42,8,400,,,
break_continue,html.Screen,4_35_2,2023-09-11T17:17:38.430Z,,0,,,NaN,,,,,,false,,,,254113,254112,,254112,,254111.42,8,400,,,
sequence,flow.Sequence,4_35,2023-09-11T17:17:38.430Z,,0,,,6617.359999999986,completion,,,,,false,,,,254114,254112,247494.04,247497,247494.64,254111.42,8,400,,,
trial,html.Screen,4_36_0,2023-09-11T17:17:43.408Z,,0,1,,4978.579999999987,response,ISIC_0029652.JPG,15,ISIC_0013953.JPG,ISIC_0013953.JPG,false,0,keypress(z),500,259090,259090,254110.88,254114,254111.42,259091.86,8,400,37,,ISIC_0029652.JPG
break,html.Screen,4_36_1,2023-09-11T17:17:43.409Z,,0,,,NaN,,,,,,false,,,,259093,259092,,259092,,259091.86,8,400,,,
break_continue,html.Screen,4_36_2,2023-09-11T17:17:43.410Z,,0,,,NaN,,,,,,false,,,,259094,259093,,259093,,259091.86,8,400,,,
sequence,flow.Sequence,4_36,2023-09-11T17:17:43.411Z,,0,,,4981.579999999987,completion,,,,,false,,,,259094,259093,254110.88,254114,254111.42,259091.86,8,400,,,
trial,html.Screen,4_37_0,2023-09-11T17:17:48.918Z,,0,1,,5508.140000000014,response,ISIC_0026879.JPG,5,ISIC_0059411.JPG,ISIC_0026879.JPG,false,1,keypress(m),500,264600,264600,259091.24,259094,259091.86,264601.5,8,400,38,,ISIC_0059411.JPG
break,html.Screen,4_37_1,2023-09-11T17:17:48.919Z,,0,,,NaN,,,,,,false,,,,264602,264601,,264601,,264601.5,8,400,,,
break_continue,html.Screen,4_37_2,2023-09-11T17:17:48.921Z,,0,,,NaN,,,,,,false,,,,264603,264603,,264602,,264601.5,8,400,,,
sequence,flow.Sequence,4_37,2023-09-11T17:17:48.921Z,,0,,,5511.140000000014,completion,,,,,false,,,,264603,264603,259091.24,259094,259091.86,264601.5,8,400,,,
trial,html.Screen,4_38_0,2023-09-11T17:17:54.798Z,,0,1,,5878.5,response,ISIC_2741583.JPG,15,ISIC_0065521.JPG,ISIC_0065521.JPG,false,0,keypress(z),500,270481,270480,264600.92,264603,264601.5,270484.12,8,400,39,,ISIC_2741583.JPG
break,html.Screen,4_38_1,2023-09-11T17:17:54.799Z,,0,,,NaN,,,,,,false,,,,270482,270482,,270481,,270484.12,8,400,,,
break_continue,html.Screen,4_38_2,2023-09-11T17:17:54.800Z,,0,,,NaN,,,,,,false,,,,270483,270482,,270482,,270484.12,8,400,,,
sequence,flow.Sequence,4_38,2023-09-11T17:17:54.800Z,,0,,,5880.5,completion,,,,,false,,,,270483,270482,264600.92,264603,264601.5,270484.12,8,400,,,
trial,html.Screen,4_39_0,2023-09-11T17:18:00.047Z,,0,1,,5245.880000000005,response,ISIC_7404937.JPG,7,ISIC_0000463.JPG,ISIC_0000463.JPG,false,0,keypress(z),500,275730,275730,270480.94,270483,270484.12,275732.86,8,400,40,,ISIC_7404937.JPG
break,html.Screen,4_39_1,2023-09-11T17:18:00.048Z,,0,,,NaN,,,,,,false,,,,275731,275731,,275730,,275732.86,8,400,,,
break_continue,html.Screen,4_39_2,2023-09-11T17:18:00.048Z,,0,,,NaN,,,,,,false,,,,275731,275731,,275731,,275732.86,8,400,,,
sequence,flow.Sequence,4_39,2023-09-11T17:18:00.048Z,,0,,,5246.880000000005,completion,,,,,false,,,,275732,275731,270480.94,270483,270484.12,275732.86,8,400,,,
trial,html.Screen,4_40_0,2023-09-11T17:18:03.887Z,,0,1,,3837.140000000014,response,ISIC_9450906.JPG,17,ISIC_4697037.JPG,ISIC_9450906.JPG,false,1,keypress(m),500,279571,279570,275730.12,275732,275732.86,279571.56,8,400,41,,ISIC_4697037.JPG
break,html.Screen,4_40_1,2023-09-11T17:18:03.889Z,,0,,,NaN,,,,,,false,,,,279572,279572,,279571,,279571.56,8,400,,,
break_continue,html.Screen,4_40_2,2023-09-11T17:18:03.890Z,,0,,,NaN,,,,,,false,,,,279573,279573,,279573,,279571.56,8,400,,,
sequence,flow.Sequence,4_40,2023-09-11T17:18:03.890Z,,0,,,3840.140000000014,completion,,,,,false,,,,279574,279573,275730.12,275732,275732.86,279571.56,8,400,,,
trial,html.Screen,4_41_0,2023-09-11T17:18:08.877Z,,0,1,,4988.440000000002,response,ISIC_0054357.JPG,15,ISIC_3067885.JPG,ISIC_0054357.JPG,false,1,keypress(m),500,284561,284560,279570.98,279574,279571.56,284564.02,8,400,42,,ISIC_3067885.JPG
break,html.Screen,4_41_1,2023-09-11T17:18:08.879Z,,0,,,NaN,,,,,,false,,,,284562,284562,,284561,,284564.02,8,400,,,
break_continue,html.Screen,4_41_2,2023-09-11T17:18:08.880Z,,0,,,NaN,,,,,,false,,,,284563,284563,,284563,,284564.02,8,400,,,
sequence,flow.Sequence,4_41,2023-09-11T17:18:08.880Z,,0,,,4991.440000000002,completion,,,,,false,,,,284564,284563,279570.98,279574,279571.56,284564.02,8,400,,,
trial,html.Screen,4_42_0,2023-09-11T17:18:13.764Z,,0,1,,4882.979999999981,response,ISIC_0014657.JPG,18,ISIC_6062536.JPG,ISIC_0014657.JPG,false,1,keypress(m),500,289447,289447,284560.98,284564,284564.02,289479.44,8,400,43,,ISIC_6062536.JPG
break,html.Screen,4_42_1,2023-09-11T17:18:13.764Z,,0,,,NaN,,,,,,false,,,,289448,289448,,289447,,289479.44,8,400,,,
break_continue,html.Screen,4_42_2,2023-09-11T17:18:13.765Z,,0,,,NaN,,,,,,false,,,,289448,289448,,289448,,289479.44,8,400,,,
sequence,flow.Sequence,4_42,2023-09-11T17:18:13.765Z,,0,,,4883.979999999981,completion,,,,,false,,,,289448,289448,284560.98,284564,284564.02,289479.44,8,400,,,
trial,html.Screen,4_43_0,2023-09-11T17:18:18.007Z,,0,1,,4210.559999999998,response,ISIC_0030003.JPG,11,ISIC_6489993.JPG,ISIC_6489993.JPG,false,0,keypress(z),500,293691,293690,289462.78,289448,289479.44,293690.8,8,400,44,,ISIC_0030003.JPG
break,html.Screen,4_43_1,2023-09-11T17:18:18.008Z,,0,,,NaN,,,,,,false,,,,293691,293691,,293691,,293690.8,8,400,,,
break_continue,html.Screen,4_43_2,2023-09-11T17:18:18.008Z,,0,,,NaN,,,,,,false,,,,293691,293691,,293691,,293690.8,8,400,,,
sequence,flow.Sequence,4_43,2023-09-11T17:18:18.009Z,,0,,,4211.559999999998,completion,,,,,false,,,,293691,293691,289462.78,289448,289479.44,293690.8,8,400,,,
trial,html.Screen,4_44_0,2023-09-11T17:18:22.688Z,,0,1,,4679.200000000012,response,ISIC_4654965.JPG,18,ISIC_0032029.JPG,ISIC_4654965.JPG,false,1,keypress(m),500,298371,298370,293690.5,293692,293690.8,298377.28,8,400,45,,ISIC_0032029.JPG
break,html.Screen,4_44_1,2023-09-11T17:18:22.689Z,,0,,,NaN,,,,,,false,,,,298372,298372,,298371,,298377.28,8,400,,,
break_continue,html.Screen,4_44_2,2023-09-11T17:18:22.690Z,,0,,,NaN,,,,,,false,,,,298373,298373,,298373,,298377.28,8,400,,,
sequence,flow.Sequence,4_44,2023-09-11T17:18:22.690Z,,0,,,4682.200000000012,completion,,,,,false,,,,298374,298373,293690.5,293692,293690.8,298377.28,8,400,,,
trial,html.Screen,4_45_0,2023-09-11T17:18:25.798Z,,0,1,,3102.719999999972,response,ISIC_4208361.JPG,18,ISIC_8713330.JPG,ISIC_8713330.JPG,false,0,keypress(z),500,301481,301480,298370.96,298374,298377.28,301481.62,8,400,46,,ISIC_4208361.JPG
break,html.Screen,4_45_1,2023-09-11T17:18:25.799Z,,0,,,NaN,,,,,,false,,,,301482,301482,,301481,,301481.62,8,400,,,
break_continue,html.Screen,4_45_2,2023-09-11T17:18:25.800Z,,0,,,NaN,,,,,,false,,,,301483,301483,,301483,,301481.62,8,400,,,
sequence,flow.Sequence,4_45,2023-09-11T17:18:25.800Z,,0,,,3105.719999999972,completion,,,,,false,,,,301483,301483,298370.96,298374,298377.28,301481.62,8,400,,,
trial,html.Screen,4_46_0,2023-09-11T17:18:29.647Z,,0,1,,3848.3800000000047,response,ISIC_0563533.JPG,6,ISIC_0057344.JPG,ISIC_0057344.JPG,false,0,keypress(z),500,305330,305330,301481.08,301483,301481.62,305331.64,8,400,47,,ISIC_0563533.JPG
break,html.Screen,4_46_1,2023-09-11T17:18:29.649Z,,0,,,NaN,,,,,,false,,,,305332,305332,,305331,,305331.64,8,400,,,
break_continue,html.Screen,4_46_2,2023-09-11T17:18:29.650Z,,0,,,NaN,,,,,,false,,,,305333,305333,,305332,,305331.64,8,400,,,
sequence,flow.Sequence,4_46,2023-09-11T17:18:29.650Z,,0,,,3851.3800000000047,completion,,,,,false,,,,305334,305333,301481.08,301483,301481.62,305331.64,8,400,,,
trial,html.Screen,4_47_0,2023-09-11T17:18:34.858Z,,0,1,,5208.359999999986,response,ISIC_0001104.JPG,15,ISIC_0030129.JPG,ISIC_0030129.JPG,false,0,keypress(z),500,310541,310540,305331.04,305334,305331.64,310542.02,8,400,48,,ISIC_0001104.JPG
break,html.Screen,4_47_1,2023-09-11T17:18:34.860Z,,0,,,NaN,,,,,,false,,,,310542,310542,,310541,,310542.02,8,400,,,
break_continue,html.Screen,4_47_2,2023-09-11T17:18:34.861Z,,0,,,NaN,,,,,,false,,,,310544,310543,,310543,,310542.02,8,400,,,
sequence,flow.Sequence,4_47,2023-09-11T17:18:34.861Z,,0,,,5211.359999999986,completion,,,,,false,,,,310544,310543,305331.04,305334,305331.64,310542.02,8,400,,,
trial,html.Screen,4_48_0,2023-09-11T17:18:37.817Z,,0,1,,2957.9799999999814,response,ISIC_0567814.JPG,15,ISIC_1046678.JPG,ISIC_0567814.JPG,false,1,keypress(m),500,313501,313500,310541.52,310544,310542.02,313506.86,8,400,49,,ISIC_1046678.JPG
break,html.Screen,4_48_1,2023-09-11T17:18:37.819Z,,0,,,NaN,,,,,,false,,,,313502,313502,,313501,,313506.86,8,400,,,
break_continue,html.Screen,4_48_2,2023-09-11T17:18:37.820Z,,0,,,NaN,,,,,,false,,,,313503,313503,,313502,,313506.86,8,400,,,
sequence,flow.Sequence,4_48,2023-09-11T17:18:37.820Z,,0,,,2960.9799999999814,completion,,,,,false,,,,313503,313503,310541.52,310544,310542.02,313506.86,8,400,,,
trial,html.Screen,4_49_0,2023-09-11T17:18:41.968Z,,0,1,,4143.140000000014,response,ISIC_4341261.JPG,15,ISIC_0029225.JPG,ISIC_0029225.JPG,false,0,keypress(z),500,317651,317650,313500.8,313504,313506.86,317651.7,8,400,50,,ISIC_4341261.JPG
break,html.Screen,4_49_1,2023-09-11T17:18:51.955Z,,0,,,10001.719999999972,timeout,,,,,false,,,,327639,327636.76,317651.16,317651,317651.7,327653.42,8,400,,,
break_continue,html.Screen,4_49_2,2023-09-11T17:18:54.459Z,,0,,,2461.5800000000163,response,,,,,false,continue,keypress(Space),,330142,330115,327636.76,327639,327653.42,330142.68,8,400,,,
sequence,flow.Sequence,4_49,2023-09-11T17:18:54.459Z,,0,,,16608.140000000014,completion,,,,,false,,,,330142,330115,313500.8,313503,313506.86,330142.68,8,400,,,
trial,html.Screen,4_50_0,2023-09-11T17:18:58.827Z,,0,2,,4367.320000000007,response,ISIC_0011626.JPG,16,ISIC_0066001.JPG,ISIC_0066001.JPG,false,0,keypress(z),500,334511,334510,330142.34,330142,330142.68,334511.44,8,400,1,,ISIC_0011626.JPG
break,html.Screen,4_50_1,2023-09-11T17:18:58.830Z,,0,,,NaN,,,,,,false,,,,334512,334512,,334511,,334511.44,8,400,,,
break_continue,html.Screen,4_50_2,2023-09-11T17:18:58.830Z,,0,,,NaN,,,,,,false,,,,334513,334513,,334513,,334511.44,8,400,,,
sequence,flow.Sequence,4_50,2023-09-11T17:18:58.831Z,,0,,,4370.320000000007,completion,,,,,false,,,,334513,334513,330142.34,330142,330142.68,334511.44,8,400,,,
trial,html.Screen,4_51_0,2023-09-11T17:19:02.288Z,,0,2,,3459.5599999999977,response,ISIC_1294049.JPG,15,ISIC_4116224.JPG,ISIC_4116224.JPG,false,0,keypress(z),500,337971,337971,334510.88,334514,334511.44,337971.66,8,400,2,,ISIC_1294049.JPG
break,html.Screen,4_51_1,2023-09-11T17:19:02.289Z,,0,,,NaN,,,,,,false,,,,337973,337972,,337971,,337971.66,8,400,,,
break_continue,html.Screen,4_51_2,2023-09-11T17:19:02.291Z,,0,,,NaN,,,,,,false,,,,337974,337974,,337973,,337971.66,8,400,,,
sequence,flow.Sequence,4_51,2023-09-11T17:19:02.291Z,,0,,,3462.5599999999977,completion,,,,,false,,,,337974,337974,334510.88,334514,334511.44,337971.66,8,400,,,
trial,html.Screen,4_52_0,2023-09-11T17:19:05.377Z,,0,2,,3088.3400000000256,response,ISIC_1983754.JPG,5,ISIC_2331656.JPG,ISIC_2331656.JPG,false,0,keypress(z),500,341060,341060,337971.14,337974,337971.66,341066.78,8,400,3,,ISIC_1983754.JPG
break,html.Screen,4_52_1,2023-09-11T17:19:05.379Z,,0,,,NaN,,,,,,false,,,,341062,341061,,341061,,341066.78,8,400,,,
break_continue,html.Screen,4_52_2,2023-09-11T17:19:05.380Z,,0,,,NaN,,,,,,false,,,,341063,341063,,341062,,341066.78,8,400,,,
sequence,flow.Sequence,4_52,2023-09-11T17:19:05.380Z,,0,,,3091.3400000000256,completion,,,,,false,,,,341063,341063,337971.14,337974,337971.66,341066.78,8,400,,,
trial,html.Screen,4_53_0,2023-09-11T17:19:08.908Z,,0,2,,3523.219999999972,response,ISIC_0212774.JPG,15,ISIC_5874357.JPG,ISIC_5874357.JPG,false,0,keypress(z),500,344591,344590,341060.86,341064,341066.78,344591.76,8,400,4,,ISIC_0212774.JPG
break,html.Screen,4_53_1,2023-09-11T17:19:08.909Z,,0,,,NaN,,,,,,false,,,,344592,344592,,344591,,344591.76,8,400,,,
break_continue,html.Screen,4_53_2,2023-09-11T17:19:08.910Z,,0,,,NaN,,,,,,false,,,,344594,344593,,344593,,344591.76,8,400,,,
sequence,flow.Sequence,4_53,2023-09-11T17:19:08.910Z,,0,,,3526.219999999972,completion,,,,,false,,,,344594,344593,341060.86,341064,341066.78,344591.76,8,400,,,
trial,html.Screen,4_54_0,2023-09-11T17:19:12.558Z,,0,2,,3648.2399999999907,response,ISIC_0032047.JPG,15,ISIC_1615996.JPG,ISIC_1615996.JPG,false,0,keypress(z),500,348240,348240,344591.18,344594,344591.76,348241.14,8,400,5,,ISIC_0032047.JPG
break,html.Screen,4_54_1,2023-09-11T17:19:12.558Z,,0,,,NaN,,,,,,false,,,,348242,348242,,348240,,348241.14,8,400,,,
break_continue,html.Screen,4_54_2,2023-09-11T17:19:12.560Z,,0,,,NaN,,,,,,false,,,,348242,348242,,348242,,348241.14,8,400,,,
sequence,flow.Sequence,4_54,2023-09-11T17:19:12.560Z,,0,,,3650.2399999999907,completion,,,,,false,,,,348243,348242,344591.18,344594,344591.76,348241.14,8,400,,,
trial,html.Screen,4_55_0,2023-09-11T17:19:16.118Z,,0,2,,3558.859999999986,response,ISIC_0027193.JPG,6,ISIC_9159730.JPG,ISIC_0027193.JPG,false,1,keypress(m),500,351800,351800,348240.6,348243,348241.14,351801.28,8,400,6,,ISIC_9159730.JPG
break,html.Screen,4_55_1,2023-09-11T17:19:16.119Z,,0,,,NaN,,,,,,false,,,,351801,351801,,351800,,351801.28,8,400,,,
break_continue,html.Screen,4_55_2,2023-09-11T17:19:16.120Z,,0,,,NaN,,,,,,false,,,,351802,351802,,351802,,351801.28,8,400,,,
sequence,flow.Sequence,4_55,2023-09-11T17:19:16.120Z,,0,,,3560.859999999986,completion,,,,,false,,,,351803,351802,348240.6,348243,348241.14,351801.28,8,400,,,
trial,html.Screen,4_56_0,2023-09-11T17:19:19.288Z,,0,2,,3168.719999999972,response,ISIC_0027993.JPG,16,ISIC_0028027.JPG,ISIC_0028027.JPG,false,0,keypress(z),500,354970,354970,351800.72,351803,351801.28,354971.4,8,400,7,,ISIC_0027993.JPG
break,html.Screen,4_56_1,2023-09-11T17:19:19.289Z,,0,,,NaN,,,,,,false,,,,354972,354972,,354971,,354971.4,8,400,,,
break_continue,html.Screen,4_56_2,2023-09-11T17:19:19.290Z,,0,,,NaN,,,,,,false,,,,354973,354973,,354972,,354971.4,8,400,,,
sequence,flow.Sequence,4_56,2023-09-11T17:19:19.291Z,,0,,,3171.719999999972,completion,,,,,false,,,,354973,354973,351800.72,351803,351801.28,354971.4,8,400,,,
trial,html.Screen,4_57_0,2023-09-11T17:19:22.908Z,,0,2,,3618.5999999999767,response,ISIC_0030435.JPG,6,ISIC_2426937.JPG,ISIC_2426937.JPG,false,0,keypress(z),500,358591,358590,354970.86,354974,354971.4,358595.84,8,400,8,,ISIC_0030435.JPG
break,html.Screen,4_57_1,2023-09-11T17:19:22.909Z,,0,,,NaN,,,,,,false,,,,358592,358592,,358591,,358595.84,8,400,,,
break_continue,html.Screen,4_57_2,2023-09-11T17:19:22.910Z,,0,,,NaN,,,,,,false,,,,358593,358593,,358592,,358595.84,8,400,,,
sequence,flow.Sequence,4_57,2023-09-11T17:19:22.910Z,,0,,,3621.5999999999767,completion,,,,,false,,,,358594,358593,354970.86,354974,354971.4,358595.84,8,400,,,
trial,html.Screen,4_58_0,2023-09-11T17:19:25.878Z,,0,2,,2964.1599999999744,response,ISIC_6577632.JPG,15,ISIC_7758102.JPG,ISIC_7758102.JPG,false,0,keypress(z),500,361561,361560,358591.02,358594,358595.84,361561.76,8,400,9,,ISIC_6577632.JPG
break,html.Screen,4_58_1,2023-09-11T17:19:25.880Z,,0,,,NaN,,,,,,false,,,,361562,361562,,361561,,361561.76,8,400,,,
break_continue,html.Screen,4_58_2,2023-09-11T17:19:25.881Z,,0,,,NaN,,,,,,false,,,,361563,361563,,361563,,361561.76,8,400,,,
sequence,flow.Sequence,4_58,2023-09-11T17:19:25.881Z,,0,,,2967.1599999999744,completion,,,,,false,,,,361564,361563,358591.02,358594,358595.84,361561.76,8,400,,,
trial,html.Screen,4_59_0,2023-09-11T17:19:29.007Z,,0,2,,3128.2399999999907,response,ISIC_0072730.JPG,14,ISIC_0872145.JPG,ISIC_0872145.JPG,false,0,keypress(z),500,364690,364690,361561.24,361564,361561.76,364694.32,8,400,10,,ISIC_0072730.JPG
break,html.Screen,4_59_1,2023-09-11T17:19:29.009Z,,0,,,NaN,,,,,,false,,,,364692,364691,,364691,,364694.32,8,400,,,
break_continue,html.Screen,4_59_2,2023-09-11T17:19:29.010Z,,0,,,NaN,,,,,,false,,,,364693,364693,,364693,,364694.32,8,400,,,
sequence,flow.Sequence,4_59,2023-09-11T17:19:29.010Z,,0,,,3131.2399999999907,completion,,,,,false,,,,364693,364693,361561.24,361564,361561.76,364694.32,8,400,,,
trial,html.Screen,4_60_0,2023-09-11T17:19:32.517Z,,0,2,,3505.679999999993,response,ISIC_0367225.JPG,16,ISIC_2147549.JPG,ISIC_2147549.JPG,false,0,keypress(z),500,368200,368200,364690.9,364694,364694.32,368201.3,8,400,11,,ISIC_0367225.JPG
break,html.Screen,4_60_1,2023-09-11T17:19:32.519Z,,0,,,NaN,,,,,,false,,,,368202,368202,,368201,,368201.3,8,400,,,
break_continue,html.Screen,4_60_2,2023-09-11T17:19:32.520Z,,0,,,NaN,,,,,,false,,,,368203,368203,,368202,,368201.3,8,400,,,
sequence,flow.Sequence,4_60,2023-09-11T17:19:32.520Z,,0,,,3508.679999999993,completion,,,,,false,,,,368204,368203,364690.9,364694,364694.32,368201.3,8,400,,,
trial,html.Screen,4_61_0,2023-09-11T17:19:35.708Z,,0,2,,3189.7000000000116,response,ISIC_2458253.JPG,4,ISIC_0000475.JPG,ISIC_2458253.JPG,false,1,keypress(m),500,371391,371391,368200.74,368204,368201.3,371391.66,8,400,12,,ISIC_0000475.JPG
break,html.Screen,4_61_1,2023-09-11T17:19:35.709Z,,0,,,NaN,,,,,,false,,,,371392,371392,,371391,,371391.66,8,400,,,
break_continue,html.Screen,4_61_2,2023-09-11T17:19:35.710Z,,0,,,NaN,,,,,,false,,,,371393,371393,,371393,,371391.66,8,400,,,
sequence,flow.Sequence,4_61,2023-09-11T17:19:35.711Z,,0,,,3191.7000000000116,completion,,,,,false,,,,371394,371393,368200.74,368204,368201.3,371391.66,8,400,,,
trial,html.Screen,4_62_0,2023-09-11T17:19:39.127Z,,0,2,,3418.3400000000256,response,ISIC_4634128.JPG,4,ISIC_0066749.JPG,ISIC_4634128.JPG,false,1,keypress(m),500,374810,374810,371391.04,371394,371391.66,374811.14,8,400,13,,ISIC_0066749.JPG
break,html.Screen,4_62_1,2023-09-11T17:19:39.129Z,,0,,,NaN,,,,,,false,,,,374812,374812,,374810,,374811.14,8,400,,,
break_continue,html.Screen,4_62_2,2023-09-11T17:19:39.129Z,,0,,,NaN,,,,,,false,,,,374813,374813,,374812,,374811.14,8,400,,,
sequence,flow.Sequence,4_62,2023-09-11T17:19:39.130Z,,0,,,3421.3400000000256,completion,,,,,false,,,,374813,374813,371391.04,371394,371391.66,374811.14,8,400,,,
trial,html.Screen,4_63_0,2023-09-11T17:19:42.218Z,,0,2,,3088.859999999986,response,ISIC_0030366.JPG,5,ISIC_4374554.JPG,ISIC_4374554.JPG,false,0,keypress(z),500,377901,377900,374810.62,374813,374811.14,377901.46,8,400,14,,ISIC_0030366.JPG
break,html.Screen,4_63_1,2023-09-11T17:19:42.219Z,,0,,,NaN,,,,,,false,,,,377902,377902,,377901,,377901.46,8,400,,,
break_continue,html.Screen,4_63_2,2023-09-11T17:19:42.220Z,,0,,,NaN,,,,,,false,,,,377903,377903,,377902,,377901.46,8,400,,,
sequence,flow.Sequence,4_63,2023-09-11T17:19:42.220Z,,0,,,3091.859999999986,completion,,,,,false,,,,377903,377903,374810.62,374813,374811.14,377901.46,8,400,,,
trial,html.Screen,4_64_0,2023-09-11T17:19:46.788Z,,0,2,,4568.539999999979,response,ISIC_0010225.JPG,5,ISIC_0008251.JPG,ISIC_0010225.JPG,false,1,keypress(m),500,382470,382470,377900.9,377903,377901.46,382473.28,8,400,15,,ISIC_0008251.JPG
break,html.Screen,4_64_1,2023-09-11T17:19:46.789Z,,0,,,NaN,,,,,,false,,,,382472,382472,,382470,,382473.28,8,400,,,
break_continue,html.Screen,4_64_2,2023-09-11T17:19:46.790Z,,0,,,NaN,,,,,,false,,,,382473,382473,,382472,,382473.28,8,400,,,
sequence,flow.Sequence,4_64,2023-09-11T17:19:46.790Z,,0,,,4571.539999999979,completion,,,,,false,,,,382473,382473,377900.9,377903,377901.46,382473.28,8,400,,,
trial,html.Screen,4_65_0,2023-09-11T17:19:51.457Z,,0,2,,4666.719999999972,response,ISIC_0000483.JPG,16,ISIC_6254731.JPG,ISIC_6254731.JPG,false,0,keypress(z),500,387140,387140,382470.56,382474,382473.28,387140.82,8,400,16,,ISIC_0000483.JPG
break,html.Screen,4_65_1,2023-09-11T17:19:51.458Z,,0,,,NaN,,,,,,false,,,,387142,387141,,387140,,387140.82,8,400,,,
break_continue,html.Screen,4_65_2,2023-09-11T17:19:51.459Z,,0,,,NaN,,,,,,false,,,,387143,387143,,387142,,387140.82,8,400,,,
sequence,flow.Sequence,4_65,2023-09-11T17:19:51.460Z,,0,,,4669.719999999972,completion,,,,,false,,,,387144,387143,382470.56,382474,382473.28,387140.82,8,400,,,
trial,html.Screen,4_66_0,2023-09-11T17:19:55.938Z,,0,2,,4480.179999999993,response,ISIC_5238649.JPG,15,ISIC_0027499.JPG,ISIC_0027499.JPG,false,0,keypress(z),500,391621,391621,387140.34,387144,387140.82,391621.5,8,400,17,,ISIC_5238649.JPG
break,html.Screen,4_66_1,2023-09-11T17:19:55.940Z,,0,,,NaN,,,,,,false,,,,391622,391622,,391621,,391621.5,8,400,,,
break_continue,html.Screen,4_66_2,2023-09-11T17:19:55.941Z,,0,,,NaN,,,,,,false,,,,391623,391623,,391622,,391621.5,8,400,,,
sequence,flow.Sequence,4_66,2023-09-11T17:19:55.941Z,,0,,,4482.179999999993,completion,,,,,false,,,,391624,391623,387140.34,387144,387140.82,391621.5,8,400,,,
trial,html.Screen,4_67_0,2023-09-11T17:19:58.888Z,,0,2,,2948.5,response,ISIC_0070992.JPG,5,ISIC_8048162.JPG,ISIC_8048162.JPG,false,0,keypress(z),500,394571,394570,391620.96,391624,391621.5,394571.64,8,400,18,,ISIC_0070992.JPG
break,html.Screen,4_67_1,2023-09-11T17:19:58.889Z,,0,,,NaN,,,,,,false,,,,394573,394572,,394571,,394571.64,8,400,,,
break_continue,html.Screen,4_67_2,2023-09-11T17:19:58.890Z,,0,,,NaN,,,,,,false,,,,394573,394573,,394573,,394571.64,8,400,,,
sequence,flow.Sequence,4_67,2023-09-11T17:19:58.890Z,,0,,,2951.5,completion,,,,,false,,,,394574,394573,391620.96,391624,391621.5,394571.64,8,400,,,
trial,html.Screen,4_68_0,2023-09-11T17:20:03.178Z,,0,2,,4288.359999999986,response,ISIC_0027797.JPG,15,ISIC_0865706.JPG,ISIC_0865706.JPG,false,0,keypress(z),500,398861,398860,394571.04,394574,394571.64,398869.14,8,400,19,,ISIC_0027797.JPG
break,html.Screen,4_68_1,2023-09-11T17:20:03.179Z,,0,,,NaN,,,,,,false,,,,398863,398862,,398861,,398869.14,8,400,,,
break_continue,html.Screen,4_68_2,2023-09-11T17:20:03.181Z,,0,,,NaN,,,,,,false,,,,398864,398863,,398863,,398869.14,8,400,,,
sequence,flow.Sequence,4_68,2023-09-11T17:20:03.181Z,,0,,,4291.359999999986,completion,,,,,false,,,,398865,398863,394571.04,394574,394571.64,398869.14,8,400,,,
trial,html.Screen,4_69_0,2023-09-11T17:20:06.368Z,,0,2,,3180.859999999986,response,ISIC_2159510.JPG,4,ISIC_5673859.JPG,ISIC_5673859.JPG,false,0,keypress(z),500,402051,402050,398861.18,398866,398869.14,402051.52,8,400,20,,ISIC_2159510.JPG
break,html.Screen,4_69_1,2023-09-11T17:20:06.369Z,,0,,,NaN,,,,,,false,,,,402052,402052,,402051,,402051.52,8,400,,,
break_continue,html.Screen,4_69_2,2023-09-11T17:20:06.370Z,,0,,,NaN,,,,,,false,,,,402053,402053,,402053,,402051.52,8,400,,,
sequence,flow.Sequence,4_69,2023-09-11T17:20:06.370Z,,0,,,3183.859999999986,completion,,,,,false,,,,402054,402053,398861.18,398865,398869.14,402051.52,8,400,,,
trial,html.Screen,4_70_0,2023-09-11T17:20:09.618Z,,0,2,,3248.4799999999814,response,ISIC_4129376.JPG,4,ISIC_6771810.JPG,ISIC_4129376.JPG,false,1,keypress(m),500,405300,405300,402050.98,402054,402051.52,405301.42,8,400,21,,ISIC_6771810.JPG
break,html.Screen,4_70_1,2023-09-11T17:20:09.619Z,,0,,,NaN,,,,,,false,,,,405302,405302,,405301,,405301.42,8,400,,,
break_continue,html.Screen,4_70_2,2023-09-11T17:20:09.620Z,,0,,,NaN,,,,,,false,,,,405303,405303,,405303,,405301.42,8,400,,,
sequence,flow.Sequence,4_70,2023-09-11T17:20:09.621Z,,0,,,3251.4799999999814,completion,,,,,false,,,,405304,405303,402050.98,402054,402051.52,405301.42,8,400,,,
trial,html.Screen,4_71_0,2023-09-11T17:20:12.747Z,,0,2,,3128.5800000000163,response,ISIC_4634128.JPG,14,ISIC_5281485.JPG,ISIC_4634128.JPG,false,1,keypress(m),500,408430,408430,405300.84,405304,405301.42,408433.52,8,400,22,,ISIC_5281485.JPG
break,html.Screen,4_71_1,2023-09-11T17:20:12.749Z,,0,,,NaN,,,,,,false,,,,408432,408431,,408431,,408433.52,8,400,,,
break_continue,html.Screen,4_71_2,2023-09-11T17:20:12.750Z,,0,,,NaN,,,,,,false,,,,408433,408432,,408432,,408433.52,8,400,,,
sequence,flow.Sequence,4_71,2023-09-11T17:20:12.750Z,,0,,,3130.5800000000163,completion,,,,,false,,,,408433,408432,405300.84,405304,405301.42,408433.52,8,400,,,
trial,html.Screen,4_72_0,2023-09-11T17:20:15.948Z,,0,2,,3195.4799999999814,response,ISIC_5420979.JPG,15,ISIC_1067390.JPG,ISIC_5420979.JPG,false,1,keypress(m),500,411630,411629,408430.66,408434,408433.52,411632.68,8,400,23,,ISIC_1067390.JPG
break,html.Screen,4_72_1,2023-09-11T17:20:15.949Z,,0,,,NaN,,,,,,false,,,,411632,411632,,411630,,411632.68,8,400,,,
break_continue,html.Screen,4_72_2,2023-09-11T17:20:15.950Z,,0,,,NaN,,,,,,false,,,,411632,411632,,411632,,411632.68,8,400,,,
sequence,flow.Sequence,4_72,2023-09-11T17:20:15.951Z,,0,,,3198.4799999999814,completion,,,,,false,,,,411633,411632,408430.66,408434,408433.52,411632.68,8,400,,,
trial,html.Screen,4_73_0,2023-09-11T17:20:19.217Z,,0,2,,3266.320000000007,response,ISIC_0033603.JPG,15,ISIC_2885086.JPG,ISIC_0033603.JPG,false,1,keypress(m),500,414900,414899,411630.64,411634,411632.68,414900.92,8,400,24,,ISIC_2885086.JPG
break,html.Screen,4_73_1,2023-09-11T17:20:19.218Z,,0,,,NaN,,,,,,false,,,,414902,414901,,414900,,414900.92,8,400,,,
break_continue,html.Screen,4_73_2,2023-09-11T17:20:19.219Z,,0,,,NaN,,,,,,false,,,,414902,414902,,414902,,414900.92,8,400,,,
sequence,flow.Sequence,4_73,2023-09-11T17:20:19.219Z,,0,,,3269.320000000007,completion,,,,,false,,,,414902,414902,411630.64,411634,411632.68,414900.92,8,400,,,
trial,html.Screen,4_74_0,2023-09-11T17:20:22.787Z,,0,2,,3569.0800000000163,response,ISIC_8373462.JPG,15,ISIC_1223849.JPG,ISIC_8373462.JPG,false,1,keypress(m),500,418470,418470,414900.4,414903,414900.92,418470.96,8,400,25,,ISIC_1223849.JPG
break,html.Screen,4_74_1,2023-09-11T17:20:22.789Z,,0,,,NaN,,,,,,false,,,,418472,418472,,418471,,418470.96,8,400,,,
break_continue,html.Screen,4_74_2,2023-09-11T17:20:22.790Z,,0,,,NaN,,,,,,false,,,,418472,418472,,418472,,418470.96,8,400,,,
sequence,flow.Sequence,4_74,2023-09-11T17:20:22.790Z,,0,,,3571.0800000000163,completion,,,,,false,,,,418473,418472,414900.4,414903,414900.92,418470.96,8,400,,,
trial,html.Screen,4_75_0,2023-09-11T17:20:26.417Z,,0,2,,3629.039999999979,response,ISIC_0002213.JPG,14,ISIC_2647453.JPG,ISIC_2647453.JPG,false,0,keypress(z),500,422101,422100,418470.4,418473,418470.96,422101.5,8,400,26,,ISIC_0002213.JPG
break,html.Screen,4_75_1,2023-09-11T17:20:26.419Z,,0,,,NaN,,,,,,false,,,,422102,422102,,422101,,422101.5,8,400,,,
break_continue,html.Screen,4_75_2,2023-09-11T17:20:26.419Z,,0,,,NaN,,,,,,false,,,,422103,422102,,422102,,422101.5,8,400,,,
sequence,flow.Sequence,4_75,2023-09-11T17:20:26.420Z,,0,,,3631.039999999979,completion,,,,,false,,,,422103,422102,418470.4,418473,418470.96,422101.5,8,400,,,
trial,html.Screen,4_76_0,2023-09-11T17:20:29.617Z,,0,2,,3197.5,response,ISIC_0013184.JPG,16,ISIC_3613392.JPG,ISIC_0013184.JPG,false,1,keypress(m),500,425301,425299,422100.94,422103,422101.5,425301.26,8,400,27,,ISIC_3613392.JPG
break,html.Screen,4_76_1,2023-09-11T17:20:29.619Z,,0,,,NaN,,,,,,false,,,,425302,425302,,425301,,425301.26,8,400,,,
break_continue,html.Screen,4_76_2,2023-09-11T17:20:29.620Z,,0,,,NaN,,,,,,false,,,,425303,425302,,425302,,425301.26,8,400,,,
sequence,flow.Sequence,4_76,2023-09-11T17:20:29.620Z,,0,,,3200.5,completion,,,,,false,,,,425303,425302,422100.94,422103,422101.5,425301.26,8,400,,,
trial,html.Screen,4_77_0,2023-09-11T17:20:33.818Z,,0,2,,4198.739999999991,response,ISIC_0504730.JPG,15,ISIC_5157799.JPG,ISIC_0504730.JPG,false,1,keypress(m),500,429500,429500,425300.72,425303,425301.26,429501.48,8,400,28,,ISIC_5157799.JPG
break,html.Screen,4_77_1,2023-09-11T17:20:33.819Z,,0,,,NaN,,,,,,false,,,,429502,429501,,429501,,429501.48,8,400,,,
break_continue,html.Screen,4_77_2,2023-09-11T17:20:33.820Z,,0,,,NaN,,,,,,false,,,,429503,429502,,429502,,429501.48,8,400,,,
sequence,flow.Sequence,4_77,2023-09-11T17:20:33.821Z,,0,,,4200.739999999991,completion,,,,,false,,,,429503,429502,425300.72,425303,425301.26,429501.48,8,400,,,
trial,html.Screen,4_78_0,2023-09-11T17:20:36.928Z,,0,2,,3108.5200000000186,response,ISIC_5850699.JPG,5,ISIC_0002901.JPG,ISIC_5850699.JPG,false,1,keypress(m),500,432610,432610,429500.92,429503,429501.48,432611.12,8,400,29,,ISIC_0002901.JPG
break,html.Screen,4_78_1,2023-09-11T17:20:36.929Z,,0,,,NaN,,,,,,false,,,,432612,432612,,432611,,432611.12,8,400,,,
break_continue,html.Screen,4_78_2,2023-09-11T17:20:36.929Z,,0,,,NaN,,,,,,false,,,,432612,432612,,432612,,432611.12,8,400,,,
sequence,flow.Sequence,4_78,2023-09-11T17:20:36.930Z,,0,,,3110.5200000000186,completion,,,,,false,,,,432613,432612,429500.92,429503,429501.48,432611.12,8,400,,,
trial,html.Screen,4_79_0,2023-09-11T17:20:41.027Z,,0,2,,4098.880000000005,response,ISIC_5237059.JPG,6,ISIC_7189490.JPG,ISIC_5237059.JPG,false,1,keypress(m),500,436710,436710,432610.54,432613,432611.12,436711.3,8,400,30,,ISIC_7189490.JPG
break,html.Screen,4_79_1,2023-09-11T17:20:41.029Z,,0,,,NaN,,,,,,false,,,,436712,436711,,436710,,436711.3,8,400,,,
break_continue,html.Screen,4_79_2,2023-09-11T17:20:41.030Z,,0,,,NaN,,,,,,false,,,,436713,436712,,436712,,436711.3,8,400,,,
sequence,flow.Sequence,4_79,2023-09-11T17:20:41.031Z,,0,,,4100.880000000005,completion,,,,,false,,,,436713,436712,432610.54,432613,432611.12,436711.3,8,400,,,
trial,html.Screen,4_80_0,2023-09-11T17:20:45.277Z,,0,2,,4248.700000000012,response,ISIC_1802502.JPG,5,ISIC_0014931.JPG,ISIC_1802502.JPG,false,1,keypress(m),500,440960,440960,436710.66,436713,436711.3,440961.08,8,400,31,,ISIC_0014931.JPG
break,html.Screen,4_80_1,2023-09-11T17:20:45.279Z,,0,,,NaN,,,,,,false,,,,440962,440962,,440961,,440961.08,8,400,,,
break_continue,html.Screen,4_80_2,2023-09-11T17:20:45.280Z,,0,,,NaN,,,,,,false,,,,440963,440963,,440962,,440961.08,8,400,,,
sequence,flow.Sequence,4_80,2023-09-11T17:20:45.280Z,,0,,,4251.700000000012,completion,,,,,false,,,,440963,440963,436710.66,436713,436711.3,440961.08,8,400,,,
trial,html.Screen,4_81_0,2023-09-11T17:20:54.561Z,,0,2,,9281.919999999984,response,ISIC_0553932.JPG,11,ISIC_5476770.JPG,ISIC_5476770.JPG,false,0,keypress(z),500,450244,450243,440960.58,440964,440961.08,450244.28,8,400,32,,ISIC_0553932.JPG
break,html.Screen,4_81_1,2023-09-11T17:20:54.562Z,,0,,,NaN,,,,,,false,,,,450245,450245,,450244,,450244.28,8,400,,,
break_continue,html.Screen,4_81_2,2023-09-11T17:20:54.563Z,,0,,,NaN,,,,,,false,,,,450246,450246,,450245,,450244.28,8,400,,,
sequence,flow.Sequence,4_81,2023-09-11T17:20:54.564Z,,0,,,9284.919999999984,completion,,,,,false,,,,450246,450246,440960.58,440964,440961.08,450244.28,8,400,,,
trial,html.Screen,4_82_0,2023-09-11T17:20:57.707Z,,0,2,,3145.719999999972,response,ISIC_0010364.JPG,12,ISIC_0026309.JPG,ISIC_0026309.JPG,false,0,keypress(z),500,453390,453390,450243.74,450246,450244.28,453391.18,8,400,33,,ISIC_0010364.JPG
break,html.Screen,4_82_1,2023-09-11T17:20:57.709Z,,0,,,NaN,,,,,,false,,,,453391,453391,,453390,,453391.18,8,400,,,
break_continue,html.Screen,4_82_2,2023-09-11T17:20:57.710Z,,0,,,NaN,,,,,,false,,,,453392,453392,,453392,,453391.18,8,400,,,
sequence,flow.Sequence,4_82,2023-09-11T17:20:57.710Z,,0,,,3147.719999999972,completion,,,,,false,,,,453393,453392,450243.74,450246,450244.28,453391.18,8,400,,,
trial,html.Screen,4_83_0,2023-09-11T17:21:01.978Z,,0,2,,4268.820000000007,response,ISIC_0054954.JPG,15,ISIC_0062048.JPG,ISIC_0054954.JPG,false,1,keypress(m),500,457660,457660,453390.56,453394,453391.18,457661.24,8,400,34,,ISIC_0062048.JPG
break,html.Screen,4_83_1,2023-09-11T17:21:01.979Z,,0,,,NaN,,,,,,false,,,,457662,457661,,457661,,457661.24,8,400,,,
break_continue,html.Screen,4_83_2,2023-09-11T17:21:01.980Z,,0,,,NaN,,,,,,false,,,,457663,457663,,457662,,457661.24,8,400,,,
sequence,flow.Sequence,4_83,2023-09-11T17:21:01.981Z,,0,,,4271.820000000007,completion,,,,,false,,,,457664,457663,453390.56,453393,453391.18,457661.24,8,400,,,
trial,html.Screen,4_84_0,2023-09-11T17:21:06.017Z,,0,2,,4038.7600000000093,response,ISIC_1768733.JPG,6,ISIC_0031425.JPG,ISIC_0031425.JPG,false,0,keypress(z),500,461701,461700,457660.7,457664,457661.24,461703.68,8,400,35,,ISIC_1768733.JPG
break,html.Screen,4_84_1,2023-09-11T17:21:06.019Z,,0,,,NaN,,,,,,false,,,,461702,461702,,461701,,461703.68,8,400,,,
break_continue,html.Screen,4_84_2,2023-09-11T17:21:06.020Z,,0,,,NaN,,,,,,false,,,,461703,461702,,461702,,461703.68,8,400,,,
sequence,flow.Sequence,4_84,2023-09-11T17:21:06.020Z,,0,,,4040.7600000000093,completion,,,,,false,,,,461703,461702,457660.7,457664,457661.24,461703.68,8,400,,,
trial,html.Screen,4_85_0,2023-09-11T17:21:09.719Z,,0,2,,3698.320000000007,response,ISIC_0033508.JPG,6,ISIC_0009955.JPG,ISIC_0033508.JPG,false,1,keypress(m),500,465403,465402,461700.8,461703,461703.68,465403.16,8,400,36,,ISIC_0009955.JPG
break,html.Screen,4_85_1,2023-09-11T17:21:09.720Z,,0,,,NaN,,,,,,false,,,,465404,465404,,465403,,465403.16,8,400,,,
break_continue,html.Screen,4_85_2,2023-09-11T17:21:09.721Z,,0,,,NaN,,,,,,false,,,,465404,465404,,465404,,465403.16,8,400,,,
sequence,flow.Sequence,4_85,2023-09-11T17:21:09.721Z,,0,,,3700.320000000007,completion,,,,,false,,,,465404,465404,461700.8,461703,461703.68,465403.16,8,400,,,
trial,html.Screen,4_86_0,2023-09-11T17:21:13.298Z,,0,2,,3575.8400000000256,response,ISIC_0065200.JPG,15,ISIC_5422940.JPG,ISIC_5422940.JPG,false,0,keypress(z),500,468980,468979,465402.88,465404,465403.16,468985.2,8,400,37,,ISIC_0065200.JPG
break,html.Screen,4_86_1,2023-09-11T17:21:13.299Z,,0,,,NaN,,,,,,false,,,,468981,468981,,468980,,468985.2,8,400,,,
break_continue,html.Screen,4_86_2,2023-09-11T17:21:13.299Z,,0,,,NaN,,,,,,false,,,,468982,468982,,468982,,468985.2,8,400,,,
sequence,flow.Sequence,4_86,2023-09-11T17:21:13.300Z,,0,,,3578.8400000000256,completion,,,,,false,,,,468983,468982,465402.88,465404,465403.16,468985.2,8,400,,,
trial,html.Screen,4_87_0,2023-09-11T17:21:16.507Z,,0,2,,3204.7999999999884,response,ISIC_0011489.JPG,16,ISIC_7180418.JPG,ISIC_7180418.JPG,false,0,keypress(z),500,472190,472190,468980.52,468983,468985.2,472191.04,8,400,38,,ISIC_0011489.JPG
break,html.Screen,4_87_1,2023-09-11T17:21:16.509Z,,0,,,NaN,,,,,,false,,,,472192,472191,,472191,,472191.04,8,400,,,
break_continue,html.Screen,4_87_2,2023-09-11T17:21:16.509Z,,0,,,NaN,,,,,,false,,,,472193,472192,,472192,,472191.04,8,400,,,
sequence,flow.Sequence,4_87,2023-09-11T17:21:16.510Z,,0,,,3206.7999999999884,completion,,,,,false,,,,472193,472192,468980.52,468983,468985.2,472191.04,8,400,,,
trial,html.Screen,4_88_0,2023-09-11T17:21:23.096Z,,0,2,,6587.960000000021,response,ISIC_2945324.JPG,8,ISIC_4130167.JPG,ISIC_4130167.JPG,false,0,keypress(z),500,478780,478779,472190.5,472193,472191.04,478782.78,8,400,39,,ISIC_2945324.JPG
break,html.Screen,4_88_1,2023-09-11T17:21:23.099Z,,0,,,NaN,,,,,,false,,,,478781,478781,,478780,,478782.78,8,400,,,
break_continue,html.Screen,4_88_2,2023-09-11T17:21:23.099Z,,0,,,NaN,,,,,,false,,,,478782,478782,,478781,,478782.78,8,400,,,
sequence,flow.Sequence,4_88,2023-09-11T17:21:23.099Z,,0,,,6590.960000000021,completion,,,,,false,,,,478783,478782,472190.5,472193,472191.04,478782.78,8,400,,,
trial,html.Screen,4_89_0,2023-09-11T17:21:34.581Z,,0,2,,11513.819999999949,timeout,ISIC_9483306.JPG,16,ISIC_0032531.JPG,ISIC_9483306.JPG,false,,,500,490264,490264,478780.26,478783,478782.78,490296.6,8,400,40,,ISIC_0032531.JPG
break,html.Screen,4_89_1,2023-09-11T17:21:34.583Z,,0,,,NaN,,,,,,false,,,,490265,490265,,490264,,490296.6,8,400,,,
break_continue,html.Screen,4_89_2,2023-09-11T17:21:34.583Z,,0,,,NaN,,,,,,false,,,,490266,490266,,490266,,490296.6,8,400,,,
sequence,flow.Sequence,4_89,2023-09-11T17:21:34.584Z,,0,,,11483.219999999972,completion,,,,,false,,,,490267,490266,478780.26,478783,478782.78,490296.6,8,400,,,
trial,html.Screen,4_90_0,2023-09-11T17:21:38.747Z,,0,2,,4132.400000000023,response,ISIC_0162967.JPG,11,ISIC_4804158.JPG,ISIC_0162967.JPG,false,1,keypress(m),500,494430,494429,490279.94,490267,490296.6,494430.92,8,400,41,,ISIC_4804158.JPG
break,html.Screen,4_90_1,2023-09-11T17:21:38.749Z,,0,,,NaN,,,,,,false,,,,494431,494431,,494430,,494430.92,8,400,,,
break_continue,html.Screen,4_90_2,2023-09-11T17:21:38.749Z,,0,,,NaN,,,,,,false,,,,494432,494432,,494432,,494430.92,8,400,,,
sequence,flow.Sequence,4_90,2023-09-11T17:21:38.750Z,,0,,,4135.400000000023,completion,,,,,false,,,,494433,494432,490279.94,490267,490296.6,494430.92,8,400,,,
trial,html.Screen,4_91_0,2023-09-11T17:21:42.097Z,,0,2,,3349.0800000000163,response,ISIC_0059593.JPG,6,ISIC_1223648.JPG,ISIC_1223648.JPG,false,0,keypress(z),500,497780,497780,494430.32,494433,494430.92,497781.32,8,400,42,,ISIC_0059593.JPG
break,html.Screen,4_91_1,2023-09-11T17:21:42.099Z,,0,,,NaN,,,,,,false,,,,497783,497782,,497781,,497781.32,8,400,,,
break_continue,html.Screen,4_91_2,2023-09-11T17:21:42.100Z,,0,,,NaN,,,,,,false,,,,497784,497783,,497783,,497781.32,8,400,,,
sequence,flow.Sequence,4_91,2023-09-11T17:21:42.101Z,,0,,,3352.0800000000163,completion,,,,,false,,,,497784,497783,494430.32,494433,494430.92,497781.32,8,400,,,
trial,html.Screen,4_92_0,2023-09-11T17:21:45.147Z,,0,2,,3048.679999999993,response,ISIC_0034187.JPG,4,ISIC_0010227.JPG,ISIC_0034187.JPG,false,1,keypress(m),500,500830,500830,497780.8,497784,497781.32,500830.76,8,400,43,,ISIC_0010227.JPG
break,html.Screen,4_92_1,2023-09-11T17:21:45.148Z,,0,,,NaN,,,,,,false,,,,500832,500831,,500830,,500830.76,8,400,,,
break_continue,html.Screen,4_92_2,2023-09-11T17:21:45.149Z,,0,,,NaN,,,,,,false,,,,500833,500832,,500832,,500830.76,8,400,,,
sequence,flow.Sequence,4_92,2023-09-11T17:21:45.150Z,,0,,,3050.679999999993,completion,,,,,false,,,,500833,500832,497780.8,497784,497781.32,500830.76,8,400,,,
trial,html.Screen,4_93_0,2023-09-11T17:21:49.438Z,,0,2,,4290.239999999991,response,ISIC_7892362.JPG,6,ISIC_0055826.JPG,ISIC_0055826.JPG,false,0,keypress(z),500,505121,505121,500830.18,500834,500830.76,505121.28,8,400,44,,ISIC_7892362.JPG
break,html.Screen,4_93_1,2023-09-11T17:21:49.439Z,,0,,,NaN,,,,,,false,,,,505121,505121,,505121,,505121.28,8,400,,,
break_continue,html.Screen,4_93_2,2023-09-11T17:21:49.439Z,,0,,,NaN,,,,,,false,,,,505122,505122,,505122,,505121.28,8,400,,,
sequence,flow.Sequence,4_93,2023-09-11T17:21:49.440Z,,0,,,4291.239999999991,completion,,,,,false,,,,505122,505122,500830.18,500834,500830.76,505121.28,8,400,,,
trial,html.Screen,4_94_0,2023-09-11T17:21:52.657Z,,0,2,,3218.719999999972,response,ISIC_6184891.JPG,16,ISIC_0054087.JPG,ISIC_0054087.JPG,false,0,keypress(z),500,508341,508340,505121.02,505123,505121.28,508342.12,8,400,45,,ISIC_6184891.JPG
break,html.Screen,4_94_1,2023-09-11T17:21:52.658Z,,0,,,NaN,,,,,,false,,,,508342,508342,,508341,,508342.12,8,400,,,
break_continue,html.Screen,4_94_2,2023-09-11T17:21:52.660Z,,0,,,NaN,,,,,,false,,,,508342,508342,,508342,,508342.12,8,400,,,
sequence,flow.Sequence,4_94,2023-09-11T17:21:52.660Z,,0,,,3220.719999999972,completion,,,,,false,,,,508343,508342,505121.02,505122,505121.28,508342.12,8,400,,,
trial,html.Screen,4_95_0,2023-09-11T17:21:55.857Z,,0,2,,3196.8800000000047,response,ISIC_0010690.JPG,16,ISIC_4695051.JPG,ISIC_4695051.JPG,false,0,keypress(z),500,511540,511539,508340.6,508343,508342.12,511540.84,8,400,46,,ISIC_0010690.JPG
break,html.Screen,4_95_1,2023-09-11T17:21:55.859Z,,0,,,NaN,,,,,,false,,,,511541,511541,,511540,,511540.84,8,400,,,
break_continue,html.Screen,4_95_2,2023-09-11T17:21:55.859Z,,0,,,NaN,,,,,,false,,,,511543,511542,,511541,,511540.84,8,400,,,
sequence,flow.Sequence,4_95,2023-09-11T17:21:55.860Z,,0,,,3199.8800000000047,completion,,,,,false,,,,511543,511542,508340.6,508343,508342.12,511540.84,8,400,,,
trial,html.Screen,4_96_0,2023-09-11T17:21:59.392Z,,0,2,,3533.1599999999744,response,ISIC_1590829.JPG,16,ISIC_7141153.JPG,ISIC_7141153.JPG,false,0,keypress(z),500,515074,515074,511540.26,511544,511540.84,515090.4,8,400,47,,ISIC_1590829.JPG
break,html.Screen,4_96_1,2023-09-11T17:21:59.393Z,,0,,,NaN,,,,,,false,,,,515076,515075,,515075,,515090.4,8,400,,,
break_continue,html.Screen,4_96_2,2023-09-11T17:21:59.393Z,,0,,,NaN,,,,,,false,,,,515076,515076,,515076,,515090.4,8,400,,,
sequence,flow.Sequence,4_96,2023-09-11T17:21:59.393Z,,0,,,3535.1599999999744,completion,,,,,false,,,,515077,515076,511540.26,511543,511540.84,515090.4,8,400,,,
trial,html.Screen,4_97_0,2023-09-11T17:22:02.928Z,,0,2,,3519.5999999999767,response,ISIC_0535416.JPG,11,ISIC_0028886.JPG,ISIC_0028886.JPG,false,0,keypress(z),500,518611,518610,515073.84,515077,515090.4,518611.44,8,400,48,,ISIC_0535416.JPG
break,html.Screen,4_97_1,2023-09-11T17:22:02.930Z,,0,,,NaN,,,,,,false,,,,518612,518612,,518611,,518611.44,8,400,,,
break_continue,html.Screen,4_97_2,2023-09-11T17:22:02.931Z,,0,,,NaN,,,,,,false,,,,518613,518613,,518613,,518611.44,8,400,,,
sequence,flow.Sequence,4_97,2023-09-11T17:22:02.931Z,,0,,,3522.5999999999767,completion,,,,,false,,,,518614,518613,515073.84,515077,515090.4,518611.44,8,400,,,
trial,html.Screen,4_98_0,2023-09-11T17:22:05.977Z,,0,2,,3048.5599999999977,response,ISIC_0027556.JPG,26,ISIC_2771979.JPG,ISIC_0027556.JPG,false,1,keypress(m),500,521660,521660,518610.92,518614,518611.44,521660.82,8,400,49,,ISIC_2771979.JPG
break,html.Screen,4_98_1,2023-09-11T17:22:05.978Z,,0,,,NaN,,,,,,false,,,,521662,521661,,521661,,521660.82,8,400,,,
break_continue,html.Screen,4_98_2,2023-09-11T17:22:05.979Z,,0,,,NaN,,,,,,false,,,,521662,521662,,521662,,521660.82,8,400,,,
sequence,flow.Sequence,4_98,2023-09-11T17:22:05.980Z,,0,,,3050.5599999999977,completion,,,,,false,,,,521663,521662,518610.92,518614,518611.44,521660.82,8,400,,,
trial,html.Screen,4_99_0,2023-09-11T17:22:08.938Z,,0,2,,2959.179999999993,response,ISIC_6392089.JPG,7,ISIC_0028361.JPG,ISIC_6392089.JPG,false,1,keypress(m),500,524620,524620,521660.28,521663,521660.82,524621.8,8,400,50,,ISIC_0028361.JPG
break,html.Screen,4_99_1,2023-09-11T17:22:18.921Z,,0,,,9997.159999999916,timeout,,,,,false,,,,534604,534602.28,524621.16,524621,524621.8,534618.96,8,400,,,
break_continue,html.Screen,4_99_2,2023-09-11T17:22:20.843Z,,0,,,1887.0400000000373,response,,,,,false,continue,keypress(Space),,536527,536506,534602.28,534604,534618.96,536527.2,8,400,,,
sequence,flow.Sequence,4_99,2023-09-11T17:22:20.844Z,,0,,,14845.179999999993,completion,,,,,false,,,,536527,536506,521660.28,521663,521660.82,536527.2,8,400,,,
trial,html.Screen,4_100_0,2023-09-11T17:22:23.816Z,,0,3,,2971.8000000000466,response,ISIC_0025658.JPG,2,ISIC_2328829.JPG,ISIC_2328829.JPG,false,0,keypress(z),500,539500,539499,536526.84,536527,536527.2,539500.64,8,400,1,,ISIC_0025658.JPG
break,html.Screen,4_100_1,2023-09-11T17:22:23.819Z,,0,,,NaN,,,,,,false,,,,539501,539501,,539500,,539500.64,8,400,,,
break_continue,html.Screen,4_100_2,2023-09-11T17:22:23.819Z,,0,,,NaN,,,,,,false,,,,539502,539501,,539501,,539500.64,8,400,,,
sequence,flow.Sequence,4_100,2023-09-11T17:22:23.820Z,,0,,,2973.8000000000466,completion,,,,,false,,,,539502,539501,536526.84,536527,536527.2,539500.64,8,400,,,
trial,html.Screen,4_101_0,2023-09-11T17:22:27.307Z,,0,3,,3488.359999999986,response,ISIC_4731791.JPG,5,ISIC_0000538.JPG,ISIC_4731791.JPG,false,1,keypress(m),500,542990,542989,539500.08,539504,539500.64,542990.88,8,400,2,,ISIC_0000538.JPG
break,html.Screen,4_101_1,2023-09-11T17:22:27.309Z,,0,,,NaN,,,,,,false,,,,542992,542991,,542990,,542990.88,8,400,,,
break_continue,html.Screen,4_101_2,2023-09-11T17:22:27.309Z,,0,,,NaN,,,,,,false,,,,542993,542992,,542992,,542990.88,8,400,,,
sequence,flow.Sequence,4_101,2023-09-11T17:22:27.310Z,,0,,,3491.359999999986,completion,,,,,false,,,,542993,542992,539500.08,539503,539500.64,542990.88,8,400,,,
trial,html.Screen,4_102_0,2023-09-11T17:22:30.913Z,,0,3,,3604.1199999999953,response,ISIC_2376758.JPG,5,ISIC_8955135.JPG,ISIC_8955135.JPG,false,0,keypress(z),500,546596,546595,542990.32,542993,542990.88,546607.66,8,400,3,,ISIC_2376758.JPG
break,html.Screen,4_102_1,2023-09-11T17:22:30.915Z,,0,,,NaN,,,,,,false,,,,546597,546597,,546596,,546607.66,8,400,,,
break_continue,html.Screen,4_102_2,2023-09-11T17:22:30.915Z,,0,,,NaN,,,,,,false,,,,546598,546598,,546597,,546607.66,8,400,,,
sequence,flow.Sequence,4_102,2023-09-11T17:22:30.916Z,,0,,,3607.1199999999953,completion,,,,,false,,,,546599,546598,542990.32,542993,542990.88,546607.66,8,400,,,
trial,html.Screen,4_103_0,2023-09-11T17:22:34.287Z,,0,3,,3362.3399999999674,response,ISIC_0011857.JPG,9,ISIC_0056017.JPG,ISIC_0056017.JPG,false,0,keypress(z),500,549970,549970,546596.08,546599,546607.66,549970.9,8,400,4,,ISIC_0011857.JPG
break,html.Screen,4_103_1,2023-09-11T17:22:34.288Z,,0,,,NaN,,,,,,false,,,,549971,549971,,549970,,549970.9,8,400,,,
break_continue,html.Screen,4_103_2,2023-09-11T17:22:34.290Z,,0,,,NaN,,,,,,false,,,,549972,549972,,549972,,549970.9,8,400,,,
sequence,flow.Sequence,4_103,2023-09-11T17:22:34.290Z,,0,,,3364.3399999999674,completion,,,,,false,,,,549973,549972,546596.08,546599,546607.66,549970.9,8,400,,,
trial,html.Screen,4_104_0,2023-09-11T17:22:37.316Z,,0,3,,3027.0999999999767,response,ISIC_0029934.JPG,6,ISIC_0010271.JPG,ISIC_0029934.JPG,false,1,keypress(m),500,553000,552998,549970.34,549973,549970.9,553014.46,8,400,5,,ISIC_0010271.JPG
break,html.Screen,4_104_1,2023-09-11T17:22:37.318Z,,0,,,NaN,,,,,,false,,,,553000,553000,,553000,,553014.46,8,400,,,
break_continue,html.Screen,4_104_2,2023-09-11T17:22:37.319Z,,0,,,NaN,,,,,,false,,,,553002,553002,,553001,,553014.46,8,400,,,
sequence,flow.Sequence,4_104,2023-09-11T17:22:37.320Z,,0,,,3031.0999999999767,completion,,,,,false,,,,553003,553002,549970.34,549973,549970.9,553014.46,8,400,,,
trial,html.Screen,4_105_0,2023-09-11T17:22:41.298Z,,0,3,,3964.5400000000373,response,ISIC_0011365.JPG,4,ISIC_0708552.JPG,ISIC_0708552.JPG,false,0,keypress(z),500,556980,556979,552999.52,553004,553014.46,556981.26,8,400,6,,ISIC_0011365.JPG
break,html.Screen,4_105_1,2023-09-11T17:22:41.299Z,,0,,,NaN,,,,,,false,,,,556981,556981,,556980,,556981.26,8,400,,,
break_continue,html.Screen,4_105_2,2023-09-11T17:22:41.300Z,,0,,,NaN,,,,,,false,,,,556983,556982,,556982,,556981.26,8,400,,,
sequence,flow.Sequence,4_105,2023-09-11T17:22:41.300Z,,0,,,3967.5400000000373,completion,,,,,false,,,,556983,556982,552999.52,553004,553014.46,556981.26,8,400,,,
trial,html.Screen,4_106_0,2023-09-11T17:22:45.450Z,,0,3,,4150.739999999991,response,ISIC_2219050.JPG,5,ISIC_1195689.JPG,ISIC_1195689.JPG,false,0,keypress(z),500,561132,561132,556980.64,556983,556981.26,561133.64,8,400,7,,ISIC_2219050.JPG
break,html.Screen,4_106_1,2023-09-11T17:22:45.451Z,,0,,,NaN,,,,,,false,,,,561135,561133,,561133,,561133.64,8,400,,,
break_continue,html.Screen,4_106_2,2023-09-11T17:22:45.452Z,,0,,,NaN,,,,,,false,,,,561135,561135,,561135,,561133.64,8,400,,,
sequence,flow.Sequence,4_106,2023-09-11T17:22:45.452Z,,0,,,4153.739999999991,completion,,,,,false,,,,561136,561135,556980.64,556983,556981.26,561133.64,8,400,,,
trial,html.Screen,4_107_0,2023-09-11T17:22:48.827Z,,0,3,,3376.359999999986,response,ISIC_0458561.JPG,14,ISIC_0056608.JPG,ISIC_0056608.JPG,false,0,keypress(z),500,564510,564510,561133.08,561136,561133.64,564510.76,8,400,8,,ISIC_0458561.JPG
break,html.Screen,4_107_1,2023-09-11T17:22:48.829Z,,0,,,NaN,,,,,,false,,,,564511,564511,,564511,,564510.76,8,400,,,
break_continue,html.Screen,4_107_2,2023-09-11T17:22:48.829Z,,0,,,NaN,,,,,,false,,,,564512,564512,,564511,,564510.76,8,400,,,
sequence,flow.Sequence,4_107,2023-09-11T17:22:48.829Z,,0,,,3378.359999999986,completion,,,,,false,,,,564512,564512,561133.08,561136,561133.64,564510.76,8,400,,,
trial,html.Screen,4_108_0,2023-09-11T17:22:53.147Z,,0,3,,4318.239999999991,response,ISIC_9088073.JPG,14,ISIC_0029150.JPG,ISIC_0029150.JPG,false,0,keypress(z),500,568830,568829,564510.2,564513,564510.76,568830.98,8,400,9,,ISIC_9088073.JPG
break,html.Screen,4_108_1,2023-09-11T17:22:53.149Z,,0,,,NaN,,,,,,false,,,,568832,568832,,568831,,568830.98,8,400,,,
break_continue,html.Screen,4_108_2,2023-09-11T17:22:53.150Z,,0,,,NaN,,,,,,false,,,,568833,568833,,568832,,568830.98,8,400,,,
sequence,flow.Sequence,4_108,2023-09-11T17:22:53.150Z,,0,,,4322.239999999991,completion,,,,,false,,,,568833,568833,564510.2,564513,564510.76,568830.98,8,400,,,
trial,html.Screen,4_109_0,2023-09-11T17:22:57.697Z,,0,3,,4548.020000000019,response,ISIC_0073119.JPG,15,ISIC_0003822.JPG,ISIC_0073119.JPG,false,1,keypress(m),500,573380,573379,568830.38,568833,568830.98,573380.64,8,400,10,,ISIC_0003822.JPG
break,html.Screen,4_109_1,2023-09-11T17:22:57.698Z,,0,,,NaN,,,,,,false,,,,573382,573381,,573380,,573380.64,8,400,,,
break_continue,html.Screen,4_109_2,2023-09-11T17:22:57.699Z,,0,,,NaN,,,,,,false,,,,573382,573382,,573382,,573380.64,8,400,,,
sequence,flow.Sequence,4_109,2023-09-11T17:22:57.700Z,,0,,,4551.020000000019,completion,,,,,false,,,,573382,573382,568830.38,568833,568830.98,573380.64,8,400,,,
trial,html.Screen,4_110_0,2023-09-11T17:23:01.947Z,,0,3,,4249.359999999986,response,ISIC_8748070.JPG,16,ISIC_9927486.JPG,ISIC_9927486.JPG,false,0,keypress(z),500,577630,577630,573380.1,573383,573380.64,577630.96,8,400,11,,ISIC_8748070.JPG
break,html.Screen,4_110_1,2023-09-11T17:23:01.949Z,,0,,,NaN,,,,,,false,,,,577632,577631,,577631,,577630.96,8,400,,,
break_continue,html.Screen,4_110_2,2023-09-11T17:23:01.949Z,,0,,,NaN,,,,,,false,,,,577633,577632,,577632,,577630.96,8,400,,,
sequence,flow.Sequence,4_110,2023-09-11T17:23:01.950Z,,0,,,4251.359999999986,completion,,,,,false,,,,577633,577632,573380.1,573383,573380.64,577630.96,8,400,,,
trial,html.Screen,4_111_0,2023-09-11T17:23:06.357Z,,0,3,,4408.040000000037,response,ISIC_1684829.JPG,15,ISIC_2245709.JPG,ISIC_1684829.JPG,false,1,keypress(m),500,582039,582039,577630.4,577633,577630.96,582040.28,8,400,12,,ISIC_2245709.JPG
break,html.Screen,4_111_1,2023-09-11T17:23:06.358Z,,0,,,NaN,,,,,,false,,,,582040,582040,,582039,,582040.28,8,400,,,
break_continue,html.Screen,4_111_2,2023-09-11T17:23:06.358Z,,0,,,NaN,,,,,,false,,,,582042,582042,,582040,,582040.28,8,400,,,
sequence,flow.Sequence,4_111,2023-09-11T17:23:06.359Z,,0,,,4411.040000000037,completion,,,,,false,,,,582042,582042,577630.4,577633,577630.96,582040.28,8,400,,,
trial,html.Screen,4_112_0,2023-09-11T17:23:09.687Z,,0,3,,3328.719999999972,response,ISIC_0067789.JPG,6,ISIC_0060860.JPG,ISIC_0060860.JPG,false,0,keypress(z),500,585369,585369,582039.88,582042,582040.28,585373.14,8,400,13,,ISIC_0067789.JPG
break,html.Screen,4_112_1,2023-09-11T17:23:09.688Z,,0,,,NaN,,,,,,false,,,,585371,585371,,585371,,585373.14,8,400,,,
break_continue,html.Screen,4_112_2,2023-09-11T17:23:09.689Z,,0,,,NaN,,,,,,false,,,,585372,585372,,585372,,585373.14,8,400,,,
sequence,flow.Sequence,4_112,2023-09-11T17:23:09.689Z,,0,,,3331.719999999972,completion,,,,,false,,,,585373,585372,582039.88,582042,582040.28,585373.14,8,400,,,
trial,html.Screen,4_113_0,2023-09-11T17:23:13.947Z,,0,3,,4255.859999999986,response,ISIC_5179503.JPG,4,ISIC_4673648.JPG,ISIC_5179503.JPG,false,1,keypress(m),500,589630,589629,585370.3,585373,585373.14,589629.88,8,400,14,,ISIC_4673648.JPG
break,html.Screen,4_113_1,2023-09-11T17:23:13.947Z,,0,,,NaN,,,,,,false,,,,589631,589630,,589630,,589629.88,8,400,,,
break_continue,html.Screen,4_113_2,2023-09-11T17:23:13.947Z,,0,,,NaN,,,,,,false,,,,589631,589631,,589631,,589629.88,8,400,,,
sequence,flow.Sequence,4_113,2023-09-11T17:23:13.949Z,,0,,,4257.859999999986,completion,,,,,false,,,,589631,589631,585370.3,585373,585373.14,589629.88,8,400,,,
trial,html.Screen,4_114_0,2023-09-11T17:23:17.577Z,,0,3,,3630.1199999999953,response,ISIC_0073015.JPG,7,ISIC_0066150.JPG,ISIC_0073015.JPG,false,1,keypress(m),500,593261,593260,589629.58,589632,589629.88,593261.18,8,400,15,,ISIC_0066150.JPG
break,html.Screen,4_114_1,2023-09-11T17:23:17.579Z,,0,,,NaN,,,,,,false,,,,593262,593262,,593261,,593261.18,8,400,,,
break_continue,html.Screen,4_114_2,2023-09-11T17:23:17.580Z,,0,,,NaN,,,,,,false,,,,593263,593263,,593263,,593261.18,8,400,,,
sequence,flow.Sequence,4_114,2023-09-11T17:23:17.580Z,,0,,,3633.1199999999953,completion,,,,,false,,,,593263,593263,589629.58,589632,589629.88,593261.18,8,400,,,
trial,html.Screen,4_115_0,2023-09-11T17:23:22.977Z,,0,3,,5397.819999999949,response,ISIC_0058315.JPG,5,ISIC_0016139.JPG,ISIC_0016139.JPG,false,0,keypress(z),500,598660,598659,593260.56,593264,593261.18,598661.18,8,400,16,,ISIC_0058315.JPG
break,html.Screen,4_115_1,2023-09-11T17:23:22.979Z,,0,,,NaN,,,,,,false,,,,598661,598661,,598660,,598661.18,8,400,,,
break_continue,html.Screen,4_115_2,2023-09-11T17:23:22.980Z,,0,,,NaN,,,,,,false,,,,598663,598662,,598662,,598661.18,8,400,,,
sequence,flow.Sequence,4_115,2023-09-11T17:23:22.980Z,,0,,,5400.819999999949,completion,,,,,false,,,,598663,598662,593260.56,593264,593261.18,598661.18,8,400,,,
trial,html.Screen,4_116_0,2023-09-11T17:23:26.472Z,,0,3,,3493.819999999949,response,ISIC_1373468.JPG,15,ISIC_5789052.JPG,ISIC_5789052.JPG,false,0,keypress(z),500,602155,602155,598660.58,598663,598661.18,602156,8,400,17,,ISIC_1373468.JPG
break,html.Screen,4_116_1,2023-09-11T17:23:26.474Z,,0,,,NaN,,,,,,false,,,,602156,602156,,602155,,602156,8,400,,,
break_continue,html.Screen,4_116_2,2023-09-11T17:23:26.475Z,,0,,,NaN,,,,,,false,,,,602157,602157,,602156,,602156,8,400,,,
sequence,flow.Sequence,4_116,2023-09-11T17:23:26.475Z,,0,,,3495.819999999949,completion,,,,,false,,,,602157,602157,598660.58,598663,598661.18,602156,8,400,,,
trial,html.Screen,4_117_0,2023-09-11T17:23:29.447Z,,0,3,,2973,response,ISIC_0032717.JPG,8,ISIC_7025487.JPG,ISIC_0032717.JPG,false,1,keypress(m),500,605129,605129,602155.42,602158,602156,605134.9,8,400,18,,ISIC_7025487.JPG
break,html.Screen,4_117_1,2023-09-11T17:23:29.449Z,,0,,,NaN,,,,,,false,,,,605131,605131,,605130,,605134.9,8,400,,,
break_continue,html.Screen,4_117_2,2023-09-11T17:23:29.449Z,,0,,,NaN,,,,,,false,,,,605133,605132,,605132,,605134.9,8,400,,,
sequence,flow.Sequence,4_117,2023-09-11T17:23:29.450Z,,0,,,2976,completion,,,,,false,,,,605133,605132,602155.42,602158,602156,605134.9,8,400,,,
trial,html.Screen,4_118_0,2023-09-11T17:23:33.027Z,,0,3,,3575.0999999999767,response,ISIC_0013736.JPG,3,ISIC_2126575.JPG,ISIC_2126575.JPG,false,0,keypress(z),500,608710,608710,605130.02,605133,605134.9,608717.28,8,400,19,,ISIC_0013736.JPG
break,html.Screen,4_118_1,2023-09-11T17:23:33.028Z,,0,,,NaN,,,,,,false,,,,608711,608711,,608710,,608717.28,8,400,,,
break_continue,html.Screen,4_118_2,2023-09-11T17:23:33.029Z,,0,,,NaN,,,,,,false,,,,608713,608712,,608712,,608717.28,8,400,,,
sequence,flow.Sequence,4_118,2023-09-11T17:23:33.030Z,,0,,,3577.0999999999767,completion,,,,,false,,,,608713,608712,605130.02,605133,605134.9,608717.28,8,400,,,
trial,html.Screen,4_119_0,2023-09-11T17:23:36.697Z,,0,3,,3661.719999999972,response,ISIC_8812781.JPG,14,ISIC_4734111.JPG,ISIC_8812781.JPG,false,1,keypress(m),500,612379,612379,608710.18,608713,608717.28,612383.14,8,400,20,,ISIC_4734111.JPG
break,html.Screen,4_119_1,2023-09-11T17:23:36.699Z,,0,,,NaN,,,,,,false,,,,612382,612380,,612380,,612383.14,8,400,,,
break_continue,html.Screen,4_119_2,2023-09-11T17:23:36.699Z,,0,,,NaN,,,,,,false,,,,612383,612382,,612382,,612383.14,8,400,,,
sequence,flow.Sequence,4_119,2023-09-11T17:23:36.699Z,,0,,,3664.719999999972,completion,,,,,false,,,,612383,612382,608710.18,608713,608717.28,612383.14,8,400,,,
trial,html.Screen,4_120_0,2023-09-11T17:23:41.347Z,,0,3,,4646.859999999986,response,ISIC_0028773.JPG,15,ISIC_9791275.JPG,ISIC_9791275.JPG,false,0,keypress(z),500,617030,617030,612380.14,612383,612383.14,617031.96,8,400,21,,ISIC_0028773.JPG
break,html.Screen,4_120_1,2023-09-11T17:23:41.349Z,,0,,,NaN,,,,,,false,,,,617032,617032,,617031,,617031.96,8,400,,,
break_continue,html.Screen,4_120_2,2023-09-11T17:23:41.350Z,,0,,,NaN,,,,,,false,,,,617033,617033,,617033,,617031.96,8,400,,,
sequence,flow.Sequence,4_120,2023-09-11T17:23:41.350Z,,0,,,4649.859999999986,completion,,,,,false,,,,617034,617033,612380.14,612383,612383.14,617031.96,8,400,,,
trial,html.Screen,4_121_0,2023-09-11T17:23:47.316Z,,0,3,,5967.040000000037,response,ISIC_0028915.JPG,8,ISIC_0071300.JPG,ISIC_0028915.JPG,false,1,keypress(m),500,623000,622999,617030.3,617034,617031.96,623000.46,8,400,22,,ISIC_0071300.JPG
break,html.Screen,4_121_1,2023-09-11T17:23:47.318Z,,0,,,NaN,,,,,,false,,,,623001,623001,,623000,,623000.46,8,400,,,
break_continue,html.Screen,4_121_2,2023-09-11T17:23:47.319Z,,0,,,NaN,,,,,,false,,,,623003,623002,,623002,,623000.46,8,400,,,
sequence,flow.Sequence,4_121,2023-09-11T17:23:47.320Z,,0,,,5970.040000000037,completion,,,,,false,,,,623003,623002,617030.3,617034,617031.96,623000.46,8,400,,,
trial,html.Screen,4_122_0,2023-09-11T17:23:50.126Z,,0,3,,2808.5400000000373,response,ISIC_0026552.JPG,27,ISIC_7984569.JPG,ISIC_0026552.JPG,false,1,keypress(m),500,625809,625809,622999.94,623003,623000.46,625813.14,8,400,23,,ISIC_7984569.JPG
break,html.Screen,4_122_1,2023-09-11T17:23:50.128Z,,0,,,NaN,,,,,,false,,,,625812,625811,,625809,,625813.14,8,400,,,
break_continue,html.Screen,4_122_2,2023-09-11T17:23:50.129Z,,0,,,NaN,,,,,,false,,,,625812,625812,,625812,,625813.14,8,400,,,
sequence,flow.Sequence,4_122,2023-09-11T17:23:50.130Z,,0,,,2811.5400000000373,completion,,,,,false,,,,625813,625812,622999.94,623003,623000.46,625813.14,8,400,,,
trial,html.Screen,4_123_0,2023-09-11T17:23:53.347Z,,0,3,,3215.859999999986,response,ISIC_2039579.JPG,15,ISIC_2430137.JPG,ISIC_2430137.JPG,false,0,keypress(z),500,629030,629029,625809.88,625813,625813.14,629030.88,8,400,24,,ISIC_2039579.JPG
break,html.Screen,4_123_1,2023-09-11T17:23:53.349Z,,0,,,NaN,,,,,,false,,,,629031,629031,,629030,,629030.88,8,400,,,
break_continue,html.Screen,4_123_2,2023-09-11T17:23:53.350Z,,0,,,NaN,,,,,,false,,,,629032,629032,,629032,,629030.88,8,400,,,
sequence,flow.Sequence,4_123,2023-09-11T17:23:53.350Z,,0,,,3218.859999999986,completion,,,,,false,,,,629033,629032,625809.88,625813,625813.14,629030.88,8,400,,,
trial,html.Screen,4_124_0,2023-09-11T17:23:56.617Z,,0,3,,3269.1199999999953,response,ISIC_4570724.JPG,5,ISIC_7492682.JPG,ISIC_7492682.JPG,false,0,keypress(z),500,632300,632300,629030.3,629033,629030.88,632300.64,8,400,25,,ISIC_4570724.JPG
break,html.Screen,4_124_1,2023-09-11T17:23:56.618Z,,0,,,NaN,,,,,,false,,,,632301,632301,,632300,,632300.64,8,400,,,
break_continue,html.Screen,4_124_2,2023-09-11T17:23:56.620Z,,0,,,NaN,,,,,,false,,,,632302,632302,,632301,,632300.64,8,400,,,
sequence,flow.Sequence,4_124,2023-09-11T17:23:56.620Z,,0,,,3271.1199999999953,completion,,,,,false,,,,632302,632302,629030.3,629033,629030.88,632300.64,8,400,,,
trial,html.Screen,4_125_0,2023-09-11T17:24:00.746Z,,0,3,,4128.359999999986,response,ISIC_0065324.JPG,15,ISIC_0000424.JPG,ISIC_0065324.JPG,false,1,keypress(m),500,636430,636429,632300.04,632303,632300.64,636429.8,8,400,26,,ISIC_0000424.JPG
break,html.Screen,4_125_1,2023-09-11T17:24:00.747Z,,0,,,NaN,,,,,,false,,,,636431,636430,,636430,,636429.8,8,400,,,
break_continue,html.Screen,4_125_2,2023-09-11T17:24:00.748Z,,0,,,NaN,,,,,,false,,,,636431,636431,,636431,,636429.8,8,400,,,
sequence,flow.Sequence,4_125,2023-09-11T17:24:00.748Z,,0,,,4130.359999999986,completion,,,,,false,,,,636431,636431,632300.04,632303,632300.64,636429.8,8,400,,,
trial,html.Screen,4_126_0,2023-09-11T17:24:05.027Z,,0,3,,4280.199999999953,response,ISIC_1948545.JPG,31,ISIC_0012512.JPG,ISIC_0012512.JPG,false,0,keypress(z),500,640710,640710,636429.5,636431,636429.8,640711.02,8,400,27,,ISIC_1948545.JPG
break,html.Screen,4_126_1,2023-09-11T17:24:05.028Z,,0,,,NaN,,,,,,false,,,,640711,640711,,640710,,640711.02,8,400,,,
break_continue,html.Screen,4_126_2,2023-09-11T17:24:05.029Z,,0,,,NaN,,,,,,false,,,,640712,640712,,640712,,640711.02,8,400,,,
sequence,flow.Sequence,4_126,2023-09-11T17:24:05.030Z,,0,,,4282.199999999953,completion,,,,,false,,,,640713,640712,636429.5,636431,636429.8,640711.02,8,400,,,
trial,html.Screen,4_127_0,2023-09-11T17:24:09.417Z,,0,3,,4388.979999999981,response,ISIC_0010550.JPG,13,ISIC_5584185.JPG,ISIC_5584185.JPG,false,0,keypress(z),500,645100,645100,640710.46,640713,640711.02,645100.86,8,400,28,,ISIC_0010550.JPG
break,html.Screen,4_127_1,2023-09-11T17:24:09.419Z,,0,,,NaN,,,,,,false,,,,645102,645101,,645100,,645100.86,8,400,,,
break_continue,html.Screen,4_127_2,2023-09-11T17:24:09.419Z,,0,,,NaN,,,,,,false,,,,645102,645102,,645102,,645100.86,8,400,,,
sequence,flow.Sequence,4_127,2023-09-11T17:24:09.419Z,,0,,,4390.979999999981,completion,,,,,false,,,,645103,645102,640710.46,640713,640711.02,645100.86,8,400,,,
trial,html.Screen,4_128_0,2023-09-11T17:24:12.887Z,,0,3,,3468.140000000014,response,ISIC_0070422.JPG,5,ISIC_9354965.JPG,ISIC_0070422.JPG,false,1,keypress(m),500,648570,648569,645100.32,645103,645100.86,648574.2,8,400,29,,ISIC_9354965.JPG
break,html.Screen,4_128_1,2023-09-11T17:24:12.888Z,,0,,,NaN,,,,,,false,,,,648572,648571,,648570,,648574.2,8,400,,,
break_continue,html.Screen,4_128_2,2023-09-11T17:24:12.889Z,,0,,,NaN,,,,,,false,,,,648573,648572,,648572,,648574.2,8,400,,,
sequence,flow.Sequence,4_128,2023-09-11T17:24:12.890Z,,0,,,3471.140000000014,completion,,,,,false,,,,648573,648572,645100.32,645103,645100.86,648574.2,8,400,,,
trial,html.Screen,4_129_0,2023-09-11T17:24:17.397Z,,0,3,,4505.800000000047,response,ISIC_0011633.JPG,5,ISIC_0069995.JPG,ISIC_0011633.JPG,false,1,keypress(m),500,653080,653080,648570.12,648573,648574.2,653080.94,8,400,30,,ISIC_0069995.JPG
break,html.Screen,4_129_1,2023-09-11T17:24:17.399Z,,0,,,NaN,,,,,,false,,,,653082,653081,,653081,,653080.94,8,400,,,
break_continue,html.Screen,4_129_2,2023-09-11T17:24:17.400Z,,0,,,NaN,,,,,,false,,,,653083,653082,,653082,,653080.94,8,400,,,
sequence,flow.Sequence,4_129,2023-09-11T17:24:17.400Z,,0,,,4507.800000000047,completion,,,,,false,,,,653083,653082,648570.12,648573,648574.2,653080.94,8,400,,,
trial,html.Screen,4_130_0,2023-09-11T17:24:20.756Z,,0,3,,3359.060000000056,response,ISIC_8589961.JPG,14,ISIC_5422940.JPG,ISIC_5422940.JPG,false,0,keypress(z),500,656440,656440,653080.32,653083,653080.94,656440.14,8,400,31,,ISIC_8589961.JPG
break,html.Screen,4_130_1,2023-09-11T17:24:20.757Z,,0,,,NaN,,,,,,false,,,,656441,656441,,656440,,656440.14,8,400,,,
break_continue,html.Screen,4_130_2,2023-09-11T17:24:20.758Z,,0,,,NaN,,,,,,false,,,,656441,656441,,656441,,656440.14,8,400,,,
sequence,flow.Sequence,4_130,2023-09-11T17:24:20.758Z,,0,,,3360.060000000056,completion,,,,,false,,,,656442,656441,653080.32,653083,653080.94,656440.14,8,400,,,
trial,html.Screen,4_131_0,2023-09-11T17:24:24.647Z,,0,3,,3889.859999999986,response,ISIC_3673080.JPG,18,ISIC_0010942.JPG,ISIC_0010942.JPG,false,0,keypress(z),500,660330,660330,656439.7,656442,656440.14,660333.28,8,400,32,,ISIC_3673080.JPG
break,html.Screen,4_131_1,2023-09-11T17:24:24.649Z,,0,,,NaN,,,,,,false,,,,660331,660331,,660330,,660333.28,8,400,,,
break_continue,html.Screen,4_131_2,2023-09-11T17:24:24.650Z,,0,,,NaN,,,,,,false,,,,660332,660332,,660332,,660333.28,8,400,,,
sequence,flow.Sequence,4_131,2023-09-11T17:24:24.650Z,,0,,,3891.859999999986,completion,,,,,false,,,,660333,660332,656439.7,656442,656440.14,660333.28,8,400,,,
trial,html.Screen,4_132_0,2023-09-11T17:24:28.117Z,,0,3,,3465.719999999972,response,ISIC_9680433.JPG,5,ISIC_0613014.JPG,ISIC_0613014.JPG,false,0,keypress(z),500,663799,663799,660330.24,660334,660333.28,663803.72,8,400,33,,ISIC_9680433.JPG
break,html.Screen,4_132_1,2023-09-11T17:24:28.118Z,,0,,,NaN,,,,,,false,,,,663802,663800,,663800,,663803.72,8,400,,,
break_continue,html.Screen,4_132_2,2023-09-11T17:24:28.119Z,,0,,,NaN,,,,,,false,,,,663803,663802,,663802,,663803.72,8,400,,,
sequence,flow.Sequence,4_132,2023-09-11T17:24:28.120Z,,0,,,3468.719999999972,completion,,,,,false,,,,663803,663802,660330.24,660334,660333.28,663803.72,8,400,,,
trial,html.Screen,4_133_0,2023-09-11T17:24:31.440Z,,0,3,,3319.280000000028,response,ISIC_2033237.JPG,26,ISIC_8207162.JPG,ISIC_8207162.JPG,false,0,keypress(z),500,667123,667123,663800.18,663803,663803.72,667123.54,8,400,34,,ISIC_2033237.JPG
break,html.Screen,4_133_1,2023-09-11T17:24:31.441Z,,0,,,NaN,,,,,,false,,,,667124,667124,,667123,,667123.54,8,400,,,
break_continue,html.Screen,4_133_2,2023-09-11T17:24:31.441Z,,0,,,NaN,,,,,,false,,,,667125,667124,,667124,,667123.54,8,400,,,
sequence,flow.Sequence,4_133,2023-09-11T17:24:31.442Z,,0,,,3320.280000000028,completion,,,,,false,,,,667125,667124,663800.18,663803,663803.72,667123.54,8,400,,,
trial,html.Screen,4_134_0,2023-09-11T17:24:34.787Z,,0,3,,3345.4599999999627,response,ISIC_9088774.JPG,3,ISIC_0059943.JPG,ISIC_9088774.JPG,false,1,keypress(m),500,670470,670469,667122.98,667125,667123.54,670470.58,8,400,35,,ISIC_0059943.JPG
break,html.Screen,4_134_1,2023-09-11T17:24:34.788Z,,0,,,NaN,,,,,,false,,,,670472,670470,,670470,,670470.58,8,400,,,
break_continue,html.Screen,4_134_2,2023-09-11T17:24:34.789Z,,0,,,NaN,,,,,,false,,,,670472,670472,,670472,,670470.58,8,400,,,
sequence,flow.Sequence,4_134,2023-09-11T17:24:34.790Z,,0,,,3348.4599999999627,completion,,,,,false,,,,670473,670472,667122.98,667125,667123.54,670470.58,8,400,,,
trial,html.Screen,4_135_0,2023-09-11T17:24:38.176Z,,0,3,,3387.420000000042,response,ISIC_5518557.JPG,13,ISIC_0065748.JPG,ISIC_0065748.JPG,false,0,keypress(z),500,673860,673858,670470.02,670473,670470.58,673860.4,8,400,36,,ISIC_5518557.JPG
break,html.Screen,4_135_1,2023-09-11T17:24:38.178Z,,0,,,NaN,,,,,,false,,,,673861,673861,,673860,,673860.4,8,400,,,
break_continue,html.Screen,4_135_2,2023-09-11T17:24:38.178Z,,0,,,NaN,,,,,,false,,,,673862,673862,,673862,,673860.4,8,400,,,
sequence,flow.Sequence,4_135,2023-09-11T17:24:38.179Z,,0,,,3391.420000000042,completion,,,,,false,,,,673862,673862,670470.02,670473,670470.58,673860.4,8,400,,,
trial,html.Screen,4_136_0,2023-09-11T17:24:41.351Z,,0,3,,3172.5999999999767,response,ISIC_1202976.JPG,16,ISIC_0012055.JPG,ISIC_1202976.JPG,false,1,keypress(m),500,677033,677033,673859.78,673862,673860.4,677050.4,8,400,37,,ISIC_0012055.JPG
break,html.Screen,4_136_1,2023-09-11T17:24:41.352Z,,0,,,NaN,,,,,,false,,,,677035,677034,,677034,,677050.4,8,400,,,
break_continue,html.Screen,4_136_2,2023-09-11T17:24:41.353Z,,0,,,NaN,,,,,,false,,,,677036,677036,,677036,,677050.4,8,400,,,
sequence,flow.Sequence,4_136,2023-09-11T17:24:41.354Z,,0,,,3175.5999999999767,completion,,,,,false,,,,677037,677036,673859.78,673862,673860.4,677050.4,8,400,,,
trial,html.Screen,4_137_0,2023-09-11T17:24:45.300Z,,0,3,,3932.5999999999767,response,ISIC_3886458.JPG,12,ISIC_0031642.JPG,ISIC_3886458.JPG,false,1,keypress(m),500,680983,680983,677033.74,677037,677050.4,680983.96,8,400,38,,ISIC_0031642.JPG
break,html.Screen,4_137_1,2023-09-11T17:24:45.301Z,,0,,,NaN,,,,,,false,,,,680984,680984,,680983,,680983.96,8,400,,,
break_continue,html.Screen,4_137_2,2023-09-11T17:24:45.302Z,,0,,,NaN,,,,,,false,,,,680986,680985,,680985,,680983.96,8,400,,,
sequence,flow.Sequence,4_137,2023-09-11T17:24:45.303Z,,0,,,3934.5999999999767,completion,,,,,false,,,,680986,680985,677033.74,677037,677050.4,680983.96,8,400,,,
trial,html.Screen,4_138_0,2023-09-11T17:24:48.546Z,,0,3,,3245.0400000000373,response,ISIC_0066882.JPG,22,ISIC_8138363.JPG,ISIC_8138363.JPG,false,0,keypress(z),500,684230,684229,680983.24,680986,680983.96,684232.02,8,400,39,,ISIC_0066882.JPG
break,html.Screen,4_138_1,2023-09-11T17:24:48.548Z,,0,,,NaN,,,,,,false,,,,684231,684230,,684230,,684232.02,8,400,,,
break_continue,html.Screen,4_138_2,2023-09-11T17:24:48.549Z,,0,,,NaN,,,,,,false,,,,684231,684231,,684231,,684232.02,8,400,,,
sequence,flow.Sequence,4_138,2023-09-11T17:24:48.549Z,,0,,,3247.0400000000373,completion,,,,,false,,,,684232,684231,680983.24,680986,680983.96,684232.02,8,400,,,
trial,html.Screen,4_139_0,2023-09-11T17:24:52.272Z,,0,3,,3722.9799999999814,response,ISIC_0031589.JPG,6,ISIC_3432650.JPG,ISIC_3432650.JPG,false,0,keypress(z),500,687955,687955,684229.76,684232,684232.02,687955.48,8,400,40,,ISIC_0031589.JPG
break,html.Screen,4_139_1,2023-09-11T17:24:52.273Z,,0,,,NaN,,,,,,false,,,,687956,687956,,687955,,687955.48,8,400,,,
break_continue,html.Screen,4_139_2,2023-09-11T17:24:52.273Z,,0,,,NaN,,,,,,false,,,,687956,687956,,687956,,687955.48,8,400,,,
sequence,flow.Sequence,4_139,2023-09-11T17:24:52.273Z,,0,,,3723.9799999999814,completion,,,,,false,,,,687956,687956,684229.76,684232,684232.02,687955.48,8,400,,,
trial,html.Screen,4_140_0,2023-09-11T17:24:56.526Z,,0,3,,4253.520000000019,response,ISIC_7636321.JPG,2,ISIC_3942075.JPG,ISIC_7636321.JPG,false,1,keypress(m),500,692210,692209,687955.1,687957,687955.48,692213.38,8,400,41,,ISIC_3942075.JPG
break,html.Screen,4_140_1,2023-09-11T17:24:56.528Z,,0,,,NaN,,,,,,false,,,,692211,692211,,692210,,692213.38,8,400,,,
break_continue,html.Screen,4_140_2,2023-09-11T17:24:56.528Z,,0,,,NaN,,,,,,false,,,,692212,692212,,692211,,692213.38,8,400,,,
sequence,flow.Sequence,4_140,2023-09-11T17:24:56.529Z,,0,,,4256.520000000019,completion,,,,,false,,,,692212,692212,687955.1,687957,687955.48,692213.38,8,400,,,
trial,html.Screen,4_141_0,2023-09-11T17:25:01.098Z,,0,3,,4567.619999999995,response,ISIC_7043369.JPG,15,ISIC_5386244.JPG,ISIC_5386244.JPG,false,0,keypress(z),500,696781,696781,692209.76,692213,692213.38,696782.08,8,400,42,,ISIC_7043369.JPG
break,html.Screen,4_141_1,2023-09-11T17:25:01.100Z,,0,,,NaN,,,,,,false,,,,696783,696782,,696781,,696782.08,8,400,,,
break_continue,html.Screen,4_141_2,2023-09-11T17:25:01.101Z,,0,,,NaN,,,,,,false,,,,696784,696783,,696783,,696782.08,8,400,,,
sequence,flow.Sequence,4_141,2023-09-11T17:25:01.101Z,,0,,,4569.619999999995,completion,,,,,false,,,,696784,696783,692209.76,692213,692213.38,696782.08,8,400,,,
trial,html.Screen,4_142_0,2023-09-11T17:25:04.315Z,,0,3,,3215.920000000042,response,ISIC_0026802.JPG,17,ISIC_7180438.JPG,ISIC_7180438.JPG,false,0,keypress(z),500,699998,699998,696781.58,696784,696782.08,699999.08,8,400,43,,ISIC_0026802.JPG
break,html.Screen,4_142_1,2023-09-11T17:25:04.317Z,,0,,,NaN,,,,,,false,,,,700000,700000,,699998,,699999.08,8,400,,,
break_continue,html.Screen,4_142_2,2023-09-11T17:25:04.317Z,,0,,,NaN,,,,,,false,,,,700000,700000,,700000,,699999.08,8,400,,,
sequence,flow.Sequence,4_142,2023-09-11T17:25:04.318Z,,0,,,3217.920000000042,completion,,,,,false,,,,700000,700000,696781.58,696784,696782.08,699999.08,8,400,,,
trial,html.Screen,4_143_0,2023-09-11T17:25:07.367Z,,0,3,,3049.920000000042,response,ISIC_0071901.JPG,18,ISIC_0062301.JPG,ISIC_0071901.JPG,false,1,keypress(m),500,703050,703049,699998.5,700001,699999.08,703050.7,8,400,44,,ISIC_0062301.JPG
break,html.Screen,4_143_1,2023-09-11T17:25:07.368Z,,0,,,NaN,,,,,,false,,,,703051,703051,,703050,,703050.7,8,400,,,
break_continue,html.Screen,4_143_2,2023-09-11T17:25:07.369Z,,0,,,NaN,,,,,,false,,,,703052,703052,,703052,,703050.7,8,400,,,
sequence,flow.Sequence,4_143,2023-09-11T17:25:07.369Z,,0,,,3052.920000000042,completion,,,,,false,,,,703053,703052,699998.5,700001,699999.08,703050.7,8,400,,,
trial,html.Screen,4_144_0,2023-09-11T17:25:10.429Z,,0,3,,3061.3000000000466,response,ISIC_2074764.JPG,5,ISIC_4921413.JPG,ISIC_4921413.JPG,false,0,keypress(z),500,706112,706112,703050.22,703053,703050.7,706113.2,8,400,45,,ISIC_2074764.JPG
break,html.Screen,4_144_1,2023-09-11T17:25:10.431Z,,0,,,NaN,,,,,,false,,,,706114,706113,,706112,,706113.2,8,400,,,
break_continue,html.Screen,4_144_2,2023-09-11T17:25:10.431Z,,0,,,NaN,,,,,,false,,,,706115,706114,,706114,,706113.2,8,400,,,
sequence,flow.Sequence,4_144,2023-09-11T17:25:10.432Z,,0,,,3063.3000000000466,completion,,,,,false,,,,706115,706114,703050.22,703053,703050.7,706113.2,8,400,,,
trial,html.Screen,4_145_0,2023-09-11T17:25:14.880Z,,0,3,,4448.800000000047,response,ISIC_9134566.JPG,12,ISIC_0028573.JPG,ISIC_9134566.JPG,false,1,keypress(m),500,710562,710562,706112.62,706115,706113.2,710563.3,8,400,46,,ISIC_0028573.JPG
break,html.Screen,4_145_1,2023-09-11T17:25:14.880Z,,0,,,NaN,,,,,,false,,,,710564,710563,,710563,,710563.3,8,400,,,
break_continue,html.Screen,4_145_2,2023-09-11T17:25:14.881Z,,0,,,NaN,,,,,,false,,,,710565,710564,,710564,,710563.3,8,400,,,
sequence,flow.Sequence,4_145,2023-09-11T17:25:14.882Z,,0,,,4450.800000000047,completion,,,,,false,,,,710565,710564,706112.62,706115,706113.2,710563.3,8,400,,,
trial,html.Screen,4_146_0,2023-09-11T17:25:18.452Z,,0,3,,3570.6999999999534,response,ISIC_2826618.JPG,13,ISIC_7231192.JPG,ISIC_2826618.JPG,false,1,keypress(m),500,714135,714134,710562.72,710565,710563.3,714141.32,8,400,47,,ISIC_7231192.JPG
break,html.Screen,4_146_1,2023-09-11T17:25:18.453Z,,0,,,NaN,,,,,,false,,,,714136,714136,,714135,,714141.32,8,400,,,
break_continue,html.Screen,4_146_2,2023-09-11T17:25:18.454Z,,0,,,NaN,,,,,,false,,,,714137,714137,,714136,,714141.32,8,400,,,
sequence,flow.Sequence,4_146,2023-09-11T17:25:18.454Z,,0,,,3573.6999999999534,completion,,,,,false,,,,714137,714137,710562.72,710565,710563.3,714141.32,8,400,,,
trial,html.Screen,4_147_0,2023-09-11T17:25:21.357Z,,0,3,,2897.680000000051,response,ISIC_0024958.JPG,1,ISIC_0027214.JPG,ISIC_0027214.JPG,false,0,keypress(z),500,717040,717039,714134.88,714137,714141.32,717040.4,8,400,48,,ISIC_0024958.JPG
break,html.Screen,4_147_1,2023-09-11T17:25:21.359Z,,0,,,NaN,,,,,,false,,,,717041,717041,,717040,,717040.4,8,400,,,
break_continue,html.Screen,4_147_2,2023-09-11T17:25:21.360Z,,0,,,NaN,,,,,,false,,,,717042,717042,,717041,,717040.4,8,400,,,
sequence,flow.Sequence,4_147,2023-09-11T17:25:21.360Z,,0,,,2900.680000000051,completion,,,,,false,,,,717042,717042,714134.88,714137,714141.32,717040.4,8,400,,,
trial,html.Screen,4_148_0,2023-09-11T17:25:25.166Z,,0,3,,3808.5999999999767,response,ISIC_0072997.JPG,14,ISIC_9644813.JPG,ISIC_9644813.JPG,false,0,keypress(z),500,720850,720849,717039.88,717044,717040.4,720856.24,8,400,49,,ISIC_0072997.JPG
break,html.Screen,4_148_1,2023-09-11T17:25:25.168Z,,0,,,NaN,,,,,,false,,,,720851,720851,,720850,,720856.24,8,400,,,
break_continue,html.Screen,4_148_2,2023-09-11T17:25:25.169Z,,0,,,NaN,,,,,,false,,,,720852,720852,,720851,,720856.24,8,400,,,
sequence,flow.Sequence,4_148,2023-09-11T17:25:25.169Z,,0,,,3811.5999999999767,completion,,,,,false,,,,720853,720852,717039.88,717044,717040.4,720856.24,8,400,,,
trial,html.Screen,4_149_0,2023-09-11T17:25:28.324Z,,0,3,,3149.7600000000093,response,ISIC_2418276.JPG,5,ISIC_0034150.JPG,ISIC_2418276.JPG,false,1,keypress(m),500,724006,724006,720850.1,720853,720856.24,724022.1,8,400,50,,ISIC_0034150.JPG
break,html.Screen,4_149_1,2023-09-11T17:25:38.321Z,,0,,,9997.640000000014,timeout,,,,,false,,,,734004,734003.08,724005.44,724007,724022.1,734019.74,8,400,,,
break_continue,html.Screen,4_149_2,2023-09-11T17:25:41.581Z,,0,,,3204.2600000000093,response,,,,,false,continue,keypress(Space),,737263,737224,734003.08,734005,734019.74,737264.64,8,400,,,
sequence,flow.Sequence,4_149,2023-09-11T17:25:41.581Z,,0,,,16367.76000000001,completion,,,,,false,,,,737264,737224,720850.1,720853,720856.24,737264.64,8,400,,,
trial,html.Screen,4_150_0,2023-09-11T17:25:44.567Z,,0,4,,2984.359999999986,response,ISIC_6020636.JPG,4,ISIC_4116224.JPG,ISIC_6020636.JPG,false,1,keypress(m),500,740250,740249,737264.22,737264,737264.64,740251.5,8,400,1,,ISIC_4116224.JPG
break,html.Screen,4_150_1,2023-09-11T17:25:44.568Z,,0,,,NaN,,,,,,false,,,,740251,740251,,740250,,740251.5,8,400,,,
