sender,sender_type,sender_id,timestamp,meta,,blockNo,condition,duration,ended_on,img_left,img_reveal,img_right,loser,practice,response,response_action,selection_duration,time_commit,time_end,time_render,time_run,time_show,time_switch,total_blocks,total_trials,trialNo,url,winner
informed_consent,html.Screen,0,2023-11-03T21:21:54.864Z,"{""labjs_version"":""20.2.4"",""labjs_build"":{""flavor"":""production"",""commit"":""f5b4a49f956347addd546a832a3327688c2c0fef""},""location"":""https://run.pavlovia.org/MurrayBennett/melanoma-2afc/?participant=65737&platform=sona"",""userAgent"":""Mozilla/5.0 (Windows NT 10.0; Win64; x64) AppleWebKit/537.36 (KHTML, like Gecko) Chrome/118.0.0.0 Safari/537.36"",""platform"":""Win32"",""language"":""en-US"",""locale"":""en-US"",""timeZone"":""America/Chicago"",""timezoneOffset"":300,""screen_width"":1440,""screen_height"":900,""scroll_width"":1440,""scroll_height"":727,""window_innerWidth"":1440,""window_innerHeight"":775,""devicePixelRatio"":2}",,,,4287.038999952316,response,,,,,,consent,click button,,6537.099999904633,6535.799999952316,2237.62,2233.5,2248.761,6557.105,,,,"{""participant"":""65737"",""platform"":""sona""}",
Welcome,html.Screen,1,2023-11-03T21:21:56.063Z,,,,symmetry,1178.494999904633,response,,,,,,continue,click button,,7736.5,7735.599999904633,6546.042,6537.299999952316,6557.105,7740.424,,,,,
trial,html.Screen,2_0_0,2023-11-03T21:22:06.913Z,,0,0,,10845.875999952317,response,ISIC_6997061.JPG,,ISIC_0069348.JPG,ISIC_0069348.JPG,true,0,keypress(z),500,18586.599999904633,18586.299999952316,7729.433,7736.699999809265,7740.424,18598.494,1,6,1,,ISIC_6997061.JPG
sequence,flow.Sequence,2_0,2023-11-03T21:22:06.914Z,,0,,,10845.875999952317,completion,,,,,true,,,,18587,18586.299999952316,7729.433,7736.599999904633,7740.424,18598.494,1,6,,,
trial,html.Screen,2_1_0,2023-11-03T21:22:09.611Z,,0,0,,2685.605999904634,response,ISIC_0057368.JPG,,ISIC_0009529.JPG,ISIC_0057368.JPG,true,1,keypress(m),500,21284.299999952316,21284.099999904633,18578.57,18587.099999904633,18598.494,21290.107,1,6,2,,ISIC_0009529.JPG
sequence,flow.Sequence,2_1,2023-11-03T21:22:09.611Z,,0,,,2685.605999904634,completion,,,,,true,,,,21284.39999985695,21284.099999904633,18578.57,18587,18598.494,21290.107,1,6,,,
trial,html.Screen,2_2_0,2023-11-03T21:22:12.413Z,,0,0,,2796.092999809265,response,ISIC_0064954.JPG,,ISIC_9758671.JPG,ISIC_9758671.JPG,true,0,keypress(z),500,24086.39999985695,24086.199999809265,21277.287,21284.5,21290.107,24089.865,1,6,3,,ISIC_0064954.JPG
sequence,flow.Sequence,2_2,2023-11-03T21:22:12.413Z,,0,,,2796.092999809265,completion,,,,,true,,,,24086.39999985695,24086.199999809265,21277.287,21284.39999985695,21290.107,24089.865,1,6,,,
trial,html.Screen,2_3_0,2023-11-03T21:22:15.199Z,,0,0,,2782.5349998569473,response,ISIC_0005785.JPG,,ISIC_0000080.JPG,ISIC_0005785.JPG,true,1,keypress(m),500,26872.599999904633,26872.39999985695,24081.814,24086.599999904633,24089.865,26876.424,1,6,4,,ISIC_0000080.JPG
sequence,flow.Sequence,2_3,2023-11-03T21:22:15.200Z,,0,,,2782.5349998569473,completion,,,,,true,,,,26872.89999985695,26872.39999985695,24081.814,24086.5,24089.865,26876.424,1,6,,,
trial,html.Screen,2_4_0,2023-11-03T21:22:17.793Z,,0,0,,2590.076000000001,response,ISIC_5390060.JPG,,ISIC_7944028.JPG,ISIC_5390060.JPG,true,1,keypress(m),500,29466.699999809265,29466.5,26869.742,26873,26876.424,29470.479,1,6,5,,ISIC_7944028.JPG
sequence,flow.Sequence,2_4,2023-11-03T21:22:17.794Z,,0,,,2590.076000000001,completion,,,,,true,,,,29467,29466.5,26869.742,26873,26876.424,29470.479,1,6,,,
trial,html.Screen,2_5_0,2023-11-03T21:22:20.486Z,,0,0,,2688.220999809266,response,ISIC_0010188.JPG,,ISIC_0794216.JPG,ISIC_0010188.JPG,true,1,keypress(m),500,32158.89999985695,32158.699999809265,29462.75,29467.099999904633,29470.479,32162.643,1,6,6,,ISIC_0794216.JPG
sequence,flow.Sequence,2_5,2023-11-03T21:22:20.486Z,,0,,,2688.220999809266,completion,,,,,true,,,,32159.199999809265,32158.699999809265,29462.75,29467.099999904633,29470.479,32162.643,1,6,,,
loop,flow.Loop,2,2023-11-03T21:22:20.486Z,,,,,24418.275999809266,completion,,,,,true,,,,32159.299999952316,32158.699999809265,7729.433,7736.5,7740.424,32162.643,1,6,,,
exp_instructions,html.Screen,3,2023-11-03T21:22:25.411Z,,,,,4921.156999952316,response,,,,,,continue,keypress(Space),,37084.5,37083.799999952316,32153.767,32159.39999985695,32162.643,37092.771,,,,,
trial,html.Screen,4_0_0,2023-11-03T21:22:28.286Z,,0,1,,2866.5289999523156,response,ISIC_0032695.JPG,5,ISIC_6463417.JPG,ISIC_0032695.JPG,false,1,keypress(m),500,39959.5,39959.299999952316,37081.593,37084.699999809265,37092.771,39970.31,8,400,1,,ISIC_6463417.JPG
break,html.Screen,4_0_1,2023-11-03T21:22:28.287Z,,0,,,NaN,,,,,,false,,,,39960.59999990463,39960.39999985695,,39959.59999990463,,39970.31,8,400,,,
break_continue,html.Screen,4_0_2,2023-11-03T21:22:28.288Z,,0,,,NaN,,,,,,false,,,,39961,39960.89999985695,,39960.699999809265,,39970.31,8,400,,,
sequence,flow.Sequence,4_0,2023-11-03T21:22:28.288Z,,0,,,2868.128999856948,completion,,,,,false,,,,39961.199999809265,39960.89999985695,37081.593,37084.699999809265,37092.771,39970.31,8,400,,,
trial,html.Screen,4_1_0,2023-11-03T21:22:31.170Z,,0,1,,2872.6900000000023,response,ISIC_0010322.JPG,5,ISIC_6052702.JPG,ISIC_0010322.JPG,false,1,keypress(m),500,42843.299999952316,42843,39959.094,39961.199999809265,39970.31,42847.845,8,400,2,,ISIC_6052702.JPG
break,html.Screen,4_1_1,2023-11-03T21:22:31.170Z,,0,,,NaN,,,,,,false,,,,42843.799999952316,42843.59999990463,,42843.299999952316,,42847.845,8,400,,,
break_continue,html.Screen,4_1_2,2023-11-03T21:22:31.171Z,,0,,,NaN,,,,,,false,,,,42844,42843.89999985695,,42843.799999952316,,42847.845,8,400,,,
sequence,flow.Sequence,4_1,2023-11-03T21:22:31.171Z,,0,,,2873.589999856951,completion,,,,,false,,,,42844,42843.89999985695,39959.094,39961.199999809265,39970.31,42847.845,8,400,,,
trial,html.Screen,4_2_0,2023-11-03T21:22:33.876Z,,0,1,,2701.2549999046314,response,ISIC_5608998.JPG,5,ISIC_1937197.JPG,ISIC_1937197.JPG,false,0,keypress(z),500,45549.39999985695,45549.09999990463,42836.779,42844.199999809265,42847.845,45558.801,8,400,3,,ISIC_5608998.JPG
break,html.Screen,4_2_1,2023-11-03T21:22:33.877Z,,0,,,NaN,,,,,,false,,,,45550.39999985695,45550.199999809265,,45549.59999990463,,45558.801,8,400,,,
break_continue,html.Screen,4_2_2,2023-11-03T21:22:33.877Z,,0,,,NaN,,,,,,false,,,,45550.799999952316,45550.699999809265,,45550.59999990463,,45558.801,8,400,,,
sequence,flow.Sequence,4_2,2023-11-03T21:22:33.878Z,,0,,,2702.854999809264,completion,,,,,false,,,,45550.89999985695,45550.699999809265,42836.779,42844.199999809265,42847.845,45558.801,8,400,,,
trial,html.Screen,4_3_0,2023-11-03T21:22:36.236Z,,0,1,,2349.798999904633,response,ISIC_5840341.JPG,5,ISIC_5097947.JPG,ISIC_5840341.JPG,false,1,keypress(m),500,47908.89999985695,47908.59999990463,45547.871,45551.09999990463,45558.801,47914.17,8,400,4,,ISIC_5097947.JPG
break,html.Screen,4_3_1,2023-11-03T21:22:36.236Z,,0,,,NaN,,,,,,false,,,,47909.699999809265,47909.39999985695,,47909,,47914.17,8,400,,,
break_continue,html.Screen,4_3_2,2023-11-03T21:22:36.237Z,,0,,,NaN,,,,,,false,,,,47910,47910,,47909.799999952316,,47914.17,8,400,,,
sequence,flow.Sequence,4_3,2023-11-03T21:22:36.237Z,,0,,,2351.1990000000005,completion,,,,,false,,,,47910.199999809265,47910,45547.871,45551,45558.801,47914.17,8,400,,,
trial,html.Screen,4_4_0,2023-11-03T21:22:38.670Z,,0,1,,2429.129999952318,response,ISIC_0025316.JPG,4,ISIC_0028361.JPG,ISIC_0028361.JPG,false,0,keypress(z),500,50343.5,50343.299999952316,47903.284,47910.299999952316,47914.17,50347.315,8,400,5,,ISIC_0025316.JPG
break,html.Screen,4_4_1,2023-11-03T21:22:38.671Z,,0,,,NaN,,,,,,false,,,,50344.699999809265,50344.5,,50343.699999809265,,50347.315,8,400,,,
break_continue,html.Screen,4_4_2,2023-11-03T21:22:38.672Z,,0,,,NaN,,,,,,false,,,,50345,50344.89999985695,,50344.799999952316,,50347.315,8,400,,,
sequence,flow.Sequence,4_4,2023-11-03T21:22:38.672Z,,0,,,2430.7299998569506,completion,,,,,false,,,,50345.299999952316,50344.89999985695,47903.284,47910.299999952316,47914.17,50347.315,8,400,,,
trial,html.Screen,4_5_0,2023-11-03T21:22:41.314Z,,0,1,,2640.0849998569465,response,ISIC_4384861.JPG,4,ISIC_0914168.JPG,ISIC_0914168.JPG,false,0,keypress(z),500,52987.699999809265,52987.39999985695,50336.1,50345.39999985695,50347.315,52991.358,8,400,6,,ISIC_4384861.JPG
break,html.Screen,4_5_1,2023-11-03T21:22:41.316Z,,0,,,NaN,,,,,,false,,,,52989.299999952316,52989.09999990463,,52987.89999985695,,52991.358,8,400,,,
break_continue,html.Screen,4_5_2,2023-11-03T21:22:41.316Z,,0,,,NaN,,,,,,false,,,,52989.699999809265,52989.59999990463,,52989.5,,52991.358,8,400,,,
sequence,flow.Sequence,4_5,2023-11-03T21:22:41.317Z,,0,,,2642.2849999046302,completion,,,,,false,,,,52989.89999985695,52989.59999990463,50336.1,50345.299999952316,50347.315,52991.358,8,400,,,
trial,html.Screen,4_6_0,2023-11-03T21:22:43.962Z,,0,1,,2643.341999809265,response,ISIC_0012672.JPG,5,ISIC_0069830.JPG,ISIC_0069830.JPG,false,0,keypress(z),500,55634.89999985695,55634.699999809265,52986.681,52990,52991.358,55638.548,8,400,7,,ISIC_0012672.JPG
break,html.Screen,4_6_1,2023-11-03T21:22:43.963Z,,0,,,NaN,,,,,,false,,,,55636.39999985695,55636.09999990463,,55635,,55638.548,8,400,,,
break_continue,html.Screen,4_6_2,2023-11-03T21:22:43.963Z,,0,,,NaN,,,,,,false,,,,55636.699999809265,55636.5,,55636.39999985695,,55638.548,8,400,,,
sequence,flow.Sequence,4_6,2023-11-03T21:22:43.964Z,,0,,,2645.142,completion,,,,,false,,,,55636.89999985695,55636.5,52986.681,52990,52991.358,55638.548,8,400,,,
trial,html.Screen,4_7_0,2023-11-03T21:22:46.735Z,,0,1,,2769.55199990463,response,ISIC_5736979.JPG,5,ISIC_9104843.JPG,ISIC_5736979.JPG,false,1,keypress(m),500,58408.299999952316,58408.09999990463,55633.999,55636.89999985695,55638.548,58412.051,8,400,8,,ISIC_9104843.JPG
break,html.Screen,4_7_1,2023-11-03T21:22:46.737Z,,0,,,NaN,,,,,,false,,,,58409.89999985695,58409.59999990463,,58408.5,,58412.051,8,400,,,
break_continue,html.Screen,4_7_2,2023-11-03T21:22:46.737Z,,0,,,NaN,,,,,,false,,,,58410.199999809265,58410.09999990463,,58410.09999990463,,58412.051,8,400,,,
sequence,flow.Sequence,4_7,2023-11-03T21:22:46.737Z,,0,,,2771.55199990463,completion,,,,,false,,,,58410.39999985695,58410.09999990463,55633.999,55636.89999985695,55638.548,58412.051,8,400,,,
trial,html.Screen,4_8_0,2023-11-03T21:22:49.162Z,,0,1,,2422.4490000000005,response,ISIC_0612080.JPG,5,ISIC_0030047.JPG,ISIC_0030047.JPG,false,0,keypress(z),500,60834.59999990463,60834.5,58403.309,58410.59999990463,58412.051,60838.149,8,400,9,,ISIC_0612080.JPG
break,html.Screen,4_8_1,2023-11-03T21:22:49.163Z,,0,,,NaN,,,,,,false,,,,60835.5,60835,,60834.699999809265,,60838.149,8,400,,,
break_continue,html.Screen,4_8_2,2023-11-03T21:22:49.164Z,,0,,,NaN,,,,,,false,,,,60836.39999985695,60836.299999952316,,60835.699999809265,,60838.149,8,400,,,
sequence,flow.Sequence,4_8,2023-11-03T21:22:49.164Z,,0,,,2424.248999952317,completion,,,,,false,,,,60836.59999990463,60836.299999952316,58403.309,58410.5,58412.051,60838.149,8,400,,,
trial,html.Screen,4_9_0,2023-11-03T21:22:51.587Z,,0,1,,2421.2509998569512,response,ISIC_0010426.JPG,5,ISIC_0068217.JPG,ISIC_0010426.JPG,false,1,keypress(m),500,63259.799999952316,63259.39999985695,60825.376,60836.699999809265,60838.149,63268.219,8,400,10,,ISIC_0068217.JPG
break,html.Screen,4_9_1,2023-11-03T21:22:51.588Z,,0,,,NaN,,,,,,false,,,,63261.09999990463,63260.799999952316,,63260.199999809265,,63268.219,8,400,,,
break_continue,html.Screen,4_9_2,2023-11-03T21:22:51.589Z,,0,,,NaN,,,,,,false,,,,63261.59999990463,63261.39999985695,,63261.199999809265,,63268.219,8,400,,,
sequence,flow.Sequence,4_9,2023-11-03T21:22:51.589Z,,0,,,2423.2509998569512,completion,,,,,false,,,,63261.799999952316,63261.39999985695,60825.376,60836.59999990463,60838.149,63268.219,8,400,,,
trial,html.Screen,4_10_0,2023-11-03T21:22:54.007Z,,0,1,,2411.080999952319,response,ISIC_7806926.JPG,6,ISIC_0011669.JPG,ISIC_0011669.JPG,false,0,keypress(z),500,65679.5,65679.29999995232,63259.186,63262,63268.219,65702.559,8,400,11,,ISIC_7806926.JPG
break,html.Screen,4_10_1,2023-11-03T21:22:54.008Z,,0,,,NaN,,,,,,false,,,,65680.59999990463,65680.5,,65679.69999980927,,65702.559,8,400,,,
break_continue,html.Screen,4_10_2,2023-11-03T21:22:54.008Z,,0,,,NaN,,,,,,false,,,,65681.09999990463,65681,,65680.79999995232,,65702.559,8,400,,,
sequence,flow.Sequence,4_10,2023-11-03T21:22:54.009Z,,0,,,2412.7810000000027,completion,,,,,false,,,,65681.19999980927,65681,63259.186,63261.89999985695,63268.219,65702.559,8,400,,,
trial,html.Screen,4_11_0,2023-11-03T21:22:56.650Z,,0,1,,2620.1409998092713,response,ISIC_7777873.JPG,5,ISIC_0057286.JPG,ISIC_0057286.JPG,false,0,keypress(z),500,68322.89999985695,68322.69999980927,65691.729,65681.29999995232,65702.559,68339.793,8,400,12,,ISIC_7777873.JPG
break,html.Screen,4_11_1,2023-11-03T21:22:56.651Z,,0,,,NaN,,,,,,false,,,,68323.69999980927,68323.5,,68323.09999990463,,68339.793,8,400,,,
break_continue,html.Screen,4_11_2,2023-11-03T21:22:56.652Z,,0,,,NaN,,,,,,false,,,,68324.09999990463,68324,,68323.89999985695,,68339.793,8,400,,,
sequence,flow.Sequence,4_11,2023-11-03T21:22:56.652Z,,0,,,2621.441000000006,completion,,,,,false,,,,68324.29999995232,68324,65691.729,65681.29999995232,65702.559,68339.793,8,400,,,
trial,html.Screen,4_12_0,2023-11-03T21:22:59.438Z,,0,1,,2770.40699980926,response,ISIC_0069475.JPG,5,ISIC_0031155.JPG,ISIC_0069475.JPG,false,1,keypress(m),500,71110.39999985695,71110.19999980927,68329.005,68324.29999995232,68339.793,71113.935,8,400,13,,ISIC_0031155.JPG
break,html.Screen,4_12_1,2023-11-03T21:22:59.438Z,,0,,,NaN,,,,,,false,,,,71111,71110.79999995232,,71110.5,,71113.935,8,400,,,
break_continue,html.Screen,4_12_2,2023-11-03T21:22:59.439Z,,0,,,NaN,,,,,,false,,,,71111.29999995232,71111.19999980927,,71111.09999990463,,71113.935,8,400,,,
sequence,flow.Sequence,4_12,2023-11-03T21:22:59.439Z,,0,,,2771.40699980926,completion,,,,,false,,,,71111.29999995232,71111.19999980927,68329.005,68324.29999995232,68339.793,71113.935,8,400,,,
trial,html.Screen,4_13_0,2023-11-03T21:23:02.449Z,,0,1,,3007.2649998092675,response,ISIC_3416324.JPG,6,ISIC_0527170.JPG,ISIC_0527170.JPG,false,0,keypress(z),500,74121.5,74121.19999980927,71101.46,71111.39999985695,71113.935,74125.217,8,400,14,,ISIC_3416324.JPG
break,html.Screen,4_13_1,2023-11-03T21:23:02.450Z,,0,,,NaN,,,,,,false,,,,74123.09999990463,74122.79999995232,,74121.69999980927,,74125.217,8,400,,,
break_continue,html.Screen,4_13_2,2023-11-03T21:23:02.451Z,,0,,,NaN,,,,,,false,,,,74123.5,74123.39999985695,,74123.19999980927,,74125.217,8,400,,,
sequence,flow.Sequence,4_13,2023-11-03T21:23:02.451Z,,0,,,3009.464999856951,completion,,,,,false,,,,74123.79999995232,74123.39999985695,71101.46,71111.39999985695,71113.935,74125.217,8,400,,,
trial,html.Screen,4_14_0,2023-11-03T21:23:06.742Z,,0,1,,4289.282999999996,response,ISIC_3764173.JPG,4,ISIC_0026150.JPG,ISIC_0026150.JPG,false,0,keypress(z),500,78414.79999995232,78414.5,74115.307,74123.89999985695,74125.217,78418.563,8,400,15,,ISIC_3764173.JPG
break,html.Screen,4_14_1,2023-11-03T21:23:06.744Z,,0,,,NaN,,,,,,false,,,,78416.29999995232,78416.09999990463,,78415,,78418.563,8,400,,,
break_continue,html.Screen,4_14_2,2023-11-03T21:23:06.744Z,,0,,,NaN,,,,,,false,,,,78416.89999985695,78416.79999995232,,78416.59999990463,,78418.563,8,400,,,
sequence,flow.Sequence,4_14,2023-11-03T21:23:06.745Z,,0,,,4291.582999952312,completion,,,,,false,,,,78417.19999980927,78416.79999995232,74115.307,74123.89999985695,74125.217,78418.563,8,400,,,
trial,html.Screen,4_15_0,2023-11-03T21:23:09.612Z,,0,1,,2865.6369998092705,response,ISIC_0027089.JPG,4,ISIC_2911251.JPG,ISIC_0027089.JPG,false,1,keypress(m),500,81284.5,81284.19999980927,78414.921,78417.5,78418.563,81288.194,8,400,16,,ISIC_2911251.JPG
break,html.Screen,4_15_1,2023-11-03T21:23:09.614Z,,0,,,NaN,,,,,,false,,,,81286.19999980927,81286,,81284.59999990463,,81288.194,8,400,,,
break_continue,html.Screen,4_15_2,2023-11-03T21:23:09.614Z,,0,,,NaN,,,,,,false,,,,81286.59999990463,81286.5,,81286.39999985695,,81288.194,8,400,,,
sequence,flow.Sequence,4_15,2023-11-03T21:23:09.614Z,,0,,,2867.9370000000054,completion,,,,,false,,,,81286.69999980927,81286.5,78414.921,78417.39999985695,78418.563,81288.194,8,400,,,
trial,html.Screen,4_16_0,2023-11-03T21:23:12.496Z,,0,1,,2880.4059999046294,response,ISIC_2928274.JPG,5,ISIC_6496370.JPG,ISIC_6496370.JPG,false,0,keypress(z),500,84168.79999995232,84168.59999990463,81278.578,81286.79999995232,81288.194,84175.326,8,400,17,,ISIC_2928274.JPG
break,html.Screen,4_16_1,2023-11-03T21:23:12.497Z,,0,,,NaN,,,,,,false,,,,84169.89999985695,84169.69999980927,,84169.09999990463,,84175.326,8,400,,,
break_continue,html.Screen,4_16_2,2023-11-03T21:23:12.498Z,,0,,,NaN,,,,,,false,,,,84170.39999985695,84170.29999995232,,84170.09999990463,,84175.326,8,400,,,
sequence,flow.Sequence,4_16,2023-11-03T21:23:12.498Z,,0,,,2882.105999952313,completion,,,,,false,,,,84170.69999980927,84170.29999995232,81278.578,81286.79999995232,81288.194,84175.326,8,400,,,
trial,html.Screen,4_17_0,2023-11-03T21:23:15.252Z,,0,1,,2749.2739999046316,response,ISIC_2323082.JPG,6,ISIC_0552911.JPG,ISIC_0552911.JPG,false,0,keypress(z),500,86924.79999995232,86924.59999990463,84164.513,84170.89999985695,84175.326,86928.129,8,400,18,,ISIC_2323082.JPG
break,html.Screen,4_17_1,2023-11-03T21:23:15.253Z,,0,,,NaN,,,,,,false,,,,86925.39999985695,86925.19999980927,,86924.89999985695,,86928.129,8,400,,,
break_continue,html.Screen,4_17_2,2023-11-03T21:23:15.253Z,,0,,,NaN,,,,,,false,,,,86925.59999990463,86925.5,,86925.39999985695,,86928.129,8,400,,,
sequence,flow.Sequence,4_17,2023-11-03T21:23:15.253Z,,0,,,2750.173999999999,completion,,,,,false,,,,86925.69999980927,86925.5,84164.513,84170.79999995232,84175.326,86928.129,8,400,,,
trial,html.Screen,4_18_0,2023-11-03T21:23:17.960Z,,0,1,,2703.770999856948,response,ISIC_0010308.JPG,5,ISIC_0062099.JPG,ISIC_0010308.JPG,false,1,keypress(m),500,89632.09999990463,89631.89999985695,86916.718,86925.79999995232,86928.129,89635.814,8,400,19,,ISIC_0062099.JPG
break,html.Screen,4_18_1,2023-11-03T21:23:17.960Z,,0,,,NaN,,,,,,false,,,,89632.59999990463,89632.5,,89632.29999995232,,89635.814,8,400,,,
break_continue,html.Screen,4_18_2,2023-11-03T21:23:17.960Z,,0,,,NaN,,,,,,false,,,,89632.79999995232,89632.79999995232,,89632.69999980927,,89635.814,8,400,,,
sequence,flow.Sequence,4_18,2023-11-03T21:23:17.960Z,,0,,,2704.6709999523155,completion,,,,,false,,,,89633,89632.79999995232,86916.718,86925.79999995232,86928.129,89635.814,8,400,,,
trial,html.Screen,4_19_0,2023-11-03T21:23:21.130Z,,0,1,,3166.785999904634,response,ISIC_5823859.JPG,5,ISIC_6054977.JPG,ISIC_6054977.JPG,false,0,keypress(z),500,92802.79999995232,92802.59999990463,89630.152,89633.09999990463,89635.814,92806.179,8,400,20,,ISIC_5823859.JPG
break,html.Screen,4_19_1,2023-11-03T21:23:21.131Z,,0,,,NaN,,,,,,false,,,,92803.69999980927,92803.19999980927,,92802.89999985695,,92806.179,8,400,,,
break_continue,html.Screen,4_19_2,2023-11-03T21:23:21.131Z,,0,,,NaN,,,,,,false,,,,92803.89999985695,92803.89999985695,,92803.79999995232,,92806.179,8,400,,,
sequence,flow.Sequence,4_19,2023-11-03T21:23:21.131Z,,0,,,3168.0859998569504,completion,,,,,false,,,,92804,92803.89999985695,89630.152,89633,89635.814,92806.179,8,400,,,
trial,html.Screen,4_20_0,2023-11-03T21:23:24.365Z,,0,1,,3230.720999856945,response,ISIC_0006672.JPG,4,ISIC_0062443.JPG,ISIC_0006672.JPG,false,1,keypress(m),500,96037.09999990463,96036.89999985695,92801.499,92804.09999990463,92806.179,96040.617,8,400,21,,ISIC_0062443.JPG
break,html.Screen,4_20_1,2023-11-03T21:23:24.366Z,,0,,,NaN,,,,,,false,,,,96038.19999980927,96038,,96037.19999980927,,96040.617,8,400,,,
break_continue,html.Screen,4_20_2,2023-11-03T21:23:24.366Z,,0,,,NaN,,,,,,false,,,,96038.39999985695,96038.19999980927,,96038.19999980927,,96040.617,8,400,,,
sequence,flow.Sequence,4_20,2023-11-03T21:23:24.366Z,,0,,,3232.0209998092614,completion,,,,,false,,,,96038.39999985695,96038.19999980927,92801.499,92804.09999990463,92806.179,96040.617,8,400,,,
trial,html.Screen,4_21_0,2023-11-03T21:23:26.961Z,,0,1,,2592.682999952318,response,ISIC_8278688.JPG,5,ISIC_0011530.JPG,ISIC_0011530.JPG,false,0,keypress(z),500,98633.39999985695,98633.29999995232,96037.498,96038.39999985695,96040.617,98636.766,8,400,22,,ISIC_8278688.JPG
break,html.Screen,4_21_1,2023-11-03T21:23:26.962Z,,0,,,NaN,,,,,,false,,,,98634.5,98634.29999995232,,98633.59999990463,,98636.766,8,400,,,
break_continue,html.Screen,4_21_2,2023-11-03T21:23:26.962Z,,0,,,NaN,,,,,,false,,,,98634.69999980927,98634.69999980927,,98634.59999990463,,98636.766,8,400,,,
sequence,flow.Sequence,4_21,2023-11-03T21:23:26.962Z,,0,,,2594.0829998092668,completion,,,,,false,,,,98634.79999995232,98634.69999980927,96037.498,96038.39999985695,96040.617,98636.766,8,400,,,
trial,html.Screen,4_22_0,2023-11-03T21:23:29.717Z,,0,1,,2752.933999809262,response,ISIC_0060091.JPG,5,ISIC_6293107.JPG,ISIC_0060091.JPG,false,1,keypress(m),500,101389.89999985695,101389.69999980927,98631.272,98635,98636.766,101393.419,8,400,23,,ISIC_6293107.JPG
break,html.Screen,4_22_1,2023-11-03T21:23:29.718Z,,0,,,NaN,,,,,,false,,,,101390.89999985695,101390.39999985695,,101390.09999990463,,101393.419,8,400,,,
break_continue,html.Screen,4_22_2,2023-11-03T21:23:29.719Z,,0,,,NaN,,,,,,false,,,,101391.09999990463,101391.09999990463,,101390.89999985695,,101393.419,8,400,,,
sequence,flow.Sequence,4_22,2023-11-03T21:23:29.719Z,,0,,,2754.3339999046293,completion,,,,,false,,,,101391.09999990463,101391.09999990463,98631.272,98635,98636.766,101393.419,8,400,,,
trial,html.Screen,4_23_0,2023-11-03T21:23:33.464Z,,0,1,,3742.680999904638,response,ISIC_0028929.JPG,5,ISIC_0032162.JPG,ISIC_0028929.JPG,false,1,keypress(m),500,105136.39999985695,105136.09999990463,101387.22,101391.19999980927,101393.419,105140.077,8,400,24,,ISIC_0032162.JPG
break,html.Screen,4_23_1,2023-11-03T21:23:33.465Z,,0,,,NaN,,,,,,false,,,,105137.79999995232,105137.59999990463,,105136.5,,105140.077,8,400,,,
break_continue,html.Screen,4_23_2,2023-11-03T21:23:33.466Z,,0,,,NaN,,,,,,false,,,,105138.09999990463,105138,,105137.89999985695,,105140.077,8,400,,,
sequence,flow.Sequence,4_23,2023-11-03T21:23:33.466Z,,0,,,3744.5810000000056,completion,,,,,false,,,,105138.19999980927,105138,101387.22,101391.19999980927,101393.419,105140.077,8,400,,,
trial,html.Screen,4_24_0,2023-11-03T21:23:36.712Z,,0,1,,3244.6229998092604,response,ISIC_0006821.JPG,6,ISIC_0031018.JPG,ISIC_0031018.JPG,false,0,keypress(z),500,108384.79999995232,108384.69999980927,105130.123,105138.39999985695,105140.077,108388.263,8,400,25,,ISIC_0006821.JPG
break,html.Screen,4_24_1,2023-11-03T21:23:36.713Z,,0,,,NaN,,,,,,false,,,,108385.79999995232,108385.19999980927,,108384.89999985695,,108388.263,8,400,,,
break_continue,html.Screen,4_24_2,2023-11-03T21:23:36.713Z,,0,,,NaN,,,,,,false,,,,108386,108386,,108385.89999985695,,108388.263,8,400,,,
sequence,flow.Sequence,4_24,2023-11-03T21:23:36.714Z,,0,,,3245.922999999995,completion,,,,,false,,,,108386.09999990463,108386,105130.123,105138.39999985695,105140.077,108388.263,8,400,,,
trial,html.Screen,4_25_0,2023-11-03T21:23:39.461Z,,0,1,,2745.3369999046263,response,ISIC_0025523.JPG,4,ISIC_4691689.JPG,ISIC_4691689.JPG,false,0,keypress(z),500,111133.79999995232,111133.59999990463,108383.292,108386.19999980927,108388.263,111137.501,8,400,26,,ISIC_0025523.JPG
break,html.Screen,4_25_1,2023-11-03T21:23:39.462Z,,0,,,NaN,,,,,,false,,,,111134.79999995232,111134.59999990463,,111134,,111137.501,8,400,,,
break_continue,html.Screen,4_25_2,2023-11-03T21:23:39.463Z,,0,,,NaN,,,,,,false,,,,111135.19999980927,111135.09999990463,,111135,,111137.501,8,400,,,
sequence,flow.Sequence,4_25,2023-11-03T21:23:39.463Z,,0,,,2746.8369999046263,completion,,,,,false,,,,111135.39999985695,111135.09999990463,108383.292,108386.19999980927,108388.263,111137.501,8,400,,,
trial,html.Screen,4_26_0,2023-11-03T21:23:42.072Z,,0,1,,2607.1989998092613,response,ISIC_0027221.JPG,5,ISIC_6220953.JPG,ISIC_0027221.JPG,false,1,keypress(m),500,113744.79999995232,113744.69999980927,111125.443,111135.5,111137.501,113748.62,8,400,27,,ISIC_6220953.JPG
break,html.Screen,4_26_1,2023-11-03T21:23:42.074Z,,0,,,NaN,,,,,,false,,,,113746.39999985695,113746.19999980927,,113745.09999990463,,113748.62,8,400,,,
break_continue,html.Screen,4_26_2,2023-11-03T21:23:42.074Z,,0,,,NaN,,,,,,false,,,,113746.79999995232,113746.59999990463,,113746.5,,113748.62,8,400,,,
sequence,flow.Sequence,4_26,2023-11-03T21:23:42.074Z,,0,,,2609.0989999046287,completion,,,,,false,,,,113746.89999985695,113746.59999990463,111125.443,111135.39999985695,111137.501,113748.62,8,400,,,
trial,html.Screen,4_27_0,2023-11-03T21:23:44.973Z,,0,1,,2896.979999904637,response,ISIC_0000296.JPG,5,ISIC_5022895.JPG,ISIC_0000296.JPG,false,1,keypress(m),500,116645.79999995232,116645.59999990463,113735.231,113747,113748.62,116649.581,8,400,28,,ISIC_5022895.JPG
break,html.Screen,4_27_1,2023-11-03T21:23:44.975Z,,0,,,NaN,,,,,,false,,,,116647.09999990463,116646.39999985695,,116646,,116649.581,8,400,,,
break_continue,html.Screen,4_27_2,2023-11-03T21:23:44.975Z,,0,,,NaN,,,,,,false,,,,116647.39999985695,116647.29999995232,,116647.19999980927,,116649.581,8,400,,,
sequence,flow.Sequence,4_27,2023-11-03T21:23:44.975Z,,0,,,2898.679999952321,completion,,,,,false,,,,116647.59999990463,116647.29999995232,113735.231,113747,113748.62,116649.581,8,400,,,
trial,html.Screen,4_28_0,2023-11-03T21:23:47.809Z,,0,1,,2831.8189998569433,response,ISIC_0030969.JPG,5,ISIC_7484618.JPG,ISIC_0030969.JPG,false,1,keypress(m),500,119481.69999980927,119481.39999985695,116642.389,116647.69999980927,116649.581,119485.204,8,400,29,,ISIC_7484618.JPG
break,html.Screen,4_28_1,2023-11-03T21:23:47.810Z,,0,,,NaN,,,,,,false,,,,119482.39999985695,119482.29999995232,,119481.89999985695,,119485.204,8,400,,,
break_continue,html.Screen,4_28_2,2023-11-03T21:23:47.810Z,,0,,,NaN,,,,,,false,,,,119482.69999980927,119482.69999980927,,119482.5,,119485.204,8,400,,,
sequence,flow.Sequence,4_28,2023-11-03T21:23:47.810Z,,0,,,2833.1189998092595,completion,,,,,false,,,,119482.79999995232,119482.69999980927,116642.389,116647.69999980927,116649.581,119485.204,8,400,,,
trial,html.Screen,4_29_0,2023-11-03T21:23:50.324Z,,0,1,,2510.695999856951,response,ISIC_0908367.JPG,6,ISIC_7484771.JPG,ISIC_7484771.JPG,false,0,keypress(z),500,121996.09999990463,121995.89999985695,119480.229,119482.89999985695,119485.204,121999.791,8,400,30,,ISIC_0908367.JPG
break,html.Screen,4_29_1,2023-11-03T21:23:50.324Z,,0,,,NaN,,,,,,false,,,,121996.89999985695,121996.69999980927,,121996.19999980927,,121999.791,8,400,,,
break_continue,html.Screen,4_29_2,2023-11-03T21:23:50.325Z,,0,,,NaN,,,,,,false,,,,121997.29999995232,121997.19999980927,,121997,,121999.791,8,400,,,
sequence,flow.Sequence,4_29,2023-11-03T21:23:50.325Z,,0,,,2511.9959998092672,completion,,,,,false,,,,121997.39999985695,121997.19999980927,119480.229,119482.89999985695,119485.204,121999.791,8,400,,,
trial,html.Screen,4_30_0,2023-11-03T21:23:53.097Z,,0,1,,2769.1089998569514,response,ISIC_4175400.JPG,5,ISIC_4580926.JPG,ISIC_4175400.JPG,false,1,keypress(m),500,124769.09999990463,124768.89999985695,121990.171,121997.5,121999.791,124772.793,8,400,31,,ISIC_4580926.JPG
break,html.Screen,4_30_1,2023-11-03T21:23:53.098Z,,0,,,NaN,,,,,,false,,,,124770.59999990463,124770.5,,124769.29999995232,,124772.793,8,400,,,
break_continue,html.Screen,4_30_2,2023-11-03T21:23:53.099Z,,0,,,NaN,,,,,,false,,,,124771,124770.89999985695,,124770.79999995232,,124772.793,8,400,,,
sequence,flow.Sequence,4_30,2023-11-03T21:23:53.099Z,,0,,,2771.1089998569514,completion,,,,,false,,,,124771.09999990463,124770.89999985695,121990.171,121997.39999985695,121999.791,124772.793,8,400,,,
trial,html.Screen,4_31_0,2023-11-03T21:23:56.386Z,,0,1,,3285.8069999046274,response,ISIC_6674653.JPG,5,ISIC_0015180.JPG,ISIC_0015180.JPG,false,0,keypress(z),500,128058.69999980927,128058.59999990463,124760.845,124771.29999995232,124772.793,128062.502,8,400,32,,ISIC_6674653.JPG
break,html.Screen,4_31_1,2023-11-03T21:23:56.388Z,,0,,,NaN,,,,,,false,,,,128060.19999980927,128060.09999990463,,128058.89999985695,,128062.502,8,400,,,
break_continue,html.Screen,4_31_2,2023-11-03T21:23:56.388Z,,0,,,NaN,,,,,,false,,,,128060.59999990463,128060.59999990463,,128060.39999985695,,128062.502,8,400,,,
sequence,flow.Sequence,4_31,2023-11-03T21:23:56.388Z,,0,,,3287.8069999046274,completion,,,,,false,,,,128060.69999980927,128060.59999990463,124760.845,124771.19999980927,124772.793,128062.502,8,400,,,
trial,html.Screen,4_32_0,2023-11-03T21:23:58.887Z,,0,1,,2496.297999952323,response,ISIC_0057192.JPG,5,ISIC_4375524.JPG,ISIC_0057192.JPG,false,1,keypress(m),500,130559,130558.79999995232,128058.043,128060.89999985695,128062.502,130562.646,8,400,33,,ISIC_4375524.JPG
break,html.Screen,4_32_1,2023-11-03T21:23:58.887Z,,0,,,NaN,,,,,,false,,,,130559.59999990463,130559.5,,130559.09999990463,,130562.646,8,400,,,
break_continue,html.Screen,4_32_2,2023-11-03T21:23:58.888Z,,0,,,NaN,,,,,,false,,,,130560.29999995232,130560.19999980927,,130560.19999980927,,130562.646,8,400,,,
sequence,flow.Sequence,4_32,2023-11-03T21:23:58.888Z,,0,,,2497.697999809272,completion,,,,,false,,,,130560.39999985695,130560.19999980927,128058.043,128060.89999985695,128062.502,130562.646,8,400,,,
trial,html.Screen,4_33_0,2023-11-03T21:24:01.611Z,,0,1,,2720.953999904639,response,ISIC_2050638.JPG,5,ISIC_6268546.JPG,ISIC_6268546.JPG,false,0,keypress(z),500,133283.89999985695,133283.59999990463,130558.369,130560.5,130562.646,133287.891,8,400,34,,ISIC_2050638.JPG
break,html.Screen,4_33_1,2023-11-03T21:24:01.613Z,,0,,,NaN,,,,,,false,,,,133285.89999985695,133285.59999990463,,133284.29999995232,,133287.891,8,400,,,
break_continue,html.Screen,4_33_2,2023-11-03T21:24:01.614Z,,0,,,NaN,,,,,,false,,,,133286.29999995232,133286.19999980927,,133286,,133287.891,8,400,,,
sequence,flow.Sequence,4_33,2023-11-03T21:24:01.614Z,,0,,,2723.5539998092718,completion,,,,,false,,,,133286.5,133286.19999980927,130558.369,130560.5,130562.646,133287.891,8,400,,,
trial,html.Screen,4_34_0,2023-11-03T21:24:04.064Z,,0,1,,2448.7089999046293,response,ISIC_8848134.JPG,5,ISIC_2494956.JPG,ISIC_8848134.JPG,false,1,keypress(m),500,135737,135736.59999990463,133282.644,133286.59999990463,133287.891,135740.951,8,400,35,,ISIC_2494956.JPG
break,html.Screen,4_34_1,2023-11-03T21:24:04.067Z,,0,,,NaN,,,,,,false,,,,135739.29999995232,135739.09999990463,,135737.19999980927,,135740.951,8,400,,,
break_continue,html.Screen,4_34_2,2023-11-03T21:24:04.067Z,,0,,,NaN,,,,,,false,,,,135739.79999995232,135739.69999980927,,135739.5,,135740.951,8,400,,,
sequence,flow.Sequence,4_34,2023-11-03T21:24:04.068Z,,0,,,2451.808999809262,completion,,,,,false,,,,135740,135739.69999980927,133282.644,133286.59999990463,133287.891,135740.951,8,400,,,
trial,html.Screen,4_35_0,2023-11-03T21:24:06.471Z,,0,1,,2402.448999856948,response,ISIC_0064738.JPG,4,ISIC_0010174.JPG,ISIC_0010174.JPG,false,0,keypress(z),500,138143.69999980927,138143.39999985695,135732.036,135740.19999980927,135740.951,138152.127,8,400,36,,ISIC_0064738.JPG
break,html.Screen,4_35_1,2023-11-03T21:24:06.472Z,,0,,,NaN,,,,,,false,,,,138145,138144.59999990463,,138144,,138152.127,8,400,,,
break_continue,html.Screen,4_35_2,2023-11-03T21:24:06.473Z,,0,,,NaN,,,,,,false,,,,138145.39999985695,138145.19999980927,,138145.09999990463,,138152.127,8,400,,,
sequence,flow.Sequence,4_35,2023-11-03T21:24:06.473Z,,0,,,2404.248999809264,completion,,,,,false,,,,138145.69999980927,138145.19999980927,135732.036,135740.09999990463,135740.951,138152.127,8,400,,,
trial,html.Screen,4_36_0,2023-11-03T21:24:08.877Z,,0,1,,2396.6729999523086,response,ISIC_0056707.JPG,4,ISIC_0062497.JPG,ISIC_0062497.JPG,false,0,keypress(z),500,140549,140548.79999995232,138144.778,138145.89999985695,138152.127,140567.082,8,400,37,,ISIC_0056707.JPG
break,html.Screen,4_36_1,2023-11-03T21:24:08.877Z,,0,,,NaN,,,,,,false,,,,140549.79999995232,140549.59999990463,,140549.19999980927,,140567.082,8,400,,,
break_continue,html.Screen,4_36_2,2023-11-03T21:24:08.878Z,,0,,,NaN,,,,,,false,,,,140550.09999990463,140550,,140549.89999985695,,140567.082,8,400,,,
sequence,flow.Sequence,4_36,2023-11-03T21:24:08.878Z,,0,,,2397.8729999999923,completion,,,,,false,,,,140550.29999995232,140550,138144.778,138145.79999995232,138152.127,140567.082,8,400,,,
trial,html.Screen,4_37_0,2023-11-03T21:24:11.312Z,,0,1,,2417.2179999523214,response,ISIC_4756979.JPG,6,ISIC_0032383.JPG,ISIC_0032383.JPG,false,0,keypress(z),500,142984.59999990463,142984.29999995232,140556.185,140550.5,140567.082,142988.349,8,400,38,,ISIC_4756979.JPG
break,html.Screen,4_37_1,2023-11-03T21:24:11.313Z,,0,,,NaN,,,,,,false,,,,142985.79999995232,142985.5,,142984.79999995232,,142988.349,8,400,,,
break_continue,html.Screen,4_37_2,2023-11-03T21:24:11.314Z,,0,,,NaN,,,,,,false,,,,142986.09999990463,142986,,142985.89999985695,,142988.349,8,400,,,
sequence,flow.Sequence,4_37,2023-11-03T21:24:11.314Z,,0,,,2418.918000000005,completion,,,,,false,,,,142986.29999995232,142986,140556.185,140550.39999985695,140567.082,142988.349,8,400,,,
trial,html.Screen,4_38_0,2023-11-03T21:24:14.886Z,,0,1,,3570.250999904645,response,ISIC_9819223.JPG,6,ISIC_0010810.JPG,ISIC_9819223.JPG,false,1,keypress(m),500,146558.69999980927,146558.59999990463,142974.658,142986.39999985695,142988.349,146562.274,8,400,39,,ISIC_0010810.JPG
break,html.Screen,4_38_1,2023-11-03T21:24:14.887Z,,0,,,NaN,,,,,,false,,,,146559.69999980927,146559.5,,146558.89999985695,,146562.274,8,400,,,
break_continue,html.Screen,4_38_2,2023-11-03T21:24:14.887Z,,0,,,NaN,,,,,,false,,,,146559.89999985695,146559.89999985695,,146559.69999980927,,146562.274,8,400,,,
sequence,flow.Sequence,4_38,2023-11-03T21:24:14.888Z,,0,,,3571.5509998569614,completion,,,,,false,,,,146560.09999990463,146559.89999985695,142974.658,142986.39999985695,142988.349,146562.274,8,400,,,
trial,html.Screen,4_39_0,2023-11-03T21:24:18.345Z,,0,1,,3454.725999999995,response,ISIC_9499787.JPG,5,ISIC_0005686.JPG,ISIC_0005686.JPG,false,0,keypress(z),500,150017.29999995232,150017,146553.678,146560.19999980927,146562.274,150021.255,8,400,40,,ISIC_9499787.JPG
break,html.Screen,4_39_1,2023-11-03T21:24:18.347Z,,0,,,NaN,,,,,,false,,,,150019.19999980927,150019.09999990463,,150017.59999990463,,150021.255,8,400,,,
break_continue,html.Screen,4_39_2,2023-11-03T21:24:18.347Z,,0,,,NaN,,,,,,false,,,,150019.69999980927,150019.59999990463,,150019.39999985695,,150021.255,8,400,,,
sequence,flow.Sequence,4_39,2023-11-03T21:24:18.347Z,,0,,,3457.3259999046277,completion,,,,,false,,,,150019.79999995232,150019.59999990463,146553.678,146560.19999980927,146562.274,150021.255,8,400,,,
trial,html.Screen,4_40_0,2023-11-03T21:24:24.766Z,,0,1,,6416.744999999995,response,ISIC_0031203.JPG,5,ISIC_4128129.JPG,ISIC_0031203.JPG,false,1,keypress(m),500,156438.19999980927,156438,150015.322,150019.89999985695,150021.255,156456.691,8,400,41,,ISIC_4128129.JPG
break,html.Screen,4_40_1,2023-11-03T21:24:24.766Z,,0,,,NaN,,,,,,false,,,,156439,156438.79999995232,,156438.29999995232,,156456.691,8,400,,,
break_continue,html.Screen,4_40_2,2023-11-03T21:24:24.767Z,,0,,,NaN,,,,,,false,,,,156439.19999980927,156439.09999990463,,156439,,156456.691,8,400,,,
sequence,flow.Sequence,4_40,2023-11-03T21:24:24.767Z,,0,,,6417.844999904628,completion,,,,,false,,,,156439.5,156439.09999990463,150015.322,150019.79999995232,150021.255,156456.691,8,400,,,
trial,html.Screen,4_41_0,2023-11-03T21:24:29.137Z,,0,1,,4352.908999904641,response,ISIC_9668514.JPG,5,ISIC_0002613.JPG,ISIC_9668514.JPG,false,1,keypress(m),500,160809.89999985695,160809.59999990463,156445.502,156439.59999990463,156456.691,160813.622,8,400,42,,ISIC_0002613.JPG
break,html.Screen,4_41_1,2023-11-03T21:24:29.139Z,,0,,,NaN,,,,,,false,,,,160811.59999990463,160811.29999995232,,160810.09999990463,,160813.622,8,400,,,
break_continue,html.Screen,4_41_2,2023-11-03T21:24:29.140Z,,0,,,NaN,,,,,,false,,,,160812.09999990463,160811.89999985695,,160811.69999980927,,160813.622,8,400,,,
sequence,flow.Sequence,4_41,2023-11-03T21:24:29.140Z,,0,,,4355.208999856957,completion,,,,,false,,,,160812.29999995232,160811.89999985695,156445.502,156439.5,156456.691,160813.622,8,400,,,
trial,html.Screen,4_42_0,2023-11-03T21:24:32.279Z,,0,1,,3137.6779999523133,response,ISIC_0033524.JPG,5,ISIC_0010770.JPG,ISIC_0033524.JPG,false,1,keypress(m),500,163951.5,163951.29999995232,160809.672,160812.5,160813.622,163955.074,8,400,43,,ISIC_0010770.JPG
break,html.Screen,4_42_1,2023-11-03T21:24:32.280Z,,0,,,NaN,,,,,,false,,,,163952.19999980927,163952,,163951.59999990463,,163955.074,8,400,,,
break_continue,html.Screen,4_42_2,2023-11-03T21:24:32.280Z,,0,,,NaN,,,,,,false,,,,163952.5,163952.39999985695,,163952.39999985695,,163955.074,8,400,,,
sequence,flow.Sequence,4_42,2023-11-03T21:24:32.280Z,,0,,,3138.777999856946,completion,,,,,false,,,,163952.69999980927,163952.39999985695,160809.672,160812.39999985695,160813.622,163955.074,8,400,,,
trial,html.Screen,4_43_0,2023-11-03T21:24:35.322Z,,0,1,,3039.125999809272,response,ISIC_0063151.JPG,5,ISIC_8848134.JPG,ISIC_8848134.JPG,false,0,keypress(z),500,166994.59999990463,166994.19999980927,163941.37,163952.79999995232,163955.074,166998.343,8,400,44,,ISIC_0063151.JPG
break,html.Screen,4_43_1,2023-11-03T21:24:35.324Z,,0,,,NaN,,,,,,false,,,,166996.09999990463,166995.89999985695,,166994.79999995232,,166998.343,8,400,,,
break_continue,html.Screen,4_43_2,2023-11-03T21:24:35.324Z,,0,,,NaN,,,,,,false,,,,166996.69999980927,166996.5,,166996.29999995232,,166998.343,8,400,,,
sequence,flow.Sequence,4_43,2023-11-03T21:24:35.325Z,,0,,,3041.4260000000068,completion,,,,,false,,,,166997,166996.5,163941.37,163952.69999980927,163955.074,166998.343,8,400,,,
trial,html.Screen,4_44_0,2023-11-03T21:24:38.896Z,,0,1,,3570.1570000000065,response,ISIC_0068727.JPG,5,ISIC_0046394.JPG,ISIC_0046394.JPG,false,0,keypress(z),500,170568.59999990463,170568.5,166987.215,166998.29999995232,166998.343,170571.946,8,400,45,,ISIC_0068727.JPG
break,html.Screen,4_44_1,2023-11-03T21:24:38.897Z,,0,,,NaN,,,,,,false,,,,170569,170568.89999985695,,170568.69999980927,,170571.946,8,400,,,
break_continue,html.Screen,4_44_2,2023-11-03T21:24:38.897Z,,0,,,NaN,,,,,,false,,,,170569.29999995232,170569.19999980927,,170569.19999980927,,170571.946,8,400,,,
sequence,flow.Sequence,4_44,2023-11-03T21:24:38.897Z,,0,,,3570.8569998092717,completion,,,,,false,,,,170569.29999995232,170569.19999980927,166987.215,166998.29999995232,166998.343,170571.946,8,400,,,
trial,html.Screen,4_45_0,2023-11-03T21:24:41.662Z,,0,1,,2762.4539998569526,response,ISIC_0009868.JPG,5,ISIC_2670619.JPG,ISIC_0009868.JPG,false,1,keypress(m),500,173334.5,173334.39999985695,170566.811,170569.39999985695,170571.946,173337.971,8,400,46,,ISIC_2670619.JPG
break,html.Screen,4_45_1,2023-11-03T21:24:41.663Z,,0,,,NaN,,,,,,false,,,,173335,173335,,173334.69999980927,,173337.971,8,400,,,
break_continue,html.Screen,4_45_2,2023-11-03T21:24:41.663Z,,0,,,NaN,,,,,,false,,,,173335.29999995232,173335.19999980927,,173335.09999990463,,173337.971,8,400,,,
sequence,flow.Sequence,4_45,2023-11-03T21:24:41.663Z,,0,,,2763.253999809269,completion,,,,,false,,,,173335.39999985695,173335.19999980927,170566.811,170569.39999985695,170571.946,173337.971,8,400,,,
trial,html.Screen,4_46_0,2023-11-03T21:24:44.187Z,,0,1,,2521.0290000000095,response,ISIC_7340112.JPG,6,ISIC_0068246.JPG,ISIC_0068246.JPG,false,0,keypress(z),500,175859.19999980927,175859,173333.517,173335.39999985695,173337.971,175862.496,8,400,47,,ISIC_7340112.JPG
break,html.Screen,4_46_1,2023-11-03T21:24:44.188Z,,0,,,NaN,,,,,,false,,,,175860.19999980927,175860.09999990463,,175859.29999995232,,175862.496,8,400,,,
break_continue,html.Screen,4_46_2,2023-11-03T21:24:44.188Z,,0,,,NaN,,,,,,false,,,,175860.5,175860.39999985695,,175860.39999985695,,175862.496,8,400,,,
sequence,flow.Sequence,4_46,2023-11-03T21:24:44.188Z,,0,,,2522.4289998569584,completion,,,,,false,,,,175860.59999990463,175860.39999985695,173333.517,173335.39999985695,173337.971,175862.496,8,400,,,
trial,html.Screen,4_47_0,2023-11-03T21:24:46.638Z,,0,1,,2447.5039999999863,response,ISIC_0055179.JPG,5,ISIC_4191202.JPG,ISIC_0055179.JPG,false,1,keypress(m),500,178310.19999980927,178310,175857.83,175860.59999990463,175862.496,178315.498,8,400,48,,ISIC_4191202.JPG
break,html.Screen,4_47_1,2023-11-03T21:24:46.638Z,,0,,,NaN,,,,,,false,,,,178310.69999980927,178310.59999990463,,178310.39999985695,,178315.498,8,400,,,
break_continue,html.Screen,4_47_2,2023-11-03T21:24:46.638Z,,0,,,NaN,,,,,,false,,,,178311,178310.89999985695,,178310.79999995232,,178315.498,8,400,,,
sequence,flow.Sequence,4_47,2023-11-03T21:24:46.639Z,,0,,,2448.403999856935,completion,,,,,false,,,,178311,178310.89999985695,175857.83,175860.59999990463,175862.496,178315.498,8,400,,,
trial,html.Screen,4_48_0,2023-11-03T21:24:49.153Z,,0,1,,2509.6019999046403,response,ISIC_6577632.JPG,4,ISIC_0032892.JPG,ISIC_0032892.JPG,false,0,keypress(z),500,180825.19999980927,180825.09999990463,178305.948,178311.09999990463,178315.498,180828.679,8,400,49,,ISIC_6577632.JPG
break,html.Screen,4_48_1,2023-11-03T21:24:49.154Z,,0,,,NaN,,,,,,false,,,,180826,180825.69999980927,,180825.29999995232,,180828.679,8,400,,,
break_continue,html.Screen,4_48_2,2023-11-03T21:24:49.154Z,,0,,,NaN,,,,,,false,,,,180826.39999985695,180826.29999995232,,180826.09999990463,,180828.679,8,400,,,
sequence,flow.Sequence,4_48,2023-11-03T21:24:49.154Z,,0,,,2510.801999952324,completion,,,,,false,,,,180826.59999990463,180826.29999995232,178305.948,178311.09999990463,178315.498,180828.679,8,400,,,
trial,html.Screen,4_49_0,2023-11-03T21:24:51.588Z,,0,1,,2431.420999904629,response,ISIC_4595741.JPG,5,ISIC_6404049.JPG,ISIC_6404049.JPG,false,0,keypress(z),500,183260.19999980927,183260.09999990463,180815.294,180826.69999980927,180828.679,183275.282,8,400,50,,ISIC_4595741.JPG
break,html.Screen,4_49_1,2023-11-03T21:25:01.592Z,,0,,,9999.367999999988,timeout,,,,,false,,,,193264.09999990463,193263.444,183264.185,183260.29999995232,183275.282,193274.65,8,400,,,
break_continue,html.Screen,4_49_2,2023-11-03T21:25:02.609Z,,0,,,1000.9499999046384,response,,,,,false,continue,keypress(Space),,194281.39999985695,194275.59999990463,193263.444,193264.19999980927,193274.65,194284.788,8,400,,,
sequence,flow.Sequence,4_49,2023-11-03T21:25:02.609Z,,0,,,13446.920999904629,completion,,,,,false,,,,194281.5,194275.59999990463,180815.294,180826.59999990463,180828.679,194284.788,8,400,,,
trial,html.Screen,4_50_0,2023-11-03T21:25:05.219Z,,0,2,,2606.2119999999995,response,ISIC_0778327.JPG,6,ISIC_0024694.JPG,ISIC_0024694.JPG,false,0,keypress(z),500,196891.09999990463,196891,194274.488,194281.5,194284.788,196906.16,8,400,1,,ISIC_0778327.JPG
break,html.Screen,4_50_1,2023-11-03T21:25:05.220Z,,0,,,NaN,,,,,,false,,,,196892.59999990463,196892.39999985695,,196891.29999995232,,196906.16,8,400,,,
break_continue,html.Screen,4_50_2,2023-11-03T21:25:05.220Z,,0,,,NaN,,,,,,false,,,,196892.89999985695,196892.79999995232,,196892.69999980927,,196906.16,8,400,,,
sequence,flow.Sequence,4_50,2023-11-03T21:25:05.221Z,,0,,,2608.011999952316,completion,,,,,false,,,,196893,196892.79999995232,194274.488,194281.5,194284.788,196906.16,8,400,,,
trial,html.Screen,4_51_0,2023-11-03T21:25:07.912Z,,0,2,,2677.639999952313,response,ISIC_2378211.JPG,5,ISIC_0069204.JPG,ISIC_0069204.JPG,false,0,keypress(z),500,199584.09999990463,199583.79999995232,196894.777,196893.09999990463,196906.16,199587.549,8,400,2,,ISIC_2378211.JPG
break,html.Screen,4_51_1,2023-11-03T21:25:07.912Z,,0,,,NaN,,,,,,false,,,,199584.59999990463,199584.5,,199584.19999980927,,199587.549,8,400,,,
break_continue,html.Screen,4_51_2,2023-11-03T21:25:07.912Z,,0,,,NaN,,,,,,false,,,,199584.89999985695,199584.79999995232,,199584.69999980927,,199587.549,8,400,,,
sequence,flow.Sequence,4_51,2023-11-03T21:25:07.913Z,,0,,,2678.639999952313,completion,,,,,false,,,,199585,199584.79999995232,196894.777,196893.09999990463,196906.16,199587.549,8,400,,,
trial,html.Screen,4_52_0,2023-11-03T21:25:10.461Z,,0,2,,2545.85099985695,response,ISIC_0030034.JPG,5,ISIC_0028173.JPG,ISIC_0028173.JPG,false,0,keypress(z),500,202133.59999990463,202133.39999985695,199581.162,199585.09999990463,199587.549,202137.323,8,400,3,,ISIC_0030034.JPG
break,html.Screen,4_52_1,2023-11-03T21:25:10.463Z,,0,,,NaN,,,,,,false,,,,202135.19999980927,202135,,202133.89999985695,,202137.323,8,400,,,
break_continue,html.Screen,4_52_2,2023-11-03T21:25:10.463Z,,0,,,NaN,,,,,,false,,,,202135.5,202135.39999985695,,202135.19999980927,,202137.323,8,400,,,
sequence,flow.Sequence,4_52,2023-11-03T21:25:10.463Z,,0,,,2547.85099985695,completion,,,,,false,,,,202135.69999980927,202135.39999985695,199581.162,199585.09999990463,199587.549,202137.323,8,400,,,
trial,html.Screen,4_53_0,2023-11-03T21:25:13.041Z,,0,2,,2576.176999999996,response,ISIC_4810485.JPG,5,ISIC_7062293.JPG,ISIC_4810485.JPG,false,1,keypress(m),500,204713.69999980927,204713.5,202129.291,202135.69999980927,202137.323,204717.205,8,400,4,,ISIC_7062293.JPG
break,html.Screen,4_53_1,2023-11-03T21:25:13.042Z,,0,,,NaN,,,,,,false,,,,204714.59999990463,204714.39999985695,,204713.79999995232,,204717.205,8,400,,,
break_continue,html.Screen,4_53_2,2023-11-03T21:25:13.042Z,,0,,,NaN,,,,,,false,,,,204714.79999995232,204714.69999980927,,204714.69999980927,,204717.205,8,400,,,
sequence,flow.Sequence,4_53,2023-11-03T21:25:13.043Z,,0,,,2577.376999809261,completion,,,,,false,,,,204715,204714.69999980927,202129.291,202135.69999980927,202137.323,204717.205,8,400,,,
trial,html.Screen,4_54_0,2023-11-03T21:25:15.687Z,,0,2,,2641.594999952329,response,ISIC_9934037.JPG,6,ISIC_9672482.JPG,ISIC_9672482.JPG,false,0,keypress(z),500,207358.89999985695,207358.79999995232,204703.822,204715.09999990463,204717.205,207362.611,8,400,5,,ISIC_9934037.JPG
break,html.Screen,4_54_1,2023-11-03T21:25:15.687Z,,0,,,NaN,,,,,,false,,,,207359.69999980927,207359.5,,207359.09999990463,,207362.611,8,400,,,
break_continue,html.Screen,4_54_2,2023-11-03T21:25:15.687Z,,0,,,NaN,,,,,,false,,,,207360,207359.89999985695,,207359.79999995232,,207362.611,8,400,,,
sequence,flow.Sequence,4_54,2023-11-03T21:25:15.688Z,,0,,,2642.6949998569617,completion,,,,,false,,,,207360,207359.89999985695,204703.822,204715.09999990463,204717.205,207362.611,8,400,,,
trial,html.Screen,4_55_0,2023-11-03T21:25:18.090Z,,0,2,,2399.688999952312,response,ISIC_3945116.JPG,6,ISIC_5281485.JPG,ISIC_5281485.JPG,false,0,keypress(z),500,209762.39999985695,209762.29999995232,207351.771,207360,207362.611,209765.734,8,400,6,,ISIC_3945116.JPG
break,html.Screen,4_55_1,2023-11-03T21:25:18.091Z,,0,,,NaN,,,,,,false,,,,209763.39999985695,209763.29999995232,,209762.5,,209765.734,8,400,,,
break_continue,html.Screen,4_55_2,2023-11-03T21:25:18.091Z,,0,,,NaN,,,,,,false,,,,209763.59999990463,209763.59999990463,,209763.5,,209765.734,8,400,,,
sequence,flow.Sequence,4_55,2023-11-03T21:25:18.091Z,,0,,,2400.988999904628,completion,,,,,false,,,,209763.69999980927,209763.59999990463,207351.771,207360,207362.611,209765.734,8,400,,,
trial,html.Screen,4_56_0,2023-11-03T21:25:20.562Z,,0,2,,2468.365999904636,response,ISIC_9066201.JPG,6,ISIC_0028692.JPG,ISIC_0028692.JPG,false,0,keypress(z),500,212234.39999985695,212234.09999990463,209758.425,209763.69999980927,209765.734,212238.121,8,400,7,,ISIC_9066201.JPG
break,html.Screen,4_56_1,2023-11-03T21:25:20.563Z,,0,,,NaN,,,,,,false,,,,212235.89999985695,212235.69999980927,,212234.59999990463,,212238.121,8,400,,,
break_continue,html.Screen,4_56_2,2023-11-03T21:25:20.564Z,,0,,,NaN,,,,,,false,,,,212236.29999995232,212236.09999990463,,212236,,212238.121,8,400,,,
sequence,flow.Sequence,4_56,2023-11-03T21:25:20.564Z,,0,,,2470.365999904636,completion,,,,,false,,,,212236.39999985695,212236.09999990463,209758.425,209763.69999980927,209765.734,212238.121,8,400,,,
trial,html.Screen,4_57_0,2023-11-03T21:25:22.949Z,,0,2,,2383.478999904619,response,ISIC_9987485.JPG,4,ISIC_0064307.JPG,ISIC_0064307.JPG,false,0,keypress(z),500,214621.89999985695,214621.59999990463,212226.108,212236.5,212238.121,214639.616,8,400,8,,ISIC_9987485.JPG
break,html.Screen,4_57_1,2023-11-03T21:25:22.950Z,,0,,,NaN,,,,,,false,,,,214622.59999990463,214622.39999985695,,214622.09999990463,,214639.616,8,400,,,
break_continue,html.Screen,4_57_2,2023-11-03T21:25:22.950Z,,0,,,NaN,,,,,,false,,,,214622.89999985695,214622.79999995232,,214622.69999980927,,214639.616,8,400,,,
sequence,flow.Sequence,4_57,2023-11-03T21:25:22.951Z,,0,,,2384.6789999523025,completion,,,,,false,,,,214623,214622.79999995232,212226.108,212236.5,212238.121,214639.616,8,400,,,
trial,html.Screen,4_58_0,2023-11-03T21:25:25.437Z,,0,2,,2469.9839999046235,response,ISIC_0046305.JPG,4,ISIC_0029998.JPG,ISIC_0029998.JPG,false,0,keypress(z),500,217109.79999995232,217109.59999990463,214628.496,214623.09999990463,214639.616,217113.676,8,400,9,,ISIC_0046305.JPG
break,html.Screen,4_58_1,2023-11-03T21:25:25.438Z,,0,,,NaN,,,,,,false,,,,217110.69999980927,217110.5,,217110,,217113.676,8,400,,,
break_continue,html.Screen,4_58_2,2023-11-03T21:25:25.439Z,,0,,,NaN,,,,,,false,,,,217111,217110.89999985695,,217110.79999995232,,217113.676,8,400,,,
sequence,flow.Sequence,4_58,2023-11-03T21:25:25.439Z,,0,,,2471.2839998569398,completion,,,,,false,,,,217111.19999980927,217110.89999985695,214628.496,214623.09999990463,214639.616,217113.676,8,400,,,
trial,html.Screen,4_59_0,2023-11-03T21:25:27.920Z,,0,2,,2478.6239999523095,response,ISIC_0013499.JPG,5,ISIC_0007622.JPG,ISIC_0007622.JPG,false,0,keypress(z),500,219592.5,219592.29999995232,217104.256,217111.29999995232,217113.676,219597.092,8,400,10,,ISIC_0013499.JPG
break,html.Screen,4_59_1,2023-11-03T21:25:27.922Z,,0,,,NaN,,,,,,false,,,,219593.89999985695,219593.69999980927,,219593.09999990463,,219597.092,8,400,,,
break_continue,html.Screen,4_59_2,2023-11-03T21:25:27.923Z,,0,,,NaN,,,,,,false,,,,219595,219594.79999995232,,219594.59999990463,,219597.092,8,400,,,
sequence,flow.Sequence,4_59,2023-11-03T21:25:27.923Z,,0,,,2481.1239999523095,completion,,,,,false,,,,219595.29999995232,219594.79999995232,217104.256,217111.29999995232,217113.676,219597.092,8,400,,,
trial,html.Screen,4_60_0,2023-11-03T21:25:30.325Z,,0,2,,2400.407999999996,response,ISIC_9445053.JPG,5,ISIC_9782083.JPG,ISIC_9782083.JPG,false,0,keypress(z),500,221997.89999985695,221997.5,219585.229,219595.59999990463,219597.092,222001.666,8,400,11,,ISIC_9445053.JPG
break,html.Screen,4_60_1,2023-11-03T21:25:30.327Z,,0,,,NaN,,,,,,false,,,,221999.5,221999.39999985695,,221998.09999990463,,222001.666,8,400,,,
break_continue,html.Screen,4_60_2,2023-11-03T21:25:30.327Z,,0,,,NaN,,,,,,false,,,,221999.89999985695,221999.79999995232,,221999.69999980927,,222001.666,8,400,,,
sequence,flow.Sequence,4_60,2023-11-03T21:25:30.328Z,,0,,,2402.707999952312,completion,,,,,false,,,,222000,221999.79999995232,219585.229,219595.5,219597.092,222001.666,8,400,,,
trial,html.Screen,4_61_0,2023-11-03T21:25:33.097Z,,0,2,,2768.0339998092677,response,ISIC_0070032.JPG,5,ISIC_0065728.JPG,ISIC_0065728.JPG,false,0,keypress(z),500,224769.89999985695,224769.69999980927,221997.15,222000.09999990463,222001.666,224773.663,8,400,12,,ISIC_0070032.JPG
break,html.Screen,4_61_1,2023-11-03T21:25:33.099Z,,0,,,NaN,,,,,,false,,,,224771.39999985695,224771.19999980927,,224770.09999990463,,224773.663,8,400,,,
break_continue,html.Screen,4_61_2,2023-11-03T21:25:33.099Z,,0,,,NaN,,,,,,false,,,,224771.79999995232,224771.69999980927,,224771.59999990463,,224773.663,8,400,,,
sequence,flow.Sequence,4_61,2023-11-03T21:25:33.100Z,,0,,,2770.0339998092677,completion,,,,,false,,,,224772,224771.69999980927,221997.15,222000.09999990463,222001.666,224773.663,8,400,,,
trial,html.Screen,4_62_0,2023-11-03T21:25:35.712Z,,0,2,,2611.0369998092647,response,ISIC_0025648.JPG,6,ISIC_1640823.JPG,ISIC_0025648.JPG,false,1,keypress(m),500,227384.89999985695,227384.69999980927,224764.56,224772.09999990463,224773.663,227388.407,8,400,13,,ISIC_1640823.JPG
break,html.Screen,4_62_1,2023-11-03T21:25:35.714Z,,0,,,NaN,,,,,,false,,,,227386.19999980927,227386,,227385.09999990463,,227388.407,8,400,,,
break_continue,html.Screen,4_62_2,2023-11-03T21:25:35.714Z,,0,,,NaN,,,,,,false,,,,227386.5,227386.39999985695,,227386.29999995232,,227388.407,8,400,,,
sequence,flow.Sequence,4_62,2023-11-03T21:25:35.714Z,,0,,,2612.7369998569484,completion,,,,,false,,,,227386.69999980927,227386.39999985695,224764.56,224772.09999990463,224773.663,227388.407,8,400,,,
trial,html.Screen,4_63_0,2023-11-03T21:25:38.911Z,,0,2,,3195.3929999523098,response,ISIC_0057048.JPG,5,ISIC_3430311.JPG,ISIC_0057048.JPG,false,1,keypress(m),500,230583.89999985695,230583.79999995232,227381.35,227386.79999995232,227388.407,230587.221,8,400,14,,ISIC_3430311.JPG
break,html.Screen,4_63_1,2023-11-03T21:25:38.912Z,,0,,,NaN,,,,,,false,,,,230584.79999995232,230584.19999980927,,230584,,230587.221,8,400,,,
break_continue,html.Screen,4_63_2,2023-11-03T21:25:38.912Z,,0,,,NaN,,,,,,false,,,,230584.89999985695,230584.89999985695,,230584.79999995232,,230587.221,8,400,,,
sequence,flow.Sequence,4_63,2023-11-03T21:25:38.913Z,,0,,,3196.4929998569423,completion,,,,,false,,,,230585,230584.89999985695,227381.35,227386.79999995232,227388.407,230587.221,8,400,,,
trial,html.Screen,4_64_0,2023-11-03T21:25:41.886Z,,0,2,,2971.078999952326,response,ISIC_0072441.JPG,5,ISIC_8306983.JPG,ISIC_0072441.JPG,false,1,keypress(m),500,233558.5,233558.29999995232,230573.751,230585,230587.221,233562.242,8,400,15,,ISIC_8306983.JPG
break,html.Screen,4_64_1,2023-11-03T21:25:41.888Z,,0,,,NaN,,,,,,false,,,,233560,233559.69999980927,,233558.69999980927,,233562.242,8,400,,,
break_continue,html.Screen,4_64_2,2023-11-03T21:25:41.888Z,,0,,,NaN,,,,,,false,,,,233560.5,233560.39999985695,,233560.19999980927,,233562.242,8,400,,,
sequence,flow.Sequence,4_64,2023-11-03T21:25:41.888Z,,0,,,2973.1789998569584,completion,,,,,false,,,,233560.69999980927,233560.39999985695,230573.751,230585,230587.221,233562.242,8,400,,,
trial,html.Screen,4_65_0,2023-11-03T21:25:44.546Z,,0,2,,2655.557999952318,response,ISIC_4000087.JPG,5,ISIC_0053801.JPG,ISIC_0053801.JPG,false,0,keypress(z),500,236218.09999990463,236217.79999995232,233556.896,233560.89999985695,233562.242,236221.998,8,400,16,,ISIC_4000087.JPG
break,html.Screen,4_65_1,2023-11-03T21:25:44.547Z,,0,,,NaN,,,,,,false,,,,236219.79999995232,236219.5,,236218.29999995232,,236221.998,8,400,,,
break_continue,html.Screen,4_65_2,2023-11-03T21:25:44.548Z,,0,,,NaN,,,,,,false,,,,236220.19999980927,236220.09999990463,,236220,,236221.998,8,400,,,
sequence,flow.Sequence,4_65,2023-11-03T21:25:44.548Z,,0,,,2657.857999904634,completion,,,,,false,,,,236220.39999985695,236220.09999990463,233556.896,233560.89999985695,233562.242,236221.998,8,400,,,
trial,html.Screen,4_66_0,2023-11-03T21:25:47.462Z,,0,2,,2912.701999809273,response,ISIC_9263990.JPG,4,ISIC_0034260.JPG,ISIC_0034260.JPG,false,0,keypress(z),500,239134.79999995232,239134.69999980927,236218.741,236220.5,236221.998,239139.334,8,400,17,,ISIC_9263990.JPG
break,html.Screen,4_66_1,2023-11-03T21:25:47.463Z,,0,,,NaN,,,,,,false,,,,239135.79999995232,239135.59999990463,,239135.09999990463,,239139.334,8,400,,,
break_continue,html.Screen,4_66_2,2023-11-03T21:25:47.465Z,,0,,,NaN,,,,,,false,,,,239137.09999990463,239136.89999985695,,239136.69999980927,,239139.334,8,400,,,
sequence,flow.Sequence,4_66,2023-11-03T21:25:47.465Z,,0,,,2914.9019998569565,completion,,,,,false,,,,239137.29999995232,239136.89999985695,236218.741,236220.5,236221.998,239139.334,8,400,,,
trial,html.Screen,4_67_0,2023-11-03T21:25:50.512Z,,0,2,,3044.4659999523137,response,ISIC_7412559.JPG,4,ISIC_3948754.JPG,ISIC_3948754.JPG,false,0,keypress(z),500,242184.19999980927,242183.79999995232,239134.859,239137.5,239139.334,242187.945,8,400,18,,ISIC_7412559.JPG
break,html.Screen,4_67_1,2023-11-03T21:25:50.514Z,,0,,,NaN,,,,,,false,,,,242186,242185.69999980927,,242184.39999985695,,242187.945,8,400,,,
break_continue,html.Screen,4_67_2,2023-11-03T21:25:50.514Z,,0,,,NaN,,,,,,false,,,,242186.59999990463,242186.39999985695,,242186.19999980927,,242187.945,8,400,,,
sequence,flow.Sequence,4_67,2023-11-03T21:25:50.514Z,,0,,,3047.0659998569463,completion,,,,,false,,,,242186.89999985695,242186.39999985695,239134.859,239137.5,239139.334,242187.945,8,400,,,
trial,html.Screen,4_68_0,2023-11-03T21:25:52.862Z,,0,2,,2345.954999856942,response,ISIC_3163773.JPG,5,ISIC_0067696.JPG,ISIC_0067696.JPG,false,0,keypress(z),500,244534.09999990463,244533.89999985695,242182.158,242187,242187.945,244548.971,8,400,19,,ISIC_3163773.JPG
break,html.Screen,4_68_1,2023-11-03T21:25:52.863Z,,0,,,NaN,,,,,,false,,,,244535.59999990463,244535.39999985695,,244534.29999995232,,244548.971,8,400,,,
break_continue,html.Screen,4_68_2,2023-11-03T21:25:52.863Z,,0,,,NaN,,,,,,false,,,,244536,244535.89999985695,,244535.79999995232,,244548.971,8,400,,,
sequence,flow.Sequence,4_68,2023-11-03T21:25:52.864Z,,0,,,2347.954999856942,completion,,,,,false,,,,244536.09999990463,244535.89999985695,242182.158,242186.89999985695,242187.945,244548.971,8,400,,,
trial,html.Screen,4_69_0,2023-11-03T21:25:55.345Z,,0,2,,2468.4289998569584,response,ISIC_7161069.JPG,5,ISIC_3312201.JPG,ISIC_3312201.JPG,false,0,keypress(z),500,247017.59999990463,247017.39999985695,244537.854,244536.19999980927,244548.971,247021.488,8,400,20,,ISIC_7161069.JPG
break,html.Screen,4_69_1,2023-11-03T21:25:55.347Z,,0,,,NaN,,,,,,false,,,,247019.39999985695,247019.19999980927,,247017.89999985695,,247021.488,8,400,,,
break_continue,html.Screen,4_69_2,2023-11-03T21:25:55.347Z,,0,,,NaN,,,,,,false,,,,247019.59999990463,247019.5,,247019.5,,247021.488,8,400,,,
sequence,flow.Sequence,4_69,2023-11-03T21:25:55.347Z,,0,,,2470.5290000000095,completion,,,,,false,,,,247019.79999995232,247019.5,244537.854,244536.19999980927,244548.971,247021.488,8,400,,,
trial,html.Screen,4_70_0,2023-11-03T21:25:57.942Z,,0,2,,2593.211999809253,response,ISIC_0032046.JPG,5,ISIC_4938994.JPG,ISIC_0032046.JPG,false,1,keypress(m),500,249614.89999985695,249614.69999980927,247016.21,247019.89999985695,247021.488,249618.675,8,400,21,,ISIC_4938994.JPG
break,html.Screen,4_70_1,2023-11-03T21:25:57.944Z,,0,,,NaN,,,,,,false,,,,249616.5,249616.29999995232,,249615.19999980927,,249618.675,8,400,,,
break_continue,html.Screen,4_70_2,2023-11-03T21:25:57.944Z,,0,,,NaN,,,,,,false,,,,249616.89999985695,249616.69999980927,,249616.59999990463,,249618.675,8,400,,,
sequence,flow.Sequence,4_70,2023-11-03T21:25:57.945Z,,0,,,2595.211999809253,completion,,,,,false,,,,249617.09999990463,249616.69999980927,247016.21,247019.79999995232,247021.488,249618.675,8,400,,,
trial,html.Screen,4_71_0,2023-11-03T21:26:00.395Z,,0,2,,2448.524999809277,response,ISIC_9626777.JPG,6,ISIC_0034263.JPG,ISIC_0034263.JPG,false,0,keypress(z),500,252067.39999985695,252067.19999980927,249615.345,249617.09999990463,249618.675,252082.906,8,400,22,,ISIC_9626777.JPG
break,html.Screen,4_71_1,2023-11-03T21:26:00.396Z,,0,,,NaN,,,,,,false,,,,252068.19999980927,252068,,252067.59999990463,,252082.906,8,400,,,
break_continue,html.Screen,4_71_2,2023-11-03T21:26:00.396Z,,0,,,NaN,,,,,,false,,,,252068.59999990463,252068.39999985695,,252068.39999985695,,252082.906,8,400,,,
sequence,flow.Sequence,4_71,2023-11-03T21:26:00.396Z,,0,,,2449.7249998569605,completion,,,,,false,,,,252068.69999980927,252068.39999985695,249615.345,249617.09999990463,249618.675,252082.906,8,400,,,
trial,html.Screen,4_72_0,2023-11-03T21:26:02.846Z,,0,2,,2435.6939999046444,response,ISIC_2967024.JPG,5,ISIC_0054728.JPG,ISIC_0054728.JPG,false,0,keypress(z),500,254518.89999985695,254518.59999990463,252071.825,252068.79999995232,252082.906,254539.145,8,400,23,,ISIC_2967024.JPG
break,html.Screen,4_72_1,2023-11-03T21:26:02.847Z,,0,,,NaN,,,,,,false,,,,254519.69999980927,254519.5,,254519.19999980927,,254539.145,8,400,,,
break_continue,html.Screen,4_72_2,2023-11-03T21:26:02.848Z,,0,,,NaN,,,,,,false,,,,254520.09999990463,254519.89999985695,,254519.79999995232,,254539.145,8,400,,,
sequence,flow.Sequence,4_72,2023-11-03T21:26:02.848Z,,0,,,2436.9939998569607,completion,,,,,false,,,,254520.19999980927,254519.89999985695,252071.825,252068.79999995232,252082.906,254539.145,8,400,,,
trial,html.Screen,4_73_0,2023-11-03T21:26:05.537Z,,0,2,,2670.6549999523268,response,ISIC_0064014.JPG,5,ISIC_7897925.JPG,ISIC_0064014.JPG,false,1,keypress(m),500,257210,257209.79999995232,254528.325,254520.29999995232,254539.145,257213.709,8,400,24,,ISIC_7897925.JPG
break,html.Screen,4_73_1,2023-11-03T21:26:05.539Z,,0,,,NaN,,,,,,false,,,,257211.5,257211.29999995232,,257210.19999980927,,257213.709,8,400,,,
break_continue,html.Screen,4_73_2,2023-11-03T21:26:05.539Z,,0,,,NaN,,,,,,false,,,,257211.79999995232,257211.79999995232,,257211.59999990463,,257213.709,8,400,,,
sequence,flow.Sequence,4_73,2023-11-03T21:26:05.539Z,,0,,,2672.6549999523268,completion,,,,,false,,,,257211.89999985695,257211.79999995232,254528.325,254520.29999995232,254539.145,257213.709,8,400,,,
trial,html.Screen,4_74_0,2023-11-03T21:26:08.022Z,,0,2,,2480.6909998569463,response,ISIC_0011921.JPG,5,ISIC_7533216.JPG,ISIC_0011921.JPG,false,1,keypress(m),500,259694.5,259694.39999985695,257206.642,257212.09999990463,257213.709,259697.867,8,400,25,,ISIC_7533216.JPG
break,html.Screen,4_74_1,2023-11-03T21:26:08.023Z,,0,,,NaN,,,,,,false,,,,259695.5,259695.29999995232,,259694.69999980927,,259697.867,8,400,,,
break_continue,html.Screen,4_74_2,2023-11-03T21:26:08.023Z,,0,,,NaN,,,,,,false,,,,259695.79999995232,259695.59999990463,,259695.5,,259697.867,8,400,,,
sequence,flow.Sequence,4_74,2023-11-03T21:26:08.023Z,,0,,,2481.89099990463,completion,,,,,false,,,,259695.79999995232,259695.59999990463,257206.642,257212.09999990463,257213.709,259697.867,8,400,,,
trial,html.Screen,4_75_0,2023-11-03T21:26:10.661Z,,0,2,,2635.432999952318,response,ISIC_1782911.JPG,5,ISIC_0059773.JPG,ISIC_0059773.JPG,false,0,keypress(z),500,262333.39999985695,262333.2999999523,259684.874,259695.89999985695,259697.867,262339.168,8,400,26,,ISIC_1782911.JPG
break,html.Screen,4_75_1,2023-11-03T21:26:10.661Z,,0,,,NaN,,,,,,false,,,,262334,262333.7999999523,,262333.5,,262339.168,8,400,,,
break_continue,html.Screen,4_75_2,2023-11-03T21:26:10.662Z,,0,,,NaN,,,,,,false,,,,262334.19999980927,262334.09999990463,,262334,,262339.168,8,400,,,
sequence,flow.Sequence,4_75,2023-11-03T21:26:10.662Z,,0,,,2636.232999904634,completion,,,,,false,,,,262334.19999980927,262334.09999990463,259684.874,259695.89999985695,259697.867,262339.168,8,400,,,
trial,html.Screen,4_76_0,2023-11-03T21:26:13.336Z,,0,2,,2669.331999999995,response,ISIC_0014926.JPG,5,ISIC_4529092.JPG,ISIC_0014926.JPG,false,1,keypress(m),500,265008.69999980927,265008.5,262323.765,262334.2999999523,262339.168,265012.895,8,400,27,,ISIC_4529092.JPG
break,html.Screen,4_76_1,2023-11-03T21:26:13.337Z,,0,,,NaN,,,,,,false,,,,265009.09999990463,265009,,265008.69999980927,,265012.895,8,400,,,
break_continue,html.Screen,4_76_2,2023-11-03T21:26:13.337Z,,0,,,NaN,,,,,,false,,,,265009.19999980927,265009.19999980927,,265009.09999990463,,265012.895,8,400,,,
sequence,flow.Sequence,4_76,2023-11-03T21:26:13.337Z,,0,,,2670.03199980926,completion,,,,,false,,,,265009.2999999523,265009.19999980927,262323.765,262334.2999999523,262339.168,265012.895,8,400,,,
trial,html.Screen,4_77_0,2023-11-03T21:26:15.786Z,,0,2,,2445.1049999999814,response,ISIC_2854610.JPG,5,ISIC_0027069.JPG,ISIC_0027069.JPG,false,0,keypress(z),500,267458.09999990463,267458,265000.532,265009.39999985695,265012.895,267461.699,8,400,28,,ISIC_2854610.JPG
break,html.Screen,4_77_1,2023-11-03T21:26:15.786Z,,0,,,NaN,,,,,,false,,,,267458.69999980927,267458.5,,267458.2999999523,,267461.699,8,400,,,
break_continue,html.Screen,4_77_2,2023-11-03T21:26:15.786Z,,0,,,NaN,,,,,,false,,,,267458.89999985695,267458.89999985695,,267458.89999985695,,267461.699,8,400,,,
sequence,flow.Sequence,4_77,2023-11-03T21:26:15.787Z,,0,,,2446.00499985693,completion,,,,,false,,,,267459,267458.89999985695,265000.532,265009.39999985695,265012.895,267461.699,8,400,,,
trial,html.Screen,4_78_0,2023-11-03T21:26:18.221Z,,0,2,,2431.3009999999776,response,ISIC_5888212.JPG,6,ISIC_0411688.JPG,ISIC_0411688.JPG,false,0,keypress(z),500,269893.19999980927,269893,267455.893,267459.19999980927,267461.699,269896.714,8,400,29,,ISIC_5888212.JPG
break,html.Screen,4_78_1,2023-11-03T21:26:18.221Z,,0,,,NaN,,,,,,false,,,,269893.89999985695,269893.7999999523,,269893.2999999523,,269896.714,8,400,,,
break_continue,html.Screen,4_78_2,2023-11-03T21:26:18.222Z,,0,,,NaN,,,,,,false,,,,269894.09999990463,269894.09999990463,,269894,,269896.714,8,400,,,
sequence,flow.Sequence,4_78,2023-11-03T21:26:18.222Z,,0,,,2432.40099990461,completion,,,,,false,,,,269894.19999980927,269894.09999990463,267455.893,267459.09999990463,267461.699,269896.714,8,400,,,
trial,html.Screen,4_79_0,2023-11-03T21:26:20.816Z,,0,2,,2591.286000000022,response,ISIC_6231450.JPG,6,ISIC_7544537.JPG,ISIC_6231450.JPG,false,1,keypress(m),500,272488.19999980927,272488,269889.093,269894.2999999523,269896.714,272491.628,8,400,30,,ISIC_7544537.JPG
break,html.Screen,4_79_1,2023-11-03T21:26:20.816Z,,0,,,NaN,,,,,,false,,,,272488.69999980927,272488.59999990463,,272488.2999999523,,272491.628,8,400,,,
break_continue,html.Screen,4_79_2,2023-11-03T21:26:20.816Z,,0,,,NaN,,,,,,false,,,,272488.89999985695,272488.89999985695,,272488.7999999523,,272491.628,8,400,,,
sequence,flow.Sequence,4_79,2023-11-03T21:26:20.817Z,,0,,,2592.1859998569707,completion,,,,,false,,,,272489.09999990463,272488.89999985695,269889.093,269894.19999980927,269896.714,272491.628,8,400,,,
trial,html.Screen,4_80_0,2023-11-03T21:26:23.746Z,,0,2,,2926.9719999046065,response,ISIC_0963531.JPG,6,ISIC_0069250.JPG,ISIC_0069250.JPG,false,0,keypress(z),500,275418.89999985695,275418.59999990463,272486.282,272489.09999990463,272491.628,275422.52,8,400,31,,ISIC_0963531.JPG
break,html.Screen,4_80_1,2023-11-03T21:26:23.748Z,,0,,,NaN,,,,,,false,,,,275420.39999985695,275420.09999990463,,275419,,275422.52,8,400,,,
break_continue,html.Screen,4_80_2,2023-11-03T21:26:23.748Z,,0,,,NaN,,,,,,false,,,,275420.69999980927,275420.59999990463,,275420.5,,275422.52,8,400,,,
sequence,flow.Sequence,4_80,2023-11-03T21:26:23.748Z,,0,,,2928.9719999046065,completion,,,,,false,,,,275420.89999985695,275420.59999990463,272486.282,272489.09999990463,272491.628,275422.52,8,400,,,
trial,html.Screen,4_81_0,2023-11-03T21:26:26.186Z,,0,2,,2435.87999985693,response,ISIC_0062235.JPG,6,ISIC_0056915.JPG,ISIC_0056915.JPG,false,0,keypress(z),500,277858.59999990463,277858.39999985695,275417.291,275421,275422.52,277862.399,8,400,32,,ISIC_0062235.JPG
break,html.Screen,4_81_1,2023-11-03T21:26:26.188Z,,0,,,NaN,,,,,,false,,,,277860.5,277860.19999980927,,277858.89999985695,,277862.399,8,400,,,
break_continue,html.Screen,4_81_2,2023-11-03T21:26:26.188Z,,0,,,NaN,,,,,,false,,,,277860.7999999523,277860.69999980927,,277860.5,,277862.399,8,400,,,
sequence,flow.Sequence,4_81,2023-11-03T21:26:26.188Z,,0,,,2438.1799998092465,completion,,,,,false,,,,277861,277860.69999980927,275417.291,275421,275422.52,277862.399,8,400,,,
trial,html.Screen,4_82_0,2023-11-03T21:26:29.136Z,,0,2,,2946.200999904657,response,ISIC_0067511.JPG,5,ISIC_1711134.JPG,ISIC_0067511.JPG,false,1,keypress(m),500,280808.7999999523,280808.59999990463,277848.997,277861.09999990463,277862.399,280812.653,8,400,33,,ISIC_1711134.JPG
break,html.Screen,4_82_1,2023-11-03T21:26:29.138Z,,0,,,NaN,,,,,,false,,,,280810.39999985695,280810.09999990463,,280809,,280812.653,8,400,,,
break_continue,html.Screen,4_82_2,2023-11-03T21:26:29.138Z,,0,,,NaN,,,,,,false,,,,280810.7999999523,280810.59999990463,,280810.59999990463,,280812.653,8,400,,,
sequence,flow.Sequence,4_82,2023-11-03T21:26:29.138Z,,0,,,2948.200999904657,completion,,,,,false,,,,280810.89999985695,280810.59999990463,277848.997,277861,277862.399,280812.653,8,400,,,
trial,html.Screen,4_83_0,2023-11-03T21:26:31.924Z,,0,2,,2784.146999952325,response,ISIC_9529971.JPG,5,ISIC_3256887.JPG,ISIC_3256887.JPG,false,0,keypress(z),500,283596.89999985695,283596.7999999523,280806.768,280811.09999990463,280812.653,283600.618,8,400,34,,ISIC_9529971.JPG
break,html.Screen,4_83_1,2023-11-03T21:26:31.926Z,,0,,,NaN,,,,,,false,,,,283598.39999985695,283598.2999999523,,283597.09999990463,,283600.618,8,400,,,
break_continue,html.Screen,4_83_2,2023-11-03T21:26:31.926Z,,0,,,NaN,,,,,,false,,,,283598.7999999523,283598.69999980927,,283598.59999990463,,283600.618,8,400,,,
sequence,flow.Sequence,4_83,2023-11-03T21:26:31.926Z,,0,,,2786.046999809274,completion,,,,,false,,,,283598.7999999523,283598.69999980927,280806.768,280811,280812.653,283600.618,8,400,,,
trial,html.Screen,4_84_0,2023-11-03T21:26:35.786Z,,0,2,,3857.6819999522995,response,ISIC_0010262.JPG,5,ISIC_0029071.JPG,ISIC_0029071.JPG,false,0,keypress(z),500,287458.59999990463,287458.2999999523,283588.396,283598.89999985695,283600.618,287462.492,8,400,35,,ISIC_0010262.JPG
break,html.Screen,4_84_1,2023-11-03T21:26:35.788Z,,0,,,NaN,,,,,,false,,,,287460.5,287460,,287458.7999999523,,287462.492,8,400,,,
break_continue,html.Screen,4_84_2,2023-11-03T21:26:35.789Z,,0,,,NaN,,,,,,false,,,,287461.09999990463,287460.7999999523,,287460.69999980927,,287462.492,8,400,,,
sequence,flow.Sequence,4_84,2023-11-03T21:26:35.789Z,,0,,,3860.1819999522995,completion,,,,,false,,,,287461.2999999523,287460.7999999523,283588.396,283598.89999985695,283600.618,287462.492,8,400,,,
trial,html.Screen,4_85_0,2023-11-03T21:26:38.236Z,,0,2,,2446.107999904605,response,ISIC_0028410.JPG,4,ISIC_5100319.JPG,ISIC_0028410.JPG,false,1,keypress(m),500,289908.7999999523,289908.59999990463,287452.166,287461.5,287462.492,289912.46,8,400,36,,ISIC_5100319.JPG
break,html.Screen,4_85_1,2023-11-03T21:26:38.237Z,,0,,,NaN,,,,,,false,,,,289909.89999985695,289909.19999980927,,289908.89999985695,,289912.46,8,400,,,
break_continue,html.Screen,4_85_2,2023-11-03T21:26:38.238Z,,0,,,NaN,,,,,,false,,,,289910.2999999523,289910.19999980927,,289910.09999990463,,289912.46,8,400,,,
sequence,flow.Sequence,4_85,2023-11-03T21:26:38.238Z,,0,,,2447.7079998092377,completion,,,,,false,,,,289910.39999985695,289910.19999980927,287452.166,287461.39999985695,287462.492,289912.46,8,400,,,
trial,html.Screen,4_86_0,2023-11-03T21:26:40.816Z,,0,2,,2576.239999809244,response,ISIC_5248948.JPG,4,ISIC_9900191.JPG,ISIC_9900191.JPG,false,0,keypress(z),500,292488.7999999523,292488.69999980927,289907.07,289910.5,289912.46,292492.805,8,400,37,,ISIC_5248948.JPG
break,html.Screen,4_86_1,2023-11-03T21:26:40.818Z,,0,,,NaN,,,,,,false,,,,292490.5,292490.39999985695,,292489,,292492.805,8,400,,,
break_continue,html.Screen,4_86_2,2023-11-03T21:26:40.818Z,,0,,,NaN,,,,,,false,,,,292491,292490.7999999523,,292490.69999980927,,292492.805,8,400,,,
sequence,flow.Sequence,4_86,2023-11-03T21:26:40.819Z,,0,,,2578.3399999522953,completion,,,,,false,,,,292491.19999980927,292490.7999999523,289907.07,289910.5,289912.46,292492.805,8,400,,,
trial,html.Screen,4_87_0,2023-11-03T21:26:43.317Z,,0,2,,2496.7949999046396,response,ISIC_4713698.JPG,5,ISIC_0029033.JPG,ISIC_0029033.JPG,false,0,keypress(z),500,294989.7999999523,294989.59999990463,292479.575,292491.39999985695,292492.805,295004.692,8,400,38,,ISIC_4713698.JPG
break,html.Screen,4_87_1,2023-11-03T21:26:43.318Z,,0,,,NaN,,,,,,false,,,,294990.89999985695,294990.59999990463,,294990,,295004.692,8,400,,,
break_continue,html.Screen,4_87_2,2023-11-03T21:26:43.319Z,,0,,,NaN,,,,,,false,,,,294991.2999999523,294991.19999980927,,294991.09999990463,,295004.692,8,400,,,
sequence,flow.Sequence,4_87,2023-11-03T21:26:43.319Z,,0,,,2498.394999809272,completion,,,,,false,,,,294991.39999985695,294991.19999980927,292479.575,292491.2999999523,292492.805,295004.692,8,400,,,
trial,html.Screen,4_88_0,2023-11-03T21:26:46.112Z,,0,2,,2779.4079999046517,response,ISIC_4998826.JPG,5,ISIC_7312551.JPG,ISIC_7312551.JPG,false,0,keypress(z),500,297784.19999980927,297784.09999990463,294993.486,294991.5,295004.692,297788.033,8,400,39,,ISIC_4998826.JPG
break,html.Screen,4_88_1,2023-11-03T21:26:46.113Z,,0,,,NaN,,,,,,false,,,,297785.89999985695,297785.69999980927,,297784.5,,297788.033,8,400,,,
break_continue,html.Screen,4_88_2,2023-11-03T21:26:46.114Z,,0,,,NaN,,,,,,false,,,,297786.19999980927,297786.09999990463,,297786,,297788.033,8,400,,,
sequence,flow.Sequence,4_88,2023-11-03T21:26:46.114Z,,0,,,2781.4079999046517,completion,,,,,false,,,,297786.39999985695,297786.09999990463,294993.486,294991.5,295004.692,297788.033,8,400,,,
trial,html.Screen,4_89_0,2023-11-03T21:26:48.740Z,,0,2,,2624.366999856953,response,ISIC_0348633.JPG,5,ISIC_0033812.JPG,ISIC_0033812.JPG,false,0,keypress(z),500,300412.59999990463,300412.39999985695,297775.409,297786.5,297788.033,300416.349,8,400,40,,ISIC_0348633.JPG
break,html.Screen,4_89_1,2023-11-03T21:26:48.742Z,,0,,,NaN,,,,,,false,,,,300414.19999980927,300413.89999985695,,300412.7999999523,,300416.349,8,400,,,
break_continue,html.Screen,4_89_2,2023-11-03T21:26:48.742Z,,0,,,NaN,,,,,,false,,,,300414.5,300414.39999985695,,300414.2999999523,,300416.349,8,400,,,
sequence,flow.Sequence,4_89,2023-11-03T21:26:48.742Z,,0,,,2626.366999856953,completion,,,,,false,,,,300414.59999990463,300414.39999985695,297775.409,297786.5,297788.033,300416.349,8,400,,,
trial,html.Screen,4_90_0,2023-11-03T21:26:51.512Z,,0,2,,2768.250999904645,response,ISIC_0028505.JPG,5,ISIC_6298726.JPG,ISIC_0028505.JPG,false,1,keypress(m),500,303185,303184.59999990463,300406.957,300414.7999999523,300416.349,303188.781,8,400,41,,ISIC_6298726.JPG
break,html.Screen,4_90_1,2023-11-03T21:26:51.514Z,,0,,,NaN,,,,,,false,,,,303186.59999990463,303186.39999985695,,303185.09999990463,,303188.781,8,400,,,
break_continue,html.Screen,4_90_2,2023-11-03T21:26:51.514Z,,0,,,NaN,,,,,,false,,,,303186.89999985695,303186.7999999523,,303186.69999980927,,303188.781,8,400,,,
sequence,flow.Sequence,4_90,2023-11-03T21:26:51.515Z,,0,,,2770.450999952329,completion,,,,,false,,,,303187.09999990463,303186.7999999523,300406.957,300414.7999999523,300416.349,303188.781,8,400,,,
trial,html.Screen,4_91_0,2023-11-03T21:26:54.237Z,,0,2,,2720.018999952299,response,ISIC_0010372.JPG,5,ISIC_8366864.JPG,ISIC_0010372.JPG,false,1,keypress(m),500,305909,305908.7999999523,303180.269,303187.19999980927,303188.781,305912.824,8,400,42,,ISIC_8366864.JPG
break,html.Screen,4_91_1,2023-11-03T21:26:54.238Z,,0,,,NaN,,,,,,false,,,,305910.5,305910.2999999523,,305909.19999980927,,305912.824,8,400,,,
break_continue,html.Screen,4_91_2,2023-11-03T21:26:54.238Z,,0,,,NaN,,,,,,false,,,,305910.89999985695,305910.69999980927,,305910.69999980927,,305912.824,8,400,,,
sequence,flow.Sequence,4_91,2023-11-03T21:26:54.239Z,,0,,,2721.918999809248,completion,,,,,false,,,,305911.09999990463,305910.69999980927,303180.269,303187.19999980927,303188.781,305912.824,8,400,,,
trial,html.Screen,4_92_0,2023-11-03T21:26:56.787Z,,0,2,,2546.1759999999776,response,ISIC_0028998.JPG,6,ISIC_0068886.JPG,ISIC_0068886.JPG,false,0,keypress(z),500,308459.2999999523,308459,305899.354,305911.19999980927,305912.824,308463.051,8,400,43,,ISIC_0028998.JPG
break,html.Screen,4_92_1,2023-11-03T21:26:56.788Z,,0,,,NaN,,,,,,false,,,,308460.7999999523,308460.59999990463,,308459.39999985695,,308463.051,8,400,,,
break_continue,html.Screen,4_92_2,2023-11-03T21:26:56.789Z,,0,,,NaN,,,,,,false,,,,308461.09999990463,308461,,308461,,308463.051,8,400,,,
sequence,flow.Sequence,4_92,2023-11-03T21:26:56.789Z,,0,,,2548.1759999999776,completion,,,,,false,,,,308461.2999999523,308461,305899.354,305911.09999990463,305912.824,308463.051,8,400,,,
trial,html.Screen,4_93_0,2023-11-03T21:26:59.464Z,,0,2,,2673.4490000000224,response,ISIC_0056603.JPG,6,ISIC_0004679.JPG,ISIC_0056603.JPG,false,1,keypress(m),500,311136.69999980927,311136.5,308455.011,308461.39999985695,308463.051,311140.506,8,400,44,,ISIC_0004679.JPG
break,html.Screen,4_93_1,2023-11-03T21:26:59.466Z,,0,,,NaN,,,,,,false,,,,311138.2999999523,311138.09999990463,,311136.89999985695,,311140.506,8,400,,,
break_continue,html.Screen,4_93_2,2023-11-03T21:26:59.466Z,,0,,,NaN,,,,,,false,,,,311138.69999980927,311138.5,,311138.39999985695,,311140.506,8,400,,,
sequence,flow.Sequence,4_93,2023-11-03T21:26:59.466Z,,0,,,2675.4490000000224,completion,,,,,false,,,,311138.89999985695,311138.5,308455.011,308461.39999985695,308463.051,311140.506,8,400,,,
trial,html.Screen,4_94_0,2023-11-03T21:27:01.918Z,,0,2,,2449.193999809271,response,ISIC_7680333.JPG,5,ISIC_0011234.JPG,ISIC_0011234.JPG,false,0,keypress(z),500,313590.09999990463,313589.69999980927,311136.727,311139,311140.506,313593.901,8,400,45,,ISIC_7680333.JPG
break,html.Screen,4_94_1,2023-11-03T21:27:01.919Z,,0,,,NaN,,,,,,false,,,,313591.2999999523,313591,,313590.2999999523,,313593.901,8,400,,,
break_continue,html.Screen,4_94_2,2023-11-03T21:27:01.919Z,,0,,,NaN,,,,,,false,,,,313591.59999990463,313591.5,,313591.2999999523,,313593.901,8,400,,,
sequence,flow.Sequence,4_94,2023-11-03T21:27:01.919Z,,0,,,2450.994000000006,completion,,,,,false,,,,313591.69999980927,313591.5,311136.727,311138.89999985695,311140.506,313593.901,8,400,,,
trial,html.Screen,4_95_0,2023-11-03T21:27:04.945Z,,0,2,,3023.69899990462,response,ISIC_0064284.JPG,5,ISIC_0032858.JPG,ISIC_0032858.JPG,false,0,keypress(z),500,316617.89999985695,316617.59999990463,313580.942,313591.7999999523,313593.901,316621.605,8,400,46,,ISIC_0064284.JPG
break,html.Screen,4_95_1,2023-11-03T21:27:04.947Z,,0,,,NaN,,,,,,false,,,,316619.59999990463,316619.39999985695,,316618.09999990463,,316621.605,8,400,,,
break_continue,html.Screen,4_95_2,2023-11-03T21:27:04.948Z,,0,,,NaN,,,,,,false,,,,316620.09999990463,316619.89999985695,,316619.7999999523,,316621.605,8,400,,,
sequence,flow.Sequence,4_95,2023-11-03T21:27:04.948Z,,0,,,3025.9989998569363,completion,,,,,false,,,,316620.2999999523,316619.89999985695,313580.942,313591.7999999523,313593.901,316621.605,8,400,,,
trial,html.Screen,4_96_0,2023-11-03T21:27:07.574Z,,0,2,,2624.5949998092838,response,ISIC_0004932.JPG,5,ISIC_0026659.JPG,ISIC_0004932.JPG,false,1,keypress(m),500,319246.2999999523,319246.19999980927,316610.118,316620.39999985695,316621.605,319250.09,8,400,47,,ISIC_0026659.JPG
break,html.Screen,4_96_1,2023-11-03T21:27:07.575Z,,0,,,NaN,,,,,,false,,,,319248,319247.69999980927,,319246.59999990463,,319250.09,8,400,,,
break_continue,html.Screen,4_96_2,2023-11-03T21:27:07.576Z,,0,,,NaN,,,,,,false,,,,319248.19999980927,319248.19999980927,,319248,,319250.09,8,400,,,
sequence,flow.Sequence,4_96,2023-11-03T21:27:07.576Z,,0,,,2626.5949998092838,completion,,,,,false,,,,319248.39999985695,319248.19999980927,316610.118,316620.39999985695,316621.605,319250.09,8,400,,,
trial,html.Screen,4_97_0,2023-11-03T21:27:10.186Z,,0,2,,2608.1099998092395,response,ISIC_3761253.JPG,5,ISIC_8535451.JPG,ISIC_3761253.JPG,false,1,keypress(m),500,321858.39999985695,321858.19999980927,319241.506,319248.5,319250.09,321862.184,8,400,48,,ISIC_8535451.JPG
break,html.Screen,4_97_1,2023-11-03T21:27:10.187Z,,0,,,NaN,,,,,,false,,,,321859.39999985695,321859,,321858.5,,321862.184,8,400,,,
break_continue,html.Screen,4_97_2,2023-11-03T21:27:10.187Z,,0,,,NaN,,,,,,false,,,,321860,321859.7999999523,,321859.59999990463,,321862.184,8,400,,,
sequence,flow.Sequence,4_97,2023-11-03T21:27:10.188Z,,0,,,2609.7099999522907,completion,,,,,false,,,,321860.19999980927,321859.7999999523,319241.506,319248.5,319250.09,321862.184,8,400,,,
trial,html.Screen,4_98_0,2023-11-03T21:27:12.813Z,,0,2,,2623.415999904624,response,ISIC_0034062.JPG,5,ISIC_0064517.JPG,ISIC_0034062.JPG,false,1,keypress(m),500,324485.89999985695,324485.59999990463,321856.269,321860.5,321862.184,324489.803,8,400,49,,ISIC_0064517.JPG
break,html.Screen,4_98_1,2023-11-03T21:27:12.814Z,,0,,,NaN,,,,,,false,,,,324486.89999985695,324486.59999990463,,324486.09999990463,,324489.803,8,400,,,
break_continue,html.Screen,4_98_2,2023-11-03T21:27:12.815Z,,0,,,NaN,,,,,,false,,,,324487.2999999523,324487.09999990463,,324487,,324489.803,8,400,,,
sequence,flow.Sequence,4_98,2023-11-03T21:27:12.815Z,,0,,,2624.915999904624,completion,,,,,false,,,,324487.39999985695,324487.09999990463,321856.269,321860.2999999523,321862.184,324489.803,8,400,,,
trial,html.Screen,4_99_0,2023-11-03T21:27:15.862Z,,0,2,,3043.996999952302,response,ISIC_0030373.JPG,4,ISIC_6208107.JPG,ISIC_0030373.JPG,false,1,keypress(m),500,327534.09999990463,327533.7999999523,324486.231,324487.5,324489.803,327540.189,8,400,50,,ISIC_6208107.JPG
break,html.Screen,4_99_1,2023-11-03T21:27:25.857Z,,0,,,9999.257999999973,timeout,,,,,false,,,,337529,337528.442,327531.206,327534.2999999523,327540.189,337539.447,8,400,,,
break_continue,html.Screen,4_99_2,2023-11-03T21:27:26.929Z,,0,,,1029.5530000000144,response,,,,,false,continue,keypress(Space),,338601.19999980927,338569,337528.442,337529.2999999523,337539.447,338604.928,8,400,,,
sequence,flow.Sequence,4_99,2023-11-03T21:27:26.929Z,,0,,,14079.196999999986,completion,,,,,false,,,,338601.39999985695,338569,324486.231,324487.5,324489.803,338604.928,8,400,,,
trial,html.Screen,4_100_0,2023-11-03T21:27:29.911Z,,0,3,,2978.0719999999856,response,ISIC_0015436.JPG,6,ISIC_0070032.JPG,ISIC_0070032.JPG,false,0,keypress(z),500,341583.2999999523,341583,338594.853,338601.5,338604.928,341587.169,8,400,1,,ISIC_0015436.JPG
break,html.Screen,4_100_1,2023-11-03T21:27:29.912Z,,0,,,NaN,,,,,,false,,,,341584.39999985695,341584.09999990463,,341583.39999985695,,341587.169,8,400,,,
break_continue,html.Screen,4_100_2,2023-11-03T21:27:29.912Z,,0,,,NaN,,,,,,false,,,,341584.7999999523,341584.69999980927,,341584.59999990463,,341587.169,8,400,,,
sequence,flow.Sequence,4_100,2023-11-03T21:27:29.912Z,,0,,,2979.7719998092507,completion,,,,,false,,,,341585,341584.69999980927,338594.853,338601.39999985695,338604.928,341587.169,8,400,,,
trial,html.Screen,4_101_0,2023-11-03T21:27:32.426Z,,0,3,,2511.2309998569544,response,ISIC_0029303.JPG,5,ISIC_0028543.JPG,ISIC_0028543.JPG,false,0,keypress(z),500,344098.59999990463,344098.39999985695,341579.627,341585.09999990463,341587.169,344102.363,8,400,2,,ISIC_0029303.JPG
break,html.Screen,4_101_1,2023-11-03T21:27:32.428Z,,0,,,NaN,,,,,,false,,,,344100.19999980927,344100,,344098.7999999523,,344102.363,8,400,,,
break_continue,html.Screen,4_101_2,2023-11-03T21:27:32.428Z,,0,,,NaN,,,,,,false,,,,344100.59999990463,344100.5,,344100.39999985695,,344102.363,8,400,,,
sequence,flow.Sequence,4_101,2023-11-03T21:27:32.428Z,,0,,,2513.3310000000056,completion,,,,,false,,,,344100.69999980927,344100.5,341579.627,341585,341587.169,344102.363,8,400,,,
trial,html.Screen,4_102_0,2023-11-03T21:27:34.942Z,,0,3,,2511.636999999988,response,ISIC_0053854.JPG,6,ISIC_1788979.JPG,ISIC_0053854.JPG,false,1,keypress(m),500,346614.19999980927,346614,344092.203,344100.89999985695,344102.363,346617.897,8,400,3,,ISIC_1788979.JPG
break,html.Screen,4_102_1,2023-11-03T21:27:34.943Z,,0,,,NaN,,,,,,false,,,,346615.69999980927,346615.5,,346614.2999999523,,346617.897,8,400,,,
break_continue,html.Screen,4_102_2,2023-11-03T21:27:34.944Z,,0,,,NaN,,,,,,false,,,,346616.19999980927,346616,,346615.89999985695,,346617.897,8,400,,,
sequence,flow.Sequence,4_102,2023-11-03T21:27:34.944Z,,0,,,2513.636999999988,completion,,,,,false,,,,346616.5,346616,344092.203,344100.7999999523,344102.363,346617.897,8,400,,,
trial,html.Screen,4_103_0,2023-11-03T21:27:37.426Z,,0,3,,2480.603000000003,response,ISIC_5615694.JPG,4,ISIC_6517663.JPG,ISIC_6517663.JPG,false,0,keypress(z),500,349098.69999980927,349098.5,346607.509,346616.5,346617.897,349102.388,8,400,4,,ISIC_5615694.JPG
break,html.Screen,4_103_1,2023-11-03T21:27:37.428Z,,0,,,NaN,,,,,,false,,,,349100.09999990463,349099.89999985695,,349098.89999985695,,349102.388,8,400,,,
break_continue,html.Screen,4_103_2,2023-11-03T21:27:37.428Z,,0,,,NaN,,,,,,false,,,,349100.5,349100.2999999523,,349100.2999999523,,349102.388,8,400,,,
sequence,flow.Sequence,4_103,2023-11-03T21:27:37.428Z,,0,,,2482.402999952319,completion,,,,,false,,,,349100.69999980927,349100.2999999523,346607.509,346616.5,346617.897,349102.388,8,400,,,
trial,html.Screen,4_104_0,2023-11-03T21:27:39.911Z,,0,3,,2481.411999952339,response,ISIC_1566428.JPG,5,ISIC_0025783.JPG,ISIC_1566428.JPG,false,1,keypress(m),500,351584,351583.7999999523,349098.098,349100.69999980927,349102.388,351597.29,8,400,5,,ISIC_0025783.JPG
break,html.Screen,4_104_1,2023-11-03T21:27:39.912Z,,0,,,NaN,,,,,,false,,,,351584.59999990463,351584.5,,351584.19999980927,,351597.29,8,400,,,
break_continue,html.Screen,4_104_2,2023-11-03T21:27:39.912Z,,0,,,NaN,,,,,,false,,,,351585,351584.89999985695,,351584.7999999523,,351597.29,8,400,,,
sequence,flow.Sequence,4_104,2023-11-03T21:27:39.913Z,,0,,,2482.5119998569717,completion,,,,,false,,,,351585,351584.89999985695,349098.098,349100.69999980927,349102.388,351597.29,8,400,,,
trial,html.Screen,4_105_0,2023-11-03T21:27:42.363Z,,0,3,,2438.10999985697,response,ISIC_4108397.JPG,6,ISIC_0025759.JPG,ISIC_0025759.JPG,false,0,keypress(z),500,354035.7999999523,354035.39999985695,351586.15,351585.19999980927,351597.29,354054.067,8,400,6,,ISIC_4108397.JPG
break,html.Screen,4_105_1,2023-11-03T21:27:42.364Z,,0,,,NaN,,,,,,false,,,,354036.59999990463,354036.39999985695,,354036,,354054.067,8,400,,,
break_continue,html.Screen,4_105_2,2023-11-03T21:27:42.364Z,,0,,,NaN,,,,,,false,,,,354036.89999985695,354036.7999999523,,354036.69999980927,,354054.067,8,400,,,
sequence,flow.Sequence,4_105,2023-11-03T21:27:42.365Z,,0,,,2439.5099999523372,completion,,,,,false,,,,354037.09999990463,354036.7999999523,351586.15,351585.19999980927,351597.29,354054.067,8,400,,,
trial,html.Screen,4_106_0,2023-11-03T21:27:45.198Z,,0,3,,2815.933000000019,response,ISIC_0055887.JPG,4,ISIC_0029182.JPG,ISIC_0055887.JPG,false,1,keypress(m),500,356870.09999990463,356870,354043.239,354037.19999980927,354054.067,356876.992,8,400,7,,ISIC_0029182.JPG
break,html.Screen,4_106_1,2023-11-03T21:27:45.199Z,,0,,,NaN,,,,,,false,,,,356871.39999985695,356871.2999999523,,356870.89999985695,,356876.992,8,400,,,
break_continue,html.Screen,4_106_2,2023-11-03T21:27:45.199Z,,0,,,NaN,,,,,,false,,,,356871.59999990463,356871.5,,356871.5,,356876.992,8,400,,,
sequence,flow.Sequence,4_106,2023-11-03T21:27:45.199Z,,0,,,2817.433000000019,completion,,,,,false,,,,356871.69999980927,356871.5,354043.239,354037.09999990463,354054.067,356876.992,8,400,,,
trial,html.Screen,4_107_0,2023-11-03T21:27:47.729Z,,0,3,,2524.5079999999725,response,ISIC_4715386.JPG,5,ISIC_6171084.JPG,ISIC_4715386.JPG,false,1,keypress(m),500,359401.69999980927,359401.5,356865.453,356871.7999999523,356876.992,359405.569,8,400,8,,ISIC_6171084.JPG
break,html.Screen,4_107_1,2023-11-03T21:27:47.731Z,,0,,,NaN,,,,,,false,,,,359403.19999980927,359403,,359402,,359405.569,8,400,,,
break_continue,html.Screen,4_107_2,2023-11-03T21:27:47.731Z,,0,,,NaN,,,,,,false,,,,359403.7999999523,359403.59999990463,,359403.39999985695,,359405.569,8,400,,,
sequence,flow.Sequence,4_107,2023-11-03T21:27:47.731Z,,0,,,2526.607999904605,completion,,,,,false,,,,359404,359403.59999990463,356865.453,356871.69999980927,356876.992,359405.569,8,400,,,
trial,html.Screen,4_108_0,2023-11-03T21:27:50.230Z,,0,3,,2496.830999856931,response,ISIC_3096949.JPG,5,ISIC_7630831.JPG,ISIC_3096949.JPG,false,1,keypress(m),500,361902.69999980927,361902.39999985695,359392.675,359404,359405.569,361906.514,8,400,9,,ISIC_7630831.JPG
break,html.Screen,4_108_1,2023-11-03T21:27:50.232Z,,0,,,NaN,,,,,,false,,,,361904.69999980927,361904.2999999523,,361903,,361906.514,8,400,,,
break_continue,html.Screen,4_108_2,2023-11-03T21:27:50.233Z,,0,,,NaN,,,,,,false,,,,361905.09999990463,361905,,361904.7999999523,,361906.514,8,400,,,
sequence,flow.Sequence,4_108,2023-11-03T21:27:50.233Z,,0,,,2499.4309999999823,completion,,,,,false,,,,361905.39999985695,361905,359392.675,359404,359405.569,361906.514,8,400,,,
trial,html.Screen,4_109_0,2023-11-03T21:27:52.737Z,,0,3,,2502.7859999522916,response,ISIC_0031021.JPG,5,ISIC_0009006.JPG,ISIC_0009006.JPG,false,0,keypress(z),500,364409.59999990463,364409.2999999523,361900.031,361905.5,361906.514,364413.412,8,400,10,,ISIC_0031021.JPG
break,html.Screen,4_109_1,2023-11-03T21:27:52.739Z,,0,,,NaN,,,,,,false,,,,364411.2999999523,364411.09999990463,,364409.7999999523,,364413.412,8,400,,,
break_continue,html.Screen,4_109_2,2023-11-03T21:27:52.739Z,,0,,,NaN,,,,,,false,,,,364411.69999980927,364411.59999990463,,364411.39999985695,,364413.412,8,400,,,
sequence,flow.Sequence,4_109,2023-11-03T21:27:52.739Z,,0,,,2505.085999904608,completion,,,,,false,,,,364411.89999985695,364411.59999990463,361900.031,361905.5,361906.514,364413.412,8,400,,,
trial,html.Screen,4_110_0,2023-11-03T21:27:55.350Z,,0,3,,2608.587999999989,response,ISIC_3105136.JPG,5,ISIC_0033122.JPG,ISIC_0033122.JPG,false,0,keypress(z),500,367022.2999999523,367022,364405.38,364412,364413.412,367026.055,8,400,11,,ISIC_3105136.JPG
break,html.Screen,4_110_1,2023-11-03T21:27:55.351Z,,0,,,NaN,,,,,,false,,,,367023.7999999523,367023.59999990463,,367022.5,,367026.055,8,400,,,
break_continue,html.Screen,4_110_2,2023-11-03T21:27:55.352Z,,0,,,NaN,,,,,,false,,,,367024.19999980927,367024,,367024,,367026.055,8,400,,,
sequence,flow.Sequence,4_110,2023-11-03T21:27:55.352Z,,0,,,2610.587999999989,completion,,,,,false,,,,367024.39999985695,367024,364405.38,364411.89999985695,364413.412,367026.055,8,400,,,
trial,html.Screen,4_111_0,2023-11-03T21:27:57.978Z,,0,3,,2624.445000000007,response,ISIC_7162343.JPG,5,ISIC_8694181.JPG,ISIC_7162343.JPG,false,1,keypress(m),500,369650.69999980927,369650.5,367021.168,367024.39999985695,367026.055,369654.405,8,400,12,,ISIC_8694181.JPG
break,html.Screen,4_111_1,2023-11-03T21:27:57.980Z,,0,,,NaN,,,,,,false,,,,369652.2999999523,369652,,369650.89999985695,,369654.405,8,400,,,
break_continue,html.Screen,4_111_2,2023-11-03T21:27:57.980Z,,0,,,NaN,,,,,,false,,,,369652.59999990463,369652.5,,369652.2999999523,,369654.405,8,400,,,
sequence,flow.Sequence,4_111,2023-11-03T21:27:57.980Z,,0,,,2626.445000000007,completion,,,,,false,,,,369652.7999999523,369652.5,367021.168,367024.39999985695,367026.055,369654.405,8,400,,,
trial,html.Screen,4_112_0,2023-11-03T21:28:00.526Z,,0,3,,2544.1949999046046,response,ISIC_8764464.JPG,5,ISIC_8626941.JPG,ISIC_8764464.JPG,false,1,keypress(m),500,372198.69999980927,372198.59999990463,369644.831,369652.7999999523,369654.405,372206.113,8,400,13,,ISIC_8626941.JPG
break,html.Screen,4_112_1,2023-11-03T21:28:00.527Z,,0,,,NaN,,,,,,false,,,,372199.59999990463,372199.2999999523,,372199,,372206.113,8,400,,,
break_continue,html.Screen,4_112_2,2023-11-03T21:28:00.527Z,,0,,,NaN,,,,,,false,,,,372200,372199.89999985695,,372199.7999999523,,372206.113,8,400,,,
sequence,flow.Sequence,4_112,2023-11-03T21:28:00.528Z,,0,,,2545.494999856921,completion,,,,,false,,,,372200.09999990463,372199.89999985695,369644.831,369652.7999999523,369654.405,372206.113,8,400,,,
trial,html.Screen,4_113_0,2023-11-03T21:28:03.011Z,,0,3,,2477.586999809253,response,ISIC_9204678.JPG,5,ISIC_6620748.JPG,ISIC_6620748.JPG,false,0,keypress(z),500,374684,374683.69999980927,372197.93,372200.19999980927,372206.113,374687.705,8,400,14,,ISIC_9204678.JPG
break,html.Screen,4_113_1,2023-11-03T21:28:03.013Z,,0,,,NaN,,,,,,false,,,,374685.5,374685.19999980927,,374684.09999990463,,374687.705,8,400,,,
break_continue,html.Screen,4_113_2,2023-11-03T21:28:03.013Z,,0,,,NaN,,,,,,false,,,,374685.7999999523,374685.69999980927,,374685.69999980927,,374687.705,8,400,,,
sequence,flow.Sequence,4_113,2023-11-03T21:28:03.013Z,,0,,,2479.586999809253,completion,,,,,false,,,,374686,374685.69999980927,372197.93,372200.19999980927,372206.113,374687.705,8,400,,,
trial,html.Screen,4_114_0,2023-11-03T21:28:05.496Z,,0,3,,2480.8949999046163,response,ISIC_7492530.JPG,4,ISIC_0011504.JPG,ISIC_0011504.JPG,false,0,keypress(z),500,377168.89999985695,377168.59999990463,374674.196,374686.09999990463,374687.705,377173.078,8,400,15,,ISIC_7492530.JPG
break,html.Screen,4_114_1,2023-11-03T21:28:05.498Z,,0,,,NaN,,,,,,false,,,,377170.69999980927,377170.39999985695,,377169.5,,377173.078,8,400,,,
break_continue,html.Screen,4_114_2,2023-11-03T21:28:05.500Z,,0,,,NaN,,,,,,false,,,,377172.39999985695,377172.2999999523,,377172.09999990463,,377173.078,8,400,,,
sequence,flow.Sequence,4_114,2023-11-03T21:28:05.500Z,,0,,,2484.5949999523,completion,,,,,false,,,,377172.59999990463,377172.2999999523,374674.196,374686.09999990463,374687.705,377173.078,8,400,,,
trial,html.Screen,4_115_0,2023-11-03T21:28:08.270Z,,0,3,,2769.4220000000205,response,ISIC_0032005.JPG,5,ISIC_0011728.JPG,ISIC_0011728.JPG,false,0,keypress(z),500,379942.7999999523,379942.5,377167.602,377172.69999980927,377173.078,379946.541,8,400,16,,ISIC_0032005.JPG
break,html.Screen,4_115_1,2023-11-03T21:28:08.272Z,,0,,,NaN,,,,,,false,,,,379944.2999999523,379944.09999990463,,379943,,379946.541,8,400,,,
break_continue,html.Screen,4_115_2,2023-11-03T21:28:08.272Z,,0,,,NaN,,,,,,false,,,,379944.69999980927,379944.59999990463,,379944.5,,379946.541,8,400,,,
sequence,flow.Sequence,4_115,2023-11-03T21:28:08.272Z,,0,,,2771.521999904653,completion,,,,,false,,,,379944.7999999523,379944.59999990463,377167.602,377172.69999980927,377173.078,379946.541,8,400,,,
trial,html.Screen,4_116_0,2023-11-03T21:28:10.818Z,,0,3,,2544.2589999522897,response,ISIC_0055311.JPG,5,ISIC_0062298.JPG,ISIC_0055311.JPG,false,1,keypress(m),500,382491,382490.7999999523,379942.675,379945,379946.541,382495.022,8,400,17,,ISIC_0062298.JPG
break,html.Screen,4_116_1,2023-11-03T21:28:10.820Z,,0,,,NaN,,,,,,false,,,,382492.5,382491.69999980927,,382491.19999980927,,382495.022,8,400,,,
break_continue,html.Screen,4_116_2,2023-11-03T21:28:10.820Z,,0,,,NaN,,,,,,false,,,,382493,382492.89999985695,,382492.69999980927,,382495.022,8,400,,,
sequence,flow.Sequence,4_116,2023-11-03T21:28:10.821Z,,0,,,2546.3589998569223,completion,,,,,false,,,,382493.09999990463,382492.89999985695,379942.675,379945,379946.541,382495.022,8,400,,,
trial,html.Screen,4_117_0,2023-11-03T21:28:13.222Z,,0,3,,2399.3779998569516,response,ISIC_8622365.JPG,5,ISIC_0063692.JPG,ISIC_0063692.JPG,false,0,keypress(z),500,384894.7999999523,384894.39999985695,382484.201,382493.19999980927,382495.022,384898.463,8,400,18,,ISIC_8622365.JPG
break,html.Screen,4_117_1,2023-11-03T21:28:13.224Z,,0,,,NaN,,,,,,false,,,,384896.2999999523,384896.09999990463,,384894.89999985695,,384898.463,8,400,,,
break_continue,html.Screen,4_117_2,2023-11-03T21:28:13.224Z,,0,,,NaN,,,,,,false,,,,384896.69999980927,384896.5,,384896.39999985695,,384898.463,8,400,,,
sequence,flow.Sequence,4_117,2023-11-03T21:28:13.224Z,,0,,,2401.478000000003,completion,,,,,false,,,,384896.7999999523,384896.5,382484.201,382493.19999980927,382495.022,384898.463,8,400,,,
trial,html.Screen,4_118_0,2023-11-03T21:28:15.754Z,,0,3,,2527.8369999523275,response,ISIC_0061581.JPG,4,ISIC_4715386.JPG,ISIC_0061581.JPG,false,1,keypress(m),500,387426.59999990463,387426.2999999523,384888.774,384896.89999985695,384898.463,387430.268,8,400,19,,ISIC_4715386.JPG
break,html.Screen,4_118_1,2023-11-03T21:28:15.756Z,,0,,,NaN,,,,,,false,,,,387428.19999980927,387428.09999990463,,387426.7999999523,,387430.268,8,400,,,
break_continue,html.Screen,4_118_2,2023-11-03T21:28:15.756Z,,0,,,NaN,,,,,,false,,,,387428.59999990463,387428.5,,387428.2999999523,,387430.268,8,400,,,
sequence,flow.Sequence,4_118,2023-11-03T21:28:15.756Z,,0,,,2530.037000000011,completion,,,,,false,,,,387428.69999980927,387428.5,384888.774,384896.89999985695,384898.463,387430.268,8,400,,,
trial,html.Screen,4_119_0,2023-11-03T21:28:18.186Z,,0,3,,2428.232000000018,response,ISIC_3556980.JPG,5,ISIC_1740912.JPG,ISIC_1740912.JPG,false,0,keypress(z),500,389858.7999999523,389858.5,387426.118,387428.89999985695,387430.268,389870.467,8,400,20,,ISIC_3556980.JPG
break,html.Screen,4_119_1,2023-11-03T21:28:18.187Z,,0,,,NaN,,,,,,false,,,,389859.69999980927,389859.39999985695,,389859,,389870.467,8,400,,,
break_continue,html.Screen,4_119_2,2023-11-03T21:28:18.187Z,,0,,,NaN,,,,,,false,,,,389859.89999985695,389859.89999985695,,389859.69999980927,,389870.467,8,400,,,
sequence,flow.Sequence,4_119,2023-11-03T21:28:18.188Z,,0,,,2429.631999856967,completion,,,,,false,,,,389860.09999990463,389859.89999985695,387426.118,387428.7999999523,387430.268,389870.467,8,400,,,
trial,html.Screen,4_120_0,2023-11-03T21:28:20.736Z,,0,3,,2537.6329999046284,response,ISIC_2171940.JPG,6,ISIC_7185036.JPG,ISIC_2171940.JPG,false,1,keypress(m),500,392408.2999999523,392408.09999990463,389858.107,389860.2999999523,389870.467,392423.529,8,400,21,,ISIC_7185036.JPG
break,html.Screen,4_120_1,2023-11-03T21:28:20.737Z,,0,,,NaN,,,,,,false,,,,392409.19999980927,392408.89999985695,,392408.5,,392423.529,8,400,,,
break_continue,html.Screen,4_120_2,2023-11-03T21:28:20.737Z,,0,,,NaN,,,,,,false,,,,392409.39999985695,392409.2999999523,,392409.19999980927,,392423.529,8,400,,,
sequence,flow.Sequence,4_120,2023-11-03T21:28:20.737Z,,0,,,2538.832999952312,completion,,,,,false,,,,392409.59999990463,392409.2999999523,389858.107,389860.19999980927,389870.467,392423.529,8,400,,,
trial,html.Screen,4_121_0,2023-11-03T21:28:23.300Z,,0,3,,2548.270999952336,response,ISIC_5476463.JPG,6,ISIC_3045939.JPG,ISIC_3045939.JPG,false,0,keypress(z),500,394972.09999990463,394971.7999999523,392412.507,392409.7999999523,392423.529,394987.136,8,400,22,,ISIC_5476463.JPG
break,html.Screen,4_121_1,2023-11-03T21:28:23.301Z,,0,,,NaN,,,,,,false,,,,394973.59999990463,394973.39999985695,,394972.19999980927,,394987.136,8,400,,,
break_continue,html.Screen,4_121_2,2023-11-03T21:28:23.302Z,,0,,,NaN,,,,,,false,,,,394974.09999990463,394973.89999985695,,394973.69999980927,,394987.136,8,400,,,
sequence,flow.Sequence,4_121,2023-11-03T21:28:23.302Z,,0,,,2550.3709998569684,completion,,,,,false,,,,394974.2999999523,394973.89999985695,392412.507,392409.69999980927,392423.529,394987.136,8,400,,,
trial,html.Screen,4_122_0,2023-11-03T21:28:26.169Z,,0,3,,2854.1639999523177,response,ISIC_0032622.JPG,6,ISIC_0029809.JPG,ISIC_0032622.JPG,false,1,keypress(m),500,397841.59999990463,397841.2999999523,394975.85,394974.39999985695,394987.136,397845.997,8,400,23,,ISIC_0029809.JPG
break,html.Screen,4_122_1,2023-11-03T21:28:26.170Z,,0,,,NaN,,,,,,false,,,,397842.89999985695,397842.5,,397841.89999985695,,397845.997,8,400,,,
break_continue,html.Screen,4_122_2,2023-11-03T21:28:26.171Z,,0,,,NaN,,,,,,false,,,,397844,397843.7999999523,,397843.5,,397845.997,8,400,,,
sequence,flow.Sequence,4_122,2023-11-03T21:28:26.172Z,,0,,,2856.6639999523177,completion,,,,,false,,,,397844.2999999523,397843.7999999523,394975.85,394974.39999985695,394987.136,397845.997,8,400,,,
trial,html.Screen,4_123_0,2023-11-03T21:28:29.102Z,,0,3,,2928.6029999046586,response,ISIC_0024226.JPG,4,ISIC_0054233.JPG,ISIC_0054233.JPG,false,0,keypress(z),500,400774.89999985695,400774.59999990463,397839.378,397844.5,397845.997,400778.764,8,400,24,,ISIC_0024226.JPG
break,html.Screen,4_123_1,2023-11-03T21:28:29.104Z,,0,,,NaN,,,,,,false,,,,400776.5,400776.39999985695,,400775,,400778.764,8,400,,,
break_continue,html.Screen,4_123_2,2023-11-03T21:28:29.105Z,,0,,,NaN,,,,,,false,,,,400777.09999990463,400777,,400776.69999980927,,400778.764,8,400,,,
sequence,flow.Sequence,4_123,2023-11-03T21:28:29.105Z,,0,,,2931.003000000026,completion,,,,,false,,,,400777.5,400777,397839.378,397844.39999985695,397845.997,400778.764,8,400,,,
trial,html.Screen,4_124_0,2023-11-03T21:28:31.587Z,,0,3,,2480.2359999999753,response,ISIC_2518896.JPG,4,ISIC_4644299.JPG,ISIC_2518896.JPG,false,1,keypress(m),500,403259.19999980927,403259,400769.577,400777.69999980927,400778.764,403263.092,8,400,25,,ISIC_4644299.JPG
break,html.Screen,4_124_1,2023-11-03T21:28:31.588Z,,0,,,NaN,,,,,,false,,,,403260.89999985695,403260.59999990463,,403259.5,,403263.092,8,400,,,
break_continue,html.Screen,4_124_2,2023-11-03T21:28:31.589Z,,0,,,NaN,,,,,,false,,,,403261.39999985695,403261.19999980927,,403261,,403263.092,8,400,,,
sequence,flow.Sequence,4_124,2023-11-03T21:28:31.589Z,,0,,,2482.4359998092405,completion,,,,,false,,,,403261.69999980927,403261.19999980927,400769.577,400777.69999980927,400778.764,403263.092,8,400,,,
trial,html.Screen,4_125_0,2023-11-03T21:28:34.012Z,,0,3,,2421.0079999046284,response,ISIC_0027591.JPG,4,ISIC_0053791.JPG,ISIC_0053791.JPG,false,0,keypress(z),500,405684.39999985695,405684.09999990463,403251.425,403262,403263.092,405688.435,8,400,26,,ISIC_0027591.JPG
break,html.Screen,4_125_1,2023-11-03T21:28:34.014Z,,0,,,NaN,,,,,,false,,,,405686.19999980927,405685.2999999523,,405684.59999990463,,405688.435,8,400,,,
break_continue,html.Screen,4_125_2,2023-11-03T21:28:34.014Z,,0,,,NaN,,,,,,false,,,,405686.7999999523,405686.59999990463,,405686.39999985695,,405688.435,8,400,,,
sequence,flow.Sequence,4_125,2023-11-03T21:28:34.015Z,,0,,,2423.5079999046284,completion,,,,,false,,,,405687.59999990463,405686.59999990463,403251.425,403261.89999985695,403263.092,405688.435,8,400,,,
