sender,sender_type,sender_id,timestamp,meta,,blockNo,condition,duration,ended_on,img_left,img_reveal,img_right,loser,practice,response,response_action,selection_duration,time_commit,time_end,time_render,time_run,time_show,time_switch,total_blocks,total_trials,trialNo,url,winner
informed_consent,html.Screen,0,2023-10-31T02:56:55.318Z,"{""labjs_version"":""20.2.4"",""labjs_build"":{""flavor"":""production"",""commit"":""f5b4a49f956347addd546a832a3327688c2c0fef""},""location"":""https://run.pavlovia.org/MurrayBennett/melanoma-2afc/?participant=66904&platform=sona"",""userAgent"":""Mozilla/5.0 (Windows NT 10.0; Win64; x64) AppleWebKit/537.36 (KHTML, like Gecko) Chrome/118.0.0.0 Safari/537.36"",""platform"":""Win32"",""language"":""en-US"",""locale"":""en-US"",""timeZone"":""America/Chicago"",""timezoneOffset"":300,""screen_width"":1280,""screen_height"":720,""scroll_width"":1280,""scroll_height"":585,""window_innerWidth"":1280,""window_innerHeight"":585,""devicePixelRatio"":1.5}",,,,19414.873000023843,response,,,,,,consent,click button,,22641.400000095367,22639.600000023842,3207.981,3208.7000000476837,3224.727,22680.353,,,,"{""participant"":""66904"",""platform"":""sona""}",
Welcome,html.Screen,1,2023-10-31T02:57:24.023Z,,,,irregular,28664.747000023843,response,,,,,,continue,click button,,51346.300000071526,51345.10000002384,22630.468,22641.700000047684,22680.353,51361.097,,,,,
trial,html.Screen,2_0_0,2023-10-31T02:57:28.796Z,,0,0,,4757.203000071524,response,ISIC_4679428.JPG,,ISIC_0061792.JPG,ISIC_0061792.JPG,true,0,keypress(z),500,56119.300000071526,56118.300000071526,51345.093,51346.5,51361.097,56126.251,1,6,1,,ISIC_4679428.JPG
sequence,flow.Sequence,2_0,2023-10-31T02:57:28.797Z,,0,,,4757.203000071524,completion,,,,,true,,,,56120.300000071526,56118.300000071526,51345.093,51346.5,51361.097,56126.251,1,6,,,
trial,html.Screen,2_1_0,2023-10-31T02:57:34.756Z,,0,0,,5952.849000023845,response,ISIC_5199497.JPG,,ISIC_0776486.JPG,ISIC_5199497.JPG,true,1,keypress(m),500,62079.700000047684,62079.10000002384,56109.834,56120.800000071526,56126.251,62086.612,1,6,2,,ISIC_0776486.JPG
sequence,flow.Sequence,2_1,2023-10-31T02:57:34.757Z,,0,,,5952.849000023845,completion,,,,,true,,,,62080.5,62079.10000002384,56109.834,56120.700000047684,56126.251,62086.612,1,6,,,
trial,html.Screen,2_2_0,2023-10-31T02:57:40.092Z,,0,0,,5328.488000023841,response,ISIC_8575776.JPG,,ISIC_2556187.JPG,ISIC_8575776.JPG,true,1,keypress(m),500,67415.80000007153,67415.10000002384,62070.166,62081.10000002384,62086.612,67427.945,1,6,3,,ISIC_2556187.JPG
sequence,flow.Sequence,2_2,2023-10-31T02:57:40.093Z,,0,,,5328.488000023841,completion,,,,,true,,,,67416.70000004768,67415.10000002384,62070.166,62080.90000009537,62086.612,67427.945,1,6,,,
trial,html.Screen,2_3_0,2023-10-31T02:57:44.232Z,,0,0,,4126.45500009536,response,ISIC_9238366.JPG,,ISIC_8141769.JPG,ISIC_9238366.JPG,true,1,keypress(m),500,71555.20000004768,71554.40000009537,67411.442,67417.20000004768,67427.945,71562.972,1,6,4,,ISIC_8141769.JPG
sequence,flow.Sequence,2_3,2023-10-31T02:57:44.233Z,,0,,,4126.45500009536,completion,,,,,true,,,,71556.20000004768,71554.40000009537,67411.442,67417.10000002384,67427.945,71562.972,1,6,,,
trial,html.Screen,2_4_0,2023-10-31T02:57:47.901Z,,0,0,,3661.2280000476894,response,ISIC_9959593.JPG,,ISIC_8949026.JPG,ISIC_8949026.JPG,true,0,keypress(z),500,75225,75224.20000004768,71546.365,71556.60000002384,71562.972,75243.15,1,6,5,,ISIC_9959593.JPG
sequence,flow.Sequence,2_4,2023-10-31T02:57:47.902Z,,0,,,3661.2280000476894,completion,,,,,true,,,,75225.90000009537,75224.20000004768,71546.365,71556.5,71562.972,75243.15,1,6,,,
trial,html.Screen,2_5_0,2023-10-31T02:57:53.927Z,,0,0,,6006.750000095373,response,ISIC_0460240.JPG,,ISIC_0010479.JPG,ISIC_0460240.JPG,true,1,keypress(m),500,81250.5,81249.90000009537,75226.659,75226.30000007153,75243.15,81267.435,1,6,6,,ISIC_0010479.JPG
sequence,flow.Sequence,2_5,2023-10-31T02:57:53.928Z,,0,,,6006.750000095373,completion,,,,,true,,,,81251.30000007153,81249.90000009537,75226.659,75226.20000004768,75243.15,81267.435,1,6,,,
loop,flow.Loop,2,2023-10-31T02:57:53.928Z,,,,,29888.803000095366,completion,,,,,true,,,,81251.90000009537,81249.90000009537,51345.093,51346.40000009537,51361.097,81267.435,1,6,,,
exp_instructions,html.Screen,3,2023-10-31T02:58:00.153Z,,,,,6206.565000000002,response,,,,,,continue,keypress(Space),,87476.30000007153,87474,81251.073,81252.30000007153,81267.435,87486.484,,,,,
trial,html.Screen,4_0_0,2023-10-31T02:58:06.885Z,,0,1,,6721.316000071529,response,ISIC_0072730.JPG,8,ISIC_0015132.JPG,ISIC_0072730.JPG,false,1,keypress(m),500,94208.40000009537,94207.80000007153,87477.504,87477,87486.484,94226.991,8,400,1,,ISIC_0015132.JPG
break,html.Screen,4_0_1,2023-10-31T02:58:06.887Z,,0,,,NaN,,,,,,false,,,,94211,94210.30000007153,,94208.90000009537,,94226.991,8,400,,,
break_continue,html.Screen,4_0_2,2023-10-31T02:58:06.889Z,,0,,,NaN,,,,,,false,,,,94212.20000004768,94211.80000007153,,94211.40000009537,,94226.991,8,400,,,
sequence,flow.Sequence,4_0,2023-10-31T02:58:06.889Z,,0,,,6725.316000071529,completion,,,,,false,,,,94212.60000002384,94211.80000007153,87477.504,87476.90000009537,87486.484,94226.991,8,400,,,
trial,html.Screen,4_1_0,2023-10-31T02:58:10.261Z,,0,1,,3356.709000047689,response,ISIC_7293697.JPG,11,ISIC_9529971.JPG,ISIC_7293697.JPG,false,1,keypress(m),500,97584.5,97583.70000004768,94210.232,94213,94226.991,97593.263,8,400,2,,ISIC_9529971.JPG
break,html.Screen,4_1_1,2023-10-31T02:58:10.263Z,,0,,,NaN,,,,,,false,,,,97586.20000004768,97585.70000004768,,97585,,97593.263,8,400,,,
break_continue,html.Screen,4_1_2,2023-10-31T02:58:10.264Z,,0,,,NaN,,,,,,false,,,,97587.20000004768,97586.80000007153,,97586.5,,97593.263,8,400,,,
sequence,flow.Sequence,4_1,2023-10-31T02:58:10.264Z,,0,,,3359.809000071531,completion,,,,,false,,,,97587.70000004768,97586.80000007153,94210.232,94212.90000009537,94226.991,97593.263,8,400,,,
trial,html.Screen,4_2_0,2023-10-31T02:58:14.254Z,,0,1,,3983.8370000238356,response,ISIC_0033394.JPG,8,ISIC_0024757.JPG,ISIC_0024757.JPG,false,0,keypress(z),500,101577.70000004768,101577.10000002384,97577.644,97588,97593.263,101592.433,8,400,3,,ISIC_0033394.JPG
break,html.Screen,4_2_1,2023-10-31T02:58:14.256Z,,0,,,NaN,,,,,,false,,,,101579.40000009537,101579,,101578.20000004768,,101592.433,8,400,,,
break_continue,html.Screen,4_2_2,2023-10-31T02:58:14.257Z,,0,,,NaN,,,,,,false,,,,101580.30000007153,101580.10000002384,,101579.70000004768,,101592.433,8,400,,,
sequence,flow.Sequence,4_2,2023-10-31T02:58:14.257Z,,0,,,3986.8370000238356,completion,,,,,false,,,,101580.70000004768,101580.10000002384,97577.644,97588,97593.263,101592.433,8,400,,,
trial,html.Screen,4_3_0,2023-10-31T02:58:17.800Z,,0,1,,3530.867000071521,response,ISIC_4591316.JPG,10,ISIC_0032072.JPG,ISIC_4591316.JPG,false,1,keypress(m),500,105124,105123.30000007153,101576.001,101580.90000009537,101592.433,105127.872,8,400,4,,ISIC_0032072.JPG
break,html.Screen,4_3_1,2023-10-31T02:58:17.802Z,,0,,,NaN,,,,,,false,,,,105125.70000004768,105125.30000007153,,105124.5,,105127.872,8,400,,,
break_continue,html.Screen,4_3_2,2023-10-31T02:58:17.803Z,,0,,,NaN,,,,,,false,,,,105126.70000004768,105126.40000009537,,105126,,105127.872,8,400,,,
sequence,flow.Sequence,4_3,2023-10-31T02:58:17.803Z,,0,,,3533.967000095363,completion,,,,,false,,,,105127,105126.40000009537,101576.001,101580.80000007153,101592.433,105127.872,8,400,,,
trial,html.Screen,4_4_0,2023-10-31T02:58:22.305Z,,0,1,,4499.928000071523,response,ISIC_3597812.JPG,7,ISIC_6996553.JPG,ISIC_3597812.JPG,false,1,keypress(m),500,109628.40000009537,109627.80000007153,105111.434,105127.40000009537,105127.872,109638.949,8,400,5,,ISIC_6996553.JPG
break,html.Screen,4_4_1,2023-10-31T02:58:22.307Z,,0,,,NaN,,,,,,false,,,,109630.20000004768,109629.70000004768,,109628.90000009537,,109638.949,8,400,,,
break_continue,html.Screen,4_4_2,2023-10-31T02:58:22.307Z,,0,,,NaN,,,,,,false,,,,109631.10000002384,109630.80000007153,,109630.5,,109638.949,8,400,,,
sequence,flow.Sequence,4_4,2023-10-31T02:58:22.308Z,,0,,,4502.928000071523,completion,,,,,false,,,,109631.5,109630.80000007153,105111.434,105127.30000007153,105127.872,109638.949,8,400,,,
trial,html.Screen,4_5_0,2023-10-31T02:58:26.494Z,,0,1,,4178.551000000007,response,ISIC_0002745.JPG,7,ISIC_9958062.JPG,ISIC_0002745.JPG,false,1,keypress(m),500,113817.90000009537,113817.5,109622.612,109631.80000007153,109638.949,113821.536,8,400,6,,ISIC_9958062.JPG
break,html.Screen,4_5_1,2023-10-31T02:58:26.496Z,,0,,,NaN,,,,,,false,,,,113819.40000009537,113819,,113818.30000007153,,113821.536,8,400,,,
break_continue,html.Screen,4_5_2,2023-10-31T02:58:26.497Z,,0,,,NaN,,,,,,false,,,,113820.20000004768,113820,,113819.70000004768,,113821.536,8,400,,,
sequence,flow.Sequence,4_5,2023-10-31T02:58:26.497Z,,0,,,4181.051000000007,completion,,,,,false,,,,113820.70000004768,113820,109622.612,109631.70000004768,109638.949,113821.536,8,400,,,
trial,html.Screen,4_6_0,2023-10-31T02:58:32.152Z,,0,1,,5653.864000095375,response,ISIC_6828892.JPG,7,ISIC_7184722.JPG,ISIC_6828892.JPG,false,1,keypress(m),500,119476.10000002384,119475.40000009537,113805.988,113820.90000009537,113821.536,119484.464,8,400,7,,ISIC_7184722.JPG
break,html.Screen,4_6_1,2023-10-31T02:58:32.154Z,,0,,,NaN,,,,,,false,,,,119477.90000009537,119477.5,,119476.60000002384,,119484.464,8,400,,,
break_continue,html.Screen,4_6_2,2023-10-31T02:58:32.155Z,,0,,,NaN,,,,,,false,,,,119478.80000007153,119478.5,,119478.20000004768,,119484.464,8,400,,,
sequence,flow.Sequence,4_6,2023-10-31T02:58:32.156Z,,0,,,5656.964000000007,completion,,,,,false,,,,119479.20000004768,119478.5,113805.988,113820.80000007153,113821.536,119484.464,8,400,,,
trial,html.Screen,4_7_0,2023-10-31T02:58:35.624Z,,0,1,,3462.535999999993,response,ISIC_0066399.JPG,9,ISIC_0012063.JPG,ISIC_0012063.JPG,false,0,keypress(z),500,122947.5,122947,119468.241,119479.40000009537,119484.464,122964.91,8,400,8,,ISIC_0066399.JPG
break,html.Screen,4_7_1,2023-10-31T02:58:35.626Z,,0,,,NaN,,,,,,false,,,,122949.30000007153,122948.80000007153,,122948.10000002384,,122964.91,8,400,,,
break_continue,html.Screen,4_7_2,2023-10-31T02:58:35.626Z,,0,,,NaN,,,,,,false,,,,122950.10000002384,122949.80000007153,,122949.60000002384,,122964.91,8,400,,,
sequence,flow.Sequence,4_7,2023-10-31T02:58:35.627Z,,0,,,3465.3360000715184,completion,,,,,false,,,,122950.30000007153,122949.80000007153,119468.241,119479.30000007153,119484.464,122964.91,8,400,,,
trial,html.Screen,4_8_0,2023-10-31T02:58:39.607Z,,0,1,,3964.79000004768,response,ISIC_8566006.JPG,9,ISIC_0033998.JPG,ISIC_0033998.JPG,false,0,keypress(z),500,126930.30000007153,126929.70000004768,122948.641,122950.70000004768,122964.91,126947.47,8,400,9,,ISIC_8566006.JPG
break,html.Screen,4_8_1,2023-10-31T02:58:39.608Z,,0,,,NaN,,,,,,false,,,,126932,126931.60000002384,,126930.70000004768,,126947.47,8,400,,,
break_continue,html.Screen,4_8_2,2023-10-31T02:58:39.609Z,,0,,,NaN,,,,,,false,,,,126932.90000009537,126932.60000002384,,126932.40000009537,,126947.47,8,400,,,
sequence,flow.Sequence,4_8,2023-10-31T02:58:39.610Z,,0,,,3967.6900000238384,completion,,,,,false,,,,126933.20000004768,126932.60000002384,122948.641,122950.60000002384,122964.91,126947.47,8,400,,,
trial,html.Screen,4_9_0,2023-10-31T02:58:44.912Z,,0,1,,5287.830000071524,response,ISIC_0031213.JPG,8,ISIC_2519121.JPG,ISIC_2519121.JPG,false,0,keypress(z),500,132236,132235.30000007153,126930.743,126933.5,126947.47,132245.595,8,400,10,,ISIC_0031213.JPG
break,html.Screen,4_9_1,2023-10-31T02:58:44.915Z,,0,,,NaN,,,,,,false,,,,132238.30000007153,132237.80000007153,,132236.80000007153,,132245.595,8,400,,,
break_continue,html.Screen,4_9_2,2023-10-31T02:58:44.916Z,,0,,,NaN,,,,,,false,,,,132239.30000007153,132239,,132238.60000002384,,132245.595,8,400,,,
sequence,flow.Sequence,4_9,2023-10-31T02:58:44.916Z,,0,,,5291.529999999999,completion,,,,,false,,,,132239.60000002384,132239,126930.743,126933.40000009537,126947.47,132245.595,8,400,,,
trial,html.Screen,4_10_0,2023-10-31T02:58:48.314Z,,0,1,,3391.0050000238407,response,ISIC_0033638.JPG,8,ISIC_0032747.JPG,ISIC_0033638.JPG,false,1,keypress(m),500,135637.20000004768,135636.60000002384,132228.678,132239.90000009537,132245.595,135647.953,8,400,11,,ISIC_0032747.JPG
break,html.Screen,4_10_1,2023-10-31T02:58:48.315Z,,0,,,NaN,,,,,,false,,,,135638.80000007153,135638.5,,135637.60000002384,,135647.953,8,400,,,
break_continue,html.Screen,4_10_2,2023-10-31T02:58:48.318Z,,0,,,NaN,,,,,,false,,,,135642,135641.70000004768,,135641.30000007153,,135647.953,8,400,,,
sequence,flow.Sequence,4_10,2023-10-31T02:58:48.319Z,,0,,,3396.1050000476826,completion,,,,,false,,,,135642.5,135641.70000004768,132228.678,132239.90000009537,132245.595,135647.953,8,400,,,
trial,html.Screen,4_11_0,2023-10-31T02:58:51.910Z,,0,1,,3585.1470000238332,response,ISIC_0066564.JPG,9,ISIC_8458843.JPG,ISIC_8458843.JPG,false,0,keypress(z),500,139233.60000002384,139233.10000002384,135631.477,135642.70000004768,135647.953,139252.433,8,400,12,,ISIC_0066564.JPG
break,html.Screen,4_11_1,2023-10-31T02:58:51.912Z,,0,,,NaN,,,,,,false,,,,139235.30000007153,139235,,139234.20000004768,,139252.433,8,400,,,
break_continue,html.Screen,4_11_2,2023-10-31T02:58:51.913Z,,0,,,NaN,,,,,,false,,,,139236.60000002384,139236.30000007153,,139235.90000009537,,139252.433,8,400,,,
sequence,flow.Sequence,4_11,2023-10-31T02:58:51.913Z,,0,,,3588.347000071517,completion,,,,,false,,,,139237,139236.30000007153,135631.477,135642.70000004768,135647.953,139252.433,8,400,,,
trial,html.Screen,4_12_0,2023-10-31T02:58:56.596Z,,0,1,,4666.56700000001,response,ISIC_0031184.JPG,11,ISIC_5922588.JPG,ISIC_0031184.JPG,false,1,keypress(m),500,143919.60000002384,143919,139233.439,139237.30000007153,139252.433,143936.963,8,400,13,,ISIC_5922588.JPG
break,html.Screen,4_12_1,2023-10-31T02:58:56.598Z,,0,,,NaN,,,,,,false,,,,143921.30000007153,143920.90000009537,,143920.10000002384,,143936.963,8,400,,,
break_continue,html.Screen,4_12_2,2023-10-31T02:58:56.599Z,,0,,,NaN,,,,,,false,,,,143922.30000007153,143921.80000007153,,143921.60000002384,,143936.963,8,400,,,
sequence,flow.Sequence,4_12,2023-10-31T02:58:56.599Z,,0,,,4669.367000071536,completion,,,,,false,,,,143922.60000002384,143921.80000007153,139233.439,139237.20000004768,139252.433,143936.963,8,400,,,
trial,html.Screen,4_13_0,2023-10-31T02:59:01.005Z,,0,1,,4390.637000023853,response,ISIC_7562175.JPG,12,ISIC_7180418.JPG,ISIC_7180418.JPG,false,0,keypress(z),500,148328.20000004768,148327.60000002384,143920.114,143922.90000009537,143936.963,148338.385,8,400,14,,ISIC_7562175.JPG
break,html.Screen,4_13_1,2023-10-31T02:59:01.006Z,,0,,,NaN,,,,,,false,,,,148329.90000009537,148329.5,,148328.70000004768,,148338.385,8,400,,,
break_continue,html.Screen,4_13_2,2023-10-31T02:59:01.007Z,,0,,,NaN,,,,,,false,,,,148330.90000009537,148330.5,,148330.20000004768,,148338.385,8,400,,,
sequence,flow.Sequence,4_13,2023-10-31T02:59:01.008Z,,0,,,4393.537000000011,completion,,,,,false,,,,148331.30000007153,148330.5,143920.114,143922.90000009537,143936.963,148338.385,8,400,,,
trial,html.Screen,4_14_0,2023-10-31T02:59:04.218Z,,0,1,,3202.515000095358,response,ISIC_7518798.JPG,12,ISIC_0070342.JPG,ISIC_7518798.JPG,false,1,keypress(m),500,151541.60000002384,151540.90000009537,148321.616,148331.70000004768,148338.385,151557.492,8,400,15,,ISIC_0070342.JPG
break,html.Screen,4_14_1,2023-10-31T02:59:04.220Z,,0,,,NaN,,,,,,false,,,,151543.30000007153,151542.80000007153,,151542.10000002384,,151557.492,8,400,,,
break_continue,html.Screen,4_14_2,2023-10-31T02:59:04.220Z,,0,,,NaN,,,,,,false,,,,151544,151543.80000007153,,151543.60000002384,,151557.492,8,400,,,
sequence,flow.Sequence,4_14,2023-10-31T02:59:04.221Z,,0,,,3205.4150000715163,completion,,,,,false,,,,151544.40000009537,151543.80000007153,148321.616,148331.5,148338.385,151557.492,8,400,,,
trial,html.Screen,4_15_0,2023-10-31T02:59:07.974Z,,0,1,,3739.5080000000016,response,ISIC_5204796.JPG,9,ISIC_8748070.JPG,ISIC_5204796.JPG,false,1,keypress(m),500,155297.60000002384,155297,151540.97,151544.70000004768,151557.492,155306.711,8,400,16,,ISIC_8748070.JPG
break,html.Screen,4_15_1,2023-10-31T02:59:07.976Z,,0,,,NaN,,,,,,false,,,,155299.30000007153,155298.90000009537,,155298.10000002384,,155306.711,8,400,,,
break_continue,html.Screen,4_15_2,2023-10-31T02:59:07.977Z,,0,,,NaN,,,,,,false,,,,155300.20000004768,155299.90000009537,,155299.60000002384,,155306.711,8,400,,,
sequence,flow.Sequence,4_15,2023-10-31T02:59:07.977Z,,0,,,3742.408000095369,completion,,,,,false,,,,155300.5,155299.90000009537,151540.97,151544.70000004768,151557.492,155306.711,8,400,,,
trial,html.Screen,4_16_0,2023-10-31T02:59:11.215Z,,0,1,,3231.689000095357,response,ISIC_5732374.JPG,7,ISIC_1369967.JPG,ISIC_5732374.JPG,false,1,keypress(m),500,158539,158538.40000009537,155290.365,155300.80000007153,155306.711,158554.348,8,400,17,,ISIC_1369967.JPG
break,html.Screen,4_16_1,2023-10-31T02:59:11.217Z,,0,,,NaN,,,,,,false,,,,158540.70000004768,158540.30000007153,,158539.5,,158554.348,8,400,,,
break_continue,html.Screen,4_16_2,2023-10-31T02:59:11.218Z,,0,,,NaN,,,,,,false,,,,158541.60000002384,158541.30000007153,,158541,,158554.348,8,400,,,
sequence,flow.Sequence,4_16,2023-10-31T02:59:11.219Z,,0,,,3234.5890000715153,completion,,,,,false,,,,158542.20000004768,158541.30000007153,155290.365,155300.70000004768,155306.711,158554.348,8,400,,,
trial,html.Screen,4_17_0,2023-10-31T02:59:15.047Z,,0,1,,3816.0520000953693,response,ISIC_0001138.JPG,9,ISIC_3716686.JPG,ISIC_3716686.JPG,false,0,keypress(z),500,162370.90000009537,162370.40000009537,158537.414,158542.5,158554.348,162378.627,8,400,18,,ISIC_0001138.JPG
break,html.Screen,4_17_1,2023-10-31T02:59:15.049Z,,0,,,NaN,,,,,,false,,,,162372.60000002384,162372.20000004768,,162371.40000009537,,162378.627,8,400,,,
break_continue,html.Screen,4_17_2,2023-10-31T02:59:15.050Z,,0,,,NaN,,,,,,false,,,,162373.40000009537,162373.20000004768,,162372.90000009537,,162378.627,8,400,,,
sequence,flow.Sequence,4_17,2023-10-31T02:59:15.050Z,,0,,,3818.8520000476856,completion,,,,,false,,,,162373.80000007153,162373.20000004768,158537.414,158542.40000009537,158554.348,162378.627,8,400,,,
trial,html.Screen,4_18_0,2023-10-31T02:59:19.763Z,,0,1,,4707.673000071518,response,ISIC_4534608.JPG,12,ISIC_0070250.JPG,ISIC_4534608.JPG,false,1,keypress(m),500,167087,167086.30000007153,162359.989,162374.10000002384,162378.627,167099.01,8,400,19,,ISIC_0070250.JPG
break,html.Screen,4_18_1,2023-10-31T02:59:19.765Z,,0,,,NaN,,,,,,false,,,,167088.70000004768,167088.30000007153,,167087.5,,167099.01,8,400,,,
break_continue,html.Screen,4_18_2,2023-10-31T02:59:19.766Z,,0,,,NaN,,,,,,false,,,,167089.5,167089.30000007153,,167089,,167099.01,8,400,,,
sequence,flow.Sequence,4_18,2023-10-31T02:59:19.766Z,,0,,,4710.673000071518,completion,,,,,false,,,,167090,167089.30000007153,162359.989,162374,162378.627,167099.01,8,400,,,
trial,html.Screen,4_19_0,2023-10-31T02:59:25.870Z,,0,1,,6094.390000095358,response,ISIC_5123817.JPG,14,ISIC_6952773.JPG,ISIC_6952773.JPG,false,0,keypress(z),500,173194.10000002384,173193.40000009537,167079.929,167090.20000004768,167099.01,173210.762,8,400,20,,ISIC_5123817.JPG
break,html.Screen,4_19_1,2023-10-31T02:59:25.872Z,,0,,,NaN,,,,,,false,,,,173195.80000007153,173195.40000009537,,173194.5,,173210.762,8,400,,,
break_continue,html.Screen,4_19_2,2023-10-31T02:59:25.873Z,,0,,,NaN,,,,,,false,,,,173196.70000004768,173196.40000009537,,173196,,173210.762,8,400,,,
sequence,flow.Sequence,4_19,2023-10-31T02:59:25.873Z,,0,,,6097.390000095358,completion,,,,,false,,,,173197.10000002384,173196.40000009537,167079.929,167090.20000004768,167099.01,173210.762,8,400,,,
trial,html.Screen,4_20_0,2023-10-31T02:59:30.295Z,,0,1,,4407.6380000953795,response,ISIC_7181296.JPG,7,ISIC_0072271.JPG,ISIC_0072271.JPG,false,0,keypress(z),500,177619,177618.40000009537,173194.332,173197.30000007153,173210.762,177636.143,8,400,21,,ISIC_7181296.JPG
break,html.Screen,4_20_1,2023-10-31T02:59:30.297Z,,0,,,NaN,,,,,,false,,,,177620.80000007153,177620.30000007153,,177619.60000002384,,177636.143,8,400,,,
break_continue,html.Screen,4_20_2,2023-10-31T02:59:30.298Z,,0,,,NaN,,,,,,false,,,,177621.80000007153,177621.40000009537,,177621,,177636.143,8,400,,,
sequence,flow.Sequence,4_20,2023-10-31T02:59:30.299Z,,0,,,4410.6380000953795,completion,,,,,false,,,,177622.10000002384,177621.40000009537,173194.332,173197.30000007153,173210.762,177636.143,8,400,,,
trial,html.Screen,4_21_0,2023-10-31T02:59:34.256Z,,0,1,,3942.6570000715146,response,ISIC_6616542.JPG,12,ISIC_8170849.JPG,ISIC_8170849.JPG,false,0,keypress(z),500,181579.40000009537,181578.80000007153,177617.479,177622.5,177636.143,181582.974,8,400,22,,ISIC_6616542.JPG
break,html.Screen,4_21_1,2023-10-31T02:59:34.258Z,,0,,,NaN,,,,,,false,,,,181581.10000002384,181580.70000004768,,181580,,181582.974,8,400,,,
break_continue,html.Screen,4_21_2,2023-10-31T02:59:34.259Z,,0,,,NaN,,,,,,false,,,,181582,181581.70000004768,,181581.40000009537,,181582.974,8,400,,,
sequence,flow.Sequence,4_21,2023-10-31T02:59:34.259Z,,0,,,3945.557000047673,completion,,,,,false,,,,181582.40000009537,181581.70000004768,177617.479,177622.30000007153,177636.143,181582.974,8,400,,,
trial,html.Screen,4_22_0,2023-10-31T02:59:37.722Z,,0,1,,3461.326000071538,response,ISIC_0032875.JPG,11,ISIC_0070585.JPG,ISIC_0032875.JPG,false,1,keypress(m),500,185044.90000009537,185044.30000007153,181566.514,181583,181582.974,185051.832,8,400,23,,ISIC_0070585.JPG
break,html.Screen,4_22_1,2023-10-31T02:59:37.723Z,,0,,,NaN,,,,,,false,,,,185046.80000007153,185046.30000007153,,185045.5,,185051.832,8,400,,,
break_continue,html.Screen,4_22_2,2023-10-31T02:59:37.725Z,,0,,,NaN,,,,,,false,,,,185047.90000009537,185047.70000004768,,185047.30000007153,,185051.832,8,400,,,
sequence,flow.Sequence,4_22,2023-10-31T02:59:37.725Z,,0,,,3464.7260000476963,completion,,,,,false,,,,185048.30000007153,185047.70000004768,181566.514,181582.80000007153,181582.974,185051.832,8,400,,,
trial,html.Screen,4_23_0,2023-10-31T02:59:42.786Z,,0,1,,5056.868000047689,response,ISIC_0046422.JPG,9,ISIC_6990973.JPG,ISIC_6990973.JPG,false,0,keypress(z),500,190109.40000009537,190108.70000004768,185032.686,185048.60000002384,185051.832,190124.157,8,400,24,,ISIC_0046422.JPG
break,html.Screen,4_23_1,2023-10-31T02:59:42.788Z,,0,,,NaN,,,,,,false,,,,190111.30000007153,190110.80000007153,,190110.10000002384,,190124.157,8,400,,,
break_continue,html.Screen,4_23_2,2023-10-31T02:59:42.789Z,,0,,,NaN,,,,,,false,,,,190112,190111.80000007153,,190111.60000002384,,190124.157,8,400,,,
sequence,flow.Sequence,4_23,2023-10-31T02:59:42.789Z,,0,,,5059.968000071531,completion,,,,,false,,,,190112.40000009537,190111.80000007153,185032.686,185048.5,185051.832,190124.157,8,400,,,
trial,html.Screen,4_24_0,2023-10-31T02:59:46.734Z,,0,1,,3932.4430000238353,response,ISIC_7945429.JPG,8,ISIC_0064557.JPG,ISIC_7945429.JPG,false,1,keypress(m),500,194057.20000004768,194056.60000002384,190107.752,190112.70000004768,190124.157,194092.682,8,400,25,,ISIC_0064557.JPG
break,html.Screen,4_24_1,2023-10-31T02:59:46.735Z,,0,,,NaN,,,,,,false,,,,194058.90000009537,194058.5,,194057.60000002384,,194092.682,8,400,,,
break_continue,html.Screen,4_24_2,2023-10-31T02:59:46.736Z,,0,,,NaN,,,,,,false,,,,194059.70000004768,194059.40000009537,,194059.20000004768,,194092.682,8,400,,,
sequence,flow.Sequence,4_24,2023-10-31T02:59:46.737Z,,0,,,3935.243000095361,completion,,,,,false,,,,194060.10000002384,194059.40000009537,190107.752,190112.60000002384,190124.157,194092.682,8,400,,,
trial,html.Screen,4_25_0,2023-10-31T02:59:51.271Z,,0,1,,4501.018000047683,response,ISIC_9556334.JPG,10,ISIC_0033578.JPG,ISIC_0033578.JPG,false,0,keypress(z),500,198594.30000007153,198593.70000004768,194076.23,194060.40000009537,194092.682,198601.565,8,400,26,,ISIC_9556334.JPG
break,html.Screen,4_25_1,2023-10-31T02:59:51.273Z,,0,,,NaN,,,,,,false,,,,198595.90000009537,198595.5,,198594.80000007153,,198601.565,8,400,,,
break_continue,html.Screen,4_25_2,2023-10-31T02:59:51.273Z,,0,,,NaN,,,,,,false,,,,198596.80000007153,198596.5,,198596.20000004768,,198601.565,8,400,,,
sequence,flow.Sequence,4_25,2023-10-31T02:59:51.274Z,,0,,,4503.817999999999,completion,,,,,false,,,,198597.20000004768,198596.5,194076.23,194060.30000007153,194092.682,198601.565,8,400,,,
trial,html.Screen,4_26_0,2023-10-31T02:59:55.413Z,,0,1,,4134.5350000238395,response,ISIC_0010942.JPG,7,ISIC_0744870.JPG,ISIC_0744870.JPG,false,0,keypress(z),500,202736.90000009537,202736.10000002384,198584.812,198597.5,198601.565,202750.502,8,400,27,,ISIC_0010942.JPG
break,html.Screen,4_26_1,2023-10-31T02:59:55.415Z,,0,,,NaN,,,,,,false,,,,202738.5,202738.10000002384,,202737.30000007153,,202750.502,8,400,,,
break_continue,html.Screen,4_26_2,2023-10-31T02:59:55.416Z,,0,,,NaN,,,,,,false,,,,202739.30000007153,202739.10000002384,,202738.80000007153,,202750.502,8,400,,,
sequence,flow.Sequence,4_26,2023-10-31T02:59:55.416Z,,0,,,4137.5350000238395,completion,,,,,false,,,,202739.70000004768,202739.10000002384,198584.812,198597.30000007153,198601.565,202750.502,8,400,,,
trial,html.Screen,4_27_0,2023-10-31T03:00:00.591Z,,0,1,,5162.997999999992,response,ISIC_6809586.JPG,8,ISIC_0025081.JPG,ISIC_6809586.JPG,false,1,keypress(m),500,207914.10000002384,207913.5,202733.97,202739.90000009537,202750.502,207932.285,8,400,28,,ISIC_0025081.JPG
break,html.Screen,4_27_1,2023-10-31T03:00:00.592Z,,0,,,NaN,,,,,,false,,,,207915.70000004768,207915.30000007153,,207914.60000002384,,207932.285,8,400,,,
break_continue,html.Screen,4_27_2,2023-10-31T03:00:00.593Z,,0,,,NaN,,,,,,false,,,,207916.5,207916.30000007153,,207916,,207932.285,8,400,,,
sequence,flow.Sequence,4_27,2023-10-31T03:00:00.594Z,,0,,,5165.798000071518,completion,,,,,false,,,,207916.90000009537,207916.30000007153,202733.97,202739.80000007153,202750.502,207932.285,8,400,,,
trial,html.Screen,4_28_0,2023-10-31T03:00:04.941Z,,0,1,,4331.615000095364,response,ISIC_3430953.JPG,8,ISIC_0024811.JPG,ISIC_0024811.JPG,false,0,keypress(z),500,212264.40000009537,212263.90000009537,207915.524,207917.10000002384,207932.285,212274.529,8,400,29,,ISIC_3430953.JPG
break,html.Screen,4_28_1,2023-10-31T03:00:04.943Z,,0,,,NaN,,,,,,false,,,,212266.20000004768,212265.70000004768,,212265,,212274.529,8,400,,,
break_continue,html.Screen,4_28_2,2023-10-31T03:00:04.944Z,,0,,,NaN,,,,,,false,,,,212266.90000009537,212266.70000004768,,212266.40000009537,,212274.529,8,400,,,
sequence,flow.Sequence,4_28,2023-10-31T03:00:04.944Z,,0,,,4334.41500004768,completion,,,,,false,,,,212267.30000007153,212266.70000004768,207915.524,207917.10000002384,207932.285,212274.529,8,400,,,
trial,html.Screen,4_29_0,2023-10-31T03:00:08.215Z,,0,1,,3263.4709999999905,response,ISIC_0010962.JPG,9,ISIC_2798803.JPG,ISIC_2798803.JPG,false,0,keypress(z),500,215538.60000002384,215538,212255.624,212267.60000002384,212274.529,215550.917,8,400,30,,ISIC_0010962.JPG
break,html.Screen,4_29_1,2023-10-31T03:00:08.217Z,,0,,,NaN,,,,,,false,,,,215540.30000007153,215539.90000009537,,215539.10000002384,,215550.917,8,400,,,
break_continue,html.Screen,4_29_2,2023-10-31T03:00:08.218Z,,0,,,NaN,,,,,,false,,,,215541.20000004768,215540.90000009537,,215540.60000002384,,215550.917,8,400,,,
sequence,flow.Sequence,4_29,2023-10-31T03:00:08.218Z,,0,,,3266.371000095358,completion,,,,,false,,,,215541.70000004768,215540.90000009537,212255.624,212267.5,212274.529,215550.917,8,400,,,
trial,html.Screen,4_30_0,2023-10-31T03:00:11.601Z,,0,1,,3372.383000071539,response,ISIC_0068012.JPG,9,ISIC_4810500.JPG,ISIC_4810500.JPG,false,0,keypress(z),500,218923.90000009537,218923.30000007153,215534.38,215542,215550.917,218931.475,8,400,31,,ISIC_0068012.JPG
break,html.Screen,4_30_1,2023-10-31T03:00:11.602Z,,0,,,NaN,,,,,,false,,,,218925.60000002384,218925.10000002384,,218924.40000009537,,218931.475,8,400,,,
break_continue,html.Screen,4_30_2,2023-10-31T03:00:11.603Z,,0,,,NaN,,,,,,false,,,,218926.40000009537,218926.10000002384,,218925.90000009537,,218931.475,8,400,,,
sequence,flow.Sequence,4_30,2023-10-31T03:00:11.603Z,,0,,,3375.183000023855,completion,,,,,false,,,,218926.70000004768,218926.10000002384,215534.38,215541.90000009537,215550.917,218931.475,8,400,,,
trial,html.Screen,4_31_0,2023-10-31T03:00:16.028Z,,0,1,,4419.125000023836,response,ISIC_3518299.JPG,10,ISIC_0013136.JPG,ISIC_3518299.JPG,false,1,keypress(m),500,223351.10000002384,223350.60000002384,218915.112,218927,218931.475,223357.014,8,400,32,,ISIC_0013136.JPG
break,html.Screen,4_31_1,2023-10-31T03:00:16.029Z,,0,,,NaN,,,,,,false,,,,223352.80000007153,223352.40000009537,,223351.60000002384,,223357.014,8,400,,,
break_continue,html.Screen,4_31_2,2023-10-31T03:00:16.030Z,,0,,,NaN,,,,,,false,,,,223353.70000004768,223353.40000009537,,223353.10000002384,,223357.014,8,400,,,
sequence,flow.Sequence,4_31,2023-10-31T03:00:16.031Z,,0,,,4421.925000095362,completion,,,,,false,,,,223354.10000002384,223353.40000009537,218915.112,218926.90000009537,218931.475,223357.014,8,400,,,
trial,html.Screen,4_32_0,2023-10-31T03:00:19.287Z,,0,1,,3252.9860000000044,response,ISIC_5495413.JPG,9,ISIC_0010998.JPG,ISIC_5495413.JPG,false,1,keypress(m),500,226610.5,226610,223338.376,223354.40000009537,223357.014,226621.014,8,400,33,,ISIC_0010998.JPG
break,html.Screen,4_32_1,2023-10-31T03:00:19.289Z,,0,,,NaN,,,,,,false,,,,226612.10000002384,226611.80000007153,,226611,,226621.014,8,400,,,
break_continue,html.Screen,4_32_2,2023-10-31T03:00:19.290Z,,0,,,NaN,,,,,,false,,,,226613.10000002384,226612.80000007153,,226612.5,,226621.014,8,400,,,
sequence,flow.Sequence,4_32,2023-10-31T03:00:19.290Z,,0,,,3255.78600007153,completion,,,,,false,,,,226613.5,226612.80000007153,223338.376,223354.30000007153,223357.014,226621.014,8,400,,,
trial,html.Screen,4_33_0,2023-10-31T03:00:23.170Z,,0,1,,3871.4860000000044,response,ISIC_5539001.JPG,7,ISIC_1071355.JPG,ISIC_5539001.JPG,false,1,keypress(m),500,230493,230492.5,226604.471,226613.80000007153,226621.014,230511.257,8,400,34,,ISIC_1071355.JPG
break,html.Screen,4_33_1,2023-10-31T03:00:23.171Z,,0,,,NaN,,,,,,false,,,,230494.60000002384,230494.30000007153,,230493.5,,230511.257,8,400,,,
break_continue,html.Screen,4_33_2,2023-10-31T03:00:23.173Z,,0,,,NaN,,,,,,false,,,,230496.10000002384,230495.70000004768,,230495,,230511.257,8,400,,,
sequence,flow.Sequence,4_33,2023-10-31T03:00:23.173Z,,0,,,3874.686000047688,completion,,,,,false,,,,230496.60000002384,230495.70000004768,226604.471,226613.70000004768,226621.014,230511.257,8,400,,,
trial,html.Screen,4_34_0,2023-10-31T03:00:27.578Z,,0,1,,4389.543000071513,response,ISIC_0064034.JPG,8,ISIC_4702522.JPG,ISIC_4702522.JPG,false,0,keypress(z),500,234901.40000009537,234900.80000007153,230494.478,230496.90000009537,230511.257,234917.518,8,400,35,,ISIC_0064034.JPG
break,html.Screen,4_34_1,2023-10-31T03:00:27.580Z,,0,,,NaN,,,,,,false,,,,234903.10000002384,234902.70000004768,,234901.90000009537,,234917.518,8,400,,,
break_continue,html.Screen,4_34_2,2023-10-31T03:00:27.581Z,,0,,,NaN,,,,,,false,,,,234904.40000009537,234904,,234903.70000004768,,234917.518,8,400,,,
sequence,flow.Sequence,4_34,2023-10-31T03:00:27.581Z,,0,,,4392.742999999988,completion,,,,,false,,,,234904.90000009537,234904,230494.478,230496.80000007153,230511.257,234917.518,8,400,,,
trial,html.Screen,4_35_0,2023-10-31T03:00:32.642Z,,0,1,,5047.481999999989,response,ISIC_2563374.JPG,6,ISIC_7563949.JPG,ISIC_2563374.JPG,false,1,keypress(m),500,239965.60000002384,239965,234901.179,234905.20000004768,234917.518,239982.519,8,400,36,,ISIC_7563949.JPG
break,html.Screen,4_35_1,2023-10-31T03:00:32.644Z,,0,,,NaN,,,,,,false,,,,239967.20000004768,239966.90000009537,,239966,,239982.519,8,400,,,
break_continue,html.Screen,4_35_2,2023-10-31T03:00:32.645Z,,0,,,NaN,,,,,,false,,,,239968,239967.70000004768,,239967.5,,239982.519,8,400,,,
sequence,flow.Sequence,4_35,2023-10-31T03:00:32.645Z,,0,,,5050.182000047673,completion,,,,,false,,,,239968.40000009537,239967.70000004768,234901.179,234905,234917.518,239982.519,8,400,,,
trial,html.Screen,4_36_0,2023-10-31T03:00:40.364Z,,0,1,,7703.981,response,ISIC_0012081.JPG,8,ISIC_1343302.JPG,ISIC_0012081.JPG,false,1,keypress(m),500,247687.30000007153,247686.5,239967.101,239968.60000002384,239982.519,247701.312,8,400,37,,ISIC_1343302.JPG
break,html.Screen,4_36_1,2023-10-31T03:00:40.365Z,,0,,,NaN,,,,,,false,,,,247689,247688.70000004768,,247687.90000009537,,247701.312,8,400,,,
break_continue,html.Screen,4_36_2,2023-10-31T03:00:40.366Z,,0,,,NaN,,,,,,false,,,,247689.90000009537,247689.70000004768,,247689.30000007153,,247701.312,8,400,,,
sequence,flow.Sequence,4_36,2023-10-31T03:00:40.367Z,,0,,,7707.1810000476835,completion,,,,,false,,,,247690.30000007153,247689.70000004768,239967.101,239968.60000002384,239982.519,247701.312,8,400,,,
trial,html.Screen,4_37_0,2023-10-31T03:00:44.650Z,,0,1,,4272.088000095362,response,ISIC_0027274.JPG,6,ISIC_0053846.JPG,ISIC_0027274.JPG,false,1,keypress(m),500,251974,251973.40000009537,247685.003,247690.5,247701.312,251986.112,8,400,38,,ISIC_0053846.JPG
break,html.Screen,4_37_1,2023-10-31T03:00:44.652Z,,0,,,NaN,,,,,,false,,,,251975.60000002384,251975.20000004768,,251974.5,,251986.112,8,400,,,
break_continue,html.Screen,4_37_2,2023-10-31T03:00:44.653Z,,0,,,NaN,,,,,,false,,,,251976.40000009537,251976.20000004768,,251975.90000009537,,251986.112,8,400,,,
sequence,flow.Sequence,4_37,2023-10-31T03:00:44.653Z,,0,,,4274.888000047678,completion,,,,,false,,,,251976.80000007153,251976.20000004768,247685.003,247690.40000009537,247701.312,251986.112,8,400,,,
trial,html.Screen,4_38_0,2023-10-31T03:00:48.977Z,,0,1,,4314.288000095374,response,ISIC_0011150.JPG,10,ISIC_0068184.JPG,ISIC_0068184.JPG,false,0,keypress(z),500,256301.10000002384,256300.40000009537,251969.817,251977.30000007153,251986.112,256306.72,8,400,39,,ISIC_0011150.JPG
break,html.Screen,4_38_1,2023-10-31T03:00:48.979Z,,0,,,NaN,,,,,,false,,,,256302.90000009537,256302.40000009537,,256301.60000002384,,256306.72,8,400,,,
break_continue,html.Screen,4_38_2,2023-10-31T03:00:48.980Z,,0,,,NaN,,,,,,false,,,,256303.80000007153,256303.5,,256303.20000004768,,256306.72,8,400,,,
sequence,flow.Sequence,4_38,2023-10-31T03:00:48.980Z,,0,,,4317.388000000006,completion,,,,,false,,,,256304.10000002384,256303.5,251969.817,251977.20000004768,251986.112,256306.72,8,400,,,
trial,html.Screen,4_39_0,2023-10-31T03:00:54.000Z,,0,1,,5016.880000023841,response,ISIC_0013459.JPG,6,ISIC_7565128.JPG,ISIC_0013459.JPG,false,1,keypress(m),500,261324.10000002384,261323.60000002384,256289.985,256304.40000009537,256306.72,261340.843,8,400,40,,ISIC_7565128.JPG
break,html.Screen,4_39_1,2023-10-31T03:00:54.002Z,,0,,,NaN,,,,,,false,,,,261325.80000007153,261325.40000009537,,261324.70000004768,,261340.843,8,400,,,
break_continue,html.Screen,4_39_2,2023-10-31T03:00:54.003Z,,0,,,NaN,,,,,,false,,,,261326.70000004768,261326.40000009537,,261326.20000004768,,261340.843,8,400,,,
sequence,flow.Sequence,4_39,2023-10-31T03:00:54.003Z,,0,,,5019.680000095366,completion,,,,,false,,,,261327,261326.40000009537,256289.985,256304.30000007153,256306.72,261340.843,8,400,,,
trial,html.Screen,4_40_0,2023-10-31T03:00:57.648Z,,0,1,,3629.7570000238484,response,ISIC_5037784.JPG,9,ISIC_9155028.JPG,ISIC_9155028.JPG,false,0,keypress(z),500,264971.2000000477,264970.60000002384,261325.415,261327.30000007153,261340.843,264976.214,8,400,41,,ISIC_5037784.JPG
break,html.Screen,4_40_1,2023-10-31T03:00:57.650Z,,0,,,NaN,,,,,,false,,,,264973.40000009537,264972.90000009537,,264972,,264976.214,8,400,,,
break_continue,html.Screen,4_40_2,2023-10-31T03:00:57.651Z,,0,,,NaN,,,,,,false,,,,264974.5,264974.2000000477,,264973.90000009537,,264976.214,8,400,,,
sequence,flow.Sequence,4_40,2023-10-31T03:00:57.651Z,,0,,,3633.3570000476902,completion,,,,,false,,,,264974.90000009537,264974.2000000477,261325.415,261327.30000007153,261340.843,264976.214,8,400,,,
trial,html.Screen,4_41_0,2023-10-31T03:01:00.841Z,,0,1,,3187.9860000477056,response,ISIC_7341401.JPG,7,ISIC_4471367.JPG,ISIC_4471367.JPG,false,0,keypress(z),500,268164.7000000477,268164.2000000477,264959.994,264975.2000000477,264976.214,268197.901,8,400,42,,ISIC_7341401.JPG
break,html.Screen,4_41_1,2023-10-31T03:01:00.843Z,,0,,,NaN,,,,,,false,,,,268166.5,268166,,268165.2000000477,,268197.901,8,400,,,
break_continue,html.Screen,4_41_2,2023-10-31T03:01:00.844Z,,0,,,NaN,,,,,,false,,,,268167.40000009537,268167.2000000477,,268166.8000000715,,268197.901,8,400,,,
sequence,flow.Sequence,4_41,2023-10-31T03:01:00.844Z,,0,,,3190.9860000477056,completion,,,,,false,,,,268167.90000009537,268167.2000000477,264959.994,264975.10000002384,264976.214,268197.901,8,400,,,
trial,html.Screen,4_42_0,2023-10-31T03:01:05.796Z,,0,1,,4920.799000047671,response,ISIC_0011733.JPG,10,ISIC_0025267.JPG,ISIC_0025267.JPG,false,0,keypress(z),500,273119.40000009537,273118.7000000477,268164.461,268168.10000002384,268197.901,273137.123,8,400,43,,ISIC_0011733.JPG
break,html.Screen,4_42_1,2023-10-31T03:01:05.797Z,,0,,,NaN,,,,,,false,,,,273121.10000002384,273120.7000000477,,273119.90000009537,,273137.123,8,400,,,
break_continue,html.Screen,4_42_2,2023-10-31T03:01:05.798Z,,0,,,NaN,,,,,,false,,,,273122.10000002384,273121.8000000715,,273121.40000009537,,273137.123,8,400,,,
sequence,flow.Sequence,4_42,2023-10-31T03:01:05.799Z,,0,,,4923.899000071513,completion,,,,,false,,,,273122.5,273121.8000000715,268164.461,268168,268197.901,273137.123,8,400,,,
trial,html.Screen,4_43_0,2023-10-31T03:01:10.207Z,,0,1,,4393.376999999979,response,ISIC_8909545.JPG,9,ISIC_1492055.JPG,ISIC_8909545.JPG,false,1,keypress(m),500,277530.7000000477,277530.5,273120.754,273122.7000000477,273137.123,277554.922,8,400,44,,ISIC_1492055.JPG
break,html.Screen,4_43_1,2023-10-31T03:01:10.207Z,,0,,,NaN,,,,,,false,,,,277531.2000000477,277531.10000002384,,277530.8000000715,,277554.922,8,400,,,
break_continue,html.Screen,4_43_2,2023-10-31T03:01:10.208Z,,0,,,NaN,,,,,,false,,,,277531.40000009537,277531.3000000715,,277531.3000000715,,277554.922,8,400,,,
sequence,flow.Sequence,4_43,2023-10-31T03:01:10.208Z,,0,,,4394.177000071504,completion,,,,,false,,,,277531.40000009537,277531.3000000715,273120.754,273122.60000002384,273137.123,277554.922,8,400,,,
trial,html.Screen,4_44_0,2023-10-31T03:01:13.332Z,,0,1,,3100.1780000238214,response,ISIC_7268123.JPG,9,ISIC_0031013.JPG,ISIC_7268123.JPG,false,1,keypress(m),500,280655.40000009537,280655.10000002384,277529.321,277531.5,277554.922,280670.215,8,400,45,,ISIC_0031013.JPG
break,html.Screen,4_44_1,2023-10-31T03:01:13.332Z,,0,,,NaN,,,,,,false,,,,280656.2000000477,280656,,280655.7000000477,,280670.215,8,400,,,
break_continue,html.Screen,4_44_2,2023-10-31T03:01:13.333Z,,0,,,NaN,,,,,,false,,,,280656.5,280656.40000009537,,280656.3000000715,,280670.215,8,400,,,
sequence,flow.Sequence,4_44,2023-10-31T03:01:13.333Z,,0,,,3101.478000095347,completion,,,,,false,,,,280656.60000002384,280656.40000009537,277529.321,277531.5,277554.922,280670.215,8,400,,,
trial,html.Screen,4_45_0,2023-10-31T03:01:16.664Z,,0,1,,3317.185000095342,response,ISIC_2202486.JPG,7,ISIC_0071916.JPG,ISIC_2202486.JPG,false,1,keypress(m),500,283987.8000000715,283987.40000009537,280653.441,280656.7000000477,280670.215,284003.296,8,400,46,,ISIC_0071916.JPG
break,html.Screen,4_45_1,2023-10-31T03:01:16.665Z,,0,,,NaN,,,,,,false,,,,283989.2000000477,283988.8000000715,,283988.10000002384,,284003.296,8,400,,,
break_continue,html.Screen,4_45_2,2023-10-31T03:01:16.666Z,,0,,,NaN,,,,,,false,,,,283989.60000002384,283989.5,,283989.3000000715,,284003.296,8,400,,,
sequence,flow.Sequence,4_45,2023-10-31T03:01:16.666Z,,0,,,3319.2849999999744,completion,,,,,false,,,,283989.8000000715,283989.5,280653.441,280656.7000000477,280670.215,284003.296,8,400,,,
trial,html.Screen,4_46_0,2023-10-31T03:01:20.591Z,,0,1,,3910.704000000027,response,ISIC_8325569.JPG,6,ISIC_0000513.JPG,ISIC_8325569.JPG,false,1,keypress(m),500,287914.7000000477,287914,283983.986,283990,284003.296,287933.324,8,400,47,,ISIC_0000513.JPG
break,html.Screen,4_46_1,2023-10-31T03:01:20.593Z,,0,,,NaN,,,,,,false,,,,287916.3000000715,287915.90000009537,,287915.10000002384,,287933.324,8,400,,,
break_continue,html.Screen,4_46_2,2023-10-31T03:01:20.594Z,,0,,,NaN,,,,,,false,,,,287917.2000000477,287916.8000000715,,287916.5,,287933.324,8,400,,,
sequence,flow.Sequence,4_46,2023-10-31T03:01:20.594Z,,0,,,3913.5040000715526,completion,,,,,false,,,,287917.60000002384,287916.8000000715,283983.986,283989.90000009537,284003.296,287933.324,8,400,,,
trial,html.Screen,4_47_0,2023-10-31T03:01:23.628Z,,0,1,,3017.1759999999776,response,ISIC_0010664.JPG,10,ISIC_4093484.JPG,ISIC_4093484.JPG,false,0,keypress(z),500,290951.3000000715,290950.5,287916.58,287918,287933.324,290954.874,8,400,48,,ISIC_0010664.JPG
break,html.Screen,4_47_1,2023-10-31T03:01:23.629Z,,0,,,NaN,,,,,,false,,,,290953.2000000477,290952.8000000715,,290952,,290954.874,8,400,,,
break_continue,html.Screen,4_47_2,2023-10-31T03:01:23.630Z,,0,,,NaN,,,,,,false,,,,290954,290953.7000000477,,290953.5,,290954.874,8,400,,,
sequence,flow.Sequence,4_47,2023-10-31T03:01:23.631Z,,0,,,3020.3760000476614,completion,,,,,false,,,,290954.3000000715,290953.7000000477,287916.58,287917.8000000715,287933.324,290954.874,8,400,,,
trial,html.Screen,4_48_0,2023-10-31T03:01:28.178Z,,0,1,,4546.526000095357,response,ISIC_3942075.JPG,10,ISIC_0013671.JPG,ISIC_0013671.JPG,false,0,keypress(z),500,295502.10000002384,295501.40000009537,290938.327,290954.60000002384,290954.874,295506.223,8,400,49,,ISIC_3942075.JPG
break,html.Screen,4_48_1,2023-10-31T03:01:28.180Z,,0,,,NaN,,,,,,false,,,,295503.7000000477,295503.3000000715,,295502.5,,295506.223,8,400,,,
break_continue,html.Screen,4_48_2,2023-10-31T03:01:28.181Z,,0,,,NaN,,,,,,false,,,,295504.5,295504.2000000477,,295504,,295506.223,8,400,,,
sequence,flow.Sequence,4_48,2023-10-31T03:01:28.181Z,,0,,,4549.326000047673,completion,,,,,false,,,,295504.8000000715,295504.2000000477,290938.327,290954.60000002384,290954.874,295506.223,8,400,,,
trial,html.Screen,4_49_0,2023-10-31T03:01:33.595Z,,0,1,,5411.477000047686,response,ISIC_0057259.JPG,13,ISIC_5204408.JPG,ISIC_5204408.JPG,false,0,keypress(z),500,300918.3000000715,300917.7000000477,295490.189,295505,295506.223,300941.37,8,400,50,,ISIC_0057259.JPG
break,html.Screen,4_49_1,2023-10-31T03:01:43.595Z,,0,,,9991.63300000003,timeout,,,,,false,,,,310918.40000009537,310916.644,300925.032,300918.7000000477,300941.37,310933.003,8,400,,,
break_continue,html.Screen,4_49_2,2023-10-31T03:01:44.980Z,,0,,,1339.3970000953414,response,,,,,false,continue,keypress(Space),,312303.7000000477,312272.40000009537,310916.644,310918.7000000477,310933.003,312315.286,8,400,,,
sequence,flow.Sequence,4_49,2023-10-31T03:01:44.981Z,,0,,,16766.17700009537,completion,,,,,false,,,,312304.2000000477,312272.40000009537,295490.189,295504.90000009537,295506.223,312315.286,8,400,,,
trial,html.Screen,4_50_0,2023-10-31T03:01:48.781Z,,0,2,,3788.5140000715037,response,ISIC_7035368.JPG,13,ISIC_0679553.JPG,ISIC_7035368.JPG,false,1,keypress(m),500,316104.40000009537,316103.8000000715,312298.759,312304.5,312315.286,316119.542,8,400,1,,ISIC_0679553.JPG
break,html.Screen,4_50_1,2023-10-31T03:01:48.782Z,,0,,,NaN,,,,,,false,,,,316106.10000002384,316105.7000000477,,316104.90000009537,,316119.542,8,400,,,
break_continue,html.Screen,4_50_2,2023-10-31T03:01:48.783Z,,0,,,NaN,,,,,,false,,,,316107.10000002384,316106.7000000477,,316106.40000009537,,316119.542,8,400,,,
sequence,flow.Sequence,4_50,2023-10-31T03:01:48.784Z,,0,,,3791.414000047662,completion,,,,,false,,,,316107.5,316106.7000000477,312298.759,312304.40000009537,312315.286,316119.542,8,400,,,
trial,html.Screen,4_51_0,2023-10-31T03:01:52.823Z,,0,2,,4026.457999999984,response,ISIC_0028768.JPG,6,ISIC_5323725.JPG,ISIC_0028768.JPG,false,1,keypress(m),500,320146.60000002384,320146,316100.846,316107.8000000715,316119.542,320164.574,8,400,2,,ISIC_5323725.JPG
break,html.Screen,4_51_1,2023-10-31T03:01:52.825Z,,0,,,NaN,,,,,,false,,,,320148.40000009537,320147.90000009537,,320147.10000002384,,320164.574,8,400,,,
break_continue,html.Screen,4_51_2,2023-10-31T03:01:52.826Z,,0,,,NaN,,,,,,false,,,,320149.3000000715,320149,,320148.7000000477,,320164.574,8,400,,,
sequence,flow.Sequence,4_51,2023-10-31T03:01:52.826Z,,0,,,4029.457999999984,completion,,,,,false,,,,320149.7000000477,320149,316100.846,316107.7000000477,316119.542,320164.574,8,400,,,
trial,html.Screen,4_52_0,2023-10-31T03:01:56.386Z,,0,2,,3544.6260000476614,response,ISIC_0003793.JPG,6,ISIC_0011778.JPG,ISIC_0003793.JPG,false,1,keypress(m),500,323709.90000009537,323709.2000000477,320148.208,320150,320164.574,323714.225,8,400,3,,ISIC_0011778.JPG
break,html.Screen,4_52_1,2023-10-31T03:01:56.388Z,,0,,,NaN,,,,,,false,,,,323711.60000002384,323711.2000000477,,323710.40000009537,,323714.225,8,400,,,
break_continue,html.Screen,4_52_2,2023-10-31T03:01:56.389Z,,0,,,NaN,,,,,,false,,,,323712.60000002384,323712.3000000715,,323711.90000009537,,323714.225,8,400,,,
sequence,flow.Sequence,4_52,2023-10-31T03:01:56.389Z,,0,,,3547.726000071503,completion,,,,,false,,,,323712.90000009537,323712.3000000715,320148.208,320149.8000000715,320164.574,323714.225,8,400,,,
trial,html.Screen,4_53_0,2023-10-31T03:02:00.573Z,,0,2,,4182.075000071549,response,ISIC_7452503.JPG,6,ISIC_0009880.JPG,ISIC_7452503.JPG,false,1,keypress(m),500,327896.90000009537,327896.3000000715,323697.843,323713.2000000477,323714.225,327913.285,8,400,4,,ISIC_0009880.JPG
break,html.Screen,4_53_1,2023-10-31T03:02:00.575Z,,0,,,NaN,,,,,,false,,,,327898.60000002384,327898.2000000477,,327897.40000009537,,327913.285,8,400,,,
break_continue,html.Screen,4_53_2,2023-10-31T03:02:00.576Z,,0,,,NaN,,,,,,false,,,,327899.40000009537,327899.2000000477,,327898.90000009537,,327913.285,8,400,,,
sequence,flow.Sequence,4_53,2023-10-31T03:02:00.576Z,,0,,,4184.975000047707,completion,,,,,false,,,,327899.8000000715,327899.2000000477,323697.843,323713.10000002384,323714.225,327913.285,8,400,,,
trial,html.Screen,4_54_0,2023-10-31T03:02:04.071Z,,0,2,,3480.4150000477093,response,ISIC_7583134.JPG,6,ISIC_4252887.JPG,ISIC_7583134.JPG,false,1,keypress(m),500,331394.40000009537,331393.7000000477,327896.644,327900.10000002384,327913.285,331429.666,8,400,5,,ISIC_4252887.JPG
break,html.Screen,4_54_1,2023-10-31T03:02:04.072Z,,0,,,NaN,,,,,,false,,,,331396,331395.7000000477,,331394.90000009537,,331429.666,8,400,,,
break_continue,html.Screen,4_54_2,2023-10-31T03:02:04.073Z,,0,,,NaN,,,,,,false,,,,331396.90000009537,331396.5,,331396.3000000715,,331429.666,8,400,,,
sequence,flow.Sequence,4_54,2023-10-31T03:02:04.074Z,,0,,,3483.2150000000256,completion,,,,,false,,,,331397.40000009537,331396.5,327896.644,327900,327913.285,331429.666,8,400,,,
trial,html.Screen,4_55_0,2023-10-31T03:02:07.087Z,,0,2,,2980.134000071499,response,ISIC_0033985.JPG,13,ISIC_6635590.JPG,ISIC_6635590.JPG,false,0,keypress(z),500,334410.5,334409.8000000715,331413.283,331397.60000002384,331429.666,334427.036,8,400,6,,ISIC_0033985.JPG
break,html.Screen,4_55_1,2023-10-31T03:02:07.089Z,,0,,,NaN,,,,,,false,,,,334412.3000000715,334412,,334411.10000002384,,334427.036,8,400,,,
break_continue,html.Screen,4_55_2,2023-10-31T03:02:07.090Z,,0,,,NaN,,,,,,false,,,,334413.3000000715,334412.90000009537,,334412.7000000477,,334427.036,8,400,,,
sequence,flow.Sequence,4_55,2023-10-31T03:02:07.090Z,,0,,,2983.234000095341,completion,,,,,false,,,,334413.7000000477,334412.90000009537,331413.283,331397.5,331429.666,334427.036,8,400,,,
trial,html.Screen,4_56_0,2023-10-31T03:02:10.605Z,,0,2,,3500.963999999978,response,ISIC_3395488.JPG,7,ISIC_1772828.JPG,ISIC_1772828.JPG,false,0,keypress(z),500,337928.60000002384,337928,334410.796,334414,334427.036,337931.74,8,400,7,,ISIC_3395488.JPG
break,html.Screen,4_56_1,2023-10-31T03:02:10.607Z,,0,,,NaN,,,,,,false,,,,337930.3000000715,337929.90000009537,,337929.10000002384,,337931.74,8,400,,,
break_continue,html.Screen,4_56_2,2023-10-31T03:02:10.607Z,,0,,,NaN,,,,,,false,,,,337931.10000002384,337930.8000000715,,337930.60000002384,,337931.74,8,400,,,
sequence,flow.Sequence,4_56,2023-10-31T03:02:10.608Z,,0,,,3503.7640000715037,completion,,,,,false,,,,337931.7000000477,337930.8000000715,334410.796,334413.90000009537,334427.036,337931.74,8,400,,,
trial,html.Screen,4_57_0,2023-10-31T03:02:13.916Z,,0,2,,3307.1600000953767,response,ISIC_5198780.JPG,10,ISIC_9568138.JPG,ISIC_5198780.JPG,false,1,keypress(m),500,341239.5,341238.90000009537,337915.44,337932,337931.74,341250.617,8,400,8,,ISIC_9568138.JPG
break,html.Screen,4_57_1,2023-10-31T03:02:13.917Z,,0,,,NaN,,,,,,false,,,,341240.60000002384,341240.3000000715,,341239.8000000715,,341250.617,8,400,,,
break_continue,html.Screen,4_57_2,2023-10-31T03:02:13.917Z,,0,,,NaN,,,,,,false,,,,341241.10000002384,341240.90000009537,,341240.8000000715,,341250.617,8,400,,,
sequence,flow.Sequence,4_57,2023-10-31T03:02:13.918Z,,0,,,3309.1600000953767,completion,,,,,false,,,,341241.2000000477,341240.90000009537,337915.44,337931.90000009537,337931.74,341250.617,8,400,,,
trial,html.Screen,4_58_0,2023-10-31T03:02:17.222Z,,0,2,,3294.78300009534,response,ISIC_6793983.JPG,6,ISIC_8384985.JPG,ISIC_6793983.JPG,false,1,keypress(m),500,344546,344545.40000009537,341233.924,341241.40000009537,341250.617,344550.429,8,400,9,,ISIC_8384985.JPG
break,html.Screen,4_58_1,2023-10-31T03:02:17.224Z,,0,,,NaN,,,,,,false,,,,344547.60000002384,344547.2000000477,,344546.5,,344550.429,8,400,,,
break_continue,html.Screen,4_58_2,2023-10-31T03:02:17.225Z,,0,,,NaN,,,,,,false,,,,344548.60000002384,344548.2000000477,,344547.90000009537,,344550.429,8,400,,,
sequence,flow.Sequence,4_58,2023-10-31T03:02:17.225Z,,0,,,3297.5830000476562,completion,,,,,false,,,,344549.10000002384,344548.2000000477,341233.924,341241.40000009537,341250.617,344550.429,8,400,,,
trial,html.Screen,4_59_0,2023-10-31T03:02:20.288Z,,0,2,,3060.0709999999963,response,ISIC_0485417.JPG,9,ISIC_4707475.JPG,ISIC_4707475.JPG,false,0,keypress(z),500,347611.3000000715,347610.5,344534.211,344549.3000000715,344550.429,347619.538,8,400,10,,ISIC_0485417.JPG
break,html.Screen,4_59_1,2023-10-31T03:02:20.290Z,,0,,,NaN,,,,,,false,,,,347613.7000000477,347613.10000002384,,347612,,347619.538,8,400,,,
break_continue,html.Screen,4_59_2,2023-10-31T03:02:20.291Z,,0,,,NaN,,,,,,false,,,,347614.8000000715,347614.5,,347614.10000002384,,347619.538,8,400,,,
sequence,flow.Sequence,4_59,2023-10-31T03:02:20.292Z,,0,,,3064.0709999999963,completion,,,,,false,,,,347615.5,347614.5,344534.211,344549.3000000715,344550.429,347619.538,8,400,,,
trial,html.Screen,4_60_0,2023-10-31T03:02:23.422Z,,0,2,,3125.862000095367,response,ISIC_0031550.JPG,8,ISIC_0011458.JPG,ISIC_0011458.JPG,false,0,keypress(z),500,350746.10000002384,350745.40000009537,347597.817,347615.7000000477,347619.538,350755.241,8,400,11,,ISIC_0031550.JPG
break,html.Screen,4_60_1,2023-10-31T03:02:23.424Z,,0,,,NaN,,,,,,false,,,,350747.8000000715,350747.40000009537,,350746.60000002384,,350755.241,8,400,,,
break_continue,html.Screen,4_60_2,2023-10-31T03:02:23.425Z,,0,,,NaN,,,,,,false,,,,350748.5,350748.3000000715,,350748,,350755.241,8,400,,,
sequence,flow.Sequence,4_60,2023-10-31T03:02:23.425Z,,0,,,3128.762000071525,completion,,,,,false,,,,350748.90000009537,350748.3000000715,347597.817,347615.60000002384,347619.538,350755.241,8,400,,,
trial,html.Screen,4_61_0,2023-10-31T03:02:26.470Z,,0,2,,3037.859000023862,response,ISIC_0059093.JPG,9,ISIC_0013801.JPG,ISIC_0013801.JPG,false,0,keypress(z),500,353793.5,353793.10000002384,350736.33,350749.2000000477,350755.241,353802.659,8,400,12,,ISIC_0059093.JPG
break,html.Screen,4_61_1,2023-10-31T03:02:26.471Z,,0,,,NaN,,,,,,false,,,,353794.7000000477,353794.40000009537,,353793.90000009537,,353802.659,8,400,,,
break_continue,html.Screen,4_61_2,2023-10-31T03:02:26.472Z,,0,,,NaN,,,,,,false,,,,353795.3000000715,353795.10000002384,,353794.90000009537,,353802.659,8,400,,,
sequence,flow.Sequence,4_61,2023-10-31T03:02:26.472Z,,0,,,3039.859000023862,completion,,,,,false,,,,353795.5,353795.10000002384,350736.33,350749.10000002384,350755.241,353802.659,8,400,,,
trial,html.Screen,4_62_0,2023-10-31T03:02:31.164Z,,0,2,,4684.241000095382,response,ISIC_0061915.JPG,12,ISIC_0067308.JPG,ISIC_0067308.JPG,false,0,keypress(z),500,358487.8000000715,358486.90000009537,353786.401,353795.7000000477,353802.659,358504.104,8,400,13,,ISIC_0061915.JPG
break,html.Screen,4_62_1,2023-10-31T03:02:31.166Z,,0,,,NaN,,,,,,false,,,,358489.5,358489.10000002384,,358488.40000009537,,358504.104,8,400,,,
break_continue,html.Screen,4_62_2,2023-10-31T03:02:31.167Z,,0,,,NaN,,,,,,false,,,,358490.40000009537,358490.2000000477,,358489.8000000715,,358504.104,8,400,,,
sequence,flow.Sequence,4_62,2023-10-31T03:02:31.167Z,,0,,,4687.541000047699,completion,,,,,false,,,,358490.8000000715,358490.2000000477,353786.401,353795.7000000477,353802.659,358504.104,8,400,,,
trial,html.Screen,4_63_0,2023-10-31T03:02:35.941Z,,0,2,,4759.396000000008,response,ISIC_7906421.JPG,9,ISIC_0004986.JPG,ISIC_0004986.JPG,false,0,keypress(z),500,363264.10000002384,363263.5,358487.37,358491.10000002384,358504.104,363279.223,8,400,14,,ISIC_7906421.JPG
break,html.Screen,4_63_1,2023-10-31T03:02:35.942Z,,0,,,NaN,,,,,,false,,,,363265.8000000715,363265.3000000715,,363264.60000002384,,363279.223,8,400,,,
break_continue,html.Screen,4_63_2,2023-10-31T03:02:35.943Z,,0,,,NaN,,,,,,false,,,,363266.60000002384,363266.3000000715,,363266,,363279.223,8,400,,,
sequence,flow.Sequence,4_63,2023-10-31T03:02:35.944Z,,0,,,4762.1960000715335,completion,,,,,false,,,,363266.90000009537,363266.3000000715,358487.37,358490.90000009537,358504.104,363279.223,8,400,,,
trial,html.Screen,4_64_0,2023-10-31T03:02:39.151Z,,0,2,,3194.3770000238437,response,ISIC_7492682.JPG,7,ISIC_0030194.JPG,ISIC_7492682.JPG,false,1,keypress(m),500,366474.2000000477,366473.60000002384,363262.885,363267.2000000477,363279.223,366484.167,8,400,15,,ISIC_0030194.JPG
break,html.Screen,4_64_1,2023-10-31T03:02:39.153Z,,0,,,NaN,,,,,,false,,,,366475.8000000715,366475.5,,366474.7000000477,,366484.167,8,400,,,
break_continue,html.Screen,4_64_2,2023-10-31T03:02:39.153Z,,0,,,NaN,,,,,,false,,,,366476.8000000715,366476.40000009537,,366476.2000000477,,366484.167,8,400,,,
sequence,flow.Sequence,4_64,2023-10-31T03:02:39.154Z,,0,,,3197.1770000953693,completion,,,,,false,,,,366477.10000002384,366476.40000009537,363262.885,363267.10000002384,363279.223,366484.167,8,400,,,
trial,html.Screen,4_65_0,2023-10-31T03:02:43.049Z,,0,2,,3887.1330000715097,response,ISIC_5041679.JPG,6,ISIC_1305537.JPG,ISIC_5041679.JPG,false,1,keypress(m),500,370371.90000009537,370371.3000000715,366465.259,366477.40000009537,366484.167,370375.368,8,400,16,,ISIC_1305537.JPG
break,html.Screen,4_65_1,2023-10-31T03:02:43.050Z,,0,,,NaN,,,,,,false,,,,370373.5,370373.10000002384,,370372.3000000715,,370375.368,8,400,,,
break_continue,html.Screen,4_65_2,2023-10-31T03:02:43.051Z,,0,,,NaN,,,,,,false,,,,370374.3000000715,370374.10000002384,,370373.8000000715,,370375.368,8,400,,,
sequence,flow.Sequence,4_65,2023-10-31T03:02:43.051Z,,0,,,3889.933000023826,completion,,,,,false,,,,370374.60000002384,370374.10000002384,366465.259,366477.3000000715,366484.167,370375.368,8,400,,,
trial,html.Screen,4_66_0,2023-10-31T03:02:46.658Z,,0,2,,3605.5320000953507,response,ISIC_5539001.JPG,10,ISIC_8168598.JPG,ISIC_8168598.JPG,false,0,keypress(z),500,373981.5,373980.90000009537,370359.163,370374.90000009537,370375.368,373991.612,8,400,17,,ISIC_5539001.JPG
break,html.Screen,4_66_1,2023-10-31T03:02:46.660Z,,0,,,NaN,,,,,,false,,,,373983.2000000477,373982.8000000715,,373982,,373991.612,8,400,,,
break_continue,html.Screen,4_66_2,2023-10-31T03:02:46.661Z,,0,,,NaN,,,,,,false,,,,373984,373983.7000000477,,373983.40000009537,,373991.612,8,400,,,
sequence,flow.Sequence,4_66,2023-10-31T03:02:46.661Z,,0,,,3608.332000047667,completion,,,,,false,,,,373984.3000000715,373983.7000000477,370359.163,370374.90000009537,370375.368,373991.612,8,400,,,
trial,html.Screen,4_67_0,2023-10-31T03:02:50.218Z,,0,2,,3549.488000023819,response,ISIC_0360367.JPG,6,ISIC_5932383.JPG,ISIC_0360367.JPG,false,1,keypress(m),500,377541.7000000477,377541.10000002384,373975.215,373984.60000002384,373991.612,377557.859,8,400,18,,ISIC_5932383.JPG
break,html.Screen,4_67_1,2023-10-31T03:02:50.220Z,,0,,,NaN,,,,,,false,,,,377543.5,377543,,377542.2000000477,,377557.859,8,400,,,
break_continue,html.Screen,4_67_2,2023-10-31T03:02:50.221Z,,0,,,NaN,,,,,,false,,,,377544.60000002384,377544.10000002384,,377543.90000009537,,377557.859,8,400,,,
sequence,flow.Sequence,4_67,2023-10-31T03:02:50.222Z,,0,,,3552.488000023819,completion,,,,,false,,,,377545,377544.10000002384,373975.215,373984.5,373991.612,377557.859,8,400,,,
trial,html.Screen,4_68_0,2023-10-31T03:02:52.995Z,,0,2,,2759.841000047687,response,ISIC_7558912.JPG,13,ISIC_0030563.JPG,ISIC_7558912.JPG,false,1,keypress(m),500,380318.2000000477,380317.7000000477,377541.429,377545.3000000715,377557.859,380341.391,8,400,19,,ISIC_0030563.JPG
break,html.Screen,4_68_1,2023-10-31T03:02:52.997Z,,0,,,NaN,,,,,,false,,,,380319.90000009537,380319.5,,380318.8000000715,,380341.391,8,400,,,
break_continue,html.Screen,4_68_2,2023-10-31T03:02:52.997Z,,0,,,NaN,,,,,,false,,,,380320.7000000477,380320.40000009537,,380320.2000000477,,380341.391,8,400,,,
sequence,flow.Sequence,4_68,2023-10-31T03:02:52.998Z,,0,,,2762.5410000953707,completion,,,,,false,,,,380321,380320.40000009537,377541.429,377545.10000002384,377557.859,380341.391,8,400,,,
trial,html.Screen,4_69_0,2023-10-31T03:02:56.063Z,,0,2,,3044.7090000238386,response,ISIC_0026302.JPG,11,ISIC_8281208.JPG,ISIC_8281208.JPG,false,0,keypress(z),500,383386.8000000715,383386.10000002384,380324.865,380321.3000000715,380341.391,383408.272,8,400,20,,ISIC_0026302.JPG
break,html.Screen,4_69_1,2023-10-31T03:02:56.065Z,,0,,,NaN,,,,,,false,,,,383388.40000009537,383388,,383387.2000000477,,383408.272,8,400,,,
break_continue,html.Screen,4_69_2,2023-10-31T03:02:56.066Z,,0,,,NaN,,,,,,false,,,,383389.2000000477,383389,,383388.7000000477,,383408.272,8,400,,,
sequence,flow.Sequence,4_69,2023-10-31T03:02:56.066Z,,0,,,3047.6089999999967,completion,,,,,false,,,,383389.60000002384,383389,380324.865,380321.2000000477,380341.391,383408.272,8,400,,,
trial,html.Screen,4_70_0,2023-10-31T03:02:59.432Z,,0,2,,3346.3280000238447,response,ISIC_0058666.JPG,7,ISIC_0010817.JPG,ISIC_0010817.JPG,false,0,keypress(z),500,386755.10000002384,386754.60000002384,383391.379,383389.90000009537,383408.272,386778.686,8,400,21,,ISIC_0058666.JPG
break,html.Screen,4_70_1,2023-10-31T03:02:59.433Z,,0,,,NaN,,,,,,false,,,,386756.8000000715,386756.40000009537,,386755.60000002384,,386778.686,8,400,,,
break_continue,html.Screen,4_70_2,2023-10-31T03:02:59.435Z,,0,,,NaN,,,,,,false,,,,386757.90000009537,386757.40000009537,,386757,,386778.686,8,400,,,
sequence,flow.Sequence,4_70,2023-10-31T03:02:59.435Z,,0,,,3349.12800009537,completion,,,,,false,,,,386758.3000000715,386757.40000009537,383391.379,383389.7000000477,383408.272,386778.686,8,400,,,
trial,html.Screen,4_71_0,2023-10-31T03:03:03.408Z,,0,2,,3951.5140000476968,response,ISIC_0025520.JPG,7,ISIC_8190708.JPG,ISIC_8190708.JPG,false,0,keypress(z),500,390731,390730.2000000477,386741.517,386758.60000002384,386778.686,390740.316,8,400,22,,ISIC_0025520.JPG
break,html.Screen,4_71_1,2023-10-31T03:03:03.410Z,,0,,,NaN,,,,,,false,,,,390732.90000009537,390732.3000000715,,390731.5,,390740.316,8,400,,,
break_continue,html.Screen,4_71_2,2023-10-31T03:03:03.411Z,,0,,,NaN,,,,,,false,,,,390733.90000009537,390733.60000002384,,390733.3000000715,,390740.316,8,400,,,
sequence,flow.Sequence,4_71,2023-10-31T03:03:03.411Z,,0,,,3954.914000023855,completion,,,,,false,,,,390734.2000000477,390733.60000002384,386741.517,386758.60000002384,386778.686,390740.316,8,400,,,
trial,html.Screen,4_72_0,2023-10-31T03:03:07.051Z,,0,2,,3633.1840000000084,response,ISIC_0062864.JPG,5,ISIC_0032726.JPG,ISIC_0062864.JPG,false,1,keypress(m),500,394374.10000002384,394373.5,390723.682,390734.5,390740.316,394392.237,8,400,23,,ISIC_0032726.JPG
break,html.Screen,4_72_1,2023-10-31T03:03:07.052Z,,0,,,NaN,,,,,,false,,,,394375.8000000715,394375.40000009537,,394374.60000002384,,394392.237,8,400,,,
break_continue,html.Screen,4_72_2,2023-10-31T03:03:07.053Z,,0,,,NaN,,,,,,false,,,,394376.7000000477,394376.40000009537,,394376.2000000477,,394392.237,8,400,,,
sequence,flow.Sequence,4_72,2023-10-31T03:03:07.054Z,,0,,,3636.084000095376,completion,,,,,false,,,,394377,394376.40000009537,390723.682,390734.40000009537,390740.316,394392.237,8,400,,,
trial,html.Screen,4_73_0,2023-10-31T03:03:12.967Z,,0,2,,5897.663000095345,response,ISIC_8806180.JPG,7,ISIC_6815524.JPG,ISIC_8806180.JPG,false,1,keypress(m),500,400290.5,400289.90000009537,394373.595,394377.3000000715,394392.237,400297.483,8,400,24,,ISIC_6815524.JPG
break,html.Screen,4_73_1,2023-10-31T03:03:12.969Z,,0,,,NaN,,,,,,false,,,,400292.10000002384,400291.7000000477,,400291,,400297.483,8,400,,,
break_continue,html.Screen,4_73_2,2023-10-31T03:03:12.970Z,,0,,,NaN,,,,,,false,,,,400292.8000000715,400292.60000002384,,400292.40000009537,,400297.483,8,400,,,
sequence,flow.Sequence,4_73,2023-10-31T03:03:12.970Z,,0,,,5900.363000023819,completion,,,,,false,,,,400293.3000000715,400292.60000002384,394373.595,394377.2000000477,394392.237,400297.483,8,400,,,
trial,html.Screen,4_74_0,2023-10-31T03:03:17.254Z,,0,2,,4279.41700009536,response,ISIC_0014349.JPG,9,ISIC_0032490.JPG,ISIC_0014349.JPG,false,1,keypress(m),500,404577.40000009537,404576.90000009537,400280.916,400293.60000002384,400297.483,404582.321,8,400,25,,ISIC_0032490.JPG
break,html.Screen,4_74_1,2023-10-31T03:03:17.256Z,,0,,,NaN,,,,,,false,,,,404579.10000002384,404578.7000000477,,404577.90000009537,,404582.321,8,400,,,
break_continue,html.Screen,4_74_2,2023-10-31T03:03:17.256Z,,0,,,NaN,,,,,,false,,,,404579.90000009537,404579.60000002384,,404579.3000000715,,404582.321,8,400,,,
sequence,flow.Sequence,4_74,2023-10-31T03:03:17.257Z,,0,,,4282.117000023834,completion,,,,,false,,,,404580.2000000477,404579.60000002384,400280.916,400293.5,400297.483,404582.321,8,400,,,
trial,html.Screen,4_75_0,2023-10-31T03:03:20.606Z,,0,2,,3346.2790000238456,response,ISIC_6239663.JPG,11,ISIC_0024271.JPG,ISIC_0024271.JPG,false,0,keypress(z),500,407929.40000009537,407928.60000002384,404565.95,404580.5,404582.321,407934.649,8,400,26,,ISIC_6239663.JPG
break,html.Screen,4_75_1,2023-10-31T03:03:20.608Z,,0,,,NaN,,,,,,false,,,,407931.3000000715,407930.7000000477,,407929.90000009537,,407934.649,8,400,,,
break_continue,html.Screen,4_75_2,2023-10-31T03:03:20.609Z,,0,,,NaN,,,,,,false,,,,407932.2000000477,407932,,407931.7000000477,,407934.649,8,400,,,
sequence,flow.Sequence,4_75,2023-10-31T03:03:20.609Z,,0,,,3349.6790000000037,completion,,,,,false,,,,407932.60000002384,407932,404565.95,404580.40000009537,404582.321,407934.649,8,400,,,
trial,html.Screen,4_76_0,2023-10-31T03:03:23.527Z,,0,2,,2915.451000023866,response,ISIC_1819071.JPG,6,ISIC_0000030.JPG,ISIC_1819071.JPG,false,1,keypress(m),500,410850.7000000477,410850.10000002384,407918.004,407932.90000009537,407934.649,410856.347,8,400,27,,ISIC_0000030.JPG
break,html.Screen,4_76_1,2023-10-31T03:03:23.529Z,,0,,,NaN,,,,,,false,,,,410852.3000000715,410852,,410851.2000000477,,410856.347,8,400,,,
break_continue,html.Screen,4_76_2,2023-10-31T03:03:23.530Z,,0,,,NaN,,,,,,false,,,,410853.60000002384,410852.90000009537,,410852.60000002384,,410856.347,8,400,,,
sequence,flow.Sequence,4_76,2023-10-31T03:03:23.531Z,,0,,,2918.2510000953916,completion,,,,,false,,,,410854.10000002384,410852.90000009537,407918.004,407932.90000009537,407934.649,410856.347,8,400,,,
trial,html.Screen,4_77_0,2023-10-31T03:03:27.152Z,,0,2,,3618.652999999991,response,ISIC_0025152.JPG,8,ISIC_2638895.JPG,ISIC_2638895.JPG,false,0,keypress(z),500,414475.7000000477,414475,410837.435,410854.40000009537,410856.347,414505.945,8,400,28,,ISIC_0025152.JPG
break,html.Screen,4_77_1,2023-10-31T03:03:27.154Z,,0,,,NaN,,,,,,false,,,,414477.40000009537,414477,,414476.3000000715,,414505.945,8,400,,,
break_continue,html.Screen,4_77_2,2023-10-31T03:03:27.155Z,,0,,,NaN,,,,,,false,,,,414478.2000000477,414477.90000009537,,414477.7000000477,,414505.945,8,400,,,
sequence,flow.Sequence,4_77,2023-10-31T03:03:27.155Z,,0,,,3621.5530000953586,completion,,,,,false,,,,414478.60000002384,414477.90000009537,410837.435,410854.3000000715,410856.347,414505.945,8,400,,,
trial,html.Screen,4_78_0,2023-10-31T03:03:32.841Z,,0,2,,5657.755000047677,response,ISIC_0033415.JPG,9,ISIC_0028878.JPG,ISIC_0033415.JPG,false,1,keypress(m),500,420164.2000000477,420163.7000000477,414489.144,414478.8000000715,414505.945,420172.776,8,400,29,,ISIC_0028878.JPG
break,html.Screen,4_78_1,2023-10-31T03:03:32.842Z,,0,,,NaN,,,,,,false,,,,420165.90000009537,420165.40000009537,,420164.7000000477,,420172.776,8,400,,,
break_continue,html.Screen,4_78_2,2023-10-31T03:03:32.843Z,,0,,,NaN,,,,,,false,,,,420166.8000000715,420166.40000009537,,420166.2000000477,,420172.776,8,400,,,
sequence,flow.Sequence,4_78,2023-10-31T03:03:32.844Z,,0,,,5660.45500009536,completion,,,,,false,,,,420167.3000000715,420166.40000009537,414489.144,414478.7000000477,414505.945,420172.776,8,400,,,
trial,html.Screen,4_79_0,2023-10-31T03:03:37.249Z,,0,2,,4399.324000023829,response,ISIC_0009975.JPG,11,ISIC_0003159.JPG,ISIC_0003159.JPG,false,0,keypress(z),500,424572.8000000715,424572.10000002384,420156.623,420167.5,420172.776,424588.325,8,400,30,,ISIC_0009975.JPG
break,html.Screen,4_79_1,2023-10-31T03:03:37.251Z,,0,,,NaN,,,,,,false,,,,424575.10000002384,424574.7000000477,,424574,,424588.325,8,400,,,
break_continue,html.Screen,4_79_2,2023-10-31T03:03:37.252Z,,0,,,NaN,,,,,,false,,,,424576,424575.7000000477,,424575.40000009537,,424588.325,8,400,,,
sequence,flow.Sequence,4_79,2023-10-31T03:03:37.253Z,,0,,,4402.924000047671,completion,,,,,false,,,,424576.40000009537,424575.7000000477,420156.623,420167.5,420172.776,424588.325,8,400,,,
trial,html.Screen,4_80_0,2023-10-31T03:03:40.350Z,,0,2,,3084.6749999999884,response,ISIC_3950753.JPG,8,ISIC_7329395.JPG,ISIC_3950753.JPG,false,1,keypress(m),500,427673.7000000477,427673,424572.12,424576.60000002384,424588.325,427690.816,8,400,31,,ISIC_7329395.JPG
break,html.Screen,4_80_1,2023-10-31T03:03:40.352Z,,0,,,NaN,,,,,,false,,,,427675.3000000715,427675,,427674.2000000477,,427690.816,8,400,,,
break_continue,html.Screen,4_80_2,2023-10-31T03:03:40.352Z,,0,,,NaN,,,,,,false,,,,427676.2000000477,427675.90000009537,,427675.7000000477,,427690.816,8,400,,,
sequence,flow.Sequence,4_80,2023-10-31T03:03:40.353Z,,0,,,3087.575000095356,completion,,,,,false,,,,427676.5,427675.90000009537,424572.12,424576.5,424588.325,427690.816,8,400,,,
trial,html.Screen,4_81_0,2023-10-31T03:03:43.963Z,,0,2,,3595.584000095376,response,ISIC_8855790.JPG,11,ISIC_9905633.JPG,ISIC_9905633.JPG,false,0,keypress(z),500,431287.10000002384,431286.40000009537,427674.515,427676.8000000715,427690.816,431290.296,8,400,32,,ISIC_8855790.JPG
break,html.Screen,4_81_1,2023-10-31T03:03:43.965Z,,0,,,NaN,,,,,,false,,,,431288.8000000715,431288.40000009537,,431287.60000002384,,431290.296,8,400,,,
break_continue,html.Screen,4_81_2,2023-10-31T03:03:43.966Z,,0,,,NaN,,,,,,false,,,,431289.7000000477,431289.3000000715,,431289,,431290.296,8,400,,,
sequence,flow.Sequence,4_81,2023-10-31T03:03:43.966Z,,0,,,3598.484000071534,completion,,,,,false,,,,431290,431289.3000000715,427674.515,427676.7000000477,427690.816,431290.296,8,400,,,
trial,html.Screen,4_82_0,2023-10-31T03:03:47.627Z,,0,2,,3659.704000000027,response,ISIC_0064406.JPG,9,ISIC_0011649.JPG,ISIC_0011649.JPG,false,0,keypress(z),500,434950.7000000477,434950,431273.948,431290.3000000715,431290.296,434958.969,8,400,33,,ISIC_0064406.JPG
break,html.Screen,4_82_1,2023-10-31T03:03:47.629Z,,0,,,NaN,,,,,,false,,,,434952.40000009537,434952,,434951.2000000477,,434958.969,8,400,,,
break_continue,html.Screen,4_82_2,2023-10-31T03:03:47.630Z,,0,,,NaN,,,,,,false,,,,434953.2000000477,434953,,434952.7000000477,,434958.969,8,400,,,
sequence,flow.Sequence,4_82,2023-10-31T03:03:47.630Z,,0,,,3662.704000000027,completion,,,,,false,,,,434953.7000000477,434953,431273.948,431290.2000000477,431290.296,434958.969,8,400,,,
trial,html.Screen,4_83_0,2023-10-31T03:03:52.265Z,,0,2,,4628.731000047701,response,ISIC_5287679.JPG,6,ISIC_5422940.JPG,ISIC_5287679.JPG,false,1,keypress(m),500,439588.5,439587.7000000477,434942.391,434953.90000009537,434958.969,439610.651,8,400,34,,ISIC_5422940.JPG
break,html.Screen,4_83_1,2023-10-31T03:03:52.266Z,,0,,,NaN,,,,,,false,,,,439590.10000002384,439589.7000000477,,439589,,439610.651,8,400,,,
break_continue,html.Screen,4_83_2,2023-10-31T03:03:52.267Z,,0,,,NaN,,,,,,false,,,,439590.90000009537,439590.7000000477,,439590.40000009537,,439610.651,8,400,,,
sequence,flow.Sequence,4_83,2023-10-31T03:03:52.268Z,,0,,,4631.731000047701,completion,,,,,false,,,,439591.3000000715,439590.7000000477,434942.391,434953.90000009537,434958.969,439610.651,8,400,,,
trial,html.Screen,4_84_0,2023-10-31T03:04:00.007Z,,0,2,,7718.848999999987,response,ISIC_4973549.JPG,11,ISIC_2506200.JPG,ISIC_2506200.JPG,false,0,keypress(z),500,447330.2000000477,447329.5,439574.621,439591.5,439610.651,447347.158,8,400,35,,ISIC_4973549.JPG
break,html.Screen,4_84_1,2023-10-31T03:04:00.008Z,,0,,,NaN,,,,,,false,,,,447331.90000009537,447331.5,,447330.7000000477,,447347.158,8,400,,,
break_continue,html.Screen,4_84_2,2023-10-31T03:04:00.009Z,,0,,,NaN,,,,,,false,,,,447332.7000000477,447332.5,,447332.2000000477,,447347.158,8,400,,,
sequence,flow.Sequence,4_84,2023-10-31T03:04:00.009Z,,0,,,7721.848999999987,completion,,,,,false,,,,447333.10000002384,447332.5,439574.621,439591.5,439610.651,447347.158,8,400,,,
trial,html.Screen,4_85_0,2023-10-31T03:04:03.823Z,,0,2,,3799.442000023846,response,ISIC_5919355.JPG,6,ISIC_0067458.JPG,ISIC_5919355.JPG,false,1,keypress(m),500,451147.2000000477,451146.60000002384,447330.618,447333.40000009537,447347.158,451163.232,8,400,36,,ISIC_0067458.JPG
break,html.Screen,4_85_1,2023-10-31T03:04:03.825Z,,0,,,NaN,,,,,,false,,,,451148.8000000715,451148.5,,451147.7000000477,,451163.232,8,400,,,
break_continue,html.Screen,4_85_2,2023-10-31T03:04:03.826Z,,0,,,NaN,,,,,,false,,,,451149.8000000715,451149.5,,451149.10000002384,,451163.232,8,400,,,
sequence,flow.Sequence,4_85,2023-10-31T03:04:03.826Z,,0,,,3802.342000000004,completion,,,,,false,,,,451150.10000002384,451149.5,447330.618,447333.3000000715,447347.158,451163.232,8,400,,,
trial,html.Screen,4_86_0,2023-10-31T03:04:09.177Z,,0,2,,5336.668000095349,response,ISIC_0061343.JPG,6,ISIC_8368872.JPG,ISIC_8368872.JPG,false,0,keypress(z),500,456500.5,456499.90000009537,451146.565,451150.3000000715,451163.232,456504.762,8,400,37,,ISIC_0061343.JPG
break,html.Screen,4_86_1,2023-10-31T03:04:09.178Z,,0,,,NaN,,,,,,false,,,,456502.2000000477,456501.7000000477,,456501,,456504.762,8,400,,,
break_continue,html.Screen,4_86_2,2023-10-31T03:04:09.179Z,,0,,,NaN,,,,,,false,,,,456503,456502.7000000477,,456502.40000009537,,456504.762,8,400,,,
sequence,flow.Sequence,4_86,2023-10-31T03:04:09.180Z,,0,,,5339.468000047666,completion,,,,,false,,,,456503.5,456502.7000000477,451146.565,451150.2000000477,451163.232,456504.762,8,400,,,
trial,html.Screen,4_87_0,2023-10-31T03:04:12.417Z,,0,2,,3235.6380000953795,response,ISIC_0046331.JPG,5,ISIC_0028211.JPG,ISIC_0046331.JPG,false,1,keypress(m),500,459741.10000002384,459740.40000009537,456488.281,456503.8000000715,456504.762,459754.372,8,400,38,,ISIC_0028211.JPG
break,html.Screen,4_87_1,2023-10-31T03:04:12.419Z,,0,,,NaN,,,,,,false,,,,459742.7000000477,459742.40000009537,,459741.60000002384,,459754.372,8,400,,,
break_continue,html.Screen,4_87_2,2023-10-31T03:04:12.420Z,,0,,,NaN,,,,,,false,,,,459743.5,459743.3000000715,,459743,,459754.372,8,400,,,
sequence,flow.Sequence,4_87,2023-10-31T03:04:12.420Z,,0,,,3238.5380000715377,completion,,,,,false,,,,459743.90000009537,459743.3000000715,456488.281,456503.7000000477,456504.762,459754.372,8,400,,,
trial,html.Screen,4_88_0,2023-10-31T03:04:15.807Z,,0,2,,3375.9280000715517,response,ISIC_0046773.JPG,13,ISIC_0101540.JPG,ISIC_0101540.JPG,false,0,keypress(z),500,463130.90000009537,463130.3000000715,459737.935,459744.10000002384,459754.372,463137.762,8,400,39,,ISIC_0046773.JPG
break,html.Screen,4_88_1,2023-10-31T03:04:15.809Z,,0,,,NaN,,,,,,false,,,,463132.5,463132.10000002384,,463131.3000000715,,463137.762,8,400,,,
break_continue,html.Screen,4_88_2,2023-10-31T03:04:15.810Z,,0,,,NaN,,,,,,false,,,,463133.3000000715,463133,,463132.8000000715,,463137.762,8,400,,,
sequence,flow.Sequence,4_88,2023-10-31T03:04:15.810Z,,0,,,3378.628000000026,completion,,,,,false,,,,463133.7000000477,463133,459737.935,459744,459754.372,463137.762,8,400,,,
trial,html.Screen,4_89_0,2023-10-31T03:04:19.485Z,,0,2,,3670.438000047696,response,ISIC_0766328.JPG,8,ISIC_0034232.JPG,ISIC_0034232.JPG,false,0,keypress(z),500,466808.7000000477,466808.2000000477,463120.825,463133.8000000715,463137.762,466818.005,8,400,40,,ISIC_0766328.JPG
break,html.Screen,4_89_1,2023-10-31T03:04:19.487Z,,0,,,NaN,,,,,,false,,,,466811.10000002384,466810.3000000715,,466809.3000000715,,466818.005,8,400,,,
break_continue,html.Screen,4_89_2,2023-10-31T03:04:19.488Z,,0,,,NaN,,,,,,false,,,,466812,466811.7000000477,,466811.3000000715,,466818.005,8,400,,,
sequence,flow.Sequence,4_89,2023-10-31T03:04:19.489Z,,0,,,3673.938000047696,completion,,,,,false,,,,466812.40000009537,466811.7000000477,463120.825,463133.8000000715,463137.762,466818.005,8,400,,,
trial,html.Screen,4_90_0,2023-10-31T03:04:22.863Z,,0,2,,3367.9949999999953,response,ISIC_0063601.JPG,10,ISIC_0693902.JPG,ISIC_0693902.JPG,false,0,keypress(z),500,470186.8000000715,470186,466801.507,466812.60000002384,466818.005,470210.344,8,400,41,,ISIC_0063601.JPG
break,html.Screen,4_90_1,2023-10-31T03:04:22.865Z,,0,,,NaN,,,,,,false,,,,470188.5,470188.10000002384,,470187.3000000715,,470210.344,8,400,,,
break_continue,html.Screen,4_90_2,2023-10-31T03:04:22.866Z,,0,,,NaN,,,,,,false,,,,470189.3000000715,470189,,470188.8000000715,,470210.344,8,400,,,
sequence,flow.Sequence,4_90,2023-10-31T03:04:22.866Z,,0,,,3370.9949999999953,completion,,,,,false,,,,470189.7000000477,470189,466801.507,466812.60000002384,466818.005,470210.344,8,400,,,
trial,html.Screen,4_91_0,2023-10-31T03:04:26.686Z,,0,2,,3798.756000023859,response,ISIC_0060091.JPG,13,ISIC_1432058.JPG,ISIC_1432058.JPG,false,0,keypress(z),500,474009.7000000477,474009.10000002384,470172.981,470189.90000009537,470210.344,474015.334,8,400,42,,ISIC_0060091.JPG
break,html.Screen,4_91_1,2023-10-31T03:04:26.688Z,,0,,,NaN,,,,,,false,,,,474011.40000009537,474011,,474010.2000000477,,474015.334,8,400,,,
break_continue,html.Screen,4_91_2,2023-10-31T03:04:26.689Z,,0,,,NaN,,,,,,false,,,,474012.40000009537,474012.10000002384,,474011.7000000477,,474015.334,8,400,,,
sequence,flow.Sequence,4_91,2023-10-31T03:04:26.689Z,,0,,,3801.756000023859,completion,,,,,false,,,,474012.8000000715,474012.10000002384,470172.981,470189.90000009537,470210.344,474015.334,8,400,,,
trial,html.Screen,4_92_0,2023-10-31T03:04:32.714Z,,0,2,,6021.86600004771,response,ISIC_2736880.JPG,6,ISIC_2532039.JPG,ISIC_2532039.JPG,false,0,keypress(z),500,480037.7000000477,480037.2000000477,473998.751,474013.10000002384,474015.334,480042.045,8,400,43,,ISIC_2736880.JPG
break,html.Screen,4_92_1,2023-10-31T03:04:32.716Z,,0,,,NaN,,,,,,false,,,,480039.40000009537,480039,,480038.2000000477,,480042.045,8,400,,,
break_continue,html.Screen,4_92_2,2023-10-31T03:04:32.717Z,,0,,,NaN,,,,,,false,,,,480040.3000000715,480040,,480039.7000000477,,480042.045,8,400,,,
sequence,flow.Sequence,4_92,2023-10-31T03:04:32.717Z,,0,,,6024.6660000000265,completion,,,,,false,,,,480040.7000000477,480040,473998.751,474013,474015.334,480042.045,8,400,,,
trial,html.Screen,4_93_0,2023-10-31T03:04:38.932Z,,0,2,,6212.255000071542,response,ISIC_0010432.JPG,6,ISIC_0032360.JPG,ISIC_0032360.JPG,false,0,keypress(z),500,486255.2000000477,486254.3000000715,480025.54,480040.90000009537,480042.045,486263.729,8,400,44,,ISIC_0010432.JPG
break,html.Screen,4_93_1,2023-10-31T03:04:38.933Z,,0,,,NaN,,,,,,false,,,,486257,486256.5,,486255.7000000477,,486263.729,8,400,,,
break_continue,html.Screen,4_93_2,2023-10-31T03:04:38.934Z,,0,,,NaN,,,,,,false,,,,486257.90000009537,486257.7000000477,,486257.40000009537,,486263.729,8,400,,,
sequence,flow.Sequence,4_93,2023-10-31T03:04:38.935Z,,0,,,6215.6550000477,completion,,,,,false,,,,486258.3000000715,486257.7000000477,480025.54,480040.90000009537,480042.045,486263.729,8,400,,,
trial,html.Screen,4_94_0,2023-10-31T03:04:42.897Z,,0,2,,3956.1710000953753,response,ISIC_3649113.JPG,9,ISIC_0054559.JPG,ISIC_3649113.JPG,false,1,keypress(m),500,490220.7000000477,490219.90000009537,486244.839,486258.60000002384,486263.729,490229.505,8,400,45,,ISIC_0054559.JPG
break,html.Screen,4_94_1,2023-10-31T03:04:42.899Z,,0,,,NaN,,,,,,false,,,,490222.3000000715,490221.90000009537,,490221.10000002384,,490229.505,8,400,,,
break_continue,html.Screen,4_94_2,2023-10-31T03:04:42.900Z,,0,,,NaN,,,,,,false,,,,490223.10000002384,490222.8000000715,,490222.60000002384,,490229.505,8,400,,,
sequence,flow.Sequence,4_94,2023-10-31T03:04:42.900Z,,0,,,3959.0710000715335,completion,,,,,false,,,,490223.5,490222.8000000715,486244.839,486258.60000002384,486263.729,490229.505,8,400,,,
trial,html.Screen,4_95_0,2023-10-31T03:04:45.933Z,,0,2,,3026.295000071521,response,ISIC_8158081.JPG,11,ISIC_0060962.JPG,ISIC_8158081.JPG,false,1,keypress(m),500,493256.7000000477,493255.8000000715,490213.245,490223.7000000477,490229.505,493265.323,8,400,46,,ISIC_0060962.JPG
break,html.Screen,4_95_1,2023-10-31T03:04:45.935Z,,0,,,NaN,,,,,,false,,,,493258.7000000477,493258.2000000477,,493257.40000009537,,493265.323,8,400,,,
break_continue,html.Screen,4_95_2,2023-10-31T03:04:45.936Z,,0,,,NaN,,,,,,false,,,,493260,493259.60000002384,,493259.3000000715,,493265.323,8,400,,,
sequence,flow.Sequence,4_95,2023-10-31T03:04:45.937Z,,0,,,3030.095000023837,completion,,,,,false,,,,493260.40000009537,493259.60000002384,490213.245,490223.7000000477,490229.505,493265.323,8,400,,,
trial,html.Screen,4_96_0,2023-10-31T03:04:49.294Z,,0,2,,3351.177000000025,response,ISIC_8740331.JPG,13,ISIC_0014809.JPG,ISIC_8740331.JPG,false,1,keypress(m),500,496617.2000000477,496616.5,493249.079,493260.7000000477,493265.323,496634.314,8,400,47,,ISIC_0014809.JPG
break,html.Screen,4_96_1,2023-10-31T03:04:49.295Z,,0,,,NaN,,,,,,false,,,,496618.90000009537,496618.5,,496617.7000000477,,496634.314,8,400,,,
break_continue,html.Screen,4_96_2,2023-10-31T03:04:49.296Z,,0,,,NaN,,,,,,false,,,,496619.7000000477,496619.5,,496619.2000000477,,496634.314,8,400,,,
sequence,flow.Sequence,4_96,2023-10-31T03:04:49.296Z,,0,,,3354.177000000025,completion,,,,,false,,,,496620.10000002384,496619.5,493249.079,493260.60000002384,493265.323,496634.314,8,400,,,
trial,html.Screen,4_97_0,2023-10-31T03:04:51.927Z,,0,2,,2615.4860000715125,response,ISIC_1072321.JPG,5,ISIC_0011951.JPG,ISIC_1072321.JPG,false,1,keypress(m),500,499250.40000009537,499249.8000000715,496617.929,496620.40000009537,496634.314,499253.933,8,400,48,,ISIC_0011951.JPG
break,html.Screen,4_97_1,2023-10-31T03:04:51.928Z,,0,,,NaN,,,,,,false,,,,499252,499251.60000002384,,499250.8000000715,,499253.933,8,400,,,
break_continue,html.Screen,4_97_2,2023-10-31T03:04:51.929Z,,0,,,NaN,,,,,,false,,,,499253,499252.5,,499252.3000000715,,499253.933,8,400,,,
sequence,flow.Sequence,4_97,2023-10-31T03:04:51.930Z,,0,,,2618.185999999987,completion,,,,,false,,,,499253.40000009537,499252.5,496617.929,496620.2000000477,496634.314,499253.933,8,400,,,
trial,html.Screen,4_98_0,2023-10-31T03:04:55.072Z,,0,2,,3141.2670000476646,response,ISIC_2410240.JPG,6,ISIC_0027252.JPG,ISIC_2410240.JPG,false,1,keypress(m),500,502395.8000000715,502395.2000000477,499237.562,499253.7000000477,499253.933,502403.668,8,400,49,,ISIC_0027252.JPG
break,html.Screen,4_98_1,2023-10-31T03:04:55.074Z,,0,,,NaN,,,,,,false,,,,502397.60000002384,502397.2000000477,,502396.40000009537,,502403.668,8,400,,,
break_continue,html.Screen,4_98_2,2023-10-31T03:04:55.075Z,,0,,,NaN,,,,,,false,,,,502398.7000000477,502398.3000000715,,502397.90000009537,,502403.668,8,400,,,
sequence,flow.Sequence,4_98,2023-10-31T03:04:55.076Z,,0,,,3144.3670000715065,completion,,,,,false,,,,502399.40000009537,502398.3000000715,499237.562,499253.5,499253.933,502403.668,8,400,,,
trial,html.Screen,4_99_0,2023-10-31T03:04:58.491Z,,0,2,,3409.9320000238367,response,ISIC_0057787.JPG,6,ISIC_7539727.JPG,ISIC_7539727.JPG,false,0,keypress(z),500,505814.2000000477,505813.60000002384,502385.007,502399.7000000477,502403.668,505827.468,8,400,50,,ISIC_0057787.JPG
break,html.Screen,4_99_1,2023-10-31T03:05:08.482Z,,0,,,9992.00800000003,timeout,,,,,false,,,,515805.3000000715,515803.141,505811.113,505814.60000002384,505827.468,515819.476,8,400,,,
break_continue,html.Screen,4_99_2,2023-10-31T03:05:11.963Z,,0,,,3416.424000095343,response,,,,,false,continue,keypress(Space),,519287,519235.90000009537,515803.141,515805.7000000477,515819.476,519312.365,8,400,,,
sequence,flow.Sequence,4_99,2023-10-31T03:05:11.964Z,,0,,,16832.232000095362,completion,,,,,false,,,,519287.5,519235.90000009537,502385.007,502399.60000002384,502403.668,519312.365,8,400,,,
trial,html.Screen,4_100_0,2023-10-31T03:05:15.108Z,,0,3,,3118.5350000953767,response,ISIC_0064066.JPG,9,ISIC_1911193.JPG,ISIC_1911193.JPG,false,0,keypress(z),500,522431.5,522430.90000009537,519283.383,519287.90000009537,519312.365,522443.155,8,400,1,,ISIC_0064066.JPG
break,html.Screen,4_100_1,2023-10-31T03:05:15.110Z,,0,,,NaN,,,,,,false,,,,522433.10000002384,522432.7000000477,,522432,,522443.155,8,400,,,
break_continue,html.Screen,4_100_2,2023-10-31T03:05:15.110Z,,0,,,NaN,,,,,,false,,,,522434,522433.8000000715,,522433.40000009537,,522443.155,8,400,,,
sequence,flow.Sequence,4_100,2023-10-31T03:05:15.111Z,,0,,,3121.435000071535,completion,,,,,false,,,,522434.40000009537,522433.8000000715,519283.383,519287.8000000715,519312.365,522443.155,8,400,,,
trial,html.Screen,4_101_0,2023-10-31T03:05:17.987Z,,0,3,,2866.344999999972,response,ISIC_0028930.JPG,9,ISIC_1037945.JPG,ISIC_1037945.JPG,false,0,keypress(z),500,525310.2000000477,525309.5,522423.991,522434.60000002384,522443.155,525345.746,8,400,2,,ISIC_0028930.JPG
break,html.Screen,4_101_1,2023-10-31T03:05:17.988Z,,0,,,NaN,,,,,,false,,,,525311.9000000954,525311.5,,525310.7000000477,,525345.746,8,400,,,
break_continue,html.Screen,4_101_2,2023-10-31T03:05:17.989Z,,0,,,NaN,,,,,,false,,,,525313,525312.7000000477,,525312.4000000954,,525345.746,8,400,,,
sequence,flow.Sequence,4_101,2023-10-31T03:05:17.990Z,,0,,,2869.545000047656,completion,,,,,false,,,,525313.3000000715,525312.7000000477,522423.991,522434.60000002384,522443.155,525345.746,8,400,,,
trial,html.Screen,4_102_0,2023-10-31T03:05:22.411Z,,0,3,,4388.454000047641,response,ISIC_0029389.JPG,6,ISIC_4614129.JPG,ISIC_0029389.JPG,false,1,keypress(m),500,529734.7000000477,529734.2000000477,525329.249,525313.5,525345.746,529752.026,8,400,3,,ISIC_4614129.JPG
break,html.Screen,4_102_1,2023-10-31T03:05:22.413Z,,0,,,NaN,,,,,,false,,,,529736.6000000238,529736.1000000238,,529735.3000000715,,529752.026,8,400,,,
break_continue,html.Screen,4_102_2,2023-10-31T03:05:22.414Z,,0,,,NaN,,,,,,false,,,,529737.5,529737.3000000715,,529737,,529752.026,8,400,,,
sequence,flow.Sequence,4_102,2023-10-31T03:05:22.414Z,,0,,,4391.554000071483,completion,,,,,false,,,,529737.9000000954,529737.3000000715,525329.249,525313.5,525345.746,529752.026,8,400,,,
trial,html.Screen,4_103_0,2023-10-31T03:05:26.675Z,,0,3,,4246.0740000238875,response,ISIC_0033399.JPG,8,ISIC_0025231.JPG,ISIC_0033399.JPG,false,1,keypress(m),500,533998.7000000477,533998.1000000238,529732.819,529738.2000000477,529752.026,534008.641,8,400,4,,ISIC_0025231.JPG
break,html.Screen,4_103_1,2023-10-31T03:05:26.677Z,,0,,,NaN,,,,,,false,,,,534000.5,534000.1000000238,,533999.3000000715,,534008.641,8,400,,,
break_continue,html.Screen,4_103_2,2023-10-31T03:05:26.678Z,,0,,,NaN,,,,,,false,,,,534001.4000000954,534001.1000000238,,534000.8000000715,,534008.641,8,400,,,
sequence,flow.Sequence,4_103,2023-10-31T03:05:26.678Z,,0,,,4249.0740000238875,completion,,,,,false,,,,534001.9000000954,534001.1000000238,529732.819,529738.1000000238,529752.026,534008.641,8,400,,,
trial,html.Screen,4_104_0,2023-10-31T03:05:31.617Z,,0,3,,4931.1590000715805,response,ISIC_1131588.JPG,13,ISIC_1772828.JPG,ISIC_1131588.JPG,false,1,keypress(m),500,538940.3000000715,538939.8000000715,533992.075,534002.1000000238,534008.641,538950.433,8,400,5,,ISIC_1772828.JPG
break,html.Screen,4_104_1,2023-10-31T03:05:31.618Z,,0,,,NaN,,,,,,false,,,,538942,538941.6000000238,,538940.8000000715,,538950.433,8,400,,,
break_continue,html.Screen,4_104_2,2023-10-31T03:05:31.619Z,,0,,,NaN,,,,,,false,,,,538942.8000000715,538942.6000000238,,538942.2000000477,,538950.433,8,400,,,
sequence,flow.Sequence,4_104,2023-10-31T03:05:31.620Z,,0,,,4933.959000023897,completion,,,,,false,,,,538943.2000000477,538942.6000000238,533992.075,534002,534008.641,538950.433,8,400,,,
trial,html.Screen,4_105_0,2023-10-31T03:05:35.148Z,,0,3,,3520.267000047723,response,ISIC_2309744.JPG,7,ISIC_7976724.JPG,ISIC_7976724.JPG,false,0,keypress(z),500,542471.2000000477,542470.7000000477,538931.653,538943.4000000954,538950.433,542476.809,8,400,6,,ISIC_2309744.JPG
break,html.Screen,4_105_1,2023-10-31T03:05:35.150Z,,0,,,NaN,,,,,,false,,,,542472.9000000954,542472.4000000954,,542471.7000000477,,542476.809,8,400,,,
break_continue,html.Screen,4_105_2,2023-10-31T03:05:35.150Z,,0,,,NaN,,,,,,false,,,,542473.8000000715,542473.5,,542473.1000000238,,542476.809,8,400,,,
sequence,flow.Sequence,4_105,2023-10-31T03:05:35.151Z,,0,,,3523.067000000039,completion,,,,,false,,,,542474.1000000238,542473.5,538931.653,538943.3000000715,538950.433,542476.809,8,400,,,
trial,html.Screen,4_106_0,2023-10-31T03:05:40.043Z,,0,3,,4888.391000047675,response,ISIC_7302456.JPG,4,ISIC_8362891.JPG,ISIC_8362891.JPG,false,0,keypress(z),500,547365.9000000954,547365.2000000477,542457.63,542474.4000000954,542476.809,547382.856,8,400,7,,ISIC_7302456.JPG
break,html.Screen,4_106_1,2023-10-31T03:05:40.044Z,,0,,,NaN,,,,,,false,,,,547367.6000000238,547367.1000000238,,547366.4000000954,,547382.856,8,400,,,
break_continue,html.Screen,4_106_2,2023-10-31T03:05:40.045Z,,0,,,NaN,,,,,,false,,,,547368.5,547368.1000000238,,547367.8000000715,,547382.856,8,400,,,
sequence,flow.Sequence,4_106,2023-10-31T03:05:40.046Z,,0,,,4891.2910000238335,completion,,,,,false,,,,547368.9000000954,547368.1000000238,542457.63,542474.3000000715,542476.809,547382.856,8,400,,,
trial,html.Screen,4_107_0,2023-10-31T03:05:43.555Z,,0,3,,3494.5440000953386,response,ISIC_0002811.JPG,10,ISIC_0026247.JPG,ISIC_0002811.JPG,false,1,keypress(m),500,550878.1000000238,550877.4000000954,547363.67,547369.2000000477,547382.856,550882.266,8,400,8,,ISIC_0026247.JPG
break,html.Screen,4_107_1,2023-10-31T03:05:43.556Z,,0,,,NaN,,,,,,false,,,,550879.8000000715,550879.4000000954,,550878.5,,550882.266,8,400,,,
break_continue,html.Screen,4_107_2,2023-10-31T03:05:43.557Z,,0,,,NaN,,,,,,false,,,,550880.5,550880.2000000477,,550880,,550882.266,8,400,,,
sequence,flow.Sequence,4_107,2023-10-31T03:05:43.561Z,,0,,,3497.344000047655,completion,,,,,false,,,,550884.2000000477,550880.2000000477,547363.67,547369.1000000238,547382.856,550882.266,8,400,,,
trial,html.Screen,4_108_0,2023-10-31T03:05:47.014Z,,0,3,,3454.234000000055,response,ISIC_0033692.JPG,8,ISIC_0026692.JPG,ISIC_0033692.JPG,false,1,keypress(m),500,554337.1000000238,554336.5,550865.57,550884.7000000477,550882.266,554348.729,8,400,9,,ISIC_0026692.JPG
break,html.Screen,4_108_1,2023-10-31T03:05:47.015Z,,0,,,NaN,,,,,,false,,,,554338.8000000715,554338.4000000954,,554337.6000000238,,554348.729,8,400,,,
break_continue,html.Screen,4_108_2,2023-10-31T03:05:47.016Z,,0,,,NaN,,,,,,false,,,,554339.6000000238,554339.3000000715,,554339,,554348.729,8,400,,,
sequence,flow.Sequence,4_108,2023-10-31T03:05:47.017Z,,0,,,3457.0340000715805,completion,,,,,false,,,,554340,554339.3000000715,550865.57,550884.6000000238,550882.266,554348.729,8,400,,,
trial,html.Screen,4_109_0,2023-10-31T03:05:50.525Z,,0,3,,3499.2709999999497,response,ISIC_0011869.JPG,6,ISIC_7077047.JPG,ISIC_7077047.JPG,false,0,keypress(z),500,557848.7000000477,557848,554332.272,554340.2000000477,554348.729,557864.88,8,400,10,,ISIC_0011869.JPG
break,html.Screen,4_109_1,2023-10-31T03:05:50.527Z,,0,,,NaN,,,,,,false,,,,557850.4000000954,557849.9000000954,,557849.1000000238,,557864.88,8,400,,,
break_continue,html.Screen,4_109_2,2023-10-31T03:05:50.528Z,,0,,,NaN,,,,,,false,,,,557851.6000000238,557851.2000000477,,557850.8000000715,,557864.88,8,400,,,
sequence,flow.Sequence,4_109,2023-10-31T03:05:50.529Z,,0,,,3502.4710000476334,completion,,,,,false,,,,557851.9000000954,557851.2000000477,554332.272,554340.1000000238,554348.729,557864.88,8,400,,,
trial,html.Screen,4_110_0,2023-10-31T03:05:54.774Z,,0,3,,4232.119999999995,response,ISIC_2203239.JPG,13,ISIC_0024307.JPG,ISIC_2203239.JPG,false,1,keypress(m),500,562097.6000000238,562097,557848.6,557852.2000000477,557864.88,562116.597,8,400,11,,ISIC_0024307.JPG
break,html.Screen,4_110_1,2023-10-31T03:05:54.776Z,,0,,,NaN,,,,,,false,,,,562099.1000000238,562098.8000000715,,562098,,562116.597,8,400,,,
break_continue,html.Screen,4_110_2,2023-10-31T03:05:54.777Z,,0,,,NaN,,,,,,false,,,,562100,562099.8000000715,,562099.4000000954,,562116.597,8,400,,,
sequence,flow.Sequence,4_110,2023-10-31T03:05:54.777Z,,0,,,4234.920000071521,completion,,,,,false,,,,562100.5,562099.8000000715,557848.6,557852.1000000238,557864.88,562116.597,8,400,,,
trial,html.Screen,4_111_0,2023-10-31T03:05:57.582Z,,0,3,,2788.203000071575,response,ISIC_0883408.JPG,13,ISIC_1470250.JPG,ISIC_0883408.JPG,false,1,keypress(m),500,564905.3000000715,564904.8000000715,562097.449,562100.8000000715,562116.597,564914.129,8,400,12,,ISIC_1470250.JPG
break,html.Screen,4_111_1,2023-10-31T03:05:57.584Z,,0,,,NaN,,,,,,false,,,,564907,564906.6000000238,,564905.8000000715,,564914.129,8,400,,,
break_continue,html.Screen,4_111_2,2023-10-31T03:05:57.585Z,,0,,,NaN,,,,,,false,,,,564907.8000000715,564907.6000000238,,564907.3000000715,,564914.129,8,400,,,
sequence,flow.Sequence,4_111,2023-10-31T03:05:57.585Z,,0,,,2791.003000023891,completion,,,,,false,,,,564908.2000000477,564907.6000000238,562097.449,562100.7000000477,562116.597,564914.129,8,400,,,
trial,html.Screen,4_112_0,2023-10-31T03:06:00.937Z,,0,3,,3345.2710000954103,response,ISIC_4055361.JPG,6,ISIC_4087267.JPG,ISIC_4087267.JPG,false,0,keypress(z),500,568260.4000000954,568259.4000000954,564897.715,564908.5,564914.129,568263.895,8,400,13,,ISIC_4055361.JPG
break,html.Screen,4_112_1,2023-10-31T03:06:00.939Z,,0,,,NaN,,,,,,false,,,,568262,568261.6000000238,,568260.9000000954,,568263.895,8,400,,,
break_continue,html.Screen,4_112_2,2023-10-31T03:06:00.939Z,,0,,,NaN,,,,,,false,,,,568262.8000000715,568262.5,,568262.3000000715,,568263.895,8,400,,,
sequence,flow.Sequence,4_112,2023-10-31T03:06:00.940Z,,0,,,3348.371000000043,completion,,,,,false,,,,568263.2000000477,568262.5,564897.715,564908.4000000954,564914.129,568263.895,8,400,,,
trial,html.Screen,4_113_0,2023-10-31T03:06:04.919Z,,0,3,,3978.2050000238232,response,ISIC_0004015.JPG,15,ISIC_0033044.JPG,ISIC_0004015.JPG,false,1,keypress(m),500,572242.7000000477,572242.1000000238,568247.417,568263.4000000954,568263.895,572258.876,8,400,14,,ISIC_0033044.JPG
break,html.Screen,4_113_1,2023-10-31T03:06:04.921Z,,0,,,NaN,,,,,,false,,,,572244.4000000954,572243.9000000954,,572243.2000000477,,572258.876,8,400,,,
break_continue,html.Screen,4_113_2,2023-10-31T03:06:04.923Z,,0,,,NaN,,,,,,false,,,,572246,572245.6000000238,,572245.2000000477,,572258.876,8,400,,,
sequence,flow.Sequence,4_113,2023-10-31T03:06:04.923Z,,0,,,3981.7050000238232,completion,,,,,false,,,,572246.5,572245.6000000238,568247.417,568263.3000000715,568263.895,572258.876,8,400,,,
trial,html.Screen,4_114_0,2023-10-31T03:06:09.281Z,,0,3,,4345.324000047636,response,ISIC_0014975.JPG,6,ISIC_3690890.JPG,ISIC_3690890.JPG,false,0,keypress(z),500,576604.7000000477,576604.2000000477,572242.607,572246.7000000477,572258.876,576607.823,8,400,15,,ISIC_0014975.JPG
break,html.Screen,4_114_1,2023-10-31T03:06:09.283Z,,0,,,NaN,,,,,,false,,,,576605.9000000954,576605.6000000238,,576605,,576607.823,8,400,,,
break_continue,html.Screen,4_114_2,2023-10-31T03:06:09.283Z,,0,,,NaN,,,,,,false,,,,576606.5,576606.3000000715,,576606.2000000477,,576607.823,8,400,,,
sequence,flow.Sequence,4_114,2023-10-31T03:06:09.284Z,,0,,,4347.424000071478,completion,,,,,false,,,,576606.8000000715,576606.3000000715,572242.607,572246.7000000477,572258.876,576607.823,8,400,,,
trial,html.Screen,4_115_0,2023-10-31T03:06:12.792Z,,0,3,,3506.877000047709,response,ISIC_0029508.JPG,4,ISIC_0065518.JPG,ISIC_0029508.JPG,false,1,keypress(m),500,580115.2000000477,580114.7000000477,576591.416,576607,576607.823,580131.476,8,400,16,,ISIC_0065518.JPG
break,html.Screen,4_115_1,2023-10-31T03:06:12.794Z,,0,,,NaN,,,,,,false,,,,580116.9000000954,580116.5,,580115.7000000477,,580131.476,8,400,,,
break_continue,html.Screen,4_115_2,2023-10-31T03:06:12.794Z,,0,,,NaN,,,,,,false,,,,580117.6000000238,580117.4000000954,,580117.2000000477,,580131.476,8,400,,,
sequence,flow.Sequence,4_115,2023-10-31T03:06:12.795Z,,0,,,3509.5770000953926,completion,,,,,false,,,,580117.8000000715,580117.4000000954,576591.416,576607,576607.823,580131.476,8,400,,,
trial,html.Screen,4_116_0,2023-10-31T03:06:16.133Z,,0,3,,3324.2240000476595,response,ISIC_6381981.JPG,5,ISIC_2175855.JPG,ISIC_6381981.JPG,false,1,keypress(m),500,583456,583455.7000000477,580112.335,580118,580131.476,583461.98,8,400,17,,ISIC_2175855.JPG
break,html.Screen,4_116_1,2023-10-31T03:06:16.134Z,,0,,,NaN,,,,,,false,,,,583457,583456.7000000477,,583456.3000000715,,583461.98,8,400,,,
break_continue,html.Screen,4_116_2,2023-10-31T03:06:16.134Z,,0,,,NaN,,,,,,false,,,,583457.3000000715,583457.2000000477,,583457.1000000238,,583461.98,8,400,,,
sequence,flow.Sequence,4_116,2023-10-31T03:06:16.134Z,,0,,,3325.7240000476595,completion,,,,,false,,,,583457.5,583457.2000000477,580112.335,580118,580131.476,583461.98,8,400,,,
trial,html.Screen,4_117_0,2023-10-31T03:06:19.727Z,,0,3,,3587.5200000000186,response,ISIC_3305055.JPG,7,ISIC_2321671.JPG,ISIC_2321671.JPG,false,0,keypress(z),500,587050.1000000238,587049.5,583445.96,583457.6000000238,583461.98,587064.31,8,400,18,,ISIC_3305055.JPG
break,html.Screen,4_117_1,2023-10-31T03:06:19.729Z,,0,,,NaN,,,,,,false,,,,587051.8000000715,587051.5,,587050.6000000238,,587064.31,8,400,,,
break_continue,html.Screen,4_117_2,2023-10-31T03:06:19.729Z,,0,,,NaN,,,,,,false,,,,587052.6000000238,587052.4000000954,,587052.1000000238,,587064.31,8,400,,,
sequence,flow.Sequence,4_117,2023-10-31T03:06:19.730Z,,0,,,3590.420000095386,completion,,,,,false,,,,587053,587052.4000000954,583445.96,583457.6000000238,583461.98,587064.31,8,400,,,
trial,html.Screen,4_118_0,2023-10-31T03:06:22.485Z,,0,3,,2743.9900000714697,response,ISIC_0012288.JPG,6,ISIC_0071834.JPG,ISIC_0012288.JPG,false,1,keypress(m),500,589808.7000000477,589808.3000000715,587047.533,587053.2000000477,587064.31,589814.311,8,400,19,,ISIC_0071834.JPG
break,html.Screen,4_118_1,2023-10-31T03:06:22.486Z,,0,,,NaN,,,,,,false,,,,589809.3000000715,589809.1000000238,,589808.9000000954,,589814.311,8,400,,,
break_continue,html.Screen,4_118_2,2023-10-31T03:06:22.486Z,,0,,,NaN,,,,,,false,,,,589809.6000000238,589809.5,,589809.4000000954,,589814.311,8,400,,,
sequence,flow.Sequence,4_118,2023-10-31T03:06:22.486Z,,0,,,2745.189999999944,completion,,,,,false,,,,589809.7000000477,589809.5,587047.533,587053.2000000477,587064.31,589814.311,8,400,,,
trial,html.Screen,4_119_0,2023-10-31T03:06:25.578Z,,0,3,,3086.5890000953805,response,ISIC_4474170.JPG,8,ISIC_0011627.JPG,ISIC_4474170.JPG,false,1,keypress(m),500,592901.5,592900.9000000954,589797.897,589809.8000000715,589814.311,592911.869,8,400,20,,ISIC_0011627.JPG
break,html.Screen,4_119_1,2023-10-31T03:06:25.580Z,,0,,,NaN,,,,,,false,,,,592902.9000000954,592902.6000000238,,592902,,592911.869,8,400,,,
break_continue,html.Screen,4_119_2,2023-10-31T03:06:25.580Z,,0,,,NaN,,,,,,false,,,,592903.7000000477,592903.4000000954,,592903.2000000477,,592911.869,8,400,,,
sequence,flow.Sequence,4_119,2023-10-31T03:06:25.581Z,,0,,,3089.0890000953805,completion,,,,,false,,,,592903.9000000954,592903.4000000954,589797.897,589809.8000000715,589814.311,592911.869,8,400,,,
trial,html.Screen,4_120_0,2023-10-31T03:06:28.517Z,,0,3,,2927.731000023894,response,ISIC_3439215.JPG,7,ISIC_0015156.JPG,ISIC_3439215.JPG,false,1,keypress(m),500,595840.3000000715,595839.6000000238,592895.334,592904,592911.869,595850.534,8,400,21,,ISIC_0015156.JPG
break,html.Screen,4_120_1,2023-10-31T03:06:28.519Z,,0,,,NaN,,,,,,false,,,,595842.2000000477,595841.7000000477,,595840.9000000954,,595850.534,8,400,,,
break_continue,html.Screen,4_120_2,2023-10-31T03:06:28.520Z,,0,,,NaN,,,,,,false,,,,595843.2000000477,595842.9000000954,,595842.5,,595850.534,8,400,,,
sequence,flow.Sequence,4_120,2023-10-31T03:06:28.520Z,,0,,,2931.0310000954196,completion,,,,,false,,,,595843.5,595842.9000000954,592895.334,592904,592911.869,595850.534,8,400,,,
trial,html.Screen,4_121_0,2023-10-31T03:06:33.344Z,,0,3,,4816.166000047699,response,ISIC_0024285.JPG,8,ISIC_8869929.JPG,ISIC_0024285.JPG,false,1,keypress(m),500,600667.4000000954,600666.7000000477,595831.466,595843.8000000715,595850.534,600670.599,8,400,22,,ISIC_8869929.JPG
break,html.Screen,4_121_1,2023-10-31T03:06:33.346Z,,0,,,NaN,,,,,,false,,,,600669,600668.6000000238,,600667.8000000715,,600670.599,8,400,,,
break_continue,html.Screen,4_121_2,2023-10-31T03:06:33.347Z,,0,,,NaN,,,,,,false,,,,600670,600669.8000000715,,600669.5,,600670.599,8,400,,,
sequence,flow.Sequence,4_121,2023-10-31T03:06:33.347Z,,0,,,4819.2660000715405,completion,,,,,false,,,,600670.4000000954,600669.8000000715,595831.466,595843.7000000477,595850.534,600670.599,8,400,,,
trial,html.Screen,4_122_0,2023-10-31T03:06:36.507Z,,0,3,,3159.101000047638,response,ISIC_0069124.JPG,12,ISIC_0182730.JPG,ISIC_0069124.JPG,false,1,keypress(m),500,603830.2000000477,603829.7000000477,600653.812,600670.8000000715,600670.599,603844.87,8,400,23,,ISIC_0182730.JPG
break,html.Screen,4_122_1,2023-10-31T03:06:36.508Z,,0,,,NaN,,,,,,false,,,,603831.3000000715,603831.1000000238,,603830.6000000238,,603844.87,8,400,,,
break_continue,html.Screen,4_122_2,2023-10-31T03:06:36.508Z,,0,,,NaN,,,,,,false,,,,603832,603831.7000000477,,603831.6000000238,,603844.87,8,400,,,
sequence,flow.Sequence,4_122,2023-10-31T03:06:36.509Z,,0,,,3161.101000047638,completion,,,,,false,,,,603832.2000000477,603831.7000000477,600653.812,600670.6000000238,600670.599,603844.87,8,400,,,
trial,html.Screen,4_123_0,2023-10-31T03:06:40.517Z,,0,3,,3994.7300000238465,response,ISIC_6356522.JPG,13,ISIC_0071568.JPG,ISIC_0071568.JPG,false,0,keypress(z),500,607840.2000000477,607839.6000000238,603828.123,603832.3000000715,603844.87,607858.101,8,400,24,,ISIC_6356522.JPG
break,html.Screen,4_123_1,2023-10-31T03:06:40.518Z,,0,,,NaN,,,,,,false,,,,607841.9000000954,607841.5,,607840.8000000715,,607858.101,8,400,,,
break_continue,html.Screen,4_123_2,2023-10-31T03:06:40.519Z,,0,,,NaN,,,,,,false,,,,607842.9000000954,607842.7000000477,,607842.4000000954,,607858.101,8,400,,,
sequence,flow.Sequence,4_123,2023-10-31T03:06:40.520Z,,0,,,3997.8300000476884,completion,,,,,false,,,,607843.5,607842.7000000477,603828.123,603832.3000000715,603844.87,607858.101,8,400,,,
trial,html.Screen,4_124_0,2023-10-31T03:06:43.789Z,,0,3,,3253.9990000238176,response,ISIC_0244240.JPG,6,ISIC_1140410.JPG,ISIC_0244240.JPG,false,1,keypress(m),500,611112.6000000238,611112.1000000238,607841.561,607843.8000000715,607858.101,611124.306,8,400,25,,ISIC_1140410.JPG
break,html.Screen,4_124_1,2023-10-31T03:06:43.791Z,,0,,,NaN,,,,,,false,,,,611114.2000000477,611113.8000000715,,611113.1000000238,,611124.306,8,400,,,
break_continue,html.Screen,4_124_2,2023-10-31T03:06:43.792Z,,0,,,NaN,,,,,,false,,,,611115.1000000238,611114.7000000477,,611114.5,,611124.306,8,400,,,
sequence,flow.Sequence,4_124,2023-10-31T03:06:43.792Z,,0,,,3256.5990000476595,completion,,,,,false,,,,611115.3000000715,611114.7000000477,607841.561,607843.8000000715,607858.101,611124.306,8,400,,,
trial,html.Screen,4_125_0,2023-10-31T03:06:47.498Z,,0,3,,3696.594000095385,response,ISIC_0014920.JPG,11,ISIC_0034065.JPG,ISIC_0034065.JPG,false,0,keypress(z),500,614821.6000000238,614820.9000000954,611107.877,611117.4000000954,611124.306,614845.264,8,400,26,,ISIC_0014920.JPG
break,html.Screen,4_125_1,2023-10-31T03:06:47.500Z,,0,,,NaN,,,,,,false,,,,614823.1000000238,614822.7000000477,,614821.9000000954,,614845.264,8,400,,,
break_continue,html.Screen,4_125_2,2023-10-31T03:06:47.500Z,,0,,,NaN,,,,,,false,,,,614823.7000000477,614823.6000000238,,614823.3000000715,,614845.264,8,400,,,
