sender,sender_type,sender_id,timestamp,meta,,blockNo,condition,duration,ended_on,img_left,img_reveal,img_right,loser,practice,response,response_action,selection_duration,time_commit,time_end,time_render,time_run,time_show,time_switch,total_blocks,total_trials,trialNo,url,winner
informed_consent,html.Screen,0,2023-09-08T18:43:05.447Z,"{""labjs_version"":""20.2.4"",""labjs_build"":{""flavor"":""production"",""commit"":""f5b4a49f956347addd546a832a3327688c2c0fef""},""location"":""https://run.pavlovia.org/MurrayBennett/melanoma-2afc/?participant=6036f9b3b1842f8b659b18c7&STUDY_ID=64f8c92207ba404bcb356c90&SESSION_ID=64fb6b1e9de1d06ca43e4328&platform=prolific"",""userAgent"":""Mozilla/5.0 (Windows NT 10.0; Win64; x64) AppleWebKit/537.36 (KHTML, like Gecko) Chrome/116.0.0.0 Safari/537.36"",""platform"":""Win32"",""language"":""en-US"",""locale"":""en-US"",""timeZone"":""America/Chicago"",""timezoneOffset"":300,""screen_width"":1536,""screen_height"":864,""scroll_width"":1536,""scroll_height"":667,""window_innerWidth"":1536,""window_innerHeight"":715,""devicePixelRatio"":2.5}",,,,2084.1190000953666,response,,,,,,consent,click button,,13418.200000047684,13416.900000095367,11316.189,3507,11332.781,13431.621,,,,"{""participant"":""6036f9b3b1842f8b659b18c7"",""STUDY_ID"":""64f8c92207ba404bcb356c90"",""SESSION_ID"":""64fb6b1e9de1d06ca43e4328"",""platform"":""prolific""}",
Welcome,html.Screen,1,2023-09-08T18:43:08.303Z,,,,symmetry,2842.0790000476845,response,,,,,,continue,click button,,16274.599999904633,16273.700000047684,13414.984,13418.400000095367,13431.621,16296.77,,,,,
trial,html.Screen,2_0_0,2023-09-08T18:43:13.155Z,,0,0,,4828.73,response,ISIC_6997061.JPG,,ISIC_0069348.JPG,ISIC_0069348.JPG,true,0,keypress(z),500,21125.799999952316,21125.5,16280.347,16274.799999952316,16296.77,21145.28,1,6,1,,ISIC_6997061.JPG
sequence,flow.Sequence,2_0,2023-09-08T18:43:13.155Z,,0,,,4828.73,completion,,,,,true,,,,21126.299999952316,21125.5,16280.347,16274.799999952316,16296.77,21145.28,1,6,,,
trial,html.Screen,2_1_0,2023-09-08T18:43:16.714Z,,0,0,,3539.420000047685,response,ISIC_0009529.JPG,,ISIC_0057368.JPG,ISIC_0057368.JPG,true,0,keypress(z),500,24684.900000095367,24684.700000047684,21111.121,21126.5,21145.28,24692.358,1,6,2,,ISIC_0009529.JPG
sequence,flow.Sequence,2_1,2023-09-08T18:43:16.714Z,,0,,,3539.420000047685,completion,,,,,true,,,,24685.099999904633,24684.700000047684,21111.121,21126.400000095367,21145.28,24692.358,1,6,,,
trial,html.Screen,2_2_0,2023-09-08T18:43:20.867Z,,0,0,,4145.8420000476835,response,ISIC_9758671.JPG,,ISIC_0064954.JPG,ISIC_9758671.JPG,true,1,keypress(m),500,28838.700000047684,28838.200000047684,24675.905,24685.299999952316,24692.358,28858.076,1,6,3,,ISIC_0064954.JPG
sequence,flow.Sequence,2_2,2023-09-08T18:43:20.868Z,,0,,,4145.8420000476835,completion,,,,,true,,,,28839,28838.200000047684,24675.905,24685.200000047684,24692.358,28858.076,1,6,,,
trial,html.Screen,2_3_0,2023-09-08T18:43:23.574Z,,0,0,,2686.423999999999,response,ISIC_0005785.JPG,,ISIC_0000080.JPG,ISIC_0005785.JPG,true,1,keypress(m),500,31544.900000095367,31544.5,28823.818,28839.200000047684,28858.076,31555.577,1,6,4,,ISIC_0000080.JPG
sequence,flow.Sequence,2_3,2023-09-08T18:43:23.574Z,,0,,,2686.423999999999,completion,,,,,true,,,,31545.299999952316,31544.5,28823.818,28839.099999904633,28858.076,31555.577,1,6,,,
trial,html.Screen,2_4_0,2023-09-08T18:43:26.205Z,,0,0,,2620.6230000476826,response,ISIC_5390060.JPG,,ISIC_7944028.JPG,ISIC_5390060.JPG,true,1,keypress(m),500,34176.59999990463,34176.200000047684,31539.217,31545.599999904633,31555.577,34187.575,1,6,5,,ISIC_7944028.JPG
sequence,flow.Sequence,2_4,2023-09-08T18:43:26.206Z,,0,,,2620.6230000476826,completion,,,,,true,,,,34177.200000047684,34176.200000047684,31539.217,31545.5,31555.577,34187.575,1,6,,,
trial,html.Screen,2_5_0,2023-09-08T18:43:28.900Z,,0,0,,2683.724999952319,response,ISIC_0794216.JPG,,ISIC_0010188.JPG,ISIC_0010188.JPG,true,0,keypress(z),500,36871.700000047684,36871.299999952316,34171.136,34177.59999990463,34187.575,36885.871,1,6,6,,ISIC_0794216.JPG
sequence,flow.Sequence,2_5,2023-09-08T18:43:28.901Z,,0,,,2683.724999952319,completion,,,,,true,,,,36872.09999990463,36871.299999952316,34171.136,34177.59999990463,34187.575,36885.871,1,6,,,
loop,flow.Loop,2,2023-09-08T18:43:28.901Z,,,,,20574.529999952316,completion,,,,,true,,,,36872.40000009537,36871.299999952316,16280.347,16274.799999952316,16296.77,36885.871,1,6,,,
exp_instructions,html.Screen,3,2023-09-08T18:43:32.296Z,,,,,3380.0290000953682,response,,,,,,continue,keypress(Space),,40266.90000009537,40265.90000009537,36869.682,36872.5,36885.871,40284.357,,,,,
trial,html.Screen,4_0_0,2023-09-08T18:43:36.656Z,,0,1,,4342.142999999996,response,ISIC_0013740.JPG,5,ISIC_1711973.JPG,ISIC_0013740.JPG,false,1,keypress(m),500,44626.799999952316,44626.5,40267.48,40267.200000047684,40284.357,44631.719,8,400,1,,ISIC_1711973.JPG
break,html.Screen,4_0_1,2023-09-08T18:43:36.657Z,,0,,,NaN,,,,,,false,,,,44627.90000009537,44627.700000047684,,44627.09999990463,,44631.719,8,400,,,
break_continue,html.Screen,4_0_2,2023-09-08T18:43:36.657Z,,0,,,NaN,,,,,,false,,,,44628.40000009537,44628.299999952316,,44628.09999990463,,44631.719,8,400,,,
sequence,flow.Sequence,4_0,2023-09-08T18:43:36.657Z,,0,,,4343.942999952313,completion,,,,,false,,,,44628.59999990463,44628.299999952316,40267.48,40267.09999990463,40284.357,44631.719,8,400,,,
trial,html.Screen,4_1_0,2023-09-08T18:43:40.804Z,,0,1,,4143.380999904635,response,ISIC_0058303.JPG,7,ISIC_1850388.JPG,ISIC_1850388.JPG,false,0,keypress(z),500,48775.59999990463,48775.09999990463,44615.041,44628.700000047684,44631.719,48779.564,8,400,2,,ISIC_0058303.JPG
break,html.Screen,4_1_1,2023-09-08T18:43:40.806Z,,0,,,NaN,,,,,,false,,,,48777.09999990463,48776.59999990463,,48776.09999990463,,48779.564,8,400,,,
break_continue,html.Screen,4_1_2,2023-09-08T18:43:40.807Z,,0,,,NaN,,,,,,false,,,,48777.90000009537,48777.59999990463,,48777.40000009537,,48779.564,8,400,,,
sequence,flow.Sequence,4_1,2023-09-08T18:43:40.807Z,,0,,,4145.880999904635,completion,,,,,false,,,,48778.200000047684,48777.59999990463,44615.041,44628.700000047684,44631.719,48779.564,8,400,,,
trial,html.Screen,4_2_0,2023-09-08T18:43:43.001Z,,0,1,,2192.836000095369,response,ISIC_0009230.JPG,6,ISIC_7846309.JPG,ISIC_0009230.JPG,false,1,keypress(m),500,50972.5,50972.40000009537,48763.167,48778.5,48779.564,50978.548,8,400,3,,ISIC_7846309.JPG
break,html.Screen,4_2_1,2023-09-08T18:43:43.002Z,,0,,,NaN,,,,,,false,,,,50972.799999952316,50972.799999952316,,50972.59999990463,,50978.548,8,400,,,
break_continue,html.Screen,4_2_2,2023-09-08T18:43:43.002Z,,0,,,NaN,,,,,,false,,,,50973,50973,,50973,,50978.548,8,400,,,
sequence,flow.Sequence,4_2,2023-09-08T18:43:43.002Z,,0,,,2193.4360000000015,completion,,,,,false,,,,50973.200000047684,50973,48763.167,48778.40000009537,48779.564,50978.548,8,400,,,
trial,html.Screen,4_3_0,2023-09-08T18:43:45.538Z,,0,1,,2529.9519999999975,response,ISIC_7339533.JPG,6,ISIC_1337726.JPG,ISIC_7339533.JPG,false,1,keypress(m),500,53508.799999952316,53508.5,50962.139,50973.200000047684,50978.548,53527.411,8,400,4,,ISIC_1337726.JPG
break,html.Screen,4_3_1,2023-09-08T18:43:45.539Z,,0,,,NaN,,,,,,false,,,,53509.700000047684,53509.40000009537,,53509,,53527.411,8,400,,,
break_continue,html.Screen,4_3_2,2023-09-08T18:43:45.539Z,,0,,,NaN,,,,,,false,,,,53510.09999990463,53509.90000009537,,53509.799999952316,,53527.411,8,400,,,
sequence,flow.Sequence,4_3,2023-09-08T18:43:45.539Z,,0,,,2531.352000095365,completion,,,,,false,,,,53510.40000009537,53509.90000009537,50962.139,50973.200000047684,50978.548,53527.411,8,400,,,
trial,html.Screen,4_4_0,2023-09-08T18:43:48.086Z,,0,1,,2529.589,response,ISIC_0028075.JPG,6,ISIC_7448231.JPG,ISIC_0028075.JPG,false,1,keypress(m),500,56057.40000009537,56057,53494.152,53510.59999990463,53527.411,56075.603,8,400,5,,ISIC_7448231.JPG
break,html.Screen,4_4_1,2023-09-08T18:43:48.088Z,,0,,,NaN,,,,,,false,,,,56058.799999952316,56058.40000009537,,56057.799999952316,,56075.603,8,400,,,
break_continue,html.Screen,4_4_2,2023-09-08T18:43:48.089Z,,0,,,NaN,,,,,,false,,,,56059.700000047684,56059.40000009537,,56059.200000047684,,56075.603,8,400,,,
sequence,flow.Sequence,4_4,2023-09-08T18:43:48.089Z,,0,,,2531.9890000953674,completion,,,,,false,,,,56060.200000047684,56059.40000009537,53494.152,53510.5,53527.411,56075.603,8,400,,,
trial,html.Screen,4_5_0,2023-09-08T18:43:52.077Z,,0,1,,3971.99699990463,response,ISIC_8837443.JPG,6,ISIC_0032372.JPG,ISIC_0032372.JPG,false,0,keypress(z),500,60047.90000009537,60047.59999990463,56042.782,56060.5,56075.603,60073.691,8,400,6,,ISIC_8837443.JPG
break,html.Screen,4_5_1,2023-09-08T18:43:52.078Z,,0,,,NaN,,,,,,false,,,,60048.5,60048.299999952316,,60048,,60073.691,8,400,,,
break_continue,html.Screen,4_5_2,2023-09-08T18:43:52.078Z,,0,,,NaN,,,,,,false,,,,60048.90000009537,60048.799999952316,,60048.700000047684,,60073.691,8,400,,,
sequence,flow.Sequence,4_5,2023-09-08T18:43:52.078Z,,0,,,3973.1969999523135,completion,,,,,false,,,,60049,60048.799999952316,56042.782,56060.40000009537,56075.603,60073.691,8,400,,,
trial,html.Screen,4_6_0,2023-09-08T18:43:59.649Z,,0,1,,7545.608999952317,response,ISIC_0014982.JPG,100,ISIC_4574865.JPG,ISIC_0014982.JPG,false,1,keypress(m),500,67619.59999990463,67619.29999995232,60056.817,60049.09999990463,60073.691,67636.297,8,400,7,,ISIC_4574865.JPG
break,html.Screen,4_6_1,2023-09-08T18:43:59.650Z,,0,,,NaN,,,,,,false,,,,67620.59999990463,67620.20000004768,,67619.79999995232,,67636.297,8,400,,,
break_continue,html.Screen,4_6_2,2023-09-08T18:43:59.650Z,,0,,,NaN,,,,,,false,,,,67621,67620.90000009537,,67620.70000004768,,67636.297,8,400,,,
sequence,flow.Sequence,4_6,2023-09-08T18:43:59.650Z,,0,,,7547.2090000953685,completion,,,,,false,,,,67621.09999990463,67620.90000009537,60056.817,60049.09999990463,60073.691,67636.297,8,400,,,
trial,html.Screen,4_7_0,2023-09-08T18:44:02.228Z,,0,1,,2562.403000047678,response,ISIC_6269414.JPG,5,ISIC_9130157.JPG,ISIC_6269414.JPG,false,1,keypress(m),500,70199.29999995232,70198.70000004768,67619.735,67621.29999995232,67636.297,70218.805,8,400,8,,ISIC_9130157.JPG
break,html.Screen,4_7_1,2023-09-08T18:44:02.231Z,,0,,,NaN,,,,,,false,,,,70201.20000004768,70200.29999995232,,70199.70000004768,,70218.805,8,400,,,
break_continue,html.Screen,4_7_2,2023-09-08T18:44:02.232Z,,0,,,NaN,,,,,,false,,,,70202.40000009537,70202.20000004768,,70201.70000004768,,70218.805,8,400,,,
sequence,flow.Sequence,4_7,2023-09-08T18:44:02.232Z,,0,,,2565.903000047678,completion,,,,,false,,,,70202.70000004768,70202.20000004768,67619.735,67621.29999995232,67636.297,70218.805,8,400,,,
trial,html.Screen,4_8_0,2023-09-08T18:44:05.962Z,,0,1,,3713.9949999523233,response,ISIC_0065039.JPG,5,ISIC_0026879.JPG,ISIC_0065039.JPG,false,1,keypress(m),500,73933,73932.79999995232,70185.351,70203,70218.805,73949.337,8,400,9,,ISIC_0026879.JPG
break,html.Screen,4_8_1,2023-09-08T18:44:05.963Z,,0,,,NaN,,,,,,false,,,,73934,73933.70000004768,,73933.20000004768,,73949.337,8,400,,,
break_continue,html.Screen,4_8_2,2023-09-08T18:44:05.964Z,,0,,,NaN,,,,,,false,,,,73934.29999995232,73934.20000004768,,73934,,73949.337,8,400,,,
sequence,flow.Sequence,4_8,2023-09-08T18:44:05.964Z,,0,,,3715.3950000476907,completion,,,,,false,,,,73934.40000009537,73934.20000004768,70185.351,70202.90000009537,70218.805,73949.337,8,400,,,
trial,html.Screen,4_9_0,2023-09-08T18:44:10.206Z,,0,1,,4226.863000047684,response,ISIC_0033337.JPG,5,ISIC_6971606.JPG,ISIC_6971606.JPG,false,0,keypress(z),500,78176.59999990463,78176.20000004768,73933.033,73934.59999990463,73949.337,78180.453,8,400,10,,ISIC_0033337.JPG
break,html.Screen,4_9_1,2023-09-08T18:44:10.207Z,,0,,,NaN,,,,,,false,,,,78177.59999990463,78177.40000009537,,78176.90000009537,,78180.453,8,400,,,
break_continue,html.Screen,4_9_2,2023-09-08T18:44:10.207Z,,0,,,NaN,,,,,,false,,,,78178.20000004768,78178,,78177.70000004768,,78180.453,8,400,,,
sequence,flow.Sequence,4_9,2023-09-08T18:44:10.208Z,,0,,,4228.6630000000005,completion,,,,,false,,,,78178.40000009537,78178,73933.033,73934.5,73949.337,78180.453,8,400,,,
trial,html.Screen,4_10_0,2023-09-08T18:44:12.793Z,,0,1,,2582.7470000476897,response,ISIC_2822622.JPG,4,ISIC_0609067.JPG,ISIC_0609067.JPG,false,0,keypress(z),500,80763.29999995232,80763.20000004768,78163.984,78178.5,78180.453,80779.308,8,400,11,,ISIC_2822622.JPG
break,html.Screen,4_10_1,2023-09-08T18:44:12.793Z,,0,,,NaN,,,,,,false,,,,80764,80763.79999995232,,80763.5,,80779.308,8,400,,,
break_continue,html.Screen,4_10_2,2023-09-08T18:44:12.794Z,,0,,,NaN,,,,,,false,,,,80764.40000009537,80764.40000009537,,80764.20000004768,,80779.308,8,400,,,
sequence,flow.Sequence,4_10,2023-09-08T18:44:12.794Z,,0,,,2583.9470000953734,completion,,,,,false,,,,80764.70000004768,80764.40000009537,78163.984,78178.40000009537,78180.453,80779.308,8,400,,,
trial,html.Screen,4_11_0,2023-09-08T18:44:17.405Z,,0,1,,4595.592000095363,response,ISIC_4216750.JPG,6,ISIC_2739547.JPG,ISIC_2739547.JPG,false,0,keypress(z),500,85375.29999995232,85374.90000009537,80762.881,80764.70000004768,80779.308,85394.07,8,400,12,,ISIC_4216750.JPG
break,html.Screen,4_11_1,2023-09-08T18:44:17.406Z,,0,,,NaN,,,,,,false,,,,85376.29999995232,85376.09999990463,,85375.59999990463,,85394.07,8,400,,,
break_continue,html.Screen,4_11_2,2023-09-08T18:44:17.406Z,,0,,,NaN,,,,,,false,,,,85376.79999995232,85376.70000004768,,85376.5,,85394.07,8,400,,,
sequence,flow.Sequence,4_11,2023-09-08T18:44:17.406Z,,0,,,4597.392000047679,completion,,,,,false,,,,85376.90000009537,85376.70000004768,80762.881,80764.70000004768,80779.308,85394.07,8,400,,,
trial,html.Screen,4_12_0,2023-09-08T18:44:19.813Z,,0,1,,2389.3300000953604,response,ISIC_2922104.JPG,6,ISIC_0015071.JPG,ISIC_2922104.JPG,false,1,keypress(m),500,87783.5,87783.40000009537,85360.283,85377.09999990463,85394.07,87792.177,8,400,13,,ISIC_0015071.JPG
break,html.Screen,4_12_1,2023-09-08T18:44:19.813Z,,0,,,NaN,,,,,,false,,,,87784.09999990463,87783.90000009537,,87783.70000004768,,87792.177,8,400,,,
break_continue,html.Screen,4_12_2,2023-09-08T18:44:19.814Z,,0,,,NaN,,,,,,false,,,,87784.40000009537,87784.29999995232,,87784.20000004768,,87792.177,8,400,,,
sequence,flow.Sequence,4_12,2023-09-08T18:44:19.814Z,,0,,,2390.2299999523093,completion,,,,,false,,,,87784.5,87784.29999995232,85360.283,85377,85394.07,87792.177,8,400,,,
trial,html.Screen,4_13_0,2023-09-08T18:44:22.200Z,,0,1,,2378.5230000476877,response,ISIC_0034156.JPG,7,ISIC_7888517.JPG,ISIC_7888517.JPG,false,0,keypress(z),500,90171,90170.70000004768,87775.867,87784.59999990463,87792.177,90174.088,8,400,14,,ISIC_0034156.JPG
break,html.Screen,4_13_1,2023-09-08T18:44:22.201Z,,0,,,NaN,,,,,,false,,,,90171.90000009537,90171.70000004768,,90171.20000004768,,90174.088,8,400,,,
break_continue,html.Screen,4_13_2,2023-09-08T18:44:22.202Z,,0,,,NaN,,,,,,false,,,,90172.40000009537,90172.29999995232,,90172.09999990463,,90174.088,8,400,,,
sequence,flow.Sequence,4_13,2023-09-08T18:44:22.202Z,,0,,,2380.1229999523202,completion,,,,,false,,,,90172.70000004768,90172.29999995232,87775.867,87784.59999990463,87792.177,90174.088,8,400,,,
trial,html.Screen,4_14_0,2023-09-08T18:44:25.068Z,,0,1,,2864.711999952313,response,ISIC_0009894.JPG,5,ISIC_1080647.JPG,ISIC_0009894.JPG,false,1,keypress(m),500,93039,93038.79999995232,90157.805,90172.79999995232,90174.088,93055.811,8,400,15,,ISIC_1080647.JPG
break,html.Screen,4_14_1,2023-09-08T18:44:25.069Z,,0,,,NaN,,,,,,false,,,,93039.40000009537,93039.40000009537,,93039.09999990463,,93055.811,8,400,,,
break_continue,html.Screen,4_14_2,2023-09-08T18:44:25.069Z,,0,,,NaN,,,,,,false,,,,93039.70000004768,93039.59999990463,,93039.5,,93055.811,8,400,,,
sequence,flow.Sequence,4_14,2023-09-08T18:44:25.069Z,,0,,,2865.511999904629,completion,,,,,false,,,,93040,93039.59999990463,90157.805,90172.79999995232,90174.088,93055.811,8,400,,,
trial,html.Screen,4_15_0,2023-09-08T18:44:36.681Z,,0,1,,12543.506999999998,timeout,ISIC_6809191.JPG,111,ISIC_0068299.JPG,,false,,,500,104651.70000004768,104650.70000004768,93023.11,93040.09999990463,93055.811,105599.318,8,400,16,,
break,html.Screen,4_15_1,2023-09-08T18:44:36.683Z,,0,,,NaN,,,,,,false,,,,104653.40000009537,104653.09999990463,,104652.09999990463,,105599.318,8,400,,,
break_continue,html.Screen,4_15_2,2023-09-08T18:44:36.683Z,,0,,,NaN,,,,,,false,,,,104653.79999995232,104653.70000004768,,104653.59999990463,,105599.318,8,400,,,
sequence,flow.Sequence,4_15,2023-09-08T18:44:36.683Z,,0,,,11597.889000047682,completion,,,,,false,,,,104653.90000009537,104653.70000004768,93023.11,93040.09999990463,93055.811,105599.318,8,400,,,
trial,html.Screen,4_16_0,2023-09-08T18:44:39.764Z,,0,1,,2135.3820000476844,response,ISIC_0062827.JPG,5,ISIC_0013707.JPG,ISIC_0013707.JPG,false,0,keypress(z),500,107735,107734.70000004768,105582.53,104654,105599.318,107748.549,8,400,17,,ISIC_0062827.JPG
break,html.Screen,4_16_1,2023-09-08T18:44:39.765Z,,0,,,NaN,,,,,,false,,,,107735.79999995232,107735.59999990463,,107735.29999995232,,107748.549,8,400,,,
break_continue,html.Screen,4_16_2,2023-09-08T18:44:39.766Z,,0,,,NaN,,,,,,false,,,,107736.40000009537,107736.29999995232,,107736,,107748.549,8,400,,,
sequence,flow.Sequence,4_16,2023-09-08T18:44:39.766Z,,0,,,2136.981999952317,completion,,,,,false,,,,107736.59999990463,107736.29999995232,105582.53,104654,105599.318,107748.549,8,400,,,
trial,html.Screen,4_17_0,2023-09-08T18:44:44.091Z,,0,1,,4313.250999952317,response,ISIC_3424207.JPG,5,ISIC_9301005.JPG,ISIC_9301005.JPG,false,0,keypress(z),500,112062.09999990463,112061.79999995232,107731.81,107736.79999995232,107748.549,112079.263,8,400,18,,ISIC_3424207.JPG
break,html.Screen,4_17_1,2023-09-08T18:44:44.092Z,,0,,,NaN,,,,,,false,,,,112063.20000004768,112062.90000009537,,112062.40000009537,,112079.263,8,400,,,
break_continue,html.Screen,4_17_2,2023-09-08T18:44:44.093Z,,0,,,NaN,,,,,,false,,,,112063.59999990463,112063.40000009537,,112063.40000009537,,112079.263,8,400,,,
sequence,flow.Sequence,4_17,2023-09-08T18:44:44.093Z,,0,,,4314.851000095368,completion,,,,,false,,,,112063.79999995232,112063.40000009537,107731.81,107736.79999995232,107748.549,112079.263,8,400,,,
trial,html.Screen,4_18_0,2023-09-08T18:44:46.112Z,,0,1,,2002.7369999999937,response,ISIC_0030211.JPG,6,ISIC_9568327.JPG,ISIC_9568327.JPG,false,0,keypress(z),500,114082.29999995232,114082,112062.41,112063.90000009537,112079.263,114094.901,8,400,19,,ISIC_0030211.JPG
break,html.Screen,4_18_1,2023-09-08T18:44:46.112Z,,0,,,NaN,,,,,,false,,,,114083.20000004768,114082.90000009537,,114082.59999990463,,114094.901,8,400,,,
break_continue,html.Screen,4_18_2,2023-09-08T18:44:46.113Z,,0,,,NaN,,,,,,false,,,,114083.59999990463,114083.5,,114083.29999995232,,114094.901,8,400,,,
sequence,flow.Sequence,4_18,2023-09-08T18:44:46.113Z,,0,,,2004.2369999999937,completion,,,,,false,,,,114083.70000004768,114083.5,112062.41,112063.90000009537,112079.263,114094.901,8,400,,,
trial,html.Screen,4_19_0,2023-09-08T18:44:48.772Z,,0,1,,2647.099000000002,response,ISIC_0033843.JPG,5,ISIC_0654846.JPG,ISIC_0033843.JPG,false,1,keypress(m),500,116742.5,116742,114078.407,114083.79999995232,114094.901,116760.116,8,400,20,,ISIC_0654846.JPG
break,html.Screen,4_19_1,2023-09-08T18:44:48.773Z,,0,,,NaN,,,,,,false,,,,116743.90000009537,116743.5,,116742.79999995232,,116760.116,8,400,,,
break_continue,html.Screen,4_19_2,2023-09-08T18:44:48.774Z,,0,,,NaN,,,,,,false,,,,116745.09999990463,116744.59999990463,,116744.09999990463,,116760.116,8,400,,,
sequence,flow.Sequence,4_19,2023-09-08T18:44:48.775Z,,0,,,2649.6989999046345,completion,,,,,false,,,,116745.70000004768,116744.59999990463,114078.407,114083.79999995232,114094.901,116760.116,8,400,,,
trial,html.Screen,4_20_0,2023-09-08T18:45:00.268Z,,0,1,,11510.491999999998,timeout,ISIC_0033893.JPG,5,ISIC_6809586.JPG,,false,,,500,128238,128237.79999995232,116743.39,116746,116760.116,128270.608,8,400,21,,
break,html.Screen,4_20_1,2023-09-08T18:45:00.268Z,,0,,,NaN,,,,,,false,,,,128238.59999990463,128238.40000009537,,128238.20000004768,,128270.608,8,400,,,
break_continue,html.Screen,4_20_2,2023-09-08T18:45:00.268Z,,0,,,NaN,,,,,,false,,,,128238.90000009537,128238.79999995232,,128238.70000004768,,128270.608,8,400,,,
sequence,flow.Sequence,4_20,2023-09-08T18:45:00.269Z,,0,,,11478.683999952322,completion,,,,,false,,,,128239.09999990463,128238.79999995232,116743.39,116746,116760.116,128270.608,8,400,,,
trial,html.Screen,4_21_0,2023-09-08T18:45:07.951Z,,0,1,,7650.2920000953745,response,ISIC_3453832.JPG,6,ISIC_2123159.JPG,ISIC_2123159.JPG,false,0,keypress(z),500,135921.40000009537,135920.90000009537,128253.721,128239.20000004768,128270.608,135932.923,8,400,22,,ISIC_3453832.JPG
break,html.Screen,4_21_1,2023-09-08T18:45:07.953Z,,0,,,NaN,,,,,,false,,,,135923.09999990463,135922.59999990463,,135921.90000009537,,135932.923,8,400,,,
break_continue,html.Screen,4_21_2,2023-09-08T18:45:07.953Z,,0,,,NaN,,,,,,false,,,,135924,135923.70000004768,,135923.5,,135932.923,8,400,,,
sequence,flow.Sequence,4_21,2023-09-08T18:45:07.954Z,,0,,,7653.092000047691,completion,,,,,false,,,,135924.90000009537,135923.70000004768,128253.721,128239.09999990463,128270.608,135932.923,8,400,,,
trial,html.Screen,4_22_0,2023-09-08T18:45:10.362Z,,0,1,,2399.176999904623,response,ISIC_0063258.JPG,5,ISIC_1216139.JPG,ISIC_0063258.JPG,false,1,keypress(m),500,138332.5,138332.09999990463,135916.766,135925.5,135932.923,138348.596,8,400,23,,ISIC_1216139.JPG
break,html.Screen,4_22_1,2023-09-08T18:45:10.363Z,,0,,,NaN,,,,,,false,,,,138333.79999995232,138333.5,,138332.90000009537,,138348.596,8,400,,,
break_continue,html.Screen,4_22_2,2023-09-08T18:45:10.364Z,,0,,,NaN,,,,,,false,,,,138334.5,138334.20000004768,,138334,,138348.596,8,400,,,
sequence,flow.Sequence,4_22,2023-09-08T18:45:10.364Z,,0,,,2401.277000047674,completion,,,,,false,,,,138334.79999995232,138334.20000004768,135916.766,135925.29999995232,135932.923,138348.596,8,400,,,
trial,html.Screen,4_23_0,2023-09-08T18:45:21.856Z,,0,1,,11510.396999999997,timeout,ISIC_0033916.JPG,5,ISIC_2753279.JPG,,false,,,500,149826.29999995232,149825.90000009537,138331.621,138335,138348.596,149858.993,8,400,24,,
break,html.Screen,4_23_1,2023-09-08T18:45:21.856Z,,0,,,NaN,,,,,,false,,,,149826.79999995232,149826.59999990463,,149826.40000009537,,149858.993,8,400,,,
break_continue,html.Screen,4_23_2,2023-09-08T18:45:21.857Z,,0,,,NaN,,,,,,false,,,,149827.09999990463,149827,,149826.90000009537,,149858.993,8,400,,,
sequence,flow.Sequence,4_23,2023-09-08T18:45:21.857Z,,0,,,11478.40400000001,completion,,,,,false,,,,149827.20000004768,149827,138331.621,138335,138348.596,149858.993,8,400,,,
trial,html.Screen,4_24_0,2023-09-08T18:45:33.367Z,,0,1,,11510.529999999999,timeout,ISIC_9974299.JPG,6,ISIC_0066001.JPG,,false,,,500,161337.90000009537,161337.5,149842.239,149827.40000009537,149858.993,161369.523,8,400,25,,
break,html.Screen,4_24_1,2023-09-08T18:45:33.369Z,,0,,,NaN,,,,,,false,,,,161339,161338.70000004768,,161338.20000004768,,161369.523,8,400,,,
break_continue,html.Screen,4_24_2,2023-09-08T18:45:33.369Z,,0,,,NaN,,,,,,false,,,,161339.70000004768,161339.5,,161339.29999995232,,161369.523,8,400,,,
sequence,flow.Sequence,4_24,2023-09-08T18:45:33.370Z,,0,,,11480.507000000012,completion,,,,,false,,,,161340,161339.5,149842.239,149827.40000009537,149858.993,161369.523,8,400,,,
trial,html.Screen,4_25_0,2023-09-08T18:45:44.878Z,,0,1,,11510.643000000011,timeout,ISIC_0010376.JPG,5,ISIC_0014694.JPG,,false,,,500,172848.40000009537,172847.90000009537,161352.8,161340.29999995232,161369.523,172880.166,8,400,26,,
break,html.Screen,4_25_1,2023-09-08T18:45:44.879Z,,0,,,NaN,,,,,,false,,,,172849.5,172849.20000004768,,172848.59999990463,,172880.166,8,400,,,
break_continue,html.Screen,4_25_2,2023-09-08T18:45:44.880Z,,0,,,NaN,,,,,,false,,,,172850.20000004768,172850,,172849.70000004768,,172880.166,8,400,,,
sequence,flow.Sequence,4_25,2023-09-08T18:45:44.880Z,,0,,,11480.477000000014,completion,,,,,false,,,,172850.59999990463,172850,161352.8,161340.20000004768,161369.523,172880.166,8,400,,,
trial,html.Screen,4_26_0,2023-09-08T18:45:56.388Z,,0,1,,11510.40400000001,timeout,ISIC_0010663.JPG,6,ISIC_3471815.JPG,,false,,,500,184358.79999995232,184358.40000009537,172863.332,172850.79999995232,172880.166,184390.57,8,400,27,,
break,html.Screen,4_26_1,2023-09-08T18:45:56.389Z,,0,,,NaN,,,,,,false,,,,184359.90000009537,184359.59999990463,,184359,,184390.57,8,400,,,
break_continue,html.Screen,4_26_2,2023-09-08T18:45:56.390Z,,0,,,NaN,,,,,,false,,,,184360.59999990463,184360.29999995232,,184360.20000004768,,184390.57,8,400,,,
sequence,flow.Sequence,4_26,2023-09-08T18:45:56.390Z,,0,,,11480.133999952319,completion,,,,,false,,,,184360.90000009537,184360.29999995232,172863.332,172850.59999990463,172880.166,184390.57,8,400,,,
trial,html.Screen,4_27_0,2023-09-08T18:46:07.899Z,,0,1,,11510.323000000004,timeout,ISIC_4141898.JPG,5,ISIC_0027130.JPG,,false,,,500,195869.20000004768,195868.79999995232,184373.681,184361.20000004768,184390.57,195900.893,8,400,28,,
break,html.Screen,4_27_1,2023-09-08T18:46:07.900Z,,0,,,NaN,,,,,,false,,,,195870.29999995232,195870,,195869.5,,195900.893,8,400,,,
break_continue,html.Screen,4_27_2,2023-09-08T18:46:07.900Z,,0,,,NaN,,,,,,false,,,,195870.79999995232,195870.59999990463,,195870.40000009537,,195900.893,8,400,,,
sequence,flow.Sequence,4_27,2023-09-08T18:46:07.901Z,,0,,,11480.029999904626,completion,,,,,false,,,,195871,195870.59999990463,184373.681,184361.09999990463,184390.57,195900.893,8,400,,,
trial,html.Screen,4_28_0,2023-09-08T18:46:18.982Z,,0,1,,11051.706999904622,response,ISIC_8222254.JPG,6,ISIC_5233226.JPG,ISIC_5233226.JPG,false,0,keypress(z),500,206952.79999995232,206952.59999990463,195884.299,195871.09999990463,195900.893,206961.701,8,400,29,,ISIC_8222254.JPG
break,html.Screen,4_28_1,2023-09-08T18:46:18.983Z,,0,,,NaN,,,,,,false,,,,206953.29999995232,206953.09999990463,,206953,,206961.701,8,400,,,
break_continue,html.Screen,4_28_2,2023-09-08T18:46:18.983Z,,0,,,NaN,,,,,,false,,,,206953.70000004768,206953.59999990463,,206953.5,,206961.701,8,400,,,
sequence,flow.Sequence,4_28,2023-09-08T18:46:18.983Z,,0,,,11052.706999904622,completion,,,,,false,,,,206953.70000004768,206953.59999990463,195884.299,195871.09999990463,195900.893,206961.701,8,400,,,
trial,html.Screen,4_29_0,2023-09-08T18:46:21.554Z,,0,1,,2560.298999999999,response,ISIC_0185918.JPG,5,ISIC_1758558.JPG,ISIC_1758558.JPG,false,0,keypress(z),500,209524.59999990463,209522,206945.207,206953.79999995232,206961.701,209544.166,8,400,30,,ISIC_0185918.JPG
break,html.Screen,4_29_1,2023-09-08T18:46:21.556Z,,0,,,NaN,,,,,,false,,,,209526,209525.70000004768,,209525.09999990463,,209544.166,8,400,,,
break_continue,html.Screen,4_29_2,2023-09-08T18:46:21.556Z,,0,,,NaN,,,,,,false,,,,209526.70000004768,209526.40000009537,,209526.29999995232,,209544.166,8,400,,,
sequence,flow.Sequence,4_29,2023-09-08T18:46:21.557Z,,0,,,2564.6990000953665,completion,,,,,false,,,,209527.20000004768,209526.40000009537,206945.207,206953.79999995232,206961.701,209544.166,8,400,,,
trial,html.Screen,4_30_0,2023-09-08T18:46:24.529Z,,0,1,,2954.433999904635,response,ISIC_2879267.JPG,5,ISIC_0029531.JPG,ISIC_0029531.JPG,false,0,keypress(z),500,212499.09999990463,212498.59999990463,209510.758,209527.5,209544.166,212508.767,8,400,31,,ISIC_2879267.JPG
break,html.Screen,4_30_1,2023-09-08T18:46:24.530Z,,0,,,NaN,,,,,,false,,,,212500.59999990463,212500,,212499.5,,212508.767,8,400,,,
break_continue,html.Screen,4_30_2,2023-09-08T18:46:24.531Z,,0,,,NaN,,,,,,false,,,,212501.70000004768,212501.40000009537,,212501,,212508.767,8,400,,,
sequence,flow.Sequence,4_30,2023-09-08T18:46:24.532Z,,0,,,2957.23400009537,completion,,,,,false,,,,212502.20000004768,212501.40000009537,209510.758,209527.40000009537,209544.166,212508.767,8,400,,,
trial,html.Screen,4_31_0,2023-09-08T18:46:26.696Z,,0,1,,2157.33299990464,response,ISIC_5087951.JPG,5,ISIC_0033546.JPG,ISIC_5087951.JPG,false,1,keypress(m),500,214666.40000009537,214666.09999990463,212492.372,212502.70000004768,212508.767,214674.169,8,400,32,,ISIC_0033546.JPG
break,html.Screen,4_31_1,2023-09-08T18:46:26.697Z,,0,,,NaN,,,,,,false,,,,214667.09999990463,214667,,214666.70000004768,,214674.169,8,400,,,
break_continue,html.Screen,4_31_2,2023-09-08T18:46:26.697Z,,0,,,NaN,,,,,,false,,,,214667.5,214667.29999995232,,214667.20000004768,,214674.169,8,400,,,
sequence,flow.Sequence,4_31,2023-09-08T18:46:26.697Z,,0,,,2158.5329999523237,completion,,,,,false,,,,214667.5,214667.29999995232,212492.372,212502.59999990463,212508.767,214674.169,8,400,,,
trial,html.Screen,4_32_0,2023-09-08T18:46:34.987Z,,0,1,,8283.231000095373,response,ISIC_0046635.JPG,481,ISIC_0014190.JPG,ISIC_0046635.JPG,false,1,keypress(m),500,222957.59999990463,222957.40000009537,214657.553,214667.70000004768,214674.169,222969.783,8,400,33,,ISIC_0014190.JPG
break,html.Screen,4_32_1,2023-09-08T18:46:34.988Z,,0,,,NaN,,,,,,false,,,,222958,222957.90000009537,,222957.59999990463,,222969.783,8,400,,,
break_continue,html.Screen,4_32_2,2023-09-08T18:46:34.988Z,,0,,,NaN,,,,,,false,,,,222958.29999995232,222958.09999990463,,222958.09999990463,,222969.783,8,400,,,
sequence,flow.Sequence,4_32,2023-09-08T18:46:34.988Z,,0,,,8283.930999904638,completion,,,,,false,,,,222958.40000009537,222958.09999990463,214657.553,214667.70000004768,214674.169,222969.783,8,400,,,
trial,html.Screen,4_33_0,2023-09-08T18:46:39.649Z,,0,1,,4649.217000000004,response,ISIC_0058877.JPG,5,ISIC_0002258.JPG,ISIC_0002258.JPG,false,0,keypress(z),500,227619.29999995232,227619,222953.213,222958.5,222969.783,227635.323,8,400,34,,ISIC_0058877.JPG
break,html.Screen,4_33_1,2023-09-08T18:46:39.650Z,,0,,,NaN,,,,,,false,,,,227620.29999995232,227620,,227619.5,,227635.323,8,400,,,
break_continue,html.Screen,4_33_2,2023-09-08T18:46:39.650Z,,0,,,NaN,,,,,,false,,,,227620.70000004768,227620.5,,227620.40000009537,,227635.323,8,400,,,
sequence,flow.Sequence,4_33,2023-09-08T18:46:39.650Z,,0,,,4650.717000000004,completion,,,,,false,,,,227620.79999995232,227620.5,222953.213,222958.5,222969.783,227635.323,8,400,,,
trial,html.Screen,4_34_0,2023-09-08T18:46:44.588Z,,0,1,,4923.0770000953635,response,ISIC_4899386.JPG,5,ISIC_0010231.JPG,ISIC_4899386.JPG,false,1,keypress(m),500,232558.90000009537,232558.40000009537,227618.121,227621,227635.323,232564.713,8,400,35,,ISIC_0010231.JPG
break,html.Screen,4_34_1,2023-09-08T18:46:44.590Z,,0,,,NaN,,,,,,false,,,,232560.20000004768,232559.79999995232,,232559.29999995232,,232564.713,8,400,,,
break_continue,html.Screen,4_34_2,2023-09-08T18:46:44.590Z,,0,,,NaN,,,,,,false,,,,232560.59999990463,232560.40000009537,,232560.29999995232,,232564.713,8,400,,,
sequence,flow.Sequence,4_34,2023-09-08T18:46:44.590Z,,0,,,4925.0770000953635,completion,,,,,false,,,,232560.79999995232,232560.40000009537,227618.121,227621,227635.323,232564.713,8,400,,,
trial,html.Screen,4_35_0,2023-09-08T18:46:47.826Z,,0,1,,3230.987000047695,response,ISIC_0029723.JPG,6,ISIC_0033213.JPG,ISIC_0029723.JPG,false,1,keypress(m),500,235796,235795.70000004768,232548.29,232561,232564.713,235812.93,8,400,36,,ISIC_0033213.JPG
break,html.Screen,4_35_1,2023-09-08T18:46:47.827Z,,0,,,NaN,,,,,,false,,,,235797.09999990463,235796.79999995232,,235796.29999995232,,235812.93,8,400,,,
break_continue,html.Screen,4_35_2,2023-09-08T18:46:47.827Z,,0,,,NaN,,,,,,false,,,,235797.70000004768,235797.59999990463,,235797.40000009537,,235812.93,8,400,,,
sequence,flow.Sequence,4_35,2023-09-08T18:46:47.827Z,,0,,,3232.8869999046437,completion,,,,,false,,,,235798,235797.59999990463,232548.29,232560.79999995232,232564.713,235812.93,8,400,,,
trial,html.Screen,4_36_0,2023-09-08T18:46:58.263Z,,0,1,,10419.77000004769,response,ISIC_0028781.JPG,5,ISIC_0030610.JPG,ISIC_0030610.JPG,false,0,keypress(z),500,246233.09999990463,246232.70000004768,235796.771,235798.09999990463,235812.93,246240.74,8,400,37,,ISIC_0028781.JPG
break,html.Screen,4_36_1,2023-09-08T18:46:58.265Z,,0,,,NaN,,,,,,false,,,,246234.90000009537,246234.29999995232,,246233.5,,246240.74,8,400,,,
break_continue,html.Screen,4_36_2,2023-09-08T18:46:58.266Z,,0,,,NaN,,,,,,false,,,,246236.09999990463,246235.70000004768,,246235.29999995232,,246240.74,8,400,,,
sequence,flow.Sequence,4_36,2023-09-08T18:46:58.266Z,,0,,,10422.77000004769,completion,,,,,false,,,,246236.59999990463,246235.70000004768,235796.771,235798.09999990463,235812.93,246240.74,8,400,,,
trial,html.Screen,4_37_0,2023-09-08T18:47:00.958Z,,0,1,,2687.2600000000093,response,ISIC_5755836.JPG,5,ISIC_0899961.JPG,ISIC_0899961.JPG,false,0,keypress(z),500,248928.20000004768,248928,246224.372,246236.90000009537,246240.74,248939.504,8,400,38,,ISIC_5755836.JPG
break,html.Screen,4_37_1,2023-09-08T18:47:00.959Z,,0,,,NaN,,,,,,false,,,,248928.79999995232,248928.59999990463,,248928.29999995232,,248939.504,8,400,,,
break_continue,html.Screen,4_37_2,2023-09-08T18:47:00.959Z,,0,,,NaN,,,,,,false,,,,248929,248929,,248928.79999995232,,248939.504,8,400,,,
sequence,flow.Sequence,4_37,2023-09-08T18:47:00.959Z,,0,,,2688.2600000000093,completion,,,,,false,,,,248929.09999990463,248929,246224.372,246236.90000009537,246240.74,248939.504,8,400,,,
trial,html.Screen,4_38_0,2023-09-08T18:47:03.554Z,,0,1,,2583.896000095381,response,ISIC_9732721.JPG,5,ISIC_8121679.JPG,ISIC_9732721.JPG,false,1,keypress(m),500,251523.70000004768,251523.40000009537,248922.804,248929.20000004768,248939.504,251538.279,8,400,39,,ISIC_8121679.JPG
break,html.Screen,4_38_1,2023-09-08T18:47:03.554Z,,0,,,NaN,,,,,,false,,,,251524.59999990463,251524.40000009537,,251523.90000009537,,251538.279,8,400,,,
break_continue,html.Screen,4_38_2,2023-09-08T18:47:03.555Z,,0,,,NaN,,,,,,false,,,,251525.20000004768,251525,,251524.79999995232,,251538.279,8,400,,,
sequence,flow.Sequence,4_38,2023-09-08T18:47:03.555Z,,0,,,2585.4960000000137,completion,,,,,false,,,,251525.5,251525,248922.804,248929.20000004768,248939.504,251538.279,8,400,,,
trial,html.Screen,4_39_0,2023-09-08T18:47:07.894Z,,0,1,,4325.320999904623,response,ISIC_0054233.JPG,5,ISIC_0031494.JPG,ISIC_0054233.JPG,false,1,keypress(m),500,255864,255863.59999990463,251521.683,251525.59999990463,251538.279,255869.054,8,400,40,,ISIC_0031494.JPG
break,html.Screen,4_39_1,2023-09-08T18:47:07.895Z,,0,,,NaN,,,,,,false,,,,255865.09999990463,255864.79999995232,,255864.29999995232,,255869.054,8,400,,,
break_continue,html.Screen,4_39_2,2023-09-08T18:47:07.896Z,,0,,,NaN,,,,,,false,,,,255865.70000004768,255865.59999990463,,255865.29999995232,,255869.054,8,400,,,
sequence,flow.Sequence,4_39,2023-09-08T18:47:07.896Z,,0,,,4327.320999904623,completion,,,,,false,,,,255866.29999995232,255865.59999990463,251521.683,251525.59999990463,251538.279,255869.054,8,400,,,
trial,html.Screen,4_40_0,2023-09-08T18:47:13.410Z,,0,1,,5510.445999999996,response,ISIC_3448546.JPG,5,ISIC_1797795.JPG,ISIC_3448546.JPG,false,1,keypress(m),500,261379.79999995232,261379.5,255852.72,255866.5,255869.054,261399.908,8,400,41,,ISIC_1797795.JPG
break,html.Screen,4_40_1,2023-09-08T18:47:13.411Z,,0,,,NaN,,,,,,false,,,,261380.70000004768,261380.5,,261380.09999990463,,261399.908,8,400,,,
break_continue,html.Screen,4_40_2,2023-09-08T18:47:13.411Z,,0,,,NaN,,,,,,false,,,,261381.09999990463,261381,,261380.79999995232,,261399.908,8,400,,,
sequence,flow.Sequence,4_40,2023-09-08T18:47:13.411Z,,0,,,5511.945999999996,completion,,,,,false,,,,261381.29999995232,261381,255852.72,255866.5,255869.054,261399.908,8,400,,,
trial,html.Screen,4_41_0,2023-09-08T18:47:15.898Z,,0,1,,2467.9920000953716,response,ISIC_0054767.JPG,5,ISIC_0021052.JPG,ISIC_0054767.JPG,false,1,keypress(m),500,263868.2000000477,263867.90000009537,261382.635,261381.5,261399.908,263897.911,8,400,42,,ISIC_0021052.JPG
break,html.Screen,4_41_1,2023-09-08T18:47:15.899Z,,0,,,NaN,,,,,,false,,,,263869,263868.7999999523,,263868.40000009537,,263897.911,8,400,,,
break_continue,html.Screen,4_41_2,2023-09-08T18:47:15.899Z,,0,,,NaN,,,,,,false,,,,263869.40000009537,263869.2999999523,,263869.2000000477,,263897.911,8,400,,,
sequence,flow.Sequence,4_41,2023-09-08T18:47:15.899Z,,0,,,2469.3919999523205,completion,,,,,false,,,,263869.7000000477,263869.2999999523,261382.635,261381.40000009537,261399.908,263897.911,8,400,,,
trial,html.Screen,4_42_0,2023-09-08T18:47:18.276Z,,0,1,,2347.789000047662,response,ISIC_0063680.JPG,5,ISIC_0029881.JPG,ISIC_0063680.JPG,false,1,keypress(m),500,266246,266245.7000000477,263881.306,263869.7999999523,263897.911,266263.579,8,400,43,,ISIC_0029881.JPG
break,html.Screen,4_42_1,2023-09-08T18:47:18.277Z,,0,,,NaN,,,,,,false,,,,266247.09999990463,266246.7999999523,,266246.2999999523,,266263.579,8,400,,,
break_continue,html.Screen,4_42_2,2023-09-08T18:47:18.277Z,,0,,,NaN,,,,,,false,,,,266247.5,266247.2999999523,,266247.2000000477,,266263.579,8,400,,,
sequence,flow.Sequence,4_42,2023-09-08T18:47:18.278Z,,0,,,2349.3889999522944,completion,,,,,false,,,,266247.7999999523,266247.2999999523,263881.306,263869.7000000477,263897.911,266263.579,8,400,,,
trial,html.Screen,4_43_0,2023-09-08T18:47:20.637Z,,0,1,,2342.8210000953404,response,ISIC_8483382.JPG,5,ISIC_1819071.JPG,ISIC_8483382.JPG,false,1,keypress(m),500,268606.7999999523,268606.40000009537,266246.626,266247.90000009537,266263.579,268612.05,8,400,44,,ISIC_1819071.JPG
break,html.Screen,4_43_1,2023-09-08T18:47:20.637Z,,0,,,NaN,,,,,,false,,,,268607.59999990463,268607.40000009537,,268607.09999990463,,268612.05,8,400,,,
break_continue,html.Screen,4_43_2,2023-09-08T18:47:20.638Z,,0,,,NaN,,,,,,false,,,,268608,268607.90000009537,,268607.7999999523,,268612.05,8,400,,,
sequence,flow.Sequence,4_43,2023-09-08T18:47:20.638Z,,0,,,2344.3210000953404,completion,,,,,false,,,,268608.2000000477,268607.90000009537,266246.626,266247.90000009537,266263.579,268612.05,8,400,,,
trial,html.Screen,4_44_0,2023-09-08T18:47:23.249Z,,0,1,,2606.850000095379,response,ISIC_0024586.JPG,6,ISIC_2524005.JPG,ISIC_2524005.JPG,false,0,keypress(z),500,271219,271218.90000009537,268595.688,268608.2999999523,268612.05,271227.633,8,400,45,,ISIC_0024586.JPG
break,html.Screen,4_44_1,2023-09-08T18:47:23.249Z,,0,,,NaN,,,,,,false,,,,271219.40000009537,271219.40000009537,,271219.2000000477,,271227.633,8,400,,,
break_continue,html.Screen,4_44_2,2023-09-08T18:47:23.249Z,,0,,,NaN,,,,,,false,,,,271219.59999990463,271219.5,,271219.5,,271227.633,8,400,,,
sequence,flow.Sequence,4_44,2023-09-08T18:47:23.250Z,,0,,,2607.4500000000116,completion,,,,,false,,,,271219.7000000477,271219.5,268595.688,268608.2999999523,268612.05,271227.633,8,400,,,
trial,html.Screen,4_45_0,2023-09-08T18:47:26.340Z,,0,1,,3081.767000095395,response,ISIC_3760796.JPG,5,ISIC_3716686.JPG,ISIC_3760796.JPG,false,1,keypress(m),500,274310,274309.40000009537,271210.706,271219.7000000477,271227.633,274326.003,8,400,46,,ISIC_3716686.JPG
break,html.Screen,4_45_1,2023-09-08T18:47:26.342Z,,0,,,NaN,,,,,,false,,,,274312.2999999523,274311.40000009537,,274310.7000000477,,274326.003,8,400,,,
break_continue,html.Screen,4_45_2,2023-09-08T18:47:26.343Z,,0,,,NaN,,,,,,false,,,,274313.2999999523,274313,,274312.7000000477,,274326.003,8,400,,,
sequence,flow.Sequence,4_45,2023-09-08T18:47:26.344Z,,0,,,3085.3670000000275,completion,,,,,false,,,,274313.7000000477,274313,271210.706,271219.7000000477,271227.633,274326.003,8,400,,,
trial,html.Screen,4_46_0,2023-09-08T18:47:29.227Z,,0,1,,2870.3970000953414,response,ISIC_0034239.JPG,6,ISIC_0071576.JPG,ISIC_0071576.JPG,false,0,keypress(z),500,277196.7999999523,277196.40000009537,274309.589,274314.09999990463,274326.003,277207.479,8,400,47,,ISIC_0034239.JPG
break,html.Screen,4_46_1,2023-09-08T18:47:29.228Z,,0,,,NaN,,,,,,false,,,,277198,277197.7000000477,,277197.2000000477,,277207.479,8,400,,,
break_continue,html.Screen,4_46_2,2023-09-08T18:47:29.229Z,,0,,,NaN,,,,,,false,,,,277198.7999999523,277198.5,,277198.2000000477,,277207.479,8,400,,,
sequence,flow.Sequence,4_46,2023-09-08T18:47:29.229Z,,0,,,2872.496999999974,completion,,,,,false,,,,277199,277198.5,274309.589,274314,274326.003,277207.479,8,400,,,
trial,html.Screen,4_47_0,2023-09-08T18:47:35.447Z,,0,1,,6209.421000095375,response,ISIC_9182285.JPG,5,ISIC_0484171.JPG,ISIC_9182285.JPG,false,1,keypress(m),500,283417,283416.90000009537,277191.363,277199.2000000477,277207.479,283420.77,8,400,48,,ISIC_0484171.JPG
break,html.Screen,4_47_1,2023-09-08T18:47:35.447Z,,0,,,NaN,,,,,,false,,,,283417.5,283417.2999999523,,283417.09999990463,,283420.77,8,400,,,
break_continue,html.Screen,4_47_2,2023-09-08T18:47:35.448Z,,0,,,NaN,,,,,,false,,,,283417.7999999523,283417.7000000477,,283417.59999990463,,283420.77,8,400,,,
sequence,flow.Sequence,4_47,2023-09-08T18:47:35.448Z,,0,,,6210.221000047692,completion,,,,,false,,,,283417.90000009537,283417.7000000477,277191.363,277199.2000000477,277207.479,283420.77,8,400,,,
trial,html.Screen,4_48_0,2023-09-08T18:47:38.029Z,,0,1,,2577.7299999999814,response,ISIC_0010648.JPG,5,ISIC_0014079.JPG,ISIC_0014079.JPG,false,0,keypress(z),500,285999,285998.5,283404.36,283418,283420.77,286002.901,8,400,49,,ISIC_0010648.JPG
break,html.Screen,4_48_1,2023-09-08T18:47:38.030Z,,0,,,NaN,,,,,,false,,,,286000.2999999523,286000,,285999.40000009537,,286002.901,8,400,,,
break_continue,html.Screen,4_48_2,2023-09-08T18:47:38.031Z,,0,,,NaN,,,,,,false,,,,286001,286000.7999999523,,286000.59999990463,,286002.901,8,400,,,
sequence,flow.Sequence,4_48,2023-09-08T18:47:38.031Z,,0,,,2580.0299999522977,completion,,,,,false,,,,286001.2999999523,286000.7999999523,283404.36,283418,283420.77,286002.901,8,400,,,
trial,html.Screen,4_49_0,2023-09-08T18:47:40.664Z,,0,1,,2630.299000047671,response,ISIC_0024306.JPG,4,ISIC_7110699.JPG,ISIC_7110699.JPG,false,0,keypress(z),500,288633.7999999523,288633.2000000477,285986.365,286001.59999990463,286002.901,288651.801,8,400,50,,ISIC_0024306.JPG
break,html.Screen,4_49_1,2023-09-08T18:47:50.661Z,,0,,,9994.232000000018,timeout,,,,,false,,,,298630.90000009537,298629.473,288634.973,288634.2999999523,288651.801,298646.033,8,400,,,
break_continue,html.Screen,4_49_2,2023-09-08T18:47:52.277Z,,0,,,1585.5669999046368,response,,,,,false,continue,keypress(Space),,300247.59999990463,300231.59999990463,298629.473,298631.09999990463,298646.033,300261.859,8,400,,,
sequence,flow.Sequence,4_49,2023-09-08T18:47:52.278Z,,0,,,14228.69899990462,completion,,,,,false,,,,300247.7999999523,300231.59999990463,285986.365,286001.40000009537,286002.901,300261.859,8,400,,,
trial,html.Screen,4_50_0,2023-09-08T18:47:54.824Z,,0,2,,2531.5410000953707,response,ISIC_8268025.JPG,5,ISIC_0212774.JPG,ISIC_0212774.JPG,false,0,keypress(z),500,302794.40000009537,302793.40000009537,300246.165,300247.90000009537,300261.859,302810.623,8,400,1,,ISIC_8268025.JPG
break,html.Screen,4_50_1,2023-09-08T18:47:54.826Z,,0,,,NaN,,,,,,false,,,,302796.09999990463,302795.59999990463,,302794.7999999523,,302810.623,8,400,,,
break_continue,html.Screen,4_50_2,2023-09-08T18:47:54.827Z,,0,,,NaN,,,,,,false,,,,302797.09999990463,302796.7000000477,,302796.40000009537,,302810.623,8,400,,,
sequence,flow.Sequence,4_50,2023-09-08T18:47:54.827Z,,0,,,2534.841000047687,completion,,,,,false,,,,302797.59999990463,302796.7000000477,300246.165,300247.90000009537,300261.859,302810.623,8,400,,,
trial,html.Screen,4_51_0,2023-09-08T18:47:57.090Z,,0,2,,2249.5770000476623,response,ISIC_0033501.JPG,5,ISIC_2714572.JPG,ISIC_2714572.JPG,false,0,keypress(z),500,305060.40000009537,305060.2000000477,302794.198,302798.09999990463,302810.623,305076.212,8,400,2,,ISIC_0033501.JPG
break,html.Screen,4_51_1,2023-09-08T18:47:57.091Z,,0,,,NaN,,,,,,false,,,,305061.09999990463,305061,,305060.7000000477,,305076.212,8,400,,,
break_continue,html.Screen,4_51_2,2023-09-08T18:47:57.091Z,,0,,,NaN,,,,,,false,,,,305061.40000009537,305061.2999999523,,305061.2000000477,,305076.212,8,400,,,
sequence,flow.Sequence,4_51,2023-09-08T18:47:57.091Z,,0,,,2250.676999952295,completion,,,,,false,,,,305061.5,305061.2999999523,302794.198,302797.90000009537,302810.623,305076.212,8,400,,,
trial,html.Screen,4_52_0,2023-09-08T18:47:59.708Z,,0,2,,2601.7880000000005,response,ISIC_0011772.JPG,4,ISIC_0029909.JPG,ISIC_0011772.JPG,false,1,keypress(m),500,307678.7999999523,307678,305059.697,305061.59999990463,305076.212,307691.205,8,400,3,,ISIC_0029909.JPG
break,html.Screen,4_52_1,2023-09-08T18:47:59.710Z,,0,,,NaN,,,,,,false,,,,307680.7000000477,307680.09999990463,,307679.5,,307691.205,8,400,,,
break_continue,html.Screen,4_52_2,2023-09-08T18:47:59.712Z,,0,,,NaN,,,,,,false,,,,307682,307681.2999999523,,307680.90000009537,,307691.205,8,400,,,
sequence,flow.Sequence,4_52,2023-09-08T18:47:59.712Z,,0,,,2605.0879999523167,completion,,,,,false,,,,307682.59999990463,307681.2999999523,305059.697,305061.59999990463,305076.212,307691.205,8,400,,,
trial,html.Screen,4_53_0,2023-09-08T18:48:03.043Z,,0,2,,3321.695000095351,response,ISIC_7293518.JPG,5,ISIC_0059181.JPG,ISIC_0059181.JPG,false,0,keypress(z),500,311013.2999999523,311012.90000009537,307675.041,307682.7000000477,307691.205,311022.814,8,400,4,,ISIC_7293518.JPG
break,html.Screen,4_53_1,2023-09-08T18:48:03.044Z,,0,,,NaN,,,,,,false,,,,311014.59999990463,311014.09999990463,,311013.7000000477,,311022.814,8,400,,,
break_continue,html.Screen,4_53_2,2023-09-08T18:48:03.045Z,,0,,,NaN,,,,,,false,,,,311015.09999990463,311015,,311014.7000000477,,311022.814,8,400,,,
sequence,flow.Sequence,4_53,2023-09-08T18:48:03.045Z,,0,,,3323.7949999999837,completion,,,,,false,,,,311015.40000009537,311015,307675.041,307682.7000000477,307691.205,311022.814,8,400,,,
trial,html.Screen,4_54_0,2023-09-08T18:48:05.562Z,,0,2,,2509.0860000953544,response,ISIC_0028410.JPG,5,ISIC_0013839.JPG,ISIC_0013839.JPG,false,0,keypress(z),500,313532.2999999523,313531.90000009537,311006.431,311015.7000000477,311022.814,313538.081,8,400,5,,ISIC_0028410.JPG
break,html.Screen,4_54_1,2023-09-08T18:48:05.563Z,,0,,,NaN,,,,,,false,,,,313533.2999999523,313533,,313532.59999990463,,313538.081,8,400,,,
break_continue,html.Screen,4_54_2,2023-09-08T18:48:05.564Z,,0,,,NaN,,,,,,false,,,,313533.90000009537,313533.59999990463,,313533.5,,313538.081,8,400,,,
sequence,flow.Sequence,4_54,2023-09-08T18:48:05.564Z,,0,,,2510.7859999046195,completion,,,,,false,,,,313534,313533.59999990463,311006.431,311015.59999990463,311022.814,313538.081,8,400,,,
trial,html.Screen,4_55_0,2023-09-08T18:48:08.237Z,,0,2,,2669.018999904627,response,ISIC_9288923.JPG,5,ISIC_0011256.JPG,ISIC_9288923.JPG,false,1,keypress(m),500,316207.2999999523,316207.09999990463,313521.953,313534.09999990463,313538.081,316220.05,8,400,6,,ISIC_0011256.JPG
break,html.Screen,4_55_1,2023-09-08T18:48:08.238Z,,0,,,NaN,,,,,,false,,,,316207.7999999523,316207.7999999523,,316207.5,,316220.05,8,400,,,
break_continue,html.Screen,4_55_2,2023-09-08T18:48:08.238Z,,0,,,NaN,,,,,,false,,,,316208,316208,,316207.90000009537,,316220.05,8,400,,,
sequence,flow.Sequence,4_55,2023-09-08T18:48:08.238Z,,0,,,2669.9189999999944,completion,,,,,false,,,,316208.2000000477,316208,313521.953,313534.09999990463,313538.081,316220.05,8,400,,,
trial,html.Screen,4_56_0,2023-09-08T18:48:10.961Z,,0,2,,2711.549999904644,response,ISIC_3222447.JPG,5,ISIC_0065324.JPG,ISIC_3222447.JPG,false,1,keypress(m),500,318931.7999999523,318931.59999990463,316203.588,316208.2000000477,316220.05,318935.218,8,400,7,,ISIC_0065324.JPG
break,html.Screen,4_56_1,2023-09-08T18:48:10.962Z,,0,,,NaN,,,,,,false,,,,318932.5,318932.2000000477,,318932,,318935.218,8,400,,,
break_continue,html.Screen,4_56_2,2023-09-08T18:48:10.963Z,,0,,,NaN,,,,,,false,,,,318932.7999999523,318932.7000000477,,318932.7000000477,,318935.218,8,400,,,
sequence,flow.Sequence,4_56,2023-09-08T18:48:10.963Z,,0,,,2712.6500000476954,completion,,,,,false,,,,318933.2999999523,318932.7000000477,316203.588,316208.2000000477,316220.05,318935.218,8,400,,,
trial,html.Screen,4_57_0,2023-09-08T18:48:13.479Z,,0,2,,2513.7820000000065,response,ISIC_0064656.JPG,5,ISIC_5360921.JPG,ISIC_0064656.JPG,false,1,keypress(m),500,321449.40000009537,321449,318918.773,318933.40000009537,318935.218,321483.837,8,400,8,,ISIC_5360921.JPG
break,html.Screen,4_57_1,2023-09-08T18:48:13.480Z,,0,,,NaN,,,,,,false,,,,321450.7000000477,321450.2999999523,,321449.7999999523,,321483.837,8,400,,,
break_continue,html.Screen,4_57_2,2023-09-08T18:48:13.481Z,,0,,,NaN,,,,,,false,,,,321451.2999999523,321451.09999990463,,321450.90000009537,,321483.837,8,400,,,
sequence,flow.Sequence,4_57,2023-09-08T18:48:13.481Z,,0,,,2515.881999904639,completion,,,,,false,,,,321451.7000000477,321451.09999990463,318918.773,318933.40000009537,318935.218,321483.837,8,400,,,
trial,html.Screen,4_58_0,2023-09-08T18:48:15.996Z,,0,2,,2482.063000095368,response,ISIC_0055435.JPG,5,ISIC_0014809.JPG,ISIC_0055435.JPG,false,1,keypress(m),500,323966.09999990463,323965.90000009537,321467.649,321451.90000009537,321483.837,323982.47,8,400,9,,ISIC_0014809.JPG
break,html.Screen,4_58_1,2023-09-08T18:48:15.996Z,,0,,,NaN,,,,,,false,,,,323966.7000000477,323966.5,,323966.2000000477,,323982.47,8,400,,,
break_continue,html.Screen,4_58_2,2023-09-08T18:48:15.997Z,,0,,,NaN,,,,,,false,,,,323966.90000009537,323966.7999999523,,323966.7999999523,,323982.47,8,400,,,
sequence,flow.Sequence,4_58,2023-09-08T18:48:15.997Z,,0,,,2482.9629999523167,completion,,,,,false,,,,323967,323966.7999999523,321467.649,321451.7999999523,321483.837,323982.47,8,400,,,
trial,html.Screen,4_59_0,2023-09-08T18:48:27.493Z,,0,2,,11513.830000000016,timeout,ISIC_0027087.JPG,6,ISIC_0011031.JPG,,false,,,500,335463.59999990463,335463.40000009537,323966.112,323967.09999990463,323982.47,335496.3,8,400,10,,
break,html.Screen,4_59_1,2023-09-08T18:48:27.494Z,,0,,,NaN,,,,,,false,,,,335464.09999990463,335463.90000009537,,335463.7999999523,,335496.3,8,400,,,
break_continue,html.Screen,4_59_2,2023-09-08T18:48:27.494Z,,0,,,NaN,,,,,,false,,,,335464.40000009537,335464.2999999523,,335464.09999990463,,335496.3,8,400,,,
sequence,flow.Sequence,4_59,2023-09-08T18:48:27.494Z,,0,,,11481.829999952344,completion,,,,,false,,,,335464.59999990463,335464.2999999523,323966.112,323967.09999990463,323982.47,335496.3,8,400,,,
trial,html.Screen,4_60_0,2023-09-08T18:48:39.004Z,,0,2,,11510.76900000003,timeout,ISIC_1076474.JPG,4,ISIC_8663136.JPG,,false,,,500,346974.2999999523,346974.09999990463,335479.957,335464.7000000477,335496.3,347007.069,8,400,11,,
break,html.Screen,4_60_1,2023-09-08T18:48:39.004Z,,0,,,NaN,,,,,,false,,,,346974.7999999523,346974.59999990463,,346974.40000009537,,347007.069,8,400,,,
break_continue,html.Screen,4_60_2,2023-09-08T18:48:39.005Z,,0,,,NaN,,,,,,false,,,,346975.09999990463,346974.90000009537,,346974.90000009537,,347007.069,8,400,,,
sequence,flow.Sequence,4_60,2023-09-08T18:48:39.005Z,,0,,,11478.600000095379,completion,,,,,false,,,,346975.2000000477,346974.90000009537,335479.957,335464.7000000477,335496.3,347007.069,8,400,,,
trial,html.Screen,4_61_0,2023-09-08T18:48:41.503Z,,0,2,,2465.9309999999823,response,ISIC_2937642.JPG,5,ISIC_0026401.JPG,ISIC_2937642.JPG,false,1,keypress(m),500,349473.2000000477,349473,346990.216,346975.2999999523,347007.069,349488.869,8,400,12,,ISIC_0026401.JPG
break,html.Screen,4_61_1,2023-09-08T18:48:41.504Z,,0,,,NaN,,,,,,false,,,,349474,349473.7999999523,,349473.5,,349488.869,8,400,,,
break_continue,html.Screen,4_61_2,2023-09-08T18:48:41.504Z,,0,,,NaN,,,,,,false,,,,349474.2999999523,349474.2000000477,,349474.2000000477,,349488.869,8,400,,,
sequence,flow.Sequence,4_61,2023-09-08T18:48:41.504Z,,0,,,2467.131000047666,completion,,,,,false,,,,349474.5,349474.2000000477,346990.216,346975.2999999523,347007.069,349488.869,8,400,,,
trial,html.Screen,4_62_0,2023-09-08T18:48:43.782Z,,0,2,,2263.2309999046265,response,ISIC_0032133.JPG,6,ISIC_0031477.JPG,ISIC_0032133.JPG,false,1,keypress(m),500,351752.59999990463,351752.09999990463,349472.664,349474.59999990463,349488.869,351771.162,8,400,13,,ISIC_0031477.JPG
break,html.Screen,4_62_1,2023-09-08T18:48:43.784Z,,0,,,NaN,,,,,,false,,,,351754.09999990463,351753.7000000477,,351753,,351771.162,8,400,,,
break_continue,html.Screen,4_62_2,2023-09-08T18:48:43.785Z,,0,,,NaN,,,,,,false,,,,351755,351754.7000000477,,351754.5,,351771.162,8,400,,,
sequence,flow.Sequence,4_62,2023-09-08T18:48:43.785Z,,0,,,2265.8310000476777,completion,,,,,false,,,,351755.2000000477,351754.7000000477,349472.664,349474.59999990463,349488.869,351771.162,8,400,,,
trial,html.Screen,4_63_0,2023-09-08T18:48:46.140Z,,0,2,,2339.2380000953563,response,ISIC_0420777.JPG,4,ISIC_0027085.JPG,ISIC_0027085.JPG,false,0,keypress(z),500,354110.5,354110.40000009537,351737.941,351755.7000000477,351771.162,354120.069,8,400,14,,ISIC_0420777.JPG
break,html.Screen,4_63_1,2023-09-08T18:48:46.141Z,,0,,,NaN,,,,,,false,,,,354110.90000009537,354110.7999999523,,354110.59999990463,,354120.069,8,400,,,
break_continue,html.Screen,4_63_2,2023-09-08T18:48:46.141Z,,0,,,NaN,,,,,,false,,,,354111.09999990463,354111,,354111,,354120.069,8,400,,,
sequence,flow.Sequence,4_63,2023-09-08T18:48:46.141Z,,0,,,2339.837999999989,completion,,,,,false,,,,354111.09999990463,354111,351737.941,351755.5,351771.162,354120.069,8,400,,,
trial,html.Screen,4_64_0,2023-09-08T18:48:49.590Z,,0,2,,3440.030999904615,response,ISIC_0025814.JPG,6,ISIC_0010734.JPG,ISIC_0025814.JPG,false,1,keypress(m),500,357560.2000000477,357560.09999990463,354103.516,354111.2000000477,354120.069,357568.08,8,400,15,,ISIC_0010734.JPG
break,html.Screen,4_64_1,2023-09-08T18:48:49.590Z,,0,,,NaN,,,,,,false,,,,357560.59999990463,357560.5,,357560.40000009537,,357568.08,8,400,,,
break_continue,html.Screen,4_64_2,2023-09-08T18:48:49.590Z,,0,,,NaN,,,,,,false,,,,357560.7000000477,357560.59999990463,,357560.59999990463,,357568.08,8,400,,,
sequence,flow.Sequence,4_64,2023-09-08T18:48:49.591Z,,0,,,3440.530999904615,completion,,,,,false,,,,357560.7999999523,357560.59999990463,354103.516,354111.2000000477,354120.069,357568.08,8,400,,,
trial,html.Screen,4_65_0,2023-09-08T18:48:51.776Z,,0,2,,2177.7199999523,response,ISIC_0034075.JPG,6,ISIC_0073147.JPG,ISIC_0073147.JPG,false,0,keypress(z),500,359745.90000009537,359745.7999999523,357551.696,357560.7999999523,357568.08,359750.009,8,400,16,,ISIC_0034075.JPG
break,html.Screen,4_65_1,2023-09-08T18:48:51.776Z,,0,,,NaN,,,,,,false,,,,359746.5,359746.40000009537,,359746.09999990463,,359750.009,8,400,,,
break_continue,html.Screen,4_65_2,2023-09-08T18:48:51.777Z,,0,,,NaN,,,,,,false,,,,359746.90000009537,359746.7999999523,,359746.7000000477,,359750.009,8,400,,,
sequence,flow.Sequence,4_65,2023-09-08T18:48:51.777Z,,0,,,2178.7199999523,completion,,,,,false,,,,359747.09999990463,359746.7999999523,357551.696,357560.7999999523,357568.08,359750.009,8,400,,,
trial,html.Screen,4_66_0,2023-09-08T18:48:54.356Z,,0,2,,2575.3910000953474,response,ISIC_0012678.JPG,6,ISIC_6552552.JPG,ISIC_0012678.JPG,false,1,keypress(m),500,362325.59999990463,362325.40000009537,359733.523,359747.2000000477,359750.009,362331.998,8,400,17,,ISIC_6552552.JPG
break,html.Screen,4_66_1,2023-09-08T18:48:54.356Z,,0,,,NaN,,,,,,false,,,,362326.2000000477,362326,,362325.7999999523,,362331.998,8,400,,,
break_continue,html.Screen,4_66_2,2023-09-08T18:48:54.357Z,,0,,,NaN,,,,,,false,,,,362326.40000009537,362326.40000009537,,362326.2000000477,,362331.998,8,400,,,
sequence,flow.Sequence,4_66,2023-09-08T18:48:54.357Z,,0,,,2576.3910000953474,completion,,,,,false,,,,362326.59999990463,362326.40000009537,359733.523,359747.2000000477,359750.009,362331.998,8,400,,,
trial,html.Screen,4_67_0,2023-09-08T18:48:56.377Z,,0,2,,2013.902000095346,response,ISIC_0024537.JPG,5,ISIC_0011528.JPG,ISIC_0024537.JPG,false,1,keypress(m),500,364346.2999999523,364345.90000009537,362315.965,362326.59999990463,362331.998,364364.73,8,400,18,,ISIC_0011528.JPG
break,html.Screen,4_67_1,2023-09-08T18:48:56.378Z,,0,,,NaN,,,,,,false,,,,364347.2000000477,364346.90000009537,,364346.5,,364364.73,8,400,,,
break_continue,html.Screen,4_67_2,2023-09-08T18:48:56.378Z,,0,,,NaN,,,,,,false,,,,364347.7000000477,364347.59999990463,,364347.40000009537,,364364.73,8,400,,,
sequence,flow.Sequence,4_67,2023-09-08T18:48:56.378Z,,0,,,2015.6019999046111,completion,,,,,false,,,,364347.90000009537,364347.59999990463,362315.965,362326.59999990463,362331.998,364364.73,8,400,,,
trial,html.Screen,4_68_0,2023-09-08T18:49:00.498Z,,0,2,,4102.970000047702,response,ISIC_0063070.JPG,5,ISIC_8627293.JPG,ISIC_0063070.JPG,false,1,keypress(m),500,368467.90000009537,368467.7000000477,364331.201,364348,364364.73,368479.114,8,400,19,,ISIC_8627293.JPG
break,html.Screen,4_68_1,2023-09-08T18:49:00.499Z,,0,,,NaN,,,,,,false,,,,368468.40000009537,368468.2000000477,,368468.09999990463,,368479.114,8,400,,,
break_continue,html.Screen,4_68_2,2023-09-08T18:49:00.499Z,,0,,,NaN,,,,,,false,,,,368468.59999990463,368468.5,,368468.40000009537,,368479.114,8,400,,,
sequence,flow.Sequence,4_68,2023-09-08T18:49:00.499Z,,0,,,4103.770000000019,completion,,,,,false,,,,368468.7000000477,368468.5,364331.201,364348,364364.73,368479.114,8,400,,,
trial,html.Screen,4_69_0,2023-09-08T18:49:02.616Z,,0,2,,2106.185999952315,response,ISIC_5576354.JPG,5,ISIC_0024745.JPG,ISIC_5576354.JPG,false,1,keypress(m),500,370585.5,370585.2999999523,368462.279,368468.7999999523,368479.114,370594.214,8,400,20,,ISIC_0024745.JPG
break,html.Screen,4_69_1,2023-09-08T18:49:02.617Z,,0,,,NaN,,,,,,false,,,,370586.40000009537,370586.09999990463,,370585.7999999523,,370594.214,8,400,,,
break_continue,html.Screen,4_69_2,2023-09-08T18:49:02.617Z,,0,,,NaN,,,,,,false,,,,370587,370586.7000000477,,370586.59999990463,,370594.214,8,400,,,
sequence,flow.Sequence,4_69,2023-09-08T18:49:02.617Z,,0,,,2107.5860000476823,completion,,,,,false,,,,370587.09999990463,370586.7000000477,368462.279,368468.7000000477,368479.114,370594.214,8,400,,,
trial,html.Screen,4_70_0,2023-09-08T18:49:05.150Z,,0,2,,2524.6860000953893,response,ISIC_0029033.JPG,5,ISIC_2670619.JPG,ISIC_2670619.JPG,false,0,keypress(z),500,373119.40000009537,373118.90000009537,370578.105,370587.2999999523,370594.214,373126.324,8,400,21,,ISIC_0029033.JPG
break,html.Screen,4_70_1,2023-09-08T18:49:05.151Z,,0,,,NaN,,,,,,false,,,,373121,373120.5,,373119.7999999523,,373126.324,8,400,,,
break_continue,html.Screen,4_70_2,2023-09-08T18:49:05.152Z,,0,,,NaN,,,,,,false,,,,373121.7000000477,373121.5,,373121.2999999523,,373126.324,8,400,,,
sequence,flow.Sequence,4_70,2023-09-08T18:49:05.152Z,,0,,,2527.286000000022,completion,,,,,false,,,,373122,373121.5,370578.105,370587.2000000477,370594.214,373126.324,8,400,,,
trial,html.Screen,4_71_0,2023-09-08T18:49:07.688Z,,0,2,,2531.27599990461,response,ISIC_0032269.JPG,6,ISIC_1611503.JPG,ISIC_0032269.JPG,false,1,keypress(m),500,375657.90000009537,375657.59999990463,373109.882,373122.09999990463,373126.324,375675.101,8,400,22,,ISIC_1611503.JPG
break,html.Screen,4_71_1,2023-09-08T18:49:07.689Z,,0,,,NaN,,,,,,false,,,,375659,375658.59999990463,,375658.2000000477,,375675.101,8,400,,,
break_continue,html.Screen,4_71_2,2023-09-08T18:49:07.690Z,,0,,,NaN,,,,,,false,,,,375659.5,375659.40000009537,,375659.2999999523,,375675.101,8,400,,,
sequence,flow.Sequence,4_71,2023-09-08T18:49:07.690Z,,0,,,2533.076000095345,completion,,,,,false,,,,375659.7000000477,375659.40000009537,373109.882,373122.09999990463,373126.324,375675.101,8,400,,,
trial,html.Screen,4_72_0,2023-09-08T18:49:10.130Z,,0,2,,2424.799000095343,response,ISIC_9935444.JPG,5,ISIC_0033427.JPG,ISIC_9935444.JPG,false,1,keypress(m),500,378100,378099.90000009537,375658.672,375659.7999999523,375675.101,378107.041,8,400,23,,ISIC_0033427.JPG
break,html.Screen,4_72_1,2023-09-08T18:49:10.131Z,,0,,,NaN,,,,,,false,,,,378100.5,378100.2999999523,,378100.09999990463,,378107.041,8,400,,,
break_continue,html.Screen,4_72_2,2023-09-08T18:49:10.131Z,,0,,,NaN,,,,,,false,,,,378100.7000000477,378100.59999990463,,378100.5,,378107.041,8,400,,,
sequence,flow.Sequence,4_72,2023-09-08T18:49:10.131Z,,0,,,2425.4989999046084,completion,,,,,false,,,,378100.7999999523,378100.59999990463,375658.672,375659.7999999523,375675.101,378107.041,8,400,,,
trial,html.Screen,4_73_0,2023-09-08T18:49:12.596Z,,0,2,,2458.7589999522897,response,ISIC_8622204.JPG,5,ISIC_0655635.JPG,ISIC_8622204.JPG,false,1,keypress(m),500,380565.90000009537,380565.7999999523,378090.45,378100.90000009537,378107.041,380588.822,8,400,24,,ISIC_0655635.JPG
break,html.Screen,4_73_1,2023-09-08T18:49:12.597Z,,0,,,NaN,,,,,,false,,,,380566.2999999523,380566.09999990463,,380566,,380588.822,8,400,,,
break_continue,html.Screen,4_73_2,2023-09-08T18:49:12.597Z,,0,,,NaN,,,,,,false,,,,380566.40000009537,380566.2999999523,,380566.2999999523,,380588.822,8,400,,,
sequence,flow.Sequence,4_73,2023-09-08T18:49:12.597Z,,0,,,2459.2589999522897,completion,,,,,false,,,,380566.5,380566.2999999523,378090.45,378100.7999999523,378107.041,380588.822,8,400,,,
trial,html.Screen,4_74_0,2023-09-08T18:49:14.923Z,,0,2,,2303.4779999523307,response,ISIC_5916208.JPG,5,ISIC_0374029.JPG,ISIC_5916208.JPG,false,1,keypress(m),500,382892.7000000477,382892.2999999523,380572.204,380566.59999990463,380588.822,382904.631,8,400,25,,ISIC_0374029.JPG
break,html.Screen,4_74_1,2023-09-08T18:49:14.924Z,,0,,,NaN,,,,,,false,,,,382893.7000000477,382893.40000009537,,382892.90000009537,,382904.631,8,400,,,
break_continue,html.Screen,4_74_2,2023-09-08T18:49:14.924Z,,0,,,NaN,,,,,,false,,,,382894.09999990463,382894,,382893.90000009537,,382904.631,8,400,,,
sequence,flow.Sequence,4_74,2023-09-08T18:49:14.924Z,,0,,,2305.1780000000144,completion,,,,,false,,,,382894.09999990463,382894,380572.204,380566.5,380588.822,382904.631,8,400,,,
trial,html.Screen,4_75_0,2023-09-08T18:49:17.006Z,,0,2,,2071.369000000006,response,ISIC_6382207.JPG,5,ISIC_2033237.JPG,ISIC_6382207.JPG,false,1,keypress(m),500,384976.2000000477,384976,382888.141,382894.2999999523,382904.631,384986.947,8,400,26,,ISIC_2033237.JPG
break,html.Screen,4_75_1,2023-09-08T18:49:17.007Z,,0,,,NaN,,,,,,false,,,,384976.7000000477,384976.59999990463,,384976.2999999523,,384986.947,8,400,,,
break_continue,html.Screen,4_75_2,2023-09-08T18:49:17.007Z,,0,,,NaN,,,,,,false,,,,384976.90000009537,384976.90000009537,,384976.7000000477,,384986.947,8,400,,,
sequence,flow.Sequence,4_75,2023-09-08T18:49:17.007Z,,0,,,2072.2690000953735,completion,,,,,false,,,,384977,384976.90000009537,382888.141,382894.2000000477,382904.631,384986.947,8,400,,,
trial,html.Screen,4_76_0,2023-09-08T18:49:19.250Z,,0,2,,2232.953000095382,response,ISIC_5281485.JPG,5,ISIC_2197722.JPG,ISIC_5281485.JPG,false,1,keypress(m),500,387220.2000000477,387219.90000009537,384970.067,384977.09999990463,384986.947,387235.532,8,400,27,,ISIC_2197722.JPG
break,html.Screen,4_76_1,2023-09-08T18:49:19.251Z,,0,,,NaN,,,,,,false,,,,387220.59999990463,387220.59999990463,,387220.2999999523,,387235.532,8,400,,,
break_continue,html.Screen,4_76_2,2023-09-08T18:49:19.251Z,,0,,,NaN,,,,,,false,,,,387220.7999999523,387220.7999999523,,387220.7000000477,,387235.532,8,400,,,
sequence,flow.Sequence,4_76,2023-09-08T18:49:19.251Z,,0,,,2233.8529999523307,completion,,,,,false,,,,387221,387220.7999999523,384970.067,384977.09999990463,384986.947,387235.532,8,400,,,
trial,html.Screen,4_77_0,2023-09-08T18:49:23.206Z,,0,2,,3939.368000095361,response,ISIC_0013473.JPG,5,ISIC_0951519.JPG,ISIC_0951519.JPG,false,0,keypress(z),500,391175.40000009537,391174.90000009537,387219.21,387221.09999990463,387235.532,391183.244,8,400,28,,ISIC_0013473.JPG
break,html.Screen,4_77_1,2023-09-08T18:49:23.208Z,,0,,,NaN,,,,,,false,,,,391177.5,391176.7999999523,,391176.09999990463,,391183.244,8,400,,,
break_continue,html.Screen,4_77_2,2023-09-08T18:49:23.209Z,,0,,,NaN,,,,,,false,,,,391178.5,391178.2000000477,,391177.90000009537,,391183.244,8,400,,,
sequence,flow.Sequence,4_77,2023-09-08T18:49:23.209Z,,0,,,3942.668000047677,completion,,,,,false,,,,391179.09999990463,391178.2000000477,387219.21,387221.09999990463,387235.532,391183.244,8,400,,,
trial,html.Screen,4_78_0,2023-09-08T18:49:27.948Z,,0,2,,4734.656000095361,response,ISIC_3123377.JPG,6,ISIC_3413138.JPG,ISIC_3413138.JPG,false,0,keypress(z),500,395918,395917.90000009537,391166.85,391179.40000009537,391183.244,395930.749,8,400,29,,ISIC_3123377.JPG
break,html.Screen,4_78_1,2023-09-08T18:49:27.949Z,,0,,,NaN,,,,,,false,,,,395918.40000009537,395918.2999999523,,395918.2000000477,,395930.749,8,400,,,
break_continue,html.Screen,4_78_2,2023-09-08T18:49:27.949Z,,0,,,NaN,,,,,,false,,,,395918.7000000477,395918.7000000477,,395918.5,,395930.749,8,400,,,
sequence,flow.Sequence,4_78,2023-09-08T18:49:27.949Z,,0,,,4735.456000047678,completion,,,,,false,,,,395918.90000009537,395918.7000000477,391166.85,391179.40000009537,391183.244,395930.749,8,400,,,
trial,html.Screen,4_79_0,2023-09-08T18:49:30.335Z,,0,2,,2373.6510000953567,response,ISIC_2033237.JPG,4,ISIC_0033152.JPG,ISIC_2033237.JPG,false,1,keypress(m),500,398304.5,398304.40000009537,395914.253,395918.90000009537,395930.749,398312.981,8,400,30,,ISIC_0033152.JPG
break,html.Screen,4_79_1,2023-09-08T18:49:30.335Z,,0,,,NaN,,,,,,false,,,,398305.09999990463,398304.90000009537,,398304.7000000477,,398312.981,8,400,,,
break_continue,html.Screen,4_79_2,2023-09-08T18:49:30.336Z,,0,,,NaN,,,,,,false,,,,398305.40000009537,398305.2999999523,,398305.09999990463,,398312.981,8,400,,,
sequence,flow.Sequence,4_79,2023-09-08T18:49:30.336Z,,0,,,2374.5509999523056,completion,,,,,false,,,,398305.59999990463,398305.2999999523,395914.253,395918.90000009537,395930.749,398312.981,8,400,,,
trial,html.Screen,4_80_0,2023-09-08T18:49:32.770Z,,0,2,,2425.9190000953386,response,ISIC_6019374.JPG,6,ISIC_7519557.JPG,ISIC_6019374.JPG,false,1,keypress(m),500,400739.2999999523,400738.90000009537,398296.307,398305.7000000477,398312.981,400744.883,8,400,31,,ISIC_7519557.JPG
break,html.Screen,4_80_1,2023-09-08T18:49:32.771Z,,0,,,NaN,,,,,,false,,,,400740.7000000477,400740.2000000477,,400739.7000000477,,400744.883,8,400,,,
break_continue,html.Screen,4_80_2,2023-09-08T18:49:32.772Z,,0,,,NaN,,,,,,false,,,,400741.2999999523,400741,,400740.90000009537,,400744.883,8,400,,,
sequence,flow.Sequence,4_80,2023-09-08T18:49:32.772Z,,0,,,2428.018999999971,completion,,,,,false,,,,400741.59999990463,400741,398296.307,398305.7000000477,398312.981,400744.883,8,400,,,
trial,html.Screen,4_81_0,2023-09-08T18:49:37.559Z,,0,2,,4783.71699990466,response,ISIC_0010486.JPG,5,ISIC_0029814.JPG,ISIC_0029814.JPG,false,0,keypress(z),500,405529.2000000477,405528.59999990463,400728.349,400741.7999999523,400744.883,405542.259,8,400,32,,ISIC_0010486.JPG
break,html.Screen,4_81_1,2023-09-08T18:49:37.561Z,,0,,,NaN,,,,,,false,,,,405531.09999990463,405530.5,,405529.59999990463,,405542.259,8,400,,,
break_continue,html.Screen,4_81_2,2023-09-08T18:49:37.563Z,,0,,,NaN,,,,,,false,,,,405532.7000000477,405531.7999999523,,405531.5,,405542.259,8,400,,,
sequence,flow.Sequence,4_81,2023-09-08T18:49:37.564Z,,0,,,4786.916999952344,completion,,,,,false,,,,405533.2000000477,405531.7999999523,400728.349,400741.7999999523,400744.883,405542.259,8,400,,,
trial,html.Screen,4_82_0,2023-09-08T18:49:39.907Z,,0,2,,2334.24099999998,response,ISIC_7800706.JPG,6,ISIC_1650523.JPG,ISIC_7800706.JPG,false,1,keypress(m),500,407877.09999990463,407876.5,405526.009,405533.7000000477,405542.259,407891.038,8,400,33,,ISIC_1650523.JPG
break,html.Screen,4_82_1,2023-09-08T18:49:39.910Z,,0,,,NaN,,,,,,false,,,,407879.59999990463,407878.7999999523,,407877.5,,407891.038,8,400,,,
break_continue,html.Screen,4_82_2,2023-09-08T18:49:39.911Z,,0,,,NaN,,,,,,false,,,,407880.90000009537,407880.40000009537,,407880,,407891.038,8,400,,,
sequence,flow.Sequence,4_82,2023-09-08T18:49:39.912Z,,0,,,2338.1410000953474,completion,,,,,false,,,,407881.5,407880.40000009537,405526.009,405533.5,405542.259,407891.038,8,400,,,
trial,html.Screen,4_83_0,2023-09-08T18:49:42.460Z,,0,2,,2537.6620000476833,response,ISIC_5625747.JPG,5,ISIC_0032645.JPG,ISIC_0032645.JPG,false,0,keypress(z),500,410429.40000009537,410428.7000000477,407874.618,407881.7999999523,407891.038,410439.641,8,400,34,,ISIC_5625747.JPG
break,html.Screen,4_83_1,2023-09-08T18:49:42.461Z,,0,,,NaN,,,,,,false,,,,410430.90000009537,410430.40000009537,,410429.7999999523,,410439.641,8,400,,,
break_continue,html.Screen,4_83_2,2023-09-08T18:49:42.462Z,,0,,,NaN,,,,,,false,,,,410431.59999990463,410431.40000009537,,410431.2000000477,,410439.641,8,400,,,
sequence,flow.Sequence,4_83,2023-09-08T18:49:42.462Z,,0,,,2540.362000095367,completion,,,,,false,,,,410432.09999990463,410431.40000009537,407874.618,407881.7000000477,407891.038,410439.641,8,400,,,
trial,html.Screen,4_84_0,2023-09-08T18:49:44.787Z,,0,2,,2316.158999952313,response,ISIC_6515546.JPG,5,ISIC_0024585.JPG,ISIC_0024585.JPG,false,0,keypress(z),500,412756.40000009537,412755.7999999523,410423.446,410432.2999999523,410439.641,412771.941,8,400,35,,ISIC_6515546.JPG
break,html.Screen,4_84_1,2023-09-08T18:49:44.789Z,,0,,,NaN,,,,,,false,,,,412758.7000000477,412757.7999999523,,412757,,412771.941,8,400,,,
break_continue,html.Screen,4_84_2,2023-09-08T18:49:44.790Z,,0,,,NaN,,,,,,false,,,,412759.40000009537,412759.2000000477,,412759,,412771.941,8,400,,,
sequence,flow.Sequence,4_84,2023-09-08T18:49:44.790Z,,0,,,2319.5590000476805,completion,,,,,false,,,,412760,412759.2000000477,410423.446,410432.2999999523,410439.641,412771.941,8,400,,,
trial,html.Screen,4_85_0,2023-09-08T18:49:47.114Z,,0,2,,2311.759000047692,response,ISIC_2006783.JPG,5,ISIC_0013817.JPG,ISIC_2006783.JPG,false,1,keypress(m),500,415084,415083.7000000477,412755.583,412760.5,412771.941,415087.106,8,400,36,,ISIC_0013817.JPG
break,html.Screen,4_85_1,2023-09-08T18:49:47.115Z,,0,,,NaN,,,,,,false,,,,415084.7999999523,415084.40000009537,,415084.09999990463,,415087.106,8,400,,,
break_continue,html.Screen,4_85_2,2023-09-08T18:49:47.115Z,,0,,,NaN,,,,,,false,,,,415085.09999990463,415085,,415084.90000009537,,415087.106,8,400,,,
sequence,flow.Sequence,4_85,2023-09-08T18:49:47.116Z,,0,,,2313.0590000000084,completion,,,,,false,,,,415085.2999999523,415085,412755.583,412760.40000009537,412771.941,415087.106,8,400,,,
trial,html.Screen,4_86_0,2023-09-08T18:49:50.654Z,,0,2,,3535.594000047655,response,ISIC_0000000.JPG,5,ISIC_3690890.JPG,ISIC_0000000.JPG,false,1,keypress(m),500,418623.5,418622.7000000477,415070.744,415085.2999999523,415087.106,418635.248,8,400,37,,ISIC_3690890.JPG
break,html.Screen,4_86_1,2023-09-08T18:49:50.656Z,,0,,,NaN,,,,,,false,,,,418625.7999999523,418624.90000009537,,418624.09999990463,,418635.248,8,400,,,
break_continue,html.Screen,4_86_2,2023-09-08T18:49:50.657Z,,0,,,NaN,,,,,,false,,,,418627.09999990463,418626.59999990463,,418626.09999990463,,418635.248,8,400,,,
sequence,flow.Sequence,4_86,2023-09-08T18:49:50.658Z,,0,,,3539.4939999046037,completion,,,,,false,,,,418627.7999999523,418626.59999990463,415070.744,415085.2999999523,415087.106,418635.248,8,400,,,
trial,html.Screen,4_87_0,2023-09-08T18:49:53.048Z,,0,2,,2382.2519999999786,response,ISIC_2508901.JPG,6,ISIC_3520750.JPG,ISIC_2508901.JPG,false,1,keypress(m),500,421017.90000009537,421017.5,418618.855,418628,418635.248,421034.385,8,400,38,,ISIC_3520750.JPG
break,html.Screen,4_87_1,2023-09-08T18:49:53.050Z,,0,,,NaN,,,,,,false,,,,421019.40000009537,421018.7999999523,,421018.2000000477,,421034.385,8,400,,,
break_continue,html.Screen,4_87_2,2023-09-08T18:49:53.050Z,,0,,,NaN,,,,,,false,,,,421020,421019.7999999523,,421019.7000000477,,421034.385,8,400,,,
sequence,flow.Sequence,4_87,2023-09-08T18:49:53.051Z,,0,,,2384.551999952295,completion,,,,,false,,,,421020.2999999523,421019.7999999523,418618.855,418628,418635.248,421034.385,8,400,,,
trial,html.Screen,4_88_0,2023-09-08T18:50:01.394Z,,0,2,,8328.61499999999,response,ISIC_0034188.JPG,5,ISIC_9851899.JPG,ISIC_9851899.JPG,false,0,keypress(z),500,429363.2999999523,429363,421017.648,421020.5,421034.385,429379.528,8,400,39,,ISIC_0034188.JPG
break,html.Screen,4_88_1,2023-09-08T18:50:01.394Z,,0,,,NaN,,,,,,false,,,,429364,429363.7999999523,,429363.5,,429379.528,8,400,,,
break_continue,html.Screen,4_88_2,2023-09-08T18:50:01.395Z,,0,,,NaN,,,,,,false,,,,429364.2999999523,429364.2000000477,,429364.09999990463,,429379.528,8,400,,,
sequence,flow.Sequence,4_88,2023-09-08T18:50:01.395Z,,0,,,8329.815000047674,completion,,,,,false,,,,429364.40000009537,429364.2000000477,421017.648,421020.40000009537,421034.385,429379.528,8,400,,,
trial,html.Screen,4_89_0,2023-09-08T18:50:04.188Z,,0,2,,2777.6720000476926,response,ISIC_5282642.JPG,5,ISIC_0031295.JPG,ISIC_5282642.JPG,false,1,keypress(m),500,432157.7000000477,432157.2000000477,429363.368,429364.40000009537,429379.528,432161.42,8,400,40,,ISIC_0031295.JPG
break,html.Screen,4_89_1,2023-09-08T18:50:04.189Z,,0,,,NaN,,,,,,false,,,,432159,432158.59999990463,,432158.09999990463,,432161.42,8,400,,,
break_continue,html.Screen,4_89_2,2023-09-08T18:50:04.190Z,,0,,,NaN,,,,,,false,,,,432159.7000000477,432159.5,,432159.2999999523,,432161.42,8,400,,,
sequence,flow.Sequence,4_89,2023-09-08T18:50:04.190Z,,0,,,2779.972000000009,completion,,,,,false,,,,432160,432159.5,429363.368,429364.40000009537,429379.528,432161.42,8,400,,,
trial,html.Screen,4_90_0,2023-09-08T18:50:06.210Z,,0,2,,2017.4800000953837,response,ISIC_6684042.JPG,5,ISIC_0000473.JPG,ISIC_6684042.JPG,false,1,keypress(m),500,434179.40000009537,434178.90000009537,432145.21,432160.2999999523,432161.42,434193.999,8,400,41,,ISIC_0000473.JPG
break,html.Screen,4_90_1,2023-09-08T18:50:06.211Z,,0,,,NaN,,,,,,false,,,,434181.09999990463,434180.7000000477,,434179.90000009537,,434193.999,8,400,,,
break_continue,html.Screen,4_90_2,2023-09-08T18:50:06.212Z,,0,,,NaN,,,,,,false,,,,434181.90000009537,434181.59999990463,,434181.40000009537,,434193.999,8,400,,,
sequence,flow.Sequence,4_90,2023-09-08T18:50:06.212Z,,0,,,2020.1799999046489,completion,,,,,false,,,,434182.09999990463,434181.59999990463,432145.21,432160.2000000477,432161.42,434193.999,8,400,,,
trial,html.Screen,4_91_0,2023-09-08T18:50:08.663Z,,0,2,,2438.600999904622,response,ISIC_0698821.JPG,6,ISIC_0068924.JPG,ISIC_0068924.JPG,false,0,keypress(z),500,436632.7999999523,436632.59999990463,434177.215,434182.40000009537,434193.999,436658.898,8,400,42,,ISIC_0698821.JPG
break,html.Screen,4_91_1,2023-09-08T18:50:08.664Z,,0,,,NaN,,,,,,false,,,,436633.5,436633.2999999523,,436632.90000009537,,436658.898,8,400,,,
break_continue,html.Screen,4_91_2,2023-09-08T18:50:08.664Z,,0,,,NaN,,,,,,false,,,,436633.7999999523,436633.7999999523,,436633.59999990463,,436658.898,8,400,,,
sequence,flow.Sequence,4_91,2023-09-08T18:50:08.664Z,,0,,,2439.8009999523056,completion,,,,,false,,,,436633.90000009537,436633.7999999523,434177.215,434182.2999999523,434193.999,436658.898,8,400,,,
trial,html.Screen,4_92_0,2023-09-08T18:50:11.146Z,,0,2,,2456.701999904646,response,ISIC_8692155.JPG,5,ISIC_6547707.JPG,ISIC_8692155.JPG,false,1,keypress(m),500,439115.90000009537,439115.59999990463,436642.297,436634,436658.898,439141.146,8,400,43,,ISIC_6547707.JPG
break,html.Screen,4_92_1,2023-09-08T18:50:11.147Z,,0,,,NaN,,,,,,false,,,,439116.40000009537,439116.2999999523,,439116,,439141.146,8,400,,,
break_continue,html.Screen,4_92_2,2023-09-08T18:50:11.147Z,,0,,,NaN,,,,,,false,,,,439116.7999999523,439116.7000000477,,439116.5,,439141.146,8,400,,,
sequence,flow.Sequence,4_92,2023-09-08T18:50:11.147Z,,0,,,2457.802000047697,completion,,,,,false,,,,439116.90000009537,439116.7000000477,436642.297,436634,436658.898,439141.146,8,400,,,
trial,html.Screen,4_93_0,2023-09-08T18:50:13.650Z,,0,2,,2478.4539999046247,response,ISIC_0056572.JPG,5,ISIC_0054292.JPG,ISIC_0054292.JPG,false,0,keypress(z),500,441620,441619.59999990463,439124.328,439116.90000009537,439141.146,441639.776,8,400,44,,ISIC_0056572.JPG
break,html.Screen,4_93_1,2023-09-08T18:50:13.651Z,,0,,,NaN,,,,,,false,,,,441621.09999990463,441620.90000009537,,441620.2999999523,,441639.776,8,400,,,
break_continue,html.Screen,4_93_2,2023-09-08T18:50:13.652Z,,0,,,NaN,,,,,,false,,,,441621.7999999523,441621.59999990463,,441621.2999999523,,441639.776,8,400,,,
sequence,flow.Sequence,4_93,2023-09-08T18:50:13.652Z,,0,,,2480.4539999046247,completion,,,,,false,,,,441621.90000009537,441621.59999990463,439124.328,439116.90000009537,439141.146,441639.776,8,400,,,
trial,html.Screen,4_94_0,2023-09-08T18:50:15.928Z,,0,2,,2257.124000095355,response,ISIC_4680417.JPG,6,ISIC_4453506.JPG,ISIC_4680417.JPG,false,1,keypress(m),500,443897.40000009537,443896.90000009537,441623.085,441622.09999990463,441639.776,443905.246,8,400,45,,ISIC_4453506.JPG
break,html.Screen,4_94_1,2023-09-08T18:50:15.929Z,,0,,,NaN,,,,,,false,,,,443898.90000009537,443898.5,,443897.7999999523,,443905.246,8,400,,,
break_continue,html.Screen,4_94_2,2023-09-08T18:50:15.930Z,,0,,,NaN,,,,,,false,,,,443899.7000000477,443899.5,,443899.2000000477,,443905.246,8,400,,,
sequence,flow.Sequence,4_94,2023-09-08T18:50:15.930Z,,0,,,2259.7239999999874,completion,,,,,false,,,,443900,443899.5,441623.085,441622.09999990463,441639.776,443905.246,8,400,,,
trial,html.Screen,4_95_0,2023-09-08T18:50:18.334Z,,0,2,,2398.2540000000154,response,ISIC_2430137.JPG,6,ISIC_0010752.JPG,ISIC_0010752.JPG,false,0,keypress(z),500,446304.2000000477,446303.5,443888.57,443900.2000000477,443905.246,446320.494,8,400,46,,ISIC_2430137.JPG
break,html.Screen,4_95_1,2023-09-08T18:50:18.336Z,,0,,,NaN,,,,,,false,,,,446305.5,446305.2999999523,,446304.7000000477,,446320.494,8,400,,,
break_continue,html.Screen,4_95_2,2023-09-08T18:50:18.336Z,,0,,,NaN,,,,,,false,,,,446306.2000000477,446306,,446305.90000009537,,446320.494,8,400,,,
sequence,flow.Sequence,4_95,2023-09-08T18:50:18.337Z,,0,,,2400.7540000000154,completion,,,,,false,,,,446306.40000009537,446306,443888.57,443900.09999990463,443905.246,446320.494,8,400,,,
trial,html.Screen,4_96_0,2023-09-08T18:50:21.077Z,,0,2,,2725.7060000476777,response,ISIC_2554114.JPG,5,ISIC_3009493.JPG,ISIC_2554114.JPG,false,1,keypress(m),500,449046.59999990463,449046.2000000477,446304.184,446306.59999990463,446320.494,449068.956,8,400,47,,ISIC_3009493.JPG
break,html.Screen,4_96_1,2023-09-08T18:50:21.078Z,,0,,,NaN,,,,,,false,,,,449047.59999990463,449047.2999999523,,449046.90000009537,,449068.956,8,400,,,
break_continue,html.Screen,4_96_2,2023-09-08T18:50:21.078Z,,0,,,NaN,,,,,,false,,,,449048,449047.90000009537,,449047.7000000477,,449068.956,8,400,,,
sequence,flow.Sequence,4_96,2023-09-08T18:50:21.078Z,,0,,,2727.4060000953614,completion,,,,,false,,,,449048.2000000477,449047.90000009537,446304.184,446306.5,446320.494,449068.956,8,400,,,
trial,html.Screen,4_97_0,2023-09-08T18:50:23.631Z,,0,2,,2531.5439999999944,response,ISIC_0025531.JPG,5,ISIC_9957389.JPG,ISIC_0025531.JPG,false,1,keypress(m),500,451600.7000000477,451600.5,449052.383,449048.40000009537,449068.956,451617.715,8,400,48,,ISIC_9957389.JPG
break,html.Screen,4_97_1,2023-09-08T18:50:23.632Z,,0,,,NaN,,,,,,false,,,,451601.90000009537,451601.5,,451601,,451617.715,8,400,,,
break_continue,html.Screen,4_97_2,2023-09-08T18:50:23.633Z,,0,,,NaN,,,,,,false,,,,451602.40000009537,451602.2000000477,,451602,,451617.715,8,400,,,
sequence,flow.Sequence,4_97,2023-09-08T18:50:23.633Z,,0,,,2533.244000047678,completion,,,,,false,,,,451602.59999990463,451602.2000000477,449052.383,449048.2999999523,449068.956,451617.715,8,400,,,
trial,html.Screen,4_98_0,2023-09-08T18:50:25.739Z,,0,2,,2090.884999904607,response,ISIC_7521698.JPG,5,ISIC_0071768.JPG,ISIC_7521698.JPG,false,1,keypress(m),500,453708.7999999523,453708.59999990463,451600.977,451602.7999999523,451617.715,453716.71,8,400,49,,ISIC_0071768.JPG
break,html.Screen,4_98_1,2023-09-08T18:50:25.740Z,,0,,,NaN,,,,,,false,,,,453709.59999990463,453709.40000009537,,453709.09999990463,,453716.71,8,400,,,
break_continue,html.Screen,4_98_2,2023-09-08T18:50:25.740Z,,0,,,NaN,,,,,,false,,,,453709.90000009537,453709.7000000477,,453709.7000000477,,453716.71,8,400,,,
sequence,flow.Sequence,4_98,2023-09-08T18:50:25.740Z,,0,,,2091.985000047658,completion,,,,,false,,,,453710,453709.7000000477,451600.977,451602.7000000477,451617.715,453716.71,8,400,,,
trial,html.Screen,4_99_0,2023-09-08T18:50:32.070Z,,0,2,,6322.789999999979,response,ISIC_0013059.JPG,5,ISIC_0011329.JPG,ISIC_0011329.JPG,false,0,keypress(z),500,460039.7999999523,460039.5,453700.046,453710.09999990463,453716.71,460063.211,8,400,50,,ISIC_0013059.JPG
break,html.Screen,4_99_1,2023-09-08T18:50:42.073Z,,0,,,9994.646000000008,timeout,,,,,false,,,,470042.59999990463,470041.411,460046.664,460040,460063.211,470057.857,8,400,,,
break_continue,html.Screen,4_99_2,2023-09-08T18:50:43.709Z,,0,,,1600.9429999522981,response,,,,,false,continue,keypress(Space),,471678.5,471658.7999999523,470041.411,470042.7999999523,470057.857,471690.463,8,400,,,
sequence,flow.Sequence,4_99,2023-09-08T18:50:43.709Z,,0,,,17942.089999952295,completion,,,,,false,,,,471678.59999990463,471658.7999999523,453700.046,453710.09999990463,453716.71,471690.463,8,400,,,
trial,html.Screen,4_100_0,2023-09-08T18:50:46.626Z,,0,3,,2904.537000000011,response,ISIC_0028489.JPG,5,ISIC_9161341.JPG,ISIC_9161341.JPG,false,0,keypress(z),500,474595.59999990463,474595,471674.627,471678.59999990463,471690.463,474605.323,8,400,1,,ISIC_0028489.JPG
break,html.Screen,4_100_1,2023-09-08T18:50:46.628Z,,0,,,NaN,,,,,,false,,,,474597.7999999523,474597.2000000477,,474596.09999990463,,474605.323,8,400,,,
break_continue,html.Screen,4_100_2,2023-09-08T18:50:46.629Z,,0,,,NaN,,,,,,false,,,,474598.7000000477,474598.40000009537,,474598.2000000477,,474605.323,8,400,,,
sequence,flow.Sequence,4_100,2023-09-08T18:50:46.629Z,,0,,,2907.9370000953786,completion,,,,,false,,,,474599.2000000477,474598.40000009537,471674.627,471678.59999990463,471690.463,474605.323,8,400,,,
trial,html.Screen,4_101_0,2023-09-08T18:50:50.062Z,,0,3,,3425.7769999046577,response,ISIC_0259179.JPG,6,ISIC_0033405.JPG,ISIC_0033405.JPG,false,0,keypress(z),500,478031.59999990463,478031.09999990463,474589.047,474599.5,474605.323,478036.895,8,400,2,,ISIC_0259179.JPG
break,html.Screen,4_101_1,2023-09-08T18:50:50.063Z,,0,,,NaN,,,,,,false,,,,478032.7999999523,478032.5,,478032,,478036.895,8,400,,,
break_continue,html.Screen,4_101_2,2023-09-08T18:50:50.064Z,,0,,,NaN,,,,,,false,,,,478033.59999990463,478033.40000009537,,478033.2000000477,,478036.895,8,400,,,
sequence,flow.Sequence,4_101,2023-09-08T18:50:50.064Z,,0,,,3428.0770000953926,completion,,,,,false,,,,478033.7999999523,478033.40000009537,474589.047,474599.40000009537,474605.323,478036.895,8,400,,,
trial,html.Screen,4_102_0,2023-09-08T18:50:53.444Z,,0,3,,3376.204999904614,response,ISIC_5490352.JPG,5,ISIC_0025155.JPG,ISIC_0025155.JPG,false,0,keypress(z),500,481413.59999990463,481413.09999990463,478020.524,478034,478036.895,481418.487,8,400,3,,ISIC_5490352.JPG
break,html.Screen,4_102_1,2023-09-08T18:50:53.445Z,,0,,,NaN,,,,,,false,,,,481414.90000009537,481414.59999990463,,481414,,481418.487,8,400,,,
break_continue,html.Screen,4_102_2,2023-09-08T18:50:53.446Z,,0,,,NaN,,,,,,false,,,,481415.7000000477,481415.40000009537,,481415.2000000477,,481418.487,8,400,,,
sequence,flow.Sequence,4_102,2023-09-08T18:50:53.447Z,,0,,,3378.505000095349,completion,,,,,false,,,,481416,481415.40000009537,478020.524,478033.90000009537,478036.895,481418.487,8,400,,,
trial,html.Screen,4_103_0,2023-09-08T18:50:56.096Z,,0,3,,2647.012999999977,response,ISIC_6996553.JPG,6,ISIC_4272317.JPG,ISIC_4272317.JPG,false,0,keypress(z),500,484065.7999999523,484065.5,481402.233,481416.40000009537,481418.487,484083.908,8,400,4,,ISIC_6996553.JPG
break,html.Screen,4_103_1,2023-09-08T18:50:56.097Z,,0,,,NaN,,,,,,false,,,,484066.7999999523,484066.5,,484066.09999990463,,484083.908,8,400,,,
break_continue,html.Screen,4_103_2,2023-09-08T18:50:56.098Z,,0,,,NaN,,,,,,false,,,,484067.2999999523,484067.2000000477,,484067.09999990463,,484083.908,8,400,,,
sequence,flow.Sequence,4_103,2023-09-08T18:50:56.098Z,,0,,,2648.713000047661,completion,,,,,false,,,,484067.59999990463,484067.2000000477,481402.233,481416.2999999523,481418.487,484083.908,8,400,,,
trial,html.Screen,4_104_0,2023-09-08T18:50:59.573Z,,0,3,,3458.4920000953716,response,ISIC_5127759.JPG,5,ISIC_4887874.JPG,ISIC_5127759.JPG,false,1,keypress(m),500,487542.7000000477,487542.40000009537,484050.563,484067.7999999523,484083.908,487565.05,8,400,5,,ISIC_4887874.JPG
break,html.Screen,4_104_1,2023-09-08T18:50:59.574Z,,0,,,NaN,,,,,,false,,,,487543.7999999523,487543.5,,487543,,487565.05,8,400,,,
break_continue,html.Screen,4_104_2,2023-09-08T18:50:59.575Z,,0,,,NaN,,,,,,false,,,,487544.2999999523,487544.09999990463,,487543.90000009537,,487565.05,8,400,,,
sequence,flow.Sequence,4_104,2023-09-08T18:50:59.575Z,,0,,,3460.1919999046368,completion,,,,,false,,,,487544.59999990463,487544.09999990463,484050.563,484067.59999990463,484083.908,487565.05,8,400,,,
trial,html.Screen,4_105_0,2023-09-08T18:51:02.825Z,,0,3,,3229.549999904644,response,ISIC_0953317.JPG,6,ISIC_0009883.JPG,ISIC_0953317.JPG,false,1,keypress(m),500,490794.90000009537,490794.59999990463,487548.545,487544.7999999523,487565.05,490814.438,8,400,6,,ISIC_0009883.JPG
break,html.Screen,4_105_1,2023-09-08T18:51:02.826Z,,0,,,NaN,,,,,,false,,,,490795.59999990463,490795.40000009537,,490795.09999990463,,490814.438,8,400,,,
break_continue,html.Screen,4_105_2,2023-09-08T18:51:02.826Z,,0,,,NaN,,,,,,false,,,,490796,490795.7999999523,,490795.7999999523,,490814.438,8,400,,,
sequence,flow.Sequence,4_105,2023-09-08T18:51:02.827Z,,0,,,3230.749999952328,completion,,,,,false,,,,490796.09999990463,490795.7999999523,487548.545,487544.7999999523,487565.05,490814.438,8,400,,,
trial,html.Screen,4_106_0,2023-09-08T18:51:06.254Z,,0,3,,3408.661999904609,response,ISIC_5709878.JPG,353,ISIC_0428383.JPG,ISIC_5709878.JPG,false,1,keypress(m),500,494223.2000000477,494223.09999990463,490780.422,490796.2999999523,490814.438,494228.253,8,400,7,,ISIC_0428383.JPG
break,html.Screen,4_106_1,2023-09-08T18:51:06.254Z,,0,,,NaN,,,,,,false,,,,494223.59999990463,494223.5,,494223.40000009537,,494228.253,8,400,,,
break_continue,html.Screen,4_106_2,2023-09-08T18:51:06.254Z,,0,,,NaN,,,,,,false,,,,494223.7999999523,494223.7000000477,,494223.7000000477,,494228.253,8,400,,,
sequence,flow.Sequence,4_106,2023-09-08T18:51:06.254Z,,0,,,3409.26200004766,completion,,,,,false,,,,494223.7999999523,494223.7000000477,490780.422,490796.2000000477,490814.438,494228.253,8,400,,,
trial,html.Screen,4_107_0,2023-09-08T18:51:09.201Z,,0,3,,2942.04699995229,response,ISIC_0016145.JPG,6,ISIC_8423326.JPG,ISIC_0016145.JPG,false,1,keypress(m),500,497170.5,497170.2999999523,494211.532,494223.7999999523,494228.253,497193.273,8,400,8,,ISIC_8423326.JPG
break,html.Screen,4_107_1,2023-09-08T18:51:09.202Z,,0,,,NaN,,,,,,false,,,,497171,497170.90000009537,,497170.59999990463,,497193.273,8,400,,,
break_continue,html.Screen,4_107_2,2023-09-08T18:51:09.202Z,,0,,,NaN,,,,,,false,,,,497171.2000000477,497171.2000000477,,497171.09999990463,,497193.273,8,400,,,
sequence,flow.Sequence,4_107,2023-09-08T18:51:09.202Z,,0,,,2942.9470000476576,completion,,,,,false,,,,497171.40000009537,497171.2000000477,494211.532,494223.7999999523,494228.253,497193.273,8,400,,,
trial,html.Screen,4_108_0,2023-09-08T18:51:11.859Z,,0,3,,2635.326999904646,response,ISIC_0014129.JPG,4,ISIC_0032724.JPG,ISIC_0014129.JPG,false,1,keypress(m),500,499828.90000009537,499828.59999990463,497176.613,497171.40000009537,497193.273,499842.167,8,400,9,,ISIC_0032724.JPG
break,html.Screen,4_108_1,2023-09-08T18:51:11.860Z,,0,,,NaN,,,,,,false,,,,499829.7000000477,499829.40000009537,,499829,,499842.167,8,400,,,
break_continue,html.Screen,4_108_2,2023-09-08T18:51:11.861Z,,0,,,NaN,,,,,,false,,,,499830.2999999523,499830.09999990463,,499829.90000009537,,499842.167,8,400,,,
sequence,flow.Sequence,4_108,2023-09-08T18:51:11.861Z,,0,,,2636.826999904646,completion,,,,,false,,,,499830.59999990463,499830.09999990463,497176.613,497171.40000009537,497193.273,499842.167,8,400,,,
trial,html.Screen,4_109_0,2023-09-08T18:51:17.372Z,,0,3,,5499.033000047668,response,ISIC_6052437.JPG,318,ISIC_0905367.JPG,ISIC_6052437.JPG,false,1,keypress(m),500,505341.90000009537,505341.2000000477,499825.546,499830.7999999523,499842.167,505372.208,8,400,10,,ISIC_0905367.JPG
break,html.Screen,4_109_1,2023-09-08T18:51:17.374Z,,0,,,NaN,,,,,,false,,,,505343.5,505343.09999990463,,505342.40000009537,,505372.208,8,400,,,
break_continue,html.Screen,4_109_2,2023-09-08T18:51:17.375Z,,0,,,NaN,,,,,,false,,,,505344.40000009537,505344,,505343.7999999523,,505372.208,8,400,,,
sequence,flow.Sequence,4_109,2023-09-08T18:51:17.376Z,,0,,,5501.832999999984,completion,,,,,false,,,,505345.09999990463,505344,499825.546,499830.7000000477,499842.167,505372.208,8,400,,,
trial,html.Screen,4_110_0,2023-09-08T18:51:19.929Z,,0,3,,2526.1920000953833,response,ISIC_7898061.JPG,5,ISIC_5405889.JPG,ISIC_7898061.JPG,false,1,keypress(m),500,507898.7000000477,507898.40000009537,505355.745,505345.5,505372.208,507920.84,8,400,11,,ISIC_5405889.JPG
break,html.Screen,4_110_1,2023-09-08T18:51:19.930Z,,0,,,NaN,,,,,,false,,,,507899.7000000477,507899.5,,507899.09999990463,,507920.84,8,400,,,
break_continue,html.Screen,4_110_2,2023-09-08T18:51:19.931Z,,0,,,NaN,,,,,,false,,,,507900.2999999523,507900,,507899.90000009537,,507920.84,8,400,,,
sequence,flow.Sequence,4_110,2023-09-08T18:51:19.931Z,,0,,,2527.792000000016,completion,,,,,false,,,,507900.5,507900,505355.745,505345.5,505372.208,507920.84,8,400,,,
trial,html.Screen,4_111_0,2023-09-08T18:51:24.798Z,,0,3,,4845.959999952291,response,ISIC_0003851.JPG,249,ISIC_4470206.JPG,ISIC_0003851.JPG,false,1,keypress(m),500,512767.2000000477,512766.7999999523,507904.256,507900.59999990463,507920.84,512785.057,8,400,12,,ISIC_4470206.JPG
break,html.Screen,4_111_1,2023-09-08T18:51:24.799Z,,0,,,NaN,,,,,,false,,,,512768.2000000477,512767.90000009537,,512767.40000009537,,512785.057,8,400,,,
break_continue,html.Screen,4_111_2,2023-09-08T18:51:24.799Z,,0,,,NaN,,,,,,false,,,,512768.7000000477,512768.59999990463,,512768.2999999523,,512785.057,8,400,,,
sequence,flow.Sequence,4_111,2023-09-08T18:51:24.799Z,,0,,,4847.759999904607,completion,,,,,false,,,,512768.90000009537,512768.59999990463,507904.256,507900.59999990463,507920.84,512785.057,8,400,,,
trial,html.Screen,4_112_0,2023-09-08T18:51:27.844Z,,0,3,,3027.843000095396,response,ISIC_0027646.JPG,5,ISIC_0030616.JPG,ISIC_0030616.JPG,false,0,keypress(z),500,515813.09999990463,515812.90000009537,512768.281,512769,512785.057,515833.31,8,400,13,,ISIC_0027646.JPG
break,html.Screen,4_112_1,2023-09-08T18:51:27.844Z,,0,,,NaN,,,,,,false,,,,515813.90000009537,515813.7000000477,,515813.40000009537,,515833.31,8,400,,,
break_continue,html.Screen,4_112_2,2023-09-08T18:51:27.845Z,,0,,,NaN,,,,,,false,,,,515814.2999999523,515814.09999990463,,515814,,515833.31,8,400,,,
sequence,flow.Sequence,4_112,2023-09-08T18:51:27.845Z,,0,,,3029.042999904661,completion,,,,,false,,,,515814.59999990463,515814.09999990463,512768.281,512769,512785.057,515833.31,8,400,,,
trial,html.Screen,4_113_0,2023-09-08T18:51:31.799Z,,0,3,,3934.890000047686,response,ISIC_1988335.JPG,6,ISIC_2146346.JPG,ISIC_1988335.JPG,false,1,keypress(m),500,519768.40000009537,519768.2000000477,515816.698,515814.7000000477,515833.31,519781.537,8,400,14,,ISIC_2146346.JPG
break,html.Screen,4_113_1,2023-09-08T18:51:31.800Z,,0,,,NaN,,,,,,false,,,,519769.09999990463,519768.90000009537,,519768.5,,519781.537,8,400,,,
break_continue,html.Screen,4_113_2,2023-09-08T18:51:31.800Z,,0,,,NaN,,,,,,false,,,,519769.40000009537,519769.2999999523,,519769.2000000477,,519781.537,8,400,,,
sequence,flow.Sequence,4_113,2023-09-08T18:51:31.800Z,,0,,,3935.9899999523186,completion,,,,,false,,,,519769.59999990463,519769.2999999523,515816.698,515814.7000000477,515833.31,519781.537,8,400,,,
trial,html.Screen,4_114_0,2023-09-08T18:51:34.672Z,,0,3,,2859.462999999989,response,ISIC_0063958.JPG,5,ISIC_4745475.JPG,ISIC_0063958.JPG,false,1,keypress(m),500,522641.2999999523,522641,519764.921,519769.7999999523,519781.537,522662.976,8,400,15,,ISIC_4745475.JPG
break,html.Screen,4_114_1,2023-09-08T18:51:34.673Z,,0,,,NaN,,,,,,false,,,,522642.7000000477,522642.2999999523,,522641.7000000477,,522662.976,8,400,,,
break_continue,html.Screen,4_114_2,2023-09-08T18:51:34.674Z,,0,,,NaN,,,,,,false,,,,522643.2000000477,522643,,522642.90000009537,,522662.976,8,400,,,
sequence,flow.Sequence,4_114,2023-09-08T18:51:34.674Z,,0,,,2861.462999999989,completion,,,,,false,,,,522643.5,522643,519764.921,519769.7000000477,519781.537,522662.976,8,400,,,
trial,html.Screen,4_115_0,2023-09-08T18:51:37.749Z,,0,3,,3055.2240000476595,response,ISIC_8241457.JPG,6,ISIC_0015200.JPG,ISIC_8241457.JPG,false,1,keypress(m),500,525718.5999999046,525718.2000000477,522646.463,522643.7000000477,522662.976,525744.781,8,400,16,,ISIC_0015200.JPG
break,html.Screen,4_115_1,2023-09-08T18:51:37.750Z,,0,,,NaN,,,,,,false,,,,525719.5999999046,525719.2999999523,,525718.9000000954,,525744.781,8,400,,,
break_continue,html.Screen,4_115_2,2023-09-08T18:51:37.751Z,,0,,,NaN,,,,,,false,,,,525720.2999999523,525720.0999999046,,525719.7999999523,,525744.781,8,400,,,
sequence,flow.Sequence,4_115,2023-09-08T18:51:37.751Z,,0,,,3057.1239999046084,completion,,,,,false,,,,525720.5,525720.0999999046,522646.463,522643.59999990463,522662.976,525744.781,8,400,,,
trial,html.Screen,4_116_0,2023-09-08T18:51:40.076Z,,0,3,,2299.8189999046735,response,ISIC_0056957.JPG,5,ISIC_0001102.JPG,ISIC_0001102.JPG,false,0,keypress(z),500,528045.2999999523,528044.5999999046,525728.381,525720.5999999046,525744.781,528060.163,8,400,17,,ISIC_0056957.JPG
break,html.Screen,4_116_1,2023-09-08T18:51:40.077Z,,0,,,NaN,,,,,,false,,,,528046.9000000954,528046.5,,528045.7000000477,,528060.163,8,400,,,
break_continue,html.Screen,4_116_2,2023-09-08T18:51:40.079Z,,0,,,NaN,,,,,,false,,,,528048.0999999046,528047.7000000477,,528047.4000000954,,528060.163,8,400,,,
sequence,flow.Sequence,4_116,2023-09-08T18:51:40.079Z,,0,,,2302.9190000477247,completion,,,,,false,,,,528048.5,528047.7000000477,525728.381,525720.5999999046,525744.781,528060.163,8,400,,,
trial,html.Screen,4_117_0,2023-09-08T18:51:42.723Z,,0,3,,2632.136999952374,response,ISIC_7477006.JPG,5,ISIC_5913155.JPG,ISIC_5913155.JPG,false,0,keypress(z),500,530692.7000000477,530692.2999999523,528043.835,528048.7999999523,528060.163,530709.126,8,400,18,,ISIC_7477006.JPG
break,html.Screen,4_117_1,2023-09-08T18:51:42.724Z,,0,,,NaN,,,,,,false,,,,530694,530693.5999999046,,530693.0999999046,,530709.126,8,400,,,
break_continue,html.Screen,4_117_2,2023-09-08T18:51:42.725Z,,0,,,NaN,,,,,,false,,,,530694.5,530694.4000000954,,530694.2000000477,,530709.126,8,400,,,
sequence,flow.Sequence,4_117,2023-09-08T18:51:42.725Z,,0,,,2634.237000095425,completion,,,,,false,,,,530694.7999999523,530694.4000000954,528043.835,528048.7000000477,528060.163,530709.126,8,400,,,
trial,html.Screen,4_118_0,2023-09-08T18:51:45.918Z,,0,3,,3177.673999952269,response,ISIC_8692218.JPG,5,ISIC_0011398.JPG,ISIC_0011398.JPG,false,0,keypress(z),500,533887.2999999523,533886.7999999523,530692.614,530695,530709.126,533890.397,8,400,19,,ISIC_8692218.JPG
break,html.Screen,4_118_1,2023-09-08T18:51:45.919Z,,0,,,NaN,,,,,,false,,,,533888.2000000477,533887.9000000954,,533887.5,,533890.397,8,400,,,
break_continue,html.Screen,4_118_2,2023-09-08T18:51:45.919Z,,0,,,NaN,,,,,,false,,,,533888.7000000477,533888.5,,533888.4000000954,,533890.397,8,400,,,
sequence,flow.Sequence,4_118,2023-09-08T18:51:45.919Z,,0,,,3179.3739999999525,completion,,,,,false,,,,533888.9000000954,533888.5,530692.614,530694.9000000954,530709.126,533890.397,8,400,,,
trial,html.Screen,4_119_0,2023-09-08T18:51:48.770Z,,0,3,,2848.7029999046354,response,ISIC_2844539.JPG,5,ISIC_0620587.JPG,ISIC_2844539.JPG,false,1,keypress(m),500,536739.5999999046,536739.0999999046,533873.978,533889,533890.397,536755.892,8,400,20,,ISIC_0620587.JPG
break,html.Screen,4_119_1,2023-09-08T18:51:48.772Z,,0,,,NaN,,,,,,false,,,,536741,536740.7000000477,,536740,,536755.892,8,400,,,
break_continue,html.Screen,4_119_2,2023-09-08T18:51:48.772Z,,0,,,NaN,,,,,,false,,,,536741.7999999523,536741.5,,536741.2999999523,,536755.892,8,400,,,
sequence,flow.Sequence,4_119,2023-09-08T18:51:48.773Z,,0,,,2851.103000000003,completion,,,,,false,,,,536742.0999999046,536741.5,533873.978,533889,533890.397,536755.892,8,400,,,
trial,html.Screen,4_120_0,2023-09-08T18:51:51.656Z,,0,3,,2869.20799990464,response,ISIC_0056425.JPG,6,ISIC_9354604.JPG,ISIC_0056425.JPG,false,1,keypress(m),500,539625.2999999523,539625.0999999046,536739.38,536742.4000000954,536755.892,539637.325,8,400,21,,ISIC_9354604.JPG
break,html.Screen,4_120_1,2023-09-08T18:51:51.657Z,,0,,,NaN,,,,,,false,,,,539626.0999999046,539625.7999999523,,539625.5999999046,,539637.325,8,400,,,
break_continue,html.Screen,4_120_2,2023-09-08T18:51:51.657Z,,0,,,NaN,,,,,,false,,,,539626.4000000954,539626.2000000477,,539626.2000000477,,539637.325,8,400,,,
sequence,flow.Sequence,4_120,2023-09-08T18:51:51.657Z,,0,,,2870.308000047691,completion,,,,,false,,,,539626.4000000954,539626.2000000477,536739.38,536742.2999999523,536755.892,539637.325,8,400,,,
trial,html.Screen,4_121_0,2023-09-08T18:51:54.540Z,,0,3,,2871.1750000000466,response,ISIC_7295035.JPG,5,ISIC_8796769.JPG,ISIC_8796769.JPG,false,0,keypress(z),500,542509,542508.5,539620.967,539626.5,539637.325,542519.068,8,400,22,,ISIC_7295035.JPG
break,html.Screen,4_121_1,2023-09-08T18:51:54.541Z,,0,,,NaN,,,,,,false,,,,542510.7000000477,542510.2999999523,,542509.5,,542519.068,8,400,,,
break_continue,html.Screen,4_121_2,2023-09-08T18:51:54.542Z,,0,,,NaN,,,,,,false,,,,542511.5,542511.2999999523,,542511.0999999046,,542519.068,8,400,,,
sequence,flow.Sequence,4_121,2023-09-08T18:51:54.542Z,,0,,,2873.974999952363,completion,,,,,false,,,,542511.9000000954,542511.2999999523,539620.967,539626.5,539637.325,542519.068,8,400,,,
trial,html.Screen,4_122_0,2023-09-08T18:51:57.155Z,,0,3,,2604.93200000003,response,ISIC_0025169.JPG,5,ISIC_0753112.JPG,ISIC_0025169.JPG,false,1,keypress(m),500,545124.4000000954,545124,542502.945,542512.0999999046,542519.068,545134.336,8,400,23,,ISIC_0753112.JPG
break,html.Screen,4_122_1,2023-09-08T18:51:57.156Z,,0,,,NaN,,,,,,false,,,,545125.5999999046,545125.2999999523,,545124.7999999523,,545134.336,8,400,,,
break_continue,html.Screen,4_122_2,2023-09-08T18:51:57.157Z,,0,,,NaN,,,,,,false,,,,545126.7000000477,545126.2999999523,,545126.0999999046,,545134.336,8,400,,,
sequence,flow.Sequence,4_122,2023-09-08T18:51:57.158Z,,0,,,2607.231999952346,completion,,,,,false,,,,545127.2000000477,545126.2999999523,542502.945,542512,542519.068,545134.336,8,400,,,
trial,html.Screen,4_123_0,2023-09-08T18:52:00.089Z,,0,3,,2923.3640000476735,response,ISIC_0010266.JPG,5,ISIC_0004728.JPG,ISIC_0004728.JPG,false,0,keypress(z),500,548057.9000000954,548057.7000000477,545117.936,545127.2999999523,545134.336,548066.245,8,400,24,,ISIC_0010266.JPG
break,html.Screen,4_123_1,2023-09-08T18:52:00.089Z,,0,,,NaN,,,,,,false,,,,548058.4000000954,548058.2999999523,,548058.0999999046,,548066.245,8,400,,,
break_continue,html.Screen,4_123_2,2023-09-08T18:52:00.089Z,,0,,,NaN,,,,,,false,,,,548058.7999999523,548058.7000000477,,548058.7000000477,,548066.245,8,400,,,
sequence,flow.Sequence,4_123,2023-09-08T18:52:00.090Z,,0,,,2924.3640000476735,completion,,,,,false,,,,548059.0999999046,548058.7000000477,545117.936,545127.2999999523,545134.336,548066.245,8,400,,,
trial,html.Screen,4_124_0,2023-09-08T18:52:02.732Z,,0,3,,2634.854999904637,response,ISIC_7035246.JPG,5,ISIC_0033424.JPG,ISIC_7035246.JPG,false,1,keypress(m),500,550701.4000000954,550701.0999999046,548049.764,548059.0999999046,548066.245,550714.692,8,400,25,,ISIC_0033424.JPG
break,html.Screen,4_124_1,2023-09-08T18:52:02.733Z,,0,,,NaN,,,,,,false,,,,550702.2999999523,550702,,550701.5999999046,,550714.692,8,400,,,
break_continue,html.Screen,4_124_2,2023-09-08T18:52:02.733Z,,0,,,NaN,,,,,,false,,,,550702.7999999523,550702.5999999046,,550702.5,,550714.692,8,400,,,
sequence,flow.Sequence,4_124,2023-09-08T18:52:02.734Z,,0,,,2636.354999904637,completion,,,,,false,,,,550703.0999999046,550702.5999999046,548049.764,548059.0999999046,548066.245,550714.692,8,400,,,
trial,html.Screen,4_125_0,2023-09-08T18:52:05.471Z,,0,3,,2725.607999952277,response,ISIC_3503213.JPG,6,ISIC_0032759.JPG,ISIC_3503213.JPG,false,1,keypress(m),500,553440.5,553440.2999999523,550698.564,550703.2000000477,550714.692,553446.56,8,400,26,,ISIC_0032759.JPG
break,html.Screen,4_125_1,2023-09-08T18:52:05.472Z,,0,,,NaN,,,,,,false,,,,553441,553440.7999999523,,553440.5999999046,,553446.56,8,400,,,
break_continue,html.Screen,4_125_2,2023-09-08T18:52:05.472Z,,0,,,NaN,,,,,,false,,,,553441.2999999523,553441.0999999046,,553441,,553446.56,8,400,,,
sequence,flow.Sequence,4_125,2023-09-08T18:52:05.472Z,,0,,,2726.4079999045935,completion,,,,,false,,,,553441.2999999523,553441.0999999046,550698.564,550703.2000000477,550714.692,553446.56,8,400,,,
trial,html.Screen,4_126_0,2023-09-08T18:52:08.009Z,,0,3,,2531.939999999944,response,ISIC_0010145.JPG,5,ISIC_4810500.JPG,ISIC_4810500.JPG,false,0,keypress(z),500,555978.7999999523,555978.5,553430.119,553441.5,553446.56,555995.466,8,400,27,,ISIC_0010145.JPG
