sender,sender_type,sender_id,timestamp,meta,,blockNo,condition,duration,ended_on,img_left,img_reveal,img_right,loser,practice,response,response_action,selection_duration,time_commit,time_end,time_render,time_run,time_show,time_switch,total_blocks,total_trials,trialNo,url,winner
informed_consent,html.Screen,0,2023-09-08T18:43:34.828Z,"{""labjs_version"":""20.2.4"",""labjs_build"":{""flavor"":""production"",""commit"":""f5b4a49f956347addd546a832a3327688c2c0fef""},""location"":""https://run.pavlovia.org/MurrayBennett/melanoma-2afc/?participant=62850d0754941f925e1af397&STUDY_ID=64f8c92207ba404bcb356c90&SESSION_ID=64fb6b36d2bd47cc05288bc2&platform=prolific"",""userAgent"":""Mozilla/5.0 (Windows NT 10.0; Win64; x64) AppleWebKit/537.36 (KHTML, like Gecko) Chrome/116.0.0.0 Safari/537.36"",""platform"":""Win32"",""language"":""en-US"",""locale"":""en-US"",""timeZone"":""America/New_York"",""timezoneOffset"":240,""screen_width"":1920,""screen_height"":1080,""scroll_width"":1920,""scroll_height"":923,""window_innerWidth"":1920,""window_innerHeight"":971,""devicePixelRatio"":1}",,,,10780.219000000001,response,,,,,,consent,click button,,12327.800000000745,12327,1513.379,1509.4000000022352,1546.781,12327.705,,,,"{""participant"":""62850d0754941f925e1af397"",""STUDY_ID"":""64f8c92207ba404bcb356c90"",""SESSION_ID"":""64fb6b36d2bd47cc05288bc2"",""platform"":""prolific""}",
Welcome,html.Screen,1,2023-09-08T18:44:04.145Z,,,,uniform,29316.295,response,,,,,,continue,click button,,41644.5,41644,12319.337,12327.800000000745,12327.705,41650.061,,,,,
trial,html.Screen,2_0_0,2023-09-08T18:44:07.555Z,,0,0,,3404.5390000014886,response,ISIC_0025593.JPG,,ISIC_0063388.JPG,ISIC_0063388.JPG,true,0,keypress(z),500,45054.800000000745,45054.60000000149,41641.625,41644.70000000298,41650.061,45062.946,1,6,1,,ISIC_0025593.JPG
sequence,flow.Sequence,2_0,2023-09-08T18:44:07.555Z,,0,,,3404.5390000014886,completion,,,,,true,,,,45054.900000002235,45054.60000000149,41641.625,41644.70000000298,41650.061,45062.946,1,6,,,
trial,html.Screen,2_1_0,2023-09-08T18:44:10.773Z,,0,0,,3210.1540000014866,response,ISIC_0028178.JPG,,ISIC_1309015.JPG,ISIC_0028178.JPG,true,1,keypress(m),500,48273.20000000298,48273.10000000149,45053.952,45055,45062.946,48275.564,1,6,2,,ISIC_1309015.JPG
sequence,flow.Sequence,2_1,2023-09-08T18:44:10.773Z,,0,,,3210.1540000014866,completion,,,,,true,,,,48273.300000000745,48273.10000000149,45053.952,45055,45062.946,48275.564,1,6,,,
trial,html.Screen,2_2_0,2023-09-08T18:44:14.246Z,,0,0,,3470.4360000000015,response,ISIC_3314853.JPG,,ISIC_0031128.JPG,ISIC_3314853.JPG,true,1,keypress(m),500,51746.20000000298,51746,48266.6,48273.400000002235,48275.564,51756.674,1,6,3,,ISIC_0031128.JPG
sequence,flow.Sequence,2_2,2023-09-08T18:44:14.246Z,,0,,,3470.4360000000015,completion,,,,,true,,,,51746.300000000745,51746,48266.6,48273.400000002235,48275.564,51756.674,1,6,,,
trial,html.Screen,2_3_0,2023-09-08T18:44:17.560Z,,0,0,,3303.126000000746,response,ISIC_0031612.JPG,,ISIC_8980141.JPG,ISIC_8980141.JPG,true,0,keypress(z),500,55060,55059.800000000745,51746.219,51746.300000000745,51756.674,55067.936,1,6,4,,ISIC_0031612.JPG
sequence,flow.Sequence,2_3,2023-09-08T18:44:17.560Z,,0,,,3303.126000000746,completion,,,,,true,,,,55060.10000000149,55059.800000000745,51746.219,51746.300000000745,51756.674,55067.936,1,6,,,
trial,html.Screen,2_4_0,2023-09-08T18:44:20.634Z,,0,0,,3065.9640000022337,response,ISIC_9721604.JPG,,ISIC_1197737.JPG,ISIC_9721604.JPG,true,1,keypress(m),500,58133.900000002235,58133.900000002235,55058.967,55060.10000000149,55067.936,58138.717,1,6,5,,ISIC_1197737.JPG
sequence,flow.Sequence,2_4,2023-09-08T18:44:20.634Z,,0,,,3065.9640000022337,completion,,,,,true,,,,58134.10000000149,58133.900000002235,55058.967,55060.10000000149,55067.936,58138.717,1,6,,,
trial,html.Screen,2_5_0,2023-09-08T18:44:23.708Z,,0,0,,3068.9830000029833,response,ISIC_0010681.JPG,,ISIC_0025346.JPG,ISIC_0010681.JPG,true,1,keypress(m),500,61207.70000000298,61207.70000000298,58129.719,58134.20000000298,58138.717,61209.495,1,6,6,,ISIC_0025346.JPG
sequence,flow.Sequence,2_5,2023-09-08T18:44:23.708Z,,0,,,3068.9830000029833,completion,,,,,true,,,,61207.900000002235,61207.70000000298,58129.719,58134.20000000298,58138.717,61209.495,1,6,,,
loop,flow.Loop,2,2023-09-08T18:44:23.708Z,,,,,19557.63900000298,completion,,,,,true,,,,61208,61207.70000000298,41641.625,41644.70000000298,41650.061,61209.495,1,6,,,
exp_instructions,html.Screen,3,2023-09-08T18:44:39.684Z,,,,,15973.605000001487,response,,,,,,continue,keypress(Space),,77183.5,77183.10000000149,61200.473,61208,61209.495,77189.075,,,,,
trial,html.Screen,4_0_0,2023-09-08T18:44:42.742Z,,0,1,,3052.625000002983,response,ISIC_5434229.JPG,5,ISIC_9406755.JPG,ISIC_9406755.JPG,false,0,keypress(z),500,80241.90000000224,80241.70000000298,77176.055,77183.70000000298,77189.075,80252.83,8,400,1,,ISIC_5434229.JPG
break,html.Screen,4_0_1,2023-09-08T18:44:42.743Z,,0,,,NaN,,,,,,false,,,,80242.40000000224,80242.30000000075,,80242,,80252.83,8,400,,,
break_continue,html.Screen,4_0_2,2023-09-08T18:44:42.743Z,,0,,,NaN,,,,,,false,,,,80242.60000000149,80242.5,,80242.40000000224,,80252.83,8,400,,,
sequence,flow.Sequence,4_0,2023-09-08T18:44:42.743Z,,0,,,3053.425000000003,completion,,,,,false,,,,80242.60000000149,80242.5,77176.055,77183.70000000298,77189.075,80252.83,8,400,,,
trial,html.Screen,4_1_0,2023-09-08T18:44:45.768Z,,0,1,,3014.9700000007433,response,ISIC_0033275.JPG,5,ISIC_0067008.JPG,ISIC_0033275.JPG,false,1,keypress(m),500,83267.90000000224,83267.80000000075,80234.198,80242.70000000298,80252.83,83272.169,8,400,2,,ISIC_0067008.JPG
break,html.Screen,4_1_1,2023-09-08T18:44:45.769Z,,0,,,NaN,,,,,,false,,,,83268.70000000298,83268.60000000149,,83268.40000000224,,83272.169,8,400,,,
break_continue,html.Screen,4_1_2,2023-09-08T18:44:45.769Z,,0,,,NaN,,,,,,false,,,,83268.80000000075,83268.80000000075,,83268.70000000298,,83272.169,8,400,,,
sequence,flow.Sequence,4_1,2023-09-08T18:44:45.769Z,,0,,,3015.9700000007433,completion,,,,,false,,,,83268.90000000224,83268.80000000075,80234.198,80242.70000000298,80252.83,83272.169,8,400,,,
trial,html.Screen,4_2_0,2023-09-08T18:44:49.009Z,,0,1,,3236.9310000014957,response,ISIC_2805634.JPG,5,ISIC_0024565.JPG,ISIC_2805634.JPG,false,1,keypress(m),500,86509.10000000149,86509.10000000149,83263.176,83268.90000000224,83272.169,86519.79,8,400,3,,ISIC_0024565.JPG
break,html.Screen,4_2_1,2023-09-08T18:44:49.010Z,,0,,,NaN,,,,,,false,,,,86509.5,86509.40000000224,,86509.20000000298,,86519.79,8,400,,,
break_continue,html.Screen,4_2_2,2023-09-08T18:44:49.010Z,,0,,,NaN,,,,,,false,,,,86509.70000000298,86509.70000000298,,86509.60000000149,,86519.79,8,400,,,
sequence,flow.Sequence,4_2,2023-09-08T18:44:49.010Z,,0,,,3237.531000002986,completion,,,,,false,,,,86509.70000000298,86509.70000000298,83263.176,83268.90000000224,83272.169,86519.79,8,400,,,
trial,html.Screen,4_3_0,2023-09-08T18:44:51.876Z,,0,1,,2855.9100000029866,response,ISIC_0489267.JPG,6,ISIC_1708591.JPG,ISIC_0489267.JPG,false,1,keypress(m),500,89375.80000000075,89375.70000000298,86509.182,86509.80000000075,86519.79,89380.32,8,400,4,,ISIC_1708591.JPG
break,html.Screen,4_3_1,2023-09-08T18:44:51.876Z,,0,,,NaN,,,,,,false,,,,89376.10000000149,89376.10000000149,,89375.80000000075,,89380.32,8,400,,,
break_continue,html.Screen,4_3_2,2023-09-08T18:44:51.876Z,,0,,,NaN,,,,,,false,,,,89376.30000000075,89376.20000000298,,89376.20000000298,,89380.32,8,400,,,
sequence,flow.Sequence,4_3,2023-09-08T18:44:51.876Z,,0,,,2856.4100000029866,completion,,,,,false,,,,89376.30000000075,89376.20000000298,86509.182,86509.80000000075,86519.79,89380.32,8,400,,,
trial,html.Screen,4_4_0,2023-09-08T18:44:54.773Z,,0,1,,2892.780000001483,response,ISIC_9351418.JPG,5,ISIC_6339509.JPG,ISIC_6339509.JPG,false,0,keypress(z),500,92273.20000000298,92273.10000000149,89371.338,89376.40000000224,89380.32,92275.836,8,400,5,,ISIC_9351418.JPG
break,html.Screen,4_4_1,2023-09-08T18:44:54.774Z,,0,,,NaN,,,,,,false,,,,92273.60000000149,92273.5,,92273.20000000298,,92275.836,8,400,,,
break_continue,html.Screen,4_4_2,2023-09-08T18:44:54.774Z,,0,,,NaN,,,,,,false,,,,92273.70000000298,92273.70000000298,,92273.60000000149,,92275.836,8,400,,,
sequence,flow.Sequence,4_4,2023-09-08T18:44:54.774Z,,0,,,2893.3800000029732,completion,,,,,false,,,,92273.80000000075,92273.70000000298,89371.338,89376.40000000224,89380.32,92275.836,8,400,,,
trial,html.Screen,4_5_0,2023-09-08T18:44:57.672Z,,0,1,,2895.6640000000043,response,ISIC_7594601.JPG,5,ISIC_8647900.JPG,ISIC_8647900.JPG,false,0,keypress(z),500,95171.60000000149,95171.5,92266.844,92273.80000000075,92275.836,95179.729,8,400,6,,ISIC_7594601.JPG
break,html.Screen,4_5_1,2023-09-08T18:44:57.672Z,,0,,,NaN,,,,,,false,,,,95172,95172,,95171.70000000298,,95179.729,8,400,,,
break_continue,html.Screen,4_5_2,2023-09-08T18:44:57.672Z,,0,,,NaN,,,,,,false,,,,95172.20000000298,95172.20000000298,,95172.10000000149,,95179.729,8,400,,,
sequence,flow.Sequence,4_5,2023-09-08T18:44:57.672Z,,0,,,2896.3640000029845,completion,,,,,false,,,,95172.30000000075,95172.20000000298,92266.844,92273.80000000075,92275.836,95179.729,8,400,,,
trial,html.Screen,4_6_0,2023-09-08T18:45:00.298Z,,0,1,,2618.0710000007384,response,ISIC_6310591.JPG,5,ISIC_3246746.JPG,ISIC_6310591.JPG,false,1,keypress(m),500,97798,97797.80000000075,95170.739,95172.30000000075,95179.729,97799.867,8,400,7,,ISIC_3246746.JPG
break,html.Screen,4_6_1,2023-09-08T18:45:00.299Z,,0,,,NaN,,,,,,false,,,,97798.40000000224,97798.30000000075,,97798,,97799.867,8,400,,,
break_continue,html.Screen,4_6_2,2023-09-08T18:45:00.299Z,,0,,,NaN,,,,,,false,,,,97798.5,97798.5,,97798.40000000224,,97799.867,8,400,,,
sequence,flow.Sequence,4_6,2023-09-08T18:45:00.299Z,,0,,,2618.7709999999934,completion,,,,,false,,,,97798.60000000149,97798.5,95170.739,95172.30000000075,95179.729,97799.867,8,400,,,
trial,html.Screen,4_7_0,2023-09-08T18:45:03.345Z,,0,1,,3045.033000002237,response,ISIC_0005062.JPG,5,ISIC_0014657.JPG,ISIC_0014657.JPG,false,0,keypress(z),500,100845,100844.90000000224,97790.875,97798.60000000149,97799.867,100854.62,8,400,8,,ISIC_0005062.JPG
break,html.Screen,4_7_1,2023-09-08T18:45:03.346Z,,0,,,NaN,,,,,,false,,,,100845.40000000224,100845.30000000075,,100845.10000000149,,100854.62,8,400,,,
break_continue,html.Screen,4_7_2,2023-09-08T18:45:03.346Z,,0,,,NaN,,,,,,false,,,,100845.5,100845.5,,100845.40000000224,,100854.62,8,400,,,
sequence,flow.Sequence,4_7,2023-09-08T18:45:03.346Z,,0,,,3045.6330000000016,completion,,,,,false,,,,100845.60000000149,100845.5,97790.875,97798.60000000149,97799.867,100854.62,8,400,,,
trial,html.Screen,4_8_0,2023-09-08T18:45:06.275Z,,0,1,,2920.28000000224,response,ISIC_0029723.JPG,5,ISIC_0005006.JPG,ISIC_0029723.JPG,false,1,keypress(m),500,103775,103774.90000000224,100844.979,100845.60000000149,100854.62,103782.835,8,400,9,,ISIC_0005006.JPG
break,html.Screen,4_8_1,2023-09-08T18:45:06.276Z,,0,,,NaN,,,,,,false,,,,103775.40000000224,103775.30000000075,,103775.10000000149,,103782.835,8,400,,,
break_continue,html.Screen,4_8_2,2023-09-08T18:45:06.276Z,,0,,,NaN,,,,,,false,,,,103775.5,103775.5,,103775.40000000224,,103782.835,8,400,,,
sequence,flow.Sequence,4_8,2023-09-08T18:45:06.276Z,,0,,,2920.8800000000047,completion,,,,,false,,,,103775.60000000149,103775.5,100844.979,100845.60000000149,100854.62,103782.835,8,400,,,
trial,html.Screen,4_9_0,2023-09-08T18:45:08.986Z,,0,1,,2702.7650000014837,response,ISIC_5126638.JPG,5,ISIC_0031013.JPG,ISIC_0031013.JPG,false,0,keypress(z),500,106485.70000000298,106485.60000000149,103773.861,103775.60000000149,103782.835,106486.469,8,400,10,,ISIC_5126638.JPG
break,html.Screen,4_9_1,2023-09-08T18:45:08.986Z,,0,,,NaN,,,,,,false,,,,106486.10000000149,106486,,106485.80000000075,,106486.469,8,400,,,
break_continue,html.Screen,4_9_2,2023-09-08T18:45:08.986Z,,0,,,NaN,,,,,,false,,,,106486.30000000075,106486.20000000298,,106486.20000000298,,106486.469,8,400,,,
sequence,flow.Sequence,4_9,2023-09-08T18:45:08.986Z,,0,,,2703.365000002974,completion,,,,,false,,,,106486.30000000075,106486.20000000298,103773.861,103775.60000000149,103782.835,106486.469,8,400,,,
trial,html.Screen,4_10_0,2023-09-08T18:45:11.805Z,,0,1,,2817.8310000007477,response,ISIC_7532154.JPG,5,ISIC_0000371.JPG,ISIC_0000371.JPG,false,0,keypress(z),500,109304.40000000224,109304.30000000075,106485.817,106486.40000000224,106486.469,109306.911,8,400,11,,ISIC_7532154.JPG
break,html.Screen,4_10_1,2023-09-08T18:45:11.805Z,,0,,,NaN,,,,,,false,,,,109304.80000000075,109304.70000000298,,109304.5,,109306.911,8,400,,,
break_continue,html.Screen,4_10_2,2023-09-08T18:45:11.805Z,,0,,,NaN,,,,,,false,,,,109304.90000000224,109304.80000000075,,109304.80000000075,,109306.911,8,400,,,
sequence,flow.Sequence,4_10,2023-09-08T18:45:11.805Z,,0,,,2818.3310000007477,completion,,,,,false,,,,109304.90000000224,109304.80000000075,106485.817,106486.30000000075,106486.469,109306.911,8,400,,,
trial,html.Screen,4_11_0,2023-09-08T18:45:14.783Z,,0,1,,2975.3890000007523,response,ISIC_2603420.JPG,6,ISIC_0063642.JPG,ISIC_0063642.JPG,false,0,keypress(z),500,112282.40000000224,112282.30000000075,109297.896,109305,109306.911,112285.825,8,400,12,,ISIC_2603420.JPG
break,html.Screen,4_11_1,2023-09-08T18:45:14.783Z,,0,,,NaN,,,,,,false,,,,112282.80000000075,112282.80000000075,,112282.5,,112285.825,8,400,,,
break_continue,html.Screen,4_11_2,2023-09-08T18:45:14.783Z,,0,,,NaN,,,,,,false,,,,112283,112282.90000000224,,112282.80000000075,,112285.825,8,400,,,
sequence,flow.Sequence,4_11,2023-09-08T18:45:14.783Z,,0,,,2975.9890000022424,completion,,,,,false,,,,112283,112282.90000000224,109297.896,109305,109306.911,112285.825,8,400,,,
trial,html.Screen,4_12_0,2023-09-08T18:45:17.814Z,,0,1,,3028.175000000003,response,ISIC_0070050.JPG,4,ISIC_1092432.JPG,ISIC_1092432.JPG,false,0,keypress(z),500,115314.20000000298,115314,112276.873,112283,112285.825,115324.789,8,400,13,,ISIC_0070050.JPG
break,html.Screen,4_12_1,2023-09-08T18:45:17.815Z,,0,,,NaN,,,,,,false,,,,115314.60000000149,115314.5,,115314.20000000298,,115324.789,8,400,,,
break_continue,html.Screen,4_12_2,2023-09-08T18:45:17.815Z,,0,,,NaN,,,,,,false,,,,115314.80000000075,115314.70000000298,,115314.60000000149,,115324.789,8,400,,,
sequence,flow.Sequence,4_12,2023-09-08T18:45:17.815Z,,0,,,3028.875000002983,completion,,,,,false,,,,115314.80000000075,115314.70000000298,112276.873,112283,112285.825,115324.789,8,400,,,
trial,html.Screen,4_13_0,2023-09-08T18:45:20.445Z,,0,1,,2620.0110000007408,response,ISIC_9568138.JPG,6,ISIC_8798059.JPG,ISIC_9568138.JPG,false,1,keypress(m),500,117944.90000000224,117944.80000000075,115314.253,115314.90000000224,115324.789,117951.739,8,400,14,,ISIC_8798059.JPG
break,html.Screen,4_13_1,2023-09-08T18:45:20.446Z,,0,,,NaN,,,,,,false,,,,117945.40000000224,117945.30000000075,,117945,,117951.739,8,400,,,
break_continue,html.Screen,4_13_2,2023-09-08T18:45:20.446Z,,0,,,NaN,,,,,,false,,,,117945.5,117945.40000000224,,117945.40000000224,,117951.739,8,400,,,
sequence,flow.Sequence,4_13,2023-09-08T18:45:20.446Z,,0,,,2620.611000002231,completion,,,,,false,,,,117945.60000000149,117945.40000000224,115314.253,115314.80000000075,115324.789,117951.739,8,400,,,
trial,html.Screen,4_14_0,2023-09-08T18:45:22.966Z,,0,1,,2513.8610000014887,response,ISIC_2304753.JPG,5,ISIC_1488727.JPG,ISIC_2304753.JPG,false,1,keypress(m),500,120465.80000000075,120465.60000000149,117942.752,117945.60000000149,117951.739,120471.778,8,400,15,,ISIC_1488727.JPG
break,html.Screen,4_14_1,2023-09-08T18:45:22.966Z,,0,,,NaN,,,,,,false,,,,120466.20000000298,120466.20000000298,,120465.90000000224,,120471.778,8,400,,,
break_continue,html.Screen,4_14_2,2023-09-08T18:45:22.967Z,,0,,,NaN,,,,,,false,,,,120466.40000000224,120466.30000000075,,120466.30000000075,,120471.778,8,400,,,
sequence,flow.Sequence,4_14,2023-09-08T18:45:22.967Z,,0,,,2514.5610000007437,completion,,,,,false,,,,120466.40000000224,120466.30000000075,117942.752,117945.60000000149,117951.739,120471.778,8,400,,,
trial,html.Screen,4_15_0,2023-09-08T18:45:25.914Z,,0,1,,2942.3220000014844,response,ISIC_0032017.JPG,5,ISIC_3475142.JPG,ISIC_0032017.JPG,false,1,keypress(m),500,123414.20000000298,123414.10000000149,120462.773,120466.5,120471.778,123417.329,8,400,16,,ISIC_3475142.JPG
break,html.Screen,4_15_1,2023-09-08T18:45:25.915Z,,0,,,NaN,,,,,,false,,,,123414.5,123414.40000000224,,123414.30000000075,,123417.329,8,400,,,
break_continue,html.Screen,4_15_2,2023-09-08T18:45:25.915Z,,0,,,NaN,,,,,,false,,,,123414.70000000298,123414.60000000149,,123414.5,,123417.329,8,400,,,
sequence,flow.Sequence,4_15,2023-09-08T18:45:25.915Z,,0,,,2942.8220000014844,completion,,,,,false,,,,123414.70000000298,123414.60000000149,120462.773,120466.5,120471.778,123417.329,8,400,,,
trial,html.Screen,4_16_0,2023-09-08T18:45:28.702Z,,0,1,,2784.5710000022373,response,ISIC_7351443.JPG,5,ISIC_9152137.JPG,ISIC_9152137.JPG,false,0,keypress(z),500,126202,126201.90000000224,123408.345,123414.70000000298,123417.329,126204.404,8,400,17,,ISIC_7351443.JPG
break,html.Screen,4_16_1,2023-09-08T18:45:28.703Z,,0,,,NaN,,,,,,false,,,,126202.40000000224,126202.40000000224,,126202.10000000149,,126204.404,8,400,,,
break_continue,html.Screen,4_16_2,2023-09-08T18:45:28.703Z,,0,,,NaN,,,,,,false,,,,126202.5,126202.5,,126202.40000000224,,126204.404,8,400,,,
sequence,flow.Sequence,4_16,2023-09-08T18:45:28.703Z,,0,,,2785.171000000002,completion,,,,,false,,,,126202.60000000149,126202.5,123408.345,123414.70000000298,123417.329,126204.404,8,400,,,
trial,html.Screen,4_17_0,2023-09-08T18:45:31.329Z,,0,1,,2623.7960000029852,response,ISIC_1495182.JPG,4,ISIC_8197240.JPG,ISIC_8197240.JPG,false,0,keypress(z),500,128828.40000000224,128828.20000000298,126195.421,126202.60000000149,126204.404,128832.875,8,400,18,,ISIC_1495182.JPG
break,html.Screen,4_17_1,2023-09-08T18:45:31.329Z,,0,,,NaN,,,,,,false,,,,128828.80000000075,128828.70000000298,,128828.40000000224,,128832.875,8,400,,,
break_continue,html.Screen,4_17_2,2023-09-08T18:45:31.329Z,,0,,,NaN,,,,,,false,,,,128828.90000000224,128828.80000000075,,128828.80000000075,,128832.875,8,400,,,
sequence,flow.Sequence,4_17,2023-09-08T18:45:31.329Z,,0,,,2624.39600000075,completion,,,,,false,,,,128829,128828.80000000075,126195.421,126202.60000000149,126204.404,128832.875,8,400,,,
trial,html.Screen,4_18_0,2023-09-08T18:45:34.530Z,,0,1,,3197.22500000149,response,ISIC_2222879.JPG,5,ISIC_8436492.JPG,ISIC_8436492.JPG,false,0,keypress(z),500,132030.20000000298,132030.1000000015,128823.875,128829.10000000149,128832.875,132037.205,8,400,19,,ISIC_2222879.JPG
break,html.Screen,4_18_1,2023-09-08T18:45:34.531Z,,0,,,NaN,,,,,,false,,,,132030.6000000015,132030.5,,132030.30000000075,,132037.205,8,400,,,
break_continue,html.Screen,4_18_2,2023-09-08T18:45:34.531Z,,0,,,NaN,,,,,,false,,,,132030.70000000298,132030.70000000298,,132030.6000000015,,132037.205,8,400,,,
sequence,flow.Sequence,4_18,2023-09-08T18:45:34.531Z,,0,,,3197.8250000029802,completion,,,,,false,,,,132030.80000000075,132030.70000000298,128823.875,128829.10000000149,128832.875,132037.205,8,400,,,
trial,html.Screen,4_19_0,2023-09-08T18:45:38.011Z,,0,1,,3473.695000002248,response,ISIC_0070050.JPG,5,ISIC_8901371.JPG,ISIC_8901371.JPG,false,0,keypress(z),500,135511,135510.90000000224,132028.17,132030.80000000075,132037.205,135516.785,8,400,20,,ISIC_0070050.JPG
break,html.Screen,4_19_1,2023-09-08T18:45:38.011Z,,0,,,NaN,,,,,,false,,,,135511.40000000224,135511.30000000075,,135511.1000000015,,135516.785,8,400,,,
break_continue,html.Screen,4_19_2,2023-09-08T18:45:38.012Z,,0,,,NaN,,,,,,false,,,,135511.5,135511.5,,135511.40000000224,,135516.785,8,400,,,
sequence,flow.Sequence,4_19,2023-09-08T18:45:38.012Z,,0,,,3474.295000000013,completion,,,,,false,,,,135511.6000000015,135511.5,132028.17,132030.80000000075,132037.205,135516.785,8,400,,,
trial,html.Screen,4_20_0,2023-09-08T18:45:41.280Z,,0,1,,3263.0150000007416,response,ISIC_0000526.JPG,5,ISIC_9268141.JPG,ISIC_0000526.JPG,false,1,keypress(m),500,138779.90000000224,138779.80000000075,135507.833,135511.6000000015,135516.785,138796.192,8,400,21,,ISIC_9268141.JPG
break,html.Screen,4_20_1,2023-09-08T18:45:41.280Z,,0,,,NaN,,,,,,false,,,,138780.30000000075,138780.20000000298,,138779.90000000224,,138796.192,8,400,,,
break_continue,html.Screen,4_20_2,2023-09-08T18:45:41.281Z,,0,,,NaN,,,,,,false,,,,138780.40000000224,138780.40000000224,,138780.30000000075,,138796.192,8,400,,,
sequence,flow.Sequence,4_20,2023-09-08T18:45:41.281Z,,0,,,3263.6150000022317,completion,,,,,false,,,,138780.40000000224,138780.40000000224,135507.833,135511.6000000015,135516.785,138796.192,8,400,,,
trial,html.Screen,4_21_0,2023-09-08T18:45:44.442Z,,0,1,,3145.40800000148,response,ISIC_8740331.JPG,5,ISIC_0033950.JPG,ISIC_8740331.JPG,false,1,keypress(m),500,141941.70000000298,141941.6000000015,138787.835,138780.40000000224,138796.192,141950.393,8,400,22,,ISIC_0033950.JPG
break,html.Screen,4_21_1,2023-09-08T18:45:44.442Z,,0,,,NaN,,,,,,false,,,,141942.1000000015,141942,,141941.80000000075,,141950.393,8,400,,,
break_continue,html.Screen,4_21_2,2023-09-08T18:45:44.442Z,,0,,,NaN,,,,,,false,,,,141942.20000000298,141942.20000000298,,141942.1000000015,,141950.393,8,400,,,
sequence,flow.Sequence,4_21,2023-09-08T18:45:44.442Z,,0,,,3146.00800000297,completion,,,,,false,,,,141942.20000000298,141942.20000000298,138787.835,138780.40000000224,138796.192,141950.393,8,400,,,
trial,html.Screen,4_22_0,2023-09-08T18:45:47.724Z,,0,1,,3273.106999999989,response,ISIC_0065740.JPG,5,ISIC_5338721.JPG,ISIC_0065740.JPG,false,1,keypress(m),500,145223.6000000015,145223.5,141942.051,141942.30000000075,141950.393,145229.726,8,400,23,,ISIC_5338721.JPG
break,html.Screen,4_22_1,2023-09-08T18:45:47.724Z,,0,,,NaN,,,,,,false,,,,145224.1000000015,145224,,145223.70000000298,,145229.726,8,400,,,
break_continue,html.Screen,4_22_2,2023-09-08T18:45:47.724Z,,0,,,NaN,,,,,,false,,,,145224.20000000298,145224.1000000015,,145224.1000000015,,145229.726,8,400,,,
sequence,flow.Sequence,4_22,2023-09-08T18:45:47.724Z,,0,,,3273.707000001479,completion,,,,,false,,,,145224.20000000298,145224.1000000015,141942.051,141942.30000000075,141950.393,145229.726,8,400,,,
trial,html.Screen,4_23_0,2023-09-08T18:45:50.862Z,,0,1,,3132.474000002985,response,ISIC_0072612.JPG,5,ISIC_0065264.JPG,ISIC_0072612.JPG,false,1,keypress(m),500,148362.30000000075,148362.20000000298,145220.718,145224.30000000075,145229.726,148367.227,8,400,24,,ISIC_0065264.JPG
break,html.Screen,4_23_1,2023-09-08T18:45:50.863Z,,0,,,NaN,,,,,,false,,,,148362.70000000298,148362.6000000015,,148362.40000000224,,148367.227,8,400,,,
break_continue,html.Screen,4_23_2,2023-09-08T18:45:50.863Z,,0,,,NaN,,,,,,false,,,,148362.90000000224,148362.90000000224,,148362.80000000075,,148367.227,8,400,,,
sequence,flow.Sequence,4_23,2023-09-08T18:45:50.863Z,,0,,,3133.17400000224,completion,,,,,false,,,,148363,148362.90000000224,145220.718,145224.30000000075,145229.726,148367.227,8,400,,,
trial,html.Screen,4_24_0,2023-09-08T18:45:54.082Z,,0,1,,3214.7729999999865,response,ISIC_0033603.JPG,5,ISIC_8306983.JPG,ISIC_8306983.JPG,false,0,keypress(z),500,151582.20000000298,151582,148358.269,148363.1000000015,148367.227,151588.238,8,400,25,,ISIC_0033603.JPG
break,html.Screen,4_24_1,2023-09-08T18:45:54.083Z,,0,,,NaN,,,,,,false,,,,151582.6000000015,151582.5,,151582.30000000075,,151588.238,8,400,,,
break_continue,html.Screen,4_24_2,2023-09-08T18:45:54.083Z,,0,,,NaN,,,,,,false,,,,151582.70000000298,151582.70000000298,,151582.6000000015,,151588.238,8,400,,,
sequence,flow.Sequence,4_24,2023-09-08T18:45:54.083Z,,0,,,3215.4730000029667,completion,,,,,false,,,,151582.80000000075,151582.70000000298,148358.269,148363.1000000015,148367.227,151588.238,8,400,,,
trial,html.Screen,4_25_0,2023-09-08T18:45:57.706Z,,0,1,,3617.362000001478,response,ISIC_0070387.JPG,5,ISIC_8624049.JPG,ISIC_0070387.JPG,false,1,keypress(m),500,155205.70000000298,155205.6000000015,151579.208,151582.80000000075,151588.238,155218.085,8,400,26,,ISIC_8624049.JPG
break,html.Screen,4_25_1,2023-09-08T18:45:57.706Z,,0,,,NaN,,,,,,false,,,,155206.1000000015,155206,,155205.80000000075,,155218.085,8,400,,,
break_continue,html.Screen,4_25_2,2023-09-08T18:45:57.706Z,,0,,,NaN,,,,,,false,,,,155206.20000000298,155206.20000000298,,155206.20000000298,,155218.085,8,400,,,
sequence,flow.Sequence,4_25,2023-09-08T18:45:57.706Z,,0,,,3617.962000002968,completion,,,,,false,,,,155206.30000000075,155206.20000000298,151579.208,151582.80000000075,151588.238,155218.085,8,400,,,
trial,html.Screen,4_26_0,2023-09-08T18:46:00.684Z,,0,1,,2966.0150000014983,response,ISIC_0058658.JPG,5,ISIC_0063164.JPG,ISIC_0063164.JPG,false,0,keypress(z),500,158184.30000000075,158184.1000000015,155209.724,155206.30000000075,155218.085,158188.661,8,400,27,,ISIC_0058658.JPG
break,html.Screen,4_26_1,2023-09-08T18:46:00.685Z,,0,,,NaN,,,,,,false,,,,158184.6000000015,158184.5,,158184.30000000075,,158188.661,8,400,,,
break_continue,html.Screen,4_26_2,2023-09-08T18:46:00.685Z,,0,,,NaN,,,,,,false,,,,158184.70000000298,158184.70000000298,,158184.6000000015,,158188.661,8,400,,,
sequence,flow.Sequence,4_26,2023-09-08T18:46:00.685Z,,0,,,2966.6150000029884,completion,,,,,false,,,,158184.70000000298,158184.70000000298,155209.724,155206.30000000075,155218.085,158188.661,8,400,,,
trial,html.Screen,4_27_0,2023-09-08T18:46:03.662Z,,0,1,,2973.4390000014973,response,ISIC_2133938.JPG,5,ISIC_0024441.JPG,ISIC_2133938.JPG,false,1,keypress(m),500,161162.20000000298,161162.1000000015,158179.662,158184.90000000224,158188.661,161167.631,8,400,28,,ISIC_0024441.JPG
break,html.Screen,4_27_1,2023-09-08T18:46:03.663Z,,0,,,NaN,,,,,,false,,,,161162.5,161162.5,,161162.20000000298,,161167.631,8,400,,,
break_continue,html.Screen,4_27_2,2023-09-08T18:46:03.663Z,,0,,,NaN,,,,,,false,,,,161162.6000000015,161162.6000000015,,161162.6000000015,,161167.631,8,400,,,
sequence,flow.Sequence,4_27,2023-09-08T18:46:03.663Z,,0,,,2973.9390000014973,completion,,,,,false,,,,161162.70000000298,161162.6000000015,158179.662,158184.90000000224,158188.661,161167.631,8,400,,,
trial,html.Screen,4_28_0,2023-09-08T18:46:06.609Z,,0,1,,2940.5690000029863,response,ISIC_3447311.JPG,4,ISIC_1783062.JPG,ISIC_1783062.JPG,false,0,keypress(z),500,164108.40000000224,164108.20000000298,161158.607,161162.80000000075,161167.631,164113.214,8,400,29,,ISIC_3447311.JPG
break,html.Screen,4_28_1,2023-09-08T18:46:06.609Z,,0,,,NaN,,,,,,false,,,,164108.80000000075,164108.70000000298,,164108.40000000224,,164113.214,8,400,,,
break_continue,html.Screen,4_28_2,2023-09-08T18:46:06.609Z,,0,,,NaN,,,,,,false,,,,164108.90000000224,164108.80000000075,,164108.80000000075,,164113.214,8,400,,,
sequence,flow.Sequence,4_28,2023-09-08T18:46:06.609Z,,0,,,2941.169000000751,completion,,,,,false,,,,164108.90000000224,164108.80000000075,161158.607,161162.80000000075,161167.631,164113.214,8,400,,,
trial,html.Screen,4_29_0,2023-09-08T18:46:09.682Z,,0,1,,3068.886000001483,response,ISIC_6976570.JPG,6,ISIC_9422630.JPG,ISIC_9422630.JPG,false,0,keypress(z),500,167182.30000000075,167182.1000000015,164104.214,164109,164113.214,167183.982,8,400,30,,ISIC_6976570.JPG
break,html.Screen,4_29_1,2023-09-08T18:46:09.683Z,,0,,,NaN,,,,,,false,,,,167182.70000000298,167182.5,,167182.30000000075,,167183.982,8,400,,,
break_continue,html.Screen,4_29_2,2023-09-08T18:46:09.683Z,,0,,,NaN,,,,,,false,,,,167182.80000000075,167182.80000000075,,167182.70000000298,,167183.982,8,400,,,
sequence,flow.Sequence,4_29,2023-09-08T18:46:09.683Z,,0,,,3069.586000000738,completion,,,,,false,,,,167182.80000000075,167182.80000000075,164104.214,164109,164113.214,167183.982,8,400,,,
trial,html.Screen,4_30_0,2023-09-08T18:46:12.468Z,,0,1,,2784.018000000011,response,ISIC_0015250.JPG,5,ISIC_6681802.JPG,ISIC_6681802.JPG,false,0,keypress(z),500,169968.1000000015,169968,167175.001,167182.90000000224,167183.982,169971.01,8,400,31,,ISIC_0015250.JPG
break,html.Screen,4_30_1,2023-09-08T18:46:12.469Z,,0,,,NaN,,,,,,false,,,,169968.5,169968.40000000224,,169968.20000000298,,169971.01,8,400,,,
break_continue,html.Screen,4_30_2,2023-09-08T18:46:12.469Z,,0,,,NaN,,,,,,false,,,,169968.6000000015,169968.6000000015,,169968.5,,169971.01,8,400,,,
sequence,flow.Sequence,4_30,2023-09-08T18:46:12.469Z,,0,,,2784.618000001501,completion,,,,,false,,,,169968.70000000298,169968.6000000015,167175.001,167182.80000000075,167183.982,169971.01,8,400,,,
trial,html.Screen,4_31_0,2023-09-08T18:46:15.558Z,,0,1,,3086.690000002971,response,ISIC_0013530.JPG,6,ISIC_1838888.JPG,ISIC_0013530.JPG,false,1,keypress(m),500,173057.80000000075,173057.70000000298,169962.055,169968.70000000298,169971.01,173067.897,8,400,32,,ISIC_1838888.JPG
break,html.Screen,4_31_1,2023-09-08T18:46:15.558Z,,0,,,NaN,,,,,,false,,,,173058.20000000298,173058.20000000298,,173057.90000000224,,173067.897,8,400,,,
break_continue,html.Screen,4_31_2,2023-09-08T18:46:15.559Z,,0,,,NaN,,,,,,false,,,,173058.5,173058.40000000224,,173058.30000000075,,173067.897,8,400,,,
sequence,flow.Sequence,4_31,2023-09-08T18:46:15.559Z,,0,,,3087.390000002226,completion,,,,,false,,,,173058.5,173058.40000000224,169962.055,169968.70000000298,169971.01,173067.897,8,400,,,
trial,html.Screen,4_32_0,2023-09-08T18:46:18.971Z,,0,1,,3402.603000000003,response,ISIC_0008423.JPG,4,ISIC_7519557.JPG,ISIC_7519557.JPG,false,0,keypress(z),500,176470.6000000015,176470.5,173057.79,173058.5,173067.897,176481.191,8,400,33,,ISIC_0008423.JPG
break,html.Screen,4_32_1,2023-09-08T18:46:18.971Z,,0,,,NaN,,,,,,false,,,,176471,176471,,176470.70000000298,,176481.191,8,400,,,
break_continue,html.Screen,4_32_2,2023-09-08T18:46:18.971Z,,0,,,NaN,,,,,,false,,,,176471.20000000298,176471.20000000298,,176471.1000000015,,176481.191,8,400,,,
sequence,flow.Sequence,4_32,2023-09-08T18:46:18.971Z,,0,,,3403.303000002983,completion,,,,,false,,,,176471.20000000298,176471.20000000298,173057.79,173058.5,173067.897,176481.191,8,400,,,
trial,html.Screen,4_33_0,2023-09-08T18:46:22.034Z,,0,1,,3052.6090000007534,response,ISIC_0060589.JPG,4,ISIC_0033831.JPG,ISIC_0060589.JPG,false,1,keypress(m),500,179534,179533.80000000075,176470.702,176471.20000000298,176481.191,179542.112,8,400,34,,ISIC_0033831.JPG
break,html.Screen,4_33_1,2023-09-08T18:46:22.035Z,,0,,,NaN,,,,,,false,,,,179534.40000000224,179534.30000000075,,179534.1000000015,,179542.112,8,400,,,
break_continue,html.Screen,4_33_2,2023-09-08T18:46:22.035Z,,0,,,NaN,,,,,,false,,,,179534.5,179534.40000000224,,179534.40000000224,,179542.112,8,400,,,
sequence,flow.Sequence,4_33,2023-09-08T18:46:22.035Z,,0,,,3053.2090000022436,completion,,,,,false,,,,179534.6000000015,179534.40000000224,176470.702,176471.20000000298,176481.191,179542.112,8,400,,,
trial,html.Screen,4_34_0,2023-09-08T18:46:25.530Z,,0,1,,3487.7880000022415,response,ISIC_9096302.JPG,5,ISIC_0013549.JPG,ISIC_0013549.JPG,false,0,keypress(z),500,183029.90000000224,183029.90000000224,179533.708,179534.6000000015,179542.112,183038.457,8,400,35,,ISIC_9096302.JPG
break,html.Screen,4_34_1,2023-09-08T18:46:25.530Z,,0,,,NaN,,,,,,false,,,,183030.30000000075,183030.20000000298,,183030,,183038.457,8,400,,,
break_continue,html.Screen,4_34_2,2023-09-08T18:46:25.531Z,,0,,,NaN,,,,,,false,,,,183030.40000000224,183030.40000000224,,183030.30000000075,,183038.457,8,400,,,
sequence,flow.Sequence,4_34,2023-09-08T18:46:25.531Z,,0,,,3488.2880000022415,completion,,,,,false,,,,183030.40000000224,183030.40000000224,179533.708,179534.6000000015,179542.112,183038.457,8,400,,,
trial,html.Screen,4_35_0,2023-09-08T18:46:28.446Z,,0,1,,2907.6430000014952,response,ISIC_4345000.JPG,5,ISIC_0026909.JPG,ISIC_4345000.JPG,false,1,keypress(m),500,185946.20000000298,185946.1000000015,183030.113,183030.5,183038.457,185950.686,8,400,36,,ISIC_0026909.JPG
break,html.Screen,4_35_1,2023-09-08T18:46:28.447Z,,0,,,NaN,,,,,,false,,,,185946.6000000015,185946.5,,185946.30000000075,,185950.686,8,400,,,
break_continue,html.Screen,4_35_2,2023-09-08T18:46:28.447Z,,0,,,NaN,,,,,,false,,,,185946.70000000298,185946.70000000298,,185946.6000000015,,185950.686,8,400,,,
sequence,flow.Sequence,4_35,2023-09-08T18:46:28.447Z,,0,,,2908.2430000029854,completion,,,,,false,,,,185946.80000000075,185946.70000000298,183030.113,183030.5,183038.457,185950.686,8,400,,,
trial,html.Screen,4_36_0,2023-09-08T18:46:31.968Z,,0,1,,3517.114000000758,response,ISIC_0014675.JPG,5,ISIC_0058303.JPG,ISIC_0014675.JPG,false,1,keypress(m),500,189468,189467.80000000075,185941.648,185946.80000000075,185950.686,189480.376,8,400,37,,ISIC_0058303.JPG
break,html.Screen,4_36_1,2023-09-08T18:46:31.969Z,,0,,,NaN,,,,,,false,,,,189468.40000000224,189468.30000000075,,189468,,189480.376,8,400,,,
break_continue,html.Screen,4_36_2,2023-09-08T18:46:31.969Z,,0,,,NaN,,,,,,false,,,,189468.5,189468.40000000224,,189468.40000000224,,189480.376,8,400,,,
sequence,flow.Sequence,4_36,2023-09-08T18:46:31.969Z,,0,,,3517.714000002248,completion,,,,,false,,,,189468.5,189468.40000000224,185941.648,185946.80000000075,185950.686,189480.376,8,400,,,
trial,html.Screen,4_37_0,2023-09-08T18:46:35.095Z,,0,1,,3114.324000002991,response,ISIC_0031246.JPG,5,ISIC_0429825.JPG,ISIC_0031246.JPG,false,1,keypress(m),500,192594.80000000075,192594.70000000298,189472.024,189468.5,189480.376,192601.173,8,400,38,,ISIC_0429825.JPG
break,html.Screen,4_37_1,2023-09-08T18:46:35.095Z,,0,,,NaN,,,,,,false,,,,192595.20000000298,192595.1000000015,,192594.90000000224,,192601.173,8,400,,,
break_continue,html.Screen,4_37_2,2023-09-08T18:46:35.096Z,,0,,,NaN,,,,,,false,,,,192595.30000000075,192595.30000000075,,192595.20000000298,,192601.173,8,400,,,
sequence,flow.Sequence,4_37,2023-09-08T18:46:35.096Z,,0,,,3114.9240000007558,completion,,,,,false,,,,192595.40000000224,192595.30000000075,189472.024,189468.5,189480.376,192601.173,8,400,,,
trial,html.Screen,4_38_0,2023-09-08T18:46:38.186Z,,0,1,,3084.0270000029705,response,ISIC_0011094.JPG,5,ISIC_0031184.JPG,ISIC_0011094.JPG,false,1,keypress(m),500,195685.40000000224,195685.20000000298,192592.2,192595.40000000224,192601.173,195688.61,8,400,39,,ISIC_0031184.JPG
break,html.Screen,4_38_1,2023-09-08T18:46:38.186Z,,0,,,NaN,,,,,,false,,,,195685.70000000298,195685.70000000298,,195685.5,,195688.61,8,400,,,
break_continue,html.Screen,4_38_2,2023-09-08T18:46:38.186Z,,0,,,NaN,,,,,,false,,,,195685.90000000224,195685.80000000075,,195685.80000000075,,195688.61,8,400,,,
sequence,flow.Sequence,4_38,2023-09-08T18:46:38.186Z,,0,,,3084.6270000007353,completion,,,,,false,,,,195686,195685.80000000075,192592.2,192595.40000000224,192601.173,195688.61,8,400,,,
trial,html.Screen,4_39_0,2023-09-08T18:46:41.596Z,,0,1,,3407.590000002994,response,ISIC_0069087.JPG,5,ISIC_0056749.JPG,ISIC_0069087.JPG,false,1,keypress(m),500,199096.30000000075,199096.20000000298,195679.643,195686,195688.61,199101.538,8,400,40,,ISIC_0056749.JPG
break,html.Screen,4_39_1,2023-09-08T18:46:41.597Z,,0,,,NaN,,,,,,false,,,,199096.6000000015,199096.5,,199096.40000000224,,199101.538,8,400,,,
break_continue,html.Screen,4_39_2,2023-09-08T18:46:41.597Z,,0,,,NaN,,,,,,false,,,,199096.80000000075,199096.70000000298,,199096.70000000298,,199101.538,8,400,,,
sequence,flow.Sequence,4_39,2023-09-08T18:46:41.597Z,,0,,,3408.090000002994,completion,,,,,false,,,,199096.80000000075,199096.70000000298,195679.643,195686,195688.61,199101.538,8,400,,,
trial,html.Screen,4_40_0,2023-09-08T18:46:44.959Z,,0,1,,3356.7620000007446,response,ISIC_0009441.JPG,5,ISIC_0028065.JPG,ISIC_0028065.JPG,false,0,keypress(z),500,202458.40000000224,202458.30000000075,199092.518,199096.90000000224,199101.538,202472.672,8,400,41,,ISIC_0009441.JPG
break,html.Screen,4_40_1,2023-09-08T18:46:44.959Z,,0,,,NaN,,,,,,false,,,,202458.80000000075,202458.80000000075,,202458.6000000015,,202472.672,8,400,,,
break_continue,html.Screen,4_40_2,2023-09-08T18:46:44.959Z,,0,,,NaN,,,,,,false,,,,202458.90000000224,202458.90000000224,,202458.90000000224,,202472.672,8,400,,,
sequence,flow.Sequence,4_40,2023-09-08T18:46:44.959Z,,0,,,3357.3620000022347,completion,,,,,false,,,,202459,202458.90000000224,199092.518,199096.90000000224,199101.538,202472.672,8,400,,,
trial,html.Screen,4_41_0,2023-09-08T18:46:47.895Z,,0,1,,2921.528000002989,response,ISIC_6948604.JPG,5,ISIC_2058516.JPG,ISIC_2058516.JPG,false,0,keypress(z),500,205394.40000000224,205394.20000000298,202464.34,202459,202472.672,205401.549,8,400,42,,ISIC_6948604.JPG
break,html.Screen,4_41_1,2023-09-08T18:46:47.895Z,,0,,,NaN,,,,,,false,,,,205394.80000000075,205394.70000000298,,205394.40000000224,,205401.549,8,400,,,
break_continue,html.Screen,4_41_2,2023-09-08T18:46:47.895Z,,0,,,NaN,,,,,,false,,,,205395,205394.90000000224,,205394.80000000075,,205401.549,8,400,,,
sequence,flow.Sequence,4_41,2023-09-08T18:46:47.895Z,,0,,,2922.228000002244,completion,,,,,false,,,,205395,205394.90000000224,202464.34,202459,202472.672,205401.549,8,400,,,
trial,html.Screen,4_42_0,2023-09-08T18:46:50.729Z,,0,1,,2827.151000002981,response,ISIC_6806545.JPG,5,ISIC_1513720.JPG,ISIC_6806545.JPG,false,1,keypress(m),500,208228.80000000075,208228.70000000298,205392.596,205395,205401.549,208230.32,8,400,43,,ISIC_1513720.JPG
break,html.Screen,4_42_1,2023-09-08T18:46:50.729Z,,0,,,NaN,,,,,,false,,,,208229.1000000015,208229,,208228.80000000075,,208230.32,8,400,,,
break_continue,html.Screen,4_42_2,2023-09-08T18:46:50.729Z,,0,,,NaN,,,,,,false,,,,208229.20000000298,208229.20000000298,,208229.20000000298,,208230.32,8,400,,,
sequence,flow.Sequence,4_42,2023-09-08T18:46:50.729Z,,0,,,2827.651000002981,completion,,,,,false,,,,208229.20000000298,208229.20000000298,205392.596,205395,205401.549,208230.32,8,400,,,
trial,html.Screen,4_43_0,2023-09-08T18:46:53.407Z,,0,1,,2676.780000001483,response,ISIC_0056689.JPG,5,ISIC_6184891.JPG,ISIC_6184891.JPG,false,0,keypress(z),500,210907.30000000075,210907.1000000015,208221.357,208229.30000000075,208230.32,210908.889,8,400,44,,ISIC_0056689.JPG
break,html.Screen,4_43_1,2023-09-08T18:46:53.408Z,,0,,,NaN,,,,,,false,,,,210907.70000000298,210907.5,,210907.40000000224,,210908.889,8,400,,,
break_continue,html.Screen,4_43_2,2023-09-08T18:46:53.408Z,,0,,,NaN,,,,,,false,,,,210907.80000000075,210907.80000000075,,210907.70000000298,,210908.889,8,400,,,
sequence,flow.Sequence,4_43,2023-09-08T18:46:53.408Z,,0,,,2677.480000000738,completion,,,,,false,,,,210907.90000000224,210907.80000000075,208221.357,208229.30000000075,208230.32,210908.889,8,400,,,
trial,html.Screen,4_44_0,2023-09-08T18:46:56.593Z,,0,1,,3184.3110000029847,response,ISIC_2991354.JPG,5,ISIC_9684649.JPG,ISIC_2991354.JPG,false,1,keypress(m),500,214093.20000000298,214093.20000000298,210899.922,210907.90000000224,210908.889,214096.468,8,400,45,,ISIC_9684649.JPG
break,html.Screen,4_44_1,2023-09-08T18:46:56.594Z,,0,,,NaN,,,,,,false,,,,214093.6000000015,214093.5,,214093.30000000075,,214096.468,8,400,,,
break_continue,html.Screen,4_44_2,2023-09-08T18:46:56.594Z,,0,,,NaN,,,,,,false,,,,214093.80000000075,214093.70000000298,,214093.6000000015,,214096.468,8,400,,,
sequence,flow.Sequence,4_44,2023-09-08T18:46:56.594Z,,0,,,3184.8110000029847,completion,,,,,false,,,,214093.80000000075,214093.70000000298,210899.922,210907.90000000224,210908.889,214096.468,8,400,,,
trial,html.Screen,4_45_0,2023-09-08T18:46:59.449Z,,0,1,,2852.1320000014966,response,ISIC_4856536.JPG,5,ISIC_4521222.JPG,ISIC_4856536.JPG,false,1,keypress(m),500,216948.70000000298,216948.6000000015,214087.503,214093.90000000224,214096.468,216950.279,8,400,46,,ISIC_4521222.JPG
break,html.Screen,4_45_1,2023-09-08T18:46:59.449Z,,0,,,NaN,,,,,,false,,,,216949.1000000015,216949,,216948.80000000075,,216950.279,8,400,,,
break_continue,html.Screen,4_45_2,2023-09-08T18:46:59.449Z,,0,,,NaN,,,,,,false,,,,216949.20000000298,216949.20000000298,,216949.1000000015,,216950.279,8,400,,,
sequence,flow.Sequence,4_45,2023-09-08T18:46:59.449Z,,0,,,2852.7320000029868,completion,,,,,false,,,,216949.20000000298,216949.20000000298,214087.503,214093.90000000224,214096.468,216950.279,8,400,,,
trial,html.Screen,4_46_0,2023-09-08T18:47:03.483Z,,0,1,,4032.1210000022256,response,ISIC_0029112.JPG,5,ISIC_4138377.JPG,ISIC_0029112.JPG,false,1,keypress(m),500,220982.5,220982.40000000224,216941.305,216949.30000000075,216950.279,220988.995,8,400,47,,ISIC_4138377.JPG
break,html.Screen,4_46_1,2023-09-08T18:47:03.483Z,,0,,,NaN,,,,,,false,,,,220982.90000000224,220982.80000000075,,220982.6000000015,,220988.995,8,400,,,
break_continue,html.Screen,4_46_2,2023-09-08T18:47:03.483Z,,0,,,NaN,,,,,,false,,,,220983,220983,,220982.90000000224,,220988.995,8,400,,,
sequence,flow.Sequence,4_46,2023-09-08T18:47:03.483Z,,0,,,4032.7209999999905,completion,,,,,false,,,,220983.1000000015,220983,216941.305,216949.30000000075,216950.279,220988.995,8,400,,,
trial,html.Screen,4_47_0,2023-09-08T18:47:06.560Z,,0,1,,3070.205000002985,response,ISIC_2498064.JPG,6,ISIC_0054671.JPG,ISIC_2498064.JPG,false,1,keypress(m),500,224059.30000000075,224059.20000000298,220980.587,220983.1000000015,220988.995,224068.1,8,400,48,,ISIC_0054671.JPG
break,html.Screen,4_47_1,2023-09-08T18:47:06.560Z,,0,,,NaN,,,,,,false,,,,224059.90000000224,224059.70000000298,,224059.5,,224068.1,8,400,,,
break_continue,html.Screen,4_47_2,2023-09-08T18:47:06.560Z,,0,,,NaN,,,,,,false,,,,224060,224060,,224059.90000000224,,224068.1,8,400,,,
sequence,flow.Sequence,4_47,2023-09-08T18:47:06.560Z,,0,,,3071.0050000000047,completion,,,,,false,,,,224060,224060,220980.587,220983.1000000015,220988.995,224068.1,8,400,,,
trial,html.Screen,4_48_0,2023-09-08T18:47:10.417Z,,0,1,,3848.899999999994,response,ISIC_3346045.JPG,6,ISIC_1814941.JPG,ISIC_1814941.JPG,false,0,keypress(z),500,227917.20000000298,227917,224059.769,224060,224068.1,227923.258,8,400,49,,ISIC_3346045.JPG
break,html.Screen,4_48_1,2023-09-08T18:47:10.418Z,,0,,,NaN,,,,,,false,,,,227917.5,227917.40000000224,,227917.30000000075,,227923.258,8,400,,,
break_continue,html.Screen,4_48_2,2023-09-08T18:47:10.418Z,,0,,,NaN,,,,,,false,,,,227917.70000000298,227917.70000000298,,227917.5,,227923.258,8,400,,,
sequence,flow.Sequence,4_48,2023-09-08T18:47:10.418Z,,0,,,3849.6000000029744,completion,,,,,false,,,,227917.70000000298,227917.70000000298,224059.769,224060,224068.1,227923.258,8,400,,,
trial,html.Screen,4_49_0,2023-09-08T18:47:13.700Z,,0,1,,3276.1420000022335,response,ISIC_0002118.JPG,6,ISIC_4052597.JPG,ISIC_4052597.JPG,false,0,keypress(z),500,231199.5,231199.40000000224,227914.224,227917.70000000298,227923.258,231202.591,8,400,50,,ISIC_0002118.JPG
break,html.Screen,4_49_1,2023-09-08T18:47:23.691Z,,0,,,9996.705000000016,timeout,,,,,false,,,,241191.20000000298,241190.932,231194.045,231199.70000000298,231202.591,241199.296,8,400,,,
break_continue,html.Screen,4_49_2,2023-09-08T18:47:25.171Z,,0,,,1469.104000002233,response,,,,,false,continue,keypress(Space),,242671.20000000298,242668.40000000224,241190.932,241191.30000000075,241199.296,242676.235,8,400,,,
sequence,flow.Sequence,4_49,2023-09-08T18:47:25.171Z,,0,,,14745.142000002234,completion,,,,,false,,,,242671.20000000298,242668.40000000224,227914.224,227917.70000000298,227923.258,242676.235,8,400,,,
trial,html.Screen,4_50_0,2023-09-08T18:47:28.247Z,,0,2,,3070.965000002994,response,ISIC_0031545.JPG,5,ISIC_4099058.JPG,ISIC_0031545.JPG,false,1,keypress(m),500,245747.30000000075,245747.20000000298,242665.906,242671.40000000224,242676.235,245755.314,8,400,1,,ISIC_4099058.JPG
break,html.Screen,4_50_1,2023-09-08T18:47:28.247Z,,0,,,NaN,,,,,,false,,,,245747.70000000298,245747.6000000015,,245747.5,,245755.314,8,400,,,
break_continue,html.Screen,4_50_2,2023-09-08T18:47:28.248Z,,0,,,NaN,,,,,,false,,,,245747.80000000075,245747.80000000075,,245747.80000000075,,245755.314,8,400,,,
sequence,flow.Sequence,4_50,2023-09-08T18:47:28.248Z,,0,,,3071.565000000759,completion,,,,,false,,,,245748,245747.80000000075,242665.906,242671.20000000298,242676.235,245755.314,8,400,,,
trial,html.Screen,4_51_0,2023-09-08T18:47:31.534Z,,0,2,,3278.486000000732,response,ISIC_0013652.JPG,5,ISIC_7068674.JPG,ISIC_7068674.JPG,false,0,keypress(z),500,249034,249033.80000000075,245746.351,245748,245755.314,249044.075,8,400,2,,ISIC_0013652.JPG
break,html.Screen,4_51_1,2023-09-08T18:47:31.534Z,,0,,,NaN,,,,,,false,,,,249034.30000000075,249034.30000000075,,249034,,249044.075,8,400,,,
break_continue,html.Screen,4_51_2,2023-09-08T18:47:31.534Z,,0,,,NaN,,,,,,false,,,,249034.40000000224,249034.40000000224,,249034.30000000075,,249044.075,8,400,,,
sequence,flow.Sequence,4_51,2023-09-08T18:47:31.534Z,,0,,,3279.086000002222,completion,,,,,false,,,,249034.5,249034.40000000224,245746.351,245748,245755.314,249044.075,8,400,,,
trial,html.Screen,4_52_0,2023-09-08T18:47:34.320Z,,0,2,,2775.8250000022235,response,ISIC_0000024.JPG,6,ISIC_3087402.JPG,ISIC_3087402.JPG,false,0,keypress(z),500,251820,251819.90000000224,249034.038,249034.6000000015,249044.075,251821.783,8,400,3,,ISIC_0000024.JPG
break,html.Screen,4_52_1,2023-09-08T18:47:34.320Z,,0,,,NaN,,,,,,false,,,,251820.40000000224,251820.20000000298,,251820.1000000015,,251821.783,8,400,,,
break_continue,html.Screen,4_52_2,2023-09-08T18:47:34.320Z,,0,,,NaN,,,,,,false,,,,251820.6000000015,251820.5,,251820.40000000224,,251821.783,8,400,,,
sequence,flow.Sequence,4_52,2023-09-08T18:47:34.320Z,,0,,,2776.4249999999884,completion,,,,,false,,,,251820.6000000015,251820.5,249034.038,249034.6000000015,249044.075,251821.783,8,400,,,
trial,html.Screen,4_53_0,2023-09-08T18:47:37.010Z,,0,2,,2688.8170000014943,response,ISIC_3060248.JPG,5,ISIC_8588033.JPG,ISIC_8588033.JPG,false,0,keypress(z),500,254510.70000000298,254510.6000000015,251812.756,251820.6000000015,251821.783,254516.995,8,400,4,,ISIC_3060248.JPG
break,html.Screen,4_53_1,2023-09-08T18:47:37.011Z,,0,,,NaN,,,,,,false,,,,254511.20000000298,254511.20000000298,,254510.80000000075,,254516.995,8,400,,,
break_continue,html.Screen,4_53_2,2023-09-08T18:47:37.011Z,,0,,,NaN,,,,,,false,,,,254511.30000000075,254511.30000000075,,254511.20000000298,,254516.995,8,400,,,
sequence,flow.Sequence,4_53,2023-09-08T18:47:37.011Z,,0,,,2689.5170000007492,completion,,,,,false,,,,254511.40000000224,254511.30000000075,251812.756,251820.6000000015,251821.783,254516.995,8,400,,,
trial,html.Screen,4_54_0,2023-09-08T18:47:39.876Z,,0,2,,2859.605000001495,response,ISIC_8502869.JPG,5,ISIC_0081584.JPG,ISIC_0081584.JPG,false,0,keypress(z),500,257376.70000000298,257376.6000000015,254508.012,254511.40000000224,254516.995,257379.146,8,400,5,,ISIC_8502869.JPG
break,html.Screen,4_54_1,2023-09-08T18:47:39.877Z,,0,,,NaN,,,,,,false,,,,257377,257377,,257376.80000000075,,257379.146,8,400,,,
break_continue,html.Screen,4_54_2,2023-09-08T18:47:39.877Z,,0,,,NaN,,,,,,false,,,,257377.20000000298,257377.1000000015,,257377.1000000015,,257379.146,8,400,,,
sequence,flow.Sequence,4_54,2023-09-08T18:47:39.877Z,,0,,,2860.105000001495,completion,,,,,false,,,,257377.30000000075,257377.1000000015,254508.012,254511.40000000224,254516.995,257379.146,8,400,,,
trial,html.Screen,4_55_0,2023-09-08T18:47:43.526Z,,0,2,,3647.154000000737,response,ISIC_0011868.JPG,6,ISIC_0057048.JPG,ISIC_0011868.JPG,false,1,keypress(m),500,261026.40000000224,261026.30000000075,257370.165,257377.30000000075,257379.146,261034.008,8,400,6,,ISIC_0057048.JPG
break,html.Screen,4_55_1,2023-09-08T18:47:43.526Z,,0,,,NaN,,,,,,false,,,,261026.70000000298,261026.70000000298,,261026.40000000224,,261034.008,8,400,,,
break_continue,html.Screen,4_55_2,2023-09-08T18:47:43.527Z,,0,,,NaN,,,,,,false,,,,261026.80000000075,261026.80000000075,,261026.70000000298,,261034.008,8,400,,,
sequence,flow.Sequence,4_55,2023-09-08T18:47:43.527Z,,0,,,3647.654000000737,completion,,,,,false,,,,261026.90000000224,261026.80000000075,257370.165,257377.30000000075,257379.146,261034.008,8,400,,,
trial,html.Screen,4_56_0,2023-09-08T18:47:46.654Z,,0,2,,3120.6920000029786,response,ISIC_0058063.JPG,5,ISIC_0033678.JPG,ISIC_0033678.JPG,false,0,keypress(z),500,264154.80000000075,264154.700000003,261025.022,261027,261034.008,264163.173,8,400,7,,ISIC_0058063.JPG
break,html.Screen,4_56_1,2023-09-08T18:47:46.655Z,,0,,,NaN,,,,,,false,,,,264155.200000003,264155.1000000015,,264154.90000000224,,264163.173,8,400,,,
break_continue,html.Screen,4_56_2,2023-09-08T18:47:46.655Z,,0,,,NaN,,,,,,false,,,,264155.40000000224,264155.30000000075,,264155.30000000075,,264163.173,8,400,,,
sequence,flow.Sequence,4_56,2023-09-08T18:47:46.655Z,,0,,,3121.2920000007434,completion,,,,,false,,,,264155.5,264155.30000000075,261025.022,261026.90000000224,261034.008,264163.173,8,400,,,
trial,html.Screen,4_57_0,2023-09-08T18:47:50.184Z,,0,2,,3520.82699999999,response,ISIC_0014127.JPG,5,ISIC_2192973.JPG,ISIC_0014127.JPG,false,1,keypress(m),500,267684.1000000015,267684,264154.202,264155.5,264163.173,267693.685,8,400,8,,ISIC_2192973.JPG
break,html.Screen,4_57_1,2023-09-08T18:47:50.184Z,,0,,,NaN,,,,,,false,,,,267684.5,267684.40000000224,,267684.30000000075,,267693.685,8,400,,,
break_continue,html.Screen,4_57_2,2023-09-08T18:47:50.184Z,,0,,,NaN,,,,,,false,,,,267684.6000000015,267684.6000000015,,267684.6000000015,,267693.685,8,400,,,
sequence,flow.Sequence,4_57,2023-09-08T18:47:50.184Z,,0,,,3521.4270000014803,completion,,,,,false,,,,267684.700000003,267684.6000000015,264154.202,264155.5,264163.173,267693.685,8,400,,,
trial,html.Screen,4_58_0,2023-09-08T18:47:53.053Z,,0,2,,2859.9150000014924,response,ISIC_0032012.JPG,4,ISIC_1856556.JPG,ISIC_0032012.JPG,false,1,keypress(m),500,270553.700000003,270553.6000000015,267684.123,267684.80000000075,267693.685,270555.054,8,400,9,,ISIC_1856556.JPG
break,html.Screen,4_58_1,2023-09-08T18:47:53.054Z,,0,,,NaN,,,,,,false,,,,270554,270554,,270553.80000000075,,270555.054,8,400,,,
break_continue,html.Screen,4_58_2,2023-09-08T18:47:53.054Z,,0,,,NaN,,,,,,false,,,,270554.200000003,270554.1000000015,,270554.1000000015,,270555.054,8,400,,,
sequence,flow.Sequence,4_58,2023-09-08T18:47:53.054Z,,0,,,2860.4150000014924,completion,,,,,false,,,,270554.30000000075,270554.1000000015,267684.123,267684.80000000075,267693.685,270555.054,8,400,,,
trial,html.Screen,4_59_0,2023-09-08T18:47:56.399Z,,0,2,,3344.4459999999963,response,ISIC_0066012.JPG,5,ISIC_0011490.JPG,ISIC_0011490.JPG,false,0,keypress(z),500,273899.700000003,273899.5,270546.056,270554.30000000075,270555.054,273901.166,8,400,10,,ISIC_0066012.JPG
break,html.Screen,4_59_1,2023-09-08T18:47:56.400Z,,0,,,NaN,,,,,,false,,,,273900.1000000015,273900,,273899.80000000075,,273901.166,8,400,,,
break_continue,html.Screen,4_59_2,2023-09-08T18:47:56.400Z,,0,,,NaN,,,,,,false,,,,273900.200000003,273900.1000000015,,273900.1000000015,,273901.166,8,400,,,
sequence,flow.Sequence,4_59,2023-09-08T18:47:56.400Z,,0,,,3345.0460000014864,completion,,,,,false,,,,273900.30000000075,273900.1000000015,270546.056,270554.30000000075,270555.054,273901.166,8,400,,,
trial,html.Screen,4_60_0,2023-09-08T18:47:59.410Z,,0,2,,3008.7340000022086,response,ISIC_0010358.JPG,6,ISIC_0000146.JPG,ISIC_0000146.JPG,false,0,keypress(z),500,276910,276909.90000000224,273892.166,273900.30000000075,273901.166,276913.492,8,400,11,,ISIC_0010358.JPG
break,html.Screen,4_60_1,2023-09-08T18:47:59.410Z,,0,,,NaN,,,,,,false,,,,276910.30000000075,276910.30000000075,,276910,,276913.492,8,400,,,
break_continue,html.Screen,4_60_2,2023-09-08T18:47:59.410Z,,0,,,NaN,,,,,,false,,,,276910.5,276910.5,,276910.40000000224,,276913.492,8,400,,,
sequence,flow.Sequence,4_60,2023-09-08T18:47:59.410Z,,0,,,3009.3339999999735,completion,,,,,false,,,,276910.5,276910.5,273892.166,273900.30000000075,273901.166,276913.492,8,400,,,
trial,html.Screen,4_61_0,2023-09-08T18:48:02.292Z,,0,2,,2878.9080000022077,response,ISIC_0030435.JPG,5,ISIC_7727830.JPG,ISIC_7727830.JPG,false,0,keypress(z),500,279792.5,279792.40000000224,276904.523,276910.5,276913.492,279800.719,8,400,12,,ISIC_0030435.JPG
break,html.Screen,4_61_1,2023-09-08T18:48:02.293Z,,0,,,NaN,,,,,,false,,,,279792.90000000224,279792.80000000075,,279792.6000000015,,279800.719,8,400,,,
break_continue,html.Screen,4_61_2,2023-09-08T18:48:02.293Z,,0,,,NaN,,,,,,false,,,,279793,279793,,279792.90000000224,,279800.719,8,400,,,
sequence,flow.Sequence,4_61,2023-09-08T18:48:02.293Z,,0,,,2879.5079999999725,completion,,,,,false,,,,279793,279793,276904.523,276910.5,276913.492,279800.719,8,400,,,
trial,html.Screen,4_62_0,2023-09-08T18:48:04.934Z,,0,2,,2633.4810000029975,response,ISIC_0060481.JPG,5,ISIC_4536709.JPG,ISIC_0060481.JPG,false,1,keypress(m),500,282434.40000000224,282434.200000003,279791.697,279793.1000000015,279800.719,282437.558,8,400,13,,ISIC_4536709.JPG
break,html.Screen,4_62_1,2023-09-08T18:48:04.934Z,,0,,,NaN,,,,,,false,,,,282434.80000000075,282434.700000003,,282434.40000000224,,282437.558,8,400,,,
break_continue,html.Screen,4_62_2,2023-09-08T18:48:04.935Z,,0,,,NaN,,,,,,false,,,,282434.90000000224,282434.80000000075,,282434.80000000075,,282437.558,8,400,,,
sequence,flow.Sequence,4_62,2023-09-08T18:48:04.935Z,,0,,,2634.0810000007623,completion,,,,,false,,,,282434.90000000224,282434.80000000075,279791.697,279793.1000000015,279800.719,282437.558,8,400,,,
trial,html.Screen,4_63_0,2023-09-08T18:48:07.592Z,,0,2,,2654.441999999981,response,ISIC_2481044.JPG,5,ISIC_0033954.JPG,ISIC_0033954.JPG,false,0,keypress(z),500,285092,285092,282428.548,282435,282437.558,285099.4,8,400,14,,ISIC_2481044.JPG
break,html.Screen,4_63_1,2023-09-08T18:48:07.592Z,,0,,,NaN,,,,,,false,,,,285092.40000000224,285092.30000000075,,285092.1000000015,,285099.4,8,400,,,
break_continue,html.Screen,4_63_2,2023-09-08T18:48:07.592Z,,0,,,NaN,,,,,,false,,,,285092.5,285092.40000000224,,285092.40000000224,,285099.4,8,400,,,
sequence,flow.Sequence,4_63,2023-09-08T18:48:07.592Z,,0,,,2654.842000002216,completion,,,,,false,,,,285092.5,285092.40000000224,282428.548,282435,282437.558,285099.4,8,400,,,
trial,html.Screen,4_64_0,2023-09-08T18:48:10.588Z,,0,2,,2988.500000002212,response,ISIC_0033562.JPG,5,ISIC_1258763.JPG,ISIC_0033562.JPG,false,1,keypress(m),500,288088,288087.90000000224,285090.399,285092.6000000015,285099.4,288095.062,8,400,15,,ISIC_1258763.JPG
break,html.Screen,4_64_1,2023-09-08T18:48:10.588Z,,0,,,NaN,,,,,,false,,,,288088.40000000224,288088.200000003,,288088,,288095.062,8,400,,,
break_continue,html.Screen,4_64_2,2023-09-08T18:48:10.588Z,,0,,,NaN,,,,,,false,,,,288088.40000000224,288088.40000000224,,288088.40000000224,,288095.062,8,400,,,
sequence,flow.Sequence,4_64,2023-09-08T18:48:10.588Z,,0,,,2989.000000002212,completion,,,,,false,,,,288088.5,288088.40000000224,285090.399,285092.5,285099.4,288095.062,8,400,,,
trial,html.Screen,4_65_0,2023-09-08T18:48:13.553Z,,0,2,,2958.4380000000237,response,ISIC_0010982.JPG,5,ISIC_0004907.JPG,ISIC_0010982.JPG,false,1,keypress(m),500,291053.5,291053.5,288086.066,288088.5,288095.062,291057.332,8,400,16,,ISIC_0004907.JPG
break,html.Screen,4_65_1,2023-09-08T18:48:13.554Z,,0,,,NaN,,,,,,false,,,,291054,291053.90000000224,,291053.700000003,,291057.332,8,400,,,
break_continue,html.Screen,4_65_2,2023-09-08T18:48:13.554Z,,0,,,NaN,,,,,,false,,,,291054.1000000015,291054.1000000015,,291054,,291057.332,8,400,,,
sequence,flow.Sequence,4_65,2023-09-08T18:48:13.554Z,,0,,,2959.038000001514,completion,,,,,false,,,,291054.200000003,291054.1000000015,288086.066,288088.5,288095.062,291057.332,8,400,,,
trial,html.Screen,4_66_0,2023-09-08T18:48:16.964Z,,0,2,,3406.46800000075,response,ISIC_3418245.JPG,5,ISIC_0008114.JPG,ISIC_0008114.JPG,false,0,keypress(z),500,294463.90000000224,294463.80000000075,291048.364,291054.30000000075,291057.332,294470.229,8,400,17,,ISIC_3418245.JPG
break,html.Screen,4_66_1,2023-09-08T18:48:16.964Z,,0,,,NaN,,,,,,false,,,,294464.30000000075,294464.200000003,,294464,,294470.229,8,400,,,
break_continue,html.Screen,4_66_2,2023-09-08T18:48:16.964Z,,0,,,NaN,,,,,,false,,,,294464.40000000224,294464.30000000075,,294464.30000000075,,294470.229,8,400,,,
sequence,flow.Sequence,4_66,2023-09-08T18:48:16.964Z,,0,,,3406.96800000075,completion,,,,,false,,,,294464.40000000224,294464.30000000075,291048.364,291054.200000003,291057.332,294470.229,8,400,,,
trial,html.Screen,4_67_0,2023-09-08T18:48:19.868Z,,0,2,,2898.471000002988,response,ISIC_0027935.JPG,5,ISIC_0009975.JPG,ISIC_0009975.JPG,false,0,keypress(z),500,297368.80000000075,297368.700000003,294461.238,294464.5,294470.229,297374.088,8,400,18,,ISIC_0027935.JPG
break,html.Screen,4_67_1,2023-09-08T18:48:19.869Z,,0,,,NaN,,,,,,false,,,,297369.1000000015,297369.1000000015,,297368.90000000224,,297374.088,8,400,,,
break_continue,html.Screen,4_67_2,2023-09-08T18:48:19.869Z,,0,,,NaN,,,,,,false,,,,297369.30000000075,297369.30000000075,,297369.200000003,,297374.088,8,400,,,
sequence,flow.Sequence,4_67,2023-09-08T18:48:19.869Z,,0,,,2899.071000000753,completion,,,,,false,,,,297369.30000000075,297369.30000000075,294461.238,294464.5,294470.229,297374.088,8,400,,,
trial,html.Screen,4_68_0,2023-09-08T18:48:23.201Z,,0,2,,3326.912000000011,response,ISIC_0059597.JPG,6,ISIC_0065260.JPG,ISIC_0059597.JPG,false,1,keypress(m),500,300701.200000003,300701,297365.117,297369.40000000224,297374.088,300703.561,8,400,19,,ISIC_0065260.JPG
break,html.Screen,4_68_1,2023-09-08T18:48:23.201Z,,0,,,NaN,,,,,,false,,,,300701.5,300701.40000000224,,300701.200000003,,300703.561,8,400,,,
break_continue,html.Screen,4_68_2,2023-09-08T18:48:23.201Z,,0,,,NaN,,,,,,false,,,,300701.700000003,300701.700000003,,300701.6000000015,,300703.561,8,400,,,
sequence,flow.Sequence,4_68,2023-09-08T18:48:23.201Z,,0,,,3327.6120000029914,completion,,,,,false,,,,300701.700000003,300701.700000003,297365.117,297369.40000000224,297374.088,300703.561,8,400,,,
trial,html.Screen,4_69_0,2023-09-08T18:48:25.880Z,,0,2,,2676.6390000029933,response,ISIC_0070679.JPG,6,ISIC_3685448.JPG,ISIC_3685448.JPG,false,0,keypress(z),500,303380.30000000075,303380.200000003,300694.552,300701.80000000075,300703.561,303382.159,8,400,20,,ISIC_0070679.JPG
break,html.Screen,4_69_1,2023-09-08T18:48:25.881Z,,0,,,NaN,,,,,,false,,,,303380.700000003,303380.6000000015,,303380.40000000224,,303382.159,8,400,,,
break_continue,html.Screen,4_69_2,2023-09-08T18:48:25.881Z,,0,,,NaN,,,,,,false,,,,303380.80000000075,303380.80000000075,,303380.700000003,,303382.159,8,400,,,
sequence,flow.Sequence,4_69,2023-09-08T18:48:25.881Z,,0,,,2677.239000000758,completion,,,,,false,,,,303380.90000000224,303380.80000000075,300694.552,300701.80000000075,300703.561,303382.159,8,400,,,
trial,html.Screen,4_70_0,2023-09-08T18:48:29.005Z,,0,2,,3122.541000002995,response,ISIC_0055191.JPG,5,ISIC_2171940.JPG,ISIC_0055191.JPG,false,1,keypress(m),500,306504.90000000224,306504.700000003,303373.118,303380.90000000224,303382.159,306511.268,8,400,21,,ISIC_2171940.JPG
break,html.Screen,4_70_1,2023-09-08T18:48:29.005Z,,0,,,NaN,,,,,,false,,,,306505.200000003,306505.1000000015,,306504.90000000224,,306511.268,8,400,,,
break_continue,html.Screen,4_70_2,2023-09-08T18:48:29.005Z,,0,,,NaN,,,,,,false,,,,306505.40000000224,306505.30000000075,,306505.200000003,,306511.268,8,400,,,
sequence,flow.Sequence,4_70,2023-09-08T18:48:29.005Z,,0,,,3123.14100000076,completion,,,,,false,,,,306505.40000000224,306505.30000000075,303373.118,303380.90000000224,303382.159,306511.268,8,400,,,
trial,html.Screen,4_71_0,2023-09-08T18:48:32.047Z,,0,2,,3035.6320000022533,response,ISIC_5797404.JPG,5,ISIC_8174951.JPG,ISIC_5797404.JPG,false,1,keypress(m),500,309547,309546.90000000224,306502.291,306505.40000000224,306511.268,309548.65,8,400,22,,ISIC_8174951.JPG
break,html.Screen,4_71_1,2023-09-08T18:48:32.047Z,,0,,,NaN,,,,,,false,,,,309547.30000000075,309547.200000003,,309547.1000000015,,309548.65,8,400,,,
break_continue,html.Screen,4_71_2,2023-09-08T18:48:32.047Z,,0,,,NaN,,,,,,false,,,,309547.5,309547.5,,309547.40000000224,,309548.65,8,400,,,
sequence,flow.Sequence,4_71,2023-09-08T18:48:32.047Z,,0,,,3036.232000000018,completion,,,,,false,,,,309547.5,309547.5,306502.291,306505.40000000224,306511.268,309548.65,8,400,,,
trial,html.Screen,4_72_0,2023-09-08T18:48:38.193Z,,0,2,,6144.550000002957,response,ISIC_0069488.JPG,5,ISIC_0024275.JPG,ISIC_0069488.JPG,false,1,keypress(m),500,315693.30000000075,315693.200000003,309539.666,309547.6000000015,309548.65,315698.514,8,400,23,,ISIC_0024275.JPG
break,html.Screen,4_72_1,2023-09-08T18:48:38.194Z,,0,,,NaN,,,,,,false,,,,315693.700000003,315693.700000003,,315693.40000000224,,315698.514,8,400,,,
break_continue,html.Screen,4_72_2,2023-09-08T18:48:38.194Z,,0,,,NaN,,,,,,false,,,,315693.90000000224,315693.80000000075,,315693.700000003,,315698.514,8,400,,,
sequence,flow.Sequence,4_72,2023-09-08T18:48:38.194Z,,0,,,6145.150000000722,completion,,,,,false,,,,315693.90000000224,315693.80000000075,309539.666,309547.5,309548.65,315698.514,8,400,,,
trial,html.Screen,4_73_0,2023-09-08T18:48:41.605Z,,0,2,,3406.4859999999753,response,ISIC_0012840.JPG,5,ISIC_3573969.JPG,ISIC_3573969.JPG,false,0,keypress(z),500,319105.200000003,319105,315689.53,315693.90000000224,315698.514,319111.373,8,400,24,,ISIC_0012840.JPG
break,html.Screen,4_73_1,2023-09-08T18:48:41.605Z,,0,,,NaN,,,,,,false,,,,319105.6000000015,319105.5,,319105.30000000075,,319111.373,8,400,,,
break_continue,html.Screen,4_73_2,2023-09-08T18:48:41.606Z,,0,,,NaN,,,,,,false,,,,319105.700000003,319105.6000000015,,319105.6000000015,,319111.373,8,400,,,
sequence,flow.Sequence,4_73,2023-09-08T18:48:41.606Z,,0,,,3407.0860000014654,completion,,,,,false,,,,319105.700000003,319105.6000000015,315689.53,315693.90000000224,315698.514,319111.373,8,400,,,
trial,html.Screen,4_74_0,2023-09-08T18:48:45.051Z,,0,2,,3439.4270000007236,response,ISIC_9050826.JPG,4,ISIC_0028018.JPG,ISIC_9050826.JPG,false,1,keypress(m),500,322550.90000000224,322550.80000000075,319102.371,319105.80000000075,319111.373,322557.631,8,400,25,,ISIC_0028018.JPG
break,html.Screen,4_74_1,2023-09-08T18:48:45.051Z,,0,,,NaN,,,,,,false,,,,322551.200000003,322551.1000000015,,322550.90000000224,,322557.631,8,400,,,
break_continue,html.Screen,4_74_2,2023-09-08T18:48:45.051Z,,0,,,NaN,,,,,,false,,,,322551.40000000224,322551.30000000075,,322551.200000003,,322557.631,8,400,,,
sequence,flow.Sequence,4_74,2023-09-08T18:48:45.051Z,,0,,,3439.9270000007236,completion,,,,,false,,,,322551.40000000224,322551.30000000075,319102.371,319105.80000000075,319111.373,322557.631,8,400,,,
trial,html.Screen,4_75_0,2023-09-08T18:48:48.769Z,,0,2,,3711.469000001496,response,ISIC_0000414.JPG,6,ISIC_0069193.JPG,ISIC_0069193.JPG,false,0,keypress(z),500,326269.200000003,326269.1000000015,322548.645,322551.5,322557.631,326270.92,8,400,26,,ISIC_0000414.JPG
break,html.Screen,4_75_1,2023-09-08T18:48:48.769Z,,0,,,NaN,,,,,,false,,,,326269.5,326269.5,,326269.200000003,,326270.92,8,400,,,
break_continue,html.Screen,4_75_2,2023-09-08T18:48:48.770Z,,0,,,NaN,,,,,,false,,,,326269.700000003,326269.700000003,,326269.6000000015,,326270.92,8,400,,,
sequence,flow.Sequence,4_75,2023-09-08T18:48:48.770Z,,0,,,3712.0690000029863,completion,,,,,false,,,,326269.80000000075,326269.700000003,322548.645,322551.5,322557.631,326270.92,8,400,,,
trial,html.Screen,4_76_0,2023-09-08T18:48:51.843Z,,0,2,,3072.0800000000163,response,ISIC_3181358.JPG,5,ISIC_0033341.JPG,ISIC_3181358.JPG,false,1,keypress(m),500,329343.1000000015,329343,326261.958,326269.80000000075,326270.92,329350.019,8,400,27,,ISIC_0033341.JPG
break,html.Screen,4_76_1,2023-09-08T18:48:51.843Z,,0,,,NaN,,,,,,false,,,,329343.40000000224,329343.40000000224,,329343.1000000015,,329350.019,8,400,,,
break_continue,html.Screen,4_76_2,2023-09-08T18:48:51.843Z,,0,,,NaN,,,,,,false,,,,329343.6000000015,329343.6000000015,,329343.5,,329350.019,8,400,,,
sequence,flow.Sequence,4_76,2023-09-08T18:48:51.844Z,,0,,,3072.6800000015064,completion,,,,,false,,,,329343.700000003,329343.6000000015,326261.958,326269.80000000075,326270.92,329350.019,8,400,,,
trial,html.Screen,4_77_0,2023-09-08T18:48:55.492Z,,0,2,,3642.281000000774,response,ISIC_7017547.JPG,5,ISIC_0056572.JPG,ISIC_0056572.JPG,false,0,keypress(z),500,332992.40000000224,332992.30000000075,329341.401,329343.700000003,329350.019,332996.544,8,400,28,,ISIC_7017547.JPG
break,html.Screen,4_77_1,2023-09-08T18:48:55.493Z,,0,,,NaN,,,,,,false,,,,332992.700000003,332992.700000003,,332992.5,,332996.544,8,400,,,
break_continue,html.Screen,4_77_2,2023-09-08T18:48:55.493Z,,0,,,NaN,,,,,,false,,,,332992.90000000224,332992.90000000224,,332992.80000000075,,332996.544,8,400,,,
sequence,flow.Sequence,4_77,2023-09-08T18:48:55.493Z,,0,,,3642.881000002264,completion,,,,,false,,,,332992.90000000224,332992.90000000224,329341.401,329343.700000003,329350.019,332996.544,8,400,,,
trial,html.Screen,4_78_0,2023-09-08T18:48:58.094Z,,0,2,,2597.656000002986,response,ISIC_8397077.JPG,5,ISIC_0057313.JPG,ISIC_8397077.JPG,false,1,keypress(m),500,335594.30000000075,335594.200000003,332987.639,332992.90000000224,332996.544,335600.012,8,400,29,,ISIC_0057313.JPG
break,html.Screen,4_78_1,2023-09-08T18:48:58.095Z,,0,,,NaN,,,,,,false,,,,335594.700000003,335594.6000000015,,335594.40000000224,,335600.012,8,400,,,
break_continue,html.Screen,4_78_2,2023-09-08T18:48:58.095Z,,0,,,NaN,,,,,,false,,,,335594.90000000224,335594.80000000075,,335594.700000003,,335600.012,8,400,,,
sequence,flow.Sequence,4_78,2023-09-08T18:48:58.095Z,,0,,,2598.2560000007506,completion,,,,,false,,,,335595,335594.80000000075,332987.639,332992.90000000224,332996.544,335600.012,8,400,,,
trial,html.Screen,4_79_0,2023-09-08T18:49:02.167Z,,0,2,,4067.288000000757,response,ISIC_7936755.JPG,6,ISIC_0010597.JPG,ISIC_7936755.JPG,false,1,keypress(m),500,339667.40000000224,339667.30000000075,335591.022,335595,335600.012,339672.138,8,400,30,,ISIC_0010597.JPG
break,html.Screen,4_79_1,2023-09-08T18:49:02.168Z,,0,,,NaN,,,,,,false,,,,339667.80000000075,339667.700000003,,339667.40000000224,,339672.138,8,400,,,
break_continue,html.Screen,4_79_2,2023-09-08T18:49:02.168Z,,0,,,NaN,,,,,,false,,,,339667.90000000224,339667.80000000075,,339667.80000000075,,339672.138,8,400,,,
sequence,flow.Sequence,4_79,2023-09-08T18:49:02.168Z,,0,,,4067.788000000757,completion,,,,,false,,,,339668,339667.80000000075,335591.022,335595,335600.012,339672.138,8,400,,,
trial,html.Screen,4_80_0,2023-09-08T18:49:05.488Z,,0,2,,3315.562000003003,response,ISIC_0026329.JPG,5,ISIC_0008393.JPG,ISIC_0026329.JPG,false,1,keypress(m),500,342987.90000000224,342987.700000003,339663.36,339668,339672.138,343001.569,8,400,31,,ISIC_0008393.JPG
break,html.Screen,4_80_1,2023-09-08T18:49:05.488Z,,0,,,NaN,,,,,,false,,,,342988.200000003,342988.200000003,,342987.90000000224,,343001.569,8,400,,,
break_continue,html.Screen,4_80_2,2023-09-08T18:49:05.488Z,,0,,,NaN,,,,,,false,,,,342988.30000000075,342988.30000000075,,342988.200000003,,343001.569,8,400,,,
sequence,flow.Sequence,4_80,2023-09-08T18:49:05.488Z,,0,,,3316.162000000768,completion,,,,,false,,,,342988.40000000224,342988.30000000075,339663.36,339668,339672.138,343001.569,8,400,,,
trial,html.Screen,4_81_0,2023-09-08T18:49:09.554Z,,0,2,,4052.4309999999823,response,ISIC_0028751.JPG,4,ISIC_0032600.JPG,ISIC_0028751.JPG,false,1,keypress(m),500,347054.200000003,347054,342993.23,342988.5,343001.569,347056.95,8,400,32,,ISIC_0032600.JPG
break,html.Screen,4_81_1,2023-09-08T18:49:09.554Z,,0,,,NaN,,,,,,false,,,,347054.6000000015,347054.5,,347054.30000000075,,347056.95,8,400,,,
break_continue,html.Screen,4_81_2,2023-09-08T18:49:09.555Z,,0,,,NaN,,,,,,false,,,,347054.700000003,347054.6000000015,,347054.6000000015,,347056.95,8,400,,,
sequence,flow.Sequence,4_81,2023-09-08T18:49:09.555Z,,0,,,4053.0310000014724,completion,,,,,false,,,,347054.700000003,347054.6000000015,342993.23,342988.5,343001.569,347056.95,8,400,,,
trial,html.Screen,4_82_0,2023-09-08T18:49:13.530Z,,0,2,,3973.3500000007334,response,ISIC_1453671.JPG,5,ISIC_0032610.JPG,ISIC_0032610.JPG,false,0,keypress(z),500,351030.40000000224,351030.30000000075,347047.971,347054.80000000075,347056.95,351037.257,8,400,33,,ISIC_1453671.JPG
break,html.Screen,4_82_1,2023-09-08T18:49:13.531Z,,0,,,NaN,,,,,,false,,,,351030.80000000075,351030.80000000075,,351030.5,,351037.257,8,400,,,
break_continue,html.Screen,4_82_2,2023-09-08T18:49:13.531Z,,0,,,NaN,,,,,,false,,,,351030.90000000224,351030.90000000224,,351030.80000000075,,351037.257,8,400,,,
sequence,flow.Sequence,4_82,2023-09-08T18:49:13.531Z,,0,,,3973.9500000022235,completion,,,,,false,,,,351031,351030.90000000224,347047.971,347054.80000000075,347056.95,351037.257,8,400,,,
trial,html.Screen,4_83_0,2023-09-08T18:49:17.085Z,,0,2,,3547.343000001507,response,ISIC_0003046.JPG,5,ISIC_2287151.JPG,ISIC_2287151.JPG,false,0,keypress(z),500,354584.700000003,354584.6000000015,351028.249,351031,351037.257,354591.98,8,400,34,,ISIC_0003046.JPG
break,html.Screen,4_83_1,2023-09-08T18:49:17.085Z,,0,,,NaN,,,,,,false,,,,354585,354585,,354584.700000003,,354591.98,8,400,,,
break_continue,html.Screen,4_83_2,2023-09-08T18:49:17.085Z,,0,,,NaN,,,,,,false,,,,354585.1000000015,354585.1000000015,,354585.1000000015,,354591.98,8,400,,,
sequence,flow.Sequence,4_83,2023-09-08T18:49:17.085Z,,0,,,3547.843000001507,completion,,,,,false,,,,354585.200000003,354585.1000000015,351028.249,351031,351037.257,354591.98,8,400,,,
trial,html.Screen,4_84_0,2023-09-08T18:49:20.350Z,,0,2,,3258.1200000015087,response,ISIC_6960446.JPG,5,ISIC_6806124.JPG,ISIC_6960446.JPG,false,1,keypress(m),500,357850.200000003,357850.1000000015,354583.015,354585.200000003,354591.98,357854.653,8,400,35,,ISIC_6806124.JPG
break,html.Screen,4_84_1,2023-09-08T18:49:20.350Z,,0,,,NaN,,,,,,false,,,,357850.6000000015,357850.6000000015,,357850.40000000224,,357854.653,8,400,,,
break_continue,html.Screen,4_84_2,2023-09-08T18:49:20.351Z,,0,,,NaN,,,,,,false,,,,357850.80000000075,357850.80000000075,,357850.700000003,,357854.653,8,400,,,
sequence,flow.Sequence,4_84,2023-09-08T18:49:20.351Z,,0,,,3258.8200000007637,completion,,,,,false,,,,357850.90000000224,357850.80000000075,354583.015,354585.200000003,354591.98,357854.653,8,400,,,
trial,html.Screen,4_85_0,2023-09-08T18:49:23.584Z,,0,2,,3229.447000001499,response,ISIC_9699426.JPG,6,ISIC_5323725.JPG,ISIC_5323725.JPG,false,0,keypress(z),500,361084.30000000075,361084.1000000015,357845.701,357850.90000000224,357854.653,361092.345,8,400,36,,ISIC_9699426.JPG
break,html.Screen,4_85_1,2023-09-08T18:49:23.585Z,,0,,,NaN,,,,,,false,,,,361084.80000000075,361084.6000000015,,361084.5,,361092.345,8,400,,,
break_continue,html.Screen,4_85_2,2023-09-08T18:49:23.585Z,,0,,,NaN,,,,,,false,,,,361084.90000000224,361084.90000000224,,361084.90000000224,,361092.345,8,400,,,
sequence,flow.Sequence,4_85,2023-09-08T18:49:23.585Z,,0,,,3230.247000002244,completion,,,,,false,,,,361085,361084.90000000224,357845.701,357850.90000000224,357854.653,361092.345,8,400,,,
trial,html.Screen,4_86_0,2023-09-08T18:49:26.819Z,,0,2,,3225.855000003008,response,ISIC_0033061.JPG,5,ISIC_0591226.JPG,ISIC_0033061.JPG,false,1,keypress(m),500,364318.40000000224,364318.200000003,361083.929,361085,361092.345,364321.599,8,400,37,,ISIC_0591226.JPG
break,html.Screen,4_86_1,2023-09-08T18:49:26.819Z,,0,,,NaN,,,,,,false,,,,364318.80000000075,364318.700000003,,364318.40000000224,,364321.599,8,400,,,
break_continue,html.Screen,4_86_2,2023-09-08T18:49:26.819Z,,0,,,NaN,,,,,,false,,,,364319,364318.90000000224,,364318.80000000075,,364321.599,8,400,,,
sequence,flow.Sequence,4_86,2023-09-08T18:49:26.819Z,,0,,,3226.555000002263,completion,,,,,false,,,,364319,364318.90000000224,361083.929,361085,361092.345,364321.599,8,400,,,
trial,html.Screen,4_87_0,2023-09-08T18:49:32.583Z,,0,2,,5761.401000000013,response,ISIC_9407667.JPG,5,ISIC_0011704.JPG,ISIC_0011704.JPG,false,0,keypress(z),500,370083.200000003,370083,364312.651,364319.1000000015,364321.599,370087.627,8,400,38,,ISIC_9407667.JPG
break,html.Screen,4_87_1,2023-09-08T18:49:32.584Z,,0,,,NaN,,,,,,false,,,,370083.5,370083.5,,370083.200000003,,370087.627,8,400,,,
break_continue,html.Screen,4_87_2,2023-09-08T18:49:32.584Z,,0,,,NaN,,,,,,false,,,,370083.700000003,370083.700000003,,370083.6000000015,,370087.627,8,400,,,
sequence,flow.Sequence,4_87,2023-09-08T18:49:32.584Z,,0,,,5762.101000002993,completion,,,,,false,,,,370083.80000000075,370083.700000003,364312.651,364319.1000000015,364321.599,370087.627,8,400,,,
trial,html.Screen,4_88_0,2023-09-08T18:49:37.500Z,,0,2,,4911.573000003002,response,ISIC_5204796.JPG,5,ISIC_0032726.JPG,ISIC_5204796.JPG,false,1,keypress(m),500,374999.40000000224,374999.200000003,370078.631,370083.80000000075,370087.627,375002.505,8,400,39,,ISIC_0032726.JPG
break,html.Screen,4_88_1,2023-09-08T18:49:37.500Z,,0,,,NaN,,,,,,false,,,,374999.80000000075,374999.700000003,,374999.40000000224,,375002.505,8,400,,,
break_continue,html.Screen,4_88_2,2023-09-08T18:49:37.500Z,,0,,,NaN,,,,,,false,,,,374999.90000000224,374999.90000000224,,374999.80000000075,,375002.505,8,400,,,
sequence,flow.Sequence,4_88,2023-09-08T18:49:37.500Z,,0,,,4912.273000002257,completion,,,,,false,,,,374999.90000000224,374999.90000000224,370078.631,370083.80000000075,370087.627,375002.505,8,400,,,
trial,html.Screen,4_89_0,2023-09-08T18:49:41.086Z,,0,2,,3582.8950000022305,response,ISIC_0033154.JPG,5,ISIC_8603734.JPG,ISIC_0033154.JPG,false,1,keypress(m),500,378585.5,378585.40000000224,374993.528,375000.1000000015,375002.505,378590.614,8,400,40,,ISIC_8603734.JPG
break,html.Screen,4_89_1,2023-09-08T18:49:41.086Z,,0,,,NaN,,,,,,false,,,,378585.90000000224,378585.80000000075,,378585.6000000015,,378590.614,8,400,,,
break_continue,html.Screen,4_89_2,2023-09-08T18:49:41.086Z,,0,,,NaN,,,,,,false,,,,378586.1000000015,378586,,378585.90000000224,,378590.614,8,400,,,
sequence,flow.Sequence,4_89,2023-09-08T18:49:41.086Z,,0,,,3583.4949999999953,completion,,,,,false,,,,378586.1000000015,378586,374993.528,375000,375002.505,378590.614,8,400,,,
trial,html.Screen,4_90_0,2023-09-08T18:49:45.312Z,,0,2,,4221.286000002234,response,ISIC_0021901.JPG,6,ISIC_0034048.JPG,ISIC_0021901.JPG,false,1,keypress(m),500,382812,382811.90000000224,378581.641,378586.1000000015,378590.614,382822.667,8,400,41,,ISIC_0034048.JPG
break,html.Screen,4_90_1,2023-09-08T18:49:45.313Z,,0,,,NaN,,,,,,false,,,,382812.5,382812.40000000224,,382812.200000003,,382822.667,8,400,,,
break_continue,html.Screen,4_90_2,2023-09-08T18:49:45.313Z,,0,,,NaN,,,,,,false,,,,382812.6000000015,382812.6000000015,,382812.5,,382822.667,8,400,,,
sequence,flow.Sequence,4_90,2023-09-08T18:49:45.313Z,,0,,,4221.986000001489,completion,,,,,false,,,,382812.700000003,382812.6000000015,378581.641,378586.1000000015,378590.614,382822.667,8,400,,,
trial,html.Screen,4_91_0,2023-09-08T18:49:48.850Z,,0,2,,3527.0330000029644,response,ISIC_2841488.JPG,5,ISIC_0026910.JPG,ISIC_0026910.JPG,false,0,keypress(z),500,386349.80000000075,386349.700000003,382812.282,382812.700000003,382822.667,386360.339,8,400,42,,ISIC_2841488.JPG
break,html.Screen,4_91_1,2023-09-08T18:49:48.850Z,,0,,,NaN,,,,,,false,,,,386350.200000003,386350.1000000015,,386349.90000000224,,386360.339,8,400,,,
break_continue,html.Screen,4_91_2,2023-09-08T18:49:48.851Z,,0,,,NaN,,,,,,false,,,,386350.30000000075,386350.30000000075,,386350.200000003,,386360.339,8,400,,,
sequence,flow.Sequence,4_91,2023-09-08T18:49:48.851Z,,0,,,3527.633000000729,completion,,,,,false,,,,386350.30000000075,386350.30000000075,382812.282,382812.700000003,382822.667,386360.339,8,400,,,
trial,html.Screen,4_92_0,2023-09-08T18:49:52.167Z,,0,2,,3306.561000002257,response,ISIC_6000407.JPG,5,ISIC_3651451.JPG,ISIC_3651451.JPG,false,0,keypress(z),500,389667,389666.90000000224,386341.96,386350.40000000224,386360.339,389672.053,8,400,43,,ISIC_6000407.JPG
break,html.Screen,4_92_1,2023-09-08T18:49:52.168Z,,0,,,NaN,,,,,,false,,,,389667.40000000224,389667.40000000224,,389667.1000000015,,389672.053,8,400,,,
break_continue,html.Screen,4_92_2,2023-09-08T18:49:52.168Z,,0,,,NaN,,,,,,false,,,,389667.6000000015,389667.6000000015,,389667.5,,389672.053,8,400,,,
sequence,flow.Sequence,4_92,2023-09-08T18:49:52.168Z,,0,,,3307.261000001512,completion,,,,,false,,,,389667.6000000015,389667.6000000015,386341.96,386350.40000000224,386360.339,389672.053,8,400,,,
trial,html.Screen,4_93_0,2023-09-08T18:49:55.209Z,,0,2,,3036.7470000007306,response,ISIC_0034236.JPG,4,ISIC_0031611.JPG,ISIC_0034236.JPG,false,1,keypress(m),500,392709,392708.80000000075,389663.084,389667.700000003,389672.053,392717.797,8,400,44,,ISIC_0031611.JPG
break,html.Screen,4_93_1,2023-09-08T18:49:55.209Z,,0,,,NaN,,,,,,false,,,,392709.30000000075,392709.200000003,,392709,,392717.797,8,400,,,
break_continue,html.Screen,4_93_2,2023-09-08T18:49:55.210Z,,0,,,NaN,,,,,,false,,,,392709.5,392709.40000000224,,392709.30000000075,,392717.797,8,400,,,
sequence,flow.Sequence,4_93,2023-09-08T18:49:55.210Z,,0,,,3037.3470000022207,completion,,,,,false,,,,392709.5,392709.40000000224,389663.084,389667.700000003,389672.053,392717.797,8,400,,,
trial,html.Screen,4_94_0,2023-09-08T18:49:58.368Z,,0,2,,3149.9030000029597,response,ISIC_9685480.JPG,5,ISIC_0074311.JPG,ISIC_9685480.JPG,false,1,keypress(m),500,395867.80000000075,395867.700000003,392709.464,392709.6000000015,392717.797,395871.976,8,400,45,,ISIC_0074311.JPG
break,html.Screen,4_94_1,2023-09-08T18:49:58.368Z,,0,,,NaN,,,,,,false,,,,395868.30000000075,395868.1000000015,,395867.90000000224,,395871.976,8,400,,,
break_continue,html.Screen,4_94_2,2023-09-08T18:49:58.369Z,,0,,,NaN,,,,,,false,,,,395868.40000000224,395868.40000000224,,395868.30000000075,,395871.976,8,400,,,
sequence,flow.Sequence,4_94,2023-09-08T18:49:58.369Z,,0,,,3150.6030000022147,completion,,,,,false,,,,395868.40000000224,395868.40000000224,392709.464,392709.6000000015,392717.797,395871.976,8,400,,,
trial,html.Screen,4_95_0,2023-09-08T18:50:01.973Z,,0,2,,3601.023999999976,response,ISIC_1805921.JPG,5,ISIC_0055404.JPG,ISIC_0055404.JPG,false,0,keypress(z),500,399473.1000000015,399473,395863.013,395868.40000000224,395871.976,399476.772,8,400,46,,ISIC_1805921.JPG
break,html.Screen,4_95_1,2023-09-08T18:50:01.974Z,,0,,,NaN,,,,,,false,,,,399473.5,399473.40000000224,,399473.200000003,,399476.772,8,400,,,
break_continue,html.Screen,4_95_2,2023-09-08T18:50:01.974Z,,0,,,NaN,,,,,,false,,,,399473.6000000015,399473.6000000015,,399473.5,,399476.772,8,400,,,
sequence,flow.Sequence,4_95,2023-09-08T18:50:01.974Z,,0,,,3601.624000001466,completion,,,,,false,,,,399473.700000003,399473.6000000015,395863.013,395868.40000000224,395871.976,399476.772,8,400,,,
trial,html.Screen,4_96_0,2023-09-08T18:50:05.112Z,,0,2,,3134.928000002983,response,ISIC_1919324.JPG,4,ISIC_0025184.JPG,ISIC_0025184.JPG,false,0,keypress(z),500,402611.80000000075,402611.700000003,399467.814,399474.1000000015,399476.772,402622.663,8,400,47,,ISIC_1919324.JPG
break,html.Screen,4_96_1,2023-09-08T18:50:05.112Z,,0,,,NaN,,,,,,false,,,,402612.200000003,402612.1000000015,,402611.90000000224,,402622.663,8,400,,,
break_continue,html.Screen,4_96_2,2023-09-08T18:50:05.113Z,,0,,,NaN,,,,,,false,,,,402612.30000000075,402612.30000000075,,402612.200000003,,402622.663,8,400,,,
sequence,flow.Sequence,4_96,2023-09-08T18:50:05.113Z,,0,,,3135.528000000748,completion,,,,,false,,,,402612.40000000224,402612.30000000075,399467.814,399473.700000003,399476.772,402622.663,8,400,,,
trial,html.Screen,4_97_0,2023-09-08T18:50:08.268Z,,0,2,,3145.0370000029798,response,ISIC_5552381.JPG,5,ISIC_0055474.JPG,ISIC_5552381.JPG,false,1,keypress(m),500,405767.80000000075,405767.700000003,402614.339,402612.40000000224,402622.663,405776.835,8,400,48,,ISIC_0055474.JPG
break,html.Screen,4_97_1,2023-09-08T18:50:08.268Z,,0,,,NaN,,,,,,false,,,,405768.1000000015,405768,,405767.80000000075,,405776.835,8,400,,,
break_continue,html.Screen,4_97_2,2023-09-08T18:50:08.268Z,,0,,,NaN,,,,,,false,,,,405768.200000003,405768.200000003,,405768.1000000015,,405776.835,8,400,,,
sequence,flow.Sequence,4_97,2023-09-08T18:50:08.268Z,,0,,,3145.5370000029798,completion,,,,,false,,,,405768.200000003,405768.200000003,402614.339,402612.40000000224,402622.663,405776.835,8,400,,,
trial,html.Screen,4_98_0,2023-09-08T18:50:11.823Z,,0,2,,3546.3650000029593,response,ISIC_0024586.JPG,4,ISIC_0056915.JPG,ISIC_0056915.JPG,false,0,keypress(z),500,409323.200000003,409323.200000003,405768.513,405768.30000000075,405776.835,409331.615,8,400,49,,ISIC_0024586.JPG
break,html.Screen,4_98_1,2023-09-08T18:50:11.824Z,,0,,,NaN,,,,,,false,,,,409323.6000000015,409323.6000000015,,409323.40000000224,,409331.615,8,400,,,
break_continue,html.Screen,4_98_2,2023-09-08T18:50:11.824Z,,0,,,NaN,,,,,,false,,,,409323.80000000075,409323.80000000075,,409323.6000000015,,409331.615,8,400,,,
sequence,flow.Sequence,4_98,2023-09-08T18:50:11.824Z,,0,,,3546.965000000724,completion,,,,,false,,,,409323.80000000075,409323.80000000075,405768.513,405768.30000000075,405776.835,409331.615,8,400,,,
trial,html.Screen,4_99_0,2023-09-08T18:50:14.935Z,,0,2,,3103.0850000029895,response,ISIC_0028352.JPG,5,ISIC_3791309.JPG,ISIC_0028352.JPG,false,1,keypress(m),500,412434.80000000075,412434.700000003,409323.265,409323.80000000075,409331.615,412445.274,8,400,50,,ISIC_3791309.JPG
break,html.Screen,4_99_1,2023-09-08T18:50:24.941Z,,0,,,10003.819000000018,timeout,,,,,false,,,,422441,422440.744,412426.775,412434.80000000075,412445.274,422449.093,8,400,,,
break_continue,html.Screen,4_99_2,2023-09-08T18:50:30.955Z,,0,,,5999.607000002987,response,,,,,false,continue,keypress(Space),,428454.90000000224,428448.700000003,422440.744,422441.1000000015,422449.093,428457.083,8,400,,,
sequence,flow.Sequence,4_99,2023-09-08T18:50:30.955Z,,0,,,19117.08500000299,completion,,,,,false,,,,428455,428448.700000003,409323.265,409323.80000000075,409331.615,428457.083,8,400,,,
trial,html.Screen,4_100_0,2023-09-08T18:50:34.797Z,,0,3,,3839.717000000761,response,ISIC_0031550.JPG,5,ISIC_0012904.JPG,ISIC_0012904.JPG,false,0,keypress(z),500,432296.90000000224,432296.80000000075,428449.452,428455,428457.083,432303.853,8,400,1,,ISIC_0031550.JPG
break,html.Screen,4_100_1,2023-09-08T18:50:34.797Z,,0,,,NaN,,,,,,false,,,,432297.30000000075,432297.200000003,,432297,,432303.853,8,400,,,
break_continue,html.Screen,4_100_2,2023-09-08T18:50:34.797Z,,0,,,NaN,,,,,,false,,,,432297.40000000224,432297.40000000224,,432297.30000000075,,432303.853,8,400,,,
sequence,flow.Sequence,4_100,2023-09-08T18:50:34.797Z,,0,,,3840.317000002251,completion,,,,,false,,,,432297.40000000224,432297.40000000224,428449.452,428455,428457.083,432303.853,8,400,,,
trial,html.Screen,4_101_0,2023-09-08T18:50:38.031Z,,0,3,,3227.5470000022324,response,ISIC_1870309.JPG,4,ISIC_0032504.JPG,ISIC_0032504.JPG,false,0,keypress(z),500,435531.5,435531.40000000224,432294.865,432297.40000000224,432303.853,435533.175,8,400,2,,ISIC_1870309.JPG
break,html.Screen,4_101_1,2023-09-08T18:50:38.032Z,,0,,,NaN,,,,,,false,,,,435532,435531.80000000075,,435531.6000000015,,435533.175,8,400,,,
break_continue,html.Screen,4_101_2,2023-09-08T18:50:38.032Z,,0,,,NaN,,,,,,false,,,,435532.1000000015,435532.1000000015,,435532,,435533.175,8,400,,,
sequence,flow.Sequence,4_101,2023-09-08T18:50:38.032Z,,0,,,3228.2470000014873,completion,,,,,false,,,,435532.1000000015,435532.1000000015,432294.865,432297.40000000224,432303.853,435533.175,8,400,,,
trial,html.Screen,4_102_0,2023-09-08T18:50:40.933Z,,0,3,,2899.8250000000116,response,ISIC_0055393.JPG,5,ISIC_8680266.JPG,ISIC_0055393.JPG,false,1,keypress(m),500,438433,438433,435524.168,435532.200000003,435533.175,438437.036,8,400,3,,ISIC_8680266.JPG
break,html.Screen,4_102_1,2023-09-08T18:50:40.933Z,,0,,,NaN,,,,,,false,,,,438433.5,438433.40000000224,,438433.1000000015,,438437.036,8,400,,,
break_continue,html.Screen,4_102_2,2023-09-08T18:50:40.934Z,,0,,,NaN,,,,,,false,,,,438433.6000000015,438433.6000000015,,438433.6000000015,,438437.036,8,400,,,
sequence,flow.Sequence,4_102,2023-09-08T18:50:40.934Z,,0,,,2900.4250000015018,completion,,,,,false,,,,438433.700000003,438433.6000000015,435524.168,435532.200000003,435533.175,438437.036,8,400,,,
trial,html.Screen,4_103_0,2023-09-08T18:50:43.750Z,,0,3,,2813.463999999978,response,ISIC_4034244.JPG,4,ISIC_8128335.JPG,ISIC_4034244.JPG,false,1,keypress(m),500,441250.6000000015,441250.5,438428.081,438433.700000003,438437.036,441257.451,8,400,4,,ISIC_8128335.JPG
break,html.Screen,4_103_1,2023-09-08T18:50:43.751Z,,0,,,NaN,,,,,,false,,,,441251,441250.80000000075,,441250.6000000015,,441257.451,8,400,,,
break_continue,html.Screen,4_103_2,2023-09-08T18:50:43.751Z,,0,,,NaN,,,,,,false,,,,441251.1000000015,441251,,441251,,441257.451,8,400,,,
sequence,flow.Sequence,4_103,2023-09-08T18:50:43.751Z,,0,,,2813.963999999978,completion,,,,,false,,,,441251.200000003,441251,438428.081,438433.700000003,438437.036,441257.451,8,400,,,
trial,html.Screen,4_104_0,2023-09-08T18:50:47.593Z,,0,3,,3835.149000001489,response,ISIC_0032033.JPG,5,ISIC_0292775.JPG,ISIC_0032033.JPG,false,1,keypress(m),500,445092.700000003,445092.6000000015,441248.484,441251.200000003,441257.451,445095.897,8,400,5,,ISIC_0292775.JPG
break,html.Screen,4_104_1,2023-09-08T18:50:47.593Z,,0,,,NaN,,,,,,false,,,,445093.1000000015,445093.1000000015,,445092.80000000075,,445095.897,8,400,,,
break_continue,html.Screen,4_104_2,2023-09-08T18:50:47.593Z,,0,,,NaN,,,,,,false,,,,445093.30000000075,445093.200000003,,445093.200000003,,445095.897,8,400,,,
sequence,flow.Sequence,4_104,2023-09-08T18:50:47.593Z,,0,,,3835.7490000029793,completion,,,,,false,,,,445093.30000000075,445093.200000003,441248.484,441251.200000003,441257.451,445095.897,8,400,,,
trial,html.Screen,4_105_0,2023-09-08T18:50:51.153Z,,0,3,,3556.703000001493,response,ISIC_0001119.JPG,6,ISIC_0033103.JPG,ISIC_0033103.JPG,false,0,keypress(z),500,448652.700000003,448652.6000000015,445086.985,445093.40000000224,445095.897,448658.973,8,400,6,,ISIC_0001119.JPG
break,html.Screen,4_105_1,2023-09-08T18:50:51.153Z,,0,,,NaN,,,,,,false,,,,448653.1000000015,448653,,448652.80000000075,,448658.973,8,400,,,
break_continue,html.Screen,4_105_2,2023-09-08T18:50:51.153Z,,0,,,NaN,,,,,,false,,,,448653.30000000075,448653.200000003,,448653.1000000015,,448658.973,8,400,,,
sequence,flow.Sequence,4_105,2023-09-08T18:50:51.153Z,,0,,,3557.303000002983,completion,,,,,false,,,,448653.30000000075,448653.200000003,445086.985,445093.40000000224,445095.897,448658.973,8,400,,,
trial,html.Screen,4_106_0,2023-09-08T18:50:54.306Z,,0,3,,3147.427000002237,response,ISIC_0061371.JPG,6,ISIC_0055905.JPG,ISIC_0061371.JPG,false,1,keypress(m),500,451806.5,451806.40000000224,448650.394,448653.30000000075,448658.973,451813.17,8,400,7,,ISIC_0055905.JPG
break,html.Screen,4_106_1,2023-09-08T18:50:54.307Z,,0,,,NaN,,,,,,false,,,,451806.90000000224,451806.80000000075,,451806.700000003,,451813.17,8,400,,,
break_continue,html.Screen,4_106_2,2023-09-08T18:50:54.307Z,,0,,,NaN,,,,,,false,,,,451807,451807,,451806.90000000224,,451813.17,8,400,,,
sequence,flow.Sequence,4_106,2023-09-08T18:50:54.307Z,,0,,,3148.027000000002,completion,,,,,false,,,,451807.1000000015,451807,448650.394,448653.30000000075,448658.973,451813.17,8,400,,,
trial,html.Screen,4_107_0,2023-09-08T18:50:57.524Z,,0,3,,3210.5300000029965,response,ISIC_6993129.JPG,6,ISIC_0029078.JPG,ISIC_0029078.JPG,false,0,keypress(z),500,455023.80000000075,455023.700000003,451804.177,451807.1000000015,451813.17,455034.159,8,400,8,,ISIC_6993129.JPG
break,html.Screen,4_107_1,2023-09-08T18:50:57.524Z,,0,,,NaN,,,,,,false,,,,455024.1000000015,455024,,455023.80000000075,,455034.159,8,400,,,
break_continue,html.Screen,4_107_2,2023-09-08T18:50:57.524Z,,0,,,NaN,,,,,,false,,,,455024.30000000075,455024.200000003,,455024.200000003,,455034.159,8,400,,,
sequence,flow.Sequence,4_107,2023-09-08T18:50:57.524Z,,0,,,3211.0300000029965,completion,,,,,false,,,,455024.30000000075,455024.200000003,451804.177,451807.1000000015,451813.17,455034.159,8,400,,,
trial,html.Screen,4_108_0,2023-09-08T18:51:00.278Z,,0,3,,2743.341000000015,response,ISIC_7329395.JPG,6,ISIC_0034217.JPG,ISIC_7329395.JPG,false,1,keypress(m),500,457777.700000003,457777.5,455025.815,455024.30000000075,455034.159,457779.505,8,400,9,,ISIC_0034217.JPG
break,html.Screen,4_108_1,2023-09-08T18:51:00.278Z,,0,,,NaN,,,,,,false,,,,457778.1000000015,457777.90000000224,,457777.700000003,,457779.505,8,400,,,
break_continue,html.Screen,4_108_2,2023-09-08T18:51:00.278Z,,0,,,NaN,,,,,,false,,,,457778.200000003,457778.1000000015,,457778.1000000015,,457779.505,8,400,,,
sequence,flow.Sequence,4_108,2023-09-08T18:51:00.278Z,,0,,,2743.941000001505,completion,,,,,false,,,,457778.200000003,457778.1000000015,455025.815,455024.30000000075,455034.159,457779.505,8,400,,,
trial,html.Screen,4_109_0,2023-09-08T18:51:04.696Z,,0,3,,4416.494999999995,response,ISIC_5382189.JPG,6,ISIC_2366652.JPG,ISIC_5382189.JPG,false,1,keypress(m),500,462196.1000000015,462196,457770.471,457778.200000003,457779.505,462202.021,8,400,10,,ISIC_2366652.JPG
break,html.Screen,4_109_1,2023-09-08T18:51:04.696Z,,0,,,NaN,,,,,,false,,,,462196.5,462196.40000000224,,462196.200000003,,462202.021,8,400,,,
break_continue,html.Screen,4_109_2,2023-09-08T18:51:04.697Z,,0,,,NaN,,,,,,false,,,,462196.6000000015,462196.5,,462196.5,,462202.021,8,400,,,
sequence,flow.Sequence,4_109,2023-09-08T18:51:04.697Z,,0,,,4416.994999999995,completion,,,,,false,,,,462196.6000000015,462196.5,457770.471,457778.200000003,457779.505,462202.021,8,400,,,
trial,html.Screen,4_110_0,2023-09-08T18:51:07.753Z,,0,3,,3051.1790000029723,response,ISIC_8246858.JPG,5,ISIC_3384884.JPG,ISIC_3384884.JPG,false,0,keypress(z),500,465253.30000000075,465253.200000003,462193.154,462196.6000000015,462202.021,465256.077,8,400,11,,ISIC_8246858.JPG
break,html.Screen,4_110_1,2023-09-08T18:51:07.754Z,,0,,,NaN,,,,,,false,,,,465253.700000003,465253.6000000015,,465253.40000000224,,465256.077,8,400,,,
break_continue,html.Screen,4_110_2,2023-09-08T18:51:07.754Z,,0,,,NaN,,,,,,false,,,,465253.90000000224,465253.90000000224,,465253.700000003,,465256.077,8,400,,,
sequence,flow.Sequence,4_110,2023-09-08T18:51:07.754Z,,0,,,3051.8790000022273,completion,,,,,false,,,,465254,465253.90000000224,462193.154,462196.6000000015,462202.021,465256.077,8,400,,,
trial,html.Screen,4_111_0,2023-09-08T18:51:10.844Z,,0,3,,3087.42300000001,response,ISIC_3368468.JPG,5,ISIC_2953279.JPG,ISIC_2953279.JPG,false,0,keypress(z),500,468343.6000000015,468343.5,465247.482,465254,465256.077,468351.887,8,400,12,,ISIC_3368468.JPG
break,html.Screen,4_111_1,2023-09-08T18:51:10.844Z,,0,,,NaN,,,,,,false,,,,468344,468343.90000000224,,468343.700000003,,468351.887,8,400,,,
break_continue,html.Screen,4_111_2,2023-09-08T18:51:10.844Z,,0,,,NaN,,,,,,false,,,,468344.1000000015,468344.1000000015,,468344,,468351.887,8,400,,,
sequence,flow.Sequence,4_111,2023-09-08T18:51:10.844Z,,0,,,3088.0230000015,completion,,,,,false,,,,468344.200000003,468344.1000000015,465247.482,465254,465256.077,468351.887,8,400,,,
trial,html.Screen,4_112_0,2023-09-08T18:51:13.987Z,,0,3,,3134.613000000012,response,ISIC_0005062.JPG,5,ISIC_0065748.JPG,ISIC_0065748.JPG,false,0,keypress(z),500,471486.700000003,471486.5,468342.9,468344.200000003,468351.887,471489.422,8,400,13,,ISIC_0005062.JPG
break,html.Screen,4_112_1,2023-09-08T18:51:13.987Z,,0,,,NaN,,,,,,false,,,,471487,471487,,471486.80000000075,,471489.422,8,400,,,
break_continue,html.Screen,4_112_2,2023-09-08T18:51:13.987Z,,0,,,NaN,,,,,,false,,,,471487.1000000015,471487.1000000015,,471487,,471489.422,8,400,,,
sequence,flow.Sequence,4_112,2023-09-08T18:51:13.987Z,,0,,,3135.213000001502,completion,,,,,false,,,,471487.1000000015,471487.1000000015,468342.9,468344.200000003,468351.887,471489.422,8,400,,,
trial,html.Screen,4_113_0,2023-09-08T18:51:17.434Z,,0,3,,3444.0779999999795,response,ISIC_0026613.JPG,6,ISIC_4114269.JPG,ISIC_0026613.JPG,false,1,keypress(m),500,474933.6000000015,474933.5,471480.43,471487.200000003,471489.422,474935.646,8,400,14,,ISIC_4114269.JPG
break,html.Screen,4_113_1,2023-09-08T18:51:17.434Z,,0,,,NaN,,,,,,false,,,,474934,474934,,474933.700000003,,474935.646,8,400,,,
break_continue,html.Screen,4_113_2,2023-09-08T18:51:17.434Z,,0,,,NaN,,,,,,false,,,,474934.1000000015,474934.1000000015,,474934.1000000015,,474935.646,8,400,,,
sequence,flow.Sequence,4_113,2023-09-08T18:51:17.434Z,,0,,,3444.6780000014696,completion,,,,,false,,,,474934.200000003,474934.1000000015,471480.43,471487.200000003,471489.422,474935.646,8,400,,,
trial,html.Screen,4_114_0,2023-09-08T18:51:20.524Z,,0,3,,3088.654000000737,response,ISIC_8451869.JPG,6,ISIC_1735204.JPG,ISIC_8451869.JPG,false,1,keypress(m),500,478024.40000000224,478024.30000000075,474926.679,474934.30000000075,474935.646,478031.438,8,400,15,,ISIC_1735204.JPG
break,html.Screen,4_114_1,2023-09-08T18:51:20.525Z,,0,,,NaN,,,,,,false,,,,478024.80000000075,478024.700000003,,478024.5,,478031.438,8,400,,,
break_continue,html.Screen,4_114_2,2023-09-08T18:51:20.525Z,,0,,,NaN,,,,,,false,,,,478024.90000000224,478024.90000000224,,478024.80000000075,,478031.438,8,400,,,
sequence,flow.Sequence,4_114,2023-09-08T18:51:20.525Z,,0,,,3089.2540000022273,completion,,,,,false,,,,478024.90000000224,478024.90000000224,474926.679,474934.200000003,474935.646,478031.438,8,400,,,
trial,html.Screen,4_115_0,2023-09-08T18:51:23.918Z,,0,3,,3386.9620000022114,response,ISIC_0032440.JPG,6,ISIC_0057067.JPG,ISIC_0057067.JPG,false,0,keypress(z),500,481418.5,481418.40000000224,478022.471,478025,478031.438,481427.63,8,400,16,,ISIC_0032440.JPG
break,html.Screen,4_115_1,2023-09-08T18:51:23.919Z,,0,,,NaN,,,,,,false,,,,481418.80000000075,481418.80000000075,,481418.6000000015,,481427.63,8,400,,,
break_continue,html.Screen,4_115_2,2023-09-08T18:51:23.919Z,,0,,,NaN,,,,,,false,,,,481419,481419,,481419,,481427.63,8,400,,,
sequence,flow.Sequence,4_115,2023-09-08T18:51:23.919Z,,0,,,3387.5619999999763,completion,,,,,false,,,,481419.1000000015,481419,478022.471,478025,478031.438,481427.63,8,400,,,
trial,html.Screen,4_116_0,2023-09-08T18:51:27.377Z,,0,3,,3449.2700000022305,response,ISIC_0010614.JPG,6,ISIC_0056938.JPG,ISIC_0056938.JPG,false,0,keypress(z),500,484876.90000000224,484876.90000000224,481419.285,481419.200000003,481427.63,484890.614,8,400,17,,ISIC_0010614.JPG
break,html.Screen,4_116_1,2023-09-08T18:51:27.377Z,,0,,,NaN,,,,,,false,,,,484877.30000000075,484877.200000003,,484877,,484890.614,8,400,,,
break_continue,html.Screen,4_116_2,2023-09-08T18:51:27.378Z,,0,,,NaN,,,,,,false,,,,484877.5,484877.40000000224,,484877.40000000224,,484890.614,8,400,,,
sequence,flow.Sequence,4_116,2023-09-08T18:51:27.378Z,,0,,,3449.7700000022305,completion,,,,,false,,,,484877.5,484877.40000000224,481419.285,481419.1000000015,481427.63,484890.614,8,400,,,
trial,html.Screen,4_117_0,2023-09-08T18:51:31.237Z,,0,3,,3845.586000002979,response,ISIC_0064798.JPG,5,ISIC_8316125.JPG,ISIC_0064798.JPG,false,1,keypress(m),500,488736.40000000224,488736.200000003,484882.265,484877.5,484890.614,488737.397,8,400,18,,ISIC_8316125.JPG
break,html.Screen,4_117_1,2023-09-08T18:51:31.237Z,,0,,,NaN,,,,,,false,,,,488736.700000003,488736.6000000015,,488736.40000000224,,488737.397,8,400,,,
break_continue,html.Screen,4_117_2,2023-09-08T18:51:31.237Z,,0,,,NaN,,,,,,false,,,,488736.90000000224,488736.80000000075,,488736.700000003,,488737.397,8,400,,,
sequence,flow.Sequence,4_117,2023-09-08T18:51:31.237Z,,0,,,3846.1860000007437,completion,,,,,false,,,,488736.90000000224,488736.80000000075,484882.265,484877.5,484890.614,488737.397,8,400,,,
trial,html.Screen,4_118_0,2023-09-08T18:51:35.927Z,,0,3,,4689.103000000003,response,ISIC_8555379.JPG,5,ISIC_0011403.JPG,ISIC_0011403.JPG,false,0,keypress(z),500,493426.700000003,493426.5,488729.05,488737,488737.397,493435.362,8,400,19,,ISIC_8555379.JPG
break,html.Screen,4_118_1,2023-09-08T18:51:35.927Z,,0,,,NaN,,,,,,false,,,,493427.1000000015,493427,,493426.700000003,,493435.362,8,400,,,
break_continue,html.Screen,4_118_2,2023-09-08T18:51:35.927Z,,0,,,NaN,,,,,,false,,,,493427.200000003,493427.200000003,,493427.200000003,,493435.362,8,400,,,
sequence,flow.Sequence,4_118,2023-09-08T18:51:35.928Z,,0,,,4689.803000002983,completion,,,,,false,,,,493427.30000000075,493427.200000003,488729.05,488737,488737.397,493435.362,8,400,,,
trial,html.Screen,4_119_0,2023-09-08T18:51:41.001Z,,0,3,,5065.137999999977,response,ISIC_0016112.JPG,5,ISIC_0013908.JPG,ISIC_0013908.JPG,false,0,keypress(z),500,498500.700000003,498500.5,493426.283,493427.40000000224,493435.362,498508.714,8,400,20,,ISIC_0016112.JPG
break,html.Screen,4_119_1,2023-09-08T18:51:41.001Z,,0,,,NaN,,,,,,false,,,,498501,498500.90000000224,,498500.700000003,,498508.714,8,400,,,
break_continue,html.Screen,4_119_2,2023-09-08T18:51:41.001Z,,0,,,NaN,,,,,,false,,,,498501.1000000015,498501.1000000015,,498501,,498508.714,8,400,,,
sequence,flow.Sequence,4_119,2023-09-08T18:51:41.001Z,,0,,,5065.738000001467,completion,,,,,false,,,,498501.200000003,498501.1000000015,493426.283,493427.30000000075,493435.362,498508.714,8,400,,,
trial,html.Screen,4_120_0,2023-09-08T18:51:44.555Z,,0,3,,3546.386000001512,response,ISIC_0031807.JPG,5,ISIC_4793961.JPG,ISIC_4793961.JPG,false,0,keypress(z),500,502055.30000000075,502055.1000000015,498499.713,498501.30000000075,498508.714,502063.477,8,400,21,,ISIC_0031807.JPG
break,html.Screen,4_120_1,2023-09-08T18:51:44.556Z,,0,,,NaN,,,,,,false,,,,502055.700000003,502055.6000000015,,502055.30000000075,,502063.477,8,400,,,
break_continue,html.Screen,4_120_2,2023-09-08T18:51:44.556Z,,0,,,NaN,,,,,,false,,,,502055.80000000075,502055.700000003,,502055.700000003,,502063.477,8,400,,,
sequence,flow.Sequence,4_120,2023-09-08T18:51:44.556Z,,0,,,3546.986000003002,completion,,,,,false,,,,502055.80000000075,502055.700000003,498499.713,498501.30000000075,498508.714,502063.477,8,400,,,
trial,html.Screen,4_121_0,2023-09-08T18:51:47.646Z,,0,3,,3081.8230000007316,response,ISIC_0028755.JPG,6,ISIC_9512048.JPG,ISIC_0028755.JPG,false,1,keypress(m),500,505145.40000000224,505145.30000000075,502054.472,502055.80000000075,502063.477,505150.92,8,400,22,,ISIC_9512048.JPG
break,html.Screen,4_121_1,2023-09-08T18:51:47.646Z,,0,,,NaN,,,,,,false,,,,505145.700000003,505145.700000003,,505145.40000000224,,505150.92,8,400,,,
break_continue,html.Screen,4_121_2,2023-09-08T18:51:47.646Z,,0,,,NaN,,,,,,false,,,,505145.80000000075,505145.80000000075,,505145.700000003,,505150.92,8,400,,,
sequence,flow.Sequence,4_121,2023-09-08T18:51:47.646Z,,0,,,3082.3230000007316,completion,,,,,false,,,,505145.90000000224,505145.80000000075,502054.472,502055.80000000075,502063.477,505150.92,8,400,,,
trial,html.Screen,4_122_0,2023-09-08T18:51:52.368Z,,0,3,,4716.380000000761,response,ISIC_0804420.JPG,5,ISIC_0058098.JPG,ISIC_0058098.JPG,false,0,keypress(z),500,509867.5,509867.30000000075,505141.928,505145.90000000224,505150.92,509873.903,8,400,23,,ISIC_0804420.JPG
break,html.Screen,4_122_1,2023-09-08T18:51:52.368Z,,0,,,NaN,,,,,,false,,,,509868,509867.90000000224,,509867.6000000015,,509873.903,8,400,,,
break_continue,html.Screen,4_122_2,2023-09-08T18:51:52.368Z,,0,,,NaN,,,,,,false,,,,509868.200000003,509868.1000000015,,509868.1000000015,,509873.903,8,400,,,
sequence,flow.Sequence,4_122,2023-09-08T18:51:52.368Z,,0,,,4717.180000001506,completion,,,,,false,,,,509868.200000003,509868.1000000015,505141.928,505145.90000000224,505150.92,509873.903,8,400,,,
trial,html.Screen,4_123_0,2023-09-08T18:51:55.538Z,,0,3,,3164.097000000009,response,ISIC_8618835.JPG,5,ISIC_0032182.JPG,ISIC_0032182.JPG,false,0,keypress(z),500,513038,513038,509864.882,509868.200000003,509873.903,513044.816,8,400,24,,ISIC_8618835.JPG
break,html.Screen,4_123_1,2023-09-08T18:51:55.539Z,,0,,,NaN,,,,,,false,,,,513038.40000000224,513038.30000000075,,513038.1000000015,,513044.816,8,400,,,
break_continue,html.Screen,4_123_2,2023-09-08T18:51:55.539Z,,0,,,NaN,,,,,,false,,,,513038.6000000015,513038.5,,513038.40000000224,,513044.816,8,400,,,
sequence,flow.Sequence,4_123,2023-09-08T18:51:55.539Z,,0,,,3164.597000000009,completion,,,,,false,,,,513038.6000000015,513038.5,509864.882,509868.200000003,509873.903,513044.816,8,400,,,
trial,html.Screen,4_124_0,2023-09-08T18:51:59.748Z,,0,3,,4202.884000002989,response,ISIC_1492055.JPG,5,ISIC_1077375.JPG,ISIC_1077375.JPG,false,0,keypress(z),500,517247.80000000075,517247.700000003,513035.773,513038.6000000015,513044.816,517250.358,8,400,25,,ISIC_1492055.JPG
break,html.Screen,4_124_1,2023-09-08T18:51:59.748Z,,0,,,NaN,,,,,,false,,,,517248.200000003,517248,,517247.80000000075,,517250.358,8,400,,,
break_continue,html.Screen,4_124_2,2023-09-08T18:51:59.748Z,,0,,,NaN,,,,,,false,,,,517248.200000003,517248.200000003,,517248.200000003,,517250.358,8,400,,,
sequence,flow.Sequence,4_124,2023-09-08T18:51:59.748Z,,0,,,4203.384000002989,completion,,,,,false,,,,517248.30000000075,517248.200000003,513035.773,513038.6000000015,513044.816,517250.358,8,400,,,
trial,html.Screen,4_125_0,2023-09-08T18:52:03.480Z,,0,3,,3729.342000002973,response,ISIC_0826998.JPG,5,ISIC_0070308.JPG,ISIC_0070308.JPG,false,0,keypress(z),500,520979.90000000224,520979.700000003,517241.386,517248.40000000224,517250.358,520989.982,8,400,26,,ISIC_0826998.JPG
break,html.Screen,4_125_1,2023-09-08T18:52:03.480Z,,0,,,NaN,,,,,,false,,,,520980.30000000075,520980.1000000015,,520979.90000000224,,520989.982,8,400,,,
