sender,sender_type,sender_id,timestamp,meta,,blockNo,condition,duration,ended_on,img_left,img_reveal,img_right,loser,practice,response,response_action,selection_duration,time_commit,time_end,time_render,time_run,time_show,time_switch,total_blocks,total_trials,trialNo,url,winner
informed_consent,html.Screen,0,2023-11-01T17:14:44.047Z,"{""labjs_version"":""20.2.4"",""labjs_build"":{""flavor"":""production"",""commit"":""f5b4a49f956347addd546a832a3327688c2c0fef""},""location"":""https://run.pavlovia.org/MurrayBennett/melanoma-2afc/?participant=66148&platform=sona"",""userAgent"":""Mozilla/5.0 (Windows NT 10.0; Win64; x64) AppleWebKit/537.36 (KHTML, like Gecko) Chrome/118.0.0.0 Safari/537.36"",""platform"":""Win32"",""language"":""en-US"",""locale"":""en-US"",""timeZone"":""America/Chicago"",""timezoneOffset"":300,""screen_width"":1920,""screen_height"":1080,""scroll_width"":929,""scroll_height"":878,""window_innerWidth"":929,""window_innerHeight"":926,""devicePixelRatio"":1}",,,,80969.165,response,,,,,,consent,click button,,83078.90000000224,83078,1857.518,2105.5,2108.835,83089.029,,,,"{""participant"":""66148"",""platform"":""sona""}",
Welcome,html.Screen,1,2023-11-01T17:15:52.904Z,,,,asymmetry,68844.971,response,,,,,,continue,click button,,151934.6000000015,151934,83072.048,83079,83089.029,151940.888,,,,,
trial,html.Screen,2_0_0,2023-11-01T17:15:58.793Z,,0,0,,5883.111999999994,response,ISIC_0069348.JPG,,ISIC_6997061.JPG,ISIC_6997061.JPG,true,0,keypress(z),500,157824.30000000075,157824,151924.419,151934.69999999925,151940.888,157830.078,1,6,1,,ISIC_0069348.JPG
sequence,flow.Sequence,2_0,2023-11-01T17:15:58.793Z,,0,,,5883.111999999994,completion,,,,,true,,,,157824.40000000224,157824,151924.419,151934.6000000015,151940.888,157830.078,1,6,,,
trial,html.Screen,2_1_0,2023-11-01T17:16:05.211Z,,0,0,,6411.621999999246,response,ISIC_0009529.JPG,,ISIC_0057368.JPG,ISIC_0009529.JPG,true,1,keypress(m),500,164241.80000000075,164241.69999999925,157813.492,157824.6000000015,157830.078,164253.169,1,6,2,,ISIC_0057368.JPG
sequence,flow.Sequence,2_1,2023-11-01T17:16:05.211Z,,0,,,6411.621999999246,completion,,,,,true,,,,164242,164241.69999999925,157813.492,157824.6000000015,157830.078,164253.169,1,6,,,
trial,html.Screen,2_2_0,2023-11-01T17:16:10.076Z,,0,0,,4853.831000000006,response,ISIC_9758671.JPG,,ISIC_0064954.JPG,ISIC_0064954.JPG,true,0,keypress(z),500,169107.1000000015,169107,164236.756,164242,164253.169,169125.455,1,6,3,,ISIC_9758671.JPG
sequence,flow.Sequence,2_2,2023-11-01T17:16:10.076Z,,0,,,4853.831000000006,completion,,,,,true,,,,169107.30000000075,169107,164236.756,164242,164253.169,169125.455,1,6,,,
trial,html.Screen,2_3_0,2023-11-01T17:16:14.558Z,,0,0,,4463.645000001503,response,ISIC_0000080.JPG,,ISIC_0005785.JPG,ISIC_0000080.JPG,true,1,keypress(m),500,173589.30000000075,173589.1000000015,169091.352,169107.30000000075,169125.455,173596.079,1,6,4,,ISIC_0005785.JPG
sequence,flow.Sequence,2_3,2023-11-01T17:16:14.558Z,,0,,,4463.645000001503,completion,,,,,true,,,,173589.40000000224,173589.1000000015,169091.352,169107.30000000075,169125.455,173596.079,1,6,,,
trial,html.Screen,2_4_0,2023-11-01T17:16:18.000Z,,0,0,,3434.421000000002,response,ISIC_5390060.JPG,,ISIC_7944028.JPG,ISIC_7944028.JPG,true,0,keypress(z),500,177030.6000000015,177030.5,173579.217,173589.6000000015,173596.079,177032.599,1,6,5,,ISIC_5390060.JPG
sequence,flow.Sequence,2_4,2023-11-01T17:16:18.000Z,,0,,,3434.421000000002,completion,,,,,true,,,,177030.69999999925,177030.5,173579.217,173589.5,173596.079,177032.599,1,6,,,
trial,html.Screen,2_5_0,2023-11-01T17:16:20.993Z,,0,0,,2991.7010000007576,response,ISIC_0794216.JPG,,ISIC_0010188.JPG,ISIC_0794216.JPG,true,1,keypress(m),500,180024.40000000224,180024.30000000075,177016.005,177030.80000000075,177032.599,180035.744,1,6,6,,ISIC_0010188.JPG
sequence,flow.Sequence,2_5,2023-11-01T17:16:20.993Z,,0,,,2991.7010000007576,completion,,,,,true,,,,180024.5,180024.30000000075,177016.005,177030.80000000075,177032.599,180035.744,1,6,,,
loop,flow.Loop,2,2023-11-01T17:16:20.994Z,,,,,28083.41200000074,completion,,,,,true,,,,180024.6000000015,180024.30000000075,151924.419,151934.6000000015,151940.888,180035.744,1,6,,,
exp_instructions,html.Screen,3,2023-11-01T17:16:29.792Z,,,,,8786.755999999994,response,,,,,,continue,keypress(Space),,188822.90000000224,188822.5,180018.999,180024.6000000015,180035.744,188827.699,,,,,
trial,html.Screen,4_0_0,2023-11-01T17:16:41.277Z,,0,1,,11511.823000000004,timeout,ISIC_0056228.JPG,6,ISIC_0032823.JPG,,false,,,500,200307.90000000224,200307.80000000075,188811.11,188823,188827.699,200339.522,8,400,1,,
break,html.Screen,4_0_1,2023-11-01T17:16:41.278Z,,0,,,NaN,,,,,,false,,,,200308.19999999925,200308.1000000015,,200308,,200339.522,8,400,,,
break_continue,html.Screen,4_0_2,2023-11-01T17:16:41.278Z,,0,,,NaN,,,,,,false,,,,200308.40000000224,200308.30000000075,,200308.30000000075,,200339.522,8,400,,,
sequence,flow.Sequence,4_0,2023-11-01T17:16:41.278Z,,0,,,11480.601000000752,completion,,,,,false,,,,200308.5,200308.30000000075,188811.11,188823,188827.699,200339.522,8,400,,,
trial,html.Screen,4_1_0,2023-11-01T17:16:45.456Z,,0,1,,4147.177999999258,response,ISIC_0067205.JPG,4,ISIC_0013579.JPG,ISIC_0067205.JPG,false,1,keypress(m),500,204486.90000000224,204486.69999999925,200322.803,200308.5,200339.522,204493.377,8,400,2,,ISIC_0013579.JPG
break,html.Screen,4_1_1,2023-11-01T17:16:45.457Z,,0,,,NaN,,,,,,false,,,,204487.19999999925,204487,,204486.90000000224,,204493.377,8,400,,,
break_continue,html.Screen,4_1_2,2023-11-01T17:16:45.457Z,,0,,,NaN,,,,,,false,,,,204487.40000000224,204487.40000000224,,204487.19999999925,,204493.377,8,400,,,
sequence,flow.Sequence,4_1,2023-11-01T17:16:45.457Z,,0,,,4147.878000002238,completion,,,,,false,,,,204487.5,204487.40000000224,200322.803,200308.5,200339.522,204493.377,8,400,,,
trial,html.Screen,4_2_0,2023-11-01T17:16:49.283Z,,0,1,,3819.8229999992473,response,ISIC_0058496.JPG,6,ISIC_0067226.JPG,ISIC_0058496.JPG,false,1,keypress(m),500,208313.19999999925,208313.19999999925,204476.741,204487.5,204493.377,208331.462,8,400,3,,ISIC_0067226.JPG
break,html.Screen,4_2_1,2023-11-01T17:16:49.283Z,,0,,,NaN,,,,,,false,,,,208313.6000000015,208313.5,,208313.30000000075,,208331.462,8,400,,,
break_continue,html.Screen,4_2_2,2023-11-01T17:16:49.283Z,,0,,,NaN,,,,,,false,,,,208313.6000000015,208313.6000000015,,208313.6000000015,,208331.462,8,400,,,
sequence,flow.Sequence,4_2,2023-11-01T17:16:49.283Z,,0,,,3820.2230000014824,completion,,,,,false,,,,208313.69999999925,208313.6000000015,204476.741,204487.5,204493.377,208331.462,8,400,,,
trial,html.Screen,4_3_0,2023-11-01T17:16:54.741Z,,0,1,,5439.638000001491,response,ISIC_0011948.JPG,4,ISIC_7412327.JPG,ISIC_7412327.JPG,false,0,keypress(z),500,213771.19999999925,213771.1000000015,208297.508,208313.69999999925,208331.462,213786.008,8,400,4,,ISIC_0011948.JPG
break,html.Screen,4_3_1,2023-11-01T17:16:54.741Z,,0,,,NaN,,,,,,false,,,,213771.40000000224,213771.40000000224,,213771.19999999925,,213786.008,8,400,,,
break_continue,html.Screen,4_3_2,2023-11-01T17:16:54.741Z,,0,,,NaN,,,,,,false,,,,213771.5,213771.5,,213771.40000000224,,213786.008,8,400,,,
sequence,flow.Sequence,4_3,2023-11-01T17:16:54.741Z,,0,,,5440.0380000000005,completion,,,,,false,,,,213771.69999999925,213771.5,208297.508,208313.69999999925,208331.462,213786.008,8,400,,,
trial,html.Screen,4_4_0,2023-11-01T17:16:58.438Z,,0,1,,3682.2920000007434,response,ISIC_1154109.JPG,5,ISIC_3409824.JPG,ISIC_1154109.JPG,false,1,keypress(m),500,217468.40000000224,217468.30000000075,213769.342,213771.69999999925,213786.008,217473.032,8,400,5,,ISIC_3409824.JPG
break,html.Screen,4_4_1,2023-11-01T17:16:58.438Z,,0,,,NaN,,,,,,false,,,,217468.6000000015,217468.5,,217468.40000000224,,217473.032,8,400,,,
break_continue,html.Screen,4_4_2,2023-11-01T17:16:58.438Z,,0,,,NaN,,,,,,false,,,,217468.80000000075,217468.80000000075,,217468.6000000015,,217473.032,8,400,,,
sequence,flow.Sequence,4_4,2023-11-01T17:16:58.438Z,,0,,,3682.7920000007434,completion,,,,,false,,,,217468.90000000224,217468.80000000075,213769.342,213771.69999999925,213786.008,217473.032,8,400,,,
trial,html.Screen,4_5_0,2023-11-01T17:17:02.056Z,,0,1,,3613.0680000014836,response,ISIC_0025489.JPG,5,ISIC_0489267.JPG,ISIC_0025489.JPG,false,1,keypress(m),500,221086.19999999925,221086.1000000015,217456.59,217468.90000000224,217473.032,221093.317,8,400,6,,ISIC_0489267.JPG
break,html.Screen,4_5_1,2023-11-01T17:17:02.056Z,,0,,,NaN,,,,,,false,,,,221086.40000000224,221086.40000000224,,221086.19999999925,,221093.317,8,400,,,
break_continue,html.Screen,4_5_2,2023-11-01T17:17:02.056Z,,0,,,NaN,,,,,,false,,,,221086.6000000015,221086.5,,221086.5,,221093.317,8,400,,,
sequence,flow.Sequence,4_5,2023-11-01T17:17:02.056Z,,0,,,3613.4679999999935,completion,,,,,false,,,,221086.69999999925,221086.5,217456.59,217468.90000000224,217473.032,221093.317,8,400,,,
trial,html.Screen,4_6_0,2023-11-01T17:17:06.250Z,,0,1,,4186.78300000148,response,ISIC_7801289.JPG,5,ISIC_8082460.JPG,ISIC_8082460.JPG,false,0,keypress(z),500,225280.19999999925,225280.1000000015,221076.921,221086.69999999925,221093.317,225298.405,8,400,7,,ISIC_7801289.JPG
break,html.Screen,4_6_1,2023-11-01T17:17:06.250Z,,0,,,NaN,,,,,,false,,,,225280.5,225280.30000000075,,225280.19999999925,,225298.405,8,400,,,
break_continue,html.Screen,4_6_2,2023-11-01T17:17:06.250Z,,0,,,NaN,,,,,,false,,,,225280.69999999925,225280.6000000015,,225280.5,,225298.405,8,400,,,
sequence,flow.Sequence,4_6,2023-11-01T17:17:06.250Z,,0,,,4187.28300000148,completion,,,,,false,,,,225280.80000000075,225280.6000000015,221076.921,221086.69999999925,221093.317,225298.405,8,400,,,
trial,html.Screen,4_7_0,2023-11-01T17:17:10.396Z,,0,1,,4127.794999999256,response,ISIC_0057997.JPG,4,ISIC_0027030.JPG,ISIC_0057997.JPG,false,1,keypress(m),500,229426.40000000224,229426.19999999925,225264.486,225280.80000000075,225298.405,229435.307,8,400,8,,ISIC_0027030.JPG
break,html.Screen,4_7_1,2023-11-01T17:17:10.396Z,,0,,,NaN,,,,,,false,,,,229426.6000000015,229426.5,,229426.40000000224,,229435.307,8,400,,,
break_continue,html.Screen,4_7_2,2023-11-01T17:17:10.396Z,,0,,,NaN,,,,,,false,,,,229426.80000000075,229426.69999999925,,229426.69999999925,,229435.307,8,400,,,
sequence,flow.Sequence,4_7,2023-11-01T17:17:10.396Z,,0,,,4128.294999999256,completion,,,,,false,,,,229426.90000000224,229426.69999999925,225264.486,225280.80000000075,225298.405,229435.307,8,400,,,
trial,html.Screen,4_8_0,2023-11-01T17:17:13.917Z,,0,1,,3512.2930000014894,response,ISIC_0060716.JPG,4,ISIC_7167479.JPG,ISIC_7167479.JPG,false,0,keypress(z),500,232947.80000000075,232947.6000000015,229418.654,229426.90000000224,229435.307,232955.3,8,400,9,,ISIC_0060716.JPG
break,html.Screen,4_8_1,2023-11-01T17:17:13.918Z,,0,,,NaN,,,,,,false,,,,232948.1000000015,232947.90000000224,,232947.80000000075,,232955.3,8,400,,,
break_continue,html.Screen,4_8_2,2023-11-01T17:17:13.918Z,,0,,,NaN,,,,,,false,,,,232948.19999999925,232948.19999999925,,232948.1000000015,,232955.3,8,400,,,
sequence,flow.Sequence,4_8,2023-11-01T17:17:13.918Z,,0,,,3512.8929999992542,completion,,,,,false,,,,232948.30000000075,232948.19999999925,229418.654,229426.90000000224,229435.307,232955.3,8,400,,,
trial,html.Screen,4_9_0,2023-11-01T17:17:16.959Z,,0,1,,3034.5000000007567,response,ISIC_0024853.JPG,6,ISIC_0741694.JPG,ISIC_0741694.JPG,false,0,keypress(z),500,235989.80000000075,235989.80000000075,232938.555,232948.40000000224,232955.3,235991.54,8,400,10,,ISIC_0024853.JPG
break,html.Screen,4_9_1,2023-11-01T17:17:16.960Z,,0,,,NaN,,,,,,false,,,,235990.19999999925,235990.1000000015,,235990,,235991.54,8,400,,,
break_continue,html.Screen,4_9_2,2023-11-01T17:17:16.960Z,,0,,,NaN,,,,,,false,,,,235990.40000000224,235990.30000000075,,235990.19999999925,,235991.54,8,400,,,
sequence,flow.Sequence,4_9,2023-11-01T17:17:16.960Z,,0,,,3035.0000000007567,completion,,,,,false,,,,235990.5,235990.30000000075,232938.555,232948.40000000224,232955.3,235991.54,8,400,,,
trial,html.Screen,4_10_0,2023-11-01T17:17:20.802Z,,0,1,,3840.459999999992,response,ISIC_7144739.JPG,6,ISIC_9425937.JPG,ISIC_7144739.JPG,false,1,keypress(m),500,239832.1000000015,239832,235975.212,235990.5,235991.54,239845.403,8,400,11,,ISIC_9425937.JPG
break,html.Screen,4_10_1,2023-11-01T17:17:20.802Z,,0,,,NaN,,,,,,false,,,,239832.5,239832.40000000224,,239832.30000000075,,239845.403,8,400,,,
break_continue,html.Screen,4_10_2,2023-11-01T17:17:20.802Z,,0,,,NaN,,,,,,false,,,,239832.69999999925,239832.6000000015,,239832.5,,239845.403,8,400,,,
sequence,flow.Sequence,4_10,2023-11-01T17:17:20.802Z,,0,,,3841.060000001482,completion,,,,,false,,,,239832.80000000075,239832.6000000015,235975.212,235990.5,235991.54,239845.403,8,400,,,
trial,html.Screen,4_11_0,2023-11-01T17:17:24.405Z,,0,1,,3589.497000002244,response,ISIC_2500254.JPG,5,ISIC_6373689.JPG,ISIC_2500254.JPG,false,1,keypress(m),500,243435,243434.90000000224,239828.698,239832.80000000075,239845.403,243449.321,8,400,12,,ISIC_6373689.JPG
break,html.Screen,4_11_1,2023-11-01T17:17:24.405Z,,0,,,NaN,,,,,,false,,,,243435.30000000075,243435.19999999925,,243435,,243449.321,8,400,,,
break_continue,html.Screen,4_11_2,2023-11-01T17:17:24.405Z,,0,,,NaN,,,,,,false,,,,243435.40000000224,243435.40000000224,,243435.30000000075,,243449.321,8,400,,,
sequence,flow.Sequence,4_11,2023-11-01T17:17:24.405Z,,0,,,3589.997000002244,completion,,,,,false,,,,243435.40000000224,243435.40000000224,239828.698,239832.80000000075,239845.403,243449.321,8,400,,,
trial,html.Screen,4_12_0,2023-11-01T17:17:28.966Z,,0,1,,4547.279000001494,response,ISIC_0066149.JPG,5,ISIC_0014290.JPG,ISIC_0066149.JPG,false,1,keypress(m),500,247996.6000000015,247996.6000000015,243432.733,243435.5,243449.321,248003.542,8,400,13,,ISIC_0014290.JPG
break,html.Screen,4_12_1,2023-11-01T17:17:28.966Z,,0,,,NaN,,,,,,false,,,,247996.90000000224,247996.80000000075,,247996.69999999925,,248003.542,8,400,,,
break_continue,html.Screen,4_12_2,2023-11-01T17:17:28.967Z,,0,,,NaN,,,,,,false,,,,247997,247996.90000000224,,247996.90000000224,,248003.542,8,400,,,
sequence,flow.Sequence,4_12,2023-11-01T17:17:28.967Z,,0,,,4547.579000002239,completion,,,,,false,,,,247997.1000000015,247996.90000000224,243432.733,243435.5,243449.321,248003.542,8,400,,,
trial,html.Screen,4_13_0,2023-11-01T17:17:33.720Z,,0,1,,4746.458000000013,response,ISIC_0065735.JPG,6,ISIC_5296963.JPG,ISIC_5296963.JPG,false,0,keypress(z),500,252750.19999999925,252750,247987.178,247997.19999999925,248003.542,252758.294,8,400,14,,ISIC_0065735.JPG
break,html.Screen,4_13_1,2023-11-01T17:17:33.721Z,,0,,,NaN,,,,,,false,,,,252750.40000000224,252750.30000000075,,252750.19999999925,,252758.294,8,400,,,
break_continue,html.Screen,4_13_2,2023-11-01T17:17:33.721Z,,0,,,NaN,,,,,,false,,,,252750.6000000015,252750.5,,252750.5,,252758.294,8,400,,,
sequence,flow.Sequence,4_13,2023-11-01T17:17:33.721Z,,0,,,4746.958000000013,completion,,,,,false,,,,252750.6000000015,252750.5,247987.178,247997.19999999925,248003.542,252758.294,8,400,,,
trial,html.Screen,4_14_0,2023-11-01T17:17:38.122Z,,0,1,,4393.4059999992605,response,ISIC_4951213.JPG,5,ISIC_0034217.JPG,ISIC_0034217.JPG,false,0,keypress(z),500,257151.80000000075,257151.69999999925,252741.635,252750.69999999925,252758.294,257162.824,8,400,15,,ISIC_4951213.JPG
break,html.Screen,4_14_1,2023-11-01T17:17:38.122Z,,0,,,NaN,,,,,,false,,,,257152,257152,,257151.80000000075,,257162.824,8,400,,,
break_continue,html.Screen,4_14_2,2023-11-01T17:17:38.122Z,,0,,,NaN,,,,,,false,,,,257152.19999999925,257152.1000000015,,257152.1000000015,,257162.824,8,400,,,
sequence,flow.Sequence,4_14,2023-11-01T17:17:38.122Z,,0,,,4393.806000001496,completion,,,,,false,,,,257152.19999999925,257152.1000000015,252741.635,252750.6000000015,252758.294,257162.824,8,400,,,
trial,html.Screen,4_15_0,2023-11-01T17:17:41.499Z,,0,1,,3366.276000001497,response,ISIC_5099569.JPG,5,ISIC_0011256.JPG,ISIC_0011256.JPG,false,0,keypress(z),500,260529.19999999925,260529.1000000015,257146.089,257152.30000000075,257162.824,260532.757,8,400,16,,ISIC_5099569.JPG
break,html.Screen,4_15_1,2023-11-01T17:17:41.500Z,,0,,,NaN,,,,,,false,,,,260529.40000000224,260529.40000000224,,260529.30000000075,,260532.757,8,400,,,
break_continue,html.Screen,4_15_2,2023-11-01T17:17:41.500Z,,0,,,NaN,,,,,,false,,,,260529.69999999925,260529.6000000015,,260529.5,,260532.757,8,400,,,
sequence,flow.Sequence,4_15,2023-11-01T17:17:41.500Z,,0,,,3366.776000001497,completion,,,,,false,,,,260529.69999999925,260529.6000000015,257146.089,257152.19999999925,257162.824,260532.757,8,400,,,
trial,html.Screen,4_16_0,2023-11-01T17:17:45.118Z,,0,1,,3614.5430000007327,response,ISIC_0055747.JPG,6,ISIC_0059671.JPG,ISIC_0055747.JPG,false,1,keypress(m),500,264147.40000000224,264147.30000000075,260516.05,260529.80000000075,260532.757,264153.31,8,400,17,,ISIC_0059671.JPG
break,html.Screen,4_16_1,2023-11-01T17:17:45.118Z,,0,,,NaN,,,,,,false,,,,264147.6000000015,264147.6000000015,,264147.40000000224,,264153.31,8,400,,,
break_continue,html.Screen,4_16_2,2023-11-01T17:17:45.118Z,,0,,,NaN,,,,,,false,,,,264147.80000000075,264147.69999999925,,264147.69999999925,,264153.31,8,400,,,
sequence,flow.Sequence,4_16,2023-11-01T17:17:45.118Z,,0,,,3614.9429999992426,completion,,,,,false,,,,264147.90000000224,264147.69999999925,260516.05,260529.80000000075,260532.757,264153.31,8,400,,,
trial,html.Screen,4_17_0,2023-11-01T17:17:49.296Z,,0,1,,4172.389999999257,response,ISIC_0028716.JPG,5,ISIC_0026352.JPG,ISIC_0028716.JPG,false,1,keypress(m),500,268325.80000000075,268325.69999999925,264136.625,264147.90000000224,264153.31,268340.84,8,400,18,,ISIC_0026352.JPG
break,html.Screen,4_17_1,2023-11-01T17:17:49.296Z,,0,,,NaN,,,,,,false,,,,268326.1000000015,268326,,268325.90000000224,,268340.84,8,400,,,
break_continue,html.Screen,4_17_2,2023-11-01T17:17:49.296Z,,0,,,NaN,,,,,,false,,,,268326.19999999925,268326.19999999925,,268326.1000000015,,268340.84,8,400,,,
sequence,flow.Sequence,4_17,2023-11-01T17:17:49.296Z,,0,,,4172.889999999257,completion,,,,,false,,,,268326.19999999925,268326.19999999925,264136.625,264147.90000000224,264153.31,268340.84,8,400,,,
trial,html.Screen,4_18_0,2023-11-01T17:17:53.171Z,,0,1,,3859.4600000007194,response,ISIC_5312584.JPG,5,ISIC_6553389.JPG,ISIC_5312584.JPG,false,1,keypress(m),500,272200.40000000224,272200.30000000075,268324.108,268326.40000000224,268340.84,272211.048,8,400,19,,ISIC_6553389.JPG
break,html.Screen,4_18_1,2023-11-01T17:17:53.171Z,,0,,,NaN,,,,,,false,,,,272200.6000000015,272200.6000000015,,272200.5,,272211.048,8,400,,,
break_continue,html.Screen,4_18_2,2023-11-01T17:17:53.171Z,,0,,,NaN,,,,,,false,,,,272200.80000000075,272200.69999999925,,272200.69999999925,,272211.048,8,400,,,
sequence,flow.Sequence,4_18,2023-11-01T17:17:53.171Z,,0,,,3859.8599999992293,completion,,,,,false,,,,272200.90000000224,272200.69999999925,268324.108,268326.30000000075,268340.84,272211.048,8,400,,,
trial,html.Screen,4_19_0,2023-11-01T17:17:57.284Z,,0,1,,4102.55200000148,response,ISIC_0055293.JPG,5,ISIC_0064033.JPG,ISIC_0064033.JPG,false,0,keypress(z),500,276313.69999999925,276313.6000000015,272194.506,272200.90000000224,272211.048,276315.171,8,400,20,,ISIC_0055293.JPG
break,html.Screen,4_19_1,2023-11-01T17:17:57.284Z,,0,,,NaN,,,,,,false,,,,276313.90000000224,276313.90000000224,,276313.69999999925,,276315.171,8,400,,,
break_continue,html.Screen,4_19_2,2023-11-01T17:17:57.284Z,,0,,,NaN,,,,,,false,,,,276314,276314,,276314,,276315.171,8,400,,,
sequence,flow.Sequence,4_19,2023-11-01T17:17:57.284Z,,0,,,4102.95199999999,completion,,,,,false,,,,276314.1000000015,276314,272194.506,272200.90000000224,272211.048,276315.171,8,400,,,
trial,html.Screen,4_20_0,2023-11-01T17:18:00.614Z,,0,1,,3328.329000000027,response,ISIC_1740912.JPG,5,ISIC_0014324.JPG,ISIC_1740912.JPG,false,1,keypress(m),500,279643.6000000015,279643.5,276298.623,276314.19999999925,276315.171,279652.214,8,400,21,,ISIC_0014324.JPG
break,html.Screen,4_20_1,2023-11-01T17:18:00.614Z,,0,,,NaN,,,,,,false,,,,279643.90000000224,279643.90000000224,,279643.69999999925,,279652.214,8,400,,,
break_continue,html.Screen,4_20_2,2023-11-01T17:18:00.614Z,,0,,,NaN,,,,,,false,,,,279644.1000000015,279644,,279644,,279652.214,8,400,,,
sequence,flow.Sequence,4_20,2023-11-01T17:18:00.614Z,,0,,,3328.829000000027,completion,,,,,false,,,,279644.19999999925,279644,276298.623,276314.1000000015,276315.171,279652.214,8,400,,,
trial,html.Screen,4_21_0,2023-11-01T17:18:05.321Z,,0,1,,4698.186000002257,response,ISIC_6377613.JPG,5,ISIC_0064625.JPG,ISIC_0064625.JPG,false,0,keypress(z),500,284350.6000000015,284350.40000000224,279635.236,279644.19999999925,279652.214,284356.547,8,400,22,,ISIC_6377613.JPG
break,html.Screen,4_21_1,2023-11-01T17:18:05.321Z,,0,,,NaN,,,,,,false,,,,284351,284350.90000000224,,284350.69999999925,,284356.547,8,400,,,
break_continue,html.Screen,4_21_2,2023-11-01T17:18:05.321Z,,0,,,NaN,,,,,,false,,,,284351.30000000075,284351.19999999925,,284351.1000000015,,284356.547,8,400,,,
sequence,flow.Sequence,4_21,2023-11-01T17:18:05.322Z,,0,,,4698.985999999277,completion,,,,,false,,,,284351.40000000224,284351.19999999925,279635.236,279644.19999999925,279652.214,284356.547,8,400,,,
trial,html.Screen,4_22_0,2023-11-01T17:18:09.659Z,,0,1,,4332.05300000147,response,ISIC_4539674.JPG,5,ISIC_6815524.JPG,ISIC_4539674.JPG,false,1,keypress(m),500,288688.69999999925,288688.6000000015,284340.267,284351.40000000224,284356.547,288694.222,8,400,23,,ISIC_6815524.JPG
break,html.Screen,4_22_1,2023-11-01T17:18:09.659Z,,0,,,NaN,,,,,,false,,,,288689,288688.80000000075,,288688.69999999925,,288694.222,8,400,,,
break_continue,html.Screen,4_22_2,2023-11-01T17:18:09.659Z,,0,,,NaN,,,,,,false,,,,288689,288689,,288689,,288694.222,8,400,,,
sequence,flow.Sequence,4_22,2023-11-01T17:18:09.659Z,,0,,,4332.4529999999795,completion,,,,,false,,,,288689.1000000015,288689,284340.267,284351.40000000224,284356.547,288694.222,8,400,,,
trial,html.Screen,4_23_0,2023-11-01T17:18:14.142Z,,0,1,,4477.378000001481,response,ISIC_7543736.JPG,5,ISIC_0031543.JPG,ISIC_7543736.JPG,false,1,keypress(m),500,293171.80000000075,293171.6000000015,288677.687,288689.1000000015,288694.222,293182.068,8,400,24,,ISIC_0031543.JPG
break,html.Screen,4_23_1,2023-11-01T17:18:14.142Z,,0,,,NaN,,,,,,false,,,,293172.1000000015,293172,,293171.80000000075,,293182.068,8,400,,,
break_continue,html.Screen,4_23_2,2023-11-01T17:18:14.142Z,,0,,,NaN,,,,,,false,,,,293172.19999999925,293172.19999999925,,293172.19999999925,,293182.068,8,400,,,
sequence,flow.Sequence,4_23,2023-11-01T17:18:14.143Z,,0,,,4477.977999999246,completion,,,,,false,,,,293172.30000000075,293172.19999999925,288677.687,288689.1000000015,288694.222,293182.068,8,400,,,
trial,html.Screen,4_24_0,2023-11-01T17:18:17.552Z,,0,1,,3399.7320000007167,response,ISIC_4713698.JPG,5,ISIC_5923430.JPG,ISIC_4713698.JPG,false,1,keypress(m),500,296582,296581.80000000075,293165.411,293172.40000000224,293182.068,296585.474,8,400,25,,ISIC_5923430.JPG
break,html.Screen,4_24_1,2023-11-01T17:18:17.552Z,,0,,,NaN,,,,,,false,,,,296582.30000000075,296582.19999999925,,296582.1000000015,,296585.474,8,400,,,
break_continue,html.Screen,4_24_2,2023-11-01T17:18:17.553Z,,0,,,NaN,,,,,,false,,,,296582.5,296582.40000000224,,296582.30000000075,,296585.474,8,400,,,
sequence,flow.Sequence,4_24,2023-11-01T17:18:17.553Z,,0,,,3400.3320000022068,completion,,,,,false,,,,296582.5,296582.40000000224,293165.411,293172.40000000224,293182.068,296585.474,8,400,,,
trial,html.Screen,4_25_0,2023-11-01T17:18:20.546Z,,0,1,,2989.9260000022477,response,ISIC_8740331.JPG,5,ISIC_0027193.JPG,ISIC_8740331.JPG,false,1,keypress(m),500,299575.5,299575.40000000224,296568.834,296582.5,296585.474,299588.724,8,400,26,,ISIC_0027193.JPG
break,html.Screen,4_25_1,2023-11-01T17:18:20.546Z,,0,,,NaN,,,,,,false,,,,299575.80000000075,299575.69999999925,,299575.5,,299588.724,8,400,,,
break_continue,html.Screen,4_25_2,2023-11-01T17:18:20.546Z,,0,,,NaN,,,,,,false,,,,299576,299575.90000000224,,299575.80000000075,,299588.724,8,400,,,
sequence,flow.Sequence,4_25,2023-11-01T17:18:20.546Z,,0,,,2990.4260000022477,completion,,,,,false,,,,299576.1000000015,299575.90000000224,296568.834,296582.5,296585.474,299588.724,8,400,,,
trial,html.Screen,4_26_0,2023-11-01T17:18:24.099Z,,0,1,,3540.1760000022477,response,ISIC_0001743.JPG,6,ISIC_0027122.JPG,ISIC_0001743.JPG,false,1,keypress(m),500,303129,303128.90000000224,299571.985,299576.1000000015,299588.724,303158.902,8,400,27,,ISIC_0027122.JPG
break,html.Screen,4_26_1,2023-11-01T17:18:24.100Z,,0,,,NaN,,,,,,false,,,,303129.30000000075,303129.19999999925,,303129,,303158.902,8,400,,,
break_continue,html.Screen,4_26_2,2023-11-01T17:18:24.100Z,,0,,,NaN,,,,,,false,,,,303129.5,303129.5,,303129.40000000224,,303158.902,8,400,,,
sequence,flow.Sequence,4_26,2023-11-01T17:18:24.100Z,,0,,,3540.7760000000126,completion,,,,,false,,,,303129.5,303129.5,299571.985,299576.1000000015,299588.724,303158.902,8,400,,,
trial,html.Screen,4_27_0,2023-11-01T17:18:27.765Z,,0,1,,3636.097999999998,response,ISIC_0054936.JPG,6,ISIC_9896801.JPG,ISIC_9896801.JPG,false,0,keypress(z),500,306795.1000000015,306795,303142.249,303129.6000000015,303158.902,306813.627,8,400,28,,ISIC_0054936.JPG
break,html.Screen,4_27_1,2023-11-01T17:18:27.766Z,,0,,,NaN,,,,,,false,,,,306795.40000000224,306795.40000000224,,306795.19999999925,,306813.627,8,400,,,
break_continue,html.Screen,4_27_2,2023-11-01T17:18:27.766Z,,0,,,NaN,,,,,,false,,,,306795.5,306795.5,,306795.40000000224,,306813.627,8,400,,,
sequence,flow.Sequence,4_27,2023-11-01T17:18:27.766Z,,0,,,3636.597999999998,completion,,,,,false,,,,306795.69999999925,306795.5,303142.249,303129.6000000015,303158.902,306813.627,8,400,,,
trial,html.Screen,4_28_0,2023-11-01T17:18:32.279Z,,0,1,,4494.9730000015115,response,ISIC_0029453.JPG,5,ISIC_7235128.JPG,ISIC_0029453.JPG,false,1,keypress(m),500,311308.69999999925,311308.6000000015,306778.958,306795.69999999925,306813.627,311316.897,8,400,29,,ISIC_7235128.JPG
break,html.Screen,4_28_1,2023-11-01T17:18:32.280Z,,0,,,NaN,,,,,,false,,,,311308.90000000224,311308.90000000224,,311308.80000000075,,311316.897,8,400,,,
break_continue,html.Screen,4_28_2,2023-11-01T17:18:32.280Z,,0,,,NaN,,,,,,false,,,,311309.1000000015,311309.1000000015,,311309,,311316.897,8,400,,,
sequence,flow.Sequence,4_28,2023-11-01T17:18:32.280Z,,0,,,4495.4730000015115,completion,,,,,false,,,,311309.19999999925,311309.1000000015,306778.958,306795.69999999925,306813.627,311316.897,8,400,,,
trial,html.Screen,4_29_0,2023-11-01T17:18:36.041Z,,0,1,,3753.203000001493,response,ISIC_3084213.JPG,5,ISIC_0025877.JPG,ISIC_0025877.JPG,false,0,keypress(z),500,315070.1000000015,315070.1000000015,311300.181,311309.19999999925,311316.897,315087.258,8,400,30,,ISIC_3084213.JPG
break,html.Screen,4_29_1,2023-11-01T17:18:36.041Z,,0,,,NaN,,,,,,false,,,,315070.40000000224,315070.30000000075,,315070.30000000075,,315087.258,8,400,,,
break_continue,html.Screen,4_29_2,2023-11-01T17:18:36.041Z,,0,,,NaN,,,,,,false,,,,315070.6000000015,315070.5,,315070.5,,315087.258,8,400,,,
sequence,flow.Sequence,4_29,2023-11-01T17:18:36.041Z,,0,,,3753.603000000003,completion,,,,,false,,,,315070.69999999925,315070.5,311300.181,311309.19999999925,311316.897,315087.258,8,400,,,
trial,html.Screen,4_30_0,2023-11-01T17:18:39.403Z,,0,1,,3344.8420000015176,response,ISIC_9513918.JPG,5,ISIC_0372902.JPG,ISIC_9513918.JPG,false,1,keypress(m),500,318432.1000000015,318432.1000000015,315054.132,315070.69999999925,315087.258,318440.591,8,400,31,,ISIC_0372902.JPG
break,html.Screen,4_30_1,2023-11-01T17:18:39.403Z,,0,,,NaN,,,,,,false,,,,318432.40000000224,318432.30000000075,,318432.19999999925,,318440.591,8,400,,,
break_continue,html.Screen,4_30_2,2023-11-01T17:18:39.403Z,,0,,,NaN,,,,,,false,,,,318432.5,318432.5,,318432.40000000224,,318440.591,8,400,,,
sequence,flow.Sequence,4_30,2023-11-01T17:18:39.403Z,,0,,,3345.2420000000275,completion,,,,,false,,,,318432.6000000015,318432.5,315054.132,315070.69999999925,315087.258,318440.591,8,400,,,
trial,html.Screen,4_31_0,2023-11-01T17:18:43.469Z,,0,1,,4057.60899999924,response,ISIC_1612350.JPG,5,ISIC_3060248.JPG,ISIC_3060248.JPG,false,0,keypress(z),500,322498.30000000075,322498.19999999925,318423.972,318432.69999999925,318440.591,322511.412,8,400,32,,ISIC_1612350.JPG
break,html.Screen,4_31_1,2023-11-01T17:18:43.469Z,,0,,,NaN,,,,,,false,,,,322498.6000000015,322498.5,,322498.30000000075,,322511.412,8,400,,,
break_continue,html.Screen,4_31_2,2023-11-01T17:18:43.469Z,,0,,,NaN,,,,,,false,,,,322498.6000000015,322498.6000000015,,322498.6000000015,,322511.412,8,400,,,
sequence,flow.Sequence,4_31,2023-11-01T17:18:43.470Z,,0,,,4058.009000001475,completion,,,,,false,,,,322498.69999999925,322498.6000000015,318423.972,318432.69999999925,318440.591,322511.412,8,400,,,
trial,html.Screen,4_32_0,2023-11-01T17:18:46.383Z,,0,1,,2900.688000001479,response,ISIC_5178031.JPG,5,ISIC_0028886.JPG,ISIC_5178031.JPG,false,1,keypress(m),500,325412.1000000015,325412.1000000015,322494.978,322498.69999999925,322511.412,325414.272,8,400,33,,ISIC_0028886.JPG
break,html.Screen,4_32_1,2023-11-01T17:18:46.383Z,,0,,,NaN,,,,,,false,,,,325412.40000000224,325412.40000000224,,325412.19999999925,,325414.272,8,400,,,
break_continue,html.Screen,4_32_2,2023-11-01T17:18:46.383Z,,0,,,NaN,,,,,,false,,,,325412.6000000015,325412.5,,325412.40000000224,,325414.272,8,400,,,
sequence,flow.Sequence,4_32,2023-11-01T17:18:46.383Z,,0,,,2901.087999999989,completion,,,,,false,,,,325412.69999999925,325412.5,322494.978,322498.69999999925,322511.412,325414.272,8,400,,,
trial,html.Screen,4_33_0,2023-11-01T17:18:49.314Z,,0,1,,2928.528000000748,response,ISIC_6284012.JPG,5,ISIC_0016112.JPG,ISIC_0016112.JPG,false,0,keypress(z),500,328342.80000000075,328342.80000000075,325397.568,325412.80000000075,325414.272,328367.508,8,400,34,,ISIC_6284012.JPG
break,html.Screen,4_33_1,2023-11-01T17:18:49.314Z,,0,,,NaN,,,,,,false,,,,328343.19999999925,328343,,328343,,328367.508,8,400,,,
break_continue,html.Screen,4_33_2,2023-11-01T17:18:49.314Z,,0,,,NaN,,,,,,false,,,,328343.30000000075,328343.30000000075,,328343.19999999925,,328367.508,8,400,,,
sequence,flow.Sequence,4_33,2023-11-01T17:18:49.314Z,,0,,,2929.028000000748,completion,,,,,false,,,,328343.30000000075,328343.30000000075,325397.568,325412.69999999925,325414.272,328367.508,8,400,,,
trial,html.Screen,4_34_0,2023-11-01T17:18:52.372Z,,0,1,,3033.4920000000275,response,ISIC_0026738.JPG,6,ISIC_3012778.JPG,ISIC_3012778.JPG,false,0,keypress(z),500,331401.19999999925,331401,328350.573,328343.40000000224,328367.508,331403.533,8,400,35,,ISIC_0026738.JPG
break,html.Screen,4_34_1,2023-11-01T17:18:52.372Z,,0,,,NaN,,,,,,false,,,,331401.40000000224,331401.30000000075,,331401.19999999925,,331403.533,8,400,,,
break_continue,html.Screen,4_34_2,2023-11-01T17:18:52.372Z,,0,,,NaN,,,,,,false,,,,331401.6000000015,331401.5,,331401.5,,331403.533,8,400,,,
sequence,flow.Sequence,4_34,2023-11-01T17:18:52.372Z,,0,,,3033.9920000000275,completion,,,,,false,,,,331401.6000000015,331401.5,328350.573,328343.40000000224,328367.508,331403.533,8,400,,,
trial,html.Screen,4_35_0,2023-11-01T17:18:55.526Z,,0,1,,3151.5670000014943,response,ISIC_0067027.JPG,4,ISIC_9155028.JPG,ISIC_9155028.JPG,false,0,keypress(z),500,334555.19999999925,334555.1000000015,331386.903,331401.6000000015,331403.533,334556.735,8,400,36,,ISIC_0067027.JPG
break,html.Screen,4_35_1,2023-11-01T17:18:55.526Z,,0,,,NaN,,,,,,false,,,,334555.40000000224,334555.40000000224,,334555.19999999925,,334556.735,8,400,,,
break_continue,html.Screen,4_35_2,2023-11-01T17:18:55.526Z,,0,,,NaN,,,,,,false,,,,334555.5,334555.5,,334555.5,,334556.735,8,400,,,
sequence,flow.Sequence,4_35,2023-11-01T17:18:55.526Z,,0,,,3151.967000000004,completion,,,,,false,,,,334555.5,334555.5,331386.903,331401.6000000015,331403.533,334556.735,8,400,,,
trial,html.Screen,4_36_0,2023-11-01T17:18:58.647Z,,0,1,,3119.865000001504,response,ISIC_4607215.JPG,5,ISIC_0031863.JPG,ISIC_4607215.JPG,false,1,keypress(m),500,337676.69999999925,337676.6000000015,334540.138,334555.6000000015,334556.735,337693.214,8,400,37,,ISIC_0031863.JPG
break,html.Screen,4_36_1,2023-11-01T17:18:58.648Z,,0,,,NaN,,,,,,false,,,,337677,337676.90000000224,,337676.69999999925,,337693.214,8,400,,,
break_continue,html.Screen,4_36_2,2023-11-01T17:18:58.648Z,,0,,,NaN,,,,,,false,,,,337677.19999999925,337677.1000000015,,337677,,337693.214,8,400,,,
sequence,flow.Sequence,4_36,2023-11-01T17:18:58.648Z,,0,,,3120.365000001504,completion,,,,,false,,,,337677.19999999925,337677.1000000015,334540.138,334555.6000000015,334556.735,337693.214,8,400,,,
trial,html.Screen,4_37_0,2023-11-01T17:19:01.497Z,,0,1,,2833.186000002257,response,ISIC_3787339.JPG,4,ISIC_0025355.JPG,ISIC_0025355.JPG,false,0,keypress(z),500,340526.5,340526.40000000224,337676.594,337677.19999999925,337693.214,340529.43,8,400,38,,ISIC_3787339.JPG
break,html.Screen,4_37_1,2023-11-01T17:19:01.498Z,,0,,,NaN,,,,,,false,,,,340526.90000000224,340526.69999999925,,340526.69999999925,,340529.43,8,400,,,
break_continue,html.Screen,4_37_2,2023-11-01T17:19:01.498Z,,0,,,NaN,,,,,,false,,,,340527.1000000015,340527,,340526.90000000224,,340529.43,8,400,,,
sequence,flow.Sequence,4_37,2023-11-01T17:19:01.498Z,,0,,,2833.786000000022,completion,,,,,false,,,,340527.19999999925,340527,337676.594,337677.19999999925,337693.214,340529.43,8,400,,,
trial,html.Screen,4_38_0,2023-11-01T17:19:04.763Z,,0,1,,3262.570000000007,response,ISIC_0027132.JPG,6,ISIC_0063692.JPG,ISIC_0027132.JPG,false,1,keypress(m),500,343792.1000000015,343792,340512.797,340527.30000000075,340529.43,343799.375,8,400,39,,ISIC_0063692.JPG
break,html.Screen,4_38_1,2023-11-01T17:19:04.763Z,,0,,,NaN,,,,,,false,,,,343792.30000000075,343792.19999999925,,343792.1000000015,,343799.375,8,400,,,
break_continue,html.Screen,4_38_2,2023-11-01T17:19:04.763Z,,0,,,NaN,,,,,,false,,,,343792.5,343792.5,,343792.40000000224,,343799.375,8,400,,,
sequence,flow.Sequence,4_38,2023-11-01T17:19:04.763Z,,0,,,3263.070000000007,completion,,,,,false,,,,343792.6000000015,343792.5,340512.797,340527.19999999925,340529.43,343799.375,8,400,,,
trial,html.Screen,4_39_0,2023-11-01T17:19:07.837Z,,0,1,,3066.824999999255,response,ISIC_1332766.JPG,5,ISIC_3520750.JPG,ISIC_3520750.JPG,false,0,keypress(z),500,346866.30000000075,346866.19999999925,343782.925,343792.6000000015,343799.375,346869.114,8,400,40,,ISIC_1332766.JPG
break,html.Screen,4_39_1,2023-11-01T17:19:07.837Z,,0,,,NaN,,,,,,false,,,,346866.6000000015,346866.40000000224,,346866.30000000075,,346869.114,8,400,,,
break_continue,html.Screen,4_39_2,2023-11-01T17:19:07.837Z,,0,,,NaN,,,,,,false,,,,346866.69999999925,346866.6000000015,,346866.6000000015,,346869.114,8,400,,,
sequence,flow.Sequence,4_39,2023-11-01T17:19:07.838Z,,0,,,3067.22500000149,completion,,,,,false,,,,346866.80000000075,346866.6000000015,343782.925,343792.6000000015,343799.375,346869.114,8,400,,,
trial,html.Screen,4_40_0,2023-11-01T17:19:12.270Z,,0,1,,4430.385999999999,response,ISIC_9223156.JPG,5,ISIC_0031005.JPG,ISIC_9223156.JPG,false,1,keypress(m),500,351299.69999999925,351299.5,346852.368,346866.90000000224,346869.114,351307.071,8,400,41,,ISIC_0031005.JPG
break,html.Screen,4_40_1,2023-11-01T17:19:12.271Z,,0,,,NaN,,,,,,false,,,,351300,351299.90000000224,,351299.80000000075,,351307.071,8,400,,,
break_continue,html.Screen,4_40_2,2023-11-01T17:19:12.271Z,,0,,,NaN,,,,,,false,,,,351300.1000000015,351300.1000000015,,351300,,351307.071,8,400,,,
sequence,flow.Sequence,4_40,2023-11-01T17:19:12.271Z,,0,,,4430.986000001489,completion,,,,,false,,,,351300.19999999925,351300.1000000015,346852.368,346866.90000000224,346869.114,351307.071,8,400,,,
trial,html.Screen,4_41_0,2023-11-01T17:19:16.321Z,,0,1,,4042.729000000749,response,ISIC_0033950.JPG,6,ISIC_0355177.JPG,ISIC_0033950.JPG,false,1,keypress(m),500,355350,355349.80000000075,351290.366,351300.19999999925,351307.071,355360.888,8,400,42,,ISIC_0355177.JPG
break,html.Screen,4_41_1,2023-11-01T17:19:16.321Z,,0,,,NaN,,,,,,false,,,,355350.19999999925,355350.1000000015,,355350,,355360.888,8,400,,,
break_continue,html.Screen,4_41_2,2023-11-01T17:19:16.321Z,,0,,,NaN,,,,,,false,,,,355350.30000000075,355350.30000000075,,355350.19999999925,,355360.888,8,400,,,
sequence,flow.Sequence,4_41,2023-11-01T17:19:16.321Z,,0,,,4043.229000000749,completion,,,,,false,,,,355350.30000000075,355350.30000000075,351290.366,351300.19999999925,351307.071,355360.888,8,400,,,
trial,html.Screen,4_42_0,2023-11-01T17:19:19.923Z,,0,1,,3591.112000000023,response,ISIC_3556980.JPG,6,ISIC_0011247.JPG,ISIC_3556980.JPG,false,1,keypress(m),500,358952.1000000015,358952,355344.449,355350.40000000224,355360.888,358964.725,8,400,43,,ISIC_0011247.JPG
break,html.Screen,4_42_1,2023-11-01T17:19:19.923Z,,0,,,NaN,,,,,,false,,,,358952.40000000224,358952.30000000075,,358952.19999999925,,358964.725,8,400,,,
break_continue,html.Screen,4_42_2,2023-11-01T17:19:19.923Z,,0,,,NaN,,,,,,false,,,,358952.5,358952.40000000224,,358952.40000000224,,358964.725,8,400,,,
sequence,flow.Sequence,4_42,2023-11-01T17:19:19.923Z,,0,,,3591.512000002258,completion,,,,,false,,,,358952.5,358952.40000000224,355344.449,355350.40000000224,355360.888,358964.725,8,400,,,
trial,html.Screen,4_43_0,2023-11-01T17:19:24.037Z,,0,1,,4100.875000001513,response,ISIC_0011509.JPG,4,ISIC_0053540.JPG,ISIC_0053540.JPG,false,0,keypress(z),500,363065.69999999925,363065.6000000015,358947.783,358952.6000000015,358964.725,363068.576,8,400,44,,ISIC_0011509.JPG
break,html.Screen,4_43_1,2023-11-01T17:19:24.037Z,,0,,,NaN,,,,,,false,,,,363066,363065.90000000224,,363065.80000000075,,363068.576,8,400,,,
break_continue,html.Screen,4_43_2,2023-11-01T17:19:24.037Z,,0,,,NaN,,,,,,false,,,,363066,363066,,363066,,363068.576,8,400,,,
sequence,flow.Sequence,4_43,2023-11-01T17:19:24.037Z,,0,,,4101.275000000023,completion,,,,,false,,,,363066.19999999925,363066,358947.783,358952.6000000015,358964.725,363068.576,8,400,,,
trial,html.Screen,4_44_0,2023-11-01T17:19:28.007Z,,0,1,,3967.524000001489,response,ISIC_0024918.JPG,6,ISIC_0064964.JPG,ISIC_0064964.JPG,false,0,keypress(z),500,367036.1000000015,367036.1000000015,363051.91,363066.19999999925,363068.576,367039.182,8,400,45,,ISIC_0024918.JPG
break,html.Screen,4_44_1,2023-11-01T17:19:28.007Z,,0,,,NaN,,,,,,false,,,,367036.30000000075,367036.30000000075,,367036.19999999925,,367039.182,8,400,,,
break_continue,html.Screen,4_44_2,2023-11-01T17:19:28.007Z,,0,,,NaN,,,,,,false,,,,367036.6000000015,367036.5,,367036.40000000224,,367039.182,8,400,,,
sequence,flow.Sequence,4_44,2023-11-01T17:19:28.007Z,,0,,,3967.923999999999,completion,,,,,false,,,,367036.6000000015,367036.5,363051.91,363066.19999999925,363068.576,367039.182,8,400,,,
trial,html.Screen,4_45_0,2023-11-01T17:19:31.625Z,,0,1,,3614.7180000022636,response,ISIC_0055282.JPG,5,ISIC_5174685.JPG,ISIC_0055282.JPG,false,1,keypress(m),500,370654,370653.90000000224,367022.512,367036.6000000015,367039.182,370659.448,8,400,46,,ISIC_5174685.JPG
break,html.Screen,4_45_1,2023-11-01T17:19:31.626Z,,0,,,NaN,,,,,,false,,,,370654.19999999925,370654.1000000015,,370654,,370659.448,8,400,,,
break_continue,html.Screen,4_45_2,2023-11-01T17:19:31.626Z,,0,,,NaN,,,,,,false,,,,370654.30000000075,370654.30000000075,,370654.19999999925,,370659.448,8,400,,,
sequence,flow.Sequence,4_45,2023-11-01T17:19:31.626Z,,0,,,3615.1180000007735,completion,,,,,false,,,,370654.40000000224,370654.30000000075,367022.512,367036.6000000015,367039.182,370659.448,8,400,,,
trial,html.Screen,4_46_0,2023-11-01T17:19:35.499Z,,0,1,,3868.4520000022603,response,ISIC_1166740.JPG,6,ISIC_6297317.JPG,ISIC_1166740.JPG,false,1,keypress(m),500,374528,374527.90000000224,370642.808,370654.40000000224,370659.448,374530.026,8,400,47,,ISIC_6297317.JPG
break,html.Screen,4_46_1,2023-11-01T17:19:35.500Z,,0,,,NaN,,,,,,false,,,,374528.19999999925,374528.1000000015,,374528,,374530.026,8,400,,,
break_continue,html.Screen,4_46_2,2023-11-01T17:19:35.500Z,,0,,,NaN,,,,,,false,,,,374528.30000000075,374528.19999999925,,374528.19999999925,,374530.026,8,400,,,
sequence,flow.Sequence,4_46,2023-11-01T17:19:35.500Z,,0,,,3868.75199999928,completion,,,,,false,,,,374528.40000000224,374528.19999999925,370642.808,370654.40000000224,370659.448,374530.026,8,400,,,
trial,html.Screen,4_47_0,2023-11-01T17:19:40.285Z,,0,1,,4783.7740000007325,response,ISIC_9615486.JPG,6,ISIC_4243283.JPG,ISIC_9615486.JPG,false,1,keypress(m),500,379313.90000000224,379313.80000000075,374513.344,374528.40000000224,374530.026,379318.129,8,400,48,,ISIC_4243283.JPG
break,html.Screen,4_47_1,2023-11-01T17:19:40.286Z,,0,,,NaN,,,,,,false,,,,379314.1000000015,379314,,379313.90000000224,,379318.129,8,400,,,
break_continue,html.Screen,4_47_2,2023-11-01T17:19:40.286Z,,0,,,NaN,,,,,,false,,,,379314.30000000075,379314.19999999925,,379314.19999999925,,379318.129,8,400,,,
sequence,flow.Sequence,4_47,2023-11-01T17:19:40.286Z,,0,,,4784.173999999242,completion,,,,,false,,,,379314.30000000075,379314.19999999925,374513.344,374528.40000000224,374530.026,379318.129,8,400,,,
trial,html.Screen,4_48_0,2023-11-01T17:19:43.456Z,,0,1,,3166.1710000007297,response,ISIC_0033902.JPG,5,ISIC_0065062.JPG,ISIC_0033902.JPG,false,1,keypress(m),500,382484.40000000224,382484.30000000075,379301.452,379314.40000000224,379318.129,382487.948,8,400,49,,ISIC_0065062.JPG
break,html.Screen,4_48_1,2023-11-01T17:19:43.456Z,,0,,,NaN,,,,,,false,,,,382484.6000000015,382484.6000000015,,382484.5,,382487.948,8,400,,,
break_continue,html.Screen,4_48_2,2023-11-01T17:19:43.456Z,,0,,,NaN,,,,,,false,,,,382484.80000000075,382484.69999999925,,382484.6000000015,,382487.948,8,400,,,
sequence,flow.Sequence,4_48,2023-11-01T17:19:43.456Z,,0,,,3166.5709999992396,completion,,,,,false,,,,382484.80000000075,382484.69999999925,379301.452,379314.40000000224,379318.129,382487.948,8,400,,,
trial,html.Screen,4_49_0,2023-11-01T17:19:47.954Z,,0,1,,4494.75199999928,response,ISIC_0005304.JPG,6,ISIC_1057521.JPG,ISIC_0005304.JPG,false,1,keypress(m),500,386982.80000000075,386982.69999999925,382471.273,382484.80000000075,382487.948,386992.49,8,400,50,,ISIC_1057521.JPG
break,html.Screen,4_49_1,2023-11-01T17:19:57.941Z,,0,,,9993.290000000037,timeout,,,,,false,,,,396969.40000000224,396969.096,386975.798,386982.90000000224,386992.49,396985.78,8,400,,,
break_continue,html.Screen,4_49_2,2023-11-01T17:20:11.590Z,,0,,,13628.520000000717,response,,,,,false,continue,keypress(Space),,410618.6000000015,410614.30000000075,396969.096,396969.5,396985.78,410632.765,8,400,,,
sequence,flow.Sequence,4_49,2023-11-01T17:20:11.590Z,,0,,,28126.35200000077,completion,,,,,false,,,,410618.6000000015,410614.30000000075,382471.273,382484.80000000075,382487.948,410632.765,8,400,,,
trial,html.Screen,4_50_0,2023-11-01T17:20:14.727Z,,0,2,,3122.335000001476,response,ISIC_4921413.JPG,6,ISIC_0032922.JPG,ISIC_4921413.JPG,false,1,keypress(m),500,413755.19999999925,413755.1000000015,410615.755,410618.6000000015,410632.765,413769.235,8,400,1,,ISIC_0032922.JPG
break,html.Screen,4_50_1,2023-11-01T17:20:14.727Z,,0,,,NaN,,,,,,false,,,,413755.40000000224,413755.40000000224,,413755.30000000075,,413769.235,8,400,,,
break_continue,html.Screen,4_50_2,2023-11-01T17:20:14.727Z,,0,,,NaN,,,,,,false,,,,413755.6000000015,413755.6000000015,,413755.5,,413769.235,8,400,,,
sequence,flow.Sequence,4_50,2023-11-01T17:20:14.727Z,,0,,,3122.835000001476,completion,,,,,false,,,,413755.6000000015,413755.6000000015,410615.755,410618.6000000015,410632.765,413769.235,8,400,,,
trial,html.Screen,4_51_0,2023-11-01T17:20:17.705Z,,0,2,,2964.665000002249,response,ISIC_1859923.JPG,6,ISIC_0063190.JPG,ISIC_1859923.JPG,false,1,keypress(m),500,416733.90000000224,416733.90000000224,413752.554,413755.69999999925,413769.235,416738.895,8,400,2,,ISIC_0063190.JPG
break,html.Screen,4_51_1,2023-11-01T17:20:17.706Z,,0,,,NaN,,,,,,false,,,,416734.1000000015,416734.1000000015,,416734,,416738.895,8,400,,,
break_continue,html.Screen,4_51_2,2023-11-01T17:20:17.706Z,,0,,,NaN,,,,,,false,,,,416734.30000000075,416734.19999999925,,416734.19999999925,,416738.895,8,400,,,
sequence,flow.Sequence,4_51,2023-11-01T17:20:17.706Z,,0,,,2964.964999999269,completion,,,,,false,,,,416734.30000000075,416734.19999999925,413752.554,413755.6000000015,413769.235,416738.895,8,400,,,
trial,html.Screen,4_52_0,2023-11-01T17:20:22.715Z,,0,2,,5004.604999999981,response,ISIC_1423737.JPG,5,ISIC_0000452.JPG,ISIC_1423737.JPG,false,1,keypress(m),500,421743.6000000015,421743.5,416722.169,416734.30000000075,416738.895,421760.658,8,400,3,,ISIC_0000452.JPG
break,html.Screen,4_52_1,2023-11-01T17:20:22.715Z,,0,,,NaN,,,,,,false,,,,421743.90000000224,421743.80000000075,,421743.6000000015,,421760.658,8,400,,,
break_continue,html.Screen,4_52_2,2023-11-01T17:20:22.715Z,,0,,,NaN,,,,,,false,,,,421744.1000000015,421744,,421743.90000000224,,421760.658,8,400,,,
sequence,flow.Sequence,4_52,2023-11-01T17:20:22.716Z,,0,,,5005.104999999981,completion,,,,,false,,,,421744.19999999925,421744,416722.169,416734.30000000075,416738.895,421760.658,8,400,,,
trial,html.Screen,4_53_0,2023-11-01T17:20:26.093Z,,0,2,,3360.9420000014943,response,ISIC_8860929.JPG,6,ISIC_4728200.JPG,ISIC_4728200.JPG,false,0,keypress(z),500,425121.69999999925,425121.6000000015,421727.503,421744.19999999925,421760.658,425130.615,8,400,4,,ISIC_8860929.JPG
break,html.Screen,4_53_1,2023-11-01T17:20:26.093Z,,0,,,NaN,,,,,,false,,,,425122,425122,,425121.80000000075,,425130.615,8,400,,,
break_continue,html.Screen,4_53_2,2023-11-01T17:20:26.093Z,,0,,,NaN,,,,,,false,,,,425122.1000000015,425122.1000000015,,425122,,425130.615,8,400,,,
sequence,flow.Sequence,4_53,2023-11-01T17:20:26.094Z,,0,,,3361.4420000014943,completion,,,,,false,,,,425122.1000000015,425122.1000000015,421727.503,421744.19999999925,421760.658,425130.615,8,400,,,
trial,html.Screen,4_54_0,2023-11-01T17:20:29.422Z,,0,2,,3319.9850000014994,response,ISIC_5305288.JPG,4,ISIC_5206218.JPG,ISIC_5305288.JPG,false,1,keypress(m),500,428450.80000000075,428450.6000000015,425113.947,425122.19999999925,425130.615,428467.573,8,400,5,,ISIC_5206218.JPG
break,html.Screen,4_54_1,2023-11-01T17:20:29.422Z,,0,,,NaN,,,,,,false,,,,428451,428450.90000000224,,428450.90000000224,,428467.573,8,400,,,
break_continue,html.Screen,4_54_2,2023-11-01T17:20:29.423Z,,0,,,NaN,,,,,,false,,,,428451.30000000075,428451.19999999925,,428451.1000000015,,428467.573,8,400,,,
sequence,flow.Sequence,4_54,2023-11-01T17:20:29.423Z,,0,,,3320.5849999992643,completion,,,,,false,,,,428451.30000000075,428451.19999999925,425113.947,425122.1000000015,425130.615,428467.573,8,400,,,
trial,html.Screen,4_55_0,2023-11-01T17:20:32.192Z,,0,2,,2752.427000000025,response,ISIC_6460137.JPG,6,ISIC_0032187.JPG,ISIC_6460137.JPG,false,1,keypress(m),500,431220.19999999925,431220,428450.868,428451.30000000075,428467.573,431236.997,8,400,6,,ISIC_0032187.JPG
break,html.Screen,4_55_1,2023-11-01T17:20:32.192Z,,0,,,NaN,,,,,,false,,,,431220.40000000224,431220.30000000075,,431220.30000000075,,431236.997,8,400,,,
break_continue,html.Screen,4_55_2,2023-11-01T17:20:32.193Z,,0,,,NaN,,,,,,false,,,,431220.6000000015,431220.6000000015,,431220.5,,431236.997,8,400,,,
sequence,flow.Sequence,4_55,2023-11-01T17:20:32.193Z,,0,,,2753.0270000015153,completion,,,,,false,,,,431220.6000000015,431220.6000000015,428450.868,428451.30000000075,428467.573,431236.997,8,400,,,
trial,html.Screen,4_56_0,2023-11-01T17:20:35.730Z,,0,2,,3520.702999999281,response,ISIC_9685480.JPG,5,ISIC_0058186.JPG,ISIC_0058186.JPG,false,0,keypress(z),500,434757.80000000075,434757.69999999925,431220.024,431220.69999999925,431236.997,434773.559,8,400,7,,ISIC_9685480.JPG
break,html.Screen,4_56_1,2023-11-01T17:20:35.730Z,,0,,,NaN,,,,,,false,,,,434758,434758,,434757.90000000224,,434773.559,8,400,,,
break_continue,html.Screen,4_56_2,2023-11-01T17:20:35.730Z,,0,,,NaN,,,,,,false,,,,434758.19999999925,434758.19999999925,,434758,,434773.559,8,400,,,
sequence,flow.Sequence,4_56,2023-11-01T17:20:35.730Z,,0,,,3521.202999999281,completion,,,,,false,,,,434758.30000000075,434758.19999999925,431220.024,431220.69999999925,431236.997,434773.559,8,400,,,
trial,html.Screen,4_57_0,2023-11-01T17:20:39.828Z,,0,2,,4082.2410000007367,response,ISIC_1155782.JPG,4,ISIC_9445053.JPG,ISIC_1155782.JPG,false,1,keypress(m),500,438855.90000000224,438855.80000000075,434756.898,434758.40000000224,434773.559,438861.067,8,400,8,,ISIC_9445053.JPG
break,html.Screen,4_57_1,2023-11-01T17:20:39.828Z,,0,,,NaN,,,,,,false,,,,438856.19999999925,438856.1000000015,,438856,,438861.067,8,400,,,
break_continue,html.Screen,4_57_2,2023-11-01T17:20:39.828Z,,0,,,NaN,,,,,,false,,,,438856.40000000224,438856.30000000075,,438856.30000000075,,438861.067,8,400,,,
sequence,flow.Sequence,4_57,2023-11-01T17:20:39.828Z,,0,,,4082.7410000007367,completion,,,,,false,,,,438856.40000000224,438856.30000000075,434756.898,434758.30000000075,434773.559,438861.067,8,400,,,
trial,html.Screen,4_58_0,2023-11-01T17:20:44.245Z,,0,2,,4412.333000002254,response,ISIC_0177304.JPG,5,ISIC_9912475.JPG,ISIC_0177304.JPG,false,1,keypress(m),500,443273.5,443273.40000000224,438844.595,438856.40000000224,438861.067,443282.313,8,400,9,,ISIC_9912475.JPG
break,html.Screen,4_58_1,2023-11-01T17:20:44.246Z,,0,,,NaN,,,,,,false,,,,443273.80000000075,443273.80000000075,,443273.6000000015,,443282.313,8,400,,,
break_continue,html.Screen,4_58_2,2023-11-01T17:20:44.246Z,,0,,,NaN,,,,,,false,,,,443274,443273.90000000224,,443273.90000000224,,443282.313,8,400,,,
sequence,flow.Sequence,4_58,2023-11-01T17:20:44.246Z,,0,,,4412.833000002254,completion,,,,,false,,,,443274.1000000015,443273.90000000224,438844.595,438856.40000000224,438861.067,443282.313,8,400,,,
trial,html.Screen,4_59_0,2023-11-01T17:20:47.640Z,,0,2,,3385.2870000014664,response,ISIC_7642591.JPG,6,ISIC_0025218.JPG,ISIC_7642591.JPG,false,1,keypress(m),500,446667.69999999925,446667.6000000015,443265.395,443274.1000000015,443282.313,446686.448,8,400,10,,ISIC_0025218.JPG
break,html.Screen,4_59_1,2023-11-01T17:20:47.640Z,,0,,,NaN,,,,,,false,,,,446667.90000000224,446667.80000000075,,446667.69999999925,,446686.448,8,400,,,
break_continue,html.Screen,4_59_2,2023-11-01T17:20:47.640Z,,0,,,NaN,,,,,,false,,,,446668,446668,,446668,,446686.448,8,400,,,
sequence,flow.Sequence,4_59,2023-11-01T17:20:47.640Z,,0,,,3385.6869999999763,completion,,,,,false,,,,446668.19999999925,446668,443265.395,443274.1000000015,443282.313,446686.448,8,400,,,
trial,html.Screen,4_60_0,2023-11-01T17:20:51.690Z,,0,2,,4031.1520000015153,response,ISIC_0025970.JPG,5,ISIC_9798721.JPG,ISIC_9798721.JPG,false,0,keypress(z),500,450717.6000000015,450717.6000000015,446652.185,446668.30000000075,446686.448,450722.904,8,400,11,,ISIC_0025970.JPG
break,html.Screen,4_60_1,2023-11-01T17:20:51.690Z,,0,,,NaN,,,,,,false,,,,450717.90000000224,450717.80000000075,,450717.69999999925,,450722.904,8,400,,,
break_continue,html.Screen,4_60_2,2023-11-01T17:20:51.690Z,,0,,,NaN,,,,,,false,,,,450718.1000000015,450718,,450717.90000000224,,450722.904,8,400,,,
sequence,flow.Sequence,4_60,2023-11-01T17:20:51.690Z,,0,,,4031.552000000025,completion,,,,,false,,,,450718.1000000015,450718,446652.185,446668.30000000075,446686.448,450722.904,8,400,,,
trial,html.Screen,4_61_0,2023-11-01T17:20:55.451Z,,0,2,,3756.2959999992745,response,ISIC_0054248.JPG,6,ISIC_6199335.JPG,ISIC_6199335.JPG,false,0,keypress(z),500,454479.30000000075,454479.19999999925,450706.396,450718.1000000015,450722.904,454493.317,8,400,12,,ISIC_0054248.JPG
break,html.Screen,4_61_1,2023-11-01T17:20:55.451Z,,0,,,NaN,,,,,,false,,,,454479.5,454479.40000000224,,454479.30000000075,,454493.317,8,400,,,
break_continue,html.Screen,4_61_2,2023-11-01T17:20:55.452Z,,0,,,NaN,,,,,,false,,,,454479.69999999925,454479.6000000015,,454479.5,,454493.317,8,400,,,
sequence,flow.Sequence,4_61,2023-11-01T17:20:55.452Z,,0,,,3756.6960000015097,completion,,,,,false,,,,454479.69999999925,454479.6000000015,450706.396,450718.1000000015,450722.904,454493.317,8,400,,,
trial,html.Screen,4_62_0,2023-11-01T17:20:59.565Z,,0,2,,4100.083000002254,response,ISIC_2546644.JPG,5,ISIC_0069488.JPG,ISIC_2546644.JPG,false,1,keypress(m),500,458593.6000000015,458593.40000000224,454476.845,454479.90000000224,454493.317,458597.447,8,400,13,,ISIC_0069488.JPG
break,html.Screen,4_62_1,2023-11-01T17:20:59.566Z,,0,,,NaN,,,,,,false,,,,458593.90000000224,458593.69999999925,,458593.69999999925,,458597.447,8,400,,,
break_continue,html.Screen,4_62_2,2023-11-01T17:20:59.566Z,,0,,,NaN,,,,,,false,,,,458594,458594,,458593.90000000224,,458597.447,8,400,,,
sequence,flow.Sequence,4_62,2023-11-01T17:20:59.566Z,,0,,,4100.683000000019,completion,,,,,false,,,,458594.1000000015,458594,454476.845,454479.90000000224,454493.317,458597.447,8,400,,,
trial,html.Screen,4_63_0,2023-11-01T17:21:03.424Z,,0,2,,3854.1530000015046,response,ISIC_0028759.JPG,5,ISIC_0070961.JPG,ISIC_0028759.JPG,false,1,keypress(m),500,462451.69999999925,462451.6000000015,458580.711,458594.1000000015,458597.447,462468.211,8,400,14,,ISIC_0070961.JPG
break,html.Screen,4_63_1,2023-11-01T17:21:03.424Z,,0,,,NaN,,,,,,false,,,,462452,462451.90000000224,,462451.80000000075,,462468.211,8,400,,,
break_continue,html.Screen,4_63_2,2023-11-01T17:21:03.424Z,,0,,,NaN,,,,,,false,,,,462452.19999999925,462452.1000000015,,462452.1000000015,,462468.211,8,400,,,
sequence,flow.Sequence,4_63,2023-11-01T17:21:03.424Z,,0,,,3854.6530000015046,completion,,,,,false,,,,462452.19999999925,462452.1000000015,458580.711,458594.1000000015,458597.447,462468.211,8,400,,,
trial,html.Screen,4_64_0,2023-11-01T17:21:07.874Z,,0,2,,4433.38900000148,response,ISIC_1945381.JPG,5,ISIC_6981061.JPG,ISIC_6981061.JPG,false,0,keypress(z),500,466901.69999999925,466901.6000000015,462451.552,462452.19999999925,462468.211,466905.661,8,400,15,,ISIC_1945381.JPG
break,html.Screen,4_64_1,2023-11-01T17:21:07.874Z,,0,,,NaN,,,,,,false,,,,466902,466901.90000000224,,466901.80000000075,,466905.661,8,400,,,
break_continue,html.Screen,4_64_2,2023-11-01T17:21:07.874Z,,0,,,NaN,,,,,,false,,,,466902.19999999925,466902.1000000015,,466902.1000000015,,466905.661,8,400,,,
sequence,flow.Sequence,4_64,2023-11-01T17:21:07.874Z,,0,,,4433.88900000148,completion,,,,,false,,,,466902.30000000075,466902.1000000015,462451.552,462452.19999999925,462468.211,466905.661,8,400,,,
trial,html.Screen,4_65_0,2023-11-01T17:21:11.171Z,,0,2,,3293.838999999978,response,ISIC_0014765.JPG,5,ISIC_0012369.JPG,ISIC_0014765.JPG,false,1,keypress(m),500,470199.6000000015,470199.5,466889.087,466902.30000000075,466905.661,470209.328,8,400,16,,ISIC_0012369.JPG
break,html.Screen,4_65_1,2023-11-01T17:21:11.172Z,,0,,,NaN,,,,,,false,,,,470199.80000000075,470199.80000000075,,470199.6000000015,,470209.328,8,400,,,
break_continue,html.Screen,4_65_2,2023-11-01T17:21:11.172Z,,0,,,NaN,,,,,,false,,,,470200,470199.90000000224,,470199.80000000075,,470209.328,8,400,,,
sequence,flow.Sequence,4_65,2023-11-01T17:21:11.172Z,,0,,,3294.2390000022133,completion,,,,,false,,,,470200,470199.90000000224,466889.087,466902.30000000075,466905.661,470209.328,8,400,,,
trial,html.Screen,4_66_0,2023-11-01T17:21:17.029Z,,0,2,,5847.772000001511,response,ISIC_0033318.JPG,5,ISIC_3432650.JPG,ISIC_3432650.JPG,false,0,keypress(z),500,476057.19999999925,476057.1000000015,470192.514,470200,470209.328,476064.883,8,400,17,,ISIC_0033318.JPG
break,html.Screen,4_66_1,2023-11-01T17:21:17.029Z,,0,,,NaN,,,,,,false,,,,476057.5,476057.40000000224,,476057.30000000075,,476064.883,8,400,,,
break_continue,html.Screen,4_66_2,2023-11-01T17:21:17.030Z,,0,,,NaN,,,,,,false,,,,476057.69999999925,476057.69999999925,,476057.6000000015,,476064.883,8,400,,,
sequence,flow.Sequence,4_66,2023-11-01T17:21:17.030Z,,0,,,5848.371999999275,completion,,,,,false,,,,476057.80000000075,476057.69999999925,470192.514,470200,470209.328,476064.883,8,400,,,
trial,html.Screen,4_67_0,2023-11-01T17:21:20.839Z,,0,2,,3802.4170000007725,response,ISIC_0033573.JPG,5,ISIC_1570390.JPG,ISIC_1570390.JPG,false,0,keypress(z),500,479867.40000000224,479867.30000000075,476048.173,476057.80000000075,476064.883,479886.452,8,400,18,,ISIC_0033573.JPG
break,html.Screen,4_67_1,2023-11-01T17:21:20.840Z,,0,,,NaN,,,,,,false,,,,479868.1000000015,479868.1000000015,,479867.90000000224,,479886.452,8,400,,,
break_continue,html.Screen,4_67_2,2023-11-01T17:21:20.840Z,,0,,,NaN,,,,,,false,,,,479868.40000000224,479868.30000000075,,479868.19999999925,,479886.452,8,400,,,
sequence,flow.Sequence,4_67,2023-11-01T17:21:20.840Z,,0,,,3803.4170000007725,completion,,,,,false,,,,479868.40000000224,479868.30000000075,476048.173,476057.80000000075,476064.883,479886.452,8,400,,,
trial,html.Screen,4_68_0,2023-11-01T17:21:24.122Z,,0,2,,3263.2479999992647,response,ISIC_7759376.JPG,4,ISIC_2916754.JPG,ISIC_7759376.JPG,false,1,keypress(m),500,483149.80000000075,483149.69999999925,479852.205,479868.5,479886.452,483155.512,8,400,19,,ISIC_2916754.JPG
break,html.Screen,4_68_1,2023-11-01T17:21:24.122Z,,0,,,NaN,,,,,,false,,,,483150.1000000015,483150,,483149.80000000075,,483155.512,8,400,,,
break_continue,html.Screen,4_68_2,2023-11-01T17:21:24.122Z,,0,,,NaN,,,,,,false,,,,483150.19999999925,483150.19999999925,,483150.1000000015,,483155.512,8,400,,,
sequence,flow.Sequence,4_68,2023-11-01T17:21:24.122Z,,0,,,3263.7479999992647,completion,,,,,false,,,,483150.30000000075,483150.19999999925,479852.205,479868.40000000224,479886.452,483155.512,8,400,,,
trial,html.Screen,4_69_0,2023-11-01T17:21:28.172Z,,0,2,,4044.288000000757,response,ISIC_0011684.JPG,5,ISIC_4596803.JPG,ISIC_4596803.JPG,false,0,keypress(z),500,487199.90000000224,487199.80000000075,483138.851,483150.30000000075,483155.512,487209.645,8,400,20,,ISIC_0011684.JPG
break,html.Screen,4_69_1,2023-11-01T17:21:28.172Z,,0,,,NaN,,,,,,false,,,,487200.19999999925,487200.1000000015,,487200,,487209.645,8,400,,,
break_continue,html.Screen,4_69_2,2023-11-01T17:21:28.172Z,,0,,,NaN,,,,,,false,,,,487200.40000000224,487200.30000000075,,487200.19999999925,,487209.645,8,400,,,
sequence,flow.Sequence,4_69,2023-11-01T17:21:28.172Z,,0,,,4044.788000000757,completion,,,,,false,,,,487200.40000000224,487200.30000000075,483138.851,483150.30000000075,483155.512,487209.645,8,400,,,
trial,html.Screen,4_70_0,2023-11-01T17:21:31.582Z,,0,2,,3400.1550000007264,response,ISIC_0013136.JPG,5,ISIC_8866651.JPG,ISIC_0013136.JPG,false,1,keypress(m),500,490610,490609.80000000075,487192.673,487200.40000000224,487209.645,490612.802,8,400,21,,ISIC_8866651.JPG
break,html.Screen,4_70_1,2023-11-01T17:21:31.583Z,,0,,,NaN,,,,,,false,,,,490610.30000000075,490610.19999999925,,490610,,490612.802,8,400,,,
break_continue,html.Screen,4_70_2,2023-11-01T17:21:31.583Z,,0,,,NaN,,,,,,false,,,,490610.40000000224,490610.40000000224,,490610.40000000224,,490612.802,8,400,,,
sequence,flow.Sequence,4_70,2023-11-01T17:21:31.583Z,,0,,,3400.7550000022165,completion,,,,,false,,,,490610.5,490610.40000000224,487192.673,487200.40000000224,487209.645,490612.802,8,400,,,
trial,html.Screen,4_71_0,2023-11-01T17:21:39.793Z,,0,2,,8207.197999999975,response,ISIC_5063476.JPG,6,ISIC_0013565.JPG,ISIC_0013565.JPG,false,0,keypress(z),500,498820.19999999925,498820,490596.314,490610.5,490612.802,498838.081,8,400,22,,ISIC_5063476.JPG
break,html.Screen,4_71_1,2023-11-01T17:21:39.793Z,,0,,,NaN,,,,,,false,,,,498820.5,498820.30000000075,,498820.30000000075,,498838.081,8,400,,,
break_continue,html.Screen,4_71_2,2023-11-01T17:21:39.793Z,,0,,,NaN,,,,,,false,,,,498820.6000000015,498820.5,,498820.5,,498838.081,8,400,,,
sequence,flow.Sequence,4_71,2023-11-01T17:21:39.793Z,,0,,,8207.697999999975,completion,,,,,false,,,,498820.69999999925,498820.5,490596.314,490610.5,490612.802,498838.081,8,400,,,
trial,html.Screen,4_72_0,2023-11-01T17:21:43.170Z,,0,2,,3359.5190000014845,response,ISIC_0011665.JPG,5,ISIC_1097830.JPG,ISIC_1097830.JPG,false,0,keypress(z),500,502197.69999999925,502197.6000000015,498804.289,498820.69999999925,498838.081,502207.729,8,400,23,,ISIC_0011665.JPG
break,html.Screen,4_72_1,2023-11-01T17:21:43.170Z,,0,,,NaN,,,,,,false,,,,502198,502197.90000000224,,502197.80000000075,,502207.729,8,400,,,
break_continue,html.Screen,4_72_2,2023-11-01T17:21:43.171Z,,0,,,NaN,,,,,,false,,,,502198.19999999925,502198.1000000015,,502198.1000000015,,502207.729,8,400,,,
sequence,flow.Sequence,4_72,2023-11-01T17:21:43.171Z,,0,,,3360.0190000014845,completion,,,,,false,,,,502198.19999999925,502198.1000000015,498804.289,498820.69999999925,498838.081,502207.729,8,400,,,
trial,html.Screen,4_73_0,2023-11-01T17:21:46.644Z,,0,2,,3463.771000000008,response,ISIC_2700320.JPG,5,ISIC_0027591.JPG,ISIC_0027591.JPG,false,0,keypress(z),500,505671.6000000015,505671.5,502191.247,502198.30000000075,502207.729,505677.845,8,400,24,,ISIC_2700320.JPG
break,html.Screen,4_73_1,2023-11-01T17:21:46.644Z,,0,,,NaN,,,,,,false,,,,505671.90000000224,505671.90000000224,,505671.69999999925,,505677.845,8,400,,,
break_continue,html.Screen,4_73_2,2023-11-01T17:21:46.644Z,,0,,,NaN,,,,,,false,,,,505672,505671.90000000224,,505671.90000000224,,505677.845,8,400,,,
sequence,flow.Sequence,4_73,2023-11-01T17:21:46.645Z,,0,,,3464.171000002243,completion,,,,,false,,,,505672.1000000015,505671.90000000224,502191.247,502198.30000000075,502207.729,505677.845,8,400,,,
trial,html.Screen,4_74_0,2023-11-01T17:21:51.830Z,,0,2,,5180.055000002263,response,ISIC_0012706.JPG,4,ISIC_0030342.JPG,ISIC_0030342.JPG,false,0,keypress(z),500,510858.1000000015,510857.90000000224,505661.154,505672.1000000015,505677.845,510866.569,8,400,25,,ISIC_0012706.JPG
break,html.Screen,4_74_1,2023-11-01T17:21:51.831Z,,0,,,NaN,,,,,,false,,,,510858.30000000075,510858.19999999925,,510858.1000000015,,510866.569,8,400,,,
break_continue,html.Screen,4_74_2,2023-11-01T17:21:51.831Z,,0,,,NaN,,,,,,false,,,,510858.40000000224,510858.40000000224,,510858.30000000075,,510866.569,8,400,,,
sequence,flow.Sequence,4_74,2023-11-01T17:21:51.831Z,,0,,,5180.555000002263,completion,,,,,false,,,,510858.5,510858.40000000224,505661.154,505672.1000000015,505677.845,510866.569,8,400,,,
trial,html.Screen,4_75_0,2023-11-01T17:21:57.336Z,,0,2,,5497.130999999237,response,ISIC_7592920.JPG,5,ISIC_0056679.JPG,ISIC_0056679.JPG,false,0,keypress(z),500,516363.80000000075,516363.69999999925,510849.86,510858.6000000015,510866.569,516372.102,8,400,26,,ISIC_7592920.JPG
break,html.Screen,4_75_1,2023-11-01T17:21:57.337Z,,0,,,NaN,,,,,,false,,,,516364.1000000015,516364,,516363.90000000224,,516372.102,8,400,,,
break_continue,html.Screen,4_75_2,2023-11-01T17:21:57.337Z,,0,,,NaN,,,,,,false,,,,516364.40000000224,516364.30000000075,,516364.1000000015,,516372.102,8,400,,,
sequence,flow.Sequence,4_75,2023-11-01T17:21:57.337Z,,0,,,5497.731000000727,completion,,,,,false,,,,516364.5,516364.30000000075,510849.86,510858.6000000015,510866.569,516372.102,8,400,,,
trial,html.Screen,4_76_0,2023-11-01T17:22:00.858Z,,0,2,,3513.6980000007316,response,ISIC_0698821.JPG,6,ISIC_8265105.JPG,ISIC_0698821.JPG,false,1,keypress(m),500,519885.90000000224,519885.80000000075,516355.353,516364.6000000015,516372.102,519892.264,8,400,27,,ISIC_8265105.JPG
break,html.Screen,4_76_1,2023-11-01T17:22:00.859Z,,0,,,NaN,,,,,,false,,,,519886.19999999925,519886.19999999925,,519886,,519892.264,8,400,,,
break_continue,html.Screen,4_76_2,2023-11-01T17:22:00.859Z,,0,,,NaN,,,,,,false,,,,519886.30000000075,519886.30000000075,,519886.30000000075,,519892.264,8,400,,,
sequence,flow.Sequence,4_76,2023-11-01T17:22:00.859Z,,0,,,3514.1980000007316,completion,,,,,false,,,,519886.40000000224,519886.30000000075,516355.353,516364.5,516372.102,519892.264,8,400,,,
trial,html.Screen,4_77_0,2023-11-01T17:22:03.933Z,,0,2,,3067.8360000014654,response,ISIC_0057015.JPG,5,ISIC_9276931.JPG,ISIC_9276931.JPG,false,0,keypress(z),500,522960.30000000075,522960.1000000015,519875.33,519886.5,519892.264,522961.677,8,400,28,,ISIC_0057015.JPG
break,html.Screen,4_77_1,2023-11-01T17:22:03.933Z,,0,,,NaN,,,,,,false,,,,522960.5,522960.5,,522960.30000000075,,522961.677,8,400,,,
break_continue,html.Screen,4_77_2,2023-11-01T17:22:03.933Z,,0,,,NaN,,,,,,false,,,,522960.6000000015,522960.6000000015,,522960.6000000015,,522961.677,8,400,,,
sequence,flow.Sequence,4_77,2023-11-01T17:22:03.933Z,,0,,,3068.3360000014654,completion,,,,,false,,,,522960.69999999925,522960.6000000015,519875.33,519886.40000000224,519892.264,522961.677,8,400,,,
trial,html.Screen,4_78_0,2023-11-01T17:22:07.839Z,,0,2,,3904.822999999975,response,ISIC_8009880.JPG,5,ISIC_0027130.JPG,ISIC_8009880.JPG,false,1,keypress(m),500,526866.6999999993,526866.5,522945.434,522960.69999999925,522961.677,526882.672,8,400,29,,ISIC_0027130.JPG
break,html.Screen,4_78_1,2023-11-01T17:22:07.839Z,,0,,,NaN,,,,,,false,,,,526867,526866.9000000022,,526866.6999999993,,526882.672,8,400,,,
break_continue,html.Screen,4_78_2,2023-11-01T17:22:07.840Z,,0,,,NaN,,,,,,false,,,,526867.1999999993,526867.1999999993,,526867.1000000015,,526882.672,8,400,,,
sequence,flow.Sequence,4_78,2023-11-01T17:22:07.840Z,,0,,,3905.52299999923,completion,,,,,false,,,,526867.3000000007,526867.1999999993,522945.434,522960.69999999925,522961.677,526882.672,8,400,,,
trial,html.Screen,4_79_0,2023-11-01T17:22:11.426Z,,0,2,,3570.8279999999795,response,ISIC_0015256.JPG,6,ISIC_5110133.JPG,ISIC_5110133.JPG,false,0,keypress(z),500,530453.6000000015,530453.5,526865.929,526867.4000000022,526882.672,530469.32,8,400,30,,ISIC_0015256.JPG
break,html.Screen,4_79_1,2023-11-01T17:22:11.426Z,,0,,,NaN,,,,,,false,,,,530453.8000000007,530453.6999999993,,530453.6000000015,,530469.32,8,400,,,
break_continue,html.Screen,4_79_2,2023-11-01T17:22:11.426Z,,0,,,NaN,,,,,,false,,,,530453.9000000022,530453.9000000022,,530453.8000000007,,530469.32,8,400,,,
sequence,flow.Sequence,4_79,2023-11-01T17:22:11.426Z,,0,,,3571.2280000022147,completion,,,,,false,,,,530454,530453.9000000022,526865.929,526867.4000000022,526882.672,530469.32,8,400,,,
trial,html.Screen,4_80_0,2023-11-01T17:22:15.652Z,,0,2,,4209.680000000051,response,ISIC_0066674.JPG,4,ISIC_8066110.JPG,ISIC_8066110.JPG,false,0,keypress(z),500,534679.1000000015,534679,530452.81,530454,530469.32,534690.11,8,400,31,,ISIC_0066674.JPG
break,html.Screen,4_80_1,2023-11-01T17:22:15.652Z,,0,,,NaN,,,,,,false,,,,534679.4000000022,534679.3000000007,,534679.1000000015,,534690.11,8,400,,,
break_continue,html.Screen,4_80_2,2023-11-01T17:22:15.652Z,,0,,,NaN,,,,,,false,,,,534679.5,534679.4000000022,,534679.4000000022,,534690.11,8,400,,,
sequence,flow.Sequence,4_80,2023-11-01T17:22:15.652Z,,0,,,4210.080000002286,completion,,,,,false,,,,534679.6000000015,534679.4000000022,530452.81,530454,530469.32,534690.11,8,400,,,
trial,html.Screen,4_81_0,2023-11-01T17:22:18.741Z,,0,2,,3078.589999999269,response,ISIC_7249063.JPG,5,ISIC_0033099.JPG,ISIC_7249063.JPG,false,1,keypress(m),500,537768.8000000007,537768.6999999993,534673.722,534679.6000000015,534690.11,537776.571,8,400,32,,ISIC_0033099.JPG
break,html.Screen,4_81_1,2023-11-01T17:22:18.742Z,,0,,,NaN,,,,,,false,,,,537769.1000000015,537769,,537768.9000000022,,537776.571,8,400,,,
break_continue,html.Screen,4_81_2,2023-11-01T17:22:18.742Z,,0,,,NaN,,,,,,false,,,,537769.3000000007,537769.3000000007,,537769.1999999993,,537776.571,8,400,,,
sequence,flow.Sequence,4_81,2023-11-01T17:22:18.742Z,,0,,,3079.190000000759,completion,,,,,false,,,,537769.3000000007,537769.3000000007,534673.722,534679.6000000015,534690.11,537776.571,8,400,,,
trial,html.Screen,4_82_0,2023-11-01T17:22:21.976Z,,0,2,,3226.829000002239,response,ISIC_0010007.JPG,4,ISIC_8297563.JPG,ISIC_8297563.JPG,false,0,keypress(z),500,541003.5,541003.4000000022,537760.246,537769.4000000022,537776.571,541013.132,8,400,33,,ISIC_0010007.JPG
break,html.Screen,4_82_1,2023-11-01T17:22:21.976Z,,0,,,NaN,,,,,,false,,,,541003.6999999993,541003.6999999993,,541003.5,,541013.132,8,400,,,
break_continue,html.Screen,4_82_2,2023-11-01T17:22:21.976Z,,0,,,NaN,,,,,,false,,,,541003.8000000007,541003.8000000007,,541003.8000000007,,541013.132,8,400,,,
sequence,flow.Sequence,4_82,2023-11-01T17:22:21.976Z,,0,,,3227.229000000749,completion,,,,,false,,,,541003.9000000022,541003.8000000007,537760.246,537769.4000000022,537776.571,541013.132,8,400,,,
trial,html.Screen,4_83_0,2023-11-01T17:22:26.266Z,,0,2,,4280.468000001507,response,ISIC_8248922.JPG,5,ISIC_4933735.JPG,ISIC_8248922.JPG,false,1,keypress(m),500,545293.6999999993,545293.6000000015,540996.742,541004,541013.132,545301.019,8,400,34,,ISIC_4933735.JPG
break,html.Screen,4_83_1,2023-11-01T17:22:26.267Z,,0,,,NaN,,,,,,false,,,,545294.1000000015,545294,,545293.8000000007,,545301.019,8,400,,,
break_continue,html.Screen,4_83_2,2023-11-01T17:22:26.267Z,,0,,,NaN,,,,,,false,,,,545294.3000000007,545294.1999999993,,545294.1000000015,,545301.019,8,400,,,
sequence,flow.Sequence,4_83,2023-11-01T17:22:26.267Z,,0,,,4281.067999999272,completion,,,,,false,,,,545294.4000000022,545294.1999999993,540996.742,541003.9000000022,541013.132,545301.019,8,400,,,
trial,html.Screen,4_84_0,2023-11-01T17:22:29.436Z,,0,2,,3162.680999999284,response,ISIC_6640753.JPG,5,ISIC_0032699.JPG,ISIC_6640753.JPG,false,1,keypress(m),500,548463.8000000007,548463.6999999993,545284.043,545294.5,545301.019,548470.842,8,400,35,,ISIC_0032699.JPG
break,html.Screen,4_84_1,2023-11-01T17:22:29.437Z,,0,,,NaN,,,,,,false,,,,548464.1000000015,548464.1000000015,,548463.9000000022,,548470.842,8,400,,,
break_continue,html.Screen,4_84_2,2023-11-01T17:22:29.437Z,,0,,,NaN,,,,,,false,,,,548464.3000000007,548464.1999999993,,548464.1999999993,,548470.842,8,400,,,
sequence,flow.Sequence,4_84,2023-11-01T17:22:29.437Z,,0,,,3163.180999999284,completion,,,,,false,,,,548464.4000000022,548464.1999999993,545284.043,545294.5,545301.019,548470.842,8,400,,,
trial,html.Screen,4_85_0,2023-11-01T17:22:33.150Z,,0,2,,3706.458000000799,response,ISIC_0031208.JPG,6,ISIC_0011496.JPG,ISIC_0031208.JPG,false,1,keypress(m),500,552177.4000000022,552177.3000000007,548453.867,548464.5,548470.842,552191.267,8,400,36,,ISIC_0011496.JPG
break,html.Screen,4_85_1,2023-11-01T17:22:33.151Z,,0,,,NaN,,,,,,false,,,,552177.6000000015,552177.6000000015,,552177.4000000022,,552191.267,8,400,,,
break_continue,html.Screen,4_85_2,2023-11-01T17:22:33.151Z,,0,,,NaN,,,,,,false,,,,552177.9000000022,552177.8000000007,,552177.6000000015,,552191.267,8,400,,,
sequence,flow.Sequence,4_85,2023-11-01T17:22:33.151Z,,0,,,3706.958000000799,completion,,,,,false,,,,552177.9000000022,552177.8000000007,548453.867,548464.4000000022,548470.842,552191.267,8,400,,,
trial,html.Screen,4_86_0,2023-11-01T17:22:38.241Z,,0,2,,5076.133000002243,response,ISIC_0056790.JPG,5,ISIC_3198111.JPG,ISIC_3198111.JPG,false,0,keypress(z),500,557267.5,557267.4000000022,552174.335,552177.9000000022,552191.267,557279.357,8,400,37,,ISIC_0056790.JPG
break,html.Screen,4_86_1,2023-11-01T17:22:38.241Z,,0,,,NaN,,,,,,false,,,,557267.9000000022,557267.8000000007,,557267.6000000015,,557279.357,8,400,,,
break_continue,html.Screen,4_86_2,2023-11-01T17:22:38.241Z,,0,,,NaN,,,,,,false,,,,557268,557267.9000000022,,557267.9000000022,,557279.357,8,400,,,
sequence,flow.Sequence,4_86,2023-11-01T17:22:38.241Z,,0,,,5076.633000002243,completion,,,,,false,,,,557268.1000000015,557267.9000000022,552174.335,552177.9000000022,552191.267,557279.357,8,400,,,
trial,html.Screen,4_87_0,2023-11-01T17:22:43.827Z,,0,2,,5574.342999999295,response,ISIC_2724278.JPG,5,ISIC_0645834.JPG,ISIC_0645834.JPG,false,0,keypress(z),500,562853.8000000007,562853.6999999993,557262.687,557268.1000000015,557279.357,562868.502,8,400,38,,ISIC_2724278.JPG
break,html.Screen,4_87_1,2023-11-01T17:22:43.827Z,,0,,,NaN,,,,,,false,,,,562854.1999999993,562854,,562853.9000000022,,562868.502,8,400,,,
break_continue,html.Screen,4_87_2,2023-11-01T17:22:43.828Z,,0,,,NaN,,,,,,false,,,,562854.5,562854.3000000007,,562854.3000000007,,562868.502,8,400,,,
sequence,flow.Sequence,4_87,2023-11-01T17:22:43.828Z,,0,,,5574.943000000785,completion,,,,,false,,,,562854.6000000015,562854.3000000007,557262.687,557268.1000000015,557279.357,562868.502,8,400,,,
trial,html.Screen,4_88_0,2023-11-01T17:22:48.725Z,,0,2,,4883.697999999276,response,ISIC_0024244.JPG,5,ISIC_0067206.JPG,ISIC_0024244.JPG,false,1,keypress(m),500,567752.1999999993,567752.1999999993,562851.831,562854.6999999993,562868.502,567756.566,8,400,39,,ISIC_0067206.JPG
break,html.Screen,4_88_1,2023-11-01T17:22:48.726Z,,0,,,NaN,,,,,,false,,,,567752.5,567752.5,,567752.3000000007,,567756.566,8,400,,,
break_continue,html.Screen,4_88_2,2023-11-01T17:22:48.726Z,,0,,,NaN,,,,,,false,,,,567752.8000000007,567752.6999999993,,567752.6000000015,,567756.566,8,400,,,
sequence,flow.Sequence,4_88,2023-11-01T17:22:48.726Z,,0,,,4884.197999999276,completion,,,,,false,,,,567752.8000000007,567752.6999999993,562851.831,562854.6999999993,562868.502,567756.566,8,400,,,
trial,html.Screen,4_89_0,2023-11-01T17:22:52.776Z,,0,2,,4046.7340000007534,response,ISIC_0066798.JPG,5,ISIC_7867077.JPG,ISIC_0066798.JPG,false,1,keypress(m),500,571803.4000000022,571803.3000000007,567739.793,567753,567756.566,571810.795,8,400,40,,ISIC_7867077.JPG
break,html.Screen,4_89_1,2023-11-01T17:22:52.777Z,,0,,,NaN,,,,,,false,,,,571803.6999999993,571803.6999999993,,571803.5,,571810.795,8,400,,,
break_continue,html.Screen,4_89_2,2023-11-01T17:22:52.777Z,,0,,,NaN,,,,,,false,,,,571803.9000000022,571803.8000000007,,571803.6999999993,,571810.795,8,400,,,
sequence,flow.Sequence,4_89,2023-11-01T17:22:52.777Z,,0,,,4047.2340000007534,completion,,,,,false,,,,571804,571803.8000000007,567739.793,567752.9000000022,567756.566,571810.795,8,400,,,
trial,html.Screen,4_90_0,2023-11-01T17:22:57.562Z,,0,2,,4778.105000002193,response,ISIC_8504492.JPG,5,ISIC_2554114.JPG,ISIC_8504492.JPG,false,1,keypress(m),500,576589,576588.9000000022,571794.205,571804,571810.795,576598.685,8,400,41,,ISIC_2554114.JPG
break,html.Screen,4_90_1,2023-11-01T17:22:57.562Z,,0,,,NaN,,,,,,false,,,,576589.1999999993,576589.1000000015,,576589,,576598.685,8,400,,,
break_continue,html.Screen,4_90_2,2023-11-01T17:22:57.562Z,,0,,,NaN,,,,,,false,,,,576589.4000000022,576589.3000000007,,576589.3000000007,,576598.685,8,400,,,
sequence,flow.Sequence,4_90,2023-11-01T17:22:57.562Z,,0,,,4778.505000000703,completion,,,,,false,,,,576589.5,576589.3000000007,571794.205,571804,571810.795,576598.685,8,400,,,
trial,html.Screen,4_91_0,2023-11-01T17:23:00.763Z,,0,2,,3191.2150000021793,response,ISIC_0010644.JPG,4,ISIC_0028565.JPG,ISIC_0028565.JPG,false,0,keypress(z),500,579790,579789.9000000022,576582.077,576589.5,576598.685,579801.99,8,400,42,,ISIC_0010644.JPG
break,html.Screen,4_91_1,2023-11-01T17:23:00.763Z,,0,,,NaN,,,,,,false,,,,579790.3000000007,579790.3000000007,,579790.1000000015,,579801.99,8,400,,,
break_continue,html.Screen,4_91_2,2023-11-01T17:23:00.764Z,,0,,,NaN,,,,,,false,,,,579790.6000000015,579790.5,,579790.4000000022,,579801.99,8,400,,,
sequence,flow.Sequence,4_91,2023-11-01T17:23:00.764Z,,0,,,3191.814999999944,completion,,,,,false,,,,579790.6999999993,579790.5,576582.077,576589.5,576598.685,579801.99,8,400,,,
trial,html.Screen,4_92_0,2023-11-01T17:23:05.245Z,,0,2,,4470.110000001499,response,ISIC_0010965.JPG,5,ISIC_9572152.JPG,ISIC_9572152.JPG,false,0,keypress(z),500,584272.1999999993,584272.1000000015,579785.432,579790.6999999993,579801.99,584290.06,8,400,43,,ISIC_0010965.JPG
break,html.Screen,4_92_1,2023-11-01T17:23:05.245Z,,0,,,NaN,,,,,,false,,,,584272.5,584272.4000000022,,584272.1999999993,,584290.06,8,400,,,
break_continue,html.Screen,4_92_2,2023-11-01T17:23:05.246Z,,0,,,NaN,,,,,,false,,,,584272.6000000015,584272.6000000015,,584272.5,,584290.06,8,400,,,
sequence,flow.Sequence,4_92,2023-11-01T17:23:05.246Z,,0,,,4470.610000001499,completion,,,,,false,,,,584272.6999999993,584272.6000000015,579785.432,579790.6999999993,579801.99,584290.06,8,400,,,
trial,html.Screen,4_93_0,2023-11-01T17:23:09.487Z,,0,2,,4223.740000000689,response,ISIC_3564136.JPG,5,ISIC_0062323.JPG,ISIC_3564136.JPG,false,1,keypress(m),500,588513.9000000022,588513.8000000007,584256.647,584272.6999999993,584290.06,588527.527,8,400,44,,ISIC_0062323.JPG
break,html.Screen,4_93_1,2023-11-01T17:23:09.487Z,,0,,,NaN,,,,,,false,,,,588514.1999999993,588514.1000000015,,588514,,588527.527,8,400,,,
break_continue,html.Screen,4_93_2,2023-11-01T17:23:09.487Z,,0,,,NaN,,,,,,false,,,,588514.3000000007,588514.3000000007,,588514.1999999993,,588527.527,8,400,,,
sequence,flow.Sequence,4_93,2023-11-01T17:23:09.487Z,,0,,,4224.240000000689,completion,,,,,false,,,,588514.3000000007,588514.3000000007,584256.647,584272.6999999993,584290.06,588527.527,8,400,,,
trial,html.Screen,4_94_0,2023-11-01T17:23:13.201Z,,0,2,,3700.0730000014883,response,ISIC_0025891.JPG,5,ISIC_0256715.JPG,ISIC_0025891.JPG,false,1,keypress(m),500,592227.6999999993,592227.6000000015,588510.836,588514.4000000022,588527.527,592231.019,8,400,45,,ISIC_0256715.JPG
break,html.Screen,4_94_1,2023-11-01T17:23:13.201Z,,0,,,NaN,,,,,,false,,,,592228,592227.9000000022,,592227.8000000007,,592231.019,8,400,,,
break_continue,html.Screen,4_94_2,2023-11-01T17:23:13.201Z,,0,,,NaN,,,,,,false,,,,592228.1999999993,592228.1000000015,,592228,,592231.019,8,400,,,
sequence,flow.Sequence,4_94,2023-11-01T17:23:13.201Z,,0,,,3700.5730000014883,completion,,,,,false,,,,592228.1999999993,592228.1000000015,588510.836,588514.3000000007,588527.527,592231.019,8,400,,,
trial,html.Screen,4_95_0,2023-11-01T17:23:19.011Z,,0,2,,5806.481000000029,response,ISIC_0027432.JPG,5,ISIC_1794249.JPG,ISIC_0027432.JPG,false,1,keypress(m),500,598037.6000000015,598037.5,592214.255,592228.1999999993,592231.019,598053.446,8,400,46,,ISIC_1794249.JPG
break,html.Screen,4_95_1,2023-11-01T17:23:19.011Z,,0,,,NaN,,,,,,false,,,,598037.8000000007,598037.8000000007,,598037.6000000015,,598053.446,8,400,,,
break_continue,html.Screen,4_95_2,2023-11-01T17:23:19.011Z,,0,,,NaN,,,,,,false,,,,598038.1000000015,598038,,598037.9000000022,,598053.446,8,400,,,
sequence,flow.Sequence,4_95,2023-11-01T17:23:19.011Z,,0,,,5806.981000000029,completion,,,,,false,,,,598038.1000000015,598038,592214.255,592228.1999999993,592231.019,598053.446,8,400,,,
trial,html.Screen,4_96_0,2023-11-01T17:23:22.661Z,,0,2,,3634.2539999992587,response,ISIC_0073119.JPG,5,ISIC_9017110.JPG,ISIC_0073119.JPG,false,1,keypress(m),500,601687.8000000007,601687.6999999993,598037.063,598038.1999999993,598053.446,601690.416,8,400,47,,ISIC_9017110.JPG
break,html.Screen,4_96_1,2023-11-01T17:23:22.661Z,,0,,,NaN,,,,,,false,,,,601688,601688,,601687.9000000022,,601690.416,8,400,,,
break_continue,html.Screen,4_96_2,2023-11-01T17:23:22.661Z,,0,,,NaN,,,,,,false,,,,601688.3000000007,601688.1999999993,,601688.1000000015,,601690.416,8,400,,,
sequence,flow.Sequence,4_96,2023-11-01T17:23:22.661Z,,0,,,3634.7539999992587,completion,,,,,false,,,,601688.4000000022,601688.1999999993,598037.063,598038.1999999993,598053.446,601690.416,8,400,,,
trial,html.Screen,4_97_0,2023-11-01T17:23:27.222Z,,0,2,,4558.384000000777,response,ISIC_0025085.JPG,4,ISIC_0073119.JPG,ISIC_0025085.JPG,false,1,keypress(m),500,606249,606248.8000000007,601674.032,601688.4000000022,601690.416,606261.735,8,400,48,,ISIC_0073119.JPG
break,html.Screen,4_97_1,2023-11-01T17:23:27.222Z,,0,,,NaN,,,,,,false,,,,606249.1999999993,606249.1000000015,,606249,,606261.735,8,400,,,
break_continue,html.Screen,4_97_2,2023-11-01T17:23:27.222Z,,0,,,NaN,,,,,,false,,,,606249.4000000022,606249.4000000022,,606249.3000000007,,606261.735,8,400,,,
sequence,flow.Sequence,4_97,2023-11-01T17:23:27.223Z,,0,,,4558.984000002267,completion,,,,,false,,,,606249.5,606249.4000000022,601674.032,601688.4000000022,601690.416,606261.735,8,400,,,
trial,html.Screen,4_98_0,2023-11-01T17:23:31.401Z,,0,2,,4165.265000000014,response,ISIC_0002184.JPG,4,ISIC_1501483.JPG,ISIC_0002184.JPG,false,1,keypress(m),500,610427.1999999993,610427,606245.018,606249.6000000015,606261.735,610432.555,8,400,49,,ISIC_1501483.JPG
break,html.Screen,4_98_1,2023-11-01T17:23:31.401Z,,0,,,NaN,,,,,,false,,,,610427.6000000015,610427.5,,610427.3000000007,,610432.555,8,400,,,
break_continue,html.Screen,4_98_2,2023-11-01T17:23:31.401Z,,0,,,NaN,,,,,,false,,,,610427.6999999993,610427.6999999993,,610427.6000000015,,610432.555,8,400,,,
sequence,flow.Sequence,4_98,2023-11-01T17:23:31.401Z,,0,,,4165.964999999269,completion,,,,,false,,,,610427.8000000007,610427.6999999993,606245.018,606249.5,606261.735,610432.555,8,400,,,
trial,html.Screen,4_99_0,2023-11-01T17:23:35.227Z,,0,2,,3820.944999999949,response,ISIC_2167209.JPG,5,ISIC_0054146.JPG,ISIC_2167209.JPG,false,1,keypress(m),500,614253.6000000015,614253.5,610416.102,610427.8000000007,610432.555,614269.669,8,400,50,,ISIC_0054146.JPG
break,html.Screen,4_99_1,2023-11-01T17:23:45.220Z,,0,,,9993.359000000055,timeout,,,,,false,,,,624247,624246.577,614252.961,614253.6000000015,614269.669,624263.028,8,400,,,
break_continue,html.Screen,4_99_2,2023-11-01T17:23:55.659Z,,0,,,10415.772000000696,response,,,,,false,continue,keypress(Space),,634685,634678.8000000007,624246.577,624247,624263.028,634690.082,8,400,,,
sequence,flow.Sequence,4_99,2023-11-01T17:23:55.659Z,,0,,,24246.245000000694,completion,,,,,false,,,,634685.1000000015,634678.8000000007,610416.102,610427.8000000007,610432.555,634690.082,8,400,,,
trial,html.Screen,4_100_0,2023-11-01T17:23:59.469Z,,0,3,,3805.417999999947,response,ISIC_3058800.JPG,5,ISIC_0013579.JPG,ISIC_3058800.JPG,false,1,keypress(m),500,638495.6000000015,638495.5,634673.166,634685.1000000015,634690.082,638510.742,8,400,1,,ISIC_0013579.JPG
break,html.Screen,4_100_1,2023-11-01T17:23:59.469Z,,0,,,NaN,,,,,,false,,,,638495.8000000007,638495.8000000007,,638495.6000000015,,638510.742,8,400,,,
break_continue,html.Screen,4_100_2,2023-11-01T17:23:59.470Z,,0,,,NaN,,,,,,false,,,,638496.1000000015,638496,,638496,,638510.742,8,400,,,
sequence,flow.Sequence,4_100,2023-11-01T17:23:59.470Z,,0,,,3805.917999999947,completion,,,,,false,,,,638496.1999999993,638496,634673.166,634685.1000000015,634690.082,638510.742,8,400,,,
trial,html.Screen,4_101_0,2023-11-01T17:24:03.391Z,,0,3,,3906.9579999992857,response,ISIC_0069556.JPG,5,ISIC_7172145.JPG,ISIC_7172145.JPG,false,0,keypress(z),500,642417.8000000007,642417.6999999993,638493.868,638496.4000000022,638510.742,642431.344,8,400,2,,ISIC_0069556.JPG
break,html.Screen,4_101_1,2023-11-01T17:24:03.392Z,,0,,,NaN,,,,,,false,,,,642418.1000000015,642418,,642417.9000000022,,642431.344,8,400,,,
break_continue,html.Screen,4_101_2,2023-11-01T17:24:03.392Z,,0,,,NaN,,,,,,false,,,,642418.3000000007,642418.1999999993,,642418.1000000015,,642431.344,8,400,,,
sequence,flow.Sequence,4_101,2023-11-01T17:24:03.392Z,,0,,,3907.4579999992857,completion,,,,,false,,,,642418.3000000007,642418.1999999993,638493.868,638496.3000000007,638510.742,642431.344,8,400,,,
trial,html.Screen,4_102_0,2023-11-01T17:24:08.337Z,,0,3,,4932.155999999959,response,ISIC_0011715.JPG,5,ISIC_1533305.JPG,ISIC_1533305.JPG,false,0,keypress(z),500,647363.6000000015,647363.5,642414.719,642418.4000000022,642431.344,647369.599,8,400,3,,ISIC_0011715.JPG
break,html.Screen,4_102_1,2023-11-01T17:24:08.337Z,,0,,,NaN,,,,,,false,,,,647363.9000000022,647363.8000000007,,647363.6000000015,,647369.599,8,400,,,
break_continue,html.Screen,4_102_2,2023-11-01T17:24:08.338Z,,0,,,NaN,,,,,,false,,,,647364.1000000015,647364,,647363.9000000022,,647369.599,8,400,,,
sequence,flow.Sequence,4_102,2023-11-01T17:24:08.338Z,,0,,,4932.655999999959,completion,,,,,false,,,,647364.1999999993,647364,642414.719,642418.4000000022,642431.344,647369.599,8,400,,,
trial,html.Screen,4_103_0,2023-11-01T17:24:12.980Z,,0,3,,4636.400999999954,response,ISIC_0046361.JPG,4,ISIC_8562820.JPG,ISIC_8562820.JPG,false,0,keypress(z),500,652006.1000000015,652006,647352.969,647364.3000000007,647369.599,652024.776,8,400,4,,ISIC_0046361.JPG
break,html.Screen,4_103_1,2023-11-01T17:24:12.980Z,,0,,,NaN,,,,,,false,,,,652006.3000000007,652006.3000000007,,652006.1000000015,,652024.776,8,400,,,
break_continue,html.Screen,4_103_2,2023-11-01T17:24:12.980Z,,0,,,NaN,,,,,,false,,,,652006.5,652006.4000000022,,652006.4000000022,,652024.776,8,400,,,
sequence,flow.Sequence,4_103,2023-11-01T17:24:12.980Z,,0,,,4636.8010000021895,completion,,,,,false,,,,652006.6000000015,652006.4000000022,647352.969,647364.1999999993,647369.599,652024.776,8,400,,,
trial,html.Screen,4_104_0,2023-11-01T17:24:17.365Z,,0,3,,4366.324000001536,response,ISIC_7641956.JPG,6,ISIC_7357474.JPG,ISIC_7357474.JPG,false,0,keypress(z),500,656391.1999999993,656391.1000000015,651990.882,652006.6000000015,652024.776,656395.078,8,400,5,,ISIC_7641956.JPG
break,html.Screen,4_104_1,2023-11-01T17:24:17.365Z,,0,,,NaN,,,,,,false,,,,656391.4000000022,656391.4000000022,,656391.3000000007,,656395.078,8,400,,,
break_continue,html.Screen,4_104_2,2023-11-01T17:24:17.365Z,,0,,,NaN,,,,,,false,,,,656391.6999999993,656391.6000000015,,656391.5,,656395.078,8,400,,,
sequence,flow.Sequence,4_104,2023-11-01T17:24:17.365Z,,0,,,4366.824000001536,completion,,,,,false,,,,656391.8000000007,656391.6000000015,651990.882,652006.6000000015,652024.776,656395.078,8,400,,,
trial,html.Screen,4_105_0,2023-11-01T17:24:20.870Z,,0,3,,3501.4220000000205,response,ISIC_0000814.JPG,5,ISIC_1497800.JPG,ISIC_0000814.JPG,false,1,keypress(m),500,659896.6000000015,659896.5,656378.687,656391.8000000007,656395.078,659898.613,8,400,6,,ISIC_1497800.JPG
break,html.Screen,4_105_1,2023-11-01T17:24:20.870Z,,0,,,NaN,,,,,,false,,,,659896.9000000022,659896.8000000007,,659896.6000000015,,659898.613,8,400,,,
break_continue,html.Screen,4_105_2,2023-11-01T17:24:20.871Z,,0,,,NaN,,,,,,false,,,,659897.1000000015,659897,,659897,,659898.613,8,400,,,
sequence,flow.Sequence,4_105,2023-11-01T17:24:20.871Z,,0,,,3501.9220000000205,completion,,,,,false,,,,659897.1000000015,659897,656378.687,656391.8000000007,656395.078,659898.613,8,400,,,
trial,html.Screen,4_106_0,2023-11-01T17:24:25.112Z,,0,3,,4240.086999999243,response,ISIC_0027274.JPG,6,ISIC_0029995.JPG,ISIC_0027274.JPG,false,1,keypress(m),500,664138.9000000022,664138.6999999993,659881.921,659897.1999999993,659898.613,664153.089,8,400,7,,ISIC_0029995.JPG
break,html.Screen,4_106_1,2023-11-01T17:24:25.113Z,,0,,,NaN,,,,,,false,,,,664139.1000000015,664139.1000000015,,664138.9000000022,,664153.089,8,400,,,
break_continue,html.Screen,4_106_2,2023-11-01T17:24:25.113Z,,0,,,NaN,,,,,,false,,,,664139.1999999993,664139.1999999993,,664139.1999999993,,664153.089,8,400,,,
sequence,flow.Sequence,4_106,2023-11-01T17:24:25.113Z,,0,,,4240.586999999243,completion,,,,,false,,,,664139.3000000007,664139.1999999993,659881.921,659897.1999999993,659898.613,664153.089,8,400,,,
trial,html.Screen,4_107_0,2023-11-01T17:24:28.234Z,,0,3,,3107.1109999992186,response,ISIC_5920470.JPG,5,ISIC_0064875.JPG,ISIC_5920470.JPG,false,1,keypress(m),500,667260.3000000007,667260.1999999993,664136.432,664139.4000000022,664153.089,667272.631,8,400,8,,ISIC_0064875.JPG
break,html.Screen,4_107_1,2023-11-01T17:24:28.234Z,,0,,,NaN,,,,,,false,,,,667260.6000000015,667260.5,,667260.3000000007,,667272.631,8,400,,,
break_continue,html.Screen,4_107_2,2023-11-01T17:24:28.234Z,,0,,,NaN,,,,,,false,,,,667260.6999999993,667260.6999999993,,667260.6000000015,,667272.631,8,400,,,
sequence,flow.Sequence,4_107,2023-11-01T17:24:28.234Z,,0,,,3107.6109999992186,completion,,,,,false,,,,667260.8000000007,667260.6999999993,664136.432,664139.4000000022,664153.089,667272.631,8,400,,,
trial,html.Screen,4_108_0,2023-11-01T17:24:31.820Z,,0,3,,3573.568999999203,response,ISIC_2379024.JPG,5,ISIC_0027067.JPG,ISIC_2379024.JPG,false,1,keypress(m),500,670846.3000000007,670846.1999999993,667255.968,667260.8000000007,667272.631,670859.618,8,400,9,,ISIC_0027067.JPG
break,html.Screen,4_108_1,2023-11-01T17:24:31.821Z,,0,,,NaN,,,,,,false,,,,670846.5,670846.4000000022,,670846.3000000007,,670859.618,8,400,,,
break_continue,html.Screen,4_108_2,2023-11-01T17:24:31.821Z,,0,,,NaN,,,,,,false,,,,670846.6999999993,670846.6000000015,,670846.6000000015,,670859.618,8,400,,,
sequence,flow.Sequence,4_108,2023-11-01T17:24:31.821Z,,0,,,3573.969000001438,completion,,,,,false,,,,670846.8000000007,670846.6000000015,667255.968,667260.8000000007,667272.631,670859.618,8,400,,,
trial,html.Screen,4_109_0,2023-11-01T17:24:34.862Z,,0,3,,3028.1820000007283,response,ISIC_1795529.JPG,5,ISIC_0010416.JPG,ISIC_1795529.JPG,false,1,keypress(m),500,673888,673887.8000000007,670843.179,670846.9000000022,670859.618,673896.103,8,400,10,,ISIC_0010416.JPG
break,html.Screen,4_109_1,2023-11-01T17:24:34.862Z,,0,,,NaN,,,,,,false,,,,673888.3000000007,673888.1999999993,,673888,,673896.103,8,400,,,
break_continue,html.Screen,4_109_2,2023-11-01T17:24:34.863Z,,0,,,NaN,,,,,,false,,,,673888.5,673888.5,,673888.3000000007,,673896.103,8,400,,,
sequence,flow.Sequence,4_109,2023-11-01T17:24:34.863Z,,0,,,3028.8819999999832,completion,,,,,false,,,,673888.6000000015,673888.5,670843.179,670846.8000000007,670859.618,673896.103,8,400,,,
trial,html.Screen,4_110_0,2023-11-01T17:24:37.856Z,,0,3,,2985.896999999997,response,ISIC_0056156.JPG,5,ISIC_6162308.JPG,ISIC_6162308.JPG,false,0,keypress(z),500,676882.1999999993,676882,673879.532,673888.6000000015,673896.103,676898.927,8,400,11,,ISIC_0056156.JPG
break,html.Screen,4_110_1,2023-11-01T17:24:37.857Z,,0,,,NaN,,,,,,false,,,,676882.6000000015,676882.5,,676882.3000000007,,676898.927,8,400,,,
break_continue,html.Screen,4_110_2,2023-11-01T17:24:37.857Z,,0,,,NaN,,,,,,false,,,,676882.8000000007,676882.6999999993,,676882.6999999993,,676898.927,8,400,,,
sequence,flow.Sequence,4_110,2023-11-01T17:24:37.857Z,,0,,,2986.596999999252,completion,,,,,false,,,,676882.8000000007,676882.6999999993,673879.532,673888.6000000015,673896.103,676898.927,8,400,,,
trial,html.Screen,4_111_0,2023-11-01T17:24:41.074Z,,0,3,,3201.072999999975,response,ISIC_0000700.JPG,5,ISIC_5198780.JPG,ISIC_0000700.JPG,false,1,keypress(m),500,680100.1000000015,680100,676882.567,676882.9000000022,676898.927,680102.134,8,400,12,,ISIC_5198780.JPG
break,html.Screen,4_111_1,2023-11-01T17:24:41.074Z,,0,,,NaN,,,,,,false,,,,680100.4000000022,680100.4000000022,,680100.1999999993,,680102.134,8,400,,,
break_continue,html.Screen,4_111_2,2023-11-01T17:24:41.075Z,,0,,,NaN,,,,,,false,,,,680100.6000000015,680100.5,,680100.4000000022,,680102.134,8,400,,,
sequence,flow.Sequence,4_111,2023-11-01T17:24:41.075Z,,0,,,3201.572999999975,completion,,,,,false,,,,680100.6000000015,680100.5,676882.567,676882.9000000022,676898.927,680102.134,8,400,,,
trial,html.Screen,4_112_0,2023-11-01T17:24:44.564Z,,0,3,,3487.866000000038,response,ISIC_0072991.JPG,5,ISIC_0013501.JPG,ISIC_0013501.JPG,false,0,keypress(z),500,683590.1999999993,683590,680085.762,680100.6999999993,680102.134,683605.903,8,400,13,,ISIC_0072991.JPG
break,html.Screen,4_112_1,2023-11-01T17:24:44.564Z,,0,,,NaN,,,,,,false,,,,683590.5,683590.3000000007,,683590.1999999993,,683605.903,8,400,,,
break_continue,html.Screen,4_112_2,2023-11-01T17:24:44.565Z,,0,,,NaN,,,,,,false,,,,683590.6999999993,683590.6000000015,,683590.5,,683605.903,8,400,,,
sequence,flow.Sequence,4_112,2023-11-01T17:24:44.565Z,,0,,,3488.4660000015283,completion,,,,,false,,,,683590.8000000007,683590.6000000015,680085.762,680100.6000000015,680102.134,683605.903,8,400,,,
trial,html.Screen,4_113_0,2023-11-01T17:24:49.239Z,,0,3,,4659.096999999951,response,ISIC_0024244.JPG,5,ISIC_3418245.JPG,ISIC_3418245.JPG,false,0,keypress(z),500,688265,688265,683589.189,683590.8000000007,683605.903,688277.24,8,400,14,,ISIC_0024244.JPG
break,html.Screen,4_113_1,2023-11-01T17:24:49.239Z,,0,,,NaN,,,,,,false,,,,688265.3000000007,688265.1999999993,,688265.1000000015,,688277.24,8,400,,,
break_continue,html.Screen,4_113_2,2023-11-01T17:24:49.240Z,,0,,,NaN,,,,,,false,,,,688265.6000000015,688265.4000000022,,688265.4000000022,,688277.24,8,400,,,
sequence,flow.Sequence,4_113,2023-11-01T17:24:49.240Z,,0,,,4659.497000002186,completion,,,,,false,,,,688265.6000000015,688265.4000000022,683589.189,683590.8000000007,683605.903,688277.24,8,400,,,
trial,html.Screen,4_114_0,2023-11-01T17:24:52.490Z,,0,3,,3238.5600000007544,response,ISIC_1452549.JPG,5,ISIC_9957389.JPG,ISIC_9957389.JPG,false,0,keypress(z),500,691515.9000000022,691515.8000000007,688260.313,688265.6000000015,688277.24,691530.214,8,400,15,,ISIC_1452549.JPG
break,html.Screen,4_114_1,2023-11-01T17:24:52.490Z,,0,,,NaN,,,,,,false,,,,691516.1999999993,691516.1000000015,,691516,,691530.214,8,400,,,
break_continue,html.Screen,4_114_2,2023-11-01T17:24:52.490Z,,0,,,NaN,,,,,,false,,,,691516.3000000007,691516.3000000007,,691516.3000000007,,691530.214,8,400,,,
sequence,flow.Sequence,4_114,2023-11-01T17:24:52.490Z,,0,,,3239.0600000007544,completion,,,,,false,,,,691516.4000000022,691516.3000000007,688260.313,688265.6000000015,688277.24,691530.214,8,400,,,
trial,html.Screen,4_115_0,2023-11-01T17:24:56.940Z,,0,3,,4435.785999999964,response,ISIC_0485529.JPG,5,ISIC_8436666.JPG,ISIC_8436666.JPG,false,0,keypress(z),500,695966,695966,691513.94,691516.5,691530.214,695967.963,8,400,16,,ISIC_0485529.JPG
break,html.Screen,4_115_1,2023-11-01T17:24:56.940Z,,0,,,NaN,,,,,,false,,,,695966.3000000007,695966.1999999993,,695966.1000000015,,695967.963,8,400,,,
break_continue,html.Screen,4_115_2,2023-11-01T17:24:56.941Z,,0,,,NaN,,,,,,false,,,,695966.6000000015,695966.5,,695966.4000000022,,695967.963,8,400,,,
sequence,flow.Sequence,4_115,2023-11-01T17:24:56.941Z,,0,,,4436.285999999964,completion,,,,,false,,,,695966.6000000015,695966.5,691513.94,691516.5,691530.214,695967.963,8,400,,,
trial,html.Screen,4_116_0,2023-11-01T17:25:00.094Z,,0,3,,3151.9370000022464,response,ISIC_0010869.JPG,4,ISIC_8516223.JPG,ISIC_8516223.JPG,false,0,keypress(z),500,699120,699119.9000000022,695951.324,695966.6999999993,695967.963,699138.597,8,400,17,,ISIC_0010869.JPG
break,html.Screen,4_116_1,2023-11-01T17:25:00.094Z,,0,,,NaN,,,,,,false,,,,699120.3000000007,699120.3000000007,,699120.1000000015,,699138.597,8,400,,,
break_continue,html.Screen,4_116_2,2023-11-01T17:25:00.094Z,,0,,,NaN,,,,,,false,,,,699120.4000000022,699120.4000000022,,699120.4000000022,,699138.597,8,400,,,
sequence,flow.Sequence,4_116,2023-11-01T17:25:00.095Z,,0,,,3152.4370000022464,completion,,,,,false,,,,699120.5,699120.4000000022,695951.324,695966.6999999993,695967.963,699138.597,8,400,,,
trial,html.Screen,4_117_0,2023-11-01T17:25:03.056Z,,0,3,,2943.2030000007944,response,ISIC_0553932.JPG,5,ISIC_0032780.JPG,ISIC_0032780.JPG,false,0,keypress(z),500,702081.8000000007,702081.8000000007,699104.692,699120.6000000015,699138.597,702091.114,8,400,18,,ISIC_0553932.JPG
break,html.Screen,4_117_1,2023-11-01T17:25:03.056Z,,0,,,NaN,,,,,,false,,,,702082.1000000015,702082.1000000015,,702081.9000000022,,702091.114,8,400,,,
break_continue,html.Screen,4_117_2,2023-11-01T17:25:03.056Z,,0,,,NaN,,,,,,false,,,,702082.3000000007,702082.1999999993,,702082.1000000015,,702091.114,8,400,,,
sequence,flow.Sequence,4_117,2023-11-01T17:25:03.056Z,,0,,,2943.6029999993043,completion,,,,,false,,,,702082.3000000007,702082.1999999993,699104.692,699120.5,699138.597,702091.114,8,400,,,
trial,html.Screen,4_118_0,2023-11-01T17:25:05.730Z,,0,3,,2664.686000000802,response,ISIC_0014217.JPG,4,ISIC_0029723.JPG,ISIC_0029723.JPG,false,0,keypress(z),500,704756,704755.8000000007,702074.098,702082.4000000022,702091.114,704760.159,8,400,19,,ISIC_0014217.JPG
break,html.Screen,4_118_1,2023-11-01T17:25:05.730Z,,0,,,NaN,,,,,,false,,,,704756.1999999993,704756.1000000015,,704756,,704760.159,8,400,,,
break_continue,html.Screen,4_118_2,2023-11-01T17:25:05.730Z,,0,,,NaN,,,,,,false,,,,704756.3000000007,704756.3000000007,,704756.3000000007,,704760.159,8,400,,,
sequence,flow.Sequence,4_118,2023-11-01T17:25:05.730Z,,0,,,2665.186000000802,completion,,,,,false,,,,704756.4000000022,704756.3000000007,702074.098,702082.4000000022,702091.114,704760.159,8,400,,,
trial,html.Screen,4_119_0,2023-11-01T17:25:10.612Z,,0,3,,4878.14100000076,response,ISIC_0025841.JPG,5,ISIC_5174685.JPG,ISIC_5174685.JPG,false,0,keypress(z),500,709638.3000000007,709638.3000000007,704743.439,704756.5,704760.159,709648.579,8,400,20,,ISIC_0025841.JPG
break,html.Screen,4_119_1,2023-11-01T17:25:10.613Z,,0,,,NaN,,,,,,false,,,,709638.6000000015,709638.5,,709638.4000000022,,709648.579,8,400,,,
break_continue,html.Screen,4_119_2,2023-11-01T17:25:10.613Z,,0,,,NaN,,,,,,false,,,,709638.9000000022,709638.8000000007,,709638.8000000007,,709648.579,8,400,,,
sequence,flow.Sequence,4_119,2023-11-01T17:25:10.613Z,,0,,,4878.64100000076,completion,,,,,false,,,,709639,709638.8000000007,704743.439,704756.5,704760.159,709648.579,8,400,,,
trial,html.Screen,4_120_0,2023-11-01T17:25:13.590Z,,0,3,,2967.021000001463,response,ISIC_0000431.JPG,6,ISIC_0011185.JPG,ISIC_0000431.JPG,false,1,keypress(m),500,712615.6999999993,712615.6000000015,709631.929,709639,709648.579,712618.016,8,400,21,,ISIC_0011185.JPG
break,html.Screen,4_120_1,2023-11-01T17:25:13.590Z,,0,,,NaN,,,,,,false,,,,712616,712615.9000000022,,712615.8000000007,,712618.016,8,400,,,
break_continue,html.Screen,4_120_2,2023-11-01T17:25:13.590Z,,0,,,NaN,,,,,,false,,,,712616.1999999993,712616.1999999993,,712616.1000000015,,712618.016,8,400,,,
sequence,flow.Sequence,4_120,2023-11-01T17:25:13.590Z,,0,,,2967.620999999228,completion,,,,,false,,,,712616.4000000022,712616.1999999993,709631.929,709639,709648.579,712618.016,8,400,,,
trial,html.Screen,4_121_0,2023-11-01T17:25:17.385Z,,0,3,,3792.484000000055,response,ISIC_0010036.JPG,5,ISIC_7976724.JPG,ISIC_7976724.JPG,false,0,keypress(z),500,716410.5,716410.5,712601.536,712616.4000000022,712618.016,716421.831,8,400,22,,ISIC_0010036.JPG
break,html.Screen,4_121_1,2023-11-01T17:25:17.385Z,,0,,,NaN,,,,,,false,,,,716410.8000000007,716410.6000000015,,716410.6000000015,,716421.831,8,400,,,
break_continue,html.Screen,4_121_2,2023-11-01T17:25:17.385Z,,0,,,NaN,,,,,,false,,,,716410.9000000022,716410.8000000007,,716410.8000000007,,716421.831,8,400,,,
sequence,flow.Sequence,4_121,2023-11-01T17:25:17.385Z,,0,,,3792.7840000008,completion,,,,,false,,,,716410.9000000022,716410.8000000007,712601.536,712616.4000000022,712618.016,716421.831,8,400,,,
trial,html.Screen,4_122_0,2023-11-01T17:25:22.746Z,,0,3,,5350.168999999994,response,ISIC_0054885.JPG,6,ISIC_0031039.JPG,ISIC_0054885.JPG,false,1,keypress(m),500,721772.1000000015,721772,716405.203,716410.9000000022,716421.831,721777.173,8,400,23,,ISIC_0031039.JPG
break,html.Screen,4_122_1,2023-11-01T17:25:22.746Z,,0,,,NaN,,,,,,false,,,,721772.5,721772.4000000022,,721772.3000000007,,721777.173,8,400,,,
break_continue,html.Screen,4_122_2,2023-11-01T17:25:22.747Z,,0,,,NaN,,,,,,false,,,,721772.6999999993,721772.6000000015,,721772.6000000015,,721777.173,8,400,,,
sequence,flow.Sequence,4_122,2023-11-01T17:25:22.747Z,,0,,,5350.7690000014845,completion,,,,,false,,,,721772.6999999993,721772.6000000015,716405.203,716410.9000000022,716421.831,721777.173,8,400,,,
trial,html.Screen,4_123_0,2023-11-01T17:25:26.828Z,,0,3,,4076.3270000000484,response,ISIC_7642500.JPG,5,ISIC_0027683.JPG,ISIC_7642500.JPG,false,1,keypress(m),500,725853.6000000015,725853.5,721760.516,721772.8000000007,721777.173,725864.766,8,400,24,,ISIC_0027683.JPG
break,html.Screen,4_123_1,2023-11-01T17:25:26.828Z,,0,,,NaN,,,,,,false,,,,725853.9000000022,725853.8000000007,,725853.6999999993,,725864.766,8,400,,,
break_continue,html.Screen,4_123_2,2023-11-01T17:25:26.828Z,,0,,,NaN,,,,,,false,,,,725854.1999999993,725854.1000000015,,725854,,725864.766,8,400,,,
sequence,flow.Sequence,4_123,2023-11-01T17:25:26.828Z,,0,,,4076.9270000015385,completion,,,,,false,,,,725854.3000000007,725854.1000000015,721760.516,721772.8000000007,721777.173,725864.766,8,400,,,
trial,html.Screen,4_124_0,2023-11-01T17:25:30.782Z,,0,3,,3942.43399999931,response,ISIC_7526530.JPG,5,ISIC_0027436.JPG,ISIC_7526530.JPG,false,1,keypress(m),500,729807.4000000022,729807.1999999993,725848.204,725854.4000000022,725864.766,729818.569,8,400,25,,ISIC_0027436.JPG
break,html.Screen,4_124_1,2023-11-01T17:25:30.782Z,,0,,,NaN,,,,,,false,,,,729807.6999999993,729807.5,,729807.5,,729818.569,8,400,,,
break_continue,html.Screen,4_124_2,2023-11-01T17:25:30.782Z,,0,,,NaN,,,,,,false,,,,729807.9000000022,729807.8000000007,,729807.6999999993,,729818.569,8,400,,,
sequence,flow.Sequence,4_124,2023-11-01T17:25:30.783Z,,0,,,3943.0340000008,completion,,,,,false,,,,729808.3000000007,729807.8000000007,725848.204,725854.4000000022,725864.766,729818.569,8,400,,,
trial,html.Screen,4_125_0,2023-11-01T17:25:33.889Z,,0,3,,3095.3310000022175,response,ISIC_0030563.JPG,5,ISIC_1711973.JPG,ISIC_1711973.JPG,false,0,keypress(z),500,732914,732913.9000000022,729802.128,729808.5,729818.569,732921.589,8,400,26,,ISIC_0030563.JPG
break,html.Screen,4_125_1,2023-11-01T17:25:33.889Z,,0,,,NaN,,,,,,false,,,,732914.3000000007,732914.1999999993,,732914.1999999993,,732921.589,8,400,,,
break_continue,html.Screen,4_125_2,2023-11-01T17:25:33.889Z,,0,,,NaN,,,,,,false,,,,732914.4000000022,732914.4000000022,,732914.4000000022,,732921.589,8,400,,,
sequence,flow.Sequence,4_125,2023-11-01T17:25:33.889Z,,0,,,3095.8310000022175,completion,,,,,false,,,,732914.5,732914.4000000022,729802.128,729808.5,729818.569,732921.589,8,400,,,
