sender,sender_type,sender_id,timestamp,meta,,blockNo,condition,duration,ended_on,img_left,img_reveal,img_right,loser,practice,response,response_action,selection_duration,time_commit,time_end,time_render,time_run,time_show,time_switch,total_blocks,total_trials,trialNo,url,winner
informed_consent,html.Screen,0,2023-10-31T00:39:08.731Z,"{""labjs_version"":""20.2.4"",""labjs_build"":{""flavor"":""production"",""commit"":""f5b4a49f956347addd546a832a3327688c2c0fef""},""location"":""https://run.pavlovia.org/MurrayBennett/melanoma-2afc/?participant=67622&platform=sona"",""userAgent"":""Mozilla/5.0 (Windows NT 10.0; Win64; x64) AppleWebKit/537.36 (KHTML, like Gecko) Chrome/118.0.0.0 Safari/537.36"",""platform"":""Win32"",""language"":""en-US"",""locale"":""en-US"",""timeZone"":""America/Chicago"",""timezoneOffset"":300,""screen_width"":1536,""screen_height"":864,""scroll_width"":695,""scroll_height"":643,""window_innerWidth"":695,""window_innerHeight"":691,""devicePixelRatio"":1.25}",,,,15950.708999988079,response,,,,,,consent,click button,,17596,17593.69999998808,1626.34,1616.3999999761581,1642.991,17609.895,,,,"{""participant"":""67622"",""platform"":""sona""}",
Welcome,html.Screen,1,2023-10-31T00:39:55.235Z,,,,irregular,46489.40500001192,response,,,,,,continue,click button,,64100.09999996424,64099.30000001192,17593.22,17596.099999964237,17609.895,64110.539,,,,,
trial,html.Screen,2_0_0,2023-10-31T00:40:06.731Z,,0,0,,11516.887999999999,timeout,ISIC_0061792.JPG,,ISIC_4679428.JPG,,true,,,500,75596.30000001192,75596.09999996424,64093.838,64100.30000001192,64110.539,75627.427,1,6,1,,
sequence,flow.Sequence,2_0,2023-10-31T00:40:06.731Z,,0,,,11485.56099996424,completion,,,,,true,,,,75596.39999997616,75596.09999996424,64093.838,64100.30000001192,64110.539,75627.427,1,6,,,
trial,html.Screen,2_1_0,2023-10-31T00:40:11.341Z,,0,0,,4578.873000011925,response,ISIC_0776486.JPG,,ISIC_5199497.JPG,ISIC_0776486.JPG,true,1,keypress(m),500,80206.5,80206.30000001192,75610.684,75596.5,75627.427,80210.801,1,6,2,,ISIC_5199497.JPG
sequence,flow.Sequence,2_1,2023-10-31T00:40:11.342Z,,0,,,4578.873000011925,completion,,,,,true,,,,80206.69999998808,80206.30000001192,75610.684,75596.5,75627.427,80210.801,1,6,,,
trial,html.Screen,2_2_0,2023-10-31T00:40:15.328Z,,0,0,,3982.499000011914,response,ISIC_8575776.JPG,,ISIC_2556187.JPG,ISIC_8575776.JPG,true,1,keypress(m),500,84193.39999997616,84193.30000001192,80194.112,80206.89999997616,80210.801,84210.823,1,6,3,,ISIC_2556187.JPG
sequence,flow.Sequence,2_2,2023-10-31T00:40:15.329Z,,0,,,3982.499000011914,completion,,,,,true,,,,84193.59999996424,84193.30000001192,80194.112,80206.80000001192,80210.801,84210.823,1,6,,,
trial,html.Screen,2_3_0,2023-10-31T00:40:20.674Z,,0,0,,5328.076999976154,response,ISIC_8141769.JPG,,ISIC_9238366.JPG,ISIC_9238366.JPG,true,0,keypress(z),500,89539.09999996424,89538.89999997616,84194.195,84193.69999998808,84210.823,89544.225,1,6,4,,ISIC_8141769.JPG
sequence,flow.Sequence,2_3,2023-10-31T00:40:20.674Z,,0,,,5328.076999976154,completion,,,,,true,,,,89539.19999998808,89538.89999997616,84194.195,84193.69999998808,84210.823,89544.225,1,6,,,
trial,html.Screen,2_4_0,2023-10-31T00:40:24.739Z,,0,0,,4059.8749999642314,response,ISIC_9959593.JPG,,ISIC_8949026.JPG,ISIC_8949026.JPG,true,0,keypress(z),500,93604.30000001192,93604.09999996424,89527.582,89539.30000001192,89544.225,93611.065,1,6,5,,ISIC_9959593.JPG
sequence,flow.Sequence,2_4,2023-10-31T00:40:24.739Z,,0,,,4059.8749999642314,completion,,,,,true,,,,93604.59999996424,93604.09999996424,89527.582,89539.30000001192,89544.225,93611.065,1,6,,,
trial,html.Screen,2_5_0,2023-10-31T00:40:28.085Z,,0,0,,3338.7350000119186,response,ISIC_0460240.JPG,,ISIC_0010479.JPG,ISIC_0460240.JPG,true,1,keypress(m),500,96949.89999997616,96949.80000001192,93594.227,93604.59999996424,93611.065,96961.036,1,6,6,,ISIC_0010479.JPG
sequence,flow.Sequence,2_5,2023-10-31T00:40:28.085Z,,0,,,3338.7350000119186,completion,,,,,true,,,,96950,96949.80000001192,93594.227,93604.59999996424,93611.065,96961.036,1,6,,,
loop,flow.Loop,2,2023-10-31T00:40:28.085Z,,,,,32839.261000011924,completion,,,,,true,,,,96950.30000001192,96949.80000001192,64093.838,64100.30000001192,64110.539,96961.036,1,6,,,
exp_instructions,html.Screen,3,2023-10-31T00:40:59.536Z,,,,,31439.964000000007,response,,,,,,continue,keypress(Space),,128401.5,128401,96944.348,96950.30000001192,96961.036,128412.241,,,,,
trial,html.Screen,4_0_0,2023-10-31T00:41:04.467Z,,0,1,,4920.158999976164,response,ISIC_5581297.JPG,5,ISIC_8462070.JPG,ISIC_8462070.JPG,false,0,keypress(z),500,133332.59999996424,133332.39999997616,128394.843,128401.69999998808,128412.241,133345.171,8,400,1,,ISIC_5581297.JPG
break,html.Screen,4_0_1,2023-10-31T00:41:04.469Z,,0,,,NaN,,,,,,false,,,,133333.69999998808,133333.59999996424,,133332.69999998808,,133345.171,8,400,,,
break_continue,html.Screen,4_0_2,2023-10-31T00:41:04.469Z,,0,,,NaN,,,,,,false,,,,133334,133333.89999997616,,133333.80000001192,,133345.171,8,400,,,
sequence,flow.Sequence,4_0,2023-10-31T00:41:04.469Z,,0,,,4921.658999976164,completion,,,,,false,,,,133334.19999998808,133333.89999997616,128394.843,128401.69999998808,128412.241,133345.171,8,400,,,
trial,html.Screen,4_1_0,2023-10-31T00:41:08.855Z,,0,1,,4374.828999999998,response,ISIC_0024675.JPG,4,ISIC_0054652.JPG,ISIC_0024675.JPG,false,1,keypress(m),500,137720.30000001192,137720,133328.509,133334.19999998808,133345.171,137728.619,8,400,2,,ISIC_0054652.JPG
break,html.Screen,4_1_1,2023-10-31T00:41:08.856Z,,0,,,NaN,,,,,,false,,,,137721,137720.89999997616,,137720.5,,137728.619,8,400,,,
break_continue,html.Screen,4_1_2,2023-10-31T00:41:08.856Z,,0,,,NaN,,,,,,false,,,,137721.30000001192,137721.19999998808,,137721.09999996424,,137728.619,8,400,,,
sequence,flow.Sequence,4_1,2023-10-31T00:41:08.856Z,,0,,,4376.028999988077,completion,,,,,false,,,,137721.39999997616,137721.19999998808,133328.509,133334.19999998808,133345.171,137728.619,8,400,,,
trial,html.Screen,4_2_0,2023-10-31T00:41:12.809Z,,0,1,,3945.681000011915,response,ISIC_0032313.JPG,4,ISIC_5258657.JPG,ISIC_5258657.JPG,false,0,keypress(z),500,141674.5,141674.30000001192,137711.953,137721.39999997616,137728.619,141679.898,8,400,3,,ISIC_0032313.JPG
break,html.Screen,4_2_1,2023-10-31T00:41:12.810Z,,0,,,NaN,,,,,,false,,,,141675.39999997616,141675.39999997616,,141674.69999998808,,141679.898,8,400,,,
break_continue,html.Screen,4_2_2,2023-10-31T00:41:12.810Z,,0,,,NaN,,,,,,false,,,,141675.59999996424,141675.59999996424,,141675.5,,141679.898,8,400,,,
sequence,flow.Sequence,4_2,2023-10-31T00:41:12.811Z,,0,,,3946.980999964231,completion,,,,,false,,,,141675.69999998808,141675.59999996424,137711.953,137721.39999997616,137728.619,141679.898,8,400,,,
trial,html.Screen,4_3_0,2023-10-31T00:41:17.724Z,,0,1,,4909.201999964251,response,ISIC_0009960.JPG,4,ISIC_5545874.JPG,ISIC_0009960.JPG,false,1,keypress(m),500,146589.30000001192,146589.09999996424,141661.963,141675.80000001192,141679.898,146595.346,8,400,4,,ISIC_5545874.JPG
break,html.Screen,4_3_1,2023-10-31T00:41:17.725Z,,0,,,NaN,,,,,,false,,,,146590.19999998808,146590.09999996424,,146589.5,,146595.346,8,400,,,
break_continue,html.Screen,4_3_2,2023-10-31T00:41:17.725Z,,0,,,NaN,,,,,,false,,,,146590.39999997616,146590.39999997616,,146590.30000001192,,146595.346,8,400,,,
sequence,flow.Sequence,4_3,2023-10-31T00:41:17.725Z,,0,,,4910.501999976172,completion,,,,,false,,,,146590.39999997616,146590.39999997616,141661.963,141675.69999998808,141679.898,146595.346,8,400,,,
trial,html.Screen,4_4_0,2023-10-31T00:41:22.015Z,,0,1,,4284.9540000119305,response,ISIC_2141003.JPG,5,ISIC_2234076.JPG,ISIC_2234076.JPG,false,0,keypress(z),500,150880.5,150880.30000001192,146578.682,146590.39999997616,146595.346,150895.428,8,400,5,,ISIC_2141003.JPG
break,html.Screen,4_4_1,2023-10-31T00:41:22.016Z,,0,,,NaN,,,,,,false,,,,150881,150881,,150880.5,,150895.428,8,400,,,
break_continue,html.Screen,4_4_2,2023-10-31T00:41:22.016Z,,0,,,NaN,,,,,,false,,,,150881.19999998808,150881.19999998808,,150881.09999996424,,150895.428,8,400,,,
sequence,flow.Sequence,4_4,2023-10-31T00:41:22.016Z,,0,,,4285.853999988089,completion,,,,,false,,,,150881.30000001192,150881.19999998808,146578.682,146590.39999997616,146595.346,150895.428,8,400,,,
trial,html.Screen,4_5_0,2023-10-31T00:41:26.194Z,,0,1,,4163.571999999986,response,ISIC_0046596.JPG,5,ISIC_3123711.JPG,ISIC_3123711.JPG,false,0,keypress(z),500,155059.30000001192,155059,150878.783,150881.39999997616,150895.428,155062.165,8,400,6,,ISIC_0046596.JPG
break,html.Screen,4_5_1,2023-10-31T00:41:26.195Z,,0,,,NaN,,,,,,false,,,,155059.89999997616,155059.80000001192,,155059.30000001192,,155062.165,8,400,,,
break_continue,html.Screen,4_5_2,2023-10-31T00:41:26.195Z,,0,,,NaN,,,,,,false,,,,155060.09999996424,155060,,155060,,155062.165,8,400,,,
sequence,flow.Sequence,4_5,2023-10-31T00:41:26.195Z,,0,,,4164.571999999986,completion,,,,,false,,,,155060.19999998808,155060,150878.783,150881.39999997616,150895.428,155062.165,8,400,,,
trial,html.Screen,4_6_0,2023-10-31T00:41:30.277Z,,0,1,,4079.23499997615,response,ISIC_0054021.JPG,6,ISIC_2741583.JPG,ISIC_2741583.JPG,false,0,keypress(z),500,159141.69999998808,159141.39999997616,155045.492,155060.30000001192,155062.165,159145.563,8,400,7,,ISIC_0054021.JPG
break,html.Screen,4_6_1,2023-10-31T00:41:30.277Z,,0,,,NaN,,,,,,false,,,,159142.5,159142.5,,159141.89999997616,,159145.563,8,400,,,
break_continue,html.Screen,4_6_2,2023-10-31T00:41:30.278Z,,0,,,NaN,,,,,,false,,,,159142.69999998808,159142.69999998808,,159142.5,,159145.563,8,400,,,
sequence,flow.Sequence,4_6,2023-10-31T00:41:30.278Z,,0,,,4080.534999988071,completion,,,,,false,,,,159142.80000001192,159142.69999998808,155045.492,155060.30000001192,155062.165,159145.563,8,400,,,
trial,html.Screen,4_7_0,2023-10-31T00:41:34.471Z,,0,1,,4190.237000011926,response,ISIC_0014110.JPG,4,ISIC_0068886.JPG,ISIC_0014110.JPG,false,1,keypress(m),500,163336,163335.80000001192,159128.867,159142.80000001192,159145.563,163345.657,8,400,8,,ISIC_0068886.JPG
break,html.Screen,4_7_1,2023-10-31T00:41:34.472Z,,0,,,NaN,,,,,,false,,,,163336.89999997616,163336.80000001192,,163336.19999998808,,163345.657,8,400,,,
break_continue,html.Screen,4_7_2,2023-10-31T00:41:34.472Z,,0,,,NaN,,,,,,false,,,,163337.30000001192,163337.09999996424,,163337.09999996424,,163345.657,8,400,,,
sequence,flow.Sequence,4_7,2023-10-31T00:41:34.472Z,,0,,,4191.536999964243,completion,,,,,false,,,,163337.30000001192,163337.09999996424,159128.867,159142.80000001192,159145.563,163345.657,8,400,,,
trial,html.Screen,4_8_0,2023-10-31T00:41:39.162Z,,0,1,,4681.3429999999935,response,ISIC_7960321.JPG,6,ISIC_7025487.JPG,ISIC_7960321.JPG,false,1,keypress(m),500,168027.19999998808,168027,163329.027,163337.5,163345.657,168046.429,8,400,9,,ISIC_7025487.JPG
break,html.Screen,4_8_1,2023-10-31T00:41:39.163Z,,0,,,NaN,,,,,,false,,,,168028.30000001192,168028.19999998808,,168027.5,,168046.429,8,400,,,
break_continue,html.Screen,4_8_2,2023-10-31T00:41:39.163Z,,0,,,NaN,,,,,,false,,,,168028.5,168028.5,,168028.39999997616,,168046.429,8,400,,,
sequence,flow.Sequence,4_8,2023-10-31T00:41:39.163Z,,0,,,4682.8429999999935,completion,,,,,false,,,,168028.69999998808,168028.5,163329.027,163337.5,163345.657,168046.429,8,400,,,
trial,html.Screen,4_9_0,2023-10-31T00:41:43.213Z,,0,1,,4031.871000011917,response,ISIC_0003793.JPG,5,ISIC_4960784.JPG,ISIC_0003793.JPG,false,1,keypress(m),500,172078.39999997616,172078.30000001192,168012.299,168028.80000001192,168046.429,172095.782,8,400,10,,ISIC_4960784.JPG
break,html.Screen,4_9_1,2023-10-31T00:41:43.214Z,,0,,,NaN,,,,,,false,,,,172078.89999997616,172078.80000001192,,172078.5,,172095.782,8,400,,,
break_continue,html.Screen,4_9_2,2023-10-31T00:41:43.214Z,,0,,,NaN,,,,,,false,,,,172079.30000001192,172079.19999998808,,172079,,172095.782,8,400,,,
sequence,flow.Sequence,4_9,2023-10-31T00:41:43.214Z,,0,,,4032.7709999880753,completion,,,,,false,,,,172079.39999997616,172079.19999998808,168012.299,168028.80000001192,168046.429,172095.782,8,400,,,
trial,html.Screen,4_10_0,2023-10-31T00:41:46.783Z,,0,1,,3552.5180000119144,response,ISIC_0047003.JPG,5,ISIC_9745038.JPG,ISIC_9745038.JPG,false,0,keypress(z),500,175648.5,175648.30000001192,172062.849,172079.5,172095.782,175662.457,8,400,11,,ISIC_0047003.JPG
break,html.Screen,4_10_1,2023-10-31T00:41:46.784Z,,0,,,NaN,,,,,,false,,,,175649.09999996424,175648.89999997616,,175648.59999996424,,175662.457,8,400,,,
break_continue,html.Screen,4_10_2,2023-10-31T00:41:46.784Z,,0,,,NaN,,,,,,false,,,,175649.39999997616,175649.30000001192,,175649.19999998808,,175662.457,8,400,,,
sequence,flow.Sequence,4_10,2023-10-31T00:41:46.784Z,,0,,,3553.5180000119144,completion,,,,,false,,,,175649.39999997616,175649.30000001192,172062.849,172079.5,172095.782,175662.457,8,400,,,
trial,html.Screen,4_11_0,2023-10-31T00:41:51.089Z,,0,1,,4291.742999988084,response,ISIC_0033834.JPG,5,ISIC_0011747.JPG,ISIC_0011747.JPG,false,0,keypress(z),500,179954.5,179954.19999998808,175645.815,175649.5,175662.457,179962.528,8,400,12,,ISIC_0033834.JPG
break,html.Screen,4_11_1,2023-10-31T00:41:51.090Z,,0,,,NaN,,,,,,false,,,,179955.39999997616,179955.30000001192,,179954.59999996424,,179962.528,8,400,,,
break_continue,html.Screen,4_11_2,2023-10-31T00:41:51.090Z,,0,,,NaN,,,,,,false,,,,179955.59999996424,179955.5,,179955.5,,179962.528,8,400,,,
sequence,flow.Sequence,4_11,2023-10-31T00:41:51.090Z,,0,,,4293.043000000005,completion,,,,,false,,,,179955.69999998808,179955.5,175645.815,175649.5,175662.457,179962.528,8,400,,,
trial,html.Screen,4_12_0,2023-10-31T00:41:54.533Z,,0,1,,3435.171999988088,response,ISIC_5578611.JPG,5,ISIC_0028484.JPG,ISIC_5578611.JPG,false,1,keypress(m),500,183397.69999998808,183397.69999998808,179945.85,179955.69999998808,179962.528,183412.54,8,400,13,,ISIC_0028484.JPG
break,html.Screen,4_12_1,2023-10-31T00:41:54.533Z,,0,,,NaN,,,,,,false,,,,183398.39999997616,183398.30000001192,,183397.89999997616,,183412.54,8,400,,,
break_continue,html.Screen,4_12_2,2023-10-31T00:41:54.533Z,,0,,,NaN,,,,,,false,,,,183398.5,183398.5,,183398.5,,183412.54,8,400,,,
sequence,flow.Sequence,4_12,2023-10-31T00:41:54.533Z,,0,,,3435.972000000009,completion,,,,,false,,,,183398.69999998808,183398.5,179945.85,179955.69999998808,179962.528,183412.54,8,400,,,
trial,html.Screen,4_13_0,2023-10-31T00:41:58.150Z,,0,1,,3602.959999999992,response,ISIC_1131588.JPG,4,ISIC_0059948.JPG,ISIC_1131588.JPG,false,1,keypress(m),500,187015.69999998808,187015.5,183396.173,183398.69999998808,183412.54,187029.281,8,400,14,,ISIC_0059948.JPG
break,html.Screen,4_13_1,2023-10-31T00:41:58.151Z,,0,,,NaN,,,,,,false,,,,187016.5,187016.39999997616,,187015.80000001192,,187029.281,8,400,,,
break_continue,html.Screen,4_13_2,2023-10-31T00:41:58.152Z,,0,,,NaN,,,,,,false,,,,187016.80000001192,187016.69999998808,,187016.5,,187029.281,8,400,,,
sequence,flow.Sequence,4_13,2023-10-31T00:41:58.152Z,,0,,,3604.159999988071,completion,,,,,false,,,,187017,187016.69999998808,183396.173,183398.69999998808,183412.54,187029.281,8,400,,,
trial,html.Screen,4_14_0,2023-10-31T00:42:01.706Z,,0,1,,3541.719000000012,response,ISIC_0014160.JPG,5,ISIC_0014132.JPG,ISIC_0014132.JPG,false,0,keypress(z),500,190571.19999998808,190571,187012.546,187017.09999996424,187029.281,190579.299,8,400,15,,ISIC_0014160.JPG
break,html.Screen,4_14_1,2023-10-31T00:42:01.707Z,,0,,,NaN,,,,,,false,,,,190571.80000001192,190571.59999996424,,190571.39999997616,,190579.299,8,400,,,
break_continue,html.Screen,4_14_2,2023-10-31T00:42:01.707Z,,0,,,NaN,,,,,,false,,,,190571.89999997616,190571.89999997616,,190571.80000001192,,190579.299,8,400,,,
sequence,flow.Sequence,4_14,2023-10-31T00:42:01.707Z,,0,,,3542.61899997617,completion,,,,,false,,,,190572,190571.89999997616,187012.546,187017,187029.281,190579.299,8,400,,,
trial,html.Screen,4_15_0,2023-10-31T00:42:05.709Z,,0,1,,3994.001000011922,response,ISIC_0054073.JPG,6,ISIC_6208762.JPG,ISIC_0054073.JPG,false,1,keypress(m),500,194573.39999997616,194573.30000001192,190562.603,190572,190579.299,194579.388,8,400,16,,ISIC_6208762.JPG
break,html.Screen,4_15_1,2023-10-31T00:42:05.709Z,,0,,,NaN,,,,,,false,,,,194573.89999997616,194573.80000001192,,194573.5,,194579.388,8,400,,,
break_continue,html.Screen,4_15_2,2023-10-31T00:42:05.709Z,,0,,,NaN,,,,,,false,,,,194574.09999996424,194574,,194574,,194579.388,8,400,,,
sequence,flow.Sequence,4_15,2023-10-31T00:42:05.709Z,,0,,,3994.701000000001,completion,,,,,false,,,,194574.09999996424,194574,190562.603,190572,190579.299,194579.388,8,400,,,
trial,html.Screen,4_16_0,2023-10-31T00:42:09.663Z,,0,1,,3947.9120000119146,response,ISIC_0025520.JPG,5,ISIC_0013707.JPG,ISIC_0013707.JPG,false,0,keypress(z),500,198527.39999997616,198527.30000001192,194562.802,194574.09999996424,194579.388,198529.436,8,400,17,,ISIC_0025520.JPG
break,html.Screen,4_16_1,2023-10-31T00:42:09.663Z,,0,,,NaN,,,,,,false,,,,198528.19999998808,198528.09999996424,,198527.5,,198529.436,8,400,,,
break_continue,html.Screen,4_16_2,2023-10-31T00:42:09.664Z,,0,,,NaN,,,,,,false,,,,198528.5,198528.5,,198528.30000001192,,198529.436,8,400,,,
sequence,flow.Sequence,4_16,2023-10-31T00:42:09.664Z,,0,,,3949.1119999999937,completion,,,,,false,,,,198528.59999996424,198528.5,194562.802,194574.09999996424,194579.388,198529.436,8,400,,,
trial,html.Screen,4_17_0,2023-10-31T00:42:13.569Z,,0,1,,3903.763999988092,response,ISIC_0034253.JPG,5,ISIC_7570343.JPG,ISIC_7570343.JPG,false,0,keypress(z),500,202433.39999997616,202433.19999998808,198512.739,198528.59999996424,198529.436,202446.174,8,400,18,,ISIC_0034253.JPG
break,html.Screen,4_17_1,2023-10-31T00:42:13.569Z,,0,,,NaN,,,,,,false,,,,202434.19999998808,202434.09999996424,,202433.5,,202446.174,8,400,,,
break_continue,html.Screen,4_17_2,2023-10-31T00:42:13.570Z,,0,,,NaN,,,,,,false,,,,202434.39999997616,202434.30000001192,,202434.30000001192,,202446.174,8,400,,,
sequence,flow.Sequence,4_17,2023-10-31T00:42:13.570Z,,0,,,3904.864000011934,completion,,,,,false,,,,202434.39999997616,202434.30000001192,198512.739,198528.59999996424,198529.436,202446.174,8,400,,,
trial,html.Screen,4_18_0,2023-10-31T00:42:17.124Z,,0,1,,3541.826000000001,response,ISIC_0066355.JPG,5,ISIC_5768032.JPG,ISIC_5768032.JPG,false,0,keypress(z),500,205988.19999998808,205988,202429.627,202434.5,202446.174,205996.214,8,400,19,,ISIC_0066355.JPG
break,html.Screen,4_18_1,2023-10-31T00:42:17.125Z,,0,,,NaN,,,,,,false,,,,205989.39999997616,205989.19999998808,,205988.39999997616,,205996.214,8,400,,,
break_continue,html.Screen,4_18_2,2023-10-31T00:42:17.125Z,,0,,,NaN,,,,,,false,,,,205989.59999996424,205989.5,,205989.5,,205996.214,8,400,,,
sequence,flow.Sequence,4_18,2023-10-31T00:42:17.125Z,,0,,,3543.326000000001,completion,,,,,false,,,,205989.59999996424,205989.5,202429.627,202434.39999997616,202446.174,205996.214,8,400,,,
trial,html.Screen,4_19_0,2023-10-31T00:42:20.647Z,,0,1,,3514.88599996423,response,ISIC_3933658.JPG,5,ISIC_0062440.JPG,ISIC_3933658.JPG,false,1,keypress(m),500,209511.39999997616,209511.09999996424,205979.534,205989.69999998808,205996.214,209512.963,8,400,20,,ISIC_0062440.JPG
break,html.Screen,4_19_1,2023-10-31T00:42:20.647Z,,0,,,NaN,,,,,,false,,,,209512.19999998808,209512.09999996424,,209511.59999996424,,209512.963,8,400,,,
break_continue,html.Screen,4_19_2,2023-10-31T00:42:20.648Z,,0,,,NaN,,,,,,false,,,,209512.5,209512.39999997616,,209512.30000001192,,209512.963,8,400,,,
sequence,flow.Sequence,4_19,2023-10-31T00:42:20.648Z,,0,,,3516.185999976151,completion,,,,,false,,,,209512.5,209512.39999997616,205979.534,205989.69999998808,205996.214,209512.963,8,400,,,
trial,html.Screen,4_20_0,2023-10-31T00:42:23.866Z,,0,1,,3217.337000011932,response,ISIC_0030135.JPG,6,ISIC_6683370.JPG,ISIC_6683370.JPG,false,0,keypress(z),500,212730.69999998808,212730.30000001192,209496.845,209512.69999998808,209512.963,212746.349,8,400,21,,ISIC_0030135.JPG
break,html.Screen,4_20_1,2023-10-31T00:42:23.867Z,,0,,,NaN,,,,,,false,,,,212731.5,212731.30000001192,,212730.80000001192,,212746.349,8,400,,,
break_continue,html.Screen,4_20_2,2023-10-31T00:42:23.867Z,,0,,,NaN,,,,,,false,,,,212731.69999998808,212731.59999996424,,212731.5,,212746.349,8,400,,,
sequence,flow.Sequence,4_20,2023-10-31T00:42:23.867Z,,0,,,3218.6369999642484,completion,,,,,false,,,,212731.80000001192,212731.59999996424,209496.845,209512.59999996424,209512.963,212746.349,8,400,,,
trial,html.Screen,4_21_0,2023-10-31T00:42:28.029Z,,0,1,,4146.651000000013,response,ISIC_0025757.JPG,5,ISIC_0012538.JPG,ISIC_0025757.JPG,false,1,keypress(m),500,216893.19999998808,216893,212729.653,212731.80000001192,212746.349,216896.803,8,400,22,,ISIC_0012538.JPG
break,html.Screen,4_21_1,2023-10-31T00:42:28.029Z,,0,,,NaN,,,,,,false,,,,216894,216893.89999997616,,216893.5,,216896.803,8,400,,,
break_continue,html.Screen,4_21_2,2023-10-31T00:42:28.029Z,,0,,,NaN,,,,,,false,,,,216894.19999998808,216894.09999996424,,216894,,216896.803,8,400,,,
sequence,flow.Sequence,4_21,2023-10-31T00:42:28.029Z,,0,,,4147.75099996425,completion,,,,,false,,,,216894.30000001192,216894.09999996424,212729.653,212731.80000001192,212746.349,216896.803,8,400,,,
trial,html.Screen,4_22_0,2023-10-31T00:42:32.127Z,,0,1,,4094.3969999880646,response,ISIC_2647453.JPG,5,ISIC_0011150.JPG,ISIC_2647453.JPG,false,1,keypress(m),500,220991.5,220991.19999998808,216879.838,216894.30000001192,216896.803,220996.619,8,400,23,,ISIC_0011150.JPG
break,html.Screen,4_22_1,2023-10-31T00:42:32.127Z,,0,,,NaN,,,,,,false,,,,220992.09999996424,220992,,220991.69999998808,,220996.619,8,400,,,
break_continue,html.Screen,4_22_2,2023-10-31T00:42:32.128Z,,0,,,NaN,,,,,,false,,,,220992.19999998808,220992.19999998808,,220992.19999998808,,220996.619,8,400,,,
sequence,flow.Sequence,4_22,2023-10-31T00:42:32.128Z,,0,,,4095.3969999880646,completion,,,,,false,,,,220992.30000001192,220992.19999998808,216879.838,216894.30000001192,216896.803,220996.619,8,400,,,
trial,html.Screen,4_23_0,2023-10-31T00:42:36.609Z,,0,1,,4477.181000011915,response,ISIC_6741865.JPG,5,ISIC_7430054.JPG,ISIC_6741865.JPG,false,1,keypress(m),500,225474,225473.80000001192,220979.773,220992.30000001192,220996.619,225480.152,8,400,24,,ISIC_7430054.JPG
break,html.Screen,4_23_1,2023-10-31T00:42:36.610Z,,0,,,NaN,,,,,,false,,,,225474.80000001192,225474.69999998808,,225474.09999996424,,225480.152,8,400,,,
break_continue,html.Screen,4_23_2,2023-10-31T00:42:36.610Z,,0,,,NaN,,,,,,false,,,,225475.09999996424,225475.09999996424,,225474.89999997616,,225480.152,8,400,,,
sequence,flow.Sequence,4_23,2023-10-31T00:42:36.610Z,,0,,,4478.480999964231,completion,,,,,false,,,,225475.19999998808,225475.09999996424,220979.773,220992.30000001192,220996.619,225480.152,8,400,,,
trial,html.Screen,4_24_0,2023-10-31T00:42:40.165Z,,0,1,,3548.9479999642354,response,ISIC_1738738.JPG,5,ISIC_0014708.JPG,ISIC_1738738.JPG,false,1,keypress(m),500,229029.39999997616,229029.09999996424,225463.13,225475.19999998808,225480.152,229046.546,8,400,25,,ISIC_0014708.JPG
break,html.Screen,4_24_1,2023-10-31T00:42:40.165Z,,0,,,NaN,,,,,,false,,,,229030.09999996424,229029.89999997616,,229029.59999996424,,229046.546,8,400,,,
break_continue,html.Screen,4_24_2,2023-10-31T00:42:40.166Z,,0,,,NaN,,,,,,false,,,,229030.30000001192,229030.30000001192,,229030.09999996424,,229046.546,8,400,,,
sequence,flow.Sequence,4_24,2023-10-31T00:42:40.166Z,,0,,,3550.148000011919,completion,,,,,false,,,,229030.39999997616,229030.30000001192,225463.13,225475.19999998808,225480.152,229046.546,8,400,,,
trial,html.Screen,4_25_0,2023-10-31T00:42:43.415Z,,0,1,,3232.853999976156,response,ISIC_0062235.JPG,5,ISIC_0033655.JPG,ISIC_0062235.JPG,false,1,keypress(m),500,232279.69999998808,232279.39999997616,229029.877,229030.5,229046.546,232296.577,8,400,26,,ISIC_0033655.JPG
break,html.Screen,4_25_1,2023-10-31T00:42:43.416Z,,0,,,NaN,,,,,,false,,,,232280.5,232280.30000001192,,232279.80000001192,,232296.577,8,400,,,
break_continue,html.Screen,4_25_2,2023-10-31T00:42:43.416Z,,0,,,NaN,,,,,,false,,,,232280.80000001192,232280.69999998808,,232280.59999996424,,232296.577,8,400,,,
sequence,flow.Sequence,4_25,2023-10-31T00:42:43.416Z,,0,,,3234.153999988077,completion,,,,,false,,,,232280.80000001192,232280.69999998808,229029.877,229030.39999997616,229046.546,232296.577,8,400,,,
trial,html.Screen,4_26_0,2023-10-31T00:42:47.530Z,,0,1,,4098.223000011931,response,ISIC_0032070.JPG,5,ISIC_5859812.JPG,ISIC_5859812.JPG,false,0,keypress(z),500,236394.89999997616,236394.80000001192,232280.032,232280.89999997616,232296.577,236413.887,8,400,27,,ISIC_0032070.JPG
break,html.Screen,4_26_1,2023-10-31T00:42:47.531Z,,0,,,NaN,,,,,,false,,,,236395.80000001192,236395.59999996424,,236395.09999996424,,236413.887,8,400,,,
break_continue,html.Screen,4_26_2,2023-10-31T00:42:47.531Z,,0,,,NaN,,,,,,false,,,,236395.89999997616,236395.89999997616,,236395.80000001192,,236413.887,8,400,,,
sequence,flow.Sequence,4_26,2023-10-31T00:42:47.531Z,,0,,,4099.322999976168,completion,,,,,false,,,,236396.09999996424,236395.89999997616,232280.032,232280.80000001192,232296.577,236413.887,8,400,,,
trial,html.Screen,4_27_0,2023-10-31T00:42:51.133Z,,0,1,,3583.7129999642493,response,ISIC_0054021.JPG,5,ISIC_4448959.JPG,ISIC_4448959.JPG,false,0,keypress(z),500,239997.80000001192,239997.59999996424,236380.063,236396.09999996424,236413.887,240013.42,8,400,28,,ISIC_0054021.JPG
break,html.Screen,4_27_1,2023-10-31T00:42:51.134Z,,0,,,NaN,,,,,,false,,,,239998.5,239998.39999997616,,239998,,240013.42,8,400,,,
break_continue,html.Screen,4_27_2,2023-10-31T00:42:51.134Z,,0,,,NaN,,,,,,false,,,,239998.80000001192,239998.69999998808,,239998.59999996424,,240013.42,8,400,,,
sequence,flow.Sequence,4_27,2023-10-31T00:42:51.134Z,,0,,,3584.812999988091,completion,,,,,false,,,,239998.89999997616,239998.69999998808,236380.063,236396.09999996424,236413.887,240013.42,8,400,,,
trial,html.Screen,4_28_0,2023-10-31T00:42:55.040Z,,0,1,,3891.4799999761453,response,ISIC_4957315.JPG,4,ISIC_0024256.JPG,ISIC_0024256.JPG,false,0,keypress(z),500,243905,243904.89999997616,239996.771,239998.89999997616,240013.42,243913.438,8,400,29,,ISIC_4957315.JPG
break,html.Screen,4_28_1,2023-10-31T00:42:55.041Z,,0,,,NaN,,,,,,false,,,,243905.69999998808,243905.59999996424,,243905.09999996424,,243913.438,8,400,,,
break_continue,html.Screen,4_28_2,2023-10-31T00:42:55.041Z,,0,,,NaN,,,,,,false,,,,243906,243905.89999997616,,243905.80000001192,,243913.438,8,400,,,
sequence,flow.Sequence,4_28,2023-10-31T00:42:55.041Z,,0,,,3892.4799999761453,completion,,,,,false,,,,243906,243905.89999997616,239996.771,239998.89999997616,240013.42,243913.438,8,400,,,
trial,html.Screen,4_29_0,2023-10-31T00:42:58.931Z,,0,1,,3882.0620000000054,response,ISIC_0067549.JPG,4,ISIC_7798403.JPG,ISIC_0067549.JPG,false,1,keypress(m),500,247795.69999998808,247795.5,243896.729,243906.09999996424,243913.438,247814.654,8,400,30,,ISIC_7798403.JPG
break,html.Screen,4_29_1,2023-10-31T00:42:58.932Z,,0,,,NaN,,,,,,false,,,,247796.39999997616,247796.19999998808,,247795.89999997616,,247814.654,8,400,,,
break_continue,html.Screen,4_29_2,2023-10-31T00:42:58.932Z,,0,,,NaN,,,,,,false,,,,247796.69999998808,247796.59999996424,,247796.5,,247814.654,8,400,,,
sequence,flow.Sequence,4_29,2023-10-31T00:42:58.932Z,,0,,,3883.1619999642426,completion,,,,,false,,,,247796.80000001192,247796.59999996424,243896.729,243906.09999996424,243913.438,247814.654,8,400,,,
trial,html.Screen,4_30_0,2023-10-31T00:43:02.838Z,,0,1,,3887.5459999880695,response,ISIC_0030440.JPG,5,ISIC_3617159.JPG,ISIC_3617159.JPG,false,0,keypress(z),500,251702.30000001192,251702.19999998808,247780.261,247796.89999997616,247814.654,251713.568,8,400,31,,ISIC_0030440.JPG
break,html.Screen,4_30_1,2023-10-31T00:43:02.838Z,,0,,,NaN,,,,,,false,,,,251702.80000001192,251702.69999998808,,251702.39999997616,,251713.568,8,400,,,
break_continue,html.Screen,4_30_2,2023-10-31T00:43:02.838Z,,0,,,NaN,,,,,,false,,,,251703.09999996424,251703,,251702.89999997616,,251713.568,8,400,,,
sequence,flow.Sequence,4_30,2023-10-31T00:43:02.838Z,,0,,,3888.3459999999905,completion,,,,,false,,,,251703.09999996424,251703,247780.261,247796.89999997616,247814.654,251713.568,8,400,,,
trial,html.Screen,4_31_0,2023-10-31T00:43:06.616Z,,0,1,,3767.1319999880798,response,ISIC_8855790.JPG,5,ISIC_9100933.JPG,ISIC_9100933.JPG,false,0,keypress(z),500,255480.89999997616,255480.69999998808,251696.852,251703.19999998808,251713.568,255496.913,8,400,32,,ISIC_8855790.JPG
break,html.Screen,4_31_1,2023-10-31T00:43:06.617Z,,0,,,NaN,,,,,,false,,,,255481.59999996424,255481.39999997616,,255481.09999996424,,255496.913,8,400,,,
break_continue,html.Screen,4_31_2,2023-10-31T00:43:06.617Z,,0,,,NaN,,,,,,false,,,,255481.80000001192,255481.80000001192,,255481.69999998808,,255496.913,8,400,,,
sequence,flow.Sequence,4_31,2023-10-31T00:43:06.617Z,,0,,,3768.2320000119216,completion,,,,,false,,,,255481.89999997616,255481.80000001192,251696.852,251703.09999996424,251713.568,255496.913,8,400,,,
trial,html.Screen,4_32_0,2023-10-31T00:43:10.731Z,,0,1,,4098.3870000119205,response,ISIC_1684127.JPG,4,ISIC_0024980.JPG,ISIC_0024980.JPG,false,0,keypress(z),500,259595.5,259595.30000001192,255480.26,255482,255496.913,259597.005,8,400,33,,ISIC_1684127.JPG
break,html.Screen,4_32_1,2023-10-31T00:43:10.731Z,,0,,,NaN,,,,,,false,,,,259596.09999996424,259596,,259595.5,,259597.005,8,400,,,
break_continue,html.Screen,4_32_2,2023-10-31T00:43:10.732Z,,0,,,NaN,,,,,,false,,,,259596.30000001192,259596.30000001192,,259596.09999996424,,259597.005,8,400,,,
sequence,flow.Sequence,4_32,2023-10-31T00:43:10.732Z,,0,,,4099.3870000119205,completion,,,,,false,,,,259596.30000001192,259596.30000001192,255480.26,255482,255496.913,259597.005,8,400,,,
trial,html.Screen,4_33_0,2023-10-31T00:43:14.078Z,,0,1,,3345.6949999880744,response,ISIC_0011645.JPG,5,ISIC_8650516.JPG,ISIC_8650516.JPG,false,0,keypress(z),500,262942.8000000119,262942.6999999881,259580.325,259596.39999997616,259597.005,262947.064,8,400,34,,ISIC_0011645.JPG
break,html.Screen,4_33_1,2023-10-31T00:43:14.079Z,,0,,,NaN,,,,,,false,,,,262943.8000000119,262943.59999996424,,262943,,262947.064,8,400,,,
break_continue,html.Screen,4_33_2,2023-10-31T00:43:14.079Z,,0,,,NaN,,,,,,false,,,,262944,262944,,262943.8000000119,,262947.064,8,400,,,
sequence,flow.Sequence,4_33,2023-10-31T00:43:14.079Z,,0,,,3346.9949999999953,completion,,,,,false,,,,262944,262944,259580.325,259596.30000001192,259597.005,262947.064,8,400,,,
trial,html.Screen,4_34_0,2023-10-31T00:43:17.857Z,,0,1,,3774.035999964224,response,ISIC_8628207.JPG,4,ISIC_0015455.JPG,ISIC_8628207.JPG,false,1,keypress(m),500,266721.1999999881,266721.09999996424,262930.346,262944.1999999881,262947.064,266730.399,8,400,35,,ISIC_0015455.JPG
break,html.Screen,4_34_1,2023-10-31T00:43:17.857Z,,0,,,NaN,,,,,,false,,,,266722.09999996424,266721.8000000119,,266721.39999997616,,266730.399,8,400,,,
break_continue,html.Screen,4_34_2,2023-10-31T00:43:17.858Z,,0,,,NaN,,,,,,false,,,,266722.3000000119,266722.1999999881,,266722.09999996424,,266730.399,8,400,,,
sequence,flow.Sequence,4_34,2023-10-31T00:43:17.858Z,,0,,,3775.135999988066,completion,,,,,false,,,,266722.3000000119,266722.1999999881,262930.346,262944.1999999881,262947.064,266730.399,8,400,,,
trial,html.Screen,4_35_0,2023-10-31T00:43:21.908Z,,0,1,,4042.2009999642614,response,ISIC_1720856.JPG,6,ISIC_0006754.JPG,ISIC_1720856.JPG,false,1,keypress(m),500,270772.6999999881,270772.59999996424,266713.76,266722.39999997616,266730.399,270780.75,8,400,36,,ISIC_0006754.JPG
break,html.Screen,4_35_1,2023-10-31T00:43:21.909Z,,0,,,NaN,,,,,,false,,,,270773.8000000119,270773.59999996424,,270772.89999997616,,270780.75,8,400,,,
break_continue,html.Screen,4_35_2,2023-10-31T00:43:21.909Z,,0,,,NaN,,,,,,false,,,,270773.89999997616,270773.89999997616,,270773.8000000119,,270780.75,8,400,,,
sequence,flow.Sequence,4_35,2023-10-31T00:43:21.909Z,,0,,,4043.5009999761824,completion,,,,,false,,,,270774.09999996424,270773.89999997616,266713.76,266722.39999997616,266730.399,270780.75,8,400,,,
trial,html.Screen,4_36_0,2023-10-31T00:43:25.832Z,,0,1,,3915.349999964237,response,ISIC_2885086.JPG,6,ISIC_5971591.JPG,ISIC_2885086.JPG,false,1,keypress(m),500,274696.1999999881,274696.09999996424,270764.349,270774.09999996424,270780.75,274714.594,8,400,37,,ISIC_5971591.JPG
break,html.Screen,4_36_1,2023-10-31T00:43:25.832Z,,0,,,NaN,,,,,,false,,,,274696.89999997616,274696.89999997616,,274696.3000000119,,274714.594,8,400,,,
break_continue,html.Screen,4_36_2,2023-10-31T00:43:25.833Z,,0,,,NaN,,,,,,false,,,,274697.1999999881,274697.1999999881,,274697,,274714.594,8,400,,,
sequence,flow.Sequence,4_36,2023-10-31T00:43:25.833Z,,0,,,3916.449999988079,completion,,,,,false,,,,274697.39999997616,274697.1999999881,270764.349,270774.09999996424,270780.75,274714.594,8,400,,,
trial,html.Screen,4_37_0,2023-10-31T00:43:29.466Z,,0,1,,3615.5059999642544,response,ISIC_1955991.JPG,5,ISIC_0054073.JPG,ISIC_0054073.JPG,false,0,keypress(z),500,278330.39999997616,278330.09999996424,274680.539,274697.5,274714.594,278347.262,8,400,38,,ISIC_1955991.JPG
break,html.Screen,4_37_1,2023-10-31T00:43:29.467Z,,0,,,NaN,,,,,,false,,,,278331.5,278331.3000000119,,278330.5,,278347.262,8,400,,,
break_continue,html.Screen,4_37_2,2023-10-31T00:43:29.467Z,,0,,,NaN,,,,,,false,,,,278331.6999999881,278331.59999996424,,278331.59999996424,,278347.262,8,400,,,
sequence,flow.Sequence,4_37,2023-10-31T00:43:29.467Z,,0,,,3617.0059999642544,completion,,,,,false,,,,278331.8000000119,278331.59999996424,274680.539,274697.39999997616,274714.594,278347.262,8,400,,,
trial,html.Screen,4_38_0,2023-10-31T00:43:32.956Z,,0,1,,3473.538000011933,response,ISIC_0027694.JPG,4,ISIC_0231745.JPG,ISIC_0231745.JPG,false,0,keypress(z),500,281821.09999996424,281820.8000000119,278330.521,278331.89999997616,278347.262,281830.648,8,400,39,,ISIC_0027694.JPG
break,html.Screen,4_38_1,2023-10-31T00:43:32.957Z,,0,,,NaN,,,,,,false,,,,281821.89999997616,281821.8000000119,,281821.3000000119,,281830.648,8,400,,,
break_continue,html.Screen,4_38_2,2023-10-31T00:43:32.958Z,,0,,,NaN,,,,,,false,,,,281822.09999996424,281822.09999996424,,281822,,281830.648,8,400,,,
sequence,flow.Sequence,4_38,2023-10-31T00:43:32.958Z,,0,,,3474.8379999642493,completion,,,,,false,,,,281822.1999999881,281822.09999996424,278330.521,278331.89999997616,278347.262,281830.648,8,400,,,
trial,html.Screen,4_39_0,2023-10-31T00:43:37.087Z,,0,1,,4120.451999964251,response,ISIC_0010209.JPG,4,ISIC_0014766.JPG,ISIC_0014766.JPG,false,0,keypress(z),500,285951.3000000119,285951.09999996424,281813.937,281822.1999999881,281830.648,285964.091,8,400,40,,ISIC_0010209.JPG
break,html.Screen,4_39_1,2023-10-31T00:43:37.088Z,,0,,,NaN,,,,,,false,,,,285952.09999996424,285952,,285951.6999999881,,285964.091,8,400,,,
break_continue,html.Screen,4_39_2,2023-10-31T00:43:37.088Z,,0,,,NaN,,,,,,false,,,,285952.5,285952.5,,285952.3000000119,,285964.091,8,400,,,
sequence,flow.Sequence,4_39,2023-10-31T00:43:37.088Z,,0,,,4121.8520000000135,completion,,,,,false,,,,285952.59999996424,285952.5,281813.937,281822.1999999881,281830.648,285964.091,8,400,,,
trial,html.Screen,4_40_0,2023-10-31T00:43:41.057Z,,0,1,,3957.608999988064,response,ISIC_0004000.JPG,6,ISIC_4453506.JPG,ISIC_0004000.JPG,false,1,keypress(m),500,289921.89999997616,289921.6999999881,285947.398,285952.6999999881,285964.091,289930.884,8,400,41,,ISIC_4453506.JPG
break,html.Screen,4_40_1,2023-10-31T00:43:41.058Z,,0,,,NaN,,,,,,false,,,,289922.59999996424,289922.5,,289922,,289930.884,8,400,,,
break_continue,html.Screen,4_40_2,2023-10-31T00:43:41.058Z,,0,,,NaN,,,,,,false,,,,289922.8000000119,289922.6999999881,,289922.59999996424,,289930.884,8,400,,,
sequence,flow.Sequence,4_40,2023-10-31T00:43:41.058Z,,0,,,3958.608999988064,completion,,,,,false,,,,289922.89999997616,289922.6999999881,285947.398,285952.6999999881,285964.091,289930.884,8,400,,,
trial,html.Screen,4_41_0,2023-10-31T00:43:45.972Z,,0,1,,4905.215999964217,response,ISIC_0009955.JPG,4,ISIC_1348843.JPG,ISIC_0009955.JPG,false,1,keypress(m),500,294836.39999997616,294836.09999996424,289914.151,289922.89999997616,289930.884,294847.494,8,400,42,,ISIC_1348843.JPG
break,html.Screen,4_41_1,2023-10-31T00:43:45.972Z,,0,,,NaN,,,,,,false,,,,294836.89999997616,294836.8000000119,,294836.5,,294847.494,8,400,,,
break_continue,html.Screen,4_41_2,2023-10-31T00:43:45.972Z,,0,,,NaN,,,,,,false,,,,294837,294837,,294836.89999997616,,294847.494,8,400,,,
sequence,flow.Sequence,4_41,2023-10-31T00:43:45.973Z,,0,,,4906.11599999998,completion,,,,,false,,,,294837.1999999881,294837,289914.151,289922.89999997616,289930.884,294847.494,8,400,,,
trial,html.Screen,4_42_0,2023-10-31T00:43:50.790Z,,0,1,,4806.605999964231,response,ISIC_0027225.JPG,5,ISIC_0024261.JPG,ISIC_0024261.JPG,false,0,keypress(z),500,299654.1999999881,299654.09999996424,294830.779,294837.1999999881,294847.494,299664.22,8,400,43,,ISIC_0027225.JPG
break,html.Screen,4_42_1,2023-10-31T00:43:50.790Z,,0,,,NaN,,,,,,false,,,,299654.8000000119,299654.6999999881,,299654.3000000119,,299664.22,8,400,,,
break_continue,html.Screen,4_42_2,2023-10-31T00:43:50.790Z,,0,,,NaN,,,,,,false,,,,299654.89999997616,299654.89999997616,,299654.8000000119,,299664.22,8,400,,,
sequence,flow.Sequence,4_42,2023-10-31T00:43:50.790Z,,0,,,4807.405999976152,completion,,,,,false,,,,299655,299654.89999997616,294830.779,294837.1999999881,294847.494,299664.22,8,400,,,
trial,html.Screen,4_43_0,2023-10-31T00:43:54.920Z,,0,1,,4120.280000000028,response,ISIC_1862691.JPG,6,ISIC_8397011.JPG,ISIC_8397011.JPG,false,0,keypress(z),500,303784.6999999881,303784.5,299647.602,299655.09999996424,299664.22,303797.59,8,400,44,,ISIC_1862691.JPG
break,html.Screen,4_43_1,2023-10-31T00:43:54.921Z,,0,,,NaN,,,,,,false,,,,303785.3000000119,303785.1999999881,,303784.6999999881,,303797.59,8,400,,,
break_continue,html.Screen,4_43_2,2023-10-31T00:43:54.921Z,,0,,,NaN,,,,,,false,,,,303785.39999997616,303785.39999997616,,303785.3000000119,,303797.59,8,400,,,
sequence,flow.Sequence,4_43,2023-10-31T00:43:54.921Z,,0,,,4121.179999976186,completion,,,,,false,,,,303785.5,303785.39999997616,299647.602,299655,299664.22,303797.59,8,400,,,
trial,html.Screen,4_44_0,2023-10-31T00:43:58.394Z,,0,1,,3460.7100000118953,response,ISIC_7141153.JPG,5,ISIC_0012883.JPG,ISIC_7141153.JPG,false,1,keypress(m),500,307258.5,307258.3000000119,303780.865,303785.5,303797.59,307264.323,8,400,45,,ISIC_0012883.JPG
break,html.Screen,4_44_1,2023-10-31T00:43:58.395Z,,0,,,NaN,,,,,,false,,,,307259.3000000119,307259.09999996424,,307258.59999996424,,307264.323,8,400,,,
break_continue,html.Screen,4_44_2,2023-10-31T00:43:58.395Z,,0,,,NaN,,,,,,false,,,,307259.39999997616,307259.39999997616,,307259.3000000119,,307264.323,8,400,,,
sequence,flow.Sequence,4_44,2023-10-31T00:43:58.395Z,,0,,,3461.8099999761325,completion,,,,,false,,,,307259.39999997616,307259.39999997616,303780.865,303785.5,303797.59,307264.323,8,400,,,
trial,html.Screen,4_45_0,2023-10-31T00:44:01.948Z,,0,1,,3547.7769999642624,response,ISIC_6512653.JPG,5,ISIC_0024701.JPG,ISIC_6512653.JPG,false,1,keypress(m),500,310812.3000000119,310812.09999996424,307247.675,307259.5,307264.323,310814.385,8,400,46,,ISIC_0024701.JPG
break,html.Screen,4_45_1,2023-10-31T00:44:01.949Z,,0,,,NaN,,,,,,false,,,,310813.39999997616,310813.3000000119,,310812.5,,310814.385,8,400,,,
break_continue,html.Screen,4_45_2,2023-10-31T00:44:01.949Z,,0,,,NaN,,,,,,false,,,,310813.6999999881,310813.5,,310813.5,,310814.385,8,400,,,
sequence,flow.Sequence,4_45,2023-10-31T00:44:01.949Z,,0,,,3549.177000000025,completion,,,,,false,,,,310813.6999999881,310813.5,307247.675,307259.5,307264.323,310814.385,8,400,,,
trial,html.Screen,4_46_0,2023-10-31T00:44:06.271Z,,0,1,,4321.415000011912,response,ISIC_0058418.JPG,5,ISIC_0025219.JPG,ISIC_0058418.JPG,false,1,keypress(m),500,315136,315135.8000000119,310797.666,310813.8000000119,310814.385,315147.79,8,400,47,,ISIC_0025219.JPG
break,html.Screen,4_46_1,2023-10-31T00:44:06.272Z,,0,,,NaN,,,,,,false,,,,315136.8000000119,315136.6999999881,,315136.3000000119,,315147.79,8,400,,,
break_continue,html.Screen,4_46_2,2023-10-31T00:44:06.272Z,,0,,,NaN,,,,,,false,,,,315136.89999997616,315136.89999997616,,315136.8000000119,,315147.79,8,400,,,
sequence,flow.Sequence,4_46,2023-10-31T00:44:06.272Z,,0,,,4322.514999976149,completion,,,,,false,,,,315137,315136.89999997616,310797.666,310813.8000000119,310814.385,315147.79,8,400,,,
trial,html.Screen,4_47_0,2023-10-31T00:44:10.099Z,,0,1,,3815.4099999881,response,ISIC_6763221.JPG,4,ISIC_3729849.JPG,ISIC_3729849.JPG,false,0,keypress(z),500,318963.39999997616,318963.1999999881,315131.588,315137.09999996424,315147.79,318981.973,8,400,48,,ISIC_6763221.JPG
break,html.Screen,4_47_1,2023-10-31T00:44:10.099Z,,0,,,NaN,,,,,,false,,,,318964.1999999881,318964,,318963.59999996424,,318981.973,8,400,,,
break_continue,html.Screen,4_47_2,2023-10-31T00:44:10.100Z,,0,,,NaN,,,,,,false,,,,318964.3000000119,318964.1999999881,,318964.1999999881,,318981.973,8,400,,,
sequence,flow.Sequence,4_47,2023-10-31T00:44:10.100Z,,0,,,3816.4099999881,completion,,,,,false,,,,318964.3000000119,318964.1999999881,315131.588,315137,315147.79,318981.973,8,400,,,
trial,html.Screen,4_48_0,2023-10-31T00:44:15.509Z,,0,1,,5391.726999988081,response,ISIC_0060700.JPG,6,ISIC_1132496.JPG,ISIC_0060700.JPG,false,1,keypress(m),500,324374,324373.6999999881,318947.797,318964.39999997616,318981.973,324381.253,8,400,49,,ISIC_1132496.JPG
break,html.Screen,4_48_1,2023-10-31T00:44:15.510Z,,0,,,NaN,,,,,,false,,,,324374.6999999881,324374.59999996424,,324374.1999999881,,324381.253,8,400,,,
break_continue,html.Screen,4_48_2,2023-10-31T00:44:15.510Z,,0,,,NaN,,,,,,false,,,,324374.8000000119,324374.8000000119,,324374.6999999881,,324381.253,8,400,,,
sequence,flow.Sequence,4_48,2023-10-31T00:44:15.510Z,,0,,,5392.827000011923,completion,,,,,false,,,,324374.89999997616,324374.8000000119,318947.797,318964.39999997616,318981.973,324381.253,8,400,,,
trial,html.Screen,4_49_0,2023-10-31T00:44:19.545Z,,0,1,,4028.246999999974,response,ISIC_0069398.JPG,5,ISIC_0013617.JPG,ISIC_0013617.JPG,false,0,keypress(z),500,328409.59999996424,328409.5,324364.57,324375,324381.253,328414.646,8,400,50,,ISIC_0069398.JPG
break,html.Screen,4_49_1,2023-10-31T00:44:29.534Z,,0,,,10000.151000000013,timeout,,,,,false,,,,338398.6999999881,338398.157,328397.922,328409.6999999881,328414.646,338414.797,8,400,,,
break_continue,html.Screen,4_49_2,2023-10-31T00:44:32.150Z,,0,,,2593.2029999999795,response,,,,,false,continue,keypress(Space),,341014.59999996424,341008,338398.157,338398.8000000119,338414.797,341031.503,8,400,,,
sequence,flow.Sequence,4_49,2023-10-31T00:44:32.150Z,,0,,,16626.746999999974,completion,,,,,false,,,,341014.59999996424,341008,324364.57,324375,324381.253,341031.503,8,400,,,
trial,html.Screen,4_50_0,2023-10-31T00:44:35.191Z,,0,2,,3024.396999976132,response,ISIC_0034170.JPG,6,ISIC_6114646.JPG,ISIC_6114646.JPG,false,0,keypress(z),500,344056,344055.89999997616,341014.52,341014.59999996424,341031.503,344064.829,8,400,1,,ISIC_0034170.JPG
break,html.Screen,4_50_1,2023-10-31T00:44:35.192Z,,0,,,NaN,,,,,,false,,,,344056.39999997616,344056.39999997616,,344056.09999996424,,344064.829,8,400,,,
break_continue,html.Screen,4_50_2,2023-10-31T00:44:35.192Z,,0,,,NaN,,,,,,false,,,,344056.6999999881,344056.59999996424,,344056.59999996424,,344064.829,8,400,,,
sequence,flow.Sequence,4_50,2023-10-31T00:44:35.192Z,,0,,,3025.096999964211,completion,,,,,false,,,,344056.6999999881,344056.59999996424,341014.52,341014.59999996424,341031.503,344064.829,8,400,,,
trial,html.Screen,4_51_0,2023-10-31T00:44:39.387Z,,0,2,,4186.27099996421,response,ISIC_0003793.JPG,5,ISIC_2394181.JPG,ISIC_0003793.JPG,false,1,keypress(m),500,348251.3000000119,348251.09999996424,344048.199,344056.8000000119,344064.829,348264.913,8,400,2,,ISIC_2394181.JPG
break,html.Screen,4_51_1,2023-10-31T00:44:39.387Z,,0,,,NaN,,,,,,false,,,,348252,348251.8000000119,,348251.59999996424,,348264.913,8,400,,,
break_continue,html.Screen,4_51_2,2023-10-31T00:44:39.387Z,,0,,,NaN,,,,,,false,,,,348252.1999999881,348252.1999999881,,348252,,348264.913,8,400,,,
sequence,flow.Sequence,4_51,2023-10-31T00:44:39.388Z,,0,,,4187.370999988052,completion,,,,,false,,,,348252.1999999881,348252.1999999881,344048.199,344056.8000000119,344064.829,348264.913,8,400,,,
trial,html.Screen,4_52_0,2023-10-31T00:44:42.446Z,,0,2,,3045.2869999880786,response,ISIC_0071388.JPG,4,ISIC_1515947.JPG,ISIC_1515947.JPG,false,0,keypress(z),500,351310.5,351310.1999999881,348248.287,348252.1999999881,348264.913,351315.014,8,400,3,,ISIC_0071388.JPG
break,html.Screen,4_52_1,2023-10-31T00:44:42.446Z,,0,,,NaN,,,,,,false,,,,351311,351310.89999997616,,351310.59999996424,,351315.014,8,400,,,
break_continue,html.Screen,4_52_2,2023-10-31T00:44:42.447Z,,0,,,NaN,,,,,,false,,,,351311.1999999881,351311.1999999881,,351311.09999996424,,351315.014,8,400,,,
sequence,flow.Sequence,4_52,2023-10-31T00:44:42.447Z,,0,,,3046.2869999880786,completion,,,,,false,,,,351311.3000000119,351311.1999999881,348248.287,348252.1999999881,348264.913,351315.014,8,400,,,
trial,html.Screen,4_53_0,2023-10-31T00:44:46.624Z,,0,2,,4173.5859999642125,response,ISIC_8384985.JPG,4,ISIC_0032610.JPG,ISIC_8384985.JPG,false,1,keypress(m),500,355488.8000000119,355488.59999996424,351298.267,351311.3000000119,351315.014,355498.331,8,400,4,,ISIC_0032610.JPG
break,html.Screen,4_53_1,2023-10-31T00:44:46.625Z,,0,,,NaN,,,,,,false,,,,355489.5,355489.39999997616,,355489,,355498.331,8,400,,,
break_continue,html.Screen,4_53_2,2023-10-31T00:44:46.625Z,,0,,,NaN,,,,,,false,,,,355489.8000000119,355489.59999996424,,355489.59999996424,,355498.331,8,400,,,
sequence,flow.Sequence,4_53,2023-10-31T00:44:46.625Z,,0,,,4174.5859999642125,completion,,,,,false,,,,355489.8000000119,355489.59999996424,351298.267,351311.3000000119,351315.014,355498.331,8,400,,,
trial,html.Screen,4_54_0,2023-10-31T00:44:50.931Z,,0,2,,4297.3689999880735,response,ISIC_7320371.JPG,5,ISIC_0032569.JPG,ISIC_7320371.JPG,false,1,keypress(m),500,359795.89999997616,359795.6999999881,355481.637,355489.89999997616,355498.331,359798.511,8,400,5,,ISIC_0032569.JPG
break,html.Screen,4_54_1,2023-10-31T00:44:50.932Z,,0,,,NaN,,,,,,false,,,,359796.39999997616,359796.3000000119,,359796,,359798.511,8,400,,,
break_continue,html.Screen,4_54_2,2023-10-31T00:44:50.932Z,,0,,,NaN,,,,,,false,,,,359796.59999996424,359796.59999996424,,359796.5,,359798.511,8,400,,,
sequence,flow.Sequence,4_54,2023-10-31T00:44:50.932Z,,0,,,4298.268999964232,completion,,,,,false,,,,359796.6999999881,359796.59999996424,355481.637,355489.89999997616,355498.331,359798.511,8,400,,,
trial,html.Screen,4_55_0,2023-10-31T00:44:54.261Z,,0,2,,3327.3889999761595,response,ISIC_0000463.JPG,5,ISIC_4401524.JPG,ISIC_4401524.JPG,false,0,keypress(z),500,363126,363125.89999997616,359781.802,359796.6999999881,359798.511,363131.906,8,400,6,,ISIC_0000463.JPG
break,html.Screen,4_55_1,2023-10-31T00:44:54.262Z,,0,,,NaN,,,,,,false,,,,363126.6999999881,363126.5,,363126.09999996424,,363131.906,8,400,,,
break_continue,html.Screen,4_55_2,2023-10-31T00:44:54.262Z,,0,,,NaN,,,,,,false,,,,363127,363126.8000000119,,363126.6999999881,,363131.906,8,400,,,
sequence,flow.Sequence,4_55,2023-10-31T00:44:54.262Z,,0,,,3328.2890000119223,completion,,,,,false,,,,363127.09999996424,363126.8000000119,359781.802,359796.6999999881,359798.511,363131.906,8,400,,,
trial,html.Screen,4_56_0,2023-10-31T00:44:57.608Z,,0,2,,3340.293999988062,response,ISIC_4033676.JPG,5,ISIC_1733794.JPG,ISIC_1733794.JPG,false,0,keypress(z),500,366472.3000000119,366472.1999999881,363115.129,363127.1999999881,363131.906,366481.823,8,400,7,,ISIC_4033676.JPG
break,html.Screen,4_56_1,2023-10-31T00:44:57.609Z,,0,,,NaN,,,,,,false,,,,366473.1999999881,366473,,366472.5,,366481.823,8,400,,,
break_continue,html.Screen,4_56_2,2023-10-31T00:44:57.609Z,,0,,,NaN,,,,,,false,,,,366473.3000000119,366473.3000000119,,366473.1999999881,,366481.823,8,400,,,
sequence,flow.Sequence,4_56,2023-10-31T00:44:57.609Z,,0,,,3341.3940000119037,completion,,,,,false,,,,366473.39999997616,366473.3000000119,363115.129,363127.1999999881,363131.906,366481.823,8,400,,,
trial,html.Screen,4_57_0,2023-10-31T00:45:01.626Z,,0,2,,4008.5769999761833,response,ISIC_0054244.JPG,5,ISIC_9837030.JPG,ISIC_0054244.JPG,false,1,keypress(m),500,370490.59999996424,370490.39999997616,366465.561,366473.5,366481.823,370498.57,8,400,8,,ISIC_9837030.JPG
break,html.Screen,4_57_1,2023-10-31T00:45:01.627Z,,0,,,NaN,,,,,,false,,,,370491.3000000119,370491.1999999881,,370490.8000000119,,370498.57,8,400,,,
break_continue,html.Screen,4_57_2,2023-10-31T00:45:01.627Z,,0,,,NaN,,,,,,false,,,,370491.39999997616,370491.39999997616,,370491.39999997616,,370498.57,8,400,,,
sequence,flow.Sequence,4_57,2023-10-31T00:45:01.627Z,,0,,,4009.5769999761833,completion,,,,,false,,,,370491.5,370491.39999997616,366465.561,366473.5,366481.823,370498.57,8,400,,,
trial,html.Screen,4_58_0,2023-10-31T00:45:05.788Z,,0,2,,4153.629999988072,response,ISIC_3552318.JPG,5,ISIC_0002862.JPG,ISIC_3552318.JPG,false,1,keypress(m),500,374652.39999997616,374652.1999999881,370481.915,370491.5,370498.57,374665.287,8,400,9,,ISIC_0002862.JPG
break,html.Screen,4_58_1,2023-10-31T00:45:05.788Z,,0,,,NaN,,,,,,false,,,,374653,374652.89999997616,,374652.5,,374665.287,8,400,,,
break_continue,html.Screen,4_58_2,2023-10-31T00:45:05.789Z,,0,,,NaN,,,,,,false,,,,374653.3000000119,374653.1999999881,,374653.09999996424,,374665.287,8,400,,,
sequence,flow.Sequence,4_58,2023-10-31T00:45:05.789Z,,0,,,4154.629999988072,completion,,,,,false,,,,374653.39999997616,374653.1999999881,370481.915,370491.5,370498.57,374665.287,8,400,,,
trial,html.Screen,4_59_0,2023-10-31T00:45:09.118Z,,0,2,,3317.412999988068,response,ISIC_0028275.JPG,4,ISIC_0012865.JPG,ISIC_0012865.JPG,false,0,keypress(z),500,377982.8000000119,377982.6999999881,374648.596,374653.39999997616,374665.287,377998.721,8,400,10,,ISIC_0028275.JPG
break,html.Screen,4_59_1,2023-10-31T00:45:09.119Z,,0,,,NaN,,,,,,false,,,,377983.39999997616,377983.1999999881,,377983,,377998.721,8,400,,,
break_continue,html.Screen,4_59_2,2023-10-31T00:45:09.119Z,,0,,,NaN,,,,,,false,,,,377983.59999996424,377983.5,,377983.39999997616,,377998.721,8,400,,,
sequence,flow.Sequence,4_59,2023-10-31T00:45:09.119Z,,0,,,3318.212999999989,completion,,,,,false,,,,377983.6999999881,377983.5,374648.596,374653.39999997616,374665.287,377998.721,8,400,,,
trial,html.Screen,4_60_0,2023-10-31T00:45:13.057Z,,0,2,,3922.2789999999804,response,ISIC_9030482.JPG,4,ISIC_1189461.JPG,ISIC_9030482.JPG,false,1,keypress(m),500,381921.09999996424,381921,377981.942,377983.8000000119,377998.721,381932.083,8,400,11,,ISIC_1189461.JPG
break,html.Screen,4_60_1,2023-10-31T00:45:13.057Z,,0,,,NaN,,,,,,false,,,,381921.8000000119,381921.6999999881,,381921.3000000119,,381932.083,8,400,,,
break_continue,html.Screen,4_60_2,2023-10-31T00:45:13.057Z,,0,,,NaN,,,,,,false,,,,381922.09999996424,381922,,381921.89999997616,,381932.083,8,400,,,
sequence,flow.Sequence,4_60,2023-10-31T00:45:13.057Z,,0,,,3923.2789999999804,completion,,,,,false,,,,381922.1999999881,381922,377981.942,377983.8000000119,377998.721,381932.083,8,400,,,
trial,html.Screen,4_61_0,2023-10-31T00:45:17.140Z,,0,2,,4072.516999964253,response,ISIC_0033083.JPG,5,ISIC_5584185.JPG,ISIC_0033083.JPG,false,1,keypress(m),500,386004.8000000119,386004.59999996424,381915.41,381922.3000000119,381932.083,386015.462,8,400,12,,ISIC_5584185.JPG
break,html.Screen,4_61_1,2023-10-31T00:45:17.141Z,,0,,,NaN,,,,,,false,,,,386005.59999996424,386005.39999997616,,386005,,386015.462,8,400,,,
break_continue,html.Screen,4_61_2,2023-10-31T00:45:17.141Z,,0,,,NaN,,,,,,false,,,,386005.8000000119,386005.8000000119,,386005.59999996424,,386015.462,8,400,,,
sequence,flow.Sequence,4_61,2023-10-31T00:45:17.141Z,,0,,,4073.7170000119368,completion,,,,,false,,,,386005.89999997616,386005.8000000119,381915.41,381922.3000000119,381932.083,386015.462,8,400,,,
trial,html.Screen,4_62_0,2023-10-31T00:45:20.631Z,,0,2,,3479.8380000119214,response,ISIC_0013084.JPG,5,ISIC_0065746.JPG,ISIC_0013084.JPG,false,1,keypress(m),500,389495.5,389495.3000000119,385998.794,386006,386015.462,389499.259,8,400,13,,ISIC_0065746.JPG
break,html.Screen,4_62_1,2023-10-31T00:45:20.631Z,,0,,,NaN,,,,,,false,,,,389496.1999999881,389496,,389495.6999999881,,389499.259,8,400,,,
break_continue,html.Screen,4_62_2,2023-10-31T00:45:20.632Z,,0,,,NaN,,,,,,false,,,,389496.3000000119,389496.3000000119,,389496.1999999881,,389499.259,8,400,,,
sequence,flow.Sequence,4_62,2023-10-31T00:45:20.632Z,,0,,,3480.8380000119214,completion,,,,,false,,,,389496.39999997616,389496.3000000119,385998.794,386005.89999997616,386015.462,389499.259,8,400,,,
trial,html.Screen,4_63_0,2023-10-31T00:45:23.801Z,,0,2,,3166.24099999998,response,ISIC_1228845.JPG,4,ISIC_4526581.JPG,ISIC_4526581.JPG,false,0,keypress(z),500,392665.8000000119,392665.5,389482.17,389496.5,389499.259,392682.203,8,400,14,,ISIC_1228845.JPG
break,html.Screen,4_63_1,2023-10-31T00:45:23.802Z,,0,,,NaN,,,,,,false,,,,392666.8000000119,392666.59999996424,,392666.09999996424,,392682.203,8,400,,,
break_continue,html.Screen,4_63_2,2023-10-31T00:45:23.802Z,,0,,,NaN,,,,,,false,,,,392667,392666.89999997616,,392666.8000000119,,392682.203,8,400,,,
sequence,flow.Sequence,4_63,2023-10-31T00:45:23.802Z,,0,,,3167.640999976138,completion,,,,,false,,,,392667,392666.89999997616,389482.17,389496.5,389499.259,392682.203,8,400,,,
trial,html.Screen,4_64_0,2023-10-31T00:45:28.348Z,,0,2,,4530.597000011941,response,ISIC_0026497.JPG,4,ISIC_7921023.JPG,ISIC_0026497.JPG,false,1,keypress(m),500,397213.09999996424,397212.8000000119,392666.198,392667,392682.203,397215.635,8,400,15,,ISIC_7921023.JPG
break,html.Screen,4_64_1,2023-10-31T00:45:28.349Z,,0,,,NaN,,,,,,false,,,,397213.89999997616,397213.6999999881,,397213.1999999881,,397215.635,8,400,,,
break_continue,html.Screen,4_64_2,2023-10-31T00:45:28.349Z,,0,,,NaN,,,,,,false,,,,397214.09999996424,397214.09999996424,,397213.89999997616,,397215.635,8,400,,,
sequence,flow.Sequence,4_64,2023-10-31T00:45:28.349Z,,0,,,4531.896999964258,completion,,,,,false,,,,397214.09999996424,397214.09999996424,392666.198,392667,392682.203,397215.635,8,400,,,
trial,html.Screen,4_65_0,2023-10-31T00:45:32.239Z,,0,2,,3887.5649999880698,response,ISIC_5622348.JPG,5,ISIC_0065313.JPG,ISIC_5622348.JPG,false,1,keypress(m),500,401103.5,401103.1999999881,397198.961,397214.1999999881,397215.635,401115.7,8,400,16,,ISIC_0065313.JPG
break,html.Screen,4_65_1,2023-10-31T00:45:32.240Z,,0,,,NaN,,,,,,false,,,,401104.1999999881,401104.09999996424,,401103.59999996424,,401115.7,8,400,,,
break_continue,html.Screen,4_65_2,2023-10-31T00:45:32.240Z,,0,,,NaN,,,,,,false,,,,401104.39999997616,401104.39999997616,,401104.39999997616,,401115.7,8,400,,,
sequence,flow.Sequence,4_65,2023-10-31T00:45:32.240Z,,0,,,3888.764999976149,completion,,,,,false,,,,401104.5,401104.39999997616,397198.961,397214.1999999881,397215.635,401115.7,8,400,,,
trial,html.Screen,4_66_0,2023-10-31T00:45:35.778Z,,0,2,,3526.4999999880674,response,ISIC_0065740.JPG,5,ISIC_7397447.JPG,ISIC_7397447.JPG,false,0,keypress(z),500,404642.5,404642.1999999881,401099.032,401104.5,401115.7,404649.1,8,400,17,,ISIC_0065740.JPG
break,html.Screen,4_66_1,2023-10-31T00:45:35.779Z,,0,,,NaN,,,,,,false,,,,404643.39999997616,404643.1999999881,,404642.8000000119,,404649.1,8,400,,,
break_continue,html.Screen,4_66_2,2023-10-31T00:45:35.779Z,,0,,,NaN,,,,,,false,,,,404643.6999999881,404643.5,,404643.5,,404649.1,8,400,,,
sequence,flow.Sequence,4_66,2023-10-31T00:45:35.779Z,,0,,,3527.7999999999884,completion,,,,,false,,,,404643.6999999881,404643.5,401099.032,401104.5,401115.7,404649.1,8,400,,,
trial,html.Screen,4_67_0,2023-10-31T00:45:39.877Z,,0,2,,4091.9000000000233,response,ISIC_1566428.JPG,4,ISIC_0033336.JPG,ISIC_0033336.JPG,false,0,keypress(z),500,408741.3000000119,408741,404632.377,404643.8000000119,404649.1,408749.107,8,400,18,,ISIC_1566428.JPG
break,html.Screen,4_67_1,2023-10-31T00:45:39.878Z,,0,,,NaN,,,,,,false,,,,408742.3000000119,408742.09999996424,,408741.39999997616,,408749.107,8,400,,,
break_continue,html.Screen,4_67_2,2023-10-31T00:45:39.878Z,,0,,,NaN,,,,,,false,,,,408742.5,408742.39999997616,,408742.39999997616,,408749.107,8,400,,,
sequence,flow.Sequence,4_67,2023-10-31T00:45:39.878Z,,0,,,4093.2999999761814,completion,,,,,false,,,,408742.59999996424,408742.39999997616,404632.377,404643.8000000119,404649.1,408749.107,8,400,,,
trial,html.Screen,4_68_0,2023-10-31T00:45:43.736Z,,0,2,,3850.992999964219,response,ISIC_3395488.JPG,5,ISIC_3352799.JPG,ISIC_3352799.JPG,false,0,keypress(z),500,412600.3000000119,412600.09999996424,408732.446,408742.6999999881,408749.107,412615.865,8,400,19,,ISIC_3395488.JPG
break,html.Screen,4_68_1,2023-10-31T00:45:43.737Z,,0,,,NaN,,,,,,false,,,,412601.09999996424,412601.09999996424,,412600.39999997616,,412615.865,8,400,,,
break_continue,html.Screen,4_68_2,2023-10-31T00:45:43.737Z,,0,,,NaN,,,,,,false,,,,412601.5,412601.3000000119,,412601.3000000119,,412615.865,8,400,,,
sequence,flow.Sequence,4_68,2023-10-31T00:45:43.737Z,,0,,,3852.1930000119028,completion,,,,,false,,,,412601.59999996424,412601.3000000119,408732.446,408742.6999999881,408749.107,412615.865,8,400,,,
trial,html.Screen,4_69_0,2023-10-31T00:45:47.035Z,,0,2,,3283.3349999880884,response,ISIC_0033664.JPG,5,ISIC_9644813.JPG,ISIC_9644813.JPG,false,0,keypress(z),500,415899.5,415899.1999999881,412599.159,412601.59999996424,412615.865,415915.919,8,400,20,,ISIC_0033664.JPG
break,html.Screen,4_69_1,2023-10-31T00:45:47.036Z,,0,,,NaN,,,,,,false,,,,415900.39999997616,415900.1999999881,,415899.6999999881,,415915.919,8,400,,,
break_continue,html.Screen,4_69_2,2023-10-31T00:45:47.036Z,,0,,,NaN,,,,,,false,,,,415900.59999996424,415900.59999996424,,415900.5,,415915.919,8,400,,,
sequence,flow.Sequence,4_69,2023-10-31T00:45:47.036Z,,0,,,3284.7349999642465,completion,,,,,false,,,,415900.6999999881,415900.59999996424,412599.159,412601.59999996424,412615.865,415915.919,8,400,,,
trial,html.Screen,4_70_0,2023-10-31T00:45:50.478Z,,0,2,,3426.0810000000056,response,ISIC_0000291.JPG,6,ISIC_0054422.JPG,ISIC_0000291.JPG,false,1,keypress(m),500,419342.39999997616,419342,415899.199,415900.6999999881,415915.919,419349.307,8,400,21,,ISIC_0054422.JPG
break,html.Screen,4_70_1,2023-10-31T00:45:50.478Z,,0,,,NaN,,,,,,false,,,,419343.09999996424,419343,,419342.5,,419349.307,8,400,,,
break_continue,html.Screen,4_70_2,2023-10-31T00:45:50.479Z,,0,,,NaN,,,,,,false,,,,419343.3000000119,419343.1999999881,,419343.09999996424,,419349.307,8,400,,,
sequence,flow.Sequence,4_70,2023-10-31T00:45:50.479Z,,0,,,3427.2809999880847,completion,,,,,false,,,,419343.3000000119,419343.1999999881,415899.199,415900.6999999881,415915.919,419349.307,8,400,,,
trial,html.Screen,4_71_0,2023-10-31T00:45:53.408Z,,0,2,,2923.3929999881075,response,ISIC_0027069.JPG,6,ISIC_9685928.JPG,ISIC_9685928.JPG,false,0,keypress(z),500,422272.89999997616,422272.6999999881,419332.723,419343.39999997616,419349.307,422282.668,8,400,22,,ISIC_0027069.JPG
break,html.Screen,4_71_1,2023-10-31T00:45:53.409Z,,0,,,NaN,,,,,,false,,,,422273.59999996424,422273.39999997616,,422273,,422282.668,8,400,,,
break_continue,html.Screen,4_71_2,2023-10-31T00:45:53.409Z,,0,,,NaN,,,,,,false,,,,422273.8000000119,422273.8000000119,,422273.6999999881,,422282.668,8,400,,,
sequence,flow.Sequence,4_71,2023-10-31T00:45:53.409Z,,0,,,2924.4930000119493,completion,,,,,false,,,,422273.89999997616,422273.8000000119,419332.723,419343.39999997616,419349.307,422282.668,8,400,,,
trial,html.Screen,4_72_0,2023-10-31T00:45:57.154Z,,0,2,,3736.331999999995,response,ISIC_0808203.JPG,5,ISIC_0058098.JPG,ISIC_0808203.JPG,false,1,keypress(m),500,426019.09999996424,426019,422265.964,422274,422282.668,426032.694,8,400,23,,ISIC_0058098.JPG
break,html.Screen,4_72_1,2023-10-31T00:45:57.155Z,,0,,,NaN,,,,,,false,,,,426020,426019.89999997616,,426019.3000000119,,426032.694,8,400,,,
break_continue,html.Screen,4_72_2,2023-10-31T00:45:57.155Z,,0,,,NaN,,,,,,false,,,,426020.1999999881,426020.1999999881,,426020,,426032.694,8,400,,,
sequence,flow.Sequence,4_72,2023-10-31T00:45:57.156Z,,0,,,3737.531999988074,completion,,,,,false,,,,426020.1999999881,426020.1999999881,422265.964,422273.89999997616,422282.668,426032.694,8,400,,,
trial,html.Screen,4_73_0,2023-10-31T00:46:00.678Z,,0,2,,3509.9059999642195,response,ISIC_9544059.JPG,5,ISIC_0032430.JPG,ISIC_9544059.JPG,false,1,keypress(m),500,429542.8000000119,429542.59999996424,426016.024,426020.3000000119,426032.694,429549.573,8,400,24,,ISIC_0032430.JPG
break,html.Screen,4_73_1,2023-10-31T00:46:00.679Z,,0,,,NaN,,,,,,false,,,,429543.6999999881,429543.39999997616,,429543,,429549.573,8,400,,,
break_continue,html.Screen,4_73_2,2023-10-31T00:46:00.679Z,,0,,,NaN,,,,,,false,,,,429543.8000000119,429543.8000000119,,429543.6999999881,,429549.573,8,400,,,
sequence,flow.Sequence,4_73,2023-10-31T00:46:00.679Z,,0,,,3511.1060000119032,completion,,,,,false,,,,429543.89999997616,429543.8000000119,426016.024,426020.3000000119,426032.694,429549.573,8,400,,,
trial,html.Screen,4_74_0,2023-10-31T00:46:03.848Z,,0,2,,3163.227000011946,response,ISIC_0010618.JPG,5,ISIC_1452314.JPG,ISIC_1452314.JPG,false,0,keypress(z),500,432713,432712.8000000119,429532.736,429544,429549.573,432716.195,8,400,25,,ISIC_0010618.JPG
break,html.Screen,4_74_1,2023-10-31T00:46:03.849Z,,0,,,NaN,,,,,,false,,,,432713.8000000119,432713.59999996424,,432713.09999996424,,432716.195,8,400,,,
break_continue,html.Screen,4_74_2,2023-10-31T00:46:03.849Z,,0,,,NaN,,,,,,false,,,,432713.89999997616,432713.8000000119,,432713.8000000119,,432716.195,8,400,,,
sequence,flow.Sequence,4_74,2023-10-31T00:46:03.849Z,,0,,,3164.227000011946,completion,,,,,false,,,,432714,432713.8000000119,429532.736,429543.89999997616,429549.573,432716.195,8,400,,,
trial,html.Screen,4_75_0,2023-10-31T00:46:07.451Z,,0,2,,3599.105000011914,response,ISIC_4853597.JPG,5,ISIC_0015185.JPG,ISIC_4853597.JPG,false,1,keypress(m),500,436315.59999996424,436315.3000000119,432699.408,432714,432716.195,436349.493,8,400,26,,ISIC_0015185.JPG
break,html.Screen,4_75_1,2023-10-31T00:46:07.452Z,,0,,,NaN,,,,,,false,,,,436316.5,436316.3000000119,,436315.8000000119,,436349.493,8,400,,,
break_continue,html.Screen,4_75_2,2023-10-31T00:46:07.452Z,,0,,,NaN,,,,,,false,,,,436316.6999999881,436316.6999999881,,436316.5,,436349.493,8,400,,,
sequence,flow.Sequence,4_75,2023-10-31T00:46:07.452Z,,0,,,3600.504999988072,completion,,,,,false,,,,436316.8000000119,436316.6999999881,432699.408,432714,432716.195,436349.493,8,400,,,
trial,html.Screen,4_76_0,2023-10-31T00:46:10.974Z,,0,2,,3489.4069999761414,response,ISIC_2852805.JPG,6,ISIC_5242216.JPG,ISIC_5242216.JPG,false,0,keypress(z),500,439839,439838.89999997616,436333.291,436316.8000000119,436349.493,439849.556,8,400,27,,ISIC_2852805.JPG
break,html.Screen,4_76_1,2023-10-31T00:46:10.975Z,,0,,,NaN,,,,,,false,,,,439840,439839.8000000119,,439839.1999999881,,439849.556,8,400,,,
break_continue,html.Screen,4_76_2,2023-10-31T00:46:10.975Z,,0,,,NaN,,,,,,false,,,,439840.09999996424,439840,,439840,,439849.556,8,400,,,
sequence,flow.Sequence,4_76,2023-10-31T00:46:10.976Z,,0,,,3490.5069999999832,completion,,,,,false,,,,439840.1999999881,439840,436333.291,436316.8000000119,436349.493,439849.556,8,400,,,
trial,html.Screen,4_77_0,2023-10-31T00:46:15.137Z,,0,2,,4152.043999964255,response,ISIC_7302456.JPG,4,ISIC_0010317.JPG,ISIC_7302456.JPG,false,1,keypress(m),500,444001.8000000119,444001.59999996424,439833.363,439840.1999999881,439849.556,444016.28,8,400,28,,ISIC_0010317.JPG
break,html.Screen,4_77_1,2023-10-31T00:46:15.138Z,,0,,,NaN,,,,,,false,,,,444002.59999996424,444002.39999997616,,444002,,444016.28,8,400,,,
break_continue,html.Screen,4_77_2,2023-10-31T00:46:15.138Z,,0,,,NaN,,,,,,false,,,,444002.6999999881,444002.59999996424,,444002.59999996424,,444016.28,8,400,,,
sequence,flow.Sequence,4_77,2023-10-31T00:46:15.138Z,,0,,,4153.043999964255,completion,,,,,false,,,,444002.8000000119,444002.59999996424,439833.363,439840.1999999881,439849.556,444016.28,8,400,,,
trial,html.Screen,4_78_0,2023-10-31T00:46:18.836Z,,0,2,,3684.520000011893,response,ISIC_6618943.JPG,6,ISIC_8357415.JPG,ISIC_8357415.JPG,false,0,keypress(z),500,447701,447700.8000000119,443999.638,444002.89999997616,444016.28,447716.428,8,400,29,,ISIC_6618943.JPG
break,html.Screen,4_78_1,2023-10-31T00:46:18.837Z,,0,,,NaN,,,,,,false,,,,447701.59999996424,447701.5,,447701.09999996424,,447716.428,8,400,,,
break_continue,html.Screen,4_78_2,2023-10-31T00:46:18.837Z,,0,,,NaN,,,,,,false,,,,447701.6999999881,447701.6999999881,,447701.59999996424,,447716.428,8,400,,,
sequence,flow.Sequence,4_78,2023-10-31T00:46:18.837Z,,0,,,3685.419999988051,completion,,,,,false,,,,447701.8000000119,447701.6999999881,443999.638,444002.89999997616,444016.28,447716.428,8,400,,,
trial,html.Screen,4_79_0,2023-10-31T00:46:22.455Z,,0,2,,3603.2719999880646,response,ISIC_8485716.JPG,5,ISIC_3096949.JPG,ISIC_8485716.JPG,false,1,keypress(m),500,451319.89999997616,451319.6999999881,447699.682,447701.89999997616,447716.428,451333.078,8,400,30,,ISIC_3096949.JPG
break,html.Screen,4_79_1,2023-10-31T00:46:22.456Z,,0,,,NaN,,,,,,false,,,,451320.39999997616,451320.3000000119,,451320,,451333.078,8,400,,,
break_continue,html.Screen,4_79_2,2023-10-31T00:46:22.456Z,,0,,,NaN,,,,,,false,,,,451320.59999996424,451320.59999996424,,451320.5,,451333.078,8,400,,,
sequence,flow.Sequence,4_79,2023-10-31T00:46:22.456Z,,0,,,3604.171999964223,completion,,,,,false,,,,451320.6999999881,451320.59999996424,447699.682,447701.89999997616,447716.428,451333.078,8,400,,,
trial,html.Screen,4_80_0,2023-10-31T00:46:27.515Z,,0,2,,5046.722000011941,response,ISIC_7074321.JPG,6,ISIC_0046224.JPG,ISIC_0046224.JPG,false,0,keypress(z),500,456380,456379.8000000119,451316.408,451320.6999999881,451333.078,456383.148,8,400,31,,ISIC_7074321.JPG
break,html.Screen,4_80_1,2023-10-31T00:46:27.516Z,,0,,,NaN,,,,,,false,,,,456381.09999996424,456381,,456380.1999999881,,456383.148,8,400,,,
break_continue,html.Screen,4_80_2,2023-10-31T00:46:27.517Z,,0,,,NaN,,,,,,false,,,,456381.39999997616,456381.3000000119,,456381.09999996424,,456383.148,8,400,,,
sequence,flow.Sequence,4_80,2023-10-31T00:46:27.517Z,,0,,,5048.222000011941,completion,,,,,false,,,,456381.5,456381.3000000119,451316.408,451320.6999999881,451333.078,456383.148,8,400,,,
trial,html.Screen,4_81_0,2023-10-31T00:46:31.695Z,,0,2,,4175.751999976172,response,ISIC_0013165.JPG,5,ISIC_0061625.JPG,ISIC_0013165.JPG,false,1,keypress(m),500,460559.1999999881,460558.89999997616,456366.449,456381.59999996424,456383.148,460566.525,8,400,32,,ISIC_0061625.JPG
break,html.Screen,4_81_1,2023-10-31T00:46:31.695Z,,0,,,NaN,,,,,,false,,,,460560.09999996424,460559.89999997616,,460559.39999997616,,460566.525,8,400,,,
break_continue,html.Screen,4_81_2,2023-10-31T00:46:31.696Z,,0,,,NaN,,,,,,false,,,,460560.3000000119,460560.3000000119,,460560.09999996424,,460566.525,8,400,,,
sequence,flow.Sequence,4_81,2023-10-31T00:46:31.696Z,,0,,,4177.152000011934,completion,,,,,false,,,,460560.3000000119,460560.3000000119,456366.449,456381.5,456383.148,460566.525,8,400,,,
trial,html.Screen,4_82_0,2023-10-31T00:46:35.138Z,,0,2,,3435.574999964214,response,ISIC_1413120.JPG,6,ISIC_2993517.JPG,ISIC_2993517.JPG,false,0,keypress(z),500,464002.39999997616,464002.09999996424,460549.827,460560.39999997616,460566.525,464016.596,8,400,33,,ISIC_1413120.JPG
break,html.Screen,4_82_1,2023-10-31T00:46:35.138Z,,0,,,NaN,,,,,,false,,,,464003.09999996424,464003,,464002.5,,464016.596,8,400,,,
break_continue,html.Screen,4_82_2,2023-10-31T00:46:35.139Z,,0,,,NaN,,,,,,false,,,,464003.39999997616,464003.3000000119,,464003.1999999881,,464016.596,8,400,,,
sequence,flow.Sequence,4_82,2023-10-31T00:46:35.139Z,,0,,,3436.7750000118976,completion,,,,,false,,,,464003.39999997616,464003.3000000119,460549.827,460560.39999997616,460566.525,464016.596,8,400,,,
trial,html.Screen,4_83_0,2023-10-31T00:46:38.596Z,,0,2,,3444.2040000119014,response,ISIC_0033090.JPG,5,ISIC_0031363.JPG,ISIC_0031363.JPG,false,0,keypress(z),500,467461.09999996424,467460.8000000119,464000.026,464003.5,464016.596,467466.744,8,400,34,,ISIC_0033090.JPG
break,html.Screen,4_83_1,2023-10-31T00:46:38.597Z,,0,,,NaN,,,,,,false,,,,467461.59999996424,467461.39999997616,,467461.09999996424,,467466.744,8,400,,,
break_continue,html.Screen,4_83_2,2023-10-31T00:46:38.597Z,,0,,,NaN,,,,,,false,,,,467461.8000000119,467461.8000000119,,467461.6999999881,,467466.744,8,400,,,
sequence,flow.Sequence,4_83,2023-10-31T00:46:38.597Z,,0,,,3445.2040000119014,completion,,,,,false,,,,467462,467461.8000000119,464000.026,464003.5,464016.596,467466.744,8,400,,,
trial,html.Screen,4_84_0,2023-10-31T00:46:42.439Z,,0,2,,3836.855999964231,response,ISIC_0054053.JPG,5,ISIC_6676647.JPG,ISIC_6676647.JPG,false,0,keypress(z),500,471303.8000000119,471303.59999996424,467449.972,467462,467466.744,471316.685,8,400,35,,ISIC_0054053.JPG
break,html.Screen,4_84_1,2023-10-31T00:46:42.440Z,,0,,,NaN,,,,,,false,,,,471304.5,471304.39999997616,,471304,,471316.685,8,400,,,
break_continue,html.Screen,4_84_2,2023-10-31T00:46:42.440Z,,0,,,NaN,,,,,,false,,,,471304.8000000119,471304.6999999881,,471304.59999996424,,471316.685,8,400,,,
sequence,flow.Sequence,4_84,2023-10-31T00:46:42.440Z,,0,,,3837.955999988073,completion,,,,,false,,,,471304.8000000119,471304.6999999881,467449.972,467462,467466.744,471316.685,8,400,,,
trial,html.Screen,4_85_0,2023-10-31T00:46:46.842Z,,0,2,,4389.9149999642395,response,ISIC_9545819.JPG,5,ISIC_9217340.JPG,ISIC_9545819.JPG,false,1,keypress(m),500,475706.8000000119,475706.59999996424,471300.099,471304.89999997616,471316.685,475717.127,8,400,36,,ISIC_9217340.JPG
break,html.Screen,4_85_1,2023-10-31T00:46:46.843Z,,0,,,NaN,,,,,,false,,,,475707.59999996424,475707.39999997616,,475707,,475717.127,8,400,,,
break_continue,html.Screen,4_85_2,2023-10-31T00:46:46.843Z,,0,,,NaN,,,,,,false,,,,475707.8000000119,475707.8000000119,,475707.6999999881,,475717.127,8,400,,,
sequence,flow.Sequence,4_85,2023-10-31T00:46:46.843Z,,0,,,4391.115000011923,completion,,,,,false,,,,475707.89999997616,475707.8000000119,471300.099,471304.89999997616,471316.685,475717.127,8,400,,,
trial,html.Screen,4_86_0,2023-10-31T00:46:50.556Z,,0,2,,3703.5729999881005,response,ISIC_2122488.JPG,4,ISIC_0897248.JPG,ISIC_2122488.JPG,false,1,keypress(m),500,479420.8000000119,479420.6999999881,475700.042,475708,475717.127,479433.462,8,400,37,,ISIC_0897248.JPG
break,html.Screen,4_86_1,2023-10-31T00:46:50.557Z,,0,,,NaN,,,,,,false,,,,479421.59999996424,479421.39999997616,,479421,,479433.462,8,400,,,
break_continue,html.Screen,4_86_2,2023-10-31T00:46:50.557Z,,0,,,NaN,,,,,,false,,,,479421.89999997616,479421.8000000119,,479421.6999999881,,479433.462,8,400,,,
sequence,flow.Sequence,4_86,2023-10-31T00:46:50.557Z,,0,,,3704.6730000119423,completion,,,,,false,,,,479422.09999996424,479421.8000000119,475700.042,475708,475717.127,479433.462,8,400,,,
trial,html.Screen,4_87_0,2023-10-31T00:46:54.255Z,,0,2,,3685.8380000119214,response,ISIC_0066328.JPG,5,ISIC_4153542.JPG,ISIC_4153542.JPG,false,0,keypress(z),500,483119.5,483119.3000000119,479416.775,479422.09999996424,479433.462,483133.561,8,400,38,,ISIC_0066328.JPG
break,html.Screen,4_87_1,2023-10-31T00:46:54.255Z,,0,,,NaN,,,,,,false,,,,483120,483119.89999997616,,483119.59999996424,,483133.561,8,400,,,
break_continue,html.Screen,4_87_2,2023-10-31T00:46:54.256Z,,0,,,NaN,,,,,,false,,,,483120.1999999881,483120.09999996424,,483120.09999996424,,483133.561,8,400,,,
sequence,flow.Sequence,4_87,2023-10-31T00:46:54.256Z,,0,,,3686.6379999642377,completion,,,,,false,,,,483120.3000000119,483120.09999996424,479416.775,479422.09999996424,479433.462,483133.561,8,400,,,
trial,html.Screen,4_88_0,2023-10-31T00:46:57.361Z,,0,2,,3091.939000000013,response,ISIC_0032907.JPG,6,ISIC_4401524.JPG,ISIC_4401524.JPG,false,0,keypress(z),500,486225.6999999881,486225.5,483116.858,483120.3000000119,483133.561,486233.554,8,400,39,,ISIC_0032907.JPG
break,html.Screen,4_88_1,2023-10-31T00:46:57.362Z,,0,,,NaN,,,,,,false,,,,486226.5,486226.1999999881,,486225.8000000119,,486233.554,8,400,,,
break_continue,html.Screen,4_88_2,2023-10-31T00:46:57.362Z,,0,,,NaN,,,,,,false,,,,486226.59999996424,486226.59999996424,,486226.5,,486233.554,8,400,,,
sequence,flow.Sequence,4_88,2023-10-31T00:46:57.362Z,,0,,,3093.0389999642503,completion,,,,,false,,,,486226.6999999881,486226.59999996424,483116.858,483120.3000000119,483133.561,486233.554,8,400,,,
trial,html.Screen,4_89_0,2023-10-31T00:47:00.899Z,,0,2,,3530.246000011917,response,ISIC_0000445.JPG,4,ISIC_0032784.JPG,ISIC_0032784.JPG,false,0,keypress(z),500,489764.09999996424,489763.8000000119,486216.867,486226.6999999881,486233.554,489767.35,8,400,40,,ISIC_0000445.JPG
break,html.Screen,4_89_1,2023-10-31T00:47:00.900Z,,0,,,NaN,,,,,,false,,,,489764.89999997616,489764.6999999881,,489764.3000000119,,489767.35,8,400,,,
break_continue,html.Screen,4_89_2,2023-10-31T00:47:00.900Z,,0,,,NaN,,,,,,false,,,,489765.09999996424,489765,,489765,,489767.35,8,400,,,
sequence,flow.Sequence,4_89,2023-10-31T00:47:00.900Z,,0,,,3531.4459999999963,completion,,,,,false,,,,489765.09999996424,489765,486216.867,486226.6999999881,486233.554,489767.35,8,400,,,
trial,html.Screen,4_90_0,2023-10-31T00:47:04.102Z,,0,2,,3199.2499999642605,response,ISIC_0070160.JPG,5,ISIC_0058851.JPG,ISIC_0058851.JPG,false,0,keypress(z),500,492966.89999997616,492966.59999996424,489750.281,489765.1999999881,489767.35,493000.401,8,400,41,,ISIC_0070160.JPG
break,html.Screen,4_90_1,2023-10-31T00:47:04.103Z,,0,,,NaN,,,,,,false,,,,492967.6999999881,492967.59999996424,,492967.09999996424,,493000.401,8,400,,,
break_continue,html.Screen,4_90_2,2023-10-31T00:47:04.103Z,,0,,,NaN,,,,,,false,,,,492968,492967.89999997616,,492967.8000000119,,493000.401,8,400,,,
sequence,flow.Sequence,4_90,2023-10-31T00:47:04.103Z,,0,,,3200.5499999761814,completion,,,,,false,,,,492968.09999996424,492967.89999997616,489750.281,489765.1999999881,489767.35,493000.401,8,400,,,
trial,html.Screen,4_91_0,2023-10-31T00:47:07.337Z,,0,2,,3201.0989999999874,response,ISIC_9406755.JPG,4,ISIC_7062293.JPG,ISIC_7062293.JPG,false,0,keypress(z),500,496201.59999996424,496201.5,492983.976,492968.09999996424,493000.401,496233.687,8,400,42,,ISIC_9406755.JPG
break,html.Screen,4_91_1,2023-10-31T00:47:07.337Z,,0,,,NaN,,,,,,false,,,,496202.09999996424,496202,,496201.6999999881,,496233.687,8,400,,,
break_continue,html.Screen,4_91_2,2023-10-31T00:47:07.337Z,,0,,,NaN,,,,,,false,,,,496202.09999996424,496202.09999996424,,496202.09999996424,,496233.687,8,400,,,
sequence,flow.Sequence,4_91,2023-10-31T00:47:07.337Z,,0,,,3201.6989999642246,completion,,,,,false,,,,496202.1999999881,496202.09999996424,492983.976,492968.09999996424,493000.401,496233.687,8,400,,,
trial,html.Screen,4_92_0,2023-10-31T00:47:10.795Z,,0,2,,3426.012999988103,response,ISIC_4836699.JPG,5,ISIC_0034183.JPG,ISIC_0034183.JPG,false,0,keypress(z),500,499659.89999997616,499659.6999999881,496217.15,496202.3000000119,496233.687,499683.775,8,400,43,,ISIC_4836699.JPG
break,html.Screen,4_92_1,2023-10-31T00:47:10.796Z,,0,,,NaN,,,,,,false,,,,499660.39999997616,499660.3000000119,,499660.09999996424,,499683.775,8,400,,,
break_continue,html.Screen,4_92_2,2023-10-31T00:47:10.796Z,,0,,,NaN,,,,,,false,,,,499660.59999996424,499660.59999996424,,499660.5,,499683.775,8,400,,,
sequence,flow.Sequence,4_92,2023-10-31T00:47:10.796Z,,0,,,3426.912999964261,completion,,,,,false,,,,499660.8000000119,499660.59999996424,496217.15,496202.3000000119,496233.687,499683.775,8,400,,,
trial,html.Screen,4_93_0,2023-10-31T00:47:14.126Z,,0,2,,3306.824999964214,response,ISIC_1122023.JPG,5,ISIC_0029296.JPG,ISIC_0029296.JPG,false,0,keypress(z),500,502990.8000000119,502990.59999996424,499667.092,499660.8000000119,499683.775,503017.117,8,400,44,,ISIC_1122023.JPG
break,html.Screen,4_93_1,2023-10-31T00:47:14.127Z,,0,,,NaN,,,,,,false,,,,502991.39999997616,502991.3000000119,,502990.89999997616,,503017.117,8,400,,,
break_continue,html.Screen,4_93_2,2023-10-31T00:47:14.127Z,,0,,,NaN,,,,,,false,,,,502991.5,502991.5,,502991.39999997616,,503017.117,8,400,,,
sequence,flow.Sequence,4_93,2023-10-31T00:47:14.127Z,,0,,,3307.7249999999767,completion,,,,,false,,,,502991.59999996424,502991.5,499667.092,499660.8000000119,499683.775,503017.117,8,400,,,
trial,html.Screen,4_94_0,2023-10-31T00:47:18.097Z,,0,2,,3944.0829999880516,response,ISIC_0030828.JPG,5,ISIC_0026759.JPG,ISIC_0026759.JPG,false,0,keypress(z),500,506961.39999997616,506961.1999999881,503001.134,502991.6999999881,503017.117,506967.242,8,400,45,,ISIC_0030828.JPG
break,html.Screen,4_94_1,2023-10-31T00:47:18.098Z,,0,,,NaN,,,,,,false,,,,506962.3000000119,506962.09999996424,,506961.59999996424,,506967.242,8,400,,,
break_continue,html.Screen,4_94_2,2023-10-31T00:47:18.098Z,,0,,,NaN,,,,,,false,,,,506962.59999996424,506962.5,,506962.39999997616,,506967.242,8,400,,,
sequence,flow.Sequence,4_94,2023-10-31T00:47:18.098Z,,0,,,3945.3829999999725,completion,,,,,false,,,,506962.59999996424,506962.5,503001.134,502991.59999996424,503017.117,506967.242,8,400,,,
trial,html.Screen,4_95_0,2023-10-31T00:47:21.491Z,,0,2,,3388.5580000118935,response,ISIC_4564960.JPG,5,ISIC_8855790.JPG,ISIC_8855790.JPG,false,0,keypress(z),500,510355.89999997616,510355.8000000119,506950.504,506962.59999996424,506967.242,510367.239,8,400,46,,ISIC_4564960.JPG
break,html.Screen,4_95_1,2023-10-31T00:47:21.492Z,,0,,,NaN,,,,,,false,,,,510356.59999996424,510356.39999997616,,510356,,510367.239,8,400,,,
break_continue,html.Screen,4_95_2,2023-10-31T00:47:21.492Z,,0,,,NaN,,,,,,false,,,,510356.89999997616,510356.8000000119,,510356.6999999881,,510367.239,8,400,,,
sequence,flow.Sequence,4_95,2023-10-31T00:47:21.492Z,,0,,,3389.5580000118935,completion,,,,,false,,,,510356.89999997616,510356.8000000119,506950.504,506962.59999996424,506967.242,510367.239,8,400,,,
trial,html.Screen,4_96_0,2023-10-31T00:47:25.430Z,,0,2,,3927.4609999880777,response,ISIC_0060096.JPG,5,ISIC_0609067.JPG,ISIC_0609067.JPG,false,0,keypress(z),500,514295,514294.6999999881,510350.544,510357,510367.239,514300.759,8,400,47,,ISIC_0060096.JPG
break,html.Screen,4_96_1,2023-10-31T00:47:25.431Z,,0,,,NaN,,,,,,false,,,,514295.89999997616,514295.8000000119,,514295.3000000119,,514300.759,8,400,,,
break_continue,html.Screen,4_96_2,2023-10-31T00:47:25.431Z,,0,,,NaN,,,,,,false,,,,514296.1999999881,514296.09999996424,,514296,,514300.759,8,400,,,
sequence,flow.Sequence,4_96,2023-10-31T00:47:25.431Z,,0,,,3928.860999964236,completion,,,,,false,,,,514296.1999999881,514296.09999996424,510350.544,510357,510367.239,514300.759,8,400,,,
trial,html.Screen,4_97_0,2023-10-31T00:47:29.945Z,,0,2,,4508.840999964217,response,ISIC_0012756.JPG,4,ISIC_8791744.JPG,ISIC_8791744.JPG,false,0,keypress(z),500,518809.89999997616,518809.59999996424,514284.006,514296.3000000119,514300.759,518817.368,8,400,48,,ISIC_0012756.JPG
break,html.Screen,4_97_1,2023-10-31T00:47:29.946Z,,0,,,NaN,,,,,,false,,,,518810.8000000119,518810.6999999881,,518810.09999996424,,518817.368,8,400,,,
break_continue,html.Screen,4_97_2,2023-10-31T00:47:29.946Z,,0,,,NaN,,,,,,false,,,,518811,518811,,518810.8000000119,,518817.368,8,400,,,
sequence,flow.Sequence,4_97,2023-10-31T00:47:29.946Z,,0,,,4510.24099999998,completion,,,,,false,,,,518811.09999996424,518811,514284.006,514296.3000000119,514300.759,518817.368,8,400,,,
trial,html.Screen,4_98_0,2023-10-31T00:47:33.516Z,,0,2,,3563.6319999999832,response,ISIC_0002899.JPG,4,ISIC_0015401.JPG,ISIC_0002899.JPG,false,1,keypress(m),500,522381.1999999881,522381,518801.071,518811.1999999881,518817.368,522384.116,8,400,49,,ISIC_0015401.JPG
break,html.Screen,4_98_1,2023-10-31T00:47:33.517Z,,0,,,NaN,,,,,,false,,,,522381.8000000119,522381.8000000119,,522381.39999997616,,522384.116,8,400,,,
break_continue,html.Screen,4_98_2,2023-10-31T00:47:33.517Z,,0,,,NaN,,,,,,false,,,,522382,522382,,522381.89999997616,,522384.116,8,400,,,
sequence,flow.Sequence,4_98,2023-10-31T00:47:33.517Z,,0,,,3564.6319999999832,completion,,,,,false,,,,522382.1999999881,522382,518801.071,518811.09999996424,518817.368,522384.116,8,400,,,
trial,html.Screen,4_99_0,2023-10-31T00:47:37.726Z,,0,2,,4206.684000011941,response,ISIC_0070248.JPG,5,ISIC_0033518.JPG,ISIC_0033518.JPG,false,0,keypress(z),500,526591,526590.8000000119,522367.45,522382.3000000119,522384.116,526600.802,8,400,50,,ISIC_0070248.JPG
break,html.Screen,4_99_1,2023-10-31T00:47:47.720Z,,0,,,10000.177000000025,timeout,,,,,false,,,,536584.8000000119,536584.289,526584.143,526591.0999999642,526600.802,536600.979,8,400,,,
break_continue,html.Screen,4_99_2,2023-10-31T00:47:50.211Z,,0,,,2464.5209999999497,response,,,,,false,continue,keypress(Space),,539076,539065.5,536584.289,536584.8999999762,536600.979,539084.332,8,400,,,
sequence,flow.Sequence,4_99,2023-10-31T00:47:50.211Z,,0,,,16681.38400000002,completion,,,,,false,,,,539076,539065.5,522367.45,522382.1999999881,522384.116,539084.332,8,400,,,
trial,html.Screen,4_100_0,2023-10-31T00:47:54.164Z,,0,3,,3944.667999999947,response,ISIC_1740912.JPG,5,ISIC_9879723.JPG,ISIC_9879723.JPG,false,0,keypress(z),500,543029.1999999881,543029,539067.637,539076.0999999642,539084.332,543034.924,8,400,1,,ISIC_1740912.JPG
break,html.Screen,4_100_1,2023-10-31T00:47:54.165Z,,0,,,NaN,,,,,,false,,,,543029.8999999762,543029.8999999762,,543029.3999999762,,543034.924,8,400,,,
break_continue,html.Screen,4_100_2,2023-10-31T00:47:54.165Z,,0,,,NaN,,,,,,false,,,,543030.0999999642,543030,,543030,,543034.924,8,400,,,
sequence,flow.Sequence,4_100,2023-10-31T00:47:54.165Z,,0,,,3945.667999999947,completion,,,,,false,,,,543030.1999999881,543030,539067.637,539076.0999999642,539084.332,543034.924,8,400,,,
trial,html.Screen,4_101_0,2023-10-31T00:47:57.607Z,,0,3,,3436.77599998808,response,ISIC_0002435.JPG,4,ISIC_2616327.JPG,ISIC_2616327.JPG,false,0,keypress(z),500,546471.8000000119,546471.6999999881,543017.657,543030.3000000119,543034.924,546484.414,8,400,2,,ISIC_0002435.JPG
break,html.Screen,4_101_1,2023-10-31T00:47:57.608Z,,0,,,NaN,,,,,,false,,,,546472.5,546472.3999999762,,546472,,546484.414,8,400,,,
break_continue,html.Screen,4_101_2,2023-10-31T00:47:57.608Z,,0,,,NaN,,,,,,false,,,,546472.6999999881,546472.5999999642,,546472.5999999642,,546484.414,8,400,,,
sequence,flow.Sequence,4_101,2023-10-31T00:47:57.608Z,,0,,,3437.675999964238,completion,,,,,false,,,,546472.6999999881,546472.5999999642,543017.657,543030.3000000119,543034.924,546484.414,8,400,,,
trial,html.Screen,4_102_0,2023-10-31T00:48:01.962Z,,0,3,,4341.785999988089,response,ISIC_4477599.JPG,5,ISIC_9278685.JPG,ISIC_4477599.JPG,false,1,keypress(m),500,550826.3999999762,550826.1999999881,546467.739,546472.6999999881,546484.414,550834.519,8,400,3,,ISIC_9278685.JPG
break,html.Screen,4_102_1,2023-10-31T00:48:01.962Z,,0,,,NaN,,,,,,false,,,,550827.0999999642,550826.8999999762,,550826.5,,550834.519,8,400,,,
break_continue,html.Screen,4_102_2,2023-10-31T00:48:01.963Z,,0,,,NaN,,,,,,false,,,,550827.3000000119,550827.3000000119,,550827.0999999642,,550834.519,8,400,,,
sequence,flow.Sequence,4_102,2023-10-31T00:48:01.963Z,,0,,,4342.886000011931,completion,,,,,false,,,,550827.3999999762,550827.3000000119,546467.739,546472.6999999881,546484.414,550834.519,8,400,,,
trial,html.Screen,4_103_0,2023-10-31T00:48:05.132Z,,0,3,,3161.481000000029,response,ISIC_0026402.JPG,5,ISIC_0033616.JPG,ISIC_0026402.JPG,false,1,keypress(m),500,553996.1999999881,553996,550817.835,550827.3999999762,550834.519,554001.261,8,400,4,,ISIC_0033616.JPG
break,html.Screen,4_103_1,2023-10-31T00:48:05.132Z,,0,,,NaN,,,,,,false,,,,553996.8999999762,553996.8000000119,,553996.3999999762,,554001.261,8,400,,,
break_continue,html.Screen,4_103_2,2023-10-31T00:48:05.133Z,,0,,,NaN,,,,,,false,,,,553997.0999999642,553997.0999999642,,553997,,554001.261,8,400,,,
sequence,flow.Sequence,4_103,2023-10-31T00:48:05.133Z,,0,,,3162.580999964266,completion,,,,,false,,,,553997.3000000119,553997.0999999642,550817.835,550827.3999999762,550834.519,554001.261,8,400,,,
trial,html.Screen,4_104_0,2023-10-31T00:48:07.968Z,,0,3,,2830.738999999943,response,ISIC_0033830.JPG,5,ISIC_5409902.JPG,ISIC_5409902.JPG,false,0,keypress(z),500,556832.3000000119,556832,553984.668,553997.3000000119,554001.261,556834.616,8,400,5,,ISIC_0033830.JPG
break,html.Screen,4_104_1,2023-10-31T00:48:07.969Z,,0,,,NaN,,,,,,false,,,,556833.3000000119,556833.0999999642,,556832.3999999762,,556834.616,8,400,,,
break_continue,html.Screen,4_104_2,2023-10-31T00:48:07.969Z,,0,,,NaN,,,,,,false,,,,556833.5,556833.5,,556833.3000000119,,556834.616,8,400,,,
sequence,flow.Sequence,4_104,2023-10-31T00:48:07.969Z,,0,,,2832.238999999943,completion,,,,,false,,,,556833.5999999642,556833.5,553984.668,553997.3000000119,554001.261,556834.616,8,400,,,
trial,html.Screen,4_105_0,2023-10-31T00:48:12.051Z,,0,3,,4080.78399997612,response,ISIC_0011127.JPG,5,ISIC_0061066.JPG,ISIC_0011127.JPG,false,1,keypress(m),500,560915.6999999881,560915.3999999762,556818.047,556833.5999999642,556834.616,560918.016,8,400,6,,ISIC_0061066.JPG
break,html.Screen,4_105_1,2023-10-31T00:48:12.052Z,,0,,,NaN,,,,,,false,,,,560916.5999999642,560916.3000000119,,560915.8000000119,,560918.016,8,400,,,
break_continue,html.Screen,4_105_2,2023-10-31T00:48:12.052Z,,0,,,NaN,,,,,,false,,,,560916.8000000119,560916.6999999881,,560916.5999999642,,560918.016,8,400,,,
sequence,flow.Sequence,4_105,2023-10-31T00:48:12.052Z,,0,,,4082.083999988041,completion,,,,,false,,,,560916.8999999762,560916.6999999881,556818.047,556833.5999999642,556834.616,560918.016,8,400,,,
trial,html.Screen,4_106_0,2023-10-31T00:48:15.270Z,,0,3,,3216.183999988134,response,ISIC_8628207.JPG,5,ISIC_1814941.JPG,ISIC_1814941.JPG,false,0,keypress(z),500,564134.3999999762,564134.1999999881,560901.48,560917,560918.016,564151.421,8,400,7,,ISIC_8628207.JPG
break,html.Screen,4_106_1,2023-10-31T00:48:15.271Z,,0,,,NaN,,,,,,false,,,,564135.0999999642,564135,,564134.5999999642,,564151.421,8,400,,,
break_continue,html.Screen,4_106_2,2023-10-31T00:48:15.271Z,,0,,,NaN,,,,,,false,,,,564135.3000000119,564135.1999999881,,564135.0999999642,,564151.421,8,400,,,
sequence,flow.Sequence,4_106,2023-10-31T00:48:15.271Z,,0,,,3217.183999988134,completion,,,,,false,,,,564135.3999999762,564135.1999999881,560901.48,560916.8999999762,560918.016,564151.421,8,400,,,
trial,html.Screen,4_107_0,2023-10-31T00:48:19.128Z,,0,3,,3841.278999988106,response,ISIC_0031626.JPG,5,ISIC_4984668.JPG,ISIC_4984668.JPG,false,0,keypress(z),500,567992.8999999762,567992.6999999881,564134.636,564135.3999999762,564151.421,568001.474,8,400,8,,ISIC_0031626.JPG
break,html.Screen,4_107_1,2023-10-31T00:48:19.129Z,,0,,,NaN,,,,,,false,,,,567994,567993.8000000119,,567993.0999999642,,568001.474,8,400,,,
break_continue,html.Screen,4_107_2,2023-10-31T00:48:19.129Z,,0,,,NaN,,,,,,false,,,,567994.0999999642,567994.0999999642,,567994,,568001.474,8,400,,,
sequence,flow.Sequence,4_107,2023-10-31T00:48:19.130Z,,0,,,3842.678999964264,completion,,,,,false,,,,567994.1999999881,567994.0999999642,564134.636,564135.3999999762,564151.421,568001.474,8,400,,,
trial,html.Screen,4_108_0,2023-10-31T00:48:22.443Z,,0,3,,3306.3260000118753,response,ISIC_6258744.JPG,5,ISIC_0011209.JPG,ISIC_0011209.JPG,false,0,keypress(z),500,571307.8999999762,571307.8000000119,567984.534,567994.1999999881,568001.474,571318.135,8,400,9,,ISIC_6258744.JPG
break,html.Screen,4_108_1,2023-10-31T00:48:22.444Z,,0,,,NaN,,,,,,false,,,,571309,571308.8000000119,,571308.0999999642,,571318.135,8,400,,,
break_continue,html.Screen,4_108_2,2023-10-31T00:48:22.445Z,,0,,,NaN,,,,,,false,,,,571309.1999999881,571309.0999999642,,571309,,571318.135,8,400,,,
sequence,flow.Sequence,4_108,2023-10-31T00:48:22.445Z,,0,,,3307.6259999641916,completion,,,,,false,,,,571309.3999999762,571309.0999999642,567984.534,567994.1999999881,568001.474,571318.135,8,400,,,
trial,html.Screen,4_109_0,2023-10-31T00:48:26.494Z,,0,3,,4040.764999976149,response,ISIC_0064660.JPG,5,ISIC_0058198.JPG,ISIC_0064660.JPG,false,1,keypress(m),500,575359,575358.8999999762,571301.427,571309.3999999762,571318.135,575368.159,8,400,10,,ISIC_0058198.JPG
break,html.Screen,4_109_1,2023-10-31T00:48:26.495Z,,0,,,NaN,,,,,,false,,,,575359.5,575359.3999999762,,575359.1999999881,,575368.159,8,400,,,
break_continue,html.Screen,4_109_2,2023-10-31T00:48:26.495Z,,0,,,NaN,,,,,,false,,,,575359.8000000119,575359.6999999881,,575359.5999999642,,575368.159,8,400,,,
sequence,flow.Sequence,4_109,2023-10-31T00:48:26.495Z,,0,,,4041.5649999880698,completion,,,,,false,,,,575359.8000000119,575359.6999999881,571301.427,571309.3999999762,571318.135,575368.159,8,400,,,
trial,html.Screen,4_110_0,2023-10-31T00:48:30.033Z,,0,3,,3529.440999964252,response,ISIC_0016080.JPG,6,ISIC_0055191.JPG,ISIC_0016080.JPG,false,1,keypress(m),500,578897.8999999762,578897.5999999642,575351.892,575359.8000000119,575368.159,578901.634,8,400,11,,ISIC_0055191.JPG
break,html.Screen,4_110_1,2023-10-31T00:48:30.034Z,,0,,,NaN,,,,,,false,,,,578898.6999999881,578898.5,,578898,,578901.634,8,400,,,
break_continue,html.Screen,4_110_2,2023-10-31T00:48:30.034Z,,0,,,NaN,,,,,,false,,,,578899,578898.8999999762,,578898.8000000119,,578901.634,8,400,,,
sequence,flow.Sequence,4_110,2023-10-31T00:48:30.034Z,,0,,,3530.740999976173,completion,,,,,false,,,,578899.0999999642,578898.8999999762,575351.892,575359.8000000119,575368.159,578901.634,8,400,,,
trial,html.Screen,4_111_0,2023-10-31T00:48:33.492Z,,0,3,,3454.5659999881173,response,ISIC_0046983.JPG,5,ISIC_3598244.JPG,ISIC_3598244.JPG,false,0,keypress(z),500,582356.3999999762,582356.1999999881,578884.93,578899.0999999642,578901.634,582368.317,8,400,12,,ISIC_0046983.JPG
break,html.Screen,4_111_1,2023-10-31T00:48:33.492Z,,0,,,NaN,,,,,,false,,,,582357.0999999642,582356.8999999762,,582356.5,,582368.317,8,400,,,
break_continue,html.Screen,4_111_2,2023-10-31T00:48:33.493Z,,0,,,NaN,,,,,,false,,,,582357.3000000119,582357.3000000119,,582357.0999999642,,582368.317,8,400,,,
sequence,flow.Sequence,4_111,2023-10-31T00:48:33.493Z,,0,,,3455.666000011959,completion,,,,,false,,,,582357.3999999762,582357.3000000119,578884.93,578899.0999999642,578901.634,582368.317,8,400,,,
trial,html.Screen,4_112_0,2023-10-31T00:48:36.774Z,,0,3,,3270.282999964198,response,ISIC_0032383.JPG,5,ISIC_9694020.JPG,ISIC_0032383.JPG,false,1,keypress(m),500,585638.8999999762,585638.5999999642,582351.361,582357.5,582368.317,585651.666,8,400,13,,ISIC_9694020.JPG
break,html.Screen,4_112_1,2023-10-31T00:48:36.775Z,,0,,,NaN,,,,,,false,,,,585639.5999999642,585639.5,,585639.0999999642,,585651.666,8,400,,,
break_continue,html.Screen,4_112_2,2023-10-31T00:48:36.775Z,,0,,,NaN,,,,,,false,,,,585639.8999999762,585639.8000000119,,585639.8000000119,,585651.666,8,400,,,
sequence,flow.Sequence,4_112,2023-10-31T00:48:36.775Z,,0,,,3271.483000011882,completion,,,,,false,,,,585640,585639.8000000119,582351.361,582357.3999999762,582368.317,585651.666,8,400,,,
trial,html.Screen,4_113_0,2023-10-31T00:48:39.945Z,,0,3,,3157.6340000119526,response,ISIC_2784965.JPG,5,ISIC_2457859.JPG,ISIC_2784965.JPG,false,1,keypress(m),500,588809.5,588809.3000000119,585635.177,585640.0999999642,585651.666,588835.048,8,400,14,,ISIC_2457859.JPG
break,html.Screen,4_113_1,2023-10-31T00:48:39.945Z,,0,,,NaN,,,,,,false,,,,588809.8000000119,588809.6999999881,,588809.5999999642,,588835.048,8,400,,,
break_continue,html.Screen,4_113_2,2023-10-31T00:48:39.945Z,,0,,,NaN,,,,,,false,,,,588810,588809.8999999762,,588809.8999999762,,588835.048,8,400,,,
sequence,flow.Sequence,4_113,2023-10-31T00:48:39.945Z,,0,,,3158.23399997619,completion,,,,,false,,,,588810,588809.8999999762,585635.177,585640.0999999642,585651.666,588835.048,8,400,,,
trial,html.Screen,4_114_0,2023-10-31T00:48:43.370Z,,0,3,,3399.5519999642856,response,ISIC_1208705.JPG,4,ISIC_0010981.JPG,ISIC_1208705.JPG,false,1,keypress(m),500,592234.8000000119,592234.5999999642,588818.35,588810.1999999881,588835.048,592251.743,8,400,15,,ISIC_0010981.JPG
break,html.Screen,4_114_1,2023-10-31T00:48:43.371Z,,0,,,NaN,,,,,,false,,,,592235.1999999881,592235.0999999642,,592234.8000000119,,592251.743,8,400,,,
break_continue,html.Screen,4_114_2,2023-10-31T00:48:43.371Z,,0,,,NaN,,,,,,false,,,,592235.3999999762,592235.3000000119,,592235.3000000119,,592251.743,8,400,,,
sequence,flow.Sequence,4_114,2023-10-31T00:48:43.371Z,,0,,,3400.2520000119694,completion,,,,,false,,,,592235.3999999762,592235.3000000119,588818.35,588810.0999999642,588835.048,592251.743,8,400,,,
trial,html.Screen,4_115_0,2023-10-31T00:48:47.404Z,,0,3,,4016.3569999642204,response,ISIC_7277310.JPG,4,ISIC_3751172.JPG,ISIC_7277310.JPG,false,1,keypress(m),500,596268.3999999762,596268.0999999642,592235.086,592235.5,592251.743,596285.179,8,400,16,,ISIC_3751172.JPG
break,html.Screen,4_115_1,2023-10-31T00:48:47.405Z,,0,,,NaN,,,,,,false,,,,596269.3000000119,596269.0999999642,,596268.5999999642,,596285.179,8,400,,,
break_continue,html.Screen,4_115_2,2023-10-31T00:48:47.405Z,,0,,,NaN,,,,,,false,,,,596269.5,596269.5,,596269.3999999762,,596285.179,8,400,,,
sequence,flow.Sequence,4_115,2023-10-31T00:48:47.405Z,,0,,,4017.7569999999832,completion,,,,,false,,,,596269.5999999642,596269.5,592235.086,592235.5,592251.743,596285.179,8,400,,,
trial,html.Screen,4_116_0,2023-10-31T00:48:51.311Z,,0,3,,3890.3209999999963,response,ISIC_7605678.JPG,5,ISIC_7775535.JPG,ISIC_7605678.JPG,false,1,keypress(m),500,600175.6999999881,600175.5,596268.217,596269.6999999881,596285.179,600185.206,8,400,17,,ISIC_7775535.JPG
break,html.Screen,4_116_1,2023-10-31T00:48:51.312Z,,0,,,NaN,,,,,,false,,,,600176.3999999762,600176.0999999642,,600175.8000000119,,600185.206,8,400,,,
break_continue,html.Screen,4_116_2,2023-10-31T00:48:51.312Z,,0,,,NaN,,,,,,false,,,,600176.5,600176.3999999762,,600176.3999999762,,600185.206,8,400,,,
sequence,flow.Sequence,4_116,2023-10-31T00:48:51.312Z,,0,,,3891.2209999761544,completion,,,,,false,,,,600176.5,600176.3999999762,596268.217,596269.6999999881,596285.179,600185.206,8,400,,,
trial,html.Screen,4_117_0,2023-10-31T00:48:54.689Z,,0,3,,3368.5940000119153,response,ISIC_0033149.JPG,5,ISIC_4936610.JPG,ISIC_4936610.JPG,false,0,keypress(z),500,603554,603553.8000000119,600168.511,600176.5999999642,600185.206,603568.578,8,400,18,,ISIC_0033149.JPG
break,html.Screen,4_117_1,2023-10-31T00:48:54.690Z,,0,,,NaN,,,,,,false,,,,603554.3999999762,603554.3999999762,,603554,,603568.578,8,400,,,
break_continue,html.Screen,4_117_2,2023-10-31T00:48:54.690Z,,0,,,NaN,,,,,,false,,,,603554.6999999881,603554.5999999642,,603554.5,,603568.578,8,400,,,
sequence,flow.Sequence,4_117,2023-10-31T00:48:54.690Z,,0,,,3369.3939999642316,completion,,,,,false,,,,603554.8000000119,603554.5999999642,600168.511,600176.5999999642,600185.206,603568.578,8,400,,,
trial,html.Screen,4_118_0,2023-10-31T00:48:58.036Z,,0,3,,3331.6219999880996,response,ISIC_0059925.JPG,6,ISIC_0033044.JPG,ISIC_0033044.JPG,false,0,keypress(z),500,606900.3000000119,606900.1999999881,603552.406,603554.8999999762,603568.578,606901.959,8,400,19,,ISIC_0059925.JPG
break,html.Screen,4_118_1,2023-10-31T00:48:58.036Z,,0,,,NaN,,,,,,false,,,,606901,606900.8000000119,,606900.3999999762,,606901.959,8,400,,,
break_continue,html.Screen,4_118_2,2023-10-31T00:48:58.037Z,,0,,,NaN,,,,,,false,,,,606901.1999999881,606901.0999999642,,606901,,606901.959,8,400,,,
sequence,flow.Sequence,4_118,2023-10-31T00:48:58.037Z,,0,,,3332.5219999642577,completion,,,,,false,,,,606901.1999999881,606901.0999999642,603552.406,603554.8000000119,603568.578,606901.959,8,400,,,
trial,html.Screen,4_119_0,2023-10-31T00:49:01.446Z,,0,3,,3408.8410000118893,response,ISIC_7797853.JPG,5,ISIC_3378691.JPG,ISIC_3378691.JPG,false,0,keypress(z),500,610311.0999999642,610310.8000000119,606885.316,606901.3000000119,606901.959,610318.689,8,400,20,,ISIC_7797853.JPG
break,html.Screen,4_119_1,2023-10-31T00:49:01.447Z,,0,,,NaN,,,,,,false,,,,610311.8999999762,610311.6999999881,,610311.3000000119,,610318.689,8,400,,,
break_continue,html.Screen,4_119_2,2023-10-31T00:49:01.447Z,,0,,,NaN,,,,,,false,,,,610312.0999999642,610312,,610312,,610318.689,8,400,,,
sequence,flow.Sequence,4_119,2023-10-31T00:49:01.448Z,,0,,,3410.0409999999683,completion,,,,,false,,,,610312.1999999881,610312,606885.316,606901.3000000119,606901.959,610318.689,8,400,,,
trial,html.Screen,4_120_0,2023-10-31T00:49:04.681Z,,0,3,,3226.810999999987,response,ISIC_0033689.JPG,5,ISIC_0066001.JPG,ISIC_0066001.JPG,false,0,keypress(z),500,613545.6999999881,613545.5,610302.466,610312.3000000119,610318.689,613568.747,8,400,21,,ISIC_0033689.JPG
break,html.Screen,4_120_1,2023-10-31T00:49:04.682Z,,0,,,NaN,,,,,,false,,,,613546.3000000119,613546.1999999881,,613545.8999999762,,613568.747,8,400,,,
break_continue,html.Screen,4_120_2,2023-10-31T00:49:04.682Z,,0,,,NaN,,,,,,false,,,,613546.5,613546.3999999762,,613546.3000000119,,613568.747,8,400,,,
sequence,flow.Sequence,4_120,2023-10-31T00:49:04.682Z,,0,,,3227.710999976145,completion,,,,,false,,,,613546.5999999642,613546.3999999762,610302.466,610312.1999999881,610318.689,613568.747,8,400,,,
trial,html.Screen,4_121_0,2023-10-31T00:49:08.236Z,,0,3,,3531.553000011947,response,ISIC_0072221.JPG,5,ISIC_0006744.JPG,ISIC_0006744.JPG,false,0,keypress(z),500,617100.5,617100.3000000119,613552.075,613546.5999999642,613568.747,617102.098,8,400,22,,ISIC_0072221.JPG
break,html.Screen,4_121_1,2023-10-31T00:49:08.237Z,,0,,,NaN,,,,,,false,,,,617101.1999999881,617101.0999999642,,617100.5999999642,,617102.098,8,400,,,
break_continue,html.Screen,4_121_2,2023-10-31T00:49:08.237Z,,0,,,NaN,,,,,,false,,,,617101.5,617101.5,,617101.3999999762,,617102.098,8,400,,,
sequence,flow.Sequence,4_121,2023-10-31T00:49:08.237Z,,0,,,3532.753000000026,completion,,,,,false,,,,617101.5999999642,617101.5,613552.075,613546.5999999642,613568.747,617102.098,8,400,,,
trial,html.Screen,4_122_0,2023-10-31T00:49:11.311Z,,0,3,,3072.902000000002,response,ISIC_7180418.JPG,5,ISIC_0013736.JPG,ISIC_7180418.JPG,false,1,keypress(m),500,620175.1999999881,620175,617085.624,617101.6999999881,617102.098,620202.224,8,400,23,,ISIC_0013736.JPG
break,html.Screen,4_122_1,2023-10-31T00:49:11.311Z,,0,,,NaN,,,,,,false,,,,620175.8000000119,620175.6999999881,,620175.3999999762,,620202.224,8,400,,,
break_continue,html.Screen,4_122_2,2023-10-31T00:49:11.311Z,,0,,,NaN,,,,,,false,,,,620176.0999999642,620176,,620175.8999999762,,620202.224,8,400,,,
sequence,flow.Sequence,4_122,2023-10-31T00:49:11.312Z,,0,,,3073.902000000002,completion,,,,,false,,,,620176.1999999881,620176,617085.624,617101.6999999881,617102.098,620202.224,8,400,,,
trial,html.Screen,4_123_0,2023-10-31T00:49:14.513Z,,0,3,,3175.3759999641916,response,ISIC_7833178.JPG,5,ISIC_0028666.JPG,ISIC_0028666.JPG,false,0,keypress(z),500,623377.8999999762,623377.5999999642,620185.567,620176.3000000119,620202.224,623385.59,8,400,24,,ISIC_7833178.JPG
break,html.Screen,4_123_1,2023-10-31T00:49:14.514Z,,0,,,NaN,,,,,,false,,,,623378.8999999762,623378.6999999881,,623378,,623385.59,8,400,,,
break_continue,html.Screen,4_123_2,2023-10-31T00:49:14.514Z,,0,,,NaN,,,,,,false,,,,623379.0999999642,623379,,623379,,623385.59,8,400,,,
sequence,flow.Sequence,4_123,2023-10-31T00:49:14.515Z,,0,,,3176.7759999999544,completion,,,,,false,,,,623379.1999999881,623379,620185.567,620176.1999999881,620202.224,623385.59,8,400,,,
trial,html.Screen,4_124_0,2023-10-31T00:49:18.965Z,,0,3,,4443.7100000119535,response,ISIC_2226940.JPG,6,ISIC_0360367.JPG,ISIC_0360367.JPG,false,0,keypress(z),500,627829.5,627829.3000000119,623368.819,623379.3999999762,623385.59,627835.737,8,400,25,,ISIC_2226940.JPG
break,html.Screen,4_124_1,2023-10-31T00:49:18.965Z,,0,,,NaN,,,,,,false,,,,627830.1999999881,627830.0999999642,,627829.6999999881,,627835.737,8,400,,,
break_continue,html.Screen,4_124_2,2023-10-31T00:49:18.966Z,,0,,,NaN,,,,,,false,,,,627830.3999999762,627830.3000000119,,627830.1999999881,,627835.737,8,400,,,
sequence,flow.Sequence,4_124,2023-10-31T00:49:18.966Z,,0,,,4444.7100000119535,completion,,,,,false,,,,627830.5,627830.3000000119,623368.819,623379.3999999762,623385.59,627835.737,8,400,,,
trial,html.Screen,4_125_0,2023-10-31T00:49:22.167Z,,0,3,,3196.0630000119563,response,ISIC_0025035.JPG,4,ISIC_0063164.JPG,ISIC_0025035.JPG,false,1,keypress(m),500,631032.0999999642,631031.8000000119,627819.53,627830.5,627835.737,631035.655,8,400,26,,ISIC_0063164.JPG
break,html.Screen,4_125_1,2023-10-31T00:49:22.169Z,,0,,,NaN,,,,,,false,,,,631033.0999999642,631033,,631032.3000000119,,631035.655,8,400,,,
break_continue,html.Screen,4_125_2,2023-10-31T00:49:22.169Z,,0,,,NaN,,,,,,false,,,,631033.5,631033.3999999762,,631033.3000000119,,631035.655,8,400,,,
sequence,flow.Sequence,4_125,2023-10-31T00:49:22.169Z,,0,,,3197.6629999761935,completion,,,,,false,,,,631033.5999999642,631033.3999999762,627819.53,627830.5,627835.737,631035.655,8,400,,,
