sender,sender_type,sender_id,timestamp,meta,,blockNo,condition,duration,ended_on,img_left,img_reveal,img_right,loser,practice,response,response_action,selection_duration,time_commit,time_end,time_render,time_run,time_show,time_switch,total_blocks,total_trials,trialNo,url,winner
informed_consent,html.Screen,0,2023-10-31T01:29:00.788Z,"{""labjs_version"":""20.2.4"",""labjs_build"":{""flavor"":""production"",""commit"":""f5b4a49f956347addd546a832a3327688c2c0fef""},""location"":""https://run.pavlovia.org/MurrayBennett/melanoma-2afc/?participant=67679&platform=sona"",""userAgent"":""Mozilla/5.0 (Windows NT 10.0; Win64; x64) AppleWebKit/537.36 (KHTML, like Gecko) Chrome/118.0.0.0 Safari/537.36 Edg/118.0.2088.76"",""platform"":""Win32"",""language"":""en-US"",""locale"":""en-US"",""timeZone"":""America/Chicago"",""timezoneOffset"":300,""screen_width"":1536,""screen_height"":960,""scroll_width"":1528,""scroll_height"":790,""window_innerWidth"":1528,""window_innerHeight"":838,""devicePixelRatio"":1.25}",,,,2342.542000143051,response,,,,,,consent,click button,,5114.700000047684,5112.600000143051,2753.454,2765.7000000476837,2770.058,5136.483,,,,"{""participant"":""67679"",""platform"":""sona""}",
Welcome,html.Screen,1,2023-10-31T01:29:01.916Z,,,,symmetry,1104.617000143051,response,,,,,,continue,click button,,6242.700000047684,6241.100000143051,5119.827,5114.900000095367,5136.483,6253.066,,,,,
trial,html.Screen,2_0_0,2023-10-31T01:29:11.493Z,,0,0,,9567.034000143052,response,ISIC_6997061.JPG,,ISIC_0069348.JPG,ISIC_0069348.JPG,true,0,keypress(z),500,15820.5,15820.100000143051,6236.609,6243,6253.066,15852.365,1,6,1,,ISIC_6997061.JPG
sequence,flow.Sequence,2_0,2023-10-31T01:29:11.494Z,,0,,,9567.034000143052,completion,,,,,true,,,,15821,15820.100000143051,6236.609,6242.900000095367,6253.066,15852.365,1,6,,,
trial,html.Screen,2_1_0,2023-10-31T01:29:15.920Z,,0,0,,4394.335000047684,response,ISIC_0057368.JPG,,ISIC_0009529.JPG,ISIC_0057368.JPG,true,1,keypress(m),500,20247.300000190735,20246.700000047684,15835.586,15821.100000143051,15852.365,20251.959,1,6,2,,ISIC_0009529.JPG
sequence,flow.Sequence,2_1,2023-10-31T01:29:15.921Z,,0,,,4394.335000047684,completion,,,,,true,,,,20247.700000047684,20246.700000047684,15835.586,15821,15852.365,20251.959,1,6,,,
trial,html.Screen,2_2_0,2023-10-31T01:29:23.818Z,,0,0,,7892.241000047685,response,ISIC_9758671.JPG,,ISIC_0064954.JPG,ISIC_9758671.JPG,true,1,keypress(m),500,28144.700000047684,28144.200000047684,20235.343,20248,20251.959,28151.26,1,6,3,,ISIC_0064954.JPG
sequence,flow.Sequence,2_2,2023-10-31T01:29:23.818Z,,0,,,7892.241000047685,completion,,,,,true,,,,28145,28144.200000047684,20235.343,20247.800000190735,20251.959,28151.26,1,6,,,
trial,html.Screen,2_3_0,2023-10-31T01:29:27.473Z,,0,0,,3648.3400001430527,response,ISIC_0005785.JPG,,ISIC_0000080.JPG,ISIC_0005785.JPG,true,1,keypress(m),500,31799.900000095367,31799.60000014305,28135.039,28145.300000190735,28151.26,31817.82,1,6,4,,ISIC_0000080.JPG
sequence,flow.Sequence,2_3,2023-10-31T01:29:27.473Z,,0,,,3648.3400001430527,completion,,,,,true,,,,31800.300000190735,31799.60000014305,28135.039,28145.200000047684,28151.26,31817.82,1,6,,,
trial,html.Screen,2_4_0,2023-10-31T01:29:30.628Z,,0,0,,3136.5800000953677,response,ISIC_7944028.JPG,,ISIC_5390060.JPG,ISIC_5390060.JPG,true,0,keypress(z),500,34954.800000190735,34954.40000009537,31784.525,31800.5,31817.82,34967.442,1,6,5,,ISIC_7944028.JPG
sequence,flow.Sequence,2_4,2023-10-31T01:29:30.628Z,,0,,,3136.5800000953677,completion,,,,,true,,,,34955.10000014305,34954.40000009537,31784.525,31800.400000095367,31817.82,34967.442,1,6,,,
trial,html.Screen,2_5_0,2023-10-31T01:29:33.482Z,,0,0,,2841.6580001430484,response,ISIC_0010188.JPG,,ISIC_0794216.JPG,ISIC_0010188.JPG,true,1,keypress(m),500,37809.300000190735,37809.10000014305,34951.254,34955.300000190735,34967.442,37828.628,1,6,6,,ISIC_0794216.JPG
sequence,flow.Sequence,2_5,2023-10-31T01:29:33.482Z,,0,,,2841.6580001430484,completion,,,,,true,,,,37809.60000014305,37809.10000014305,34951.254,34955.200000047684,34967.442,37828.628,1,6,,,
loop,flow.Loop,2,2023-10-31T01:29:33.483Z,,,,,31556.034000143052,completion,,,,,true,,,,37809.90000009537,37809.10000014305,6236.609,6242.800000190735,6253.066,37828.628,1,6,,,
exp_instructions,html.Screen,3,2023-10-31T01:29:36.257Z,,,,,2754.372000000003,response,,,,,,continue,keypress(Space),,40584.300000190735,40583,37800.628,37809.90000009537,37828.628,40600.304,,,,,
trial,html.Screen,4_0_0,2023-10-31T01:29:40.442Z,,0,1,,4168.696000000004,response,ISIC_7960321.JPG,11,ISIC_9913573.JPG,ISIC_7960321.JPG,false,1,keypress(m),500,44769.40000009537,44769,40583.674,40584.5,40600.304,44783.577,8,400,1,,ISIC_9913573.JPG
break,html.Screen,4_0_1,2023-10-31T01:29:40.444Z,,0,,,NaN,,,,,,false,,,,44771.10000014305,44770.700000047684,,44769.700000047684,,44783.577,8,400,,,
break_continue,html.Screen,4_0_2,2023-10-31T01:29:40.445Z,,0,,,NaN,,,,,,false,,,,44771.90000009537,44771.800000190735,,44771.40000009537,,44783.577,8,400,,,
sequence,flow.Sequence,4_0,2023-10-31T01:29:40.445Z,,0,,,4171.496000190738,completion,,,,,false,,,,44772.200000047684,44771.800000190735,40583.674,40584.5,40600.304,44783.577,8,400,,,
trial,html.Screen,4_1_0,2023-10-31T01:29:43.874Z,,0,1,,3416.7230001907374,response,ISIC_3651451.JPG,21,ISIC_7161069.JPG,ISIC_3651451.JPG,false,1,keypress(m),500,48200.700000047684,48200.300000190735,44766.992,44772.300000190735,44783.577,48216.6,8,400,2,,ISIC_7161069.JPG
break,html.Screen,4_1_1,2023-10-31T01:29:43.875Z,,0,,,NaN,,,,,,false,,,,48202.40000009537,48201.800000190735,,48201,,48216.6,8,400,,,
break_continue,html.Screen,4_1_2,2023-10-31T01:29:43.876Z,,0,,,NaN,,,,,,false,,,,48203.10000014305,48202.90000009537,,48202.60000014305,,48216.6,8,400,,,
sequence,flow.Sequence,4_1,2023-10-31T01:29:43.876Z,,0,,,3419.32300009537,completion,,,,,false,,,,48203.300000190735,48202.90000009537,44766.992,44772.300000190735,44783.577,48216.6,8,400,,,
trial,html.Screen,4_2_0,2023-10-31T01:29:47.661Z,,0,1,,3770.800000095369,response,ISIC_8007849.JPG,13,ISIC_5073160.JPG,ISIC_8007849.JPG,false,1,keypress(m),500,51987.800000190735,51987.40000009537,48200.233,48203.5,48216.6,51999.702,8,400,3,,ISIC_5073160.JPG
break,html.Screen,4_2_1,2023-10-31T01:29:47.662Z,,0,,,NaN,,,,,,false,,,,51989.300000190735,51988.700000047684,,51988.10000014305,,51999.702,8,400,,,
break_continue,html.Screen,4_2_2,2023-10-31T01:29:47.663Z,,0,,,NaN,,,,,,false,,,,51990,51989.800000190735,,51989.5,,51999.702,8,400,,,
sequence,flow.Sequence,4_2,2023-10-31T01:29:47.663Z,,0,,,3773.2000001907363,completion,,,,,false,,,,51990.10000014305,51989.800000190735,48200.233,48203.5,48216.6,51999.702,8,400,,,
trial,html.Screen,4_3_0,2023-10-31T01:29:51.059Z,,0,1,,3386.19800009537,response,ISIC_9917640.JPG,31,ISIC_3342474.JPG,ISIC_3342474.JPG,false,0,keypress(z),500,55386.300000190735,55385.90000009537,51983.215,51990.300000190735,51999.702,55399.14,8,400,4,,ISIC_9917640.JPG
break,html.Screen,4_3_1,2023-10-31T01:29:51.061Z,,0,,,NaN,,,,,,false,,,,55387.800000190735,55387.200000047684,,55386.5,,55399.14,8,400,,,
break_continue,html.Screen,4_3_2,2023-10-31T01:29:51.061Z,,0,,,NaN,,,,,,false,,,,55388.40000009537,55388.200000047684,,55387.90000009537,,55399.14,8,400,,,
sequence,flow.Sequence,4_3,2023-10-31T01:29:51.062Z,,0,,,3388.498000047686,completion,,,,,false,,,,55388.700000047684,55388.200000047684,51983.215,51990.300000190735,51999.702,55399.14,8,400,,,
trial,html.Screen,4_4_0,2023-10-31T01:29:54.973Z,,0,1,,3900.5600000476843,response,ISIC_3431915.JPG,6,ISIC_0063824.JPG,ISIC_0063824.JPG,false,0,keypress(z),500,59300.10000014305,59299.700000047684,55382.875,55388.800000190735,55399.14,59315.622,8,400,5,,ISIC_3431915.JPG
break,html.Screen,4_4_1,2023-10-31T01:29:54.975Z,,0,,,NaN,,,,,,false,,,,59301.700000047684,59301.40000009537,,59300.40000009537,,59315.622,8,400,,,
break_continue,html.Screen,4_4_2,2023-10-31T01:29:54.975Z,,0,,,NaN,,,,,,false,,,,59302.300000190735,59302.200000047684,,59301.90000009537,,59315.622,8,400,,,
sequence,flow.Sequence,4_4,2023-10-31T01:29:54.975Z,,0,,,3903.0600000476843,completion,,,,,false,,,,59302.60000014305,59302.200000047684,55382.875,55388.800000190735,55399.14,59315.622,8,400,,,
trial,html.Screen,4_5_0,2023-10-31T01:29:58.209Z,,0,1,,3225.0780000476807,response,ISIC_0030060.JPG,7,ISIC_0025343.JPG,ISIC_0030060.JPG,false,1,keypress(m),500,62540.90000009537,62540.700000047684,59298.999,59302.800000190735,59315.622,62548.538,8,400,6,,ISIC_0025343.JPG
break,html.Screen,4_5_1,2023-10-31T01:29:58.210Z,,0,,,NaN,,,,,,false,,,,62541.90000009537,62541.60000014305,,62541.10000014305,,62548.538,8,400,,,
break_continue,html.Screen,4_5_2,2023-10-31T01:29:58.210Z,,0,,,NaN,,,,,,false,,,,62542.40000009537,62542.300000190735,,62542.10000014305,,62548.538,8,400,,,
sequence,flow.Sequence,4_5,2023-10-31T01:29:58.210Z,,0,,,3226.678000190732,completion,,,,,false,,,,62542.5,62542.300000190735,59298.999,59302.700000047684,59315.622,62548.538,8,400,,,
trial,html.Screen,4_6_0,2023-10-31T01:30:03.963Z,,0,1,,5746.4619999999995,response,ISIC_2535382.JPG,5,ISIC_0003068.JPG,ISIC_2535382.JPG,false,1,keypress(m),500,68295.10000014305,68295,62532.403,62542.60000014305,62548.538,68297.995,8,400,7,,ISIC_0003068.JPG
break,html.Screen,4_6_1,2023-10-31T01:30:03.964Z,,0,,,NaN,,,,,,false,,,,68295.90000009537,68295.80000019073,,68295.30000019073,,68297.995,8,400,,,
break_continue,html.Screen,4_6_2,2023-10-31T01:30:03.964Z,,0,,,NaN,,,,,,false,,,,68296.20000004768,68296.10000014305,,68296,,68297.995,8,400,,,
sequence,flow.Sequence,4_6,2023-10-31T01:30:03.964Z,,0,,,5747.562000143051,completion,,,,,false,,,,68296.20000004768,68296.10000014305,62532.403,62542.60000014305,62548.538,68297.995,8,400,,,
trial,html.Screen,4_7_0,2023-10-31T01:30:07.156Z,,0,1,,3190.405000095372,response,ISIC_7161002.JPG,12,ISIC_0030963.JPG,ISIC_7161002.JPG,false,1,keypress(m),500,71488.5,71488.40000009537,68281.159,68296.20000004768,68297.995,71497.919,8,400,8,,ISIC_0030963.JPG
break,html.Screen,4_7_1,2023-10-31T01:30:07.157Z,,0,,,NaN,,,,,,false,,,,71489.40000009537,71489,,71488.60000014305,,71497.919,8,400,,,
break_continue,html.Screen,4_7_2,2023-10-31T01:30:07.157Z,,0,,,NaN,,,,,,false,,,,71489.70000004768,71489.60000014305,,71489.5,,71497.919,8,400,,,
sequence,flow.Sequence,4_7,2023-10-31T01:30:07.157Z,,0,,,3191.605000143056,completion,,,,,false,,,,71489.80000019073,71489.60000014305,68281.159,68296.20000004768,68297.995,71497.919,8,400,,,
trial,html.Screen,4_8_0,2023-10-31T01:30:11.903Z,,0,1,,4736.781000047689,response,ISIC_5634573.JPG,3,ISIC_0065513.JPG,ISIC_5634573.JPG,false,1,keypress(m),500,76234.90000009537,76234.70000004768,71481.218,71489.90000009537,71497.919,76263.357,8,400,9,,ISIC_0065513.JPG
break,html.Screen,4_8_1,2023-10-31T01:30:11.904Z,,0,,,NaN,,,,,,false,,,,76235.90000009537,76235.60000014305,,76235.20000004768,,76263.357,8,400,,,
break_continue,html.Screen,4_8_2,2023-10-31T01:30:11.904Z,,0,,,NaN,,,,,,false,,,,76236.30000019073,76236.10000014305,,76236,,76263.357,8,400,,,
sequence,flow.Sequence,4_8,2023-10-31T01:30:11.904Z,,0,,,4738.181000143057,completion,,,,,false,,,,76236.40000009537,76236.10000014305,71481.218,71489.90000009537,71497.919,76263.357,8,400,,,
trial,html.Screen,4_9_0,2023-10-31T01:30:15.574Z,,0,1,,3642.6429999999964,response,ISIC_6824842.JPG,6,ISIC_3225754.JPG,ISIC_3225754.JPG,false,0,keypress(z),500,79906.20000004768,79906,76230.896,76236.5,76263.357,79913.729,8,400,10,,ISIC_6824842.JPG
break,html.Screen,4_9_1,2023-10-31T01:30:15.575Z,,0,,,NaN,,,,,,false,,,,79907,79906.70000004768,,79906.40000009537,,79913.729,8,400,,,
break_continue,html.Screen,4_9_2,2023-10-31T01:30:15.575Z,,0,,,NaN,,,,,,false,,,,79907.30000019073,79907.20000004768,,79907,,79913.729,8,400,,,
sequence,flow.Sequence,4_9,2023-10-31T01:30:15.575Z,,0,,,3643.84300004768,completion,,,,,false,,,,79907.40000009537,79907.20000004768,76230.896,76236.5,76263.357,79913.729,8,400,,,
trial,html.Screen,4_10_0,2023-10-31T01:30:18.334Z,,0,1,,2752.171000095361,response,ISIC_2139752.JPG,18,ISIC_3789239.JPG,ISIC_2139752.JPG,false,1,keypress(m),500,82666.10000014305,82665.90000009537,79897.28,79907.40000009537,79913.729,82680.303,8,400,11,,ISIC_3789239.JPG
break,html.Screen,4_10_1,2023-10-31T01:30:18.334Z,,0,,,NaN,,,,,,false,,,,82666.60000014305,82666.40000009537,,82666.10000014305,,82680.303,8,400,,,
break_continue,html.Screen,4_10_2,2023-10-31T01:30:18.334Z,,0,,,NaN,,,,,,false,,,,82666.80000019073,82666.70000004768,,82666.60000014305,,82680.303,8,400,,,
sequence,flow.Sequence,4_10,2023-10-31T01:30:18.335Z,,0,,,2752.971000047677,completion,,,,,false,,,,82666.90000009537,82666.70000004768,79897.28,79907.40000009537,79913.729,82680.303,8,400,,,
trial,html.Screen,4_11_0,2023-10-31T01:30:21.047Z,,0,1,,2699.197,response,ISIC_6450034.JPG,9,ISIC_5388493.JPG,ISIC_6450034.JPG,false,1,keypress(m),500,85379.5,85379.5,82663.48,82666.90000009537,82680.303,85396.948,8,400,12,,ISIC_5388493.JPG
break,html.Screen,4_11_1,2023-10-31T01:30:21.048Z,,0,,,NaN,,,,,,false,,,,85380.30000019073,85380.10000014305,,85379.70000004768,,85396.948,8,400,,,
break_continue,html.Screen,4_11_2,2023-10-31T01:30:21.048Z,,0,,,NaN,,,,,,false,,,,85380.60000014305,85380.5,,85380.5,,85396.948,8,400,,,
sequence,flow.Sequence,4_11,2023-10-31T01:30:21.048Z,,0,,,2700.197,completion,,,,,false,,,,85380.60000014305,85380.5,82663.48,82666.90000009537,82680.303,85396.948,8,400,,,
trial,html.Screen,4_12_0,2023-10-31T01:30:24.301Z,,0,1,,3235.852000190731,response,ISIC_0009006.JPG,6,ISIC_0058408.JPG,ISIC_0009006.JPG,false,1,keypress(m),500,88632.90000009537,88632.80000019073,85380.079,85380.80000019073,85396.948,88646.63,8,400,13,,ISIC_0058408.JPG
break,html.Screen,4_12_1,2023-10-31T01:30:24.301Z,,0,,,NaN,,,,,,false,,,,88633.80000019073,88633.5,,88633,,88646.63,8,400,,,
break_continue,html.Screen,4_12_2,2023-10-31T01:30:24.302Z,,0,,,NaN,,,,,,false,,,,88634.10000014305,88634,,88633.90000009537,,88646.63,8,400,,,
sequence,flow.Sequence,4_12,2023-10-31T01:30:24.302Z,,0,,,3237.051999999996,completion,,,,,false,,,,88634.20000004768,88634,85380.079,85380.80000019073,85396.948,88646.63,8,400,,,
trial,html.Screen,4_13_0,2023-10-31T01:30:27.024Z,,0,1,,2709.3699999999953,response,ISIC_0012055.JPG,7,ISIC_3571523.JPG,ISIC_0012055.JPG,false,1,keypress(m),500,91356.20000004768,91356,88629.743,88634.40000009537,88646.63,91362.901,8,400,14,,ISIC_3571523.JPG
break,html.Screen,4_13_1,2023-10-31T01:30:27.025Z,,0,,,NaN,,,,,,false,,,,91357,91356.80000019073,,91356.40000009537,,91362.901,8,400,,,
break_continue,html.Screen,4_13_2,2023-10-31T01:30:27.025Z,,0,,,NaN,,,,,,false,,,,91357.30000019073,91357.30000019073,,91357.10000014305,,91362.901,8,400,,,
sequence,flow.Sequence,4_13,2023-10-31T01:30:27.025Z,,0,,,2710.67000019073,completion,,,,,false,,,,91357.5,91357.30000019073,88629.743,88634.40000009537,88646.63,91362.901,8,400,,,
trial,html.Screen,4_14_0,2023-10-31T01:30:29.655Z,,0,1,,2624.199000143053,response,ISIC_6755132.JPG,12,ISIC_3784812.JPG,ISIC_6755132.JPG,false,1,keypress(m),500,93987.30000019073,93987.10000014305,91346.406,91357.60000014305,91362.901,93996.097,8,400,15,,ISIC_3784812.JPG
break,html.Screen,4_14_1,2023-10-31T01:30:29.656Z,,0,,,NaN,,,,,,false,,,,93988,93987.70000004768,,93987.40000009537,,93996.097,8,400,,,
break_continue,html.Screen,4_14_2,2023-10-31T01:30:29.656Z,,0,,,NaN,,,,,,false,,,,93988.30000019073,93988.20000004768,,93988.10000014305,,93996.097,8,400,,,
sequence,flow.Sequence,4_14,2023-10-31T01:30:29.656Z,,0,,,2625.2990000476857,completion,,,,,false,,,,93988.40000009537,93988.20000004768,91346.406,91357.5,91362.901,93996.097,8,400,,,
trial,html.Screen,4_15_0,2023-10-31T01:30:33.642Z,,0,1,,3978.1030000476894,response,ISIC_7820005.JPG,9,ISIC_3230874.JPG,ISIC_7820005.JPG,false,1,keypress(m),500,97974.30000019073,97974.20000004768,93979.322,93988.40000009537,93996.097,97978.95,8,400,16,,ISIC_3230874.JPG
break,html.Screen,4_15_1,2023-10-31T01:30:33.643Z,,0,,,NaN,,,,,,false,,,,97975.30000019073,97974.90000009537,,97974.5,,97978.95,8,400,,,
break_continue,html.Screen,4_15_2,2023-10-31T01:30:33.643Z,,0,,,NaN,,,,,,false,,,,97975.5,97975.5,,97975.30000019073,,97978.95,8,400,,,
sequence,flow.Sequence,4_15,2023-10-31T01:30:33.643Z,,0,,,3979.4030000000057,completion,,,,,false,,,,97975.60000014305,97975.5,93979.322,93988.40000009537,93996.097,97978.95,8,400,,,
trial,html.Screen,4_16_0,2023-10-31T01:30:37.598Z,,0,1,,3951.150000143054,response,ISIC_0061491.JPG,3,ISIC_8719134.JPG,ISIC_0061491.JPG,false,1,keypress(m),500,101930.30000019073,101930.10000014305,97962.479,97975.70000004768,97978.95,101945.49,8,400,17,,ISIC_8719134.JPG
break,html.Screen,4_16_1,2023-10-31T01:30:37.599Z,,0,,,NaN,,,,,,false,,,,101931,101930.90000009537,,101930.40000009537,,101945.49,8,400,,,
break_continue,html.Screen,4_16_2,2023-10-31T01:30:37.599Z,,0,,,NaN,,,,,,false,,,,101931.20000004768,101931.10000014305,,101931.10000014305,,101945.49,8,400,,,
sequence,flow.Sequence,4_16,2023-10-31T01:30:37.599Z,,0,,,3952.150000143054,completion,,,,,false,,,,101931.30000019073,101931.10000014305,97962.479,97975.70000004768,97978.95,101945.49,8,400,,,
trial,html.Screen,4_17_0,2023-10-31T01:30:41.905Z,,0,1,,4291.410000095362,response,ISIC_0015251.JPG,7,ISIC_1513720.JPG,ISIC_1513720.JPG,false,0,keypress(z),500,106237,106236.90000009537,101928.836,101931.40000009537,101945.49,106244.925,8,400,18,,ISIC_0015251.JPG
break,html.Screen,4_17_1,2023-10-31T01:30:41.906Z,,0,,,NaN,,,,,,false,,,,106237.90000009537,106237.60000014305,,106237.20000004768,,106244.925,8,400,,,
break_continue,html.Screen,4_17_2,2023-10-31T01:30:41.906Z,,0,,,NaN,,,,,,false,,,,106238.10000014305,106238,,106237.90000009537,,106244.925,8,400,,,
sequence,flow.Sequence,4_17,2023-10-31T01:30:41.906Z,,0,,,4292.509999999995,completion,,,,,false,,,,106238.20000004768,106238,101928.836,101931.30000019073,101945.49,106244.925,8,400,,,
trial,html.Screen,4_18_0,2023-10-31T01:30:46.548Z,,0,1,,4635.574999999997,response,ISIC_2768150.JPG,26,ISIC_3459981.JPG,ISIC_3459981.JPG,false,0,keypress(z),500,110880.70000004768,110880.5,106228.372,106238.20000004768,106244.925,110894.825,8,400,19,,ISIC_2768150.JPG
break,html.Screen,4_18_1,2023-10-31T01:30:46.549Z,,0,,,NaN,,,,,,false,,,,110881.5,110881.30000019073,,110880.90000009537,,110894.825,8,400,,,
break_continue,html.Screen,4_18_2,2023-10-31T01:30:46.550Z,,0,,,NaN,,,,,,false,,,,110881.80000019073,110881.80000019073,,110881.60000014305,,110894.825,8,400,,,
sequence,flow.Sequence,4_18,2023-10-31T01:30:46.550Z,,0,,,4636.875000190732,completion,,,,,false,,,,110881.90000009537,110881.80000019073,106228.372,106238.20000004768,106244.925,110894.825,8,400,,,
trial,html.Screen,4_19_0,2023-10-31T01:30:49.325Z,,0,1,,2762.175000000003,response,ISIC_0071951.JPG,12,ISIC_3882374.JPG,ISIC_0071951.JPG,false,1,keypress(m),500,113657.20000004768,113657,110878.282,110882,110894.825,113661.338,8,400,20,,ISIC_3882374.JPG
break,html.Screen,4_19_1,2023-10-31T01:30:49.326Z,,0,,,NaN,,,,,,false,,,,113657.90000009537,113657.80000019073,,113657.30000019073,,113661.338,8,400,,,
break_continue,html.Screen,4_19_2,2023-10-31T01:30:49.326Z,,0,,,NaN,,,,,,false,,,,113658.20000004768,113658.10000014305,,113658,,113661.338,8,400,,,
sequence,flow.Sequence,4_19,2023-10-31T01:30:49.326Z,,0,,,2763.275000143054,completion,,,,,false,,,,113658.30000019073,113658.10000014305,110878.282,110882,110894.825,113661.338,8,400,,,
trial,html.Screen,4_20_0,2023-10-31T01:30:52.468Z,,0,1,,3138.7620001430478,response,ISIC_8435105.JPG,5,ISIC_0033344.JPG,ISIC_0033344.JPG,false,0,keypress(z),500,116800.40000009537,116800.10000014305,113644.574,113658.30000019073,113661.338,116810.788,8,400,21,,ISIC_8435105.JPG
break,html.Screen,4_20_1,2023-10-31T01:30:52.469Z,,0,,,NaN,,,,,,false,,,,116801.20000004768,116801,,116800.5,,116810.788,8,400,,,
break_continue,html.Screen,4_20_2,2023-10-31T01:30:52.469Z,,0,,,NaN,,,,,,false,,,,116801.40000009537,116801.30000019073,,116801.20000004768,,116810.788,8,400,,,
sequence,flow.Sequence,4_20,2023-10-31T01:30:52.469Z,,0,,,3139.9620001907315,completion,,,,,false,,,,116801.40000009537,116801.30000019073,113644.574,113658.30000019073,113661.338,116810.788,8,400,,,
trial,html.Screen,4_21_0,2023-10-31T01:30:57.435Z,,0,1,,4967.312000143051,response,ISIC_2470790.JPG,10,ISIC_9048507.JPG,ISIC_2470790.JPG,false,1,keypress(m),500,121778.40000009537,121778.10000014305,116794.233,116801.5,116810.788,121793.861,8,400,22,,ISIC_9048507.JPG
break,html.Screen,4_21_1,2023-10-31T01:30:57.436Z,,0,,,NaN,,,,,,false,,,,121779.30000019073,121779.10000014305,,121778.70000004768,,121793.861,8,400,,,
break_continue,html.Screen,4_21_2,2023-10-31T01:30:57.436Z,,0,,,NaN,,,,,,false,,,,121779.60000014305,121779.5,,121779.30000019073,,121793.861,8,400,,,
sequence,flow.Sequence,4_21,2023-10-31T01:30:57.436Z,,0,,,4968.7119999999995,completion,,,,,false,,,,121779.80000019073,121779.5,116794.233,116801.40000009537,116810.788,121793.861,8,400,,,
trial,html.Screen,4_22_0,2023-10-31T01:31:01.073Z,,0,1,,3622.4390001907304,response,ISIC_2914160.JPG,11,ISIC_0033605.JPG,ISIC_0033605.JPG,false,0,keypress(z),500,125416.70000004768,125416.30000019073,121777.163,121780,121793.861,125426.885,8,400,23,,ISIC_2914160.JPG
break,html.Screen,4_22_1,2023-10-31T01:31:01.075Z,,0,,,NaN,,,,,,false,,,,125418.10000014305,125417.60000014305,,125417,,125426.885,8,400,,,
break_continue,html.Screen,4_22_2,2023-10-31T01:31:01.075Z,,0,,,NaN,,,,,,false,,,,125418.80000019073,125418.60000014305,,125418.30000019073,,125426.885,8,400,,,
sequence,flow.Sequence,4_22,2023-10-31T01:31:01.075Z,,0,,,3624.7390001430467,completion,,,,,false,,,,125419,125418.60000014305,121777.163,121779.90000009537,121793.861,125426.885,8,400,,,
trial,html.Screen,4_23_0,2023-10-31T01:31:03.880Z,,0,1,,2796.41500019074,response,ISIC_1377409.JPG,12,ISIC_0033083.JPG,ISIC_0033083.JPG,false,0,keypress(z),500,128223.5,128223.30000019073,125410.057,125419.20000004768,125426.885,128226.755,8,400,24,,ISIC_1377409.JPG
break,html.Screen,4_23_1,2023-10-31T01:31:03.881Z,,0,,,NaN,,,,,,false,,,,128224.70000004768,128224.20000004768,,128223.80000019073,,128226.755,8,400,,,
break_continue,html.Screen,4_23_2,2023-10-31T01:31:03.882Z,,0,,,NaN,,,,,,false,,,,128225,128224.90000009537,,128224.80000019073,,128226.755,8,400,,,
sequence,flow.Sequence,4_23,2023-10-31T01:31:03.882Z,,0,,,2798.0150000953727,completion,,,,,false,,,,128225.10000014305,128224.90000009537,125410.057,125419.10000014305,125426.885,128226.755,8,400,,,
trial,html.Screen,4_24_0,2023-10-31T01:31:07.218Z,,0,1,,3334.645000095363,response,ISIC_0033027.JPG,7,ISIC_0055143.JPG,ISIC_0055143.JPG,false,0,keypress(z),500,131561.70000004768,131561.40000009537,128210.491,128225.20000004768,128226.755,131576.855,8,400,25,,ISIC_0033027.JPG
break,html.Screen,4_24_1,2023-10-31T01:31:07.220Z,,0,,,NaN,,,,,,false,,,,131563.5,131563,,131562.10000014305,,131576.855,8,400,,,
break_continue,html.Screen,4_24_2,2023-10-31T01:31:07.221Z,,0,,,NaN,,,,,,false,,,,131564.10000014305,131564,,131563.60000014305,,131576.855,8,400,,,
sequence,flow.Sequence,4_24,2023-10-31T01:31:07.221Z,,0,,,3337.2449999999953,completion,,,,,false,,,,131564.30000019073,131564,128210.491,128225.20000004768,128226.755,131576.855,8,400,,,
trial,html.Screen,4_25_0,2023-10-31T01:31:11.240Z,,0,1,,4006.8450000476732,response,ISIC_7358691.JPG,18,ISIC_0064124.JPG,ISIC_0064124.JPG,false,0,keypress(z),500,135584,135583.70000004768,131559.74,131564.40000009537,131576.855,135592.921,8,400,26,,ISIC_7358691.JPG
break,html.Screen,4_25_1,2023-10-31T01:31:11.242Z,,0,,,NaN,,,,,,false,,,,135585.5,135584.80000019073,,135584.20000004768,,135592.921,8,400,,,
break_continue,html.Screen,4_25_2,2023-10-31T01:31:11.243Z,,0,,,NaN,,,,,,false,,,,135586.10000014305,135586,,135585.60000014305,,135592.921,8,400,,,
sequence,flow.Sequence,4_25,2023-10-31T01:31:11.243Z,,0,,,4009.1449999999895,completion,,,,,false,,,,135586.40000009537,135586,131559.74,131564.40000009537,131576.855,135592.921,8,400,,,
trial,html.Screen,4_26_0,2023-10-31T01:31:15.027Z,,0,1,,3776.9790000953653,response,ISIC_0059733.JPG,9,ISIC_0059357.JPG,ISIC_0059733.JPG,false,1,keypress(m),500,139370.20000004768,139369.90000009537,135576.101,135586.5,135592.921,139375.694,8,400,27,,ISIC_0059357.JPG
break,html.Screen,4_26_1,2023-10-31T01:31:15.028Z,,0,,,NaN,,,,,,false,,,,139371.70000004768,139371.10000014305,,139370.5,,139375.694,8,400,,,
break_continue,html.Screen,4_26_2,2023-10-31T01:31:15.029Z,,0,,,NaN,,,,,,false,,,,139372.40000009537,139372.20000004768,,139371.90000009537,,139375.694,8,400,,,
sequence,flow.Sequence,4_26,2023-10-31T01:31:15.029Z,,0,,,3779.2790000476816,completion,,,,,false,,,,139372.5,139372.20000004768,135576.101,135586.5,135592.921,139375.694,8,400,,,
trial,html.Screen,4_27_0,2023-10-31T01:31:17.551Z,,0,1,,2518.1060001907463,response,ISIC_1423737.JPG,6,ISIC_3013468.JPG,ISIC_1423737.JPG,false,1,keypress(m),500,141894.20000004768,141893.80000019073,139359.041,139372.80000019073,139375.694,141909.219,8,400,28,,ISIC_3013468.JPG
break,html.Screen,4_27_1,2023-10-31T01:31:17.552Z,,0,,,NaN,,,,,,false,,,,141895.70000004768,141895.20000004768,,141894.5,,141909.219,8,400,,,
break_continue,html.Screen,4_27_2,2023-10-31T01:31:17.553Z,,0,,,NaN,,,,,,false,,,,141896.30000019073,141896.20000004768,,141895.90000009537,,141909.219,8,400,,,
sequence,flow.Sequence,4_27,2023-10-31T01:31:17.553Z,,0,,,2520.506000047695,completion,,,,,false,,,,141896.60000014305,141896.20000004768,139359.041,139372.60000014305,139375.694,141909.219,8,400,,,
trial,html.Screen,4_28_0,2023-10-31T01:31:20.695Z,,0,1,,3128.8810001430393,response,ISIC_0064102.JPG,6,ISIC_8579259.JPG,ISIC_8579259.JPG,false,0,keypress(z),500,145038.40000009537,145038.10000014305,141892.147,141896.70000004768,141909.219,145042.058,8,400,29,,ISIC_0064102.JPG
break,html.Screen,4_28_1,2023-10-31T01:31:20.696Z,,0,,,NaN,,,,,,false,,,,145039.90000009537,145039.30000019073,,145038.60000014305,,145042.058,8,400,,,
break_continue,html.Screen,4_28_2,2023-10-31T01:31:20.697Z,,0,,,NaN,,,,,,false,,,,145040.5,145040.40000009537,,145040.10000014305,,145042.058,8,400,,,
sequence,flow.Sequence,4_28,2023-10-31T01:31:20.697Z,,0,,,3131.1810000953556,completion,,,,,false,,,,145040.80000019073,145040.40000009537,141892.147,141896.70000004768,141909.219,145042.058,8,400,,,
trial,html.Screen,4_29_0,2023-10-31T01:31:23.458Z,,0,1,,2759.042000143061,response,ISIC_0056710.JPG,9,ISIC_0002295.JPG,ISIC_0056710.JPG,false,1,keypress(m),500,147801.40000009537,147801.10000014305,145025.835,145040.90000009537,145042.058,147892.443,8,400,30,,ISIC_0002295.JPG
break,html.Screen,4_29_1,2023-10-31T01:31:23.459Z,,0,,,NaN,,,,,,false,,,,147802.40000009537,147802.10000014305,,147801.60000014305,,147892.443,8,400,,,
break_continue,html.Screen,4_29_2,2023-10-31T01:31:23.459Z,,0,,,NaN,,,,,,false,,,,147802.90000009537,147802.70000004768,,147802.5,,147892.443,8,400,,,
sequence,flow.Sequence,4_29,2023-10-31T01:31:23.460Z,,0,,,2760.6420000476937,completion,,,,,false,,,,147803,147802.70000004768,145025.835,145040.90000009537,145042.058,147892.443,8,400,,,
trial,html.Screen,4_30_0,2023-10-31T01:31:26.491Z,,0,1,,2942.0570000000007,response,ISIC_6985114.JPG,6,ISIC_0001126.JPG,ISIC_0001126.JPG,false,0,keypress(z),500,150834.80000019073,150834.5,147792.323,147803.20000004768,147892.443,150841.442,8,400,31,,ISIC_6985114.JPG
break,html.Screen,4_30_1,2023-10-31T01:31:26.492Z,,0,,,NaN,,,,,,false,,,,150835.90000009537,150835.60000014305,,150835,,150841.442,8,400,,,
break_continue,html.Screen,4_30_2,2023-10-31T01:31:26.493Z,,0,,,NaN,,,,,,false,,,,150836.30000019073,150836.20000004768,,150836,,150841.442,8,400,,,
sequence,flow.Sequence,4_30,2023-10-31T01:31:26.493Z,,0,,,2943.7570000476844,completion,,,,,false,,,,150836.5,150836.20000004768,147792.323,147803.20000004768,147892.443,150841.442,8,400,,,
trial,html.Screen,4_31_0,2023-10-31T01:31:29.650Z,,0,1,,3151.858000190725,response,ISIC_3006279.JPG,2,ISIC_8281208.JPG,ISIC_3006279.JPG,false,1,keypress(m),500,153993.70000004768,153993.30000019073,150825.068,150836.70000004768,150841.442,154007.859,8,400,32,,ISIC_8281208.JPG
break,html.Screen,4_31_1,2023-10-31T01:31:29.652Z,,0,,,NaN,,,,,,false,,,,153995.5,153994.90000009537,,153994,,154007.859,8,400,,,
break_continue,html.Screen,4_31_2,2023-10-31T01:31:29.653Z,,0,,,NaN,,,,,,false,,,,153996,153995.90000009537,,153995.70000004768,,154007.859,8,400,,,
sequence,flow.Sequence,4_31,2023-10-31T01:31:29.653Z,,0,,,3154.4580000953574,completion,,,,,false,,,,153996.20000004768,153995.90000009537,150825.068,150836.60000014305,150841.442,154007.859,8,400,,,
trial,html.Screen,4_32_0,2023-10-31T01:31:33.081Z,,0,1,,3416.441000190738,response,ISIC_8353090.JPG,12,ISIC_0032130.JPG,ISIC_0032130.JPG,false,0,keypress(z),500,157424.5,157424.30000019073,153991.57,153996.20000004768,154007.859,157440.853,8,400,33,,ISIC_8353090.JPG
break,html.Screen,4_32_1,2023-10-31T01:31:33.082Z,,0,,,NaN,,,,,,false,,,,157425.5,157425.20000004768,,157424.60000014305,,157440.853,8,400,,,
break_continue,html.Screen,4_32_2,2023-10-31T01:31:33.082Z,,0,,,NaN,,,,,,false,,,,157425.90000009537,157425.80000019073,,157425.5,,157440.853,8,400,,,
sequence,flow.Sequence,4_32,2023-10-31T01:31:33.083Z,,0,,,3417.941000190738,completion,,,,,false,,,,157426,157425.80000019073,153991.57,153996.20000004768,154007.859,157440.853,8,400,,,
trial,html.Screen,4_33_0,2023-10-31T01:31:36.157Z,,0,1,,3059.2470001430484,response,ISIC_8265105.JPG,18,ISIC_0693902.JPG,ISIC_0693902.JPG,false,0,keypress(z),500,160500.5,160500.10000014305,157424.827,157426.10000014305,157440.853,160507.495,8,400,34,,ISIC_8265105.JPG
break,html.Screen,4_33_1,2023-10-31T01:31:36.159Z,,0,,,NaN,,,,,,false,,,,160502.10000014305,160501.5,,160500.80000019073,,160507.495,8,400,,,
break_continue,html.Screen,4_33_2,2023-10-31T01:31:36.159Z,,0,,,NaN,,,,,,false,,,,160502.80000019073,160502.60000014305,,160502.30000019073,,160507.495,8,400,,,
sequence,flow.Sequence,4_33,2023-10-31T01:31:36.160Z,,0,,,3061.7470001430484,completion,,,,,false,,,,160503,160502.60000014305,157424.827,157426.10000014305,157440.853,160507.495,8,400,,,
trial,html.Screen,4_34_0,2023-10-31T01:31:38.806Z,,0,1,,2641.2050000476884,response,ISIC_2445765.JPG,8,ISIC_0163812.JPG,ISIC_2445765.JPG,false,1,keypress(m),500,163149.10000014305,163148.70000004768,160491.174,160503.20000004768,160507.495,163157.138,8,400,35,,ISIC_0163812.JPG
break,html.Screen,4_34_1,2023-10-31T01:31:38.807Z,,0,,,NaN,,,,,,false,,,,163150.10000014305,163149.90000009537,,163149.30000019073,,163157.138,8,400,,,
break_continue,html.Screen,4_34_2,2023-10-31T01:31:38.807Z,,0,,,NaN,,,,,,false,,,,163150.80000019073,163150.60000014305,,163150.30000019073,,163157.138,8,400,,,
sequence,flow.Sequence,4_34,2023-10-31T01:31:38.808Z,,0,,,2643.105000143056,completion,,,,,false,,,,163151,163150.60000014305,160491.174,160503,160507.495,163157.138,8,400,,,
trial,html.Screen,4_35_0,2023-10-31T01:31:41.836Z,,0,1,,3021.8619999999937,response,ISIC_1216698.JPG,11,ISIC_4632020.JPG,ISIC_4632020.JPG,false,0,keypress(z),500,166179.40000009537,166179,163140.406,163151.20000004768,163157.138,166190.435,8,400,36,,ISIC_1216698.JPG
break,html.Screen,4_35_1,2023-10-31T01:31:41.838Z,,0,,,NaN,,,,,,false,,,,166181,166180.60000014305,,166179.60000014305,,166190.435,8,400,,,
break_continue,html.Screen,4_35_2,2023-10-31T01:31:41.838Z,,0,,,NaN,,,,,,false,,,,166181.80000019073,166181.60000014305,,166181.40000009537,,166190.435,8,400,,,
sequence,flow.Sequence,4_35,2023-10-31T01:31:41.839Z,,0,,,3024.462000143045,completion,,,,,false,,,,166182,166181.60000014305,163140.406,163151.20000004768,163157.138,166190.435,8,400,,,
trial,html.Screen,4_36_0,2023-10-31T01:31:45.242Z,,0,1,,3394.4650000953698,response,ISIC_5877410.JPG,11,ISIC_8624049.JPG,ISIC_8624049.JPG,false,0,keypress(z),500,169585.30000019073,169584.90000009537,166173.768,166182.10000014305,166190.435,169589.87,8,400,37,,ISIC_5877410.JPG
break,html.Screen,4_36_1,2023-10-31T01:31:45.244Z,,0,,,NaN,,,,,,false,,,,169587,169586.60000014305,,169585.60000014305,,169589.87,8,400,,,
break_continue,html.Screen,4_36_2,2023-10-31T01:31:45.244Z,,0,,,NaN,,,,,,false,,,,169587.70000004768,169587.5,,169587.20000004768,,169589.87,8,400,,,
sequence,flow.Sequence,4_36,2023-10-31T01:31:45.244Z,,0,,,3397.0650000000023,completion,,,,,false,,,,169587.90000009537,169587.5,166173.768,166182.10000014305,166190.435,169589.87,8,400,,,
trial,html.Screen,4_37_0,2023-10-31T01:31:48.197Z,,0,1,,2950.4300001907395,response,ISIC_2668481.JPG,4,ISIC_7697022.JPG,ISIC_2668481.JPG,false,1,keypress(m),500,172540.70000004768,172540.30000019073,169573.533,169588.10000014305,169589.87,172556.311,8,400,38,,ISIC_7697022.JPG
break,html.Screen,4_37_1,2023-10-31T01:31:48.199Z,,0,,,NaN,,,,,,false,,,,172542.20000004768,172541.90000009537,,172541,,172556.311,8,400,,,
break_continue,html.Screen,4_37_2,2023-10-31T01:31:48.199Z,,0,,,NaN,,,,,,false,,,,172542.80000019073,172542.70000004768,,172542.40000009537,,172556.311,8,400,,,
sequence,flow.Sequence,4_37,2023-10-31T01:31:48.200Z,,0,,,2952.8300000476884,completion,,,,,false,,,,172543,172542.70000004768,169573.533,169588,169589.87,172556.311,8,400,,,
trial,html.Screen,4_38_0,2023-10-31T01:31:51.359Z,,0,1,,3145.689000000013,response,ISIC_3429835.JPG,7,ISIC_2616327.JPG,ISIC_3429835.JPG,false,1,keypress(m),500,175702.30000019073,175702,172540.417,172543.20000004768,172556.311,175728.532,8,400,39,,ISIC_2616327.JPG
break,html.Screen,4_38_1,2023-10-31T01:31:51.360Z,,0,,,NaN,,,,,,false,,,,175703.30000019073,175703.10000014305,,175702.5,,175728.532,8,400,,,
break_continue,html.Screen,4_38_2,2023-10-31T01:31:51.360Z,,0,,,NaN,,,,,,false,,,,175703.80000019073,175703.60000014305,,175703.5,,175728.532,8,400,,,
sequence,flow.Sequence,4_38,2023-10-31T01:31:51.361Z,,0,,,3147.289000143064,completion,,,,,false,,,,175704.10000014305,175703.60000014305,172540.417,172543.10000014305,172556.311,175728.532,8,400,,,
trial,html.Screen,4_39_0,2023-10-31T01:31:56.907Z,,0,1,,5521.768000190728,response,ISIC_0031118.JPG,7,ISIC_2740756.JPG,ISIC_0031118.JPG,false,1,keypress(m),500,181250.70000004768,181250.30000019073,175706.282,175704.20000004768,175728.532,181255.656,8,400,40,,ISIC_2740756.JPG
break,html.Screen,4_39_1,2023-10-31T01:31:56.909Z,,0,,,NaN,,,,,,false,,,,181252.40000009537,181251.80000019073,,181251,,181255.656,8,400,,,
break_continue,html.Screen,4_39_2,2023-10-31T01:31:56.910Z,,0,,,NaN,,,,,,false,,,,181253.10000014305,181252.90000009537,,181252.60000014305,,181255.656,8,400,,,
sequence,flow.Sequence,4_39,2023-10-31T01:31:56.910Z,,0,,,5524.368000095361,completion,,,,,false,,,,181253.40000009537,181252.90000009537,175706.282,175704.10000014305,175728.532,181255.656,8,400,,,
trial,html.Screen,4_40_0,2023-10-31T01:32:00.328Z,,0,1,,3415.1440001907467,response,ISIC_7301963.JPG,9,ISIC_1975042.JPG,ISIC_1975042.JPG,false,0,keypress(z),500,184671.30000019073,184670.80000019073,181239.708,181253.60000014305,181255.656,184688.814,8,400,41,,ISIC_7301963.JPG
break,html.Screen,4_40_1,2023-10-31T01:32:00.330Z,,0,,,NaN,,,,,,false,,,,184672.60000014305,184672.30000019073,,184671.60000014305,,184688.814,8,400,,,
break_continue,html.Screen,4_40_2,2023-10-31T01:32:00.330Z,,0,,,NaN,,,,,,false,,,,184673.60000014305,184673.30000019073,,184672.80000019073,,184688.814,8,400,,,
sequence,flow.Sequence,4_40,2023-10-31T01:32:00.331Z,,0,,,3417.6440001907467,completion,,,,,false,,,,184673.90000009537,184673.30000019073,181239.708,181253.40000009537,181255.656,184688.814,8,400,,,
trial,html.Screen,4_41_0,2023-10-31T01:32:04.288Z,,0,1,,3942.185999999987,response,ISIC_3382231.JPG,7,ISIC_6990973.JPG,ISIC_3382231.JPG,false,1,keypress(m),500,188631.30000019073,188631,184672.597,184674,184688.814,188655.035,8,400,42,,ISIC_6990973.JPG
break,html.Screen,4_41_1,2023-10-31T01:32:04.290Z,,0,,,NaN,,,,,,false,,,,188632.60000014305,188632.30000019073,,188631.60000014305,,188655.035,8,400,,,
break_continue,html.Screen,4_41_2,2023-10-31T01:32:04.290Z,,0,,,NaN,,,,,,false,,,,188633.20000004768,188633,,188632.80000019073,,188655.035,8,400,,,
sequence,flow.Sequence,4_41,2023-10-31T01:32:04.290Z,,0,,,3944.185999999987,completion,,,,,false,,,,188633.40000009537,188633,184672.597,184674,184688.814,188655.035,8,400,,,
trial,html.Screen,4_42_0,2023-10-31T01:32:07.706Z,,0,1,,3393.16500004768,response,ISIC_8207974.JPG,5,ISIC_0024980.JPG,ISIC_0024980.JPG,false,0,keypress(z),500,192048.60000014305,192048.20000004768,188621.978,188633.60000014305,188655.035,192054.875,8,400,43,,ISIC_8207974.JPG
break,html.Screen,4_42_1,2023-10-31T01:32:07.707Z,,0,,,NaN,,,,,,false,,,,192049.90000009537,192049.60000014305,,192048.90000009537,,192054.875,8,400,,,
break_continue,html.Screen,4_42_2,2023-10-31T01:32:07.707Z,,0,,,NaN,,,,,,false,,,,192050.5,192050.40000009537,,192050.10000014305,,192054.875,8,400,,,
sequence,flow.Sequence,4_42,2023-10-31T01:32:07.708Z,,0,,,3395.365000095364,completion,,,,,false,,,,192050.70000004768,192050.40000009537,188621.978,188633.60000014305,188655.035,192054.875,8,400,,,
trial,html.Screen,4_43_0,2023-10-31T01:32:10.527Z,,0,1,,2815.225000143051,response,ISIC_0024208.JPG,9,ISIC_3836576.JPG,ISIC_3836576.JPG,false,0,keypress(z),500,194870.40000009537,194870.10000014305,192038.702,192050.90000009537,192054.875,194888.273,8,400,44,,ISIC_0024208.JPG
break,html.Screen,4_43_1,2023-10-31T01:32:10.529Z,,0,,,NaN,,,,,,false,,,,194872.10000014305,194871.40000009537,,194870.80000019073,,194888.273,8,400,,,
break_continue,html.Screen,4_43_2,2023-10-31T01:32:10.530Z,,0,,,NaN,,,,,,false,,,,194872.70000004768,194872.5,,194872.20000004768,,194888.273,8,400,,,
sequence,flow.Sequence,4_43,2023-10-31T01:32:10.530Z,,0,,,2817.625,completion,,,,,false,,,,194872.90000009537,194872.5,192038.702,192050.90000009537,192054.875,194888.273,8,400,,,
trial,html.Screen,4_44_0,2023-10-31T01:32:14.952Z,,0,1,,4405.927000047697,response,ISIC_2585066.JPG,8,ISIC_4477599.JPG,ISIC_4477599.JPG,false,0,keypress(z),500,199294.70000004768,199294.20000004768,194871.434,194873.10000014305,194888.273,199304.258,8,400,45,,ISIC_2585066.JPG
break,html.Screen,4_44_1,2023-10-31T01:32:14.953Z,,0,,,NaN,,,,,,false,,,,199295.60000014305,199295.40000009537,,199294.90000009537,,199304.258,8,400,,,
break_continue,html.Screen,4_44_2,2023-10-31T01:32:14.953Z,,0,,,NaN,,,,,,false,,,,199296.10000014305,199296,,199295.80000019073,,199304.258,8,400,,,
sequence,flow.Sequence,4_44,2023-10-31T01:32:14.953Z,,0,,,4407.7270000000135,completion,,,,,false,,,,199296.30000019073,199296,194871.434,194873,194888.273,199304.258,8,400,,,
trial,html.Screen,4_45_0,2023-10-31T01:32:18.515Z,,0,1,,3553.2419999999984,response,ISIC_0683389.JPG,22,ISIC_8635849.JPG,ISIC_8635849.JPG,false,0,keypress(z),500,202857.70000004768,202857.5,199287.772,199297.70000004768,199304.258,202870.496,8,400,46,,ISIC_0683389.JPG
break,html.Screen,4_45_1,2023-10-31T01:32:18.516Z,,0,,,NaN,,,,,,false,,,,202859.10000014305,202858.70000004768,,202858,,202870.496,8,400,,,
break_continue,html.Screen,4_45_2,2023-10-31T01:32:18.516Z,,0,,,NaN,,,,,,false,,,,202859.60000014305,202859.40000009537,,202859.20000004768,,202870.496,8,400,,,
sequence,flow.Sequence,4_45,2023-10-31T01:32:18.517Z,,0,,,3555.142000095366,completion,,,,,false,,,,202859.70000004768,202859.40000009537,199287.772,199297.70000004768,199304.258,202870.496,8,400,,,
trial,html.Screen,4_46_0,2023-10-31T01:32:21.881Z,,0,1,,3353.5039999999863,response,ISIC_1805602.JPG,5,ISIC_0032369.JPG,ISIC_1805602.JPG,false,1,keypress(m),500,206224.30000019073,206224,202854.251,202859.90000009537,202870.496,206236.963,8,400,47,,ISIC_0032369.JPG
break,html.Screen,4_46_1,2023-10-31T01:32:21.883Z,,0,,,NaN,,,,,,false,,,,206225.80000019073,206225.20000004768,,206224.60000014305,,206236.963,8,400,,,
break_continue,html.Screen,4_46_2,2023-10-31T01:32:21.883Z,,0,,,NaN,,,,,,false,,,,206226.40000009537,206226.30000019073,,206226,,206236.963,8,400,,,
sequence,flow.Sequence,4_46,2023-10-31T01:32:21.884Z,,0,,,3355.804000190721,completion,,,,,false,,,,206226.60000014305,206226.30000019073,202854.251,202859.90000009537,202870.496,206236.963,8,400,,,
trial,html.Screen,4_47_0,2023-10-31T01:32:24.977Z,,0,1,,3082.4370000953786,response,ISIC_5994007.JPG,28,ISIC_9160614.JPG,ISIC_5994007.JPG,false,1,keypress(m),500,209319.70000004768,209319.40000009537,206220.372,206226.80000019073,206236.963,209337.08,8,400,48,,ISIC_9160614.JPG
break,html.Screen,4_47_1,2023-10-31T01:32:24.978Z,,0,,,NaN,,,,,,false,,,,209321.10000014305,209320.80000019073,,209320,,209337.08,8,400,,,
break_continue,html.Screen,4_47_2,2023-10-31T01:32:24.978Z,,0,,,NaN,,,,,,false,,,,209321.60000014305,209321.40000009537,,209321.10000014305,,209337.08,8,400,,,
sequence,flow.Sequence,4_47,2023-10-31T01:32:24.979Z,,0,,,3084.4370000953786,completion,,,,,false,,,,209321.70000004768,209321.40000009537,206220.372,206226.70000004768,206236.963,209337.08,8,400,,,
trial,html.Screen,4_48_0,2023-10-31T01:32:28.716Z,,0,1,,3721.3200000953802,response,ISIC_1590725.JPG,7,ISIC_0000423.JPG,ISIC_0000423.JPG,false,0,keypress(z),500,213058.60000014305,213058.40000009537,209303.559,209321.90000009537,209337.08,213069.75,8,400,49,,ISIC_1590725.JPG
break,html.Screen,4_48_1,2023-10-31T01:32:28.717Z,,0,,,NaN,,,,,,false,,,,213059.90000009537,213059.40000009537,,213058.80000019073,,213069.75,8,400,,,
break_continue,html.Screen,4_48_2,2023-10-31T01:32:28.717Z,,0,,,NaN,,,,,,false,,,,213060.40000009537,213060.30000019073,,213060,,213069.75,8,400,,,
sequence,flow.Sequence,4_48,2023-10-31T01:32:28.717Z,,0,,,3723.2200001907477,completion,,,,,false,,,,213060.60000014305,213060.30000019073,209303.559,209321.80000019073,209337.08,213069.75,8,400,,,
trial,html.Screen,4_49_0,2023-10-31T01:32:32.661Z,,0,1,,3934.1500000953674,response,ISIC_5284935.JPG,4,ISIC_0056047.JPG,ISIC_5284935.JPG,false,1,keypress(m),500,217004.20000004768,217003.90000009537,213053.443,213060.70000004768,213069.75,217019.523,8,400,50,,ISIC_0056047.JPG
break,html.Screen,4_49_1,2023-10-31T01:32:42.661Z,,0,,,9999.12400000001,timeout,,,,,false,,,,227004.40000009537,227002.267,217002.922,217004.40000009537,217019.523,227018.647,8,400,,,
break_continue,html.Screen,4_49_2,2023-10-31T01:32:43.731Z,,0,,,1035.1530001907377,response,,,,,false,continue,keypress(Space),,228074.30000019073,228053.80000019073,227002.267,227004.70000004768,227018.647,228085.346,8,400,,,
sequence,flow.Sequence,4_49,2023-10-31T01:32:43.732Z,,0,,,14984.050000190735,completion,,,,,false,,,,228074.60000014305,228053.80000019073,213053.443,213060.70000004768,213069.75,228085.346,8,400,,,
trial,html.Screen,4_50_0,2023-10-31T01:32:47.159Z,,0,2,,3416.3540000476933,response,ISIC_0010730.JPG,8,ISIC_0064785.JPG,ISIC_0064785.JPG,false,0,keypress(z),500,231502.10000014305,231501.70000004768,228068.569,228074.80000019073,228085.346,231518.342,8,400,1,,ISIC_0010730.JPG
break,html.Screen,4_50_1,2023-10-31T01:32:47.161Z,,0,,,NaN,,,,,,false,,,,231503.80000019073,231503.40000009537,,231502.40000009537,,231518.342,8,400,,,
break_continue,html.Screen,4_50_2,2023-10-31T01:32:47.162Z,,0,,,NaN,,,,,,false,,,,231504.80000019073,231504.5,,231504,,231518.342,8,400,,,
sequence,flow.Sequence,4_50,2023-10-31T01:32:47.162Z,,0,,,3419.1540000000095,completion,,,,,false,,,,231505,231504.5,228068.569,228074.80000019073,228085.346,231518.342,8,400,,,
trial,html.Screen,4_51_0,2023-10-31T01:32:49.872Z,,0,2,,2696.258000143047,response,ISIC_5921777.JPG,8,ISIC_8957571.JPG,ISIC_5921777.JPG,false,1,keypress(m),500,234215,234214.60000014305,231501.879,231505.20000004768,231518.342,234218.136,8,400,2,,ISIC_8957571.JPG
break,html.Screen,4_51_1,2023-10-31T01:32:49.873Z,,0,,,NaN,,,,,,false,,,,234216.40000009537,234216.10000014305,,234215.20000004768,,234218.136,8,400,,,
break_continue,html.Screen,4_51_2,2023-10-31T01:32:49.874Z,,0,,,NaN,,,,,,false,,,,234216.90000009537,234216.70000004768,,234216.5,,234218.136,8,400,,,
sequence,flow.Sequence,4_51,2023-10-31T01:32:49.874Z,,0,,,2698.3580000476795,completion,,,,,false,,,,234217.10000014305,234216.70000004768,231501.879,231505.10000014305,231518.342,234218.136,8,400,,,
trial,html.Screen,4_52_0,2023-10-31T01:32:53.786Z,,0,2,,3910.064000047685,response,ISIC_0056799.JPG,10,ISIC_4453506.JPG,ISIC_0056799.JPG,false,1,keypress(m),500,238128.80000019073,238128.20000004768,234201.37,234217.30000019073,234218.136,238134.522,8,400,3,,ISIC_4453506.JPG
break,html.Screen,4_52_1,2023-10-31T01:32:53.788Z,,0,,,NaN,,,,,,false,,,,238130.80000019073,238130.20000004768,,238129.10000014305,,238134.522,8,400,,,
break_continue,html.Screen,4_52_2,2023-10-31T01:32:53.788Z,,0,,,NaN,,,,,,false,,,,238131.60000014305,238131.40000009537,,238131,,238134.522,8,400,,,
sequence,flow.Sequence,4_52,2023-10-31T01:32:53.789Z,,0,,,3913.264000095369,completion,,,,,false,,,,238131.80000019073,238131.40000009537,234201.37,234217.20000004768,234218.136,238134.522,8,400,,,
trial,html.Screen,4_53_0,2023-10-31T01:33:05.271Z,,0,2,,11516.377000000008,timeout,ISIC_1850196.JPG,5,ISIC_0027663.JPG,,false,,,500,249618.90000009537,249618.40000009537,238118.279,238132,238134.522,249650.899,8,400,4,,
break,html.Screen,4_53_1,2023-10-31T01:33:05.272Z,,0,,,NaN,,,,,,false,,,,249620.10000014305,249619.80000019073,,249619.20000004768,,249650.899,8,400,,,
break_continue,html.Screen,4_53_2,2023-10-31T01:33:05.273Z,,0,,,NaN,,,,,,false,,,,249620.60000014305,249620.5,,249620.30000019073,,249650.899,8,400,,,
sequence,flow.Sequence,4_53,2023-10-31T01:33:05.273Z,,0,,,11485.978000000003,completion,,,,,false,,,,249620.80000019073,249620.5,238118.279,238131.90000009537,238134.522,249650.899,8,400,,,
trial,html.Screen,4_54_0,2023-10-31T01:33:08.956Z,,0,2,,3652.801000047679,response,ISIC_4459125.JPG,14,ISIC_0054377.JPG,ISIC_0054377.JPG,false,0,keypress(z),500,253304.10000014305,253303.70000004768,249633.396,249621,249650.899,253316.747,8,400,5,,ISIC_4459125.JPG
break,html.Screen,4_54_1,2023-10-31T01:33:08.957Z,,0,,,NaN,,,,,,false,,,,253305.60000014305,253305,,253304.40000009537,,253316.747,8,400,,,
break_continue,html.Screen,4_54_2,2023-10-31T01:33:08.958Z,,0,,,NaN,,,,,,false,,,,253306.20000004768,253306.10000014305,,253305.80000019073,,253316.747,8,400,,,
sequence,flow.Sequence,4_54,2023-10-31T01:33:08.958Z,,0,,,3655.2010001430463,completion,,,,,false,,,,253306.40000009537,253306.10000014305,249633.396,249620.90000009537,249650.899,253316.747,8,400,,,
trial,html.Screen,4_55_0,2023-10-31T01:33:13.834Z,,0,2,,4865.053000190732,response,ISIC_0026470.JPG,5,ISIC_0029363.JPG,ISIC_0029363.JPG,false,0,keypress(z),500,258182.10000014305,258181.80000019073,253300.264,253306.60000014305,253316.747,258199.476,8,400,6,,ISIC_0026470.JPG
break,html.Screen,4_55_1,2023-10-31T01:33:13.835Z,,0,,,NaN,,,,,,false,,,,258183.30000019073,258183,,258182.40000009537,,258199.476,8,400,,,
break_continue,html.Screen,4_55_2,2023-10-31T01:33:13.836Z,,0,,,NaN,,,,,,false,,,,258183.80000019073,258183.60000014305,,258183.40000009537,,258199.476,8,400,,,
sequence,flow.Sequence,4_55,2023-10-31T01:33:13.836Z,,0,,,4866.853000143048,completion,,,,,false,,,,258184,258183.60000014305,253300.264,253306.5,253316.747,258199.476,8,400,,,
trial,html.Screen,4_56_0,2023-10-31T01:33:18.672Z,,0,2,,4820.024000000005,response,ISIC_3459981.JPG,38,ISIC_3213469.JPG,ISIC_3459981.JPG,false,1,keypress(m),500,263019.80000019073,263019.5,258183.092,258184.10000014305,258199.476,263032.332,8,400,7,,ISIC_3213469.JPG
break,html.Screen,4_56_1,2023-10-31T01:33:18.673Z,,0,,,NaN,,,,,,false,,,,263021,263020.7000000477,,263020.10000014305,,263032.332,8,400,,,
break_continue,html.Screen,4_56_2,2023-10-31T01:33:18.673Z,,0,,,NaN,,,,,,false,,,,263021.5,263021.30000019073,,263021.2000000477,,263032.332,8,400,,,
sequence,flow.Sequence,4_56,2023-10-31T01:33:18.674Z,,0,,,4821.82400019074,completion,,,,,false,,,,263021.60000014305,263021.30000019073,258183.092,258184.10000014305,258199.476,263032.332,8,400,,,
trial,html.Screen,4_57_0,2023-10-31T01:33:23.495Z,,0,2,,4810.768000143056,response,ISIC_4536407.JPG,6,ISIC_0070463.JPG,ISIC_0070463.JPG,false,0,keypress(z),500,267843.40000009537,267843.10000014305,263016.287,263021.90000009537,263032.332,267848.587,8,400,8,,ISIC_4536407.JPG
break,html.Screen,4_57_1,2023-10-31T01:33:23.497Z,,0,,,NaN,,,,,,false,,,,267844.80000019073,267844.40000009537,,267843.7000000477,,267848.587,8,400,,,
break_continue,html.Screen,4_57_2,2023-10-31T01:33:23.497Z,,0,,,NaN,,,,,,false,,,,267845.40000009537,267845.30000019073,,267845,,267848.587,8,400,,,
sequence,flow.Sequence,4_57,2023-10-31T01:33:23.497Z,,0,,,4812.96800019074,completion,,,,,false,,,,267845.60000014305,267845.30000019073,263016.287,263021.80000019073,263032.332,267848.587,8,400,,,
trial,html.Screen,4_58_0,2023-10-31T01:33:26.944Z,,0,2,,3443.4130000000005,response,ISIC_0061244.JPG,26,ISIC_0000462.JPG,ISIC_0000462.JPG,false,0,keypress(z),500,271292.5,271292,267832.625,267845.7000000477,267848.587,271298.33,8,400,9,,ISIC_0061244.JPG
break,html.Screen,4_58_1,2023-10-31T01:33:26.947Z,,0,,,NaN,,,,,,false,,,,271294.7000000477,271293.90000009537,,271292.90000009537,,271298.33,8,400,,,
break_continue,html.Screen,4_58_2,2023-10-31T01:33:26.947Z,,0,,,NaN,,,,,,false,,,,271295.5,271295.30000019073,,271295,,271298.33,8,400,,,
sequence,flow.Sequence,4_58,2023-10-31T01:33:26.948Z,,0,,,3446.7130001907353,completion,,,,,false,,,,271295.80000019073,271295.30000019073,267832.625,267845.7000000477,267848.587,271298.33,8,400,,,
trial,html.Screen,4_59_0,2023-10-31T01:33:33.287Z,,0,2,,6336.470000190719,response,ISIC_7633960.JPG,12,ISIC_0005291.JPG,ISIC_7633960.JPG,false,1,keypress(m),500,277635.2000000477,277634.80000019073,271284.213,271296,271298.33,277647.745,8,400,10,,ISIC_0005291.JPG
break,html.Screen,4_59_1,2023-10-31T01:33:33.288Z,,0,,,NaN,,,,,,false,,,,277636.5,277636,,277635.40000009537,,277647.745,8,400,,,
break_continue,html.Screen,4_59_2,2023-10-31T01:33:33.289Z,,0,,,NaN,,,,,,false,,,,277637.10000014305,277636.90000009537,,277636.7000000477,,277647.745,8,400,,,
sequence,flow.Sequence,4_59,2023-10-31T01:33:33.289Z,,0,,,6338.570000095351,completion,,,,,false,,,,277637.5,277636.90000009537,271284.213,271296,271298.33,277647.745,8,400,,,
trial,html.Screen,4_60_0,2023-10-31T01:33:36.753Z,,0,2,,3452.855000143056,response,ISIC_9596721.JPG,10,ISIC_9096302.JPG,ISIC_9596721.JPG,false,1,keypress(m),500,281101,281100.60000014305,277631.284,277637.60000014305,277647.745,281114.452,8,400,11,,ISIC_9096302.JPG
break,html.Screen,4_60_1,2023-10-31T01:33:36.755Z,,0,,,NaN,,,,,,false,,,,281102.7000000477,281102,,281101.30000019073,,281114.452,8,400,,,
break_continue,html.Screen,4_60_2,2023-10-31T01:33:36.755Z,,0,,,NaN,,,,,,false,,,,281103.40000009537,281103.30000019073,,281103,,281114.452,8,400,,,
sequence,flow.Sequence,4_60,2023-10-31T01:33:36.756Z,,0,,,3455.5550001907395,completion,,,,,false,,,,281103.7000000477,281103.30000019073,277631.284,277637.5,277647.745,281114.452,8,400,,,
trial,html.Screen,4_61_0,2023-10-31T01:33:40.906Z,,0,2,,4139.448000095377,response,ISIC_0064026.JPG,25,ISIC_1612350.JPG,ISIC_0064026.JPG,false,1,keypress(m),500,285254.2000000477,285253.90000009537,281098.045,281103.80000019073,281114.452,285264.262,8,400,12,,ISIC_1612350.JPG
break,html.Screen,4_61_1,2023-10-31T01:33:40.908Z,,0,,,NaN,,,,,,false,,,,285255.80000019073,285255.30000019073,,285254.60000014305,,285264.262,8,400,,,
break_continue,html.Screen,4_61_2,2023-10-31T01:33:40.908Z,,0,,,NaN,,,,,,false,,,,285256.5,285256.40000009537,,285256,,285264.262,8,400,,,
sequence,flow.Sequence,4_61,2023-10-31T01:33:40.909Z,,0,,,4141.948000095377,completion,,,,,false,,,,285256.80000019073,285256.40000009537,281098.045,281103.80000019073,281114.452,285264.262,8,400,,,
trial,html.Screen,4_62_0,2023-10-31T01:33:44.438Z,,0,2,,3521.6380000953795,response,ISIC_3300710.JPG,8,ISIC_0025418.JPG,ISIC_3300710.JPG,false,1,keypress(m),500,288786.10000014305,288785.90000009537,285247.762,285257,285264.262,288797.156,8,400,13,,ISIC_0025418.JPG
break,html.Screen,4_62_1,2023-10-31T01:33:44.439Z,,0,,,NaN,,,,,,false,,,,288786.90000009537,288786.80000019073,,288786.30000019073,,288797.156,8,400,,,
break_continue,html.Screen,4_62_2,2023-10-31T01:33:44.439Z,,0,,,NaN,,,,,,false,,,,288787.2000000477,288787.10000014305,,288787,,288797.156,8,400,,,
sequence,flow.Sequence,4_62,2023-10-31T01:33:44.439Z,,0,,,3522.8380001430633,completion,,,,,false,,,,288787.30000019073,288787.10000014305,285247.762,285257,285264.262,288797.156,8,400,,,
trial,html.Screen,4_63_0,2023-10-31T01:33:49.741Z,,0,2,,5291.74400009535,response,ISIC_0068168.JPG,28,ISIC_0015132.JPG,ISIC_0015132.JPG,false,0,keypress(z),500,294089.2000000477,294088.90000009537,288780.841,288787.30000019073,288797.156,294096.761,8,400,14,,ISIC_0068168.JPG
break,html.Screen,4_63_1,2023-10-31T01:33:49.743Z,,0,,,NaN,,,,,,false,,,,294090.90000009537,294090.30000019073,,294089.5,,294096.761,8,400,,,
break_continue,html.Screen,4_63_2,2023-10-31T01:33:49.744Z,,0,,,NaN,,,,,,false,,,,294091.80000019073,294091.5,,294091.2000000477,,294096.761,8,400,,,
sequence,flow.Sequence,4_63,2023-10-31T01:33:49.744Z,,0,,,5294.343999999983,completion,,,,,false,,,,294092,294091.5,288780.841,288787.30000019073,288797.156,294096.761,8,400,,,
trial,html.Screen,4_64_0,2023-10-31T01:33:54.616Z,,0,2,,4867.439000047685,response,ISIC_9571842.JPG,7,ISIC_0001103.JPG,ISIC_9571842.JPG,false,1,keypress(m),500,298964.60000014305,298964.2000000477,294080.437,294092.30000019073,294096.761,298979.495,8,400,15,,ISIC_0001103.JPG
break,html.Screen,4_64_1,2023-10-31T01:33:54.618Z,,0,,,NaN,,,,,,false,,,,298966,298965.5,,298964.90000009537,,298979.495,8,400,,,
break_continue,html.Screen,4_64_2,2023-10-31T01:33:54.619Z,,0,,,NaN,,,,,,false,,,,298966.90000009537,298966.7000000477,,298966.30000019073,,298979.495,8,400,,,
sequence,flow.Sequence,4_64,2023-10-31T01:33:54.619Z,,0,,,4869.939000047685,completion,,,,,false,,,,298967.10000014305,298966.7000000477,294080.437,294092.30000019073,294096.761,298979.495,8,400,,,
trial,html.Screen,4_65_0,2023-10-31T01:33:57.849Z,,0,2,,3222.7050000476884,response,ISIC_0003122.JPG,9,ISIC_9301809.JPG,ISIC_0003122.JPG,false,1,keypress(m),500,302202.80000019073,302202.2000000477,298963.261,298967.30000019073,298979.495,302212.511,8,400,16,,ISIC_9301809.JPG
break,html.Screen,4_65_1,2023-10-31T01:33:57.851Z,,0,,,NaN,,,,,,false,,,,302204.30000019073,302203.90000009537,,302203.10000014305,,302212.511,8,400,,,
break_continue,html.Screen,4_65_2,2023-10-31T01:33:57.852Z,,0,,,NaN,,,,,,false,,,,302205.2000000477,302205,,302204.40000009537,,302212.511,8,400,,,
sequence,flow.Sequence,4_65,2023-10-31T01:33:57.852Z,,0,,,3225.5050000000047,completion,,,,,false,,,,302205.5,302205,298963.261,298967.2000000477,298979.495,302212.511,8,400,,,
trial,html.Screen,4_66_0,2023-10-31T01:34:01.936Z,,0,2,,4076.889000095369,response,ISIC_6978997.JPG,19,ISIC_2228511.JPG,ISIC_6978997.JPG,false,1,keypress(m),500,306289.80000019073,306289.40000009537,302196.153,302205.80000019073,302212.511,306295.532,8,400,17,,ISIC_2228511.JPG
break,html.Screen,4_66_1,2023-10-31T01:34:01.938Z,,0,,,NaN,,,,,,false,,,,306291.30000019073,306290.7000000477,,306290.2000000477,,306295.532,8,400,,,
break_continue,html.Screen,4_66_2,2023-10-31T01:34:01.938Z,,0,,,NaN,,,,,,false,,,,306291.90000009537,306291.80000019073,,306291.5,,306295.532,8,400,,,
sequence,flow.Sequence,4_66,2023-10-31T01:34:01.939Z,,0,,,4079.2890001907363,completion,,,,,false,,,,306292.10000014305,306291.80000019073,302196.153,302205.7000000477,302212.511,306295.532,8,400,,,
trial,html.Screen,4_67_0,2023-10-31T01:34:06.631Z,,0,2,,4688.068000143045,response,ISIC_0027941.JPG,8,ISIC_5247508.JPG,ISIC_5247508.JPG,false,0,keypress(z),500,310984,310983.60000014305,306278.953,306292.30000019073,306295.532,310995.088,8,400,18,,ISIC_0027941.JPG
break,html.Screen,4_67_1,2023-10-31T01:34:06.632Z,,0,,,NaN,,,,,,false,,,,310985.7000000477,310985.10000014305,,310984.30000019073,,310995.088,8,400,,,
break_continue,html.Screen,4_67_2,2023-10-31T01:34:06.633Z,,0,,,NaN,,,,,,false,,,,310986.5,310986.30000019073,,310986,,310995.088,8,400,,,
sequence,flow.Sequence,4_67,2023-10-31T01:34:06.633Z,,0,,,4690.768000190728,completion,,,,,false,,,,310986.80000019073,310986.30000019073,306278.953,306292.30000019073,306295.532,310995.088,8,400,,,
trial,html.Screen,4_68_0,2023-10-31T01:34:10.914Z,,0,2,,4272.412000000011,response,ISIC_7558912.JPG,22,ISIC_7218890.JPG,ISIC_7558912.JPG,false,1,keypress(m),500,315267.80000019073,315267.5,310978.73,310986.90000009537,310995.088,315278.082,8,400,19,,ISIC_7218890.JPG
break,html.Screen,4_68_1,2023-10-31T01:34:10.916Z,,0,,,NaN,,,,,,false,,,,315269.2000000477,315268.80000019073,,315268.10000014305,,315278.082,8,400,,,
break_continue,html.Screen,4_68_2,2023-10-31T01:34:10.916Z,,0,,,NaN,,,,,,false,,,,315269.90000009537,315269.7000000477,,315269.40000009537,,315278.082,8,400,,,
sequence,flow.Sequence,4_68,2023-10-31T01:34:10.917Z,,0,,,4274.612000047695,completion,,,,,false,,,,315270.10000014305,315269.7000000477,310978.73,310986.80000019073,310995.088,315278.082,8,400,,,
trial,html.Screen,4_69_0,2023-10-31T01:34:16.296Z,,0,2,,5370.518000143056,response,ISIC_1124434.JPG,11,ISIC_0067308.JPG,ISIC_1124434.JPG,false,1,keypress(m),500,320649.2000000477,320648.60000014305,315261.696,315270.2000000477,315278.082,320661.2,8,400,20,,ISIC_0067308.JPG
break,html.Screen,4_69_1,2023-10-31T01:34:16.298Z,,0,,,NaN,,,,,,false,,,,320651.30000019073,320650.7000000477,,320649.5,,320661.2,8,400,,,
break_continue,html.Screen,4_69_2,2023-10-31T01:34:16.298Z,,0,,,NaN,,,,,,false,,,,320651.90000009537,320651.80000019073,,320651.5,,320661.2,8,400,,,
sequence,flow.Sequence,4_69,2023-10-31T01:34:16.299Z,,0,,,5373.71800019074,completion,,,,,false,,,,320652.10000014305,320651.80000019073,315261.696,315270.2000000477,315278.082,320661.2,8,400,,,
trial,html.Screen,4_70_0,2023-10-31T01:34:20.659Z,,0,2,,4350.600000190723,response,ISIC_0065727.JPG,7,ISIC_7798358.JPG,ISIC_0065727.JPG,false,1,keypress(m),500,325012.40000009537,325011.80000019073,320644.584,320652.30000019073,320661.2,325027.519,8,400,21,,ISIC_7798358.JPG
break,html.Screen,4_70_1,2023-10-31T01:34:20.661Z,,0,,,NaN,,,,,,false,,,,325014.10000014305,325013.7000000477,,325012.7000000477,,325027.519,8,400,,,
break_continue,html.Screen,4_70_2,2023-10-31T01:34:20.661Z,,0,,,NaN,,,,,,false,,,,325014.80000019073,325014.60000014305,,325014.30000019073,,325027.519,8,400,,,
sequence,flow.Sequence,4_70,2023-10-31T01:34:20.662Z,,0,,,4353.4000001430395,completion,,,,,false,,,,325015,325014.60000014305,320644.584,320652.30000019073,320661.2,325027.519,8,400,,,
trial,html.Screen,4_71_0,2023-10-31T01:34:25.760Z,,0,2,,5085.58100014308,response,ISIC_5281908.JPG,10,ISIC_0060962.JPG,ISIC_5281908.JPG,false,1,keypress(m),500,330113.5,330113.10000014305,325010.672,325015.10000014305,325027.519,330127.074,8,400,22,,ISIC_0060962.JPG
break,html.Screen,4_71_1,2023-10-31T01:34:25.762Z,,0,,,NaN,,,,,,false,,,,330115,330114.5,,330113.80000019073,,330127.074,8,400,,,
break_continue,html.Screen,4_71_2,2023-10-31T01:34:25.762Z,,0,,,NaN,,,,,,false,,,,330115.80000019073,330115.5,,330115.2000000477,,330127.074,8,400,,,
sequence,flow.Sequence,4_71,2023-10-31T01:34:25.763Z,,0,,,5087.981000000029,completion,,,,,false,,,,330115.90000009537,330115.5,325010.672,325015.10000014305,325027.519,330127.074,8,400,,,
trial,html.Screen,4_72_0,2023-10-31T01:34:29.001Z,,0,2,,3227.2260001907125,response,ISIC_2555494.JPG,12,ISIC_9618489.JPG,ISIC_9618489.JPG,false,0,keypress(z),500,333354.7000000477,333354.30000019073,330110.817,330116.10000014305,330127.074,333359.986,8,400,23,,ISIC_2555494.JPG
break,html.Screen,4_72_1,2023-10-31T01:34:29.003Z,,0,,,NaN,,,,,,false,,,,333356,333355.60000014305,,333354.90000009537,,333359.986,8,400,,,
break_continue,html.Screen,4_72_2,2023-10-31T01:34:29.003Z,,0,,,NaN,,,,,,false,,,,333356.60000014305,333356.5,,333356.2000000477,,333359.986,8,400,,,
sequence,flow.Sequence,4_72,2023-10-31T01:34:29.003Z,,0,,,3229.4259999999776,completion,,,,,false,,,,333356.90000009537,333356.5,330110.817,330116,330127.074,333359.986,8,400,,,
trial,html.Screen,4_73_0,2023-10-31T01:34:33.535Z,,0,2,,4528.214000047708,response,ISIC_2885086.JPG,2,ISIC_0025267.JPG,ISIC_0025267.JPG,false,0,keypress(z),500,337888.5,337888.2000000477,333344.106,333357,333359.986,337892.997,8,400,24,,ISIC_2885086.JPG
break,html.Screen,4_73_1,2023-10-31T01:34:33.537Z,,0,,,NaN,,,,,,false,,,,337889.90000009537,337889.5,,337888.80000019073,,337892.997,8,400,,,
break_continue,html.Screen,4_73_2,2023-10-31T01:34:33.537Z,,0,,,NaN,,,,,,false,,,,337890.60000014305,337890.40000009537,,337890.10000014305,,337892.997,8,400,,,
sequence,flow.Sequence,4_73,2023-10-31T01:34:33.537Z,,0,,,4530.414000095392,completion,,,,,false,,,,337890.80000019073,337890.40000009537,333344.106,333356.90000009537,333359.986,337892.997,8,400,,,
trial,html.Screen,4_74_0,2023-10-31T01:34:36.693Z,,0,2,,3153.4030000953935,response,ISIC_0030333.JPG,11,ISIC_3161477.JPG,ISIC_0030333.JPG,false,1,keypress(m),500,341046.80000019073,341046.40000009537,337876.712,337890.90000009537,337892.997,341059.363,8,400,25,,ISIC_3161477.JPG
break,html.Screen,4_74_1,2023-10-31T01:34:36.695Z,,0,,,NaN,,,,,,false,,,,341048.5,341048.10000014305,,341047.2000000477,,341059.363,8,400,,,
break_continue,html.Screen,4_74_2,2023-10-31T01:34:36.696Z,,0,,,NaN,,,,,,false,,,,341049.2000000477,341049,,341048.7000000477,,341059.363,8,400,,,
sequence,flow.Sequence,4_74,2023-10-31T01:34:36.696Z,,0,,,3156.003000000026,completion,,,,,false,,,,341049.40000009537,341049,337876.712,337890.90000009537,337892.997,341059.363,8,400,,,
trial,html.Screen,4_75_0,2023-10-31T01:34:41.451Z,,0,2,,4744.337000047672,response,ISIC_0004352.JPG,22,ISIC_5315486.JPG,ISIC_5315486.JPG,false,0,keypress(z),500,345804.10000014305,345803.7000000477,341042.634,341049.5,341059.363,345808.952,8,400,26,,ISIC_0004352.JPG
break,html.Screen,4_75_1,2023-10-31T01:34:41.452Z,,0,,,NaN,,,,,,false,,,,345805.60000014305,345805,,345804.40000009537,,345808.952,8,400,,,
break_continue,html.Screen,4_75_2,2023-10-31T01:34:41.453Z,,0,,,NaN,,,,,,false,,,,345806.2000000477,345806,,345805.7000000477,,345808.952,8,400,,,
sequence,flow.Sequence,4_75,2023-10-31T01:34:41.453Z,,0,,,4746.636999999988,completion,,,,,false,,,,345806.40000009537,345806,341042.634,341049.5,341059.363,345808.952,8,400,,,
trial,html.Screen,4_76_0,2023-10-31T01:34:44.742Z,,0,2,,3285.7480000476935,response,ISIC_6342224.JPG,12,ISIC_5520533.JPG,ISIC_6342224.JPG,false,1,keypress(m),500,349095.2000000477,349094.7000000477,345793.179,345806.7000000477,345808.952,349108.719,8,400,27,,ISIC_5520533.JPG
break,html.Screen,4_76_1,2023-10-31T01:34:44.743Z,,0,,,NaN,,,,,,false,,,,349096.7000000477,349096.30000019073,,349095.40000009537,,349108.719,8,400,,,
break_continue,html.Screen,4_76_2,2023-10-31T01:34:44.744Z,,0,,,NaN,,,,,,false,,,,349097.30000019073,349097.2000000477,,349096.80000019073,,349108.719,8,400,,,
sequence,flow.Sequence,4_76,2023-10-31T01:34:44.744Z,,0,,,3288.2480000476935,completion,,,,,false,,,,349097.5,349097.2000000477,345793.179,345806.60000014305,345808.952,349108.719,8,400,,,
trial,html.Screen,4_77_0,2023-10-31T01:34:48.362Z,,0,2,,3606.1810000953847,response,ISIC_0062301.JPG,17,ISIC_0024208.JPG,ISIC_0062301.JPG,false,1,keypress(m),500,352715.30000019073,352714.90000009537,349092.193,349097.60000014305,349108.719,352725.105,8,400,28,,ISIC_0024208.JPG
break,html.Screen,4_77_1,2023-10-31T01:34:48.363Z,,0,,,NaN,,,,,,false,,,,352716.40000009537,352716.10000014305,,352715.5,,352725.105,8,400,,,
break_continue,html.Screen,4_77_2,2023-10-31T01:34:48.363Z,,0,,,NaN,,,,,,false,,,,352716.90000009537,352716.80000019073,,352716.5,,352725.105,8,400,,,
sequence,flow.Sequence,4_77,2023-10-31T01:34:48.364Z,,0,,,3608.081000190752,completion,,,,,false,,,,352717.10000014305,352716.80000019073,349092.193,349097.60000014305,349108.719,352725.105,8,400,,,
trial,html.Screen,4_78_0,2023-10-31T01:34:53.967Z,,0,2,,5594.6950001907535,response,ISIC_3816833.JPG,8,ISIC_1343302.JPG,ISIC_1343302.JPG,false,0,keypress(z),500,358320.10000014305,358319.80000019073,352708.417,352717.30000019073,352725.105,358324.774,8,400,29,,ISIC_3816833.JPG
break,html.Screen,4_78_1,2023-10-31T01:34:53.968Z,,0,,,NaN,,,,,,false,,,,358321.80000019073,358321.30000019073,,358320.40000009537,,358324.774,8,400,,,
break_continue,html.Screen,4_78_2,2023-10-31T01:34:53.969Z,,0,,,NaN,,,,,,false,,,,358322.40000009537,358322.30000019073,,358322,,358324.774,8,400,,,
sequence,flow.Sequence,4_78,2023-10-31T01:34:53.969Z,,0,,,5597.1950001907535,completion,,,,,false,,,,358322.7000000477,358322.30000019073,352708.417,352717.2000000477,352725.105,358324.774,8,400,,,
trial,html.Screen,4_79_0,2023-10-31T01:34:58.132Z,,0,2,,4166.026000190759,response,ISIC_3767325.JPG,10,ISIC_0015109.JPG,ISIC_3767325.JPG,false,1,keypress(m),500,362491.2000000477,362490.80000019073,358308.636,358322.80000019073,358324.774,362507.708,8,400,30,,ISIC_0015109.JPG
break,html.Screen,4_79_1,2023-10-31T01:34:58.133Z,,0,,,NaN,,,,,,false,,,,362492.5,362492.10000014305,,362491.5,,362507.708,8,400,,,
break_continue,html.Screen,4_79_2,2023-10-31T01:34:58.133Z,,0,,,NaN,,,,,,false,,,,362493.10000014305,362492.90000009537,,362492.60000014305,,362507.708,8,400,,,
sequence,flow.Sequence,4_79,2023-10-31T01:34:58.134Z,,0,,,4168.126000095392,completion,,,,,false,,,,362493.30000019073,362492.90000009537,358308.636,358322.80000019073,358324.774,362507.708,8,400,,,
trial,html.Screen,4_80_0,2023-10-31T01:35:01.600Z,,0,2,,3451.6920000953833,response,ISIC_0014469.JPG,1,ISIC_2758999.JPG,ISIC_2758999.JPG,false,0,keypress(z),500,365959.7000000477,365959.40000009537,362491.556,362495,362507.708,365974.583,8,400,31,,ISIC_0014469.JPG
break,html.Screen,4_80_1,2023-10-31T01:35:01.602Z,,0,,,NaN,,,,,,false,,,,365961.30000019073,365960.80000019073,,365960,,365974.583,8,400,,,
break_continue,html.Screen,4_80_2,2023-10-31T01:35:01.602Z,,0,,,NaN,,,,,,false,,,,365961.80000019073,365961.60000014305,,365961.5,,365974.583,8,400,,,
sequence,flow.Sequence,4_80,2023-10-31T01:35:01.602Z,,0,,,3453.892000143067,completion,,,,,false,,,,365962,365961.60000014305,362491.556,362493.40000009537,362507.708,365974.583,8,400,,,
trial,html.Screen,4_81_0,2023-10-31T01:35:05.077Z,,0,2,,3461.8170000953833,response,ISIC_5366657.JPG,8,ISIC_3084213.JPG,ISIC_3084213.JPG,false,0,keypress(z),500,369436.90000009537,369436.40000009537,365958.427,365962.2000000477,365974.583,369469.857,8,400,32,,ISIC_5366657.JPG
break,html.Screen,4_81_1,2023-10-31T01:35:05.079Z,,0,,,NaN,,,,,,false,,,,369438.30000019073,369437.90000009537,,369437.2000000477,,369469.857,8,400,,,
break_continue,html.Screen,4_81_2,2023-10-31T01:35:05.079Z,,0,,,NaN,,,,,,false,,,,369438.90000009537,369438.7000000477,,369438.40000009537,,369469.857,8,400,,,
sequence,flow.Sequence,4_81,2023-10-31T01:35:05.079Z,,0,,,3464.1170000476995,completion,,,,,false,,,,369439.10000014305,369438.7000000477,365958.427,365962.10000014305,365974.583,369469.857,8,400,,,
trial,html.Screen,4_82_0,2023-10-31T01:35:08.082Z,,0,2,,2971.642999999982,response,ISIC_1023339.JPG,9,ISIC_2729109.JPG,ISIC_1023339.JPG,false,1,keypress(m),500,372441.90000009537,372441.5,369440.435,369439.30000019073,369469.857,372457.272,8,400,33,,ISIC_2729109.JPG
break,html.Screen,4_82_1,2023-10-31T01:35:08.084Z,,0,,,NaN,,,,,,false,,,,372443.40000009537,372443,,372442.30000019073,,372457.272,8,400,,,
break_continue,html.Screen,4_82_2,2023-10-31T01:35:08.084Z,,0,,,NaN,,,,,,false,,,,372444,372443.80000019073,,372443.5,,372457.272,8,400,,,
sequence,flow.Sequence,4_82,2023-10-31T01:35:08.085Z,,0,,,2973.9430001907167,completion,,,,,false,,,,372444.2000000477,372443.80000019073,369440.435,369439.2000000477,369469.857,372457.272,8,400,,,
trial,html.Screen,4_83_0,2023-10-31T01:35:11.325Z,,0,2,,3226.62800009537,response,ISIC_0674746.JPG,12,ISIC_6119830.JPG,ISIC_0674746.JPG,false,1,keypress(m),500,375684.40000009537,375683.90000009537,372440.521,372444.40000009537,372457.272,375690.027,8,400,34,,ISIC_6119830.JPG
break,html.Screen,4_83_1,2023-10-31T01:35:11.326Z,,0,,,NaN,,,,,,false,,,,375685.90000009537,375685.30000019073,,375684.60000014305,,375690.027,8,400,,,
break_continue,html.Screen,4_83_2,2023-10-31T01:35:11.327Z,,0,,,NaN,,,,,,false,,,,375686.5,375686.40000009537,,375686.10000014305,,375690.027,8,400,,,
sequence,flow.Sequence,4_83,2023-10-31T01:35:11.327Z,,0,,,3229.12800009537,completion,,,,,false,,,,375686.80000019073,375686.40000009537,372440.521,372444.40000009537,372457.272,375690.027,8,400,,,
trial,html.Screen,4_84_0,2023-10-31T01:35:14.484Z,,0,2,,3153.0730001430493,response,ISIC_0067227.JPG,2,ISIC_0011350.JPG,ISIC_0011350.JPG,false,0,keypress(z),500,378843.5,378843.10000014305,375673.709,375687,375690.027,378856.612,8,400,35,,ISIC_0067227.JPG
break,html.Screen,4_84_1,2023-10-31T01:35:14.486Z,,0,,,NaN,,,,,,false,,,,378845.2000000477,378844.60000014305,,378843.80000019073,,378856.612,8,400,,,
break_continue,html.Screen,4_84_2,2023-10-31T01:35:14.486Z,,0,,,NaN,,,,,,false,,,,378845.90000009537,378845.7000000477,,378845.5,,378856.612,8,400,,,
sequence,flow.Sequence,4_84,2023-10-31T01:35:14.486Z,,0,,,3155.673000047682,completion,,,,,false,,,,378846.10000014305,378845.7000000477,375673.709,375686.80000019073,375690.027,378856.612,8,400,,,
trial,html.Screen,4_85_0,2023-10-31T01:35:17.774Z,,0,2,,3277.088000047661,response,ISIC_0033090.JPG,12,ISIC_0054651.JPG,ISIC_0054651.JPG,false,0,keypress(z),500,382134,382133.7000000477,378840.177,378846.2000000477,378856.612,382139.359,8,400,36,,ISIC_0033090.JPG
break,html.Screen,4_85_1,2023-10-31T01:35:17.776Z,,0,,,NaN,,,,,,false,,,,382135.7000000477,382135.10000014305,,382134.30000019073,,382139.359,8,400,,,
break_continue,html.Screen,4_85_2,2023-10-31T01:35:17.777Z,,0,,,NaN,,,,,,false,,,,382136.40000009537,382136.2000000477,,382135.90000009537,,382139.359,8,400,,,
sequence,flow.Sequence,4_85,2023-10-31T01:35:17.777Z,,0,,,3279.588000047661,completion,,,,,false,,,,382136.60000014305,382136.2000000477,378840.177,378846.2000000477,378856.612,382139.359,8,400,,,
trial,html.Screen,4_86_0,2023-10-31T01:35:21.028Z,,0,2,,3247.5410000953707,response,ISIC_0010909.JPG,8,ISIC_0058946.JPG,ISIC_0010909.JPG,false,1,keypress(m),500,385387.2000000477,385386.90000009537,382123.114,382136.7000000477,382139.359,385411.428,8,400,37,,ISIC_0058946.JPG
break,html.Screen,4_86_1,2023-10-31T01:35:21.028Z,,0,,,NaN,,,,,,false,,,,385388,385387.80000019073,,385387.40000009537,,385411.428,8,400,,,
break_continue,html.Screen,4_86_2,2023-10-31T01:35:21.029Z,,0,,,NaN,,,,,,false,,,,385388.5,385388.40000009537,,385388.2000000477,,385411.428,8,400,,,
sequence,flow.Sequence,4_86,2023-10-31T01:35:21.029Z,,0,,,3249.0410000953707,completion,,,,,false,,,,385388.80000019073,385388.40000009537,382123.114,382136.7000000477,382139.359,385411.428,8,400,,,
trial,html.Screen,4_87_0,2023-10-31T01:35:23.887Z,,0,2,,2835.1720001430367,response,ISIC_0011516.JPG,5,ISIC_0030963.JPG,ISIC_0011516.JPG,false,1,keypress(m),500,388247,388246.60000014305,385372.525,385388.90000009537,385411.428,388255.618,8,400,38,,ISIC_0030963.JPG
break,html.Screen,4_87_1,2023-10-31T01:35:23.889Z,,0,,,NaN,,,,,,false,,,,388248.40000009537,388247.90000009537,,388247.2000000477,,388255.618,8,400,,,
break_continue,html.Screen,4_87_2,2023-10-31T01:35:23.889Z,,0,,,NaN,,,,,,false,,,,388249,388248.80000019073,,388248.60000014305,,388255.618,8,400,,,
sequence,flow.Sequence,4_87,2023-10-31T01:35:23.890Z,,0,,,2837.3720001907204,completion,,,,,false,,,,388249.2000000477,388248.80000019073,385372.525,385388.90000009537,385411.428,388255.618,8,400,,,
trial,html.Screen,4_88_0,2023-10-31T01:35:26.618Z,,0,2,,2721.3819999999832,response,ISIC_0046628.JPG,12,ISIC_0953317.JPG,ISIC_0953317.JPG,false,0,keypress(z),500,390977.40000009537,390977,388239.509,388249.5,388255.618,391015.806,8,400,39,,ISIC_0046628.JPG
break,html.Screen,4_88_1,2023-10-31T01:35:26.619Z,,0,,,NaN,,,,,,false,,,,390978.7000000477,390978.40000009537,,390977.7000000477,,391015.806,8,400,,,
break_continue,html.Screen,4_88_2,2023-10-31T01:35:26.620Z,,0,,,NaN,,,,,,false,,,,390979.30000019073,390979.10000014305,,390978.90000009537,,391015.806,8,400,,,
sequence,flow.Sequence,4_88,2023-10-31T01:35:26.620Z,,0,,,2723.4820001430344,completion,,,,,false,,,,390979.5,390979.10000014305,388239.509,388249.40000009537,388255.618,391015.806,8,400,,,
trial,html.Screen,4_89_0,2023-10-31T01:35:30.006Z,,0,2,,3349.4940001907526,response,ISIC_4848047.JPG,5,ISIC_0032095.JPG,ISIC_4848047.JPG,false,1,keypress(m),500,394365.7000000477,394365.30000019073,390972.413,390979.60000014305,391015.806,394371.703,8,400,40,,ISIC_0032095.JPG
break,html.Screen,4_89_1,2023-10-31T01:35:30.008Z,,0,,,NaN,,,,,,false,,,,394367.40000009537,394366.7000000477,,394366,,394371.703,8,400,,,
break_continue,html.Screen,4_89_2,2023-10-31T01:35:30.008Z,,0,,,NaN,,,,,,false,,,,394368,394367.80000019073,,394367.60000014305,,394371.703,8,400,,,
sequence,flow.Sequence,4_89,2023-10-31T01:35:30.008Z,,0,,,3351.9940001907526,completion,,,,,false,,,,394368.10000014305,394367.80000019073,390972.413,390979.60000014305,391015.806,394371.703,8,400,,,
trial,html.Screen,4_90_0,2023-10-31T01:35:33.280Z,,0,2,,3267.197000095388,response,ISIC_0055143.JPG,17,ISIC_0031553.JPG,ISIC_0055143.JPG,false,1,keypress(m),500,397639.30000019073,397638.90000009537,394355.41,394368.2000000477,394371.703,397655.014,8,400,41,,ISIC_0031553.JPG
break,html.Screen,4_90_1,2023-10-31T01:35:33.281Z,,0,,,NaN,,,,,,false,,,,397640.90000009537,397640.30000019073,,397639.60000014305,,397655.014,8,400,,,
break_continue,html.Screen,4_90_2,2023-10-31T01:35:33.282Z,,0,,,NaN,,,,,,false,,,,397641.60000014305,397641.40000009537,,397641.10000014305,,397655.014,8,400,,,
sequence,flow.Sequence,4_90,2023-10-31T01:35:33.282Z,,0,,,3269.697000095388,completion,,,,,false,,,,397641.7000000477,397641.40000009537,394355.41,394368.2000000477,394371.703,397655.014,8,400,,,
trial,html.Screen,4_91_0,2023-10-31T01:35:36.666Z,,0,2,,3370.28600019071,response,ISIC_2058516.JPG,10,ISIC_0029182.JPG,ISIC_2058516.JPG,false,1,keypress(m),500,401025.7000000477,401025.30000019073,397638.665,397641.90000009537,397655.014,401038.146,8,400,42,,ISIC_0029182.JPG
break,html.Screen,4_91_1,2023-10-31T01:35:36.667Z,,0,,,NaN,,,,,,false,,,,401026.90000009537,401026.5,,401025.90000009537,,401038.146,8,400,,,
break_continue,html.Screen,4_91_2,2023-10-31T01:35:36.668Z,,0,,,NaN,,,,,,false,,,,401027.40000009537,401027.30000019073,,401027,,401038.146,8,400,,,
sequence,flow.Sequence,4_91,2023-10-31T01:35:36.668Z,,0,,,3372.28600019071,completion,,,,,false,,,,401027.5,401027.30000019073,397638.665,397641.80000019073,397655.014,401038.146,8,400,,,
trial,html.Screen,4_92_0,2023-10-31T01:35:41.202Z,,0,2,,4523.054000047676,response,ISIC_0002899.JPG,14,ISIC_3878174.JPG,ISIC_0002899.JPG,false,1,keypress(m),500,405561.60000014305,405561.2000000477,401021.485,401027.7000000477,401038.146,405571.236,8,400,43,,ISIC_3878174.JPG
break,html.Screen,4_92_1,2023-10-31T01:35:41.204Z,,0,,,NaN,,,,,,false,,,,405563.2000000477,405562.7000000477,,405561.90000009537,,405571.236,8,400,,,
break_continue,html.Screen,4_92_2,2023-10-31T01:35:41.204Z,,0,,,NaN,,,,,,false,,,,405563.80000019073,405563.60000014305,,405563.40000009537,,405571.236,8,400,,,
sequence,flow.Sequence,4_92,2023-10-31T01:35:41.204Z,,0,,,4525.454000143043,completion,,,,,false,,,,405564,405563.60000014305,401021.485,401027.7000000477,401038.146,405571.236,8,400,,,
trial,html.Screen,4_93_0,2023-10-31T01:35:46.154Z,,0,2,,4941.5640001907595,response,ISIC_9472725.JPG,11,ISIC_0071857.JPG,ISIC_0071857.JPG,false,0,keypress(z),500,410513.2000000477,410512.80000019073,405554.912,405564.2000000477,405571.236,410539.526,8,400,44,,ISIC_9472725.JPG
break,html.Screen,4_93_1,2023-10-31T01:35:46.155Z,,0,,,NaN,,,,,,false,,,,410514.40000009537,410514.2000000477,,410513.5,,410539.526,8,400,,,
break_continue,html.Screen,4_93_2,2023-10-31T01:35:46.155Z,,0,,,NaN,,,,,,false,,,,410515.10000014305,410514.90000009537,,410514.60000014305,,410539.526,8,400,,,
sequence,flow.Sequence,4_93,2023-10-31T01:35:46.156Z,,0,,,4943.664000095392,completion,,,,,false,,,,410515.30000019073,410514.90000009537,405554.912,405564.2000000477,405571.236,410539.526,8,400,,,
trial,html.Screen,4_94_0,2023-10-31T01:35:49.248Z,,0,2,,3067.2740001907223,response,ISIC_0010350.JPG,11,ISIC_0060233.JPG,ISIC_0060233.JPG,false,0,keypress(z),500,413607.2000000477,413606.80000019073,410503.881,410515.5,410539.526,413620.099,8,400,45,,ISIC_0010350.JPG
break,html.Screen,4_94_1,2023-10-31T01:35:49.249Z,,0,,,NaN,,,,,,false,,,,413608.60000014305,413608.2000000477,,413607.40000009537,,413620.099,8,400,,,
break_continue,html.Screen,4_94_2,2023-10-31T01:35:49.250Z,,0,,,NaN,,,,,,false,,,,413609.30000019073,413609,,413608.80000019073,,413620.099,8,400,,,
sequence,flow.Sequence,4_94,2023-10-31T01:35:49.250Z,,0,,,3069.4739999999874,completion,,,,,false,,,,413609.40000009537,413609,410503.881,410515.40000009537,410539.526,413620.099,8,400,,,
trial,html.Screen,4_95_0,2023-10-31T01:35:52.601Z,,0,2,,3339.7010001907474,response,ISIC_3751090.JPG,8,ISIC_0070961.JPG,ISIC_0070961.JPG,false,0,keypress(z),500,416960.10000014305,416959.80000019073,413603.751,413609.7000000477,413620.099,416969.872,8,400,46,,ISIC_3751090.JPG
break,html.Screen,4_95_1,2023-10-31T01:35:52.602Z,,0,,,NaN,,,,,,false,,,,416961.7000000477,416961,,416960.40000009537,,416969.872,8,400,,,
break_continue,html.Screen,4_95_2,2023-10-31T01:35:52.603Z,,0,,,NaN,,,,,,false,,,,416962.5,416962.30000019073,,416962,,416969.872,8,400,,,
sequence,flow.Sequence,4_95,2023-10-31T01:35:52.603Z,,0,,,3342.2010001907474,completion,,,,,false,,,,416962.7000000477,416962.30000019073,413603.751,413609.60000014305,413620.099,416969.872,8,400,,,
trial,html.Screen,4_96_0,2023-10-31T01:35:55.907Z,,0,2,,3296.428000190761,response,ISIC_0005377.JPG,13,ISIC_0032828.JPG,ISIC_0032828.JPG,false,0,keypress(z),500,420266.7000000477,420266.30000019073,416953.788,416963,416969.872,420269.578,8,400,47,,ISIC_0005377.JPG
break,html.Screen,4_96_1,2023-10-31T01:35:55.909Z,,0,,,NaN,,,,,,false,,,,420268.10000014305,420267.7000000477,,420266.90000009537,,420269.578,8,400,,,
break_continue,html.Screen,4_96_2,2023-10-31T01:35:55.909Z,,0,,,NaN,,,,,,false,,,,420268.7000000477,420268.60000014305,,420268.30000019073,,420269.578,8,400,,,
sequence,flow.Sequence,4_96,2023-10-31T01:35:55.911Z,,0,,,3298.728000143077,completion,,,,,false,,,,420270.2000000477,420268.60000014305,416953.788,416962.90000009537,416969.872,420269.578,8,400,,,
trial,html.Screen,4_97_0,2023-10-31T01:36:00.425Z,,0,2,,4518.4220000000205,response,ISIC_0034253.JPG,28,ISIC_6793603.JPG,ISIC_6793603.JPG,false,0,keypress(z),500,424788.30000019073,424788,420253.163,420270.30000019073,420269.578,424802.819,8,400,48,,ISIC_0034253.JPG
break,html.Screen,4_97_1,2023-10-31T01:36:00.426Z,,0,,,NaN,,,,,,false,,,,424789.7000000477,424789.30000019073,,424788.5,,424802.819,8,400,,,
break_continue,html.Screen,4_97_2,2023-10-31T01:36:00.427Z,,0,,,NaN,,,,,,false,,,,424790.2000000477,424790.10000014305,,424789.80000019073,,424802.819,8,400,,,
sequence,flow.Sequence,4_97,2023-10-31T01:36:00.427Z,,0,,,4520.522000143072,completion,,,,,false,,,,424790.30000019073,424790.10000014305,420253.163,420270.2000000477,420269.578,424802.819,8,400,,,
trial,html.Screen,4_98_0,2023-10-31T01:36:05.031Z,,0,2,,4591.58100009535,response,ISIC_3283317.JPG,11,ISIC_5823859.JPG,ISIC_5823859.JPG,false,0,keypress(z),500,429394.90000009537,429394.40000009537,424785.816,424790.60000014305,424802.819,429402.168,8,400,49,,ISIC_3283317.JPG
break,html.Screen,4_98_1,2023-10-31T01:36:05.034Z,,0,,,NaN,,,,,,false,,,,429397.30000019073,429396.7000000477,,429395.5,,429402.168,8,400,,,
break_continue,html.Screen,4_98_2,2023-10-31T01:36:05.035Z,,0,,,NaN,,,,,,false,,,,429398,429397.80000019073,,429397.5,,429402.168,8,400,,,
sequence,flow.Sequence,4_98,2023-10-31T01:36:05.035Z,,0,,,4594.981000190717,completion,,,,,false,,,,429398.5,429397.80000019073,424785.816,424790.40000009537,424802.819,429402.168,8,400,,,
trial,html.Screen,4_99_0,2023-10-31T01:36:08.500Z,,0,2,,3460.831999999995,response,ISIC_3295750.JPG,26,ISIC_8812781.JPG,ISIC_3295750.JPG,false,1,keypress(m),500,432863.10000014305,432863,429385.692,429398.80000019073,429402.168,432869.922,8,400,50,,ISIC_8812781.JPG
break,html.Screen,4_99_1,2023-10-31T01:36:18.489Z,,0,,,9998.277000000002,timeout,,,,,false,,,,442852.60000014305,442851.224,432852.872,432863.30000019073,432869.922,442868.199,8,400,,,
break_continue,html.Screen,4_99_2,2023-10-31T01:36:25.580Z,,0,,,7058.201000095345,response,,,,,false,continue,keypress(Space),,449943.30000019073,449926.40000009537,442851.224,442852.90000009537,442868.199,449950.712,8,400,,,
sequence,flow.Sequence,4_99,2023-10-31T01:36:25.580Z,,0,,,20524.232000095362,completion,,,,,false,,,,449943.30000019073,449926.40000009537,429385.692,429398.7000000477,429402.168,449950.712,8,400,,,
trial,html.Screen,4_100_0,2023-10-31T01:36:28.737Z,,0,3,,3149.688000095368,response,ISIC_7789452.JPG,8,ISIC_0030747.JPG,ISIC_7789452.JPG,false,1,keypress(m),500,453100.80000019073,453100.40000009537,449934.456,449943.40000009537,449950.712,453117.017,8,400,1,,ISIC_0030747.JPG
break,html.Screen,4_100_1,2023-10-31T01:36:28.739Z,,0,,,NaN,,,,,,false,,,,453102.30000019073,453101.80000019073,,453101.10000014305,,453117.017,8,400,,,
break_continue,html.Screen,4_100_2,2023-10-31T01:36:28.739Z,,0,,,NaN,,,,,,false,,,,453103,453102.90000009537,,453102.5,,453117.017,8,400,,,
sequence,flow.Sequence,4_100,2023-10-31T01:36:28.740Z,,0,,,3152.188000095368,completion,,,,,false,,,,453103.30000019073,453102.90000009537,449934.456,449943.30000019073,449950.712,453117.017,8,400,,,
trial,html.Screen,4_101_0,2023-10-31T01:36:31.934Z,,0,3,,3180.0830001430586,response,ISIC_0027881.JPG,7,ISIC_0054925.JPG,ISIC_0054925.JPG,false,0,keypress(z),500,456297.5,456297.10000014305,453100.408,453103.5,453117.017,456300.055,8,400,2,,ISIC_0027881.JPG
break,html.Screen,4_101_1,2023-10-31T01:36:31.936Z,,0,,,NaN,,,,,,false,,,,456299.10000014305,456298.7000000477,,456297.7000000477,,456300.055,8,400,,,
break_continue,html.Screen,4_101_2,2023-10-31T01:36:31.936Z,,0,,,NaN,,,,,,false,,,,456299.7000000477,456299.5,,456299.30000019073,,456300.055,8,400,,,
sequence,flow.Sequence,4_101,2023-10-31T01:36:31.936Z,,0,,,3182.4830000000075,completion,,,,,false,,,,456300,456299.5,453100.408,453103.40000009537,453117.017,456300.055,8,400,,,
trial,html.Screen,4_102_0,2023-10-31T01:36:34.872Z,,0,3,,2935.245000190742,response,ISIC_9482842.JPG,13,ISIC_0014088.JPG,ISIC_0014088.JPG,false,0,keypress(z),500,459235.7000000477,459235.30000019073,456283.953,456300.2000000477,456300.055,459314.431,8,400,3,,ISIC_9482842.JPG
break,html.Screen,4_102_1,2023-10-31T01:36:34.873Z,,0,,,NaN,,,,,,false,,,,459236.60000014305,459236.40000009537,,459235.80000019073,,459314.431,8,400,,,
break_continue,html.Screen,4_102_2,2023-10-31T01:36:34.873Z,,0,,,NaN,,,,,,false,,,,459237.10000014305,459236.90000009537,,459236.7000000477,,459314.431,8,400,,,
sequence,flow.Sequence,4_102,2023-10-31T01:36:34.874Z,,0,,,2936.8450000953744,completion,,,,,false,,,,459237.2000000477,459236.90000009537,456283.953,456300.10000014305,456300.055,459314.431,8,400,,,
trial,html.Screen,4_103_0,2023-10-31T01:36:39.280Z,,0,3,,4329.169000143069,response,ISIC_0011091.JPG,11,ISIC_4803943.JPG,ISIC_0011091.JPG,false,1,keypress(m),500,463643.90000009537,463643.60000014305,459233.393,459237.30000019073,459314.431,463649.441,8,400,4,,ISIC_4803943.JPG
break,html.Screen,4_103_1,2023-10-31T01:36:39.281Z,,0,,,NaN,,,,,,false,,,,463645.10000014305,463644.7000000477,,463644.10000014305,,463649.441,8,400,,,
break_continue,html.Screen,4_103_2,2023-10-31T01:36:39.284Z,,0,,,NaN,,,,,,false,,,,463647.10000014305,463645.5,,463645.2000000477,,463649.441,8,400,,,
sequence,flow.Sequence,4_103,2023-10-31T01:36:39.284Z,,0,,,4331.069000000018,completion,,,,,false,,,,463647.40000009537,463645.5,459233.393,459237.30000019073,459314.431,463649.441,8,400,,,
trial,html.Screen,4_104_0,2023-10-31T01:36:42.204Z,,0,3,,2917.6590001430595,response,ISIC_1805163.JPG,9,ISIC_0054006.JPG,ISIC_0054006.JPG,false,0,keypress(z),500,466567.40000009537,466567.10000014305,463633.135,463647.60000014305,463649.441,466583.004,8,400,5,,ISIC_1805163.JPG
break,html.Screen,4_104_1,2023-10-31T01:36:42.205Z,,0,,,NaN,,,,,,false,,,,466568.7000000477,466568.30000019073,,466567.60000014305,,466583.004,8,400,,,
break_continue,html.Screen,4_104_2,2023-10-31T01:36:42.206Z,,0,,,NaN,,,,,,false,,,,466569.30000019073,466569.2000000477,,466569,,466583.004,8,400,,,
sequence,flow.Sequence,4_104,2023-10-31T01:36:42.206Z,,0,,,2919.759000047692,completion,,,,,false,,,,466569.5,466569.2000000477,463633.135,463647.5,463649.441,466583.004,8,400,,,
trial,html.Screen,4_105_0,2023-10-31T01:36:44.912Z,,0,3,,2691.9959999999846,response,ISIC_8436492.JPG,10,ISIC_0162967.JPG,ISIC_0162967.JPG,false,0,keypress(z),500,469275.5,469275,466566.369,466569.7000000477,466583.004,469299.082,8,400,6,,ISIC_8436492.JPG
break,html.Screen,4_105_1,2023-10-31T01:36:44.913Z,,0,,,NaN,,,,,,false,,,,469277,469276.5,,469275.80000019073,,469299.082,8,400,,,
break_continue,html.Screen,4_105_2,2023-10-31T01:36:44.914Z,,0,,,NaN,,,,,,false,,,,469277.5,469277.40000009537,,469277.2000000477,,469299.082,8,400,,,
sequence,flow.Sequence,4_105,2023-10-31T01:36:44.914Z,,0,,,2694.396000095352,completion,,,,,false,,,,469277.80000019073,469277.40000009537,466566.369,466569.60000014305,466583.004,469299.082,8,400,,,
trial,html.Screen,4_106_0,2023-10-31T01:36:47.750Z,,0,3,,2813.8180000953726,response,ISIC_0963531.JPG,11,ISIC_5772144.JPG,ISIC_0963531.JPG,false,1,keypress(m),500,472113.40000009537,472112.90000009537,469282.531,469278.10000014305,469299.082,472132.114,8,400,7,,ISIC_5772144.JPG
break,html.Screen,4_106_1,2023-10-31T01:36:47.751Z,,0,,,NaN,,,,,,false,,,,472114.80000019073,472114.40000009537,,472113.7000000477,,472132.114,8,400,,,
break_continue,html.Screen,4_106_2,2023-10-31T01:36:47.752Z,,0,,,NaN,,,,,,false,,,,472115.40000009537,472115.2000000477,,472115,,472132.114,8,400,,,
sequence,flow.Sequence,4_106,2023-10-31T01:36:47.752Z,,0,,,2816.118000047689,completion,,,,,false,,,,472115.7000000477,472115.2000000477,469282.531,469277.90000009537,469299.082,472132.114,8,400,,,
trial,html.Screen,4_107_0,2023-10-31T01:36:51.713Z,,0,3,,3944.3859999999986,response,ISIC_0001103.JPG,9,ISIC_0862745.JPG,ISIC_0862745.JPG,false,0,keypress(z),500,476076.90000009537,476076.5,472115.726,472115.80000019073,472132.114,476081.817,8,400,8,,ISIC_0001103.JPG
break,html.Screen,4_107_1,2023-10-31T01:36:51.715Z,,0,,,NaN,,,,,,false,,,,476078.60000014305,476078,,476077.2000000477,,476081.817,8,400,,,
break_continue,html.Screen,4_107_2,2023-10-31T01:36:51.716Z,,0,,,NaN,,,,,,false,,,,476079.10000014305,476079,,476078.80000019073,,476081.817,8,400,,,
sequence,flow.Sequence,4_107,2023-10-31T01:36:51.716Z,,0,,,3946.8859999999986,completion,,,,,false,,,,476079.30000019073,476079,472115.726,472115.7000000477,472132.114,476081.817,8,400,,,
trial,html.Screen,4_108_0,2023-10-31T01:36:54.607Z,,0,3,,2888.883000047703,response,ISIC_0032862.JPG,5,ISIC_9688534.JPG,ISIC_9688534.JPG,false,0,keypress(z),500,478971,478970.7000000477,476065.216,476079.40000009537,476081.817,478981.757,8,400,9,,ISIC_0032862.JPG
break,html.Screen,4_108_1,2023-10-31T01:36:54.609Z,,0,,,NaN,,,,,,false,,,,478972.60000014305,478972,,478971.40000009537,,478981.757,8,400,,,
break_continue,html.Screen,4_108_2,2023-10-31T01:36:54.610Z,,0,,,NaN,,,,,,false,,,,478973.5,478973.2000000477,,478972.90000009537,,478981.757,8,400,,,
sequence,flow.Sequence,4_108,2023-10-31T01:36:54.610Z,,0,,,2891.383000047703,completion,,,,,false,,,,478973.7000000477,478973.2000000477,476065.216,476079.40000009537,476081.817,478981.757,8,400,,,
trial,html.Screen,4_109_0,2023-10-31T01:36:57.856Z,,0,3,,3242.343000143068,response,ISIC_0011931.JPG,8,ISIC_0011956.JPG,ISIC_0011931.JPG,false,1,keypress(m),500,482224.30000019073,482224.10000014305,478965.114,478973.90000009537,478981.757,482231.184,8,400,10,,ISIC_0011956.JPG
break,html.Screen,4_109_1,2023-10-31T01:36:57.857Z,,0,,,NaN,,,,,,false,,,,482225.10000014305,482224.90000009537,,482224.40000009537,,482231.184,8,400,,,
break_continue,html.Screen,4_109_2,2023-10-31T01:36:57.857Z,,0,,,NaN,,,,,,false,,,,482225.40000009537,482225.40000009537,,482225.2000000477,,482231.184,8,400,,,
sequence,flow.Sequence,4_109,2023-10-31T01:36:57.857Z,,0,,,3243.643000095384,completion,,,,,false,,,,482225.5,482225.40000009537,478965.114,478973.90000009537,478981.757,482231.184,8,400,,,
trial,html.Screen,4_110_0,2023-10-31T01:37:01.254Z,,0,3,,3391.1160001907265,response,ISIC_7196249.JPG,7,ISIC_0029550.JPG,ISIC_7196249.JPG,false,1,keypress(m),500,485622.60000014305,485622.30000019073,482215.131,482225.5,482231.184,485658.428,8,400,11,,ISIC_0029550.JPG
break,html.Screen,4_110_1,2023-10-31T01:37:01.255Z,,0,,,NaN,,,,,,false,,,,485623.80000019073,485623.60000014305,,485622.90000009537,,485658.428,8,400,,,
break_continue,html.Screen,4_110_2,2023-10-31T01:37:01.256Z,,0,,,NaN,,,,,,false,,,,485624.30000019073,485624.2000000477,,485624,,485658.428,8,400,,,
sequence,flow.Sequence,4_110,2023-10-31T01:37:01.256Z,,0,,,3393.0160000476753,completion,,,,,false,,,,485624.60000014305,485624.2000000477,482215.131,482225.5,482231.184,485658.428,8,400,,,
trial,html.Screen,4_111_0,2023-10-31T01:37:04.241Z,,0,3,,2950.972000095353,response,ISIC_0002745.JPG,17,ISIC_0068012.JPG,ISIC_0068012.JPG,false,0,keypress(z),500,488609.60000014305,488609.40000009537,485615.103,485624.7000000477,485658.428,488614.113,8,400,12,,ISIC_0002745.JPG
break,html.Screen,4_111_1,2023-10-31T01:37:04.242Z,,0,,,NaN,,,,,,false,,,,488610.5,488610.2000000477,,488609.80000019073,,488614.113,8,400,,,
break_continue,html.Screen,4_111_2,2023-10-31T01:37:04.242Z,,0,,,NaN,,,,,,false,,,,488611.10000014305,488610.90000009537,,488610.7000000477,,488614.113,8,400,,,
sequence,flow.Sequence,4_111,2023-10-31T01:37:04.243Z,,0,,,2952.472000095353,completion,,,,,false,,,,488611.2000000477,488610.90000009537,485615.103,485624.60000014305,485658.428,488614.113,8,400,,,
trial,html.Screen,4_112_0,2023-10-31T01:37:09.878Z,,0,3,,5631.787000095355,response,ISIC_2033237.JPG,12,ISIC_0014559.JPG,ISIC_0014559.JPG,false,0,keypress(z),500,494246.40000009537,494245.90000009537,488598.122,488611.30000019073,488614.113,494263.865,8,400,13,,ISIC_2033237.JPG
break,html.Screen,4_112_1,2023-10-31T01:37:09.880Z,,0,,,NaN,,,,,,false,,,,494248.2000000477,494247.60000014305,,494246.80000019073,,494263.865,8,400,,,
break_continue,html.Screen,4_112_2,2023-10-31T01:37:09.880Z,,0,,,NaN,,,,,,false,,,,494248.90000009537,494248.60000014305,,494248.30000019073,,494263.865,8,400,,,
sequence,flow.Sequence,4_112,2023-10-31T01:37:09.880Z,,0,,,5634.487000143039,completion,,,,,false,,,,494249.10000014305,494248.60000014305,488598.122,488611.30000019073,488614.113,494263.865,8,400,,,
trial,html.Screen,4_113_0,2023-10-31T01:37:13.631Z,,0,3,,3735.2350001430605,response,ISIC_3590814.JPG,7,ISIC_6507640.JPG,ISIC_3590814.JPG,false,1,keypress(m),500,497999.40000009537,497999.10000014305,494247.584,494249.30000019073,494263.865,498013.311,8,400,14,,ISIC_6507640.JPG
break,html.Screen,4_113_1,2023-10-31T01:37:13.632Z,,0,,,NaN,,,,,,false,,,,498000.2000000477,498000,,497999.60000014305,,498013.311,8,400,,,
break_continue,html.Screen,4_113_2,2023-10-31T01:37:13.632Z,,0,,,NaN,,,,,,false,,,,498000.60000014305,498000.5,,498000.30000019073,,498013.311,8,400,,,
sequence,flow.Sequence,4_113,2023-10-31T01:37:13.632Z,,0,,,3736.6350000000093,completion,,,,,false,,,,498000.7000000477,498000.5,494247.584,494249.2000000477,494263.865,498013.311,8,400,,,
trial,html.Screen,4_114_0,2023-10-31T01:37:17.255Z,,0,3,,3610.289000143064,response,ISIC_2698722.JPG,1,ISIC_0345607.JPG,ISIC_0345607.JPG,false,0,keypress(z),500,501623.90000009537,501623.60000014305,497997.096,498000.90000009537,498013.311,501629.995,8,400,15,,ISIC_2698722.JPG
break,html.Screen,4_114_1,2023-10-31T01:37:17.257Z,,0,,,NaN,,,,,,false,,,,501625.40000009537,501625.10000014305,,501624.2000000477,,501629.995,8,400,,,
break_continue,html.Screen,4_114_2,2023-10-31T01:37:17.257Z,,0,,,NaN,,,,,,false,,,,501626,501625.80000019073,,501625.5,,501629.995,8,400,,,
sequence,flow.Sequence,4_114,2023-10-31T01:37:17.258Z,,0,,,3612.489000190748,completion,,,,,false,,,,501626.10000014305,501625.80000019073,497997.096,498000.80000019073,498013.311,501629.995,8,400,,,
trial,html.Screen,4_115_0,2023-10-31T01:37:20.574Z,,0,3,,3312.5050000000047,response,ISIC_2946577.JPG,11,ISIC_6377622.JPG,ISIC_6377622.JPG,false,0,keypress(z),500,504943,504942.5,501613.12,501626.30000019073,501629.995,504946.277,8,400,16,,ISIC_2946577.JPG
break,html.Screen,4_115_1,2023-10-31T01:37:20.576Z,,0,,,NaN,,,,,,false,,,,504944.90000009537,504944.40000009537,,504943.40000009537,,504946.277,8,400,,,
break_continue,html.Screen,4_115_2,2023-10-31T01:37:20.577Z,,0,,,NaN,,,,,,false,,,,504945.7000000477,504945.5,,504945.10000014305,,504946.277,8,400,,,
sequence,flow.Sequence,4_115,2023-10-31T01:37:20.577Z,,0,,,3315.5050000000047,completion,,,,,false,,,,504945.80000019073,504945.5,501613.12,501626.30000019073,501629.995,504946.277,8,400,,,
trial,html.Screen,4_116_0,2023-10-31T01:37:23.496Z,,0,3,,2917.722999999998,response,ISIC_8423248.JPG,13,ISIC_0011491.JPG,ISIC_0011491.JPG,false,0,keypress(z),500,507864.40000009537,507864,504929.896,504946.10000014305,504946.277,507879.637,8,400,17,,ISIC_8423248.JPG
break,html.Screen,4_116_1,2023-10-31T01:37:23.497Z,,0,,,NaN,,,,,,false,,,,507865.60000014305,507865.30000019073,,507864.7000000477,,507879.637,8,400,,,
break_continue,html.Screen,4_116_2,2023-10-31T01:37:23.498Z,,0,,,NaN,,,,,,false,,,,507866.2000000477,507866,,507865.7000000477,,507879.637,8,400,,,
sequence,flow.Sequence,4_116,2023-10-31T01:37:23.498Z,,0,,,2919.722999999998,completion,,,,,false,,,,507866.40000009537,507866,504929.896,504946,504946.277,507879.637,8,400,,,
trial,html.Screen,4_117_0,2023-10-31T01:37:26.403Z,,0,3,,2892.063000047696,response,ISIC_0025169.JPG,9,ISIC_0029033.JPG,ISIC_0025169.JPG,false,1,keypress(m),500,510772.10000014305,510771.7000000477,507863.135,507866.60000014305,507879.637,510778.988,8,400,18,,ISIC_0029033.JPG
break,html.Screen,4_117_1,2023-10-31T01:37:26.406Z,,0,,,NaN,,,,,,false,,,,510774.30000019073,510773.60000014305,,510772.40000009537,,510778.988,8,400,,,
break_continue,html.Screen,4_117_2,2023-10-31T01:37:26.406Z,,0,,,NaN,,,,,,false,,,,510774.90000009537,510774.80000019073,,510774.40000009537,,510778.988,8,400,,,
sequence,flow.Sequence,4_117,2023-10-31T01:37:26.407Z,,0,,,2895.163000190747,completion,,,,,false,,,,510775.2000000477,510774.80000019073,507863.135,507866.5,507879.637,510778.988,8,400,,,
trial,html.Screen,4_118_0,2023-10-31T01:37:29.166Z,,0,3,,2755.511999999988,response,ISIC_9204678.JPG,9,ISIC_6759173.JPG,ISIC_6759173.JPG,false,0,keypress(z),500,513534.80000019073,513534.5,510762.499,510775.30000019073,510778.988,513545.382,8,400,19,,ISIC_9204678.JPG
break,html.Screen,4_118_1,2023-10-31T01:37:29.168Z,,0,,,NaN,,,,,,false,,,,513536.2000000477,513535.7000000477,,513535.10000014305,,513545.382,8,400,,,
break_continue,html.Screen,4_118_2,2023-10-31T01:37:29.168Z,,0,,,NaN,,,,,,false,,,,513537,513536.80000019073,,513536.40000009537,,513545.382,8,400,,,
sequence,flow.Sequence,4_118,2023-10-31T01:37:29.169Z,,0,,,2757.8120001907228,completion,,,,,false,,,,513537.2000000477,513536.80000019073,510762.499,510775.30000019073,510778.988,513545.382,8,400,,,
trial,html.Screen,4_119_0,2023-10-31T01:37:32.392Z,,0,3,,3215.1180000000168,response,ISIC_0072604.JPG,12,ISIC_0012055.JPG,ISIC_0012055.JPG,false,0,keypress(z),500,516760.90000009537,516760.5,513528.758,513537.40000009537,513545.382,516778.489,8,400,20,,ISIC_0072604.JPG
break,html.Screen,4_119_1,2023-10-31T01:37:32.394Z,,0,,,NaN,,,,,,false,,,,516762.5,516762.2000000477,,516761.30000019073,,516778.489,8,400,,,
break_continue,html.Screen,4_119_2,2023-10-31T01:37:32.395Z,,0,,,NaN,,,,,,false,,,,516763.2000000477,516762.90000009537,,516762.80000019073,,516778.489,8,400,,,
sequence,flow.Sequence,4_119,2023-10-31T01:37:32.395Z,,0,,,3217.518000095384,completion,,,,,false,,,,516763.40000009537,516762.90000009537,513528.758,513537.40000009537,513545.382,516778.489,8,400,,,
trial,html.Screen,4_120_0,2023-10-31T01:37:35.345Z,,0,3,,2934.911000095366,response,ISIC_6293107.JPG,15,ISIC_7062293.JPG,ISIC_7062293.JPG,false,0,keypress(z),500,519713.80000019073,519713.40000009537,516761.841,516763.5,516778.489,519728.631,8,400,21,,ISIC_6293107.JPG
break,html.Screen,4_120_1,2023-10-31T01:37:35.347Z,,0,,,NaN,,,,,,false,,,,519715.30000019073,519714.7000000477,,519714.10000014305,,519728.631,8,400,,,
break_continue,html.Screen,4_120_2,2023-10-31T01:37:35.347Z,,0,,,NaN,,,,,,false,,,,519715.90000009537,519715.80000019073,,519715.40000009537,,519728.631,8,400,,,
sequence,flow.Sequence,4_120,2023-10-31T01:37:35.348Z,,0,,,2937.3110001907335,completion,,,,,false,,,,519716.2000000477,519715.80000019073,516761.841,516763.40000009537,516778.489,519728.631,8,400,,,
trial,html.Screen,4_121_0,2023-10-31T01:37:38.759Z,,0,3,,3398.5690000476898,response,ISIC_5787312.JPG,9,ISIC_3679789.JPG,ISIC_3679789.JPG,false,0,keypress(z),500,523127.7000000477,523127.2000000477,519711.722,519716.40000009537,519728.631,523215.087,8,400,22,,ISIC_5787312.JPG
break,html.Screen,4_121_1,2023-10-31T01:37:38.760Z,,0,,,NaN,,,,,,false,,,,523128.90000009537,523128.60000014305,,523127.90000009537,,523215.087,8,400,,,
break_continue,html.Screen,4_121_2,2023-10-31T01:37:38.761Z,,0,,,NaN,,,,,,false,,,,523129.40000009537,523129.2000000477,,523129,,523215.087,8,400,,,
sequence,flow.Sequence,4_121,2023-10-31T01:37:38.761Z,,0,,,3400.5690000476898,completion,,,,,false,,,,523129.7000000477,523129.2000000477,519711.722,519716.40000009537,519728.631,523215.087,8,400,,,
trial,html.Screen,4_122_0,2023-10-31T01:37:42.237Z,,0,3,,3389.613000047684,response,ISIC_6652978.JPG,17,ISIC_4247149.JPG,ISIC_4247149.JPG,false,0,keypress(z),500,526605.2000000477,526604.7000000477,523128.916,523129.80000019073,523215.087,526610.998,8,400,23,,ISIC_6652978.JPG
break,html.Screen,4_122_1,2023-10-31T01:37:42.238Z,,0,,,NaN,,,,,,false,,,,526606.9000000954,526606.4000000954,,526605.7000000477,,526610.998,8,400,,,
break_continue,html.Screen,4_122_2,2023-10-31T01:37:42.239Z,,0,,,NaN,,,,,,false,,,,526607.7000000477,526607.4000000954,,526607.2000000477,,526610.998,8,400,,,
sequence,flow.Sequence,4_122,2023-10-31T01:37:42.239Z,,0,,,3392.313000095368,completion,,,,,false,,,,526608,526607.4000000954,523128.916,523129.80000019073,523215.087,526610.998,8,400,,,
trial,html.Screen,4_123_0,2023-10-31T01:37:48.392Z,,0,3,,6149.10200014303,response,ISIC_0024853.JPG,11,ISIC_0033498.JPG,ISIC_0024853.JPG,false,1,keypress(m),500,532760.3000001907,532760.100000143,526594.503,526608.2000000477,526610.998,532777.322,8,400,24,,ISIC_0033498.JPG
break,html.Screen,4_123_1,2023-10-31T01:37:48.393Z,,0,,,NaN,,,,,,false,,,,532761.4000000954,532760.9000000954,,532760.5,,532777.322,8,400,,,
break_continue,html.Screen,4_123_2,2023-10-31T01:37:48.393Z,,0,,,NaN,,,,,,false,,,,532762,532761.8000001907,,532761.600000143,,532777.322,8,400,,,
sequence,flow.Sequence,4_123,2023-10-31T01:37:48.394Z,,0,,,6150.802000190713,completion,,,,,false,,,,532762.2000000477,532761.8000001907,526594.503,526608.100000143,526610.998,532777.322,8,400,,,
trial,html.Screen,4_124_0,2023-10-31T01:37:54.508Z,,0,3,,6098.578000095324,response,ISIC_6571597.JPG,12,ISIC_0029868.JPG,ISIC_6571597.JPG,false,1,keypress(m),500,538876.3000001907,538875.9000000954,532744.603,532762.3000001907,532777.322,538893.558,8,400,25,,ISIC_0029868.JPG
break,html.Screen,4_124_1,2023-10-31T01:37:54.510Z,,0,,,NaN,,,,,,false,,,,538878.2000000477,538877.600000143,,538876.7000000477,,538893.558,8,400,,,
break_continue,html.Screen,4_124_2,2023-10-31T01:37:54.510Z,,0,,,NaN,,,,,,false,,,,538879,538878.600000143,,538878.3000001907,,538893.558,8,400,,,
sequence,flow.Sequence,4_124,2023-10-31T01:37:54.511Z,,0,,,6101.278000143007,completion,,,,,false,,,,538879.4000000954,538878.600000143,532744.603,532762.3000001907,532777.322,538893.558,8,400,,,
trial,html.Screen,4_125_0,2023-10-31T01:37:57.651Z,,0,3,,3130.942000000039,response,ISIC_4114269.JPG,12,ISIC_0067805.JPG,ISIC_0067805.JPG,false,0,keypress(z),500,542024.8000001907,542024.5,538876.905,538879.600000143,538893.558,542049.961,8,400,26,,ISIC_4114269.JPG
break,html.Screen,4_125_1,2023-10-31T01:37:57.652Z,,0,,,NaN,,,,,,false,,,,542025.8000001907,542025.5,,542024.9000000954,,542049.961,8,400,,,
