sender,sender_type,sender_id,timestamp,meta,,blockNo,condition,duration,ended_on,img_left,img_reveal,img_right,loser,practice,response,response_action,selection_duration,time_commit,time_end,time_render,time_run,time_show,time_switch,total_blocks,total_trials,trialNo,url,winner
informed_consent,html.Screen,0,2023-09-08T19:46:05.010Z,"{""labjs_version"":""20.2.4"",""labjs_build"":{""flavor"":""production"",""commit"":""f5b4a49f956347addd546a832a3327688c2c0fef""},""location"":""https://run.pavlovia.org/MurrayBennett/melanoma-2afc/?participant=5e2360162828c461a8000585&STUDY_ID=64f8c92207ba404bcb356c90&SESSION_ID=64fb79e24502c4ebe97600d6&platform=prolific"",""userAgent"":""Mozilla/5.0 (Macintosh; Intel Mac OS X 10.13; rv:109.0) Gecko/20100101 Firefox/115.0"",""platform"":""MacIntel"",""language"":""en-US"",""locale"":""en-US"",""timeZone"":""America/Los_Angeles"",""timezoneOffset"":420,""screen_width"":1366,""screen_height"":768,""scroll_width"":1366,""scroll_height"":607,""window_innerWidth"":1366,""window_innerHeight"":655,""devicePixelRatio"":1}",,,,13082.439999999999,response,,,,,,consent,click button,,19472,19454,6354.74,6345,6371.56,19487.76,,,,"{""participant"":""5e2360162828c461a8000585"",""STUDY_ID"":""64f8c92207ba404bcb356c90"",""SESSION_ID"":""64fb79e24502c4ebe97600d6"",""platform"":""prolific""}",
Welcome,html.Screen,1,2023-09-08T19:46:35.547Z,,,,asymmetry,30512.24,response,,,,,,continue,click button,,50003,50000,19449.96,19473,19487.76,49996.7,,,,,
trial,html.Screen,2_0_0,2023-09-08T19:46:40.306Z,,0,0,,4762.300000000003,response,ISIC_0069348.JPG,,ISIC_6997061.JPG,ISIC_6997061.JPG,true,0,keypress(z),500,54759,54759,49995.8,50004,49996.7,54761.26,1,6,1,,ISIC_0069348.JPG
sequence,flow.Sequence,2_0,2023-09-08T19:46:40.307Z,,0,,,4762.300000000003,completion,,,,,true,,,,54760,54759,49995.8,50004,49996.7,54761.26,1,6,,,
trial,html.Screen,2_1_0,2023-09-08T19:46:43.666Z,,0,0,,3355.739999999998,response,ISIC_0057368.JPG,,ISIC_0009529.JPG,ISIC_0009529.JPG,true,0,keypress(z),500,58117,58117,54760.12,54760,54761.26,58118.84,1,6,2,,ISIC_0057368.JPG
sequence,flow.Sequence,2_1,2023-09-08T19:46:43.667Z,,0,,,3355.739999999998,completion,,,,,true,,,,58118,58117,54760.12,54760,54761.26,58118.84,1,6,,,
trial,html.Screen,2_2_0,2023-09-08T19:46:48.595Z,,0,0,,4924.1600000000035,response,ISIC_0064954.JPG,,ISIC_9758671.JPG,ISIC_0064954.JPG,true,1,keypress(m),500,63044,63043,58117.9,58118,58118.84,63045.66,1,6,3,,ISIC_9758671.JPG
sequence,flow.Sequence,2_2,2023-09-08T19:46:48.595Z,,0,,,4924.1600000000035,completion,,,,,true,,,,63044,63043,58117.9,58118,58118.84,63045.66,1,6,,,
trial,html.Screen,2_3_0,2023-09-08T19:46:55.900Z,,0,0,,7299.3399999999965,response,ISIC_0000080.JPG,,ISIC_0005785.JPG,ISIC_0000080.JPG,true,1,keypress(m),500,70345,70345,63044.52,63045,63045.66,70355.38,1,6,4,,ISIC_0005785.JPG
sequence,flow.Sequence,2_3,2023-09-08T19:46:55.900Z,,0,,,7299.3399999999965,completion,,,,,true,,,,70346,70345,63044.52,63044,63045.66,70355.38,1,6,,,
trial,html.Screen,2_4_0,2023-09-08T19:46:59.234Z,,0,0,,3323.6199999999953,response,ISIC_5390060.JPG,,ISIC_7944028.JPG,ISIC_7944028.JPG,true,0,keypress(z),500,73680,73679,70346.48,70346,70355.38,73682.16,1,6,5,,ISIC_5390060.JPG
sequence,flow.Sequence,2_4,2023-09-08T19:46:59.234Z,,0,,,3323.6199999999953,completion,,,,,true,,,,73680,73679,70346.48,70346,70355.38,73682.16,1,6,,,
trial,html.Screen,2_5_0,2023-09-08T19:47:02.431Z,,0,0,,3190.8399999999965,response,ISIC_0794216.JPG,,ISIC_0010188.JPG,ISIC_0794216.JPG,true,1,keypress(m),500,76876,76873,73681,73681,73682.16,76880.14,1,6,6,,ISIC_0010188.JPG
sequence,flow.Sequence,2_5,2023-09-08T19:47:02.433Z,,0,,,3190.8399999999965,completion,,,,,true,,,,76878,76873,73681,73680,73682.16,76880.14,1,6,,,
loop,flow.Loop,2,2023-09-08T19:47:02.433Z,,,,,26876.300000000003,completion,,,,,true,,,,76879,76873,49995.8,50003,49996.7,76880.14,1,6,,,
exp_instructions,html.Screen,3,2023-09-08T19:47:11.326Z,,,,,8885.86,response,,,,,,continue,keypress(Space),,85770,85766,76878.98,76879,76880.14,85772.02,,,,,
trial,html.Screen,4_0_0,2023-09-08T19:47:15.142Z,,0,1,,3812.979999999996,response,ISIC_0012025.JPG,16,ISIC_5559730.JPG,ISIC_0012025.JPG,false,1,keypress(m),500,89586,89585,85770.78,85771,85772.02,89587.54,8,400,1,,ISIC_5559730.JPG
break,html.Screen,4_0_1,2023-09-08T19:47:15.143Z,,0,,,NaN,,,,,,false,,,,89587,89587,,89586,,89587.54,8,400,,,
break_continue,html.Screen,4_0_2,2023-09-08T19:47:15.144Z,,0,,,NaN,,,,,,false,,,,89588,89588,,89588,,89587.54,8,400,,,
sequence,flow.Sequence,4_0,2023-09-08T19:47:15.145Z,,0,,,3815.979999999996,completion,,,,,false,,,,89589,89588,85770.78,85770,85772.02,89587.54,8,400,,,
trial,html.Screen,4_1_0,2023-09-08T19:47:20.056Z,,0,1,,4911.460000000006,response,ISIC_0033612.JPG,10,ISIC_7022381.JPG,ISIC_0033612.JPG,false,1,keypress(m),500,94500,94499,89586.12,89589,89587.54,94501.56,8,400,2,,ISIC_7022381.JPG
break,html.Screen,4_1_1,2023-09-08T19:47:20.058Z,,0,,,NaN,,,,,,false,,,,94501,94500,,94500,,94501.56,8,400,,,
break_continue,html.Screen,4_1_2,2023-09-08T19:47:20.059Z,,0,,,NaN,,,,,,false,,,,94503,94501,,94501,,94501.56,8,400,,,
sequence,flow.Sequence,4_1,2023-09-08T19:47:20.060Z,,0,,,4913.460000000006,completion,,,,,false,,,,94503,94501,89586.12,89589,89587.54,94501.56,8,400,,,
trial,html.Screen,4_2_0,2023-09-08T19:47:24.730Z,,0,1,,4670.440000000002,response,ISIC_0010862.JPG,5,ISIC_0710431.JPG,ISIC_0710431.JPG,false,0,keypress(z),500,99173,99172,94500.4,94503,94501.56,99174.24,8,400,3,,ISIC_0010862.JPG
break,html.Screen,4_2_1,2023-09-08T19:47:24.730Z,,0,,,NaN,,,,,,false,,,,99173,99173,,99173,,99174.24,8,400,,,
break_continue,html.Screen,4_2_2,2023-09-08T19:47:24.731Z,,0,,,NaN,,,,,,false,,,,99175,99175,,99175,,99174.24,8,400,,,
sequence,flow.Sequence,4_2,2023-09-08T19:47:24.732Z,,0,,,4673.440000000002,completion,,,,,false,,,,99175,99175,94500.4,94503,94501.56,99174.24,8,400,,,
trial,html.Screen,4_3_0,2023-09-08T19:47:28.552Z,,0,1,,3820.7599999999948,response,ISIC_0011497.JPG,3,ISIC_1819358.JPG,ISIC_1819358.JPG,false,0,keypress(z),500,102996,102995,99173.14,99176,99174.24,102997,8,400,4,,ISIC_0011497.JPG
break,html.Screen,4_3_1,2023-09-08T19:47:28.554Z,,0,,,NaN,,,,,,false,,,,102997,102996,,102996,,102997,8,400,,,
break_continue,html.Screen,4_3_2,2023-09-08T19:47:28.554Z,,0,,,NaN,,,,,,false,,,,102997,102997,,102997,,102997,8,400,,,
sequence,flow.Sequence,4_3,2023-09-08T19:47:28.556Z,,0,,,3822.7599999999948,completion,,,,,false,,,,102998,102997,99173.14,99175,99174.24,102997,8,400,,,
trial,html.Screen,4_4_0,2023-09-08T19:47:33.067Z,,0,1,,4513,response,ISIC_0067719.JPG,13,ISIC_3996796.JPG,ISIC_0067719.JPG,false,1,keypress(m),500,107510,107510,102995.86,102999,102997,107511.38,8,400,5,,ISIC_3996796.JPG
break,html.Screen,4_4_1,2023-09-08T19:47:33.068Z,,0,,,NaN,,,,,,false,,,,107510,107510,,107510,,107511.38,8,400,,,
break_continue,html.Screen,4_4_2,2023-09-08T19:47:33.069Z,,0,,,NaN,,,,,,false,,,,107511,107511,,107511,,107511.38,8,400,,,
sequence,flow.Sequence,4_4,2023-09-08T19:47:33.069Z,,0,,,4514,completion,,,,,false,,,,107512,107511,102995.86,102999,102997,107511.38,8,400,,,
trial,html.Screen,4_5_0,2023-09-08T19:47:37.194Z,,0,1,,4124.619999999995,response,ISIC_0059303.JPG,8,ISIC_6640753.JPG,ISIC_6640753.JPG,false,0,keypress(z),500,111636,111636,107510.28,107512,107511.38,111637.88,8,400,6,,ISIC_0059303.JPG
break,html.Screen,4_5_1,2023-09-08T19:47:37.196Z,,0,,,NaN,,,,,,false,,,,111638,111637,,111637,,111637.88,8,400,,,
break_continue,html.Screen,4_5_2,2023-09-08T19:47:37.196Z,,0,,,NaN,,,,,,false,,,,111638,111638,,111638,,111637.88,8,400,,,
sequence,flow.Sequence,4_5,2023-09-08T19:47:37.197Z,,0,,,4126.619999999995,completion,,,,,false,,,,111639,111638,107510.28,107512,107511.38,111637.88,8,400,,,
trial,html.Screen,4_6_0,2023-09-08T19:47:43.070Z,,0,1,,5874.119999999995,response,ISIC_4756979.JPG,5,ISIC_0014708.JPG,ISIC_0014708.JPG,false,0,keypress(z),500,117512,117512,111636.72,111639,111637.88,117513.66,8,400,7,,ISIC_4756979.JPG
break,html.Screen,4_6_1,2023-09-08T19:47:43.071Z,,0,,,NaN,,,,,,false,,,,117513,117513,,117513,,117513.66,8,400,,,
break_continue,html.Screen,4_6_2,2023-09-08T19:47:43.072Z,,0,,,NaN,,,,,,false,,,,117514,117514,,117514,,117513.66,8,400,,,
sequence,flow.Sequence,4_6,2023-09-08T19:47:43.072Z,,0,,,5876.119999999995,completion,,,,,false,,,,117514,117514,111636.72,111639,111637.88,117513.66,8,400,,,
trial,html.Screen,4_7_0,2023-09-08T19:47:48.298Z,,0,1,,5227.3399999999965,response,ISIC_0009048.JPG,5,ISIC_0071050.JPG,ISIC_0009048.JPG,false,1,keypress(m),500,122741,122741,117512.52,117515,117513.66,122741.8,8,400,8,,ISIC_0071050.JPG
break,html.Screen,4_7_1,2023-09-08T19:47:48.299Z,,0,,,NaN,,,,,,false,,,,122741,122741,,122741,,122741.8,8,400,,,
break_continue,html.Screen,4_7_2,2023-09-08T19:47:48.300Z,,0,,,NaN,,,,,,false,,,,122742,122742,,122742,,122741.8,8,400,,,
sequence,flow.Sequence,4_7,2023-09-08T19:47:48.300Z,,0,,,5228.3399999999965,completion,,,,,false,,,,122743,122742,117512.52,117515,117513.66,122741.8,8,400,,,
trial,html.Screen,4_8_0,2023-09-08T19:47:51.492Z,,0,1,,3192.199999999997,response,ISIC_2861793.JPG,13,ISIC_1102391.JPG,ISIC_1102391.JPG,false,0,keypress(z),500,125934,125934,122740.66,122743,122741.8,125935.42,8,400,9,,ISIC_2861793.JPG
break,html.Screen,4_8_1,2023-09-08T19:47:51.493Z,,0,,,NaN,,,,,,false,,,,125935,125935,,125935,,125935.42,8,400,,,
break_continue,html.Screen,4_8_2,2023-09-08T19:47:51.494Z,,0,,,NaN,,,,,,false,,,,125936,125936,,125936,,125935.42,8,400,,,
sequence,flow.Sequence,4_8,2023-09-08T19:47:51.495Z,,0,,,3194.199999999997,completion,,,,,false,,,,125936,125936,122740.66,122743,122741.8,125935.42,8,400,,,
trial,html.Screen,4_9_0,2023-09-08T19:47:57.036Z,,0,1,,5542.580000000002,response,ISIC_0067695.JPG,1,ISIC_0069395.JPG,ISIC_0069395.JPG,false,0,keypress(z),500,131478,131478,125934.3,125936,125935.42,131479.52,8,400,10,,ISIC_0067695.JPG
break,html.Screen,4_9_1,2023-09-08T19:47:57.037Z,,0,,,NaN,,,,,,false,,,,131480,131479,,131479,,131479.52,8,400,,,
break_continue,html.Screen,4_9_2,2023-09-08T19:47:57.038Z,,0,,,NaN,,,,,,false,,,,131481,131480,,131480,,131479.52,8,400,,,
sequence,flow.Sequence,4_9,2023-09-08T19:47:57.039Z,,0,,,5544.580000000002,completion,,,,,false,,,,131481,131480,125934.3,125936,125935.42,131479.52,8,400,,,
trial,html.Screen,4_10_0,2023-09-08T19:48:00.408Z,,0,1,,3369.4800000000105,response,ISIC_7397447.JPG,13,ISIC_0084086.JPG,ISIC_0084086.JPG,false,0,keypress(z),500,134849,134849,131478.34,131481,131479.52,134850.96,8,400,11,,ISIC_7397447.JPG
break,html.Screen,4_10_1,2023-09-08T19:48:00.410Z,,0,,,NaN,,,,,,false,,,,134851,134850,,134850,,134850.96,8,400,,,
break_continue,html.Screen,4_10_2,2023-09-08T19:48:00.410Z,,0,,,NaN,,,,,,false,,,,134851,134851,,134851,,134850.96,8,400,,,
sequence,flow.Sequence,4_10,2023-09-08T19:48:00.411Z,,0,,,3371.4800000000105,completion,,,,,false,,,,134852,134851,131478.34,131481,131479.52,134850.96,8,400,,,
trial,html.Screen,4_11_0,2023-09-08T19:48:06.681Z,,0,1,,6271.040000000008,response,ISIC_0064836.JPG,13,ISIC_0054559.JPG,ISIC_0054559.JPG,false,0,keypress(z),500,141122,141122,134849.76,134852,134850.96,141123.56,8,400,12,,ISIC_0064836.JPG
break,html.Screen,4_11_1,2023-09-08T19:48:06.681Z,,0,,,NaN,,,,,,false,,,,141123,141123,,141123,,141123.56,8,400,,,
break_continue,html.Screen,4_11_2,2023-09-08T19:48:06.682Z,,0,,,NaN,,,,,,false,,,,141124,141124,,141124,,141123.56,8,400,,,
sequence,flow.Sequence,4_11,2023-09-08T19:48:06.683Z,,0,,,6273.040000000008,completion,,,,,false,,,,141124,141124,134849.76,134852,134850.96,141123.56,8,400,,,
trial,html.Screen,4_12_0,2023-09-08T19:48:12.067Z,,0,1,,5383.440000000002,response,ISIC_1739667.JPG,18,ISIC_0014558.JPG,ISIC_1739667.JPG,false,1,keypress(m),500,146508,146507,141122.4,141124,141123.56,146509.38,8,400,13,,ISIC_0014558.JPG
break,html.Screen,4_12_1,2023-09-08T19:48:12.068Z,,0,,,NaN,,,,,,false,,,,146509,146508,,146508,,146509.38,8,400,,,
break_continue,html.Screen,4_12_2,2023-09-08T19:48:12.068Z,,0,,,NaN,,,,,,false,,,,146509,146509,,146509,,146509.38,8,400,,,
sequence,flow.Sequence,4_12,2023-09-08T19:48:12.068Z,,0,,,5385.440000000002,completion,,,,,false,,,,146510,146509,141122.4,141124,141123.56,146509.38,8,400,,,
trial,html.Screen,4_13_0,2023-09-08T19:48:15.204Z,,0,1,,3134.6199999999953,response,ISIC_0612080.JPG,8,ISIC_0010280.JPG,ISIC_0612080.JPG,false,1,keypress(m),500,149644,149644,146508.2,146510,146509.38,149646.3,8,400,14,,ISIC_0010280.JPG
break,html.Screen,4_13_1,2023-09-08T19:48:15.205Z,,0,,,NaN,,,,,,false,,,,149646,149645,,149645,,149646.3,8,400,,,
break_continue,html.Screen,4_13_2,2023-09-08T19:48:15.206Z,,0,,,NaN,,,,,,false,,,,149647,149646,,149646,,149646.3,8,400,,,
sequence,flow.Sequence,4_13,2023-09-08T19:48:15.207Z,,0,,,3136.6199999999953,completion,,,,,false,,,,149647,149646,146508.2,146510,146509.38,149646.3,8,400,,,
trial,html.Screen,4_14_0,2023-09-08T19:48:18.410Z,,0,1,,3203.7000000000116,response,ISIC_0034090.JPG,7,ISIC_8300954.JPG,ISIC_8300954.JPG,false,0,keypress(z),500,152851,152850,149645.12,149647,149646.3,152851.92,8,400,15,,ISIC_0034090.JPG
break,html.Screen,4_14_1,2023-09-08T19:48:18.411Z,,0,,,NaN,,,,,,false,,,,152852,152851,,152851,,152851.92,8,400,,,
break_continue,html.Screen,4_14_2,2023-09-08T19:48:18.411Z,,0,,,NaN,,,,,,false,,,,152853,152852,,152852,,152851.92,8,400,,,
sequence,flow.Sequence,4_14,2023-09-08T19:48:18.411Z,,0,,,3205.7000000000116,completion,,,,,false,,,,152853,152852,149645.12,149647,149646.3,152851.92,8,400,,,
trial,html.Screen,4_15_0,2023-09-08T19:48:22.842Z,,0,1,,4430.079999999987,response,ISIC_2457859.JPG,14,ISIC_4032636.JPG,ISIC_4032636.JPG,false,0,keypress(z),500,157283,157282,152850.56,152853,152851.92,157283.68,8,400,16,,ISIC_2457859.JPG
break,html.Screen,4_15_1,2023-09-08T19:48:22.843Z,,0,,,NaN,,,,,,false,,,,157284,157283,,157283,,157283.68,8,400,,,
break_continue,html.Screen,4_15_2,2023-09-08T19:48:22.843Z,,0,,,NaN,,,,,,false,,,,157284,157284,,157284,,157283.68,8,400,,,
sequence,flow.Sequence,4_15,2023-09-08T19:48:22.844Z,,0,,,4432.079999999987,completion,,,,,false,,,,157284,157284,152850.56,152853,152851.92,157283.68,8,400,,,
trial,html.Screen,4_16_0,2023-09-08T19:48:26.014Z,,0,1,,3170.320000000007,response,ISIC_0708542.JPG,0,ISIC_5960641.JPG,ISIC_0708542.JPG,false,1,keypress(m),500,160454,160454,157282.5,157285,157283.68,160456.18,8,400,17,,ISIC_5960641.JPG
break,html.Screen,4_16_1,2023-09-08T19:48:26.015Z,,0,,,NaN,,,,,,false,,,,160455,160455,,160454,,160456.18,8,400,,,
break_continue,html.Screen,4_16_2,2023-09-08T19:48:26.015Z,,0,,,NaN,,,,,,false,,,,160456,160456,,160456,,160456.18,8,400,,,
sequence,flow.Sequence,4_16,2023-09-08T19:48:26.016Z,,0,,,3172.320000000007,completion,,,,,false,,,,160456,160456,157282.5,157285,157283.68,160456.18,8,400,,,
trial,html.Screen,4_17_0,2023-09-08T19:48:31.486Z,,0,1,,5469.820000000007,response,ISIC_0068314.JPG,12,ISIC_0033061.JPG,ISIC_0033061.JPG,false,0,keypress(z),500,165926,165926,160454.76,160457,160456.18,165927.7,8,400,18,,ISIC_0068314.JPG
break,html.Screen,4_17_1,2023-09-08T19:48:31.487Z,,0,,,NaN,,,,,,false,,,,165927,165927,,165926,,165927.7,8,400,,,
break_continue,html.Screen,4_17_2,2023-09-08T19:48:31.488Z,,0,,,NaN,,,,,,false,,,,165928,165928,,165928,,165927.7,8,400,,,
sequence,flow.Sequence,4_17,2023-09-08T19:48:31.488Z,,0,,,5471.820000000007,completion,,,,,false,,,,165928,165928,160454.76,160457,160456.18,165927.7,8,400,,,
trial,html.Screen,4_18_0,2023-09-08T19:48:37.321Z,,0,1,,5833.299999999988,response,ISIC_7025208.JPG,12,ISIC_4532303.JPG,ISIC_4532303.JPG,false,0,keypress(z),500,171761,171761,165926.38,165929,165927.7,171762.8,8,400,19,,ISIC_7025208.JPG
break,html.Screen,4_18_1,2023-09-08T19:48:37.322Z,,0,,,NaN,,,,,,false,,,,171762,171762,,171762,,171762.8,8,400,,,
break_continue,html.Screen,4_18_2,2023-09-08T19:48:37.323Z,,0,,,NaN,,,,,,false,,,,171763,171762,,171762,,171762.8,8,400,,,
sequence,flow.Sequence,4_18,2023-09-08T19:48:37.323Z,,0,,,5834.299999999988,completion,,,,,false,,,,171763,171762,165926.38,165928,165927.7,171762.8,8,400,,,
trial,html.Screen,4_19_0,2023-09-08T19:48:40.319Z,,0,1,,2996.2000000000116,response,ISIC_0066470.JPG,2,ISIC_5287748.JPG,ISIC_5287748.JPG,false,0,keypress(z),500,174760,174759,171761.6,171764,171762.8,174761.58,8,400,20,,ISIC_0066470.JPG
break,html.Screen,4_19_1,2023-09-08T19:48:40.321Z,,0,,,NaN,,,,,,false,,,,174761,174761,,174760,,174761.58,8,400,,,
break_continue,html.Screen,4_19_2,2023-09-08T19:48:40.322Z,,0,,,NaN,,,,,,false,,,,174762,174762,,174761,,174761.58,8,400,,,
sequence,flow.Sequence,4_19,2023-09-08T19:48:40.323Z,,0,,,2999.2000000000116,completion,,,,,false,,,,174763,174762,171761.6,171764,171762.8,174761.58,8,400,,,
trial,html.Screen,4_20_0,2023-09-08T19:48:44.592Z,,0,1,,4270.420000000013,response,ISIC_8806357.JPG,17,ISIC_0056164.JPG,ISIC_0056164.JPG,false,0,keypress(z),500,179032,179032,174760.08,174763,174761.58,179033.64,8,400,21,,ISIC_8806357.JPG
break,html.Screen,4_20_1,2023-09-08T19:48:44.593Z,,0,,,NaN,,,,,,false,,,,179034,179033,,179033,,179033.64,8,400,,,
break_continue,html.Screen,4_20_2,2023-09-08T19:48:44.594Z,,0,,,NaN,,,,,,false,,,,179034,179034,,179034,,179033.64,8,400,,,
sequence,flow.Sequence,4_20,2023-09-08T19:48:44.595Z,,0,,,4272.420000000013,completion,,,,,false,,,,179035,179034,174760.08,174763,174761.58,179033.64,8,400,,,
trial,html.Screen,4_21_0,2023-09-08T19:48:49.083Z,,0,1,,4488.359999999986,response,ISIC_0070137.JPG,16,ISIC_0027214.JPG,ISIC_0027214.JPG,false,0,keypress(z),500,183522,183522,179032.46,179035,179033.64,183523.68,8,400,22,,ISIC_0070137.JPG
break,html.Screen,4_21_1,2023-09-08T19:48:49.083Z,,0,,,NaN,,,,,,false,,,,183523,183523,,183522,,183523.68,8,400,,,
break_continue,html.Screen,4_21_2,2023-09-08T19:48:49.083Z,,0,,,NaN,,,,,,false,,,,183524,183523,,183523,,183523.68,8,400,,,
sequence,flow.Sequence,4_21,2023-09-08T19:48:49.083Z,,0,,,4489.359999999986,completion,,,,,false,,,,183524,183523,179032.46,179035,179033.64,183523.68,8,400,,,
trial,html.Screen,4_22_0,2023-09-08T19:48:53.094Z,,0,1,,4010.320000000007,response,ISIC_6733338.JPG,16,ISIC_0148751.JPG,ISIC_0148751.JPG,false,0,keypress(z),500,187534,187534,183522.3,183524,183523.68,187536.02,8,400,23,,ISIC_6733338.JPG
break,html.Screen,4_22_1,2023-09-08T19:48:53.095Z,,0,,,NaN,,,,,,false,,,,187535,187535,,187535,,187536.02,8,400,,,
break_continue,html.Screen,4_22_2,2023-09-08T19:48:53.096Z,,0,,,NaN,,,,,,false,,,,187536,187536,,187535,,187536.02,8,400,,,
sequence,flow.Sequence,4_22,2023-09-08T19:48:53.096Z,,0,,,4012.320000000007,completion,,,,,false,,,,187536,187536,183522.3,183524,183523.68,187536.02,8,400,,,
trial,html.Screen,4_23_0,2023-09-08T19:48:56.516Z,,0,1,,3418.9800000000105,response,ISIC_9002603.JPG,2,ISIC_0025796.JPG,ISIC_9002603.JPG,false,1,keypress(m),500,190955,190955,187534.82,187537,187536.02,190957.1,8,400,24,,ISIC_0025796.JPG
break,html.Screen,4_23_1,2023-09-08T19:48:56.517Z,,0,,,NaN,,,,,,false,,,,190957,190957,,190955,,190957.1,8,400,,,
break_continue,html.Screen,4_23_2,2023-09-08T19:48:56.517Z,,0,,,NaN,,,,,,false,,,,190957,190957,,190957,,190957.1,8,400,,,
sequence,flow.Sequence,4_23,2023-09-08T19:48:56.518Z,,0,,,3420.9800000000105,completion,,,,,false,,,,190958,190957,187534.82,187537,187536.02,190957.1,8,400,,,
trial,html.Screen,4_24_0,2023-09-08T19:49:00.324Z,,0,1,,3806.899999999994,response,ISIC_6588982.JPG,5,ISIC_2349994.JPG,ISIC_6588982.JPG,false,1,keypress(m),500,194764,194764,190955.92,190959,190957.1,194764.98,8,400,25,,ISIC_2349994.JPG
break,html.Screen,4_24_1,2023-09-08T19:49:00.325Z,,0,,,NaN,,,,,,false,,,,194765,194765,,194764,,194764.98,8,400,,,
break_continue,html.Screen,4_24_2,2023-09-08T19:49:00.326Z,,0,,,NaN,,,,,,false,,,,194765,194765,,194765,,194764.98,8,400,,,
sequence,flow.Sequence,4_24,2023-09-08T19:49:00.326Z,,0,,,3807.899999999994,completion,,,,,false,,,,194765,194765,190955.92,190958,190957.1,194764.98,8,400,,,
trial,html.Screen,4_25_0,2023-09-08T19:49:04.764Z,,0,1,,4438.0199999999895,response,ISIC_3787504.JPG,17,ISIC_0024226.JPG,ISIC_0024226.JPG,false,0,keypress(z),500,199203,199203,194763.82,194765,194764.98,199204.34,8,400,26,,ISIC_3787504.JPG
break,html.Screen,4_25_1,2023-09-08T19:49:04.765Z,,0,,,NaN,,,,,,false,,,,199204,199204,,199203,,199204.34,8,400,,,
break_continue,html.Screen,4_25_2,2023-09-08T19:49:04.765Z,,0,,,NaN,,,,,,false,,,,199205,199204,,199204,,199204.34,8,400,,,
sequence,flow.Sequence,4_25,2023-09-08T19:49:04.765Z,,0,,,4439.0199999999895,completion,,,,,false,,,,199205,199204,194763.82,194765,194764.98,199204.34,8,400,,,
trial,html.Screen,4_26_0,2023-09-08T19:49:08.006Z,,0,1,,3241.6600000000035,response,ISIC_6297317.JPG,19,ISIC_2378428.JPG,ISIC_2378428.JPG,false,0,keypress(z),500,202446,202446,199203.18,199205,199204.34,202447.44,8,400,27,,ISIC_6297317.JPG
break,html.Screen,4_26_1,2023-09-08T19:49:08.008Z,,0,,,NaN,,,,,,false,,,,202447,202447,,202446,,202447.44,8,400,,,
break_continue,html.Screen,4_26_2,2023-09-08T19:49:08.008Z,,0,,,NaN,,,,,,false,,,,202448,202448,,202447,,202447.44,8,400,,,
sequence,flow.Sequence,4_26,2023-09-08T19:49:08.008Z,,0,,,3243.6600000000035,completion,,,,,false,,,,202448,202448,199203.18,199205,199204.34,202447.44,8,400,,,
trial,html.Screen,4_27_0,2023-09-08T19:49:14.280Z,,0,1,,6270.559999999998,response,ISIC_2596574.JPG,6,ISIC_0000444.JPG,ISIC_0000444.JPG,false,0,keypress(z),500,208719,208718,202446.22,202448,202447.44,208720.56,8,400,28,,ISIC_2596574.JPG
break,html.Screen,4_27_1,2023-09-08T19:49:14.281Z,,0,,,NaN,,,,,,false,,,,208720,208720,,208719,,208720.56,8,400,,,
break_continue,html.Screen,4_27_2,2023-09-08T19:49:14.282Z,,0,,,NaN,,,,,,false,,,,208720,208720,,208720,,208720.56,8,400,,,
sequence,flow.Sequence,4_27,2023-09-08T19:49:14.282Z,,0,,,6272.559999999998,completion,,,,,false,,,,208721,208720,202446.22,202448,202447.44,208720.56,8,400,,,
trial,html.Screen,4_28_0,2023-09-08T19:49:18.772Z,,0,1,,4489.440000000002,response,ISIC_0030437.JPG,14,ISIC_9745562.JPG,ISIC_9745562.JPG,false,0,keypress(z),500,213211,213210,208719.2,208721,208720.56,213212.52,8,400,29,,ISIC_0030437.JPG
break,html.Screen,4_28_1,2023-09-08T19:49:18.773Z,,0,,,NaN,,,,,,false,,,,213213,213212,,213212,,213212.52,8,400,,,
break_continue,html.Screen,4_28_2,2023-09-08T19:49:18.773Z,,0,,,NaN,,,,,,false,,,,213213,213213,,213213,,213212.52,8,400,,,
sequence,flow.Sequence,4_28,2023-09-08T19:49:18.774Z,,0,,,4492.440000000002,completion,,,,,false,,,,213213,213213,208719.2,208721,208720.56,213212.52,8,400,,,
trial,html.Screen,4_29_0,2023-09-08T19:49:23.092Z,,0,1,,4318.4800000000105,response,ISIC_0011733.JPG,12,ISIC_0072917.JPG,ISIC_0011733.JPG,false,1,keypress(m),500,217531,217531,213211.24,213214,213212.52,217532.32,8,400,30,,ISIC_0072917.JPG
break,html.Screen,4_29_1,2023-09-08T19:49:23.093Z,,0,,,NaN,,,,,,false,,,,217532,217532,,217531,,217532.32,8,400,,,
break_continue,html.Screen,4_29_2,2023-09-08T19:49:23.093Z,,0,,,NaN,,,,,,false,,,,217533,217533,,217532,,217532.32,8,400,,,
sequence,flow.Sequence,4_29,2023-09-08T19:49:23.093Z,,0,,,4320.4800000000105,completion,,,,,false,,,,217533,217533,213211.24,213214,213212.52,217532.32,8,400,,,
trial,html.Screen,4_30_0,2023-09-08T19:49:28.118Z,,0,1,,5024.679999999993,response,ISIC_4521222.JPG,11,ISIC_0061848.JPG,ISIC_4521222.JPG,false,1,keypress(m),500,222557,222557,217531.14,217533,217532.32,222558.56,8,400,31,,ISIC_0061848.JPG
break,html.Screen,4_30_1,2023-09-08T19:49:28.119Z,,0,,,NaN,,,,,,false,,,,222557,222557,,222557,,222558.56,8,400,,,
break_continue,html.Screen,4_30_2,2023-09-08T19:49:28.120Z,,0,,,NaN,,,,,,false,,,,222558,222558,,222558,,222558.56,8,400,,,
sequence,flow.Sequence,4_30,2023-09-08T19:49:28.120Z,,0,,,5025.679999999993,completion,,,,,false,,,,222559,222558,217531.14,217533,217532.32,222558.56,8,400,,,
trial,html.Screen,4_31_0,2023-09-08T19:49:34.026Z,,0,1,,5906.440000000002,response,ISIC_0063544.JPG,11,ISIC_0002258.JPG,ISIC_0002258.JPG,false,0,keypress(z),500,228465,228465,222556.88,222559,222558.56,228466.42,8,400,32,,ISIC_0063544.JPG
break,html.Screen,4_31_1,2023-09-08T19:49:34.028Z,,0,,,NaN,,,,,,false,,,,228466,228466,,228465,,228466.42,8,400,,,
break_continue,html.Screen,4_31_2,2023-09-08T19:49:34.028Z,,0,,,NaN,,,,,,false,,,,228467,228466,,228466,,228466.42,8,400,,,
sequence,flow.Sequence,4_31,2023-09-08T19:49:34.029Z,,0,,,5907.440000000002,completion,,,,,false,,,,228467,228466,222556.88,222559,222558.56,228466.42,8,400,,,
trial,html.Screen,4_32_0,2023-09-08T19:49:39.158Z,,0,1,,5128.579999999987,response,ISIC_2124213.JPG,2,ISIC_0027993.JPG,ISIC_2124213.JPG,false,1,keypress(m),500,233595,233595,228465.26,228467,228466.42,233597.1,8,400,33,,ISIC_0027993.JPG
break,html.Screen,4_32_1,2023-09-08T19:49:39.158Z,,0,,,NaN,,,,,,false,,,,233596,233596,,233595,,233597.1,8,400,,,
break_continue,html.Screen,4_32_2,2023-09-08T19:49:39.159Z,,0,,,NaN,,,,,,false,,,,233597,233596,,233596,,233597.1,8,400,,,
sequence,flow.Sequence,4_32,2023-09-08T19:49:39.160Z,,0,,,5129.579999999987,completion,,,,,false,,,,233598,233596,228465.26,228467,228466.42,233597.1,8,400,,,
trial,html.Screen,4_33_0,2023-09-08T19:49:42.673Z,,0,1,,3513.899999999994,response,ISIC_0011534.JPG,3,ISIC_0056900.JPG,ISIC_0056900.JPG,false,0,keypress(z),500,237111,237111,233595.78,233598,233597.1,237112.34,8,400,34,,ISIC_0011534.JPG
break,html.Screen,4_33_1,2023-09-08T19:49:42.674Z,,0,,,NaN,,,,,,false,,,,237112,237112,,237112,,237112.34,8,400,,,
break_continue,html.Screen,4_33_2,2023-09-08T19:49:42.674Z,,0,,,NaN,,,,,,false,,,,237112,237112,,237112,,237112.34,8,400,,,
sequence,flow.Sequence,4_33,2023-09-08T19:49:42.674Z,,0,,,3514.899999999994,completion,,,,,false,,,,237112,237112,233595.78,233598,233597.1,237112.34,8,400,,,
trial,html.Screen,4_34_0,2023-09-08T19:49:47.234Z,,0,1,,4559.6600000000035,response,ISIC_5929687.JPG,12,ISIC_3086579.JPG,ISIC_3086579.JPG,false,0,keypress(z),500,241672,241672,237111.2,237112,237112.34,241673.72,8,400,35,,ISIC_5929687.JPG
break,html.Screen,4_34_1,2023-09-08T19:49:47.236Z,,0,,,NaN,,,,,,false,,,,241673,241673,,241672,,241673.72,8,400,,,
break_continue,html.Screen,4_34_2,2023-09-08T19:49:47.236Z,,0,,,NaN,,,,,,false,,,,241674,241674,,241674,,241673.72,8,400,,,
sequence,flow.Sequence,4_34,2023-09-08T19:49:47.236Z,,0,,,4561.6600000000035,completion,,,,,false,,,,241674,241674,237111.2,237112,237112.34,241673.72,8,400,,,
trial,html.Screen,4_35_0,2023-09-08T19:49:54.460Z,,0,1,,7224.279999999999,response,ISIC_0024308.JPG,4,ISIC_4119029.JPG,ISIC_4119029.JPG,false,0,keypress(z),500,248898,248898,241672.62,241674,241673.72,248899,8,400,36,,ISIC_0024308.JPG
break,html.Screen,4_35_1,2023-09-08T19:49:54.461Z,,0,,,NaN,,,,,,false,,,,248898,248898,,248898,,248899,8,400,,,
break_continue,html.Screen,4_35_2,2023-09-08T19:49:54.462Z,,0,,,NaN,,,,,,false,,,,248899,248899,,248899,,248899,8,400,,,
sequence,flow.Sequence,4_35,2023-09-08T19:49:54.462Z,,0,,,7225.279999999999,completion,,,,,false,,,,248899,248899,241672.62,241674,241673.72,248899,8,400,,,
trial,html.Screen,4_36_0,2023-09-08T19:49:59.832Z,,0,1,,5371,response,ISIC_8955135.JPG,15,ISIC_8622365.JPG,ISIC_8955135.JPG,false,1,keypress(m),500,254270,254270,248897.86,248899,248899,254271.78,8,400,37,,ISIC_8622365.JPG
break,html.Screen,4_36_1,2023-09-08T19:49:59.833Z,,0,,,NaN,,,,,,false,,,,254271,254271,,254270,,254271.78,8,400,,,
break_continue,html.Screen,4_36_2,2023-09-08T19:49:59.834Z,,0,,,NaN,,,,,,false,,,,254272,254272,,254272,,254271.78,8,400,,,
sequence,flow.Sequence,4_36,2023-09-08T19:49:59.834Z,,0,,,5373,completion,,,,,false,,,,254273,254272,248897.86,248899,248899,254271.78,8,400,,,
trial,html.Screen,4_37_0,2023-09-08T19:50:04.175Z,,0,1,,4341.220000000001,response,ISIC_0025573.JPG,12,ISIC_0059609.JPG,ISIC_0059609.JPG,false,0,keypress(z),500,258613,258613,254270.6,254273,254271.78,258615.34,8,400,38,,ISIC_0025573.JPG
break,html.Screen,4_37_1,2023-09-08T19:50:04.176Z,,0,,,NaN,,,,,,false,,,,258613,258613,,258613,,258615.34,8,400,,,
break_continue,html.Screen,4_37_2,2023-09-08T19:50:04.177Z,,0,,,NaN,,,,,,false,,,,258615,258614,,258614,,258615.34,8,400,,,
sequence,flow.Sequence,4_37,2023-09-08T19:50:04.177Z,,0,,,4342.220000000001,completion,,,,,false,,,,258615,258614,254270.6,254273,254271.78,258615.34,8,400,,,
trial,html.Screen,4_38_0,2023-09-08T19:50:09.101Z,,0,1,,4923.6600000000035,response,ISIC_0010231.JPG,11,ISIC_1605629.JPG,ISIC_1605629.JPG,false,0,keypress(z),500,263539,263539,258613.48,258615,258615.34,263540.4,8,400,39,,ISIC_0010231.JPG
break,html.Screen,4_38_1,2023-09-08T19:50:09.102Z,,0,,,NaN,,,,,,false,,,,263540,263540,,263540,,263540.4,8,400,,,
break_continue,html.Screen,4_38_2,2023-09-08T19:50:09.103Z,,0,,,NaN,,,,,,false,,,,263541,263541,,263541,,263540.4,8,400,,,
sequence,flow.Sequence,4_38,2023-09-08T19:50:09.104Z,,0,,,4925.6600000000035,completion,,,,,false,,,,263541,263541,258613.48,258615,258615.34,263540.4,8,400,,,
trial,html.Screen,4_39_0,2023-09-08T19:50:13.986Z,,0,1,,4881.599999999977,response,ISIC_0046597.JPG,14,ISIC_0289478.JPG,ISIC_0046597.JPG,false,1,keypress(m),500,268423,268422,263539.2,263541,263540.4,268424.1,8,400,40,,ISIC_0289478.JPG
break,html.Screen,4_39_1,2023-09-08T19:50:13.986Z,,0,,,NaN,,,,,,false,,,,268424,268423,,268423,,268424.1,8,400,,,
break_continue,html.Screen,4_39_2,2023-09-08T19:50:13.986Z,,0,,,NaN,,,,,,false,,,,268424,268424,,268424,,268424.1,8,400,,,
sequence,flow.Sequence,4_39,2023-09-08T19:50:13.987Z,,0,,,4883.599999999977,completion,,,,,false,,,,268424,268424,263539.2,263541,263540.4,268424.1,8,400,,,
trial,html.Screen,4_40_0,2023-09-08T19:50:18.868Z,,0,1,,4880.900000000023,response,ISIC_1983754.JPG,19,ISIC_3777798.JPG,ISIC_1983754.JPG,false,1,keypress(m),500,273305,273305,268422.9,268425,268424.1,273306.96,8,400,41,,ISIC_3777798.JPG
break,html.Screen,4_40_1,2023-09-08T19:50:18.869Z,,0,,,NaN,,,,,,false,,,,273306,273305,,273305,,273306.96,8,400,,,
break_continue,html.Screen,4_40_2,2023-09-08T19:50:18.870Z,,0,,,NaN,,,,,,false,,,,273306,273306,,273306,,273306.96,8,400,,,
sequence,flow.Sequence,4_40,2023-09-08T19:50:18.870Z,,0,,,4881.900000000023,completion,,,,,false,,,,273308,273306,268422.9,268424,268424.1,273306.96,8,400,,,
trial,html.Screen,4_41_0,2023-09-08T19:50:24.777Z,,0,1,,5907.039999999979,response,ISIC_4237064.JPG,13,ISIC_4641968.JPG,ISIC_4641968.JPG,false,0,keypress(z),500,279214,279214,273305.46,273308,273306.96,279215.42,8,400,42,,ISIC_4237064.JPG
break,html.Screen,4_41_1,2023-09-08T19:50:24.778Z,,0,,,NaN,,,,,,false,,,,279215,279215,,279214,,279215.42,8,400,,,
break_continue,html.Screen,4_41_2,2023-09-08T19:50:24.779Z,,0,,,NaN,,,,,,false,,,,279216,279216,,279215,,279215.42,8,400,,,
sequence,flow.Sequence,4_41,2023-09-08T19:50:24.779Z,,0,,,5909.039999999979,completion,,,,,false,,,,279216,279216,273305.46,273308,273306.96,279215.42,8,400,,,
trial,html.Screen,4_42_0,2023-09-08T19:50:29.407Z,,0,1,,4628.580000000016,response,ISIC_8995044.JPG,4,ISIC_0941332.JPG,ISIC_8995044.JPG,false,1,keypress(m),500,283844,283844,279214.28,279216,279215.42,283845.3,8,400,43,,ISIC_0941332.JPG
break,html.Screen,4_42_1,2023-09-08T19:50:29.407Z,,0,,,NaN,,,,,,false,,,,283845,283845,,283844,,283845.3,8,400,,,
break_continue,html.Screen,4_42_2,2023-09-08T19:50:29.408Z,,0,,,NaN,,,,,,false,,,,283845,283845,,283845,,283845.3,8,400,,,
sequence,flow.Sequence,4_42,2023-09-08T19:50:29.408Z,,0,,,4629.580000000016,completion,,,,,false,,,,283845,283845,279214.28,279216,279215.42,283845.3,8,400,,,
trial,html.Screen,4_43_0,2023-09-08T19:50:33.503Z,,0,1,,4093.7000000000116,response,ISIC_0000660.JPG,18,ISIC_0028641.JPG,ISIC_0028641.JPG,false,0,keypress(z),500,287940,287939,283844.16,283845,283845.3,287940.64,8,400,44,,ISIC_0000660.JPG
break,html.Screen,4_43_1,2023-09-08T19:50:33.504Z,,0,,,NaN,,,,,,false,,,,287940,287940,,287940,,287940.64,8,400,,,
break_continue,html.Screen,4_43_2,2023-09-08T19:50:33.504Z,,0,,,NaN,,,,,,false,,,,287941,287941,,287941,,287940.64,8,400,,,
sequence,flow.Sequence,4_43,2023-09-08T19:50:33.505Z,,0,,,4095.7000000000116,completion,,,,,false,,,,287941,287941,283844.16,283845,283845.3,287940.64,8,400,,,
trial,html.Screen,4_44_0,2023-09-08T19:50:36.996Z,,0,1,,3491.359999999986,response,ISIC_3825641.JPG,7,ISIC_2463014.JPG,ISIC_2463014.JPG,false,0,keypress(z),500,291432,291432,287939.48,287941,287940.64,291434.12,8,400,45,,ISIC_3825641.JPG
break,html.Screen,4_44_1,2023-09-08T19:50:36.997Z,,0,,,NaN,,,,,,false,,,,291433,291433,,291432,,291434.12,8,400,,,
break_continue,html.Screen,4_44_2,2023-09-08T19:50:36.998Z,,0,,,NaN,,,,,,false,,,,291434,291434,,291433,,291434.12,8,400,,,
sequence,flow.Sequence,4_44,2023-09-08T19:50:36.998Z,,0,,,3493.359999999986,completion,,,,,false,,,,291434,291434,287939.48,287941,287940.64,291434.12,8,400,,,
trial,html.Screen,4_45_0,2023-09-08T19:50:43.974Z,,0,1,,6975.880000000005,response,ISIC_0066321.JPG,2,ISIC_4762702.JPG,ISIC_4762702.JPG,false,0,keypress(z),500,298411,298410,291432.66,291434,291434.12,298412.26,8,400,46,,ISIC_0066321.JPG
break,html.Screen,4_45_1,2023-09-08T19:50:43.975Z,,0,,,NaN,,,,,,false,,,,298412,298411,,298411,,298412.26,8,400,,,
break_continue,html.Screen,4_45_2,2023-09-08T19:50:43.975Z,,0,,,NaN,,,,,,false,,,,298412,298412,,298412,,298412.26,8,400,,,
sequence,flow.Sequence,4_45,2023-09-08T19:50:43.976Z,,0,,,6977.880000000005,completion,,,,,false,,,,298412,298412,291432.66,291434,291434.12,298412.26,8,400,,,
trial,html.Screen,4_46_0,2023-09-08T19:50:47.599Z,,0,1,,3622.7399999999907,response,ISIC_6209119.JPG,13,ISIC_1202976.JPG,ISIC_6209119.JPG,false,1,keypress(m),500,302036,302035,298411.12,298413,298412.26,302037.38,8,400,47,,ISIC_1202976.JPG
break,html.Screen,4_46_1,2023-09-08T19:50:47.600Z,,0,,,NaN,,,,,,false,,,,302037,302036,,302036,,302037.38,8,400,,,
break_continue,html.Screen,4_46_2,2023-09-08T19:50:47.600Z,,0,,,NaN,,,,,,false,,,,302037,302037,,302037,,302037.38,8,400,,,
sequence,flow.Sequence,4_46,2023-09-08T19:50:47.601Z,,0,,,3624.7399999999907,completion,,,,,false,,,,302037,302037,298411.12,298413,298412.26,302037.38,8,400,,,
trial,html.Screen,4_47_0,2023-09-08T19:50:51.242Z,,0,1,,3640.6199999999953,response,ISIC_0016128.JPG,9,ISIC_0026963.JPG,ISIC_0016128.JPG,false,1,keypress(m),500,305678,305678,302036.06,302038,302037.38,305679.54,8,400,48,,ISIC_0026963.JPG
break,html.Screen,4_47_1,2023-09-08T19:50:51.243Z,,0,,,NaN,,,,,,false,,,,305679,305679,,305678,,305679.54,8,400,,,
break_continue,html.Screen,4_47_2,2023-09-08T19:50:51.243Z,,0,,,NaN,,,,,,false,,,,305679,305679,,305679,,305679.54,8,400,,,
sequence,flow.Sequence,4_47,2023-09-08T19:50:51.243Z,,0,,,3641.6199999999953,completion,,,,,false,,,,305680,305679,302036.06,302037,302037.38,305679.54,8,400,,,
trial,html.Screen,4_48_0,2023-09-08T19:50:58.371Z,,0,1,,7128.460000000021,response,ISIC_0028397.JPG,7,ISIC_8663136.JPG,ISIC_0028397.JPG,false,1,keypress(m),500,312808,312808,305678.4,305680,305679.54,312809.18,8,400,49,,ISIC_8663136.JPG
break,html.Screen,4_48_1,2023-09-08T19:50:58.372Z,,0,,,NaN,,,,,,false,,,,312809,312809,,312808,,312809.18,8,400,,,
break_continue,html.Screen,4_48_2,2023-09-08T19:50:58.373Z,,0,,,NaN,,,,,,false,,,,312810,312809,,312809,,312809.18,8,400,,,
sequence,flow.Sequence,4_48,2023-09-08T19:50:58.373Z,,0,,,7129.460000000021,completion,,,,,false,,,,312810,312809,305678.4,305680,305679.54,312809.18,8,400,,,
trial,html.Screen,4_49_0,2023-09-08T19:51:03.359Z,,0,1,,4984.820000000007,response,ISIC_0071906.JPG,8,ISIC_4411889.JPG,ISIC_4411889.JPG,false,0,keypress(z),500,317794,317794,312808.02,312810,312809.18,317795.8,8,400,50,,ISIC_0071906.JPG
break,html.Screen,4_49_1,2023-09-08T19:51:13.337Z,,0,,,9993.140000000014,timeout,,,,,false,,,,327773,327772.28,317794.66,317794,317795.8,327788.94,8,400,,,
break_continue,html.Screen,4_49_2,2023-09-08T19:51:15.024Z,,0,,,1660.0599999999977,response,,,,,false,continue,keypress(Space),,329460,329449,327772.28,327773,327788.94,329460.86,8,400,,,
sequence,flow.Sequence,4_49,2023-09-08T19:51:15.024Z,,0,,,16639.820000000007,completion,,,,,false,,,,329460,329449,312808.02,312810,312809.18,329460.86,8,400,,,
trial,html.Screen,4_50_0,2023-09-08T19:51:20.043Z,,0,2,,5017.140000000014,response,ISIC_8693637.JPG,4,ISIC_5581931.JPG,ISIC_8693637.JPG,false,1,keypress(m),500,334479,334478,329459.98,329460,329460.86,334479.66,8,400,1,,ISIC_5581931.JPG
break,html.Screen,4_50_1,2023-09-08T19:51:20.044Z,,0,,,NaN,,,,,,false,,,,334479,334479,,334479,,334479.66,8,400,,,
break_continue,html.Screen,4_50_2,2023-09-08T19:51:20.045Z,,0,,,NaN,,,,,,false,,,,334480,334480,,334480,,334479.66,8,400,,,
sequence,flow.Sequence,4_50,2023-09-08T19:51:20.045Z,,0,,,5019.140000000014,completion,,,,,false,,,,334480,334480,329459.98,329460,329460.86,334479.66,8,400,,,
trial,html.Screen,4_51_0,2023-09-08T19:51:22.957Z,,0,2,,2911.3400000000256,response,ISIC_0026407.JPG,7,ISIC_2733056.JPG,ISIC_0026407.JPG,false,1,keypress(m),500,337392,337391,334478.48,334480,334479.66,337393.34,8,400,2,,ISIC_2733056.JPG
break,html.Screen,4_51_1,2023-09-08T19:51:22.958Z,,0,,,NaN,,,,,,false,,,,337393,337392,,337392,,337393.34,8,400,,,
break_continue,html.Screen,4_51_2,2023-09-08T19:51:22.958Z,,0,,,NaN,,,,,,false,,,,337393,337393,,337393,,337393.34,8,400,,,
sequence,flow.Sequence,4_51,2023-09-08T19:51:22.959Z,,0,,,2913.3400000000256,completion,,,,,false,,,,337393,337393,334478.48,334480,334479.66,337393.34,8,400,,,
trial,html.Screen,4_52_0,2023-09-08T19:51:25.803Z,,0,2,,2844.6599999999744,response,ISIC_0033087.JPG,0,ISIC_2997601.JPG,ISIC_2997601.JPG,false,0,keypress(z),500,340238,340238,337392.2,337393,337393.34,340239.5,8,400,3,,ISIC_0033087.JPG
break,html.Screen,4_52_1,2023-09-08T19:51:25.804Z,,0,,,NaN,,,,,,false,,,,340239,340239,,340239,,340239.5,8,400,,,
break_continue,html.Screen,4_52_2,2023-09-08T19:51:25.805Z,,0,,,NaN,,,,,,false,,,,340239,340239,,340239,,340239.5,8,400,,,
sequence,flow.Sequence,4_52,2023-09-08T19:51:25.805Z,,0,,,2845.6599999999744,completion,,,,,false,,,,340240,340239,337392.2,337393,337393.34,340239.5,8,400,,,
trial,html.Screen,4_53_0,2023-09-08T19:51:29.338Z,,0,2,,3533.5,response,ISIC_8310944.JPG,17,ISIC_0000142.JPG,ISIC_0000142.JPG,false,0,keypress(z),500,343773,343773,340238.32,340240,340239.5,343774.64,8,400,4,,ISIC_8310944.JPG
break,html.Screen,4_53_1,2023-09-08T19:51:29.340Z,,0,,,NaN,,,,,,false,,,,343774,343774,,343773,,343774.64,8,400,,,
break_continue,html.Screen,4_53_2,2023-09-08T19:51:29.340Z,,0,,,NaN,,,,,,false,,,,343775,343775,,343774,,343774.64,8,400,,,
sequence,flow.Sequence,4_53,2023-09-08T19:51:29.340Z,,0,,,3535.5,completion,,,,,false,,,,343775,343775,340238.32,340240,340239.5,343774.64,8,400,,,
trial,html.Screen,4_54_0,2023-09-08T19:51:33.185Z,,0,2,,3845.359999999986,response,ISIC_0001141.JPG,15,ISIC_2309744.JPG,ISIC_0001141.JPG,false,1,keypress(m),500,347621,347620,343773.46,343775,343774.64,347622,8,400,5,,ISIC_2309744.JPG
break,html.Screen,4_54_1,2023-09-08T19:51:33.186Z,,0,,,NaN,,,,,,false,,,,347622,347621,,347621,,347622,8,400,,,
break_continue,html.Screen,4_54_2,2023-09-08T19:51:33.187Z,,0,,,NaN,,,,,,false,,,,347622,347622,,347622,,347622,8,400,,,
sequence,flow.Sequence,4_54,2023-09-08T19:51:33.187Z,,0,,,3847.359999999986,completion,,,,,false,,,,347622,347622,343773.46,343775,343774.64,347622,8,400,,,
trial,html.Screen,4_55_0,2023-09-08T19:51:36.161Z,,0,2,,2973,response,ISIC_0009941.JPG,4,ISIC_0519386.JPG,ISIC_0009941.JPG,false,1,keypress(m),500,350595,350595,347621.04,347622,347622,350597.06,8,400,6,,ISIC_0519386.JPG
break,html.Screen,4_55_1,2023-09-08T19:51:36.162Z,,0,,,NaN,,,,,,false,,,,350596,350596,,350595,,350597.06,8,400,,,
break_continue,html.Screen,4_55_2,2023-09-08T19:51:36.163Z,,0,,,NaN,,,,,,false,,,,350597,350596,,350596,,350597.06,8,400,,,
sequence,flow.Sequence,4_55,2023-09-08T19:51:36.163Z,,0,,,2974,completion,,,,,false,,,,350597,350596,347621.04,347622,347622,350597.06,8,400,,,
trial,html.Screen,4_56_0,2023-09-08T19:51:39.688Z,,0,2,,3524.9400000000023,response,ISIC_0012288.JPG,0,ISIC_4964478.JPG,ISIC_4964478.JPG,false,0,keypress(z),500,354122,354122,350595.88,350597,350597.06,354123.54,8,400,7,,ISIC_0012288.JPG
break,html.Screen,4_56_1,2023-09-08T19:51:39.689Z,,0,,,NaN,,,,,,false,,,,354123,354123,,354122,,354123.54,8,400,,,
break_continue,html.Screen,4_56_2,2023-09-08T19:51:39.689Z,,0,,,NaN,,,,,,false,,,,354123,354123,,354123,,354123.54,8,400,,,
sequence,flow.Sequence,4_56,2023-09-08T19:51:39.689Z,,0,,,3525.9400000000023,completion,,,,,false,,,,354124,354123,350595.88,350597,350597.06,354123.54,8,400,,,
trial,html.Screen,4_57_0,2023-09-08T19:51:42.880Z,,0,2,,3191.460000000021,response,ISIC_2006783.JPG,0,ISIC_0067172.JPG,ISIC_0067172.JPG,false,0,keypress(z),500,357315,357315,354122.4,354124,354123.54,357316.34,8,400,8,,ISIC_2006783.JPG
break,html.Screen,4_57_1,2023-09-08T19:51:42.881Z,,0,,,NaN,,,,,,false,,,,357316,357316,,357315,,357316.34,8,400,,,
break_continue,html.Screen,4_57_2,2023-09-08T19:51:42.881Z,,0,,,NaN,,,,,,false,,,,357316,357316,,357316,,357316.34,8,400,,,
sequence,flow.Sequence,4_57,2023-09-08T19:51:42.882Z,,0,,,3192.460000000021,completion,,,,,false,,,,357317,357316,354122.4,354124,354123.54,357316.34,8,400,,,
trial,html.Screen,4_58_0,2023-09-08T19:51:46.348Z,,0,2,,3465.6599999999744,response,ISIC_8887039.JPG,7,ISIC_0032112.JPG,ISIC_8887039.JPG,false,1,keypress(m),500,360783,360782,357315.22,357317,357316.34,360784.3,8,400,9,,ISIC_0032112.JPG
break,html.Screen,4_58_1,2023-09-08T19:51:46.349Z,,0,,,NaN,,,,,,false,,,,360784,360783,,360783,,360784.3,8,400,,,
break_continue,html.Screen,4_58_2,2023-09-08T19:51:46.350Z,,0,,,NaN,,,,,,false,,,,360785,360784,,360784,,360784.3,8,400,,,
sequence,flow.Sequence,4_58,2023-09-08T19:51:46.350Z,,0,,,3467.6599999999744,completion,,,,,false,,,,360785,360784,357315.22,357317,357316.34,360784.3,8,400,,,
trial,html.Screen,4_59_0,2023-09-08T19:51:49.806Z,,0,2,,3456.7000000000116,response,ISIC_0006116.JPG,3,ISIC_6227397.JPG,ISIC_0006116.JPG,false,1,keypress(m),500,364241,364241,360783.16,360785,360784.3,364242.2,8,400,10,,ISIC_6227397.JPG
break,html.Screen,4_59_1,2023-09-08T19:51:49.807Z,,0,,,NaN,,,,,,false,,,,364241,364241,,364241,,364242.2,8,400,,,
break_continue,html.Screen,4_59_2,2023-09-08T19:51:49.808Z,,0,,,NaN,,,,,,false,,,,364242,364242,,364242,,364242.2,8,400,,,
sequence,flow.Sequence,4_59,2023-09-08T19:51:49.809Z,,0,,,3457.7000000000116,completion,,,,,false,,,,364243,364242,360783.16,360785,360784.3,364242.2,8,400,,,
trial,html.Screen,4_60_0,2023-09-08T19:51:54.977Z,,0,2,,5169.799999999988,response,ISIC_5278307.JPG,8,ISIC_1807276.JPG,ISIC_1807276.JPG,false,0,keypress(z),500,369412,369412,364240.88,364243,364242.2,369413.32,8,400,11,,ISIC_5278307.JPG
break,html.Screen,4_60_1,2023-09-08T19:51:54.978Z,,0,,,NaN,,,,,,false,,,,369413,369413,,369412,,369413.32,8,400,,,
break_continue,html.Screen,4_60_2,2023-09-08T19:51:54.979Z,,0,,,NaN,,,,,,false,,,,369414,369413,,369413,,369413.32,8,400,,,
sequence,flow.Sequence,4_60,2023-09-08T19:51:54.979Z,,0,,,5170.799999999988,completion,,,,,false,,,,369414,369413,364240.88,364243,364242.2,369413.32,8,400,,,
trial,html.Screen,4_61_0,2023-09-08T19:51:59.907Z,,0,2,,4927.679999999993,response,ISIC_0029902.JPG,4,ISIC_7251402.JPG,ISIC_7251402.JPG,false,0,keypress(z),500,374342,374341,369412.18,369414,369413.32,374342.82,8,400,12,,ISIC_0029902.JPG
break,html.Screen,4_61_1,2023-09-08T19:51:59.908Z,,0,,,NaN,,,,,,false,,,,374343,374342,,374342,,374342.82,8,400,,,
break_continue,html.Screen,4_61_2,2023-09-08T19:51:59.909Z,,0,,,NaN,,,,,,false,,,,374343,374343,,374343,,374342.82,8,400,,,
sequence,flow.Sequence,4_61,2023-09-08T19:51:59.909Z,,0,,,4929.679999999993,completion,,,,,false,,,,374343,374343,369412.18,369414,369413.32,374342.82,8,400,,,
trial,html.Screen,4_62_0,2023-09-08T19:52:03.173Z,,0,2,,3265.179999999993,response,ISIC_2000319.JPG,13,ISIC_8535134.JPG,ISIC_8535134.JPG,false,0,keypress(z),500,377608,377608,374341.66,374344,374342.82,377609.56,8,400,13,,ISIC_2000319.JPG
break,html.Screen,4_62_1,2023-09-08T19:52:03.175Z,,0,,,NaN,,,,,,false,,,,377609,377609,,377608,,377609.56,8,400,,,
break_continue,html.Screen,4_62_2,2023-09-08T19:52:03.175Z,,0,,,NaN,,,,,,false,,,,377610,377610,,377609,,377609.56,8,400,,,
sequence,flow.Sequence,4_62,2023-09-08T19:52:03.175Z,,0,,,3267.179999999993,completion,,,,,false,,,,377610,377610,374341.66,374344,374342.82,377609.56,8,400,,,
trial,html.Screen,4_63_0,2023-09-08T19:52:06.558Z,,0,2,,3381.4400000000023,response,ISIC_0024232.JPG,2,ISIC_0028998.JPG,ISIC_0028998.JPG,false,0,keypress(z),500,380991,380991,377608.14,377610,377609.56,380993.24,8,400,14,,ISIC_0024232.JPG
break,html.Screen,4_63_1,2023-09-08T19:52:06.559Z,,0,,,NaN,,,,,,false,,,,380992,380992,,380991,,380993.24,8,400,,,
break_continue,html.Screen,4_63_2,2023-09-08T19:52:06.560Z,,0,,,NaN,,,,,,false,,,,380993,380993,,380993,,380993.24,8,400,,,
sequence,flow.Sequence,4_63,2023-09-08T19:52:06.560Z,,0,,,3383.4400000000023,completion,,,,,false,,,,380994,380993,377608.14,377610,377609.56,380993.24,8,400,,,
trial,html.Screen,4_64_0,2023-09-08T19:52:11.864Z,,0,2,,5304.760000000009,response,ISIC_0001100.JPG,14,ISIC_0046640.JPG,ISIC_0046640.JPG,false,0,keypress(z),500,386298,386298,380991.72,380994,380993.24,386299.06,8,400,15,,ISIC_0001100.JPG
break,html.Screen,4_64_1,2023-09-08T19:52:11.865Z,,0,,,NaN,,,,,,false,,,,386299,386299,,386298,,386299.06,8,400,,,
break_continue,html.Screen,4_64_2,2023-09-08T19:52:11.865Z,,0,,,NaN,,,,,,false,,,,386299,386299,,386299,,386299.06,8,400,,,
sequence,flow.Sequence,4_64,2023-09-08T19:52:11.865Z,,0,,,5305.760000000009,completion,,,,,false,,,,386300,386299,380991.72,380994,380993.24,386299.06,8,400,,,
trial,html.Screen,4_65_0,2023-09-08T19:52:15.189Z,,0,2,,3323.9400000000023,response,ISIC_0924902.JPG,15,ISIC_7299025.JPG,ISIC_0924902.JPG,false,1,keypress(m),500,389623,389623,386297.92,386300,386299.06,389624.08,8,400,16,,ISIC_7299025.JPG
break,html.Screen,4_65_1,2023-09-08T19:52:15.190Z,,0,,,NaN,,,,,,false,,,,389624,389624,,389623,,389624.08,8,400,,,
break_continue,html.Screen,4_65_2,2023-09-08T19:52:15.190Z,,0,,,NaN,,,,,,false,,,,389624,389624,,389624,,389624.08,8,400,,,
sequence,flow.Sequence,4_65,2023-09-08T19:52:15.190Z,,0,,,3324.9400000000023,completion,,,,,false,,,,389624,389624,386297.92,386300,386299.06,389624.08,8,400,,,
trial,html.Screen,4_66_0,2023-09-08T19:52:20.042Z,,0,2,,4850.919999999984,response,ISIC_8650516.JPG,6,ISIC_3296136.JPG,ISIC_3296136.JPG,false,0,keypress(z),500,394476,394475,389622.88,389625,389624.08,394477.48,8,400,17,,ISIC_8650516.JPG
break,html.Screen,4_66_1,2023-09-08T19:52:20.044Z,,0,,,NaN,,,,,,false,,,,394477,394476,,394476,,394477.48,8,400,,,
break_continue,html.Screen,4_66_2,2023-09-08T19:52:20.044Z,,0,,,NaN,,,,,,false,,,,394477,394477,,394477,,394477.48,8,400,,,
sequence,flow.Sequence,4_66,2023-09-08T19:52:20.045Z,,0,,,4852.919999999984,completion,,,,,false,,,,394477,394477,389622.88,389625,389624.08,394477.48,8,400,,,
trial,html.Screen,4_67_0,2023-09-08T19:52:23.769Z,,0,2,,3724.5200000000186,response,ISIC_7980339.JPG,19,ISIC_3737487.JPG,ISIC_3737487.JPG,false,0,keypress(z),500,398203,398202,394476.3,394479,394477.48,398203.6,8,400,18,,ISIC_7980339.JPG
break,html.Screen,4_67_1,2023-09-08T19:52:23.769Z,,0,,,NaN,,,,,,false,,,,398203,398203,,398203,,398203.6,8,400,,,
break_continue,html.Screen,4_67_2,2023-09-08T19:52:23.770Z,,0,,,NaN,,,,,,false,,,,398204,398204,,398203,,398203.6,8,400,,,
sequence,flow.Sequence,4_67,2023-09-08T19:52:23.770Z,,0,,,3726.5200000000186,completion,,,,,false,,,,398204,398204,394476.3,394478,394477.48,398203.6,8,400,,,
trial,html.Screen,4_68_0,2023-09-08T19:52:28.183Z,,0,2,,4413.400000000023,response,ISIC_4369035.JPG,7,ISIC_0418738.JPG,ISIC_0418738.JPG,false,0,keypress(z),500,402617,402617,398202.4,398204,398203.6,402618.22,8,400,19,,ISIC_4369035.JPG
break,html.Screen,4_68_1,2023-09-08T19:52:28.184Z,,0,,,NaN,,,,,,false,,,,402618,402618,,402617,,402618.22,8,400,,,
break_continue,html.Screen,4_68_2,2023-09-08T19:52:28.185Z,,0,,,NaN,,,,,,false,,,,402619,402618,,402618,,402618.22,8,400,,,
sequence,flow.Sequence,4_68,2023-09-08T19:52:28.185Z,,0,,,4414.400000000023,completion,,,,,false,,,,402619,402618,398202.4,398204,398203.6,402618.22,8,400,,,
trial,html.Screen,4_69_0,2023-09-08T19:52:32.260Z,,0,2,,4074.780000000028,response,ISIC_4679971.JPG,1,ISIC_0000555.JPG,ISIC_4679971.JPG,false,1,keypress(m),500,406694,406693,402617.06,402619,402618.22,406694.86,8,400,20,,ISIC_0000555.JPG
break,html.Screen,4_69_1,2023-09-08T19:52:32.261Z,,0,,,NaN,,,,,,false,,,,406694,406694,,406694,,406694.86,8,400,,,
break_continue,html.Screen,4_69_2,2023-09-08T19:52:32.261Z,,0,,,NaN,,,,,,false,,,,406695,406695,,406695,,406694.86,8,400,,,
sequence,flow.Sequence,4_69,2023-09-08T19:52:32.262Z,,0,,,4076.780000000028,completion,,,,,false,,,,406695,406695,402617.06,402619,402618.22,406694.86,8,400,,,
trial,html.Screen,4_70_0,2023-09-08T19:52:36.284Z,,0,2,,4022.140000000014,response,ISIC_7532154.JPG,5,ISIC_0010393.JPG,ISIC_7532154.JPG,false,1,keypress(m),500,410717,410717,406693.72,406695,406694.86,410718.22,8,400,21,,ISIC_0010393.JPG
break,html.Screen,4_70_1,2023-09-08T19:52:36.285Z,,0,,,NaN,,,,,,false,,,,410718,410718,,410717,,410718.22,8,400,,,
break_continue,html.Screen,4_70_2,2023-09-08T19:52:36.285Z,,0,,,NaN,,,,,,false,,,,410719,410718,,410718,,410718.22,8,400,,,
sequence,flow.Sequence,4_70,2023-09-08T19:52:36.285Z,,0,,,4023.140000000014,completion,,,,,false,,,,410719,410718,406693.72,406695,406694.86,410718.22,8,400,,,
trial,html.Screen,4_71_0,2023-09-08T19:52:40.731Z,,0,2,,4445.780000000028,response,ISIC_0024214.JPG,5,ISIC_0027190.JPG,ISIC_0024214.JPG,false,1,keypress(m),500,415165,415164,410717.06,410719,410718.22,415165.94,8,400,22,,ISIC_0027190.JPG
break,html.Screen,4_71_1,2023-09-08T19:52:40.732Z,,0,,,NaN,,,,,,false,,,,415166,415165,,415165,,415165.94,8,400,,,
break_continue,html.Screen,4_71_2,2023-09-08T19:52:40.732Z,,0,,,NaN,,,,,,false,,,,415166,415166,,415166,,415165.94,8,400,,,
sequence,flow.Sequence,4_71,2023-09-08T19:52:40.733Z,,0,,,4447.780000000028,completion,,,,,false,,,,415166,415166,410717.06,410719,410718.22,415165.94,8,400,,,
trial,html.Screen,4_72_0,2023-09-08T19:52:44.610Z,,0,2,,3876.0599999999977,response,ISIC_0016127.JPG,15,ISIC_4398011.JPG,ISIC_4398011.JPG,false,0,keypress(z),500,419042,419042,415164.6,415167,415165.94,419043.72,8,400,23,,ISIC_0016127.JPG
break,html.Screen,4_72_1,2023-09-08T19:52:44.611Z,,0,,,NaN,,,,,,false,,,,419043,419043,,419043,,419043.72,8,400,,,
break_continue,html.Screen,4_72_2,2023-09-08T19:52:44.611Z,,0,,,NaN,,,,,,false,,,,419044,419044,,419043,,419043.72,8,400,,,
sequence,flow.Sequence,4_72,2023-09-08T19:52:44.612Z,,0,,,3878.0599999999977,completion,,,,,false,,,,419044,419044,415164.6,415166,415165.94,419043.72,8,400,,,
trial,html.Screen,4_73_0,2023-09-08T19:52:48.270Z,,0,2,,3658.280000000028,response,ISIC_1519891.JPG,9,ISIC_5848892.JPG,ISIC_1519891.JPG,false,1,keypress(m),500,422703,422702,419042.6,419044,419043.72,422703.82,8,400,24,,ISIC_5848892.JPG
break,html.Screen,4_73_1,2023-09-08T19:52:48.271Z,,0,,,NaN,,,,,,false,,,,422704,422703,,422703,,422703.82,8,400,,,
break_continue,html.Screen,4_73_2,2023-09-08T19:52:48.272Z,,0,,,NaN,,,,,,false,,,,422704,422704,,422704,,422703.82,8,400,,,
sequence,flow.Sequence,4_73,2023-09-08T19:52:48.272Z,,0,,,3660.280000000028,completion,,,,,false,,,,422704,422704,419042.6,419044,419043.72,422703.82,8,400,,,
trial,html.Screen,4_74_0,2023-09-08T19:52:51.250Z,,0,2,,2979.179999999993,response,ISIC_0032586.JPG,10,ISIC_8105020.JPG,ISIC_8105020.JPG,false,0,keypress(z),500,425684,425683,422702.64,422705,422703.82,425684.68,8,400,25,,ISIC_0032586.JPG
break,html.Screen,4_74_1,2023-09-08T19:52:51.251Z,,0,,,NaN,,,,,,false,,,,425684,425684,,425684,,425684.68,8,400,,,
break_continue,html.Screen,4_74_2,2023-09-08T19:52:51.252Z,,0,,,NaN,,,,,,false,,,,425685,425685,,425685,,425684.68,8,400,,,
sequence,flow.Sequence,4_74,2023-09-08T19:52:51.252Z,,0,,,2981.179999999993,completion,,,,,false,,,,425685,425685,422702.64,422705,422703.82,425684.68,8,400,,,
trial,html.Screen,4_75_0,2023-09-08T19:52:55.650Z,,0,2,,4397.320000000007,response,ISIC_0061108.JPG,6,ISIC_9209245.JPG,ISIC_9209245.JPG,false,0,keypress(z),500,430082,430082,425683.52,425685,425684.68,430083.7,8,400,26,,ISIC_0061108.JPG
break,html.Screen,4_75_1,2023-09-08T19:52:55.651Z,,0,,,NaN,,,,,,false,,,,430083,430083,,430083,,430083.7,8,400,,,
break_continue,html.Screen,4_75_2,2023-09-08T19:52:55.652Z,,0,,,NaN,,,,,,false,,,,430084,430084,,430084,,430083.7,8,400,,,
sequence,flow.Sequence,4_75,2023-09-08T19:52:55.652Z,,0,,,4399.320000000007,completion,,,,,false,,,,430084,430084,425683.52,425685,425684.68,430083.7,8,400,,,
trial,html.Screen,4_76_0,2023-09-08T19:53:01.494Z,,0,2,,5841.299999999988,response,ISIC_4252285.JPG,16,ISIC_0031545.JPG,ISIC_0031545.JPG,false,0,keypress(z),500,435925,435925,430082.54,430084,430083.7,435927.24,8,400,27,,ISIC_4252285.JPG
break,html.Screen,4_76_1,2023-09-08T19:53:01.494Z,,0,,,NaN,,,,,,false,,,,435927,435926,,435926,,435927.24,8,400,,,
break_continue,html.Screen,4_76_2,2023-09-08T19:53:01.495Z,,0,,,NaN,,,,,,false,,,,435927,435927,,435927,,435927.24,8,400,,,
sequence,flow.Sequence,4_76,2023-09-08T19:53:01.495Z,,0,,,5843.299999999988,completion,,,,,false,,,,435928,435927,430082.54,430084,430083.7,435927.24,8,400,,,
trial,html.Screen,4_77_0,2023-09-08T19:53:05.683Z,,0,2,,4186.760000000009,response,ISIC_0033787.JPG,7,ISIC_9756858.JPG,ISIC_9756858.JPG,false,0,keypress(z),500,440115,440114,435926.12,435928,435927.24,440115.92,8,400,28,,ISIC_0033787.JPG
break,html.Screen,4_77_1,2023-09-08T19:53:05.684Z,,0,,,NaN,,,,,,false,,,,440115,440115,,440115,,440115.92,8,400,,,
break_continue,html.Screen,4_77_2,2023-09-08T19:53:05.684Z,,0,,,NaN,,,,,,false,,,,440116,440116,,440116,,440115.92,8,400,,,
sequence,flow.Sequence,4_77,2023-09-08T19:53:05.684Z,,0,,,4188.760000000009,completion,,,,,false,,,,440117,440116,435926.12,435928,435927.24,440115.92,8,400,,,
trial,html.Screen,4_78_0,2023-09-08T19:53:12.129Z,,0,2,,6445.080000000016,response,ISIC_0033362.JPG,9,ISIC_0063258.JPG,ISIC_0033362.JPG,false,1,keypress(m),500,446561,446561,440114.76,440117,440115.92,446562.64,8,400,29,,ISIC_0063258.JPG
break,html.Screen,4_78_1,2023-09-08T19:53:12.130Z,,0,,,NaN,,,,,,false,,,,446562,446562,,446561,,446562.64,8,400,,,
break_continue,html.Screen,4_78_2,2023-09-08T19:53:12.130Z,,0,,,NaN,,,,,,false,,,,446563,446562,,446562,,446562.64,8,400,,,
sequence,flow.Sequence,4_78,2023-09-08T19:53:12.131Z,,0,,,6446.080000000016,completion,,,,,false,,,,446563,446562,440114.76,440117,440115.92,446562.64,8,400,,,
trial,html.Screen,4_79_0,2023-09-08T19:53:15.945Z,,0,2,,3814.359999999986,response,ISIC_0056921.JPG,5,ISIC_0026207.JPG,ISIC_0026207.JPG,false,0,keypress(z),500,450377,450377,446561.48,446563,446562.64,450378.6,8,400,30,,ISIC_0056921.JPG
break,html.Screen,4_79_1,2023-09-08T19:53:15.946Z,,0,,,NaN,,,,,,false,,,,450377,450377,,450377,,450378.6,8,400,,,
break_continue,html.Screen,4_79_2,2023-09-08T19:53:15.947Z,,0,,,NaN,,,,,,false,,,,450378,450378,,450378,,450378.6,8,400,,,
sequence,flow.Sequence,4_79,2023-09-08T19:53:15.947Z,,0,,,3815.359999999986,completion,,,,,false,,,,450378,450378,446561.48,446563,446562.64,450378.6,8,400,,,
trial,html.Screen,4_80_0,2023-09-08T19:53:19.330Z,,0,2,,3382.4000000000233,response,ISIC_0029723.JPG,9,ISIC_9263990.JPG,ISIC_9263990.JPG,false,0,keypress(z),500,453761,453761,450377.22,450378,450378.6,453762.66,8,400,31,,ISIC_0029723.JPG
break,html.Screen,4_80_1,2023-09-08T19:53:19.330Z,,0,,,NaN,,,,,,false,,,,453762,453761,,453761,,453762.66,8,400,,,
break_continue,html.Screen,4_80_2,2023-09-08T19:53:19.331Z,,0,,,NaN,,,,,,false,,,,453762,453762,,453762,,453762.66,8,400,,,
sequence,flow.Sequence,4_80,2023-09-08T19:53:19.331Z,,0,,,3383.4000000000233,completion,,,,,false,,,,453763,453762,450377.22,450378,450378.6,453762.66,8,400,,,
trial,html.Screen,4_81_0,2023-09-08T19:53:22.712Z,,0,2,,3381.3400000000256,response,ISIC_0014392.JPG,13,ISIC_0025757.JPG,ISIC_0025757.JPG,false,0,keypress(z),500,457144,457144,453761.46,453763,453762.66,457145.28,8,400,32,,ISIC_0014392.JPG
break,html.Screen,4_81_1,2023-09-08T19:53:22.713Z,,0,,,NaN,,,,,,false,,,,457145,457145,,457144,,457145.28,8,400,,,
break_continue,html.Screen,4_81_2,2023-09-08T19:53:22.714Z,,0,,,NaN,,,,,,false,,,,457145,457145,,457145,,457145.28,8,400,,,
sequence,flow.Sequence,4_81,2023-09-08T19:53:22.714Z,,0,,,3382.3400000000256,completion,,,,,false,,,,457146,457145,453761.46,453763,453762.66,457145.28,8,400,,,
trial,html.Screen,4_82_0,2023-09-08T19:53:25.719Z,,0,2,,3005.719999999972,response,ISIC_0062456.JPG,12,ISIC_8575769.JPG,ISIC_8575769.JPG,false,0,keypress(z),500,460151,460151,457144.12,457146,457145.28,460152.32,8,400,33,,ISIC_0062456.JPG
break,html.Screen,4_82_1,2023-09-08T19:53:25.720Z,,0,,,NaN,,,,,,false,,,,460152,460152,,460151,,460152.32,8,400,,,
break_continue,html.Screen,4_82_2,2023-09-08T19:53:25.721Z,,0,,,NaN,,,,,,false,,,,460152,460152,,460152,,460152.32,8,400,,,
sequence,flow.Sequence,4_82,2023-09-08T19:53:25.721Z,,0,,,3006.719999999972,completion,,,,,false,,,,460153,460152,457144.12,457146,457145.28,460152.32,8,400,,,
trial,html.Screen,4_83_0,2023-09-08T19:53:29.099Z,,0,2,,3377.679999999993,response,ISIC_6036959.JPG,8,ISIC_0011564.JPG,ISIC_0011564.JPG,false,0,keypress(z),500,463530,463530,460151.14,460153,460152.32,463531.26,8,400,34,,ISIC_6036959.JPG
break,html.Screen,4_83_1,2023-09-08T19:53:29.100Z,,0,,,NaN,,,,,,false,,,,463531,463530,,463530,,463531.26,8,400,,,
break_continue,html.Screen,4_83_2,2023-09-08T19:53:29.100Z,,0,,,NaN,,,,,,false,,,,463531,463531,,463531,,463531.26,8,400,,,
sequence,flow.Sequence,4_83,2023-09-08T19:53:29.100Z,,0,,,3378.679999999993,completion,,,,,false,,,,463532,463531,460151.14,460153,460152.32,463531.26,8,400,,,
trial,html.Screen,4_84_0,2023-09-08T19:53:32.795Z,,0,2,,3694.7399999999907,response,ISIC_0064376.JPG,0,ISIC_0033640.JPG,ISIC_0033640.JPG,false,0,keypress(z),500,467227,467226,463530.1,463532,463531.26,467227.7,8,400,35,,ISIC_0064376.JPG
break,html.Screen,4_84_1,2023-09-08T19:53:32.796Z,,0,,,NaN,,,,,,false,,,,467227,467227,,467227,,467227.7,8,400,,,
break_continue,html.Screen,4_84_2,2023-09-08T19:53:32.796Z,,0,,,NaN,,,,,,false,,,,467228,467228,,467227,,467227.7,8,400,,,
sequence,flow.Sequence,4_84,2023-09-08T19:53:32.796Z,,0,,,3696.7399999999907,completion,,,,,false,,,,467228,467228,463530.1,463532,463531.26,467227.7,8,400,,,
trial,html.Screen,4_85_0,2023-09-08T19:53:35.963Z,,0,2,,3166.2999999999884,response,ISIC_0014559.JPG,1,ISIC_0071707.JPG,ISIC_0071707.JPG,false,0,keypress(z),500,470394,470394,467226.54,467228,467227.7,470395.6,8,400,36,,ISIC_0014559.JPG
break,html.Screen,4_85_1,2023-09-08T19:53:35.964Z,,0,,,NaN,,,,,,false,,,,470395,470394,,470394,,470395.6,8,400,,,
break_continue,html.Screen,4_85_2,2023-09-08T19:53:35.965Z,,0,,,NaN,,,,,,false,,,,470396,470396,,470396,,470395.6,8,400,,,
sequence,flow.Sequence,4_85,2023-09-08T19:53:35.965Z,,0,,,3168.2999999999884,completion,,,,,false,,,,470397,470396,467226.54,467228,467227.7,470395.6,8,400,,,
trial,html.Screen,4_86_0,2023-09-08T19:53:39.668Z,,0,2,,3703.4000000000233,response,ISIC_1595658.JPG,10,ISIC_0063680.JPG,ISIC_0063680.JPG,false,0,keypress(z),500,474100,474099,470394.32,470397,470395.6,474100.78,8,400,37,,ISIC_1595658.JPG
break,html.Screen,4_86_1,2023-09-08T19:53:39.669Z,,0,,,NaN,,,,,,false,,,,474101,474100,,474100,,474100.78,8,400,,,
break_continue,html.Screen,4_86_2,2023-09-08T19:53:39.670Z,,0,,,NaN,,,,,,false,,,,474101,474101,,474101,,474100.78,8,400,,,
sequence,flow.Sequence,4_86,2023-09-08T19:53:39.670Z,,0,,,3705.4000000000233,completion,,,,,false,,,,474101,474101,470394.32,470397,470395.6,474100.78,8,400,,,
trial,html.Screen,4_87_0,2023-09-08T19:53:45.403Z,,0,2,,5732.219999999972,response,ISIC_9744305.JPG,6,ISIC_0032033.JPG,ISIC_0032033.JPG,false,0,keypress(z),500,479834,479833,474099.66,474101,474100.78,479835.12,8,400,38,,ISIC_9744305.JPG
break,html.Screen,4_87_1,2023-09-08T19:53:45.404Z,,0,,,NaN,,,,,,false,,,,479835,479834,,479834,,479835.12,8,400,,,
break_continue,html.Screen,4_87_2,2023-09-08T19:53:45.404Z,,0,,,NaN,,,,,,false,,,,479835,479835,,479835,,479835.12,8,400,,,
sequence,flow.Sequence,4_87,2023-09-08T19:53:45.405Z,,0,,,5734.219999999972,completion,,,,,false,,,,479836,479835,474099.66,474101,474100.78,479835.12,8,400,,,
trial,html.Screen,4_88_0,2023-09-08T19:53:49.960Z,,0,2,,4555.880000000005,response,ISIC_0034046.JPG,15,ISIC_4596803.JPG,ISIC_4596803.JPG,false,0,keypress(z),500,484391,484391,479833.7,479836,479835.12,484392.32,8,400,39,,ISIC_0034046.JPG
break,html.Screen,4_88_1,2023-09-08T19:53:49.961Z,,0,,,NaN,,,,,,false,,,,484392,484392,,484392,,484392.32,8,400,,,
break_continue,html.Screen,4_88_2,2023-09-08T19:53:49.961Z,,0,,,NaN,,,,,,false,,,,484393,484393,,484392,,484392.32,8,400,,,
sequence,flow.Sequence,4_88,2023-09-08T19:53:49.962Z,,0,,,4557.880000000005,completion,,,,,false,,,,484393,484393,479833.7,479836,479835.12,484392.32,8,400,,,
trial,html.Screen,4_89_0,2023-09-08T19:53:53.246Z,,0,2,,3284.679999999993,response,ISIC_0025580.JPG,9,ISIC_0034242.JPG,ISIC_0034242.JPG,false,0,keypress(z),500,487677,487677,484391.16,484393,484392.32,487678.32,8,400,40,,ISIC_0025580.JPG
break,html.Screen,4_89_1,2023-09-08T19:53:53.247Z,,0,,,NaN,,,,,,false,,,,487678,487678,,487677,,487678.32,8,400,,,
break_continue,html.Screen,4_89_2,2023-09-08T19:53:53.247Z,,0,,,NaN,,,,,,false,,,,487678,487678,,487678,,487678.32,8,400,,,
sequence,flow.Sequence,4_89,2023-09-08T19:53:53.248Z,,0,,,3285.679999999993,completion,,,,,false,,,,487678,487678,484391.16,484393,484392.32,487678.32,8,400,,,
trial,html.Screen,4_90_0,2023-09-08T19:53:57.509Z,,0,2,,4260.679999999993,response,ISIC_9406275.JPG,1,ISIC_7923008.JPG,ISIC_9406275.JPG,false,1,keypress(m),500,491939,491939,487677.18,487679,487678.32,491940.9,8,400,41,,ISIC_7923008.JPG
break,html.Screen,4_90_1,2023-09-08T19:53:57.510Z,,0,,,NaN,,,,,,false,,,,491940,491940,,491940,,491940.9,8,400,,,
break_continue,html.Screen,4_90_2,2023-09-08T19:53:57.510Z,,0,,,NaN,,,,,,false,,,,491941,491941,,491941,,491940.9,8,400,,,
sequence,flow.Sequence,4_90,2023-09-08T19:53:57.511Z,,0,,,4262.679999999993,completion,,,,,false,,,,491941,491941,487677.18,487678,487678.32,491940.9,8,400,,,
trial,html.Screen,4_91_0,2023-09-08T19:54:02.901Z,,0,2,,5390.099999999977,response,ISIC_8863344.JPG,4,ISIC_0059423.JPG,ISIC_0059423.JPG,false,0,keypress(z),500,497331,497331,491939.7,491941,491940.9,497332.9,8,400,42,,ISIC_8863344.JPG
break,html.Screen,4_91_1,2023-09-08T19:54:02.901Z,,0,,,NaN,,,,,,false,,,,497332,497332,,497331,,497332.9,8,400,,,
break_continue,html.Screen,4_91_2,2023-09-08T19:54:02.903Z,,0,,,NaN,,,,,,false,,,,497333,497332,,497332,,497332.9,8,400,,,
sequence,flow.Sequence,4_91,2023-09-08T19:54:02.903Z,,0,,,5391.099999999977,completion,,,,,false,,,,497333,497332,491939.7,491941,491940.9,497332.9,8,400,,,
trial,html.Screen,4_92_0,2023-09-08T19:54:07.104Z,,0,2,,4200.099999999977,response,ISIC_3655327.JPG,3,ISIC_3679789.JPG,ISIC_3679789.JPG,false,0,keypress(z),500,501534,501533,497331.7,497333,497332.9,501535.4,8,400,43,,ISIC_3655327.JPG
break,html.Screen,4_92_1,2023-09-08T19:54:07.104Z,,0,,,NaN,,,,,,false,,,,501535,501534,,501534,,501535.4,8,400,,,
break_continue,html.Screen,4_92_2,2023-09-08T19:54:07.106Z,,0,,,NaN,,,,,,false,,,,501535,501535,,501535,,501535.4,8,400,,,
sequence,flow.Sequence,4_92,2023-09-08T19:54:07.106Z,,0,,,4202.099999999977,completion,,,,,false,,,,501536,501535,497331.7,497333,497332.9,501535.4,8,400,,,
trial,html.Screen,4_93_0,2023-09-08T19:54:14.888Z,,0,2,,7782.599999999977,response,ISIC_0056257.JPG,7,ISIC_4325452.JPG,ISIC_4325452.JPG,false,0,keypress(z),500,509318,509318,501534.24,501536,501535.4,509319.66,8,400,44,,ISIC_0056257.JPG
break,html.Screen,4_93_1,2023-09-08T19:54:14.889Z,,0,,,NaN,,,,,,false,,,,509319,509319,,509318,,509319.66,8,400,,,
break_continue,html.Screen,4_93_2,2023-09-08T19:54:14.890Z,,0,,,NaN,,,,,,false,,,,509320,509320,,509319,,509319.66,8,400,,,
sequence,flow.Sequence,4_93,2023-09-08T19:54:14.890Z,,0,,,7784.599999999977,completion,,,,,false,,,,509320,509320,501534.24,501536,501535.4,509319.66,8,400,,,
trial,html.Screen,4_94_0,2023-09-08T19:54:22.655Z,,0,2,,7765.340000000026,response,ISIC_0025648.JPG,3,ISIC_5413788.JPG,ISIC_5413788.JPG,false,0,keypress(z),500,517085,517085,509318.52,509320,509319.66,517086.4,8,400,45,,ISIC_0025648.JPG
break,html.Screen,4_94_1,2023-09-08T19:54:22.656Z,,0,,,NaN,,,,,,false,,,,517086,517086,,517085,,517086.4,8,400,,,
break_continue,html.Screen,4_94_2,2023-09-08T19:54:22.656Z,,0,,,NaN,,,,,,false,,,,517087,517086,,517086,,517086.4,8,400,,,
sequence,flow.Sequence,4_94,2023-09-08T19:54:22.656Z,,0,,,7766.340000000026,completion,,,,,false,,,,517087,517086,509318.52,509320,509319.66,517086.4,8,400,,,
trial,html.Screen,4_95_0,2023-09-08T19:54:28.433Z,,0,2,,5775.599999999977,response,ISIC_0024226.JPG,18,ISIC_0068525.JPG,ISIC_0068525.JPG,false,0,keypress(z),500,522862,522862,517085.22,517087,517086.4,522863.36,8,400,46,,ISIC_0024226.JPG
break,html.Screen,4_95_1,2023-09-08T19:54:28.433Z,,0,,,NaN,,,,,,false,,,,522863,522863,,522862,,522863.36,8,400,,,
break_continue,html.Screen,4_95_2,2023-09-08T19:54:28.433Z,,0,,,NaN,,,,,,false,,,,522863,522863,,522863,,522863.36,8,400,,,
sequence,flow.Sequence,4_95,2023-09-08T19:54:28.434Z,,0,,,5776.599999999977,completion,,,,,false,,,,522864,522863,517085.22,517087,517086.4,522863.36,8,400,,,
trial,html.Screen,4_96_0,2023-09-08T19:54:31.948Z,,0,2,,3513.640000000014,response,ISIC_9402324.JPG,0,ISIC_0033117.JPG,ISIC_0033117.JPG,false,0,keypress(z),500,526378,526377,522862.12,522864,522863.36,526378.54,8,400,47,,ISIC_9402324.JPG
break,html.Screen,4_96_1,2023-09-08T19:54:31.949Z,,0,,,NaN,,,,,,false,,,,526379,526378,,526378,,526378.54,8,400,,,
break_continue,html.Screen,4_96_2,2023-09-08T19:54:31.949Z,,0,,,NaN,,,,,,false,,,,526379,526379,,526379,,526378.54,8,400,,,
sequence,flow.Sequence,4_96,2023-09-08T19:54:31.950Z,,0,,,3515.640000000014,completion,,,,,false,,,,526379,526379,522862.12,522864,522863.36,526378.54,8,400,,,
trial,html.Screen,4_97_0,2023-09-08T19:54:36.759Z,,0,2,,4809.459999999963,response,ISIC_6548734.JPG,8,ISIC_0056110.JPG,ISIC_0056110.JPG,false,0,keypress(z),500,531189,531188,526377.6,526379,526378.54,531190.22,8,400,48,,ISIC_6548734.JPG
break,html.Screen,4_97_1,2023-09-08T19:54:36.760Z,,0,,,NaN,,,,,,false,,,,531190,531189,,531189,,531190.22,8,400,,,
break_continue,html.Screen,4_97_2,2023-09-08T19:54:36.761Z,,0,,,NaN,,,,,,false,,,,531190,531190,,531190,,531190.22,8,400,,,
sequence,flow.Sequence,4_97,2023-09-08T19:54:36.761Z,,0,,,4811.459999999963,completion,,,,,false,,,,531190,531190,526377.6,526379,526378.54,531190.22,8,400,,,
trial,html.Screen,4_98_0,2023-09-08T19:54:40.073Z,,0,2,,3311.780000000028,response,ISIC_0010040.JPG,3,ISIC_0010241.JPG,ISIC_0010241.JPG,false,0,keypress(z),500,534502,534502,531188.74,531190,531190.22,534503.58,8,400,49,,ISIC_0010040.JPG
break,html.Screen,4_98_1,2023-09-08T19:54:40.074Z,,0,,,NaN,,,,,,false,,,,534503,534502,,534502,,534503.58,8,400,,,
break_continue,html.Screen,4_98_2,2023-09-08T19:54:40.075Z,,0,,,NaN,,,,,,false,,,,534503,534503,,534503,,534503.58,8,400,,,
sequence,flow.Sequence,4_98,2023-09-08T19:54:40.075Z,,0,,,3312.780000000028,completion,,,,,false,,,,534504,534503,531188.74,531190,531190.22,534503.58,8,400,,,
trial,html.Screen,4_99_0,2023-09-08T19:54:43.514Z,,0,2,,3438.420000000042,response,ISIC_5354202.JPG,7,ISIC_0066382.JPG,ISIC_5354202.JPG,false,1,keypress(m),500,537943,537942,534502.44,534504,534503.58,537944.34,8,400,50,,ISIC_0066382.JPG
break,html.Screen,4_99_1,2023-09-08T19:54:53.494Z,,0,,,9994,timeout,,,,,false,,,,547924,547922.48,537943.2,537943,537944.34,547938.34,8,400,,,
break_continue,html.Screen,4_99_2,2023-09-08T19:54:54.647Z,,0,,,1122.6600000000326,response,,,,,false,continue,keypress(Space),,549076,549061,547922.48,547924,547938.34,549077.06,8,400,,,
sequence,flow.Sequence,4_99,2023-09-08T19:54:54.647Z,,0,,,14557.420000000042,completion,,,,,false,,,,549076,549061,534502.44,534504,534503.58,549077.06,8,400,,,
trial,html.Screen,4_100_0,2023-09-08T19:54:57.883Z,,0,3,,3233.939999999944,response,ISIC_5476277.JPG,9,ISIC_0011633.JPG,ISIC_5476277.JPG,false,1,keypress(m),500,552312,552311,549076.2,549076,549077.06,552313.36,8,400,1,,ISIC_0011633.JPG
break,html.Screen,4_100_1,2023-09-08T19:54:57.884Z,,0,,,NaN,,,,,,false,,,,552313,552312,,552312,,552313.36,8,400,,,
break_continue,html.Screen,4_100_2,2023-09-08T19:54:57.885Z,,0,,,NaN,,,,,,false,,,,552313,552313,,552313,,552313.36,8,400,,,
sequence,flow.Sequence,4_100,2023-09-08T19:54:57.885Z,,0,,,3235.939999999944,completion,,,,,false,,,,552314,552313,549076.2,549076,549077.06,552313.36,8,400,,,
trial,html.Screen,4_101_0,2023-09-08T19:55:00.710Z,,0,3,,2824.640000000014,response,ISIC_8024841.JPG,16,ISIC_0000150.JPG,ISIC_8024841.JPG,false,1,keypress(m),500,555138,555138,552312.2,552314,552313.36,555139.92,8,400,2,,ISIC_0000150.JPG
break,html.Screen,4_101_1,2023-09-08T19:55:00.711Z,,0,,,NaN,,,,,,false,,,,555139,555139,,555139,,555139.92,8,400,,,
break_continue,html.Screen,4_101_2,2023-09-08T19:55:00.711Z,,0,,,NaN,,,,,,false,,,,555140,555140,,555140,,555139.92,8,400,,,
sequence,flow.Sequence,4_101,2023-09-08T19:55:00.712Z,,0,,,2826.640000000014,completion,,,,,false,,,,555141,555140,552312.2,552314,552313.36,555139.92,8,400,,,
trial,html.Screen,4_102_0,2023-09-08T19:55:04.447Z,,0,3,,3735.079999999958,response,ISIC_3060145.JPG,13,ISIC_5501795.JPG,ISIC_3060145.JPG,false,1,keypress(m),500,558876,558875,555138.74,555141,555139.92,558877.14,8,400,3,,ISIC_5501795.JPG
break,html.Screen,4_102_1,2023-09-08T19:55:04.448Z,,0,,,NaN,,,,,,false,,,,558877,558876,,558876,,558877.14,8,400,,,
break_continue,html.Screen,4_102_2,2023-09-08T19:55:04.449Z,,0,,,NaN,,,,,,false,,,,558877,558877,,558877,,558877.14,8,400,,,
sequence,flow.Sequence,4_102,2023-09-08T19:55:04.449Z,,0,,,3737.079999999958,completion,,,,,false,,,,558877,558877,555138.74,555141,555139.92,558877.14,8,400,,,
trial,html.Screen,4_103_0,2023-09-08T19:55:08.008Z,,0,3,,3558.859999999986,response,ISIC_7895093.JPG,13,ISIC_7662993.JPG,ISIC_7662993.JPG,false,0,keypress(z),500,562436,562436,558876,558878,558877.14,562437.96,8,400,4,,ISIC_7895093.JPG
break,html.Screen,4_103_1,2023-09-08T19:55:08.009Z,,0,,,NaN,,,,,,false,,,,562437,562437,,562436,,562437.96,8,400,,,
break_continue,html.Screen,4_103_2,2023-09-08T19:55:08.010Z,,0,,,NaN,,,,,,false,,,,562438,562438,,562437,,562437.96,8,400,,,
sequence,flow.Sequence,4_103,2023-09-08T19:55:08.010Z,,0,,,3560.859999999986,completion,,,,,false,,,,562438,562438,558876,558878,558877.14,562437.96,8,400,,,
trial,html.Screen,4_104_0,2023-09-08T19:55:13.392Z,,0,3,,5383.040000000037,response,ISIC_0010349.JPG,13,ISIC_0015115.JPG,ISIC_0015115.JPG,false,0,keypress(z),500,567821,567821,562436.82,562438,562437.96,567822.26,8,400,5,,ISIC_0010349.JPG
break,html.Screen,4_104_1,2023-09-08T19:55:13.393Z,,0,,,NaN,,,,,,false,,,,567822,567822,,567821,,567822.26,8,400,,,
break_continue,html.Screen,4_104_2,2023-09-08T19:55:13.394Z,,0,,,NaN,,,,,,false,,,,567822,567822,,567822,,567822.26,8,400,,,
sequence,flow.Sequence,4_104,2023-09-08T19:55:13.394Z,,0,,,5384.040000000037,completion,,,,,false,,,,567823,567822,562436.82,562438,562437.96,567822.26,8,400,,,
trial,html.Screen,4_105_0,2023-09-08T19:55:17.500Z,,0,3,,4104.739999999991,response,ISIC_0011369.JPG,14,ISIC_0641173.JPG,ISIC_0641173.JPG,false,0,keypress(z),500,571928,571927,567821.12,567823,567822.26,571929.14,8,400,6,,ISIC_0011369.JPG
break,html.Screen,4_105_1,2023-09-08T19:55:17.500Z,,0,,,NaN,,,,,,false,,,,571928,571928,,571928,,571929.14,8,400,,,
break_continue,html.Screen,4_105_2,2023-09-08T19:55:17.501Z,,0,,,NaN,,,,,,false,,,,571929,571929,,571929,,571929.14,8,400,,,
sequence,flow.Sequence,4_105,2023-09-08T19:55:17.501Z,,0,,,4106.739999999991,completion,,,,,false,,,,571929,571929,567821.12,567823,567822.26,571929.14,8,400,,,
trial,html.Screen,4_106_0,2023-09-08T19:55:21.247Z,,0,3,,3745.859999999986,response,ISIC_0011276.JPG,4,ISIC_0072569.JPG,ISIC_0011276.JPG,false,1,keypress(m),500,575676,575675,571927.98,571929,571929.14,575677.14,8,400,7,,ISIC_0072569.JPG
break,html.Screen,4_106_1,2023-09-08T19:55:21.248Z,,0,,,NaN,,,,,,false,,,,575677,575676,,575676,,575677.14,8,400,,,
break_continue,html.Screen,4_106_2,2023-09-08T19:55:21.250Z,,0,,,NaN,,,,,,false,,,,575678,575677,,575677,,575677.14,8,400,,,
sequence,flow.Sequence,4_106,2023-09-08T19:55:21.250Z,,0,,,3747.859999999986,completion,,,,,false,,,,575678,575677,571927.98,571929,571929.14,575677.14,8,400,,,
trial,html.Screen,4_107_0,2023-09-08T19:55:24.521Z,,0,3,,3272.859999999986,response,ISIC_0054677.JPG,6,ISIC_0025217.JPG,ISIC_0025217.JPG,false,0,keypress(z),500,578950,578950,575675.96,575678,575677.14,578950.88,8,400,8,,ISIC_0054677.JPG
break,html.Screen,4_107_1,2023-09-08T19:55:24.522Z,,0,,,NaN,,,,,,false,,,,578951,578950,,578950,,578950.88,8,400,,,
break_continue,html.Screen,4_107_2,2023-09-08T19:55:24.523Z,,0,,,NaN,,,,,,false,,,,578951,578951,,578951,,578950.88,8,400,,,
sequence,flow.Sequence,4_107,2023-09-08T19:55:24.524Z,,0,,,3273.859999999986,completion,,,,,false,,,,578951,578951,575675.96,575678,575677.14,578950.88,8,400,,,
trial,html.Screen,4_108_0,2023-09-08T19:55:27.485Z,,0,3,,2962.1199999999953,response,ISIC_4732684.JPG,7,ISIC_2967024.JPG,ISIC_4732684.JPG,false,1,keypress(m),500,581913,581913,578949.66,578952,578950.88,581938.76,8,400,9,,ISIC_2967024.JPG
break,html.Screen,4_108_1,2023-09-08T19:55:27.486Z,,0,,,NaN,,,,,,false,,,,581914,581913,,581913,,581938.76,8,400,,,
break_continue,html.Screen,4_108_2,2023-09-08T19:55:27.486Z,,0,,,NaN,,,,,,false,,,,581914,581914,,581914,,581938.76,8,400,,,
sequence,flow.Sequence,4_108,2023-09-08T19:55:27.487Z,,0,,,2963.1199999999953,completion,,,,,false,,,,581914,581914,578949.66,578952,578950.88,581938.76,8,400,,,
trial,html.Screen,4_109_0,2023-09-08T19:55:30.803Z,,0,3,,3291.2399999999907,response,ISIC_0029290.JPG,17,ISIC_9425937.JPG,ISIC_9425937.JPG,false,0,keypress(z),500,585230,585230,581921.48,581915,581938.76,585231.6,8,400,10,,ISIC_0029290.JPG
break,html.Screen,4_109_1,2023-09-08T19:55:30.804Z,,0,,,NaN,,,,,,false,,,,585231,585231,,585230,,585231.6,8,400,,,
break_continue,html.Screen,4_109_2,2023-09-08T19:55:30.804Z,,0,,,NaN,,,,,,false,,,,585232,585231,,585231,,585231.6,8,400,,,
sequence,flow.Sequence,4_109,2023-09-08T19:55:30.805Z,,0,,,3292.2399999999907,completion,,,,,false,,,,585232,585231,581921.48,581915,581938.76,585231.6,8,400,,,
trial,html.Screen,4_110_0,2023-09-08T19:55:34.525Z,,0,3,,3720.4000000000233,response,ISIC_0013572.JPG,12,ISIC_0010788.JPG,ISIC_0013572.JPG,false,1,keypress(m),500,588952,588952,585230.44,585232,585231.6,588972.48,8,400,11,,ISIC_0010788.JPG
break,html.Screen,4_110_1,2023-09-08T19:55:34.525Z,,0,,,NaN,,,,,,false,,,,588952,588952,,588952,,588972.48,8,400,,,
break_continue,html.Screen,4_110_2,2023-09-08T19:55:34.526Z,,0,,,NaN,,,,,,false,,,,588953,588953,,588953,,588972.48,8,400,,,
sequence,flow.Sequence,4_110,2023-09-08T19:55:34.526Z,,0,,,3721.4000000000233,completion,,,,,false,,,,588953,588953,585230.44,585232,585231.6,588972.48,8,400,,,
trial,html.Screen,4_111_0,2023-09-08T19:55:38.953Z,,0,3,,4408.520000000019,response,ISIC_0003201.JPG,20,ISIC_7433993.JPG,ISIC_7433993.JPG,false,0,keypress(z),500,593381,593381,588954.8,588953,588972.48,593382.08,8,400,12,,ISIC_0003201.JPG
break,html.Screen,4_111_1,2023-09-08T19:55:38.954Z,,0,,,NaN,,,,,,false,,,,593382,593382,,593381,,593382.08,8,400,,,
break_continue,html.Screen,4_111_2,2023-09-08T19:55:38.954Z,,0,,,NaN,,,,,,false,,,,593382,593382,,593382,,593382.08,8,400,,,
sequence,flow.Sequence,4_111,2023-09-08T19:55:38.955Z,,0,,,4409.520000000019,completion,,,,,false,,,,593383,593382,588954.8,588953,588972.48,593382.08,8,400,,,
trial,html.Screen,4_112_0,2023-09-08T19:55:43.777Z,,0,3,,4822.920000000042,response,ISIC_3002956.JPG,3,ISIC_3817292.JPG,ISIC_3002956.JPG,false,1,keypress(m),500,598205,598205,593380.96,593383,593382.08,598205.9,8,400,13,,ISIC_3817292.JPG
break,html.Screen,4_112_1,2023-09-08T19:55:43.778Z,,0,,,NaN,,,,,,false,,,,598205,598205,,598205,,598205.9,8,400,,,
break_continue,html.Screen,4_112_2,2023-09-08T19:55:43.779Z,,0,,,NaN,,,,,,false,,,,598206,598206,,598206,,598205.9,8,400,,,
sequence,flow.Sequence,4_112,2023-09-08T19:55:43.779Z,,0,,,4823.920000000042,completion,,,,,false,,,,598206,598206,593380.96,593383,593382.08,598205.9,8,400,,,
trial,html.Screen,4_113_0,2023-09-08T19:55:50.284Z,,0,3,,6505.099999999977,response,ISIC_0028445.JPG,7,ISIC_0008510.JPG,ISIC_0008510.JPG,false,0,keypress(z),500,604712,604711,598204.76,598206,598205.9,604713.12,8,400,14,,ISIC_0028445.JPG
break,html.Screen,4_113_1,2023-09-08T19:55:50.285Z,,0,,,NaN,,,,,,false,,,,604713,604712,,604712,,604713.12,8,400,,,
break_continue,html.Screen,4_113_2,2023-09-08T19:55:50.286Z,,0,,,NaN,,,,,,false,,,,604713,604713,,604713,,604713.12,8,400,,,
sequence,flow.Sequence,4_113,2023-09-08T19:55:50.286Z,,0,,,6507.099999999977,completion,,,,,false,,,,604714,604713,598204.76,598206,598205.9,604713.12,8,400,,,
trial,html.Screen,4_114_0,2023-09-08T19:55:55.237Z,,0,3,,4950.880000000005,response,ISIC_1545544.JPG,12,ISIC_2430137.JPG,ISIC_2430137.JPG,false,0,keypress(z),500,609664,609664,604711.96,604714,604713.12,609665.44,8,400,15,,ISIC_1545544.JPG
break,html.Screen,4_114_1,2023-09-08T19:55:55.238Z,,0,,,NaN,,,,,,false,,,,609665,609665,,609664,,609665.44,8,400,,,
break_continue,html.Screen,4_114_2,2023-09-08T19:55:55.239Z,,0,,,NaN,,,,,,false,,,,609666,609665,,609665,,609665.44,8,400,,,
sequence,flow.Sequence,4_114,2023-09-08T19:55:55.239Z,,0,,,4951.880000000005,completion,,,,,false,,,,609666,609665,604711.96,604714,604713.12,609665.44,8,400,,,
trial,html.Screen,4_115_0,2023-09-08T19:55:59.230Z,,0,3,,3991.560000000056,response,ISIC_5765854.JPG,12,ISIC_0010724.JPG,ISIC_5765854.JPG,false,1,keypress(m),500,613657,613657,609664.28,609666,609665.44,613659,8,400,16,,ISIC_0010724.JPG
break,html.Screen,4_115_1,2023-09-08T19:55:59.231Z,,0,,,NaN,,,,,,false,,,,613658,613658,,613658,,613659,8,400,,,
break_continue,html.Screen,4_115_2,2023-09-08T19:55:59.232Z,,0,,,NaN,,,,,,false,,,,613659,613659,,613659,,613659,8,400,,,
sequence,flow.Sequence,4_115,2023-09-08T19:55:59.232Z,,0,,,3993.560000000056,completion,,,,,false,,,,613659,613659,609664.28,609666,609665.44,613659,8,400,,,
trial,html.Screen,4_116_0,2023-09-08T19:56:02.574Z,,0,3,,3342,response,ISIC_0014766.JPG,9,ISIC_0010818.JPG,ISIC_0010818.JPG,false,0,keypress(z),500,617001,617001,613657.86,613659,613659,617002.7,8,400,17,,ISIC_0014766.JPG
break,html.Screen,4_116_1,2023-09-08T19:56:02.575Z,,0,,,NaN,,,,,,false,,,,617002,617002,,617001,,617002.7,8,400,,,
break_continue,html.Screen,4_116_2,2023-09-08T19:56:02.576Z,,0,,,NaN,,,,,,false,,,,617003,617003,,617002,,617002.7,8,400,,,
sequence,flow.Sequence,4_116,2023-09-08T19:56:02.576Z,,0,,,3344,completion,,,,,false,,,,617003,617003,613657.86,613659,613659,617002.7,8,400,,,
trial,html.Screen,4_117_0,2023-09-08T19:56:09.382Z,,0,3,,6805.300000000047,response,ISIC_5791954.JPG,12,ISIC_0061566.JPG,ISIC_5791954.JPG,false,1,keypress(m),500,623808,623808,617001.52,617004,617002.7,623809.44,8,400,18,,ISIC_0061566.JPG
break,html.Screen,4_117_1,2023-09-08T19:56:09.383Z,,0,,,NaN,,,,,,false,,,,623809,623809,,623809,,623809.44,8,400,,,
break_continue,html.Screen,4_117_2,2023-09-08T19:56:09.383Z,,0,,,NaN,,,,,,false,,,,623809,623809,,623809,,623809.44,8,400,,,
sequence,flow.Sequence,4_117,2023-09-08T19:56:09.383Z,,0,,,6806.300000000047,completion,,,,,false,,,,623809,623809,617001.52,617003,617002.7,623809.44,8,400,,,
trial,html.Screen,4_118_0,2023-09-08T19:56:13.808Z,,0,3,,4424.560000000056,response,ISIC_0357043.JPG,4,ISIC_4875370.JPG,ISIC_0357043.JPG,false,1,keypress(m),500,628234,628234,623808.3,623810,623809.44,628235.28,8,400,19,,ISIC_4875370.JPG
break,html.Screen,4_118_1,2023-09-08T19:56:13.808Z,,0,,,NaN,,,,,,false,,,,628235,628234,,628234,,628235.28,8,400,,,
break_continue,html.Screen,4_118_2,2023-09-08T19:56:13.809Z,,0,,,NaN,,,,,,false,,,,628236,628235,,628235,,628235.28,8,400,,,
sequence,flow.Sequence,4_118,2023-09-08T19:56:13.809Z,,0,,,4425.560000000056,completion,,,,,false,,,,628236,628235,623808.3,623810,623809.44,628235.28,8,400,,,
trial,html.Screen,4_119_0,2023-09-08T19:56:20.174Z,,0,3,,6363.719999999972,response,ISIC_0061188.JPG,7,ISIC_0055474.JPG,ISIC_0061188.JPG,false,1,keypress(m),500,634599,634599,628234.1,628236,628235.28,634601.12,8,400,20,,ISIC_0055474.JPG
break,html.Screen,4_119_1,2023-09-08T19:56:20.174Z,,0,,,NaN,,,,,,false,,,,634600,634600,,634600,,634601.12,8,400,,,
break_continue,html.Screen,4_119_2,2023-09-08T19:56:20.174Z,,0,,,NaN,,,,,,false,,,,634601,634601,,634601,,634601.12,8,400,,,
sequence,flow.Sequence,4_119,2023-09-08T19:56:20.175Z,,0,,,6365.719999999972,completion,,,,,false,,,,634601,634601,628234.1,628236,628235.28,634601.12,8,400,,,
trial,html.Screen,4_120_0,2023-09-08T19:56:23.774Z,,0,3,,3598.8800000000047,response,ISIC_0386664.JPG,3,ISIC_0001142.JPG,ISIC_0386664.JPG,false,1,keypress(m),500,638200,638200,634600,634601,634601.12,638222.38,8,400,21,,ISIC_0001142.JPG
break,html.Screen,4_120_1,2023-09-08T19:56:23.775Z,,0,,,NaN,,,,,,false,,,,638201,638201,,638200,,638222.38,8,400,,,
break_continue,html.Screen,4_120_2,2023-09-08T19:56:23.775Z,,0,,,NaN,,,,,,false,,,,638201,638201,,638201,,638222.38,8,400,,,
sequence,flow.Sequence,4_120,2023-09-08T19:56:23.775Z,,0,,,3599.8800000000047,completion,,,,,false,,,,638202,638201,634600,634601,634601.12,638222.38,8,400,,,
trial,html.Screen,4_121_0,2023-09-08T19:56:29.942Z,,0,3,,6146.619999999995,response,ISIC_2050638.JPG,14,ISIC_8692950.JPG,ISIC_2050638.JPG,false,1,keypress(m),500,644369,644369,638205.44,638202,638222.38,644370.02,8,400,22,,ISIC_8692950.JPG
break,html.Screen,4_121_1,2023-09-08T19:56:29.943Z,,0,,,NaN,,,,,,false,,,,644370,644369,,644369,,644370.02,8,400,,,
break_continue,html.Screen,4_121_2,2023-09-08T19:56:29.944Z,,0,,,NaN,,,,,,false,,,,644370,644370,,644370,,644370.02,8,400,,,
sequence,flow.Sequence,4_121,2023-09-08T19:56:29.944Z,,0,,,6147.619999999995,completion,,,,,false,,,,644370,644370,638205.44,638202,638222.38,644370.02,8,400,,,
trial,html.Screen,4_122_0,2023-09-08T19:56:36.007Z,,0,3,,6060.979999999981,response,ISIC_0072375.JPG,16,ISIC_6875745.JPG,ISIC_0072375.JPG,false,1,keypress(m),500,650432,650431,644368.82,644371,644370.02,650433.58,8,400,23,,ISIC_6875745.JPG
break,html.Screen,4_122_1,2023-09-08T19:56:36.007Z,,0,,,NaN,,,,,,false,,,,650433,650432,,650432,,650433.58,8,400,,,
break_continue,html.Screen,4_122_2,2023-09-08T19:56:36.007Z,,0,,,NaN,,,,,,false,,,,650433,650433,,650433,,650433.58,8,400,,,
sequence,flow.Sequence,4_122,2023-09-08T19:56:36.008Z,,0,,,6062.979999999981,completion,,,,,false,,,,650434,650433,644368.82,644371,644370.02,650433.58,8,400,,,
trial,html.Screen,4_123_0,2023-09-08T19:56:40.174Z,,0,3,,4166.420000000042,response,ISIC_0063473.JPG,2,ISIC_0830217.JPG,ISIC_0830217.JPG,false,0,keypress(z),500,654600,654600,650432.4,650434,650433.58,654601.58,8,400,24,,ISIC_0063473.JPG
break,html.Screen,4_123_1,2023-09-08T19:56:40.175Z,,0,,,NaN,,,,,,false,,,,654601,654600,,654600,,654601.58,8,400,,,
break_continue,html.Screen,4_123_2,2023-09-08T19:56:40.175Z,,0,,,NaN,,,,,,false,,,,654601,654601,,654601,,654601.58,8,400,,,
sequence,flow.Sequence,4_123,2023-09-08T19:56:40.176Z,,0,,,4167.420000000042,completion,,,,,false,,,,654602,654601,650432.4,650434,650433.58,654601.58,8,400,,,
trial,html.Screen,4_124_0,2023-09-08T19:56:46.327Z,,0,3,,6151.420000000042,response,ISIC_8087949.JPG,14,ISIC_9079361.JPG,ISIC_8087949.JPG,false,1,keypress(m),500,660754,660753,654600.4,654602,654601.58,660754.72,8,400,25,,ISIC_9079361.JPG
break,html.Screen,4_124_1,2023-09-08T19:56:46.328Z,,0,,,NaN,,,,,,false,,,,660755,660754,,660754,,660754.72,8,400,,,
break_continue,html.Screen,4_124_2,2023-09-08T19:56:46.329Z,,0,,,NaN,,,,,,false,,,,660755,660755,,660755,,660754.72,8,400,,,
sequence,flow.Sequence,4_124,2023-09-08T19:56:46.330Z,,0,,,6153.420000000042,completion,,,,,false,,,,660756,660755,654600.4,654602,654601.58,660754.72,8,400,,,
trial,html.Screen,4_125_0,2023-09-08T19:56:49.680Z,,0,3,,3350.280000000028,response,ISIC_9696846.JPG,2,ISIC_2563948.JPG,ISIC_9696846.JPG,false,1,keypress(m),500,664105,664105,660753.54,660756,660754.72,664107,8,400,26,,ISIC_2563948.JPG
break,html.Screen,4_125_1,2023-09-08T19:56:49.681Z,,0,,,NaN,,,,,,false,,,,664106,664106,,664105,,664107,8,400,,,
break_continue,html.Screen,4_125_2,2023-09-08T19:56:49.681Z,,0,,,NaN,,,,,,false,,,,664107,664106,,664106,,664107,8,400,,,
sequence,flow.Sequence,4_125,2023-09-08T19:56:49.682Z,,0,,,3351.280000000028,completion,,,,,false,,,,664107,664106,660753.54,660756,660754.72,664107,8,400,,,
trial,html.Screen,4_126_0,2023-09-08T19:56:55.323Z,,0,3,,5641,response,ISIC_4730066.JPG,15,ISIC_5629390.JPG,ISIC_4730066.JPG,false,1,keypress(m),500,669748,669748,664105.84,664107,664107,669749.34,8,400,27,,ISIC_5629390.JPG
break,html.Screen,4_126_1,2023-09-08T19:56:55.323Z,,0,,,NaN,,,,,,false,,,,669749,669748,,669748,,669749.34,8,400,,,
break_continue,html.Screen,4_126_2,2023-09-08T19:56:55.323Z,,0,,,NaN,,,,,,false,,,,669749,669749,,669749,,669749.34,8,400,,,
sequence,flow.Sequence,4_126,2023-09-08T19:56:55.324Z,,0,,,5642,completion,,,,,false,,,,669750,669749,664105.84,664107,664107,669749.34,8,400,,,
trial,html.Screen,4_127_0,2023-09-08T19:56:58.906Z,,0,3,,3582.6600000000326,response,ISIC_0604532.JPG,10,ISIC_1457687.JPG,ISIC_1457687.JPG,false,0,keypress(z),500,673332,673332,669747.82,669750,669749.34,673332.86,8,400,28,,ISIC_0604532.JPG
break,html.Screen,4_127_1,2023-09-08T19:56:58.907Z,,0,,,NaN,,,,,,false,,,,673333,673332,,673332,,673332.86,8,400,,,
break_continue,html.Screen,4_127_2,2023-09-08T19:56:58.908Z,,0,,,NaN,,,,,,false,,,,673333,673333,,673333,,673332.86,8,400,,,
sequence,flow.Sequence,4_127,2023-09-08T19:56:58.908Z,,0,,,3583.6600000000326,completion,,,,,false,,,,673333,673333,669747.82,669750,669749.34,673332.86,8,400,,,
trial,html.Screen,4_128_0,2023-09-08T19:57:04.992Z,,0,3,,6085.140000000014,response,ISIC_0234248.JPG,5,ISIC_0031891.JPG,ISIC_0031891.JPG,false,0,keypress(z),500,679418,679418,673331.68,673333,673332.86,679419.1,8,400,29,,ISIC_0234248.JPG
break,html.Screen,4_128_1,2023-09-08T19:57:04.994Z,,0,,,NaN,,,,,,false,,,,679419,679419,,679418,,679419.1,8,400,,,
break_continue,html.Screen,4_128_2,2023-09-08T19:57:04.994Z,,0,,,NaN,,,,,,false,,,,679419,679419,,679419,,679419.1,8,400,,,
sequence,flow.Sequence,4_128,2023-09-08T19:57:04.995Z,,0,,,6086.140000000014,completion,,,,,false,,,,679420,679419,673331.68,673333,673332.86,679419.1,8,400,,,
trial,html.Screen,4_129_0,2023-09-08T19:57:07.994Z,,0,3,,2999.9000000000233,response,ISIC_9406755.JPG,5,ISIC_2259190.JPG,ISIC_2259190.JPG,false,0,keypress(z),500,682419,682419,679417.92,679420,679419.1,682420.26,8,400,30,,ISIC_9406755.JPG
break,html.Screen,4_129_1,2023-09-08T19:57:07.995Z,,0,,,NaN,,,,,,false,,,,682420,682419,,682419,,682420.26,8,400,,,
break_continue,html.Screen,4_129_2,2023-09-08T19:57:07.995Z,,0,,,NaN,,,,,,false,,,,682420,682420,,682420,,682420.26,8,400,,,
sequence,flow.Sequence,4_129,2023-09-08T19:57:07.995Z,,0,,,3000.9000000000233,completion,,,,,false,,,,682420,682420,679417.92,679420,679419.1,682420.26,8,400,,,
trial,html.Screen,4_130_0,2023-09-08T19:57:11.954Z,,0,3,,3958.7399999999907,response,ISIC_6605122.JPG,11,ISIC_8978290.JPG,ISIC_8978290.JPG,false,0,keypress(z),500,686379,686379,682419.06,682421,682420.26,686380.36,8,400,31,,ISIC_6605122.JPG
break,html.Screen,4_130_1,2023-09-08T19:57:11.955Z,,0,,,NaN,,,,,,false,,,,686380,686380,,686380,,686380.36,8,400,,,
break_continue,html.Screen,4_130_2,2023-09-08T19:57:11.956Z,,0,,,NaN,,,,,,false,,,,686381,686381,,686381,,686380.36,8,400,,,
sequence,flow.Sequence,4_130,2023-09-08T19:57:11.956Z,,0,,,3960.7399999999907,completion,,,,,false,,,,686381,686381,682419.06,682420,682420.26,686380.36,8,400,,,
trial,html.Screen,4_131_0,2023-09-08T19:57:16.387Z,,0,3,,4430.640000000014,response,ISIC_0027798.JPG,8,ISIC_4332885.JPG,ISIC_4332885.JPG,false,0,keypress(z),500,690811,690811,686379.16,686381,686380.36,690812.9,8,400,32,,ISIC_0027798.JPG
break,html.Screen,4_131_1,2023-09-08T19:57:16.388Z,,0,,,NaN,,,,,,false,,,,690812,690812,,690812,,690812.9,8,400,,,
break_continue,html.Screen,4_131_2,2023-09-08T19:57:16.388Z,,0,,,NaN,,,,,,false,,,,690813,690813,,690813,,690812.9,8,400,,,
sequence,flow.Sequence,4_131,2023-09-08T19:57:16.389Z,,0,,,4432.640000000014,completion,,,,,false,,,,690813,690813,686379.16,686381,686380.36,690812.9,8,400,,,
trial,html.Screen,4_132_0,2023-09-08T19:57:19.338Z,,0,3,,2950.0999999999767,response,ISIC_0028405.JPG,6,ISIC_0030122.JPG,ISIC_0028405.JPG,false,1,keypress(m),500,693763,693763,690811.76,690813,690812.9,693764.06,8,400,33,,ISIC_0030122.JPG
break,html.Screen,4_132_1,2023-09-08T19:57:19.339Z,,0,,,NaN,,,,,,false,,,,693764,693764,,693763,,693764.06,8,400,,,
break_continue,html.Screen,4_132_2,2023-09-08T19:57:19.339Z,,0,,,NaN,,,,,,false,,,,693765,693764,,693764,,693764.06,8,400,,,
sequence,flow.Sequence,4_132,2023-09-08T19:57:19.340Z,,0,,,2951.0999999999767,completion,,,,,false,,,,693765,693764,690811.76,690813,690812.9,693764.06,8,400,,,
trial,html.Screen,4_133_0,2023-09-08T19:57:25.504Z,,0,3,,6162.939999999944,response,ISIC_0071735.JPG,15,ISIC_9048507.JPG,ISIC_9048507.JPG,false,0,keypress(z),500,699928,699927,693762.9,693765,693764.06,699929.08,8,400,34,,ISIC_0071735.JPG
break,html.Screen,4_133_1,2023-09-08T19:57:25.505Z,,0,,,NaN,,,,,,false,,,,699929,699928,,699928,,699929.08,8,400,,,
break_continue,html.Screen,4_133_2,2023-09-08T19:57:25.505Z,,0,,,NaN,,,,,,false,,,,699929,699929,,699929,,699929.08,8,400,,,
sequence,flow.Sequence,4_133,2023-09-08T19:57:25.505Z,,0,,,6164.939999999944,completion,,,,,false,,,,699929,699929,693762.9,693765,693764.06,699929.08,8,400,,,
trial,html.Screen,4_134_0,2023-09-08T19:57:31.658Z,,0,3,,6152.920000000042,response,ISIC_2882237.JPG,9,ISIC_6032520.JPG,ISIC_2882237.JPG,false,1,keypress(m),500,706082,706082,699927.9,699930,699929.08,706083.54,8,400,35,,ISIC_6032520.JPG
break,html.Screen,4_134_1,2023-09-08T19:57:31.659Z,,0,,,NaN,,,,,,false,,,,706083,706083,,706082,,706083.54,8,400,,,
break_continue,html.Screen,4_134_2,2023-09-08T19:57:31.659Z,,0,,,NaN,,,,,,false,,,,706083,706083,,706083,,706083.54,8,400,,,
sequence,flow.Sequence,4_134,2023-09-08T19:57:31.659Z,,0,,,6153.920000000042,completion,,,,,false,,,,706084,706083,699927.9,699930,699929.08,706083.54,8,400,,,
trial,html.Screen,4_135_0,2023-09-08T19:57:37.802Z,,0,3,,6142.459999999963,response,ISIC_9667297.JPG,11,ISIC_4076162.JPG,ISIC_4076162.JPG,false,0,keypress(z),500,712226,712226,706082.38,706084,706083.54,712226.9,8,400,36,,ISIC_9667297.JPG
break,html.Screen,4_135_1,2023-09-08T19:57:37.803Z,,0,,,NaN,,,,,,false,,,,712227,712226,,712226,,712226.9,8,400,,,
break_continue,html.Screen,4_135_2,2023-09-08T19:57:37.803Z,,0,,,NaN,,,,,,false,,,,712227,712227,,712227,,712226.9,8,400,,,
sequence,flow.Sequence,4_135,2023-09-08T19:57:37.803Z,,0,,,6143.459999999963,completion,,,,,false,,,,712228,712227,706082.38,706084,706083.54,712226.9,8,400,,,
trial,html.Screen,4_136_0,2023-09-08T19:57:40.777Z,,0,3,,2974.0999999999767,response,ISIC_0071208.JPG,9,ISIC_5703909.JPG,ISIC_5703909.JPG,false,0,keypress(z),500,715201,715201,712225.74,712228,712226.9,715202.38,8,400,37,,ISIC_0071208.JPG
break,html.Screen,4_136_1,2023-09-08T19:57:40.778Z,,0,,,NaN,,,,,,false,,,,715202,715202,,715201,,715202.38,8,400,,,
break_continue,html.Screen,4_136_2,2023-09-08T19:57:40.778Z,,0,,,NaN,,,,,,false,,,,715202,715202,,715202,,715202.38,8,400,,,
sequence,flow.Sequence,4_136,2023-09-08T19:57:40.779Z,,0,,,2975.0999999999767,completion,,,,,false,,,,715203,715202,712225.74,712228,712226.9,715202.38,8,400,,,
trial,html.Screen,4_137_0,2023-09-08T19:57:44.675Z,,0,3,,3896.6199999999953,response,ISIC_3058627.JPG,19,ISIC_0025472.JPG,ISIC_3058627.JPG,false,1,keypress(m),500,719099,719099,715201.22,715203,715202.38,719100.82,8,400,38,,ISIC_0025472.JPG
break,html.Screen,4_137_1,2023-09-08T19:57:44.676Z,,0,,,NaN,,,,,,false,,,,719100,719100,,719099,,719100.82,8,400,,,
break_continue,html.Screen,4_137_2,2023-09-08T19:57:44.677Z,,0,,,NaN,,,,,,false,,,,719101,719101,,719100,,719100.82,8,400,,,
sequence,flow.Sequence,4_137,2023-09-08T19:57:44.677Z,,0,,,3898.6199999999953,completion,,,,,false,,,,719101,719101,715201.22,715203,715202.38,719100.82,8,400,,,
trial,html.Screen,4_138_0,2023-09-08T19:57:48.741Z,,0,3,,4063.180000000051,response,ISIC_7421214.JPG,7,ISIC_3575862.JPG,ISIC_3575862.JPG,false,0,keypress(z),500,723165,723164,719099.66,719101,719100.82,723166.5,8,400,39,,ISIC_7421214.JPG
break,html.Screen,4_138_1,2023-09-08T19:57:48.742Z,,0,,,NaN,,,,,,false,,,,723166,723165,,723165,,723166.5,8,400,,,
break_continue,html.Screen,4_138_2,2023-09-08T19:57:48.743Z,,0,,,NaN,,,,,,false,,,,723167,723166,,723166,,723166.5,8,400,,,
sequence,flow.Sequence,4_138,2023-09-08T19:57:48.743Z,,0,,,4065.180000000051,completion,,,,,false,,,,723167,723166,719099.66,719101,719100.82,723166.5,8,400,,,
trial,html.Screen,4_139_0,2023-09-08T19:57:52.786Z,,0,3,,4042.5,response,ISIC_0056444.JPG,16,ISIC_0765973.JPG,ISIC_0765973.JPG,false,0,keypress(z),500,727209,727209,723165.36,723167,723166.5,727210.9,8,400,40,,ISIC_0056444.JPG
break,html.Screen,4_139_1,2023-09-08T19:57:52.787Z,,0,,,NaN,,,,,,false,,,,727210,727210,,727209,,727210.9,8,400,,,
break_continue,html.Screen,4_139_2,2023-09-08T19:57:52.788Z,,0,,,NaN,,,,,,false,,,,727210,727210,,727210,,727210.9,8,400,,,
sequence,flow.Sequence,4_139,2023-09-08T19:57:52.788Z,,0,,,4043.5,completion,,,,,false,,,,727211,727210,723165.36,723167,723166.5,727210.9,8,400,,,
trial,html.Screen,4_140_0,2023-09-08T19:57:56.053Z,,0,3,,3266.0999999999767,response,ISIC_4539674.JPG,11,ISIC_2309744.JPG,ISIC_4539674.JPG,false,1,keypress(m),500,730477,730477,727209.78,727211,727210.9,730478.1,8,400,41,,ISIC_2309744.JPG
break,html.Screen,4_140_1,2023-09-08T19:57:56.054Z,,0,,,NaN,,,,,,false,,,,730478,730478,,730477,,730478.1,8,400,,,
break_continue,html.Screen,4_140_2,2023-09-08T19:57:56.055Z,,0,,,NaN,,,,,,false,,,,730478,730478,,730478,,730478.1,8,400,,,
sequence,flow.Sequence,4_140,2023-09-08T19:57:56.055Z,,0,,,3267.0999999999767,completion,,,,,false,,,,730479,730478,727209.78,727211,727210.9,730478.1,8,400,,,
trial,html.Screen,4_141_0,2023-09-08T19:58:00.077Z,,0,3,,4021.9000000000233,response,ISIC_0073086.JPG,12,ISIC_1208705.JPG,ISIC_0073086.JPG,false,1,keypress(m),500,734500,734500,730476.94,730479,730478.1,734501.42,8,400,42,,ISIC_1208705.JPG
break,html.Screen,4_141_1,2023-09-08T19:58:00.078Z,,0,,,NaN,,,,,,false,,,,734501,734501,,734500,,734501.42,8,400,,,
break_continue,html.Screen,4_141_2,2023-09-08T19:58:00.079Z,,0,,,NaN,,,,,,false,,,,734502,734502,,734501,,734501.42,8,400,,,
sequence,flow.Sequence,4_141,2023-09-08T19:58:00.079Z,,0,,,4023.9000000000233,completion,,,,,false,,,,734502,734502,730476.94,730479,730478.1,734501.42,8,400,,,
trial,html.Screen,4_142_0,2023-09-08T19:58:04.036Z,,0,3,,3957.579999999958,response,ISIC_8909545.JPG,2,ISIC_0010719.JPG,ISIC_8909545.JPG,false,1,keypress(m),500,738459,738459,734500.28,734502,734501.42,738460.36,8,400,43,,ISIC_0010719.JPG
break,html.Screen,4_142_1,2023-09-08T19:58:04.036Z,,0,,,NaN,,,,,,false,,,,738460,738460,,738459,,738460.36,8,400,,,
break_continue,html.Screen,4_142_2,2023-09-08T19:58:04.037Z,,0,,,NaN,,,,,,false,,,,738460,738460,,738460,,738460.36,8,400,,,
sequence,flow.Sequence,4_142,2023-09-08T19:58:04.037Z,,0,,,3958.579999999958,completion,,,,,false,,,,738460,738460,734500.28,734502,734501.42,738460.36,8,400,,,
trial,html.Screen,4_143_0,2023-09-08T19:58:07.538Z,,0,3,,3501.640000000014,response,ISIC_6201338.JPG,2,ISIC_8899350.JPG,ISIC_6201338.JPG,false,1,keypress(m),500,741962,741962,738459.22,738461,738460.36,741962.86,8,400,44,,ISIC_8899350.JPG
break,html.Screen,4_143_1,2023-09-08T19:58:07.539Z,,0,,,NaN,,,,,,false,,,,741963,741963,,741962,,741962.86,8,400,,,
break_continue,html.Screen,4_143_2,2023-09-08T19:58:07.540Z,,0,,,NaN,,,,,,false,,,,741963,741963,,741963,,741962.86,8,400,,,
sequence,flow.Sequence,4_143,2023-09-08T19:58:07.540Z,,0,,,3502.640000000014,completion,,,,,false,,,,741963,741963,738459.22,738461,738460.36,741962.86,8,400,,,
trial,html.Screen,4_144_0,2023-09-08T19:58:11.334Z,,0,3,,3795.140000000014,response,ISIC_0029017.JPG,14,ISIC_0062114.JPG,ISIC_0029017.JPG,false,1,keypress(m),500,745758,745758,741961.72,741963,741962.86,745758.94,8,400,45,,ISIC_0062114.JPG
break,html.Screen,4_144_1,2023-09-08T19:58:11.335Z,,0,,,NaN,,,,,,false,,,,745758,745758,,745758,,745758.94,8,400,,,
break_continue,html.Screen,4_144_2,2023-09-08T19:58:11.336Z,,0,,,NaN,,,,,,false,,,,745759,745758,,745758,,745758.94,8,400,,,
sequence,flow.Sequence,4_144,2023-09-08T19:58:11.336Z,,0,,,3795.140000000014,completion,,,,,false,,,,745759,745758,741961.72,741963,741962.86,745758.94,8,400,,,
trial,html.Screen,4_145_0,2023-09-08T19:58:14.404Z,,0,3,,3067.060000000056,response,ISIC_0072004.JPG,4,ISIC_0032551.JPG,ISIC_0032551.JPG,false,0,keypress(z),500,748826,748826,745757.6,745759,745758.94,748828.02,8,400,46,,ISIC_0072004.JPG
break,html.Screen,4_145_1,2023-09-08T19:58:14.405Z,,0,,,NaN,,,,,,false,,,,748827,748827,,748827,,748828.02,8,400,,,
break_continue,html.Screen,4_145_2,2023-09-08T19:58:14.405Z,,0,,,NaN,,,,,,false,,,,748828,748827,,748827,,748828.02,8,400,,,
sequence,flow.Sequence,4_145,2023-09-08T19:58:14.405Z,,0,,,3068.060000000056,completion,,,,,false,,,,748828,748827,745757.6,745759,745758.94,748828.02,8,400,,,
trial,html.Screen,4_146_0,2023-09-08T19:58:19.946Z,,0,3,,5540.979999999981,response,ISIC_0011375.JPG,14,ISIC_0030929.JPG,ISIC_0030929.JPG,false,0,keypress(z),500,754369,754369,748826.88,748828,748828.02,754370.78,8,400,47,,ISIC_0011375.JPG
break,html.Screen,4_146_1,2023-09-08T19:58:19.948Z,,0,,,NaN,,,,,,false,,,,754370,754370,,754369,,754370.78,8,400,,,
break_continue,html.Screen,4_146_2,2023-09-08T19:58:19.948Z,,0,,,NaN,,,,,,false,,,,754371,754371,,754370,,754370.78,8,400,,,
sequence,flow.Sequence,4_146,2023-09-08T19:58:19.949Z,,0,,,5542.979999999981,completion,,,,,false,,,,754371,754371,748826.88,748828,748828.02,754370.78,8,400,,,
trial,html.Screen,4_147_0,2023-09-08T19:58:23.939Z,,0,3,,3990.219999999972,response,ISIC_0014190.JPG,1,ISIC_2741857.JPG,ISIC_2741857.JPG,false,0,keypress(z),500,758362,758361,754369.6,754371,754370.78,758363.6,8,400,48,,ISIC_0014190.JPG
break,html.Screen,4_147_1,2023-09-08T19:58:23.940Z,,0,,,NaN,,,,,,false,,,,758363,758362,,758362,,758363.6,8,400,,,
break_continue,html.Screen,4_147_2,2023-09-08T19:58:23.941Z,,0,,,NaN,,,,,,false,,,,758364,758364,,758364,,758363.6,8,400,,,
sequence,flow.Sequence,4_147,2023-09-08T19:58:23.941Z,,0,,,3993.219999999972,completion,,,,,false,,,,758364,758364,754369.6,754371,754370.78,758363.6,8,400,,,
trial,html.Screen,4_148_0,2023-09-08T19:58:28.311Z,,0,3,,4370.400000000023,response,ISIC_0001148.JPG,15,ISIC_6258744.JPG,ISIC_0001148.JPG,false,1,keypress(m),500,762734,762734,758362.46,758364,758363.6,762735.54,8,400,49,,ISIC_6258744.JPG
break,html.Screen,4_148_1,2023-09-08T19:58:28.312Z,,0,,,NaN,,,,,,false,,,,762735,762735,,762734,,762735.54,8,400,,,
break_continue,html.Screen,4_148_2,2023-09-08T19:58:28.313Z,,0,,,NaN,,,,,,false,,,,762736,762736,,762735,,762735.54,8,400,,,
sequence,flow.Sequence,4_148,2023-09-08T19:58:28.313Z,,0,,,4372.400000000023,completion,,,,,false,,,,762736,762736,758362.46,758364,758363.6,762735.54,8,400,,,
trial,html.Screen,4_149_0,2023-09-08T19:58:33.078Z,,0,3,,4764.459999999963,response,ISIC_0046647.JPG,17,ISIC_1615996.JPG,ISIC_0046647.JPG,false,1,keypress(m),500,767501,767500,762734.12,762736,762735.54,767502.06,8,400,50,,ISIC_1615996.JPG
break,html.Screen,4_149_1,2023-09-08T19:58:43.068Z,,0,,,10003.979999999981,timeout,,,,,false,,,,777490,777489.38,767500.9,767501,767502.06,777506.04,8,400,,,
break_continue,html.Screen,4_149_2,2023-09-08T19:58:44.470Z,,0,,,1367.9599999999627,response,,,,,false,continue,keypress(Space),,778893,778874,777489.38,777490,777506.04,778893.34,8,400,,,
sequence,flow.Sequence,4_149,2023-09-08T19:58:44.470Z,,0,,,16138.459999999963,completion,,,,,false,,,,778893,778874,762734.12,762736,762735.54,778893.34,8,400,,,
trial,html.Screen,4_150_0,2023-09-08T19:58:47.749Z,,0,4,,3276.6600000000326,response,ISIC_0063445.JPG,9,ISIC_0026352.JPG,ISIC_0063445.JPG,false,1,keypress(m),500,782170,782170,778892.56,778893,778893.34,782171.94,8,400,1,,ISIC_0026352.JPG
break,html.Screen,4_150_1,2023-09-08T19:58:47.750Z,,0,,,NaN,,,,,,false,,,,782171,782171,,782170,,782171.94,8,400,,,
