sender,sender_type,sender_id,timestamp,meta,,blockNo,condition,duration,ended_on,img_left,img_reveal,img_right,loser,practice,response,response_action,selection_duration,time_commit,time_end,time_render,time_run,time_show,time_switch,total_blocks,total_trials,trialNo,url,winner
informed_consent,html.Screen,0,2023-09-15T20:40:40.077Z,"{""labjs_version"":""20.2.4"",""labjs_build"":{""flavor"":""production"",""commit"":""f5b4a49f956347addd546a832a3327688c2c0fef""},""location"":""https://run.pavlovia.org/MurrayBennett/melanoma-2afc/?participant=67689&platform=sona"",""userAgent"":""Mozilla/5.0 (Windows NT 10.0; Win64; x64) AppleWebKit/537.36 (KHTML, like Gecko) Chrome/117.0.0.0 Safari/537.36"",""platform"":""Win32"",""language"":""en-US"",""locale"":""en-US"",""timeZone"":""Etc/GMT+8"",""timezoneOffset"":480,""screen_width"":1536,""screen_height"":864,""scroll_width"":1536,""scroll_height"":659,""window_innerWidth"":1536,""window_innerHeight"":707,""devicePixelRatio"":1.25}",,,,2050.7419999955296,response,,,,,,consent,click button,,5116.89999999851,5115.69999999553,3058.001,3054,3064.958,5120.422,,,,"{""participant"":""67689"",""platform"":""sona""}",
Welcome,html.Screen,1,2023-09-15T20:40:42.421Z,,,,regular,2340.4779999985103,response,,,,,,continue,click button,,7461.5999999940395,7460.89999999851,5113.685,5116.89999999851,5120.422,7467.612,,,,,
trial,html.Screen,2_0_0,2023-09-15T20:40:46.312Z,,0,0,,3884.28799999851,response,ISIC_0061792.JPG,,ISIC_4679428.JPG,ISIC_4679428.JPG,true,0,keypress(z),500,11352.29999999702,11351.89999999851,7460.808,7461.79999999702,7467.612,11356.545,1,6,1,,ISIC_0061792.JPG
sequence,flow.Sequence,2_0,2023-09-15T20:40:46.313Z,,0,,,3884.28799999851,completion,,,,,true,,,,11352.89999999851,11351.89999999851,7460.808,7461.69999999553,7467.612,11356.545,1,6,,,
trial,html.Screen,2_1_0,2023-09-15T20:40:49.194Z,,0,0,,2877.955,response,ISIC_5199497.JPG,,ISIC_0776486.JPG,ISIC_0776486.JPG,true,0,keypress(z),500,14234.59999999404,14234.5,11349.448,11353.09999999404,11356.545,14238.258,1,6,2,,ISIC_5199497.JPG
sequence,flow.Sequence,2_1,2023-09-15T20:40:49.195Z,,0,,,2877.955,completion,,,,,true,,,,14234.59999999404,14234.5,11349.448,11353,11356.545,14238.258,1,6,,,
trial,html.Screen,2_2_0,2023-09-15T20:40:52.956Z,,0,0,,3757.94199999553,response,ISIC_2556187.JPG,,ISIC_8575776.JPG,ISIC_8575776.JPG,true,0,keypress(z),500,17996.29999999702,17996.19999999553,14231.303,14234.69999999553,14238.258,18002.088,1,6,3,,ISIC_2556187.JPG
sequence,flow.Sequence,2_2,2023-09-15T20:40:52.956Z,,0,,,3757.94199999553,completion,,,,,true,,,,17996.39999999851,17996.19999999553,14231.303,14234.69999999553,14238.258,18002.088,1,6,,,
trial,html.Screen,2_3_0,2023-09-15T20:40:55.774Z,,0,0,,2811.4120000000003,response,ISIC_8141769.JPG,,ISIC_9238366.JPG,ISIC_8141769.JPG,true,1,keypress(m),500,20813.59999999404,20813.5,17995.135,17996.39999999851,18002.088,20821.943,1,6,4,,ISIC_9238366.JPG
sequence,flow.Sequence,2_3,2023-09-15T20:40:55.774Z,,0,,,2811.4120000000003,completion,,,,,true,,,,20813.69999999553,20813.5,17995.135,17996.39999999851,18002.088,20821.943,1,6,,,
trial,html.Screen,2_4_0,2023-09-15T20:40:59.455Z,,0,0,,3673.3569999970205,response,ISIC_8949026.JPG,,ISIC_9959593.JPG,ISIC_8949026.JPG,true,1,keypress(m),500,24495.5,24495.29999999702,20807.55,20813.79999999702,20821.943,24501.911,1,6,5,,ISIC_9959593.JPG
sequence,flow.Sequence,2_4,2023-09-15T20:40:59.456Z,,0,,,3673.3569999970205,completion,,,,,true,,,,24495.79999999702,24495.29999999702,20807.55,20813.79999999702,20821.943,24501.911,1,6,,,
trial,html.Screen,2_5_0,2023-09-15T20:41:02.226Z,,0,0,,2763.48899999851,response,ISIC_0460240.JPG,,ISIC_0010479.JPG,ISIC_0010479.JPG,true,0,keypress(z),500,27265.69999999553,27265.39999999851,24494.949,24495.89999999851,24501.911,27272.72,1,6,6,,ISIC_0460240.JPG
sequence,flow.Sequence,2_5,2023-09-15T20:41:02.226Z,,0,,,2763.48899999851,completion,,,,,true,,,,27266.19999999553,27265.39999999851,24494.949,24495.79999999702,24501.911,27272.72,1,6,,,
loop,flow.Loop,2,2023-09-15T20:41:02.226Z,,,,,19797.78799999851,completion,,,,,true,,,,27266.5,27265.39999999851,7460.808,7461.69999999553,7467.612,27272.72,1,6,,,
exp_instructions,html.Screen,3,2023-09-15T20:41:04.091Z,,,,,1857.7799999999988,response,,,,,,continue,keypress(Space),,29131.19999999553,29130.5,27265.769,27266.59999999404,27272.72,29133.814,,,,,
trial,html.Screen,4_0_0,2023-09-15T20:41:09.006Z,,0,1,,4911.985999997021,response,ISIC_1985569.JPG,4,ISIC_0070163.JPG,ISIC_1985569.JPG,false,1,keypress(m),500,34046.09999999404,34045.79999999702,29126.783,29131.29999999702,29133.814,34050.413,8,400,1,,ISIC_0070163.JPG
break,html.Screen,4_0_1,2023-09-15T20:41:09.008Z,,0,,,NaN,,,,,,false,,,,34047.79999999702,34047.39999999851,,34046.5,,34050.413,8,400,,,
break_continue,html.Screen,4_0_2,2023-09-15T20:41:09.008Z,,0,,,NaN,,,,,,false,,,,34048.59999999404,34048.39999999851,,34048,,34050.413,8,400,,,
sequence,flow.Sequence,4_0,2023-09-15T20:41:09.009Z,,0,,,4914.585999998511,completion,,,,,false,,,,34048.79999999702,34048.39999999851,29126.783,29131.29999999702,29133.814,34050.413,8,400,,,
trial,html.Screen,4_1_0,2023-09-15T20:41:12.020Z,,0,1,,3009.286999995529,response,ISIC_8249565.JPG,5,ISIC_0030910.JPG,ISIC_0030910.JPG,false,0,keypress(z),500,37060.09999999404,37059.69999999553,34043.322,34049,34050.413,37064.243,8,400,2,,ISIC_8249565.JPG
break,html.Screen,4_1_1,2023-09-15T20:41:12.021Z,,0,,,NaN,,,,,,false,,,,37061.39999999851,37061,,37060.39999999851,,37064.243,8,400,,,
break_continue,html.Screen,4_1_2,2023-09-15T20:41:12.022Z,,0,,,NaN,,,,,,false,,,,37061.89999999851,37061.69999999553,,37061.39999999851,,37064.243,8,400,,,
sequence,flow.Sequence,4_1,2023-09-15T20:41:12.022Z,,0,,,3011.286999995529,completion,,,,,false,,,,37062.09999999404,37061.69999999553,34043.322,34048.89999999851,34050.413,37064.243,8,400,,,
trial,html.Screen,4_2_0,2023-09-15T20:41:14.824Z,,0,1,,2799.5569999970176,response,ISIC_0063289.JPG,5,ISIC_0000065.JPG,ISIC_0063289.JPG,false,1,keypress(m),500,39864.09999999404,39863.79999999702,37057.156,37062.19999999553,37064.243,39869.707,8,400,3,,ISIC_0000065.JPG
break,html.Screen,4_2_1,2023-09-15T20:41:14.825Z,,0,,,NaN,,,,,,false,,,,39865.19999999553,39864.89999999851,,39864.29999999702,,39869.707,8,400,,,
break_continue,html.Screen,4_2_2,2023-09-15T20:41:14.826Z,,0,,,NaN,,,,,,false,,,,39865.79999999702,39865.69999999553,,39865.39999999851,,39869.707,8,400,,,
sequence,flow.Sequence,4_2,2023-09-15T20:41:14.826Z,,0,,,2801.4569999955274,completion,,,,,false,,,,39865.89999999851,39865.69999999553,37057.156,37062.19999999553,37064.243,39869.707,8,400,,,
trial,html.Screen,4_3_0,2023-09-15T20:41:17.836Z,,0,1,,3006.292999999998,response,ISIC_0013977.JPG,5,ISIC_9178485.JPG,ISIC_0013977.JPG,false,1,keypress(m),500,42876.19999999553,42876,39862.633,39866.09999999404,39869.707,42883.473,8,400,4,,ISIC_9178485.JPG
break,html.Screen,4_3_1,2023-09-15T20:41:17.837Z,,0,,,NaN,,,,,,false,,,,42877.39999999851,42877.09999999404,,42876.5,,42883.473,8,400,,,
break_continue,html.Screen,4_3_2,2023-09-15T20:41:17.838Z,,0,,,NaN,,,,,,false,,,,42878,42877.79999999702,,42877.59999999404,,42883.473,8,400,,,
sequence,flow.Sequence,4_3,2023-09-15T20:41:17.838Z,,0,,,3008.0929999970176,completion,,,,,false,,,,42878.09999999404,42877.79999999702,39862.633,39866,39869.707,42883.473,8,400,,,
trial,html.Screen,4_4_0,2023-09-15T20:41:20.640Z,,0,1,,2796.3269999970216,response,ISIC_2141003.JPG,6,ISIC_0024307.JPG,ISIC_0024307.JPG,false,0,keypress(z),500,45680.09999999404,45679.79999999702,42876.446,42878.29999999702,42883.473,45689.295,8,400,5,,ISIC_2141003.JPG
break,html.Screen,4_4_1,2023-09-15T20:41:20.641Z,,0,,,NaN,,,,,,false,,,,45681.29999999702,45681,,45680.39999999851,,45689.295,8,400,,,
break_continue,html.Screen,4_4_2,2023-09-15T20:41:20.642Z,,0,,,NaN,,,,,,false,,,,45681.79999999702,45681.59999999404,,45681.5,,45689.295,8,400,,,
sequence,flow.Sequence,4_4,2023-09-15T20:41:20.642Z,,0,,,2798.1269999940414,completion,,,,,false,,,,45682,45681.59999999404,42876.446,42878.29999999702,42883.473,45689.295,8,400,,,
trial,html.Screen,4_5_0,2023-09-15T20:41:23.349Z,,0,1,,2699.5049999970215,response,ISIC_1698119.JPG,5,ISIC_0228772.JPG,ISIC_0228772.JPG,false,0,keypress(z),500,48389.09999999404,48388.79999999702,45675.04,45682.19999999553,45689.295,48404.138,8,400,6,,ISIC_1698119.JPG
break,html.Screen,4_5_1,2023-09-15T20:41:23.350Z,,0,,,NaN,,,,,,false,,,,48390.29999999702,48389.89999999851,,48389.29999999702,,48404.138,8,400,,,
break_continue,html.Screen,4_5_2,2023-09-15T20:41:23.351Z,,0,,,NaN,,,,,,false,,,,48390.79999999702,48390.69999999553,,48390.39999999851,,48404.138,8,400,,,
sequence,flow.Sequence,4_5,2023-09-15T20:41:23.351Z,,0,,,2701.4049999955314,completion,,,,,false,,,,48391.09999999404,48390.69999999553,45675.04,45682.09999999404,45689.295,48404.138,8,400,,,
trial,html.Screen,4_6_0,2023-09-15T20:41:26.201Z,,0,1,,2836.862000000001,response,ISIC_0033318.JPG,5,ISIC_8167374.JPG,ISIC_8167374.JPG,false,0,keypress(z),500,51241.29999999702,51241,48397.309,48391.29999999702,48404.138,51244.479,8,400,7,,ISIC_0033318.JPG
break,html.Screen,4_6_1,2023-09-15T20:41:26.202Z,,0,,,NaN,,,,,,false,,,,51242.5,51242.09999999404,,51241.5,,51244.479,8,400,,,
break_continue,html.Screen,4_6_2,2023-09-15T20:41:26.203Z,,0,,,NaN,,,,,,false,,,,51243,51243,,51242.59999999404,,51244.479,8,400,,,
sequence,flow.Sequence,4_6,2023-09-15T20:41:26.203Z,,0,,,2838.862000000001,completion,,,,,false,,,,51243.29999999702,51243,48397.309,48391.19999999553,48404.138,51244.479,8,400,,,
trial,html.Screen,4_7_0,2023-09-15T20:41:29.038Z,,0,1,,2833.4209999985105,response,ISIC_6052437.JPG,6,ISIC_0058998.JPG,ISIC_0058998.JPG,false,0,keypress(z),500,54078.09999999404,54077.89999999851,51237.387,51243.5,51244.479,54084.595,8,400,8,,ISIC_6052437.JPG
break,html.Screen,4_7_1,2023-09-15T20:41:29.038Z,,0,,,NaN,,,,,,false,,,,54078.29999999702,54078.29999999702,,54078.19999999553,,54084.595,8,400,,,
break_continue,html.Screen,4_7_2,2023-09-15T20:41:29.038Z,,0,,,NaN,,,,,,false,,,,54078.5,54078.5,,54078.5,,54084.595,8,400,,,
sequence,flow.Sequence,4_7,2023-09-15T20:41:29.039Z,,0,,,2834.0210000000006,completion,,,,,false,,,,54078.59999999404,54078.5,51237.387,51243.39999999851,51244.479,54084.595,8,400,,,
trial,html.Screen,4_8_0,2023-09-15T20:41:31.872Z,,0,1,,2826.6049999955285,response,ISIC_0056790.JPG,4,ISIC_0010442.JPG,ISIC_0010442.JPG,false,0,keypress(z),500,56911.59999999404,56911.19999999553,54077.563,54078.59999999404,54084.595,56917.951,8,400,9,,ISIC_0056790.JPG
break,html.Screen,4_8_1,2023-09-15T20:41:31.873Z,,0,,,NaN,,,,,,false,,,,56912.69999999553,56912.39999999851,,56911.79999999702,,56917.951,8,400,,,
break_continue,html.Screen,4_8_2,2023-09-15T20:41:31.873Z,,0,,,NaN,,,,,,false,,,,56913.29999999702,56913.19999999553,,56913,,56917.951,8,400,,,
sequence,flow.Sequence,4_8,2023-09-15T20:41:31.873Z,,0,,,2828.6049999955285,completion,,,,,false,,,,56913.59999999404,56913.19999999553,54077.563,54078.59999999404,54084.595,56917.951,8,400,,,
trial,html.Screen,4_9_0,2023-09-15T20:41:34.660Z,,0,1,,2781.348999997019,response,ISIC_0031611.JPG,4,ISIC_0010081.JPG,ISIC_0010081.JPG,false,0,keypress(z),500,59699.59999999404,59699.29999999702,56910.9,56913.69999999553,56917.951,59702.477,8,400,10,,ISIC_0031611.JPG
break,html.Screen,4_9_1,2023-09-15T20:41:34.660Z,,0,,,NaN,,,,,,false,,,,59699.89999999851,59699.79999999702,,59699.59999999404,,59702.477,8,400,,,
break_continue,html.Screen,4_9_2,2023-09-15T20:41:34.660Z,,0,,,NaN,,,,,,false,,,,59700.09999999404,59700.09999999404,,59700,,59702.477,8,400,,,
sequence,flow.Sequence,4_9,2023-09-15T20:41:34.660Z,,0,,,2782.1489999940386,completion,,,,,false,,,,59700.09999999404,59700.09999999404,56910.9,56913.69999999553,56917.951,59702.477,8,400,,,
trial,html.Screen,4_10_0,2023-09-15T20:41:37.446Z,,0,1,,2783.1229999940406,response,ISIC_8409262.JPG,5,ISIC_0073032.JPG,ISIC_0073032.JPG,false,0,keypress(z),500,62485.79999999702,62485.59999999404,59695.466,59700.19999999553,59702.477,62501.09,8,400,11,,ISIC_8409262.JPG
break,html.Screen,4_10_1,2023-09-15T20:41:37.447Z,,0,,,NaN,,,,,,false,,,,62487,62486.69999999553,,62486.09999999404,,62501.09,8,400,,,
break_continue,html.Screen,4_10_2,2023-09-15T20:41:37.448Z,,0,,,NaN,,,,,,false,,,,62487.59999999404,62487.39999999851,,62487.09999999404,,62501.09,8,400,,,
sequence,flow.Sequence,4_10,2023-09-15T20:41:37.448Z,,0,,,2784.922999998511,completion,,,,,false,,,,62487.79999999702,62487.39999999851,59695.466,59700.19999999553,59702.477,62501.09,8,400,,,
trial,html.Screen,4_11_0,2023-09-15T20:41:40.298Z,,0,1,,2837.109999995533,response,ISIC_2916677.JPG,4,ISIC_5546806.JPG,ISIC_2916677.JPG,false,1,keypress(m),500,65338.5,65338.19999999553,62494.325,62487.89999999851,62501.09,65341.353,8,400,12,,ISIC_5546806.JPG
break,html.Screen,4_11_1,2023-09-15T20:41:40.300Z,,0,,,NaN,,,,,,false,,,,65339.59999999404,65339.29999999702,,65338.59999999404,,65341.353,8,400,,,
break_continue,html.Screen,4_11_2,2023-09-15T20:41:40.300Z,,0,,,NaN,,,,,,false,,,,65340.19999999553,65340,,65339.69999999553,,65341.353,8,400,,,
sequence,flow.Sequence,4_11,2023-09-15T20:41:40.300Z,,0,,,2838.9100000000035,completion,,,,,false,,,,65340.39999999851,65340,62494.325,62487.89999999851,62501.09,65341.353,8,400,,,
trial,html.Screen,4_12_0,2023-09-15T20:41:42.991Z,,0,1,,2689.846999995527,response,ISIC_1336351.JPG,5,ISIC_6767569.JPG,ISIC_6767569.JPG,false,0,keypress(z),500,68031.5,68031.19999999553,65334.232,65340.5,65341.353,68035.734,8,400,13,,ISIC_1336351.JPG
break,html.Screen,4_12_1,2023-09-15T20:41:42.993Z,,0,,,NaN,,,,,,false,,,,68032.69999999553,68032.39999999851,,68031.69999999553,,68035.734,8,400,,,
break_continue,html.Screen,4_12_2,2023-09-15T20:41:42.993Z,,0,,,NaN,,,,,,false,,,,68033.29999999702,68033.19999999553,,68033,,68035.734,8,400,,,
sequence,flow.Sequence,4_12,2023-09-15T20:41:42.993Z,,0,,,2691.846999995527,completion,,,,,false,,,,68033.5,68033.19999999553,65334.232,65340.39999999851,65341.353,68035.734,8,400,,,
trial,html.Screen,4_13_0,2023-09-15T20:41:45.780Z,,0,1,,2784.365999994043,response,ISIC_0025814.JPG,5,ISIC_7216266.JPG,ISIC_0025814.JPG,false,1,keypress(m),500,70820.29999999702,70820.09999999404,68028.635,68033.69999999553,68035.734,70827.257,8,400,14,,ISIC_7216266.JPG
break,html.Screen,4_13_1,2023-09-15T20:41:45.781Z,,0,,,NaN,,,,,,false,,,,70821.19999999553,70821,,70820.5,,70827.257,8,400,,,
break_continue,html.Screen,4_13_2,2023-09-15T20:41:45.782Z,,0,,,NaN,,,,,,false,,,,70821.59999999404,70821.5,,70821.39999999851,,70827.257,8,400,,,
sequence,flow.Sequence,4_13,2023-09-15T20:41:45.782Z,,0,,,2785.7660000000033,completion,,,,,false,,,,70821.79999999702,70821.5,68028.635,68033.59999999404,68035.734,70827.257,8,400,,,
trial,html.Screen,4_14_0,2023-09-15T20:41:48.504Z,,0,1,,2716.142999998512,response,ISIC_7180096.JPG,5,ISIC_0058138.JPG,ISIC_0058138.JPG,false,0,keypress(z),500,73543.69999999553,73543.39999999851,70820.183,70821.89999999851,70827.257,73549.467,8,400,15,,ISIC_7180096.JPG
break,html.Screen,4_14_1,2023-09-15T20:41:48.505Z,,0,,,NaN,,,,,,false,,,,73544.79999999702,73544.5,,73543.89999999851,,73549.467,8,400,,,
break_continue,html.Screen,4_14_2,2023-09-15T20:41:48.505Z,,0,,,NaN,,,,,,false,,,,73545.39999999851,73545.09999999404,,73544.89999999851,,73549.467,8,400,,,
sequence,flow.Sequence,4_14,2023-09-15T20:41:48.505Z,,0,,,2717.8429999940417,completion,,,,,false,,,,73545.5,73545.09999999404,70820.183,70821.79999999702,70827.257,73549.467,8,400,,,
trial,html.Screen,4_15_0,2023-09-15T20:41:51.405Z,,0,1,,2895.1329999940353,response,ISIC_2106823.JPG,5,ISIC_9876515.JPG,ISIC_9876515.JPG,false,0,keypress(z),500,76444.89999999851,76444.59999999404,73542.43,73545.59999999404,73549.467,76452.182,8,400,16,,ISIC_2106823.JPG
break,html.Screen,4_15_1,2023-09-15T20:41:51.406Z,,0,,,NaN,,,,,,false,,,,76446.09999999404,76445.79999999702,,76445.09999999404,,76452.182,8,400,,,
break_continue,html.Screen,4_15_2,2023-09-15T20:41:51.407Z,,0,,,NaN,,,,,,false,,,,76446.59999999404,76446.5,,76446.29999999702,,76452.182,8,400,,,
sequence,flow.Sequence,4_15,2023-09-15T20:41:51.407Z,,0,,,2897.032999999996,completion,,,,,false,,,,76446.79999999702,76446.5,73542.43,73545.59999999404,73549.467,76452.182,8,400,,,
trial,html.Screen,4_16_0,2023-09-15T20:41:54.322Z,,0,1,,2909.517999995529,response,ISIC_0879097.JPG,5,ISIC_0028781.JPG,ISIC_0879097.JPG,false,1,keypress(m),500,79362,79361.69999999553,76445.082,76447,76452.182,79368.711,8,400,17,,ISIC_0028781.JPG
break,html.Screen,4_16_1,2023-09-15T20:41:54.323Z,,0,,,NaN,,,,,,false,,,,79363.09999999404,79362.89999999851,,79362.19999999553,,79368.711,8,400,,,
break_continue,html.Screen,4_16_2,2023-09-15T20:41:54.324Z,,0,,,NaN,,,,,,false,,,,79363.69999999553,79363.59999999404,,79363.29999999702,,79368.711,8,400,,,
sequence,flow.Sequence,4_16,2023-09-15T20:41:54.324Z,,0,,,2911.417999994039,completion,,,,,false,,,,79363.89999999851,79363.59999999404,76445.082,76447,76452.182,79368.711,8,400,,,
trial,html.Screen,4_17_0,2023-09-15T20:41:57.430Z,,0,1,,3100.988999995534,response,ISIC_0000306.JPG,5,ISIC_0030032.JPG,ISIC_0030032.JPG,false,0,keypress(z),500,82470.09999999404,82469.69999999553,79361.687,79364.09999999404,79368.711,82472.883,8,400,18,,ISIC_0000306.JPG
break,html.Screen,4_17_1,2023-09-15T20:41:57.431Z,,0,,,NaN,,,,,,false,,,,82471.19999999553,82471,,82470.29999999702,,82472.883,8,400,,,
break_continue,html.Screen,4_17_2,2023-09-15T20:41:57.432Z,,0,,,NaN,,,,,,false,,,,82471.79999999702,82471.69999999553,,82471.39999999851,,82472.883,8,400,,,
sequence,flow.Sequence,4_17,2023-09-15T20:41:57.432Z,,0,,,3102.988999995534,completion,,,,,false,,,,82472,82471.69999999553,79361.687,79364,79368.711,82472.883,8,400,,,
trial,html.Screen,4_18_0,2023-09-15T20:42:00.283Z,,0,1,,2849.416999997018,response,ISIC_8320640.JPG,5,ISIC_0064669.JPG,ISIC_0064669.JPG,false,0,keypress(z),500,85322.59999999404,85322.29999999702,82465.777,82472.19999999553,82472.883,85326.974,8,400,19,,ISIC_8320640.JPG
break,html.Screen,4_18_1,2023-09-15T20:42:00.283Z,,0,,,NaN,,,,,,false,,,,85323.5,85323.29999999702,,85322.69999999553,,85326.974,8,400,,,
break_continue,html.Screen,4_18_2,2023-09-15T20:42:00.284Z,,0,,,NaN,,,,,,false,,,,85323.79999999702,85323.69999999553,,85323.59999999404,,85326.974,8,400,,,
sequence,flow.Sequence,4_18,2023-09-15T20:42:00.284Z,,0,,,2850.816999995528,completion,,,,,false,,,,85323.89999999851,85323.69999999553,82465.777,82472.19999999553,82472.883,85326.974,8,400,,,
trial,html.Screen,4_19_0,2023-09-15T20:42:04.350Z,,0,1,,4062.325999997018,response,ISIC_6620748.JPG,5,ISIC_7198887.JPG,ISIC_6620748.JPG,false,1,keypress(m),500,89389.59999999404,89389.29999999702,85319.899,85324,85326.974,89396.202,8,400,20,,ISIC_7198887.JPG
break,html.Screen,4_19_1,2023-09-15T20:42:04.351Z,,0,,,NaN,,,,,,false,,,,89390.79999999702,89390.39999999851,,89389.79999999702,,89396.202,8,400,,,
break_continue,html.Screen,4_19_2,2023-09-15T20:42:04.351Z,,0,,,NaN,,,,,,false,,,,89391.39999999851,89391.19999999553,,89390.79999999702,,89396.202,8,400,,,
sequence,flow.Sequence,4_19,2023-09-15T20:42:04.352Z,,0,,,4064.2259999955277,completion,,,,,false,,,,89391.5,89391.19999999553,85319.899,85324,85326.974,89396.202,8,400,,,
trial,html.Screen,4_20_0,2023-09-15T20:42:07.874Z,,0,1,,3517.197999998505,response,ISIC_0027683.JPG,4,ISIC_0011686.JPG,ISIC_0011686.JPG,false,0,keypress(z),500,92913.69999999553,92913.39999999851,89389.515,89391.69999999553,89396.202,92917.076,8,400,21,,ISIC_0027683.JPG
break,html.Screen,4_20_1,2023-09-15T20:42:07.875Z,,0,,,NaN,,,,,,false,,,,92914.89999999851,92914.59999999404,,92914,,92917.076,8,400,,,
break_continue,html.Screen,4_20_2,2023-09-15T20:42:07.875Z,,0,,,NaN,,,,,,false,,,,92915.5,92915.29999999702,,92915,,92917.076,8,400,,,
sequence,flow.Sequence,4_20,2023-09-15T20:42:07.876Z,,0,,,3519.097999997015,completion,,,,,false,,,,92915.69999999553,92915.29999999702,89389.515,89391.69999999553,89396.202,92917.076,8,400,,,
trial,html.Screen,4_21_0,2023-09-15T20:42:10.822Z,,0,1,,2944.323999998509,response,ISIC_9713706.JPG,4,ISIC_9785077.JPG,ISIC_9785077.JPG,false,0,keypress(z),500,95861.69999999553,95861.39999999851,92910.244,92915.79999999702,92917.076,95868.342,8,400,22,,ISIC_9713706.JPG
break,html.Screen,4_21_1,2023-09-15T20:42:10.823Z,,0,,,NaN,,,,,,false,,,,95862.89999999851,95862.5,,95862,,95868.342,8,400,,,
break_continue,html.Screen,4_21_2,2023-09-15T20:42:10.824Z,,0,,,NaN,,,,,,false,,,,95863.5,95863.39999999851,,95863.09999999404,,95868.342,8,400,,,
sequence,flow.Sequence,4_21,2023-09-15T20:42:10.824Z,,0,,,2946.323999998509,completion,,,,,false,,,,95863.79999999702,95863.39999999851,92910.244,92915.69999999553,92917.076,95868.342,8,400,,,
trial,html.Screen,4_22_0,2023-09-15T20:42:15.626Z,,0,1,,4797.3579999955255,response,ISIC_0054053.JPG,5,ISIC_7043369.JPG,ISIC_0054053.JPG,false,1,keypress(m),500,100666,100665.69999999553,95861.282,95864,95868.342,100673.82,8,400,23,,ISIC_7043369.JPG
break,html.Screen,4_22_1,2023-09-15T20:42:15.627Z,,0,,,NaN,,,,,,false,,,,100667.29999999702,100666.89999999851,,100666.39999999851,,100673.82,8,400,,,
break_continue,html.Screen,4_22_2,2023-09-15T20:42:15.628Z,,0,,,NaN,,,,,,false,,,,100667.89999999851,100667.59999999404,,100667.39999999851,,100673.82,8,400,,,
sequence,flow.Sequence,4_22,2023-09-15T20:42:15.628Z,,0,,,4799.257999994035,completion,,,,,false,,,,100668,100667.59999999404,95861.282,95864,95868.342,100673.82,8,400,,,
trial,html.Screen,4_23_0,2023-09-15T20:42:18.639Z,,0,1,,3004.579999998503,response,ISIC_0059846.JPG,5,ISIC_0055251.JPG,ISIC_0055251.JPG,false,0,keypress(z),500,103678.69999999553,103678.39999999851,100666.726,100668.19999999553,100673.82,103687.892,8,400,24,,ISIC_0059846.JPG
break,html.Screen,4_23_1,2023-09-15T20:42:18.640Z,,0,,,NaN,,,,,,false,,,,103679.79999999702,103679.59999999404,,103678.89999999851,,103687.892,8,400,,,
break_continue,html.Screen,4_23_2,2023-09-15T20:42:18.640Z,,0,,,NaN,,,,,,false,,,,103680.39999999851,103680.19999999553,,103680,,103687.892,8,400,,,
sequence,flow.Sequence,4_23,2023-09-15T20:42:18.641Z,,0,,,3006.3799999955227,completion,,,,,false,,,,103680.59999999404,103680.19999999553,100666.726,100668.19999999553,100673.82,103687.892,8,400,,,
trial,html.Screen,4_24_0,2023-09-15T20:42:21.572Z,,0,1,,2923.4079999970127,response,ISIC_1532684.JPG,6,ISIC_5559165.JPG,ISIC_1532684.JPG,false,1,keypress(m),500,106611.59999999404,106611.29999999702,103673.569,103682.19999999553,103687.892,106618.058,8,400,25,,ISIC_5559165.JPG
break,html.Screen,4_24_1,2023-09-15T20:42:21.573Z,,0,,,NaN,,,,,,false,,,,106612.79999999702,106612.39999999851,,106611.79999999702,,106618.058,8,400,,,
break_continue,html.Screen,4_24_2,2023-09-15T20:42:21.573Z,,0,,,NaN,,,,,,false,,,,106613.29999999702,106613.09999999404,,106612.89999999851,,106618.058,8,400,,,
sequence,flow.Sequence,4_24,2023-09-15T20:42:21.573Z,,0,,,2925.2079999940324,completion,,,,,false,,,,106613.5,106613.09999999404,103673.569,103682.09999999404,103687.892,106618.058,8,400,,,
trial,html.Screen,4_25_0,2023-09-15T20:42:24.344Z,,0,1,,2765.2419999970152,response,ISIC_9403390.JPG,6,ISIC_0033152.JPG,ISIC_9403390.JPG,false,1,keypress(m),500,109383.59999999404,109383.29999999702,106611.048,106613.69999999553,106618.058,109388.901,8,400,26,,ISIC_0033152.JPG
break,html.Screen,4_25_1,2023-09-15T20:42:24.345Z,,0,,,NaN,,,,,,false,,,,109384.69999999553,109384.39999999851,,109383.79999999702,,109388.901,8,400,,,
break_continue,html.Screen,4_25_2,2023-09-15T20:42:24.345Z,,0,,,NaN,,,,,,false,,,,109385.19999999553,109385.09999999404,,109384.79999999702,,109388.901,8,400,,,
sequence,flow.Sequence,4_25,2023-09-15T20:42:24.345Z,,0,,,2767.041999994035,completion,,,,,false,,,,109385.5,109385.09999999404,106611.048,106613.59999999404,106618.058,109388.901,8,400,,,
trial,html.Screen,4_26_0,2023-09-15T20:42:27.980Z,,0,1,,3630.6989999940415,response,ISIC_0178370.JPG,5,ISIC_4398011.JPG,ISIC_4398011.JPG,false,0,keypress(z),500,113019.89999999851,113019.59999999404,109381.87,109385.59999999404,109388.901,113027.592,8,400,27,,ISIC_0178370.JPG
break,html.Screen,4_26_1,2023-09-15T20:42:27.981Z,,0,,,NaN,,,,,,false,,,,113021.09999999404,113020.79999999702,,113020.19999999553,,113027.592,8,400,,,
break_continue,html.Screen,4_26_2,2023-09-15T20:42:27.982Z,,0,,,NaN,,,,,,false,,,,113021.59999999404,113021.5,,113021.19999999553,,113027.592,8,400,,,
sequence,flow.Sequence,4_26,2023-09-15T20:42:27.982Z,,0,,,3632.599000000002,completion,,,,,false,,,,113021.79999999702,113021.5,109381.87,109385.5,109388.901,113027.592,8,400,,,
trial,html.Screen,4_27_0,2023-09-15T20:42:30.880Z,,0,1,,2892.3079999985057,response,ISIC_0021442.JPG,5,ISIC_0012137.JPG,ISIC_0021442.JPG,false,1,keypress(m),500,115920.19999999553,115919.89999999851,113020.604,113022,113027.592,115923.46,8,400,28,,ISIC_0012137.JPG
break,html.Screen,4_27_1,2023-09-15T20:42:30.881Z,,0,,,NaN,,,,,,false,,,,115921.29999999702,115921,,115920.5,,115923.46,8,400,,,
break_continue,html.Screen,4_27_2,2023-09-15T20:42:30.882Z,,0,,,NaN,,,,,,false,,,,115921.89999999851,115921.69999999553,,115921.5,,115923.46,8,400,,,
sequence,flow.Sequence,4_27,2023-09-15T20:42:30.882Z,,0,,,2894.1079999955255,completion,,,,,false,,,,115922.09999999404,115921.69999999553,113020.604,113021.89999999851,113027.592,115923.46,8,400,,,
trial,html.Screen,4_28_0,2023-09-15T20:42:33.908Z,,0,1,,3024.139999994033,response,ISIC_5624273.JPG,6,ISIC_0031337.JPG,ISIC_5624273.JPG,false,1,keypress(m),500,118948,118947.59999999404,115916.327,115922.19999999553,115923.46,118951.164,8,400,29,,ISIC_0031337.JPG
break,html.Screen,4_28_1,2023-09-15T20:42:33.911Z,,0,,,NaN,,,,,,false,,,,118950.5,118950.19999999553,,118948.29999999702,,118951.164,8,400,,,
break_continue,html.Screen,4_28_2,2023-09-15T20:42:33.911Z,,0,,,NaN,,,,,,false,,,,118951.19999999553,118951,,118950.69999999553,,118951.164,8,400,,,
sequence,flow.Sequence,4_28,2023-09-15T20:42:33.911Z,,0,,,3027.5399999999936,completion,,,,,false,,,,118951.29999999702,118951,115916.327,115922.19999999553,115923.46,118951.164,8,400,,,
trial,html.Screen,4_29_0,2023-09-15T20:42:36.601Z,,0,1,,2690.0359999955253,response,ISIC_0069192.JPG,4,ISIC_7475827.JPG,ISIC_0069192.JPG,false,1,keypress(m),500,121641.39999999851,121641.19999999553,118944.13,118951.59999999404,118951.164,121645.427,8,400,30,,ISIC_7475827.JPG
break,html.Screen,4_29_1,2023-09-15T20:42:36.602Z,,0,,,NaN,,,,,,false,,,,121641.59999999404,121641.59999999404,,121641.39999999851,,121645.427,8,400,,,
break_continue,html.Screen,4_29_2,2023-09-15T20:42:36.602Z,,0,,,NaN,,,,,,false,,,,121641.79999999702,121641.79999999702,,121641.69999999553,,121645.427,8,400,,,
sequence,flow.Sequence,4_29,2023-09-15T20:42:36.602Z,,0,,,2690.6359999970155,completion,,,,,false,,,,121641.79999999702,121641.79999999702,118944.13,118951.5,118951.164,121645.427,8,400,,,
trial,html.Screen,4_30_0,2023-09-15T20:42:39.868Z,,0,1,,3261.972999998514,response,ISIC_0010140.JPG,5,ISIC_0011960.JPG,ISIC_0010140.JPG,false,1,keypress(m),500,124907.69999999553,124907.39999999851,121638.479,121641.79999999702,121645.427,124917.099,8,400,31,,ISIC_0011960.JPG
break,html.Screen,4_30_1,2023-09-15T20:42:39.869Z,,0,,,NaN,,,,,,false,,,,124908.79999999702,124908.59999999404,,124907.89999999851,,124917.099,8,400,,,
break_continue,html.Screen,4_30_2,2023-09-15T20:42:39.869Z,,0,,,NaN,,,,,,false,,,,124909.39999999851,124909.29999999702,,124909,,124917.099,8,400,,,
sequence,flow.Sequence,4_30,2023-09-15T20:42:39.870Z,,0,,,3263.8729999970237,completion,,,,,false,,,,124909.59999999404,124909.29999999702,121638.479,121641.79999999702,121645.427,124917.099,8,400,,,
trial,html.Screen,4_31_0,2023-09-15T20:42:42.816Z,,0,1,,2938.800999998508,response,ISIC_8287726.JPG,4,ISIC_0327225.JPG,ISIC_0327225.JPG,false,0,keypress(z),500,127856.29999999702,127855.89999999851,124902.227,124909.79999999702,124917.099,127860.671,8,400,32,,ISIC_8287726.JPG
break,html.Screen,4_31_1,2023-09-15T20:42:42.817Z,,0,,,NaN,,,,,,false,,,,127857.39999999851,127857,,127856.5,,127860.671,8,400,,,
break_continue,html.Screen,4_31_2,2023-09-15T20:42:42.818Z,,0,,,NaN,,,,,,false,,,,127857.89999999851,127857.69999999553,,127857.5,,127860.671,8,400,,,
sequence,flow.Sequence,4_31,2023-09-15T20:42:42.818Z,,0,,,2940.6009999955277,completion,,,,,false,,,,127858,127857.69999999553,124902.227,124909.69999999553,124917.099,127860.671,8,400,,,
trial,html.Screen,4_32_0,2023-09-15T20:42:45.492Z,,0,1,,2671.4289999940374,response,ISIC_0024527.JPG,5,ISIC_2768787.JPG,ISIC_0024527.JPG,false,1,keypress(m),500,130532.09999999404,130532.09999999404,127853.542,127858.19999999553,127860.671,130534.147,8,400,33,,ISIC_2768787.JPG
break,html.Screen,4_32_1,2023-09-15T20:42:45.493Z,,0,,,NaN,,,,,,false,,,,130532.5,130532.39999999851,,130532.19999999553,,130534.147,8,400,,,
break_continue,html.Screen,4_32_2,2023-09-15T20:42:45.493Z,,0,,,NaN,,,,,,false,,,,130532.59999999404,130532.59999999404,,130532.5,,130534.147,8,400,,,
sequence,flow.Sequence,4_32,2023-09-15T20:42:45.493Z,,0,,,2671.9289999940374,completion,,,,,false,,,,130532.59999999404,130532.59999999404,127853.542,127858.09999999404,127860.671,130534.147,8,400,,,
trial,html.Screen,4_33_0,2023-09-15T20:42:48.743Z,,0,1,,3248.0529999955324,response,ISIC_2987630.JPG,5,ISIC_4187485.JPG,ISIC_4187485.JPG,false,0,keypress(z),500,133782.5,133782.19999999553,130527.11,130532.69999999553,130534.147,133791.317,8,400,34,,ISIC_2987630.JPG
break,html.Screen,4_33_1,2023-09-15T20:42:48.744Z,,0,,,NaN,,,,,,false,,,,133783.69999999553,133783.3999999985,,133782.79999999702,,133791.317,8,400,,,
break_continue,html.Screen,4_33_2,2023-09-15T20:42:48.744Z,,0,,,NaN,,,,,,false,,,,133784.09999999404,133784,,133783.79999999702,,133791.317,8,400,,,
sequence,flow.Sequence,4_33,2023-09-15T20:42:48.744Z,,0,,,3249.853000000003,completion,,,,,false,,,,133784.3999999985,133784,130527.11,130532.69999999553,130534.147,133791.317,8,400,,,
trial,html.Screen,4_34_0,2023-09-15T20:42:51.578Z,,0,1,,2826.7829999940295,response,ISIC_0072375.JPG,5,ISIC_2008230.JPG,ISIC_0072375.JPG,false,1,keypress(m),500,136618.3999999985,136618.09999999404,133777.024,133784.59999999404,133791.317,136624.354,8,400,35,,ISIC_2008230.JPG
break,html.Screen,4_34_1,2023-09-15T20:42:51.580Z,,0,,,NaN,,,,,,false,,,,136619.5,136619.19999999553,,136618.69999999553,,136624.354,8,400,,,
break_continue,html.Screen,4_34_2,2023-09-15T20:42:51.580Z,,0,,,NaN,,,,,,false,,,,136620,136619.8999999985,,136619.59999999404,,136624.354,8,400,,,
sequence,flow.Sequence,4_34,2023-09-15T20:42:51.580Z,,0,,,2828.5829999985,completion,,,,,false,,,,136620.19999999553,136619.8999999985,133777.024,133784.5,133791.317,136624.354,8,400,,,
trial,html.Screen,4_35_0,2023-09-15T20:42:54.174Z,,0,1,,2589.646000000008,response,ISIC_9141065.JPG,6,ISIC_6714923.JPG,ISIC_6714923.JPG,false,0,keypress(z),500,139214.29999999702,139214,136617.204,136620.29999999702,136624.354,139221.413,8,400,36,,ISIC_9141065.JPG
break,html.Screen,4_35_1,2023-09-15T20:42:54.175Z,,0,,,NaN,,,,,,false,,,,139215.5,139215.19999999553,,139214.59999999404,,139221.413,8,400,,,
break_continue,html.Screen,4_35_2,2023-09-15T20:42:54.176Z,,0,,,NaN,,,,,,false,,,,139216,139215.79999999702,,139215.59999999404,,139221.413,8,400,,,
sequence,flow.Sequence,4_35,2023-09-15T20:42:54.176Z,,0,,,2591.4459999970277,completion,,,,,false,,,,139216.09999999404,139215.79999999702,136617.204,136620.29999999702,136624.354,139221.413,8,400,,,
trial,html.Screen,4_36_0,2023-09-15T20:42:57.362Z,,0,1,,3180.3869999970193,response,ISIC_0046429.JPG,5,ISIC_0034002.JPG,ISIC_0034002.JPG,false,0,keypress(z),500,142402,142401.79999999702,139214.443,139216.29999999702,139221.413,142408.777,8,400,37,,ISIC_0046429.JPG
break,html.Screen,4_36_1,2023-09-15T20:42:57.362Z,,0,,,NaN,,,,,,false,,,,142402.29999999702,142402.19999999553,,142402,,142408.777,8,400,,,
break_continue,html.Screen,4_36_2,2023-09-15T20:42:57.362Z,,0,,,NaN,,,,,,false,,,,142402.3999999985,142402.3999999985,,142402.29999999702,,142408.777,8,400,,,
sequence,flow.Sequence,4_36,2023-09-15T20:42:57.362Z,,0,,,3180.9869999985094,completion,,,,,false,,,,142402.3999999985,142402.3999999985,139214.443,139216.19999999553,139221.413,142408.777,8,400,,,
trial,html.Screen,4_37_0,2023-09-15T20:43:00.468Z,,0,1,,3098.622999998508,response,ISIC_3743283.JPG,4,ISIC_0046526.JPG,ISIC_0046526.JPG,false,0,keypress(z),500,145507.59999999404,145507.3999999985,142401.811,142402.5,142408.777,145512.946,8,400,38,,ISIC_3743283.JPG
break,html.Screen,4_37_1,2023-09-15T20:43:00.468Z,,0,,,NaN,,,,,,false,,,,145508.3999999985,145508.19999999553,,145507.69999999553,,145512.946,8,400,,,
break_continue,html.Screen,4_37_2,2023-09-15T20:43:00.469Z,,0,,,NaN,,,,,,false,,,,145508.69999999553,145508.69999999553,,145508.5,,145512.946,8,400,,,
sequence,flow.Sequence,4_37,2023-09-15T20:43:00.469Z,,0,,,3099.922999995528,completion,,,,,false,,,,145508.79999999702,145508.69999999553,142401.811,142402.5,142408.777,145512.946,8,400,,,
trial,html.Screen,4_38_0,2023-09-15T20:43:03.862Z,,0,1,,3388.9539999985136,response,ISIC_7440724.JPG,5,ISIC_9685928.JPG,ISIC_7440724.JPG,false,1,keypress(m),500,148902.29999999702,148901.8999999985,145505.93,145508.8999999985,145512.946,148908.692,8,400,39,,ISIC_9685928.JPG
break,html.Screen,4_38_1,2023-09-15T20:43:03.863Z,,0,,,NaN,,,,,,false,,,,148903.3999999985,148903.09999999404,,148902.5,,148908.692,8,400,,,
break_continue,html.Screen,4_38_2,2023-09-15T20:43:03.864Z,,0,,,NaN,,,,,,false,,,,148903.8999999985,148903.79999999702,,148903.5,,148908.692,8,400,,,
sequence,flow.Sequence,4_38,2023-09-15T20:43:03.864Z,,0,,,3390.8539999970235,completion,,,,,false,,,,148904.09999999404,148903.79999999702,145505.93,145508.79999999702,145512.946,148908.692,8,400,,,
trial,html.Screen,4_39_0,2023-09-15T20:43:07.226Z,,0,1,,3357.0079999955196,response,ISIC_0063556.JPG,5,ISIC_0032812.JPG,ISIC_0063556.JPG,false,1,keypress(m),500,152265.79999999702,152265.69999999553,148901.668,148904.29999999702,148908.692,152276.658,8,400,40,,ISIC_0032812.JPG
break,html.Screen,4_39_1,2023-09-15T20:43:07.226Z,,0,,,NaN,,,,,,false,,,,152266.09999999404,152266,,152265.79999999702,,152276.658,8,400,,,
break_continue,html.Screen,4_39_2,2023-09-15T20:43:07.226Z,,0,,,NaN,,,,,,false,,,,152266.19999999553,152266.19999999553,,152266.19999999553,,152276.658,8,400,,,
sequence,flow.Sequence,4_39,2023-09-15T20:43:07.226Z,,0,,,3357.5079999955196,completion,,,,,false,,,,152266.19999999553,152266.19999999553,148901.668,148904.19999999553,148908.692,152276.658,8,400,,,
trial,html.Screen,4_40_0,2023-09-15T20:43:11.131Z,,0,1,,3894.4419999940437,response,ISIC_0063551.JPG,6,ISIC_0056047.JPG,ISIC_0063551.JPG,false,1,keypress(m),500,156171.19999999553,156171.09999999404,152269.815,152266.19999999553,152276.658,156180.307,8,400,41,,ISIC_0056047.JPG
break,html.Screen,4_40_1,2023-09-15T20:43:11.132Z,,0,,,NaN,,,,,,false,,,,156171.5,156171.5,,156171.19999999553,,156180.307,8,400,,,
break_continue,html.Screen,4_40_2,2023-09-15T20:43:11.132Z,,0,,,NaN,,,,,,false,,,,156171.5,156171.5,,156171.5,,156180.307,8,400,,,
sequence,flow.Sequence,4_40,2023-09-15T20:43:11.132Z,,0,,,3894.842000000004,completion,,,,,false,,,,156171.59999999404,156171.5,152269.815,152266.19999999553,152276.658,156180.307,8,400,,,
trial,html.Screen,4_41_0,2023-09-15T20:43:14.045Z,,0,1,,2903.992999997019,response,ISIC_0030900.JPG,5,ISIC_0000294.JPG,ISIC_0000294.JPG,false,0,keypress(z),500,159084.59999999404,159084.29999999702,156165.414,156171.69999999553,156180.307,159089.079,8,400,42,,ISIC_0030900.JPG
break,html.Screen,4_41_1,2023-09-15T20:43:14.046Z,,0,,,NaN,,,,,,false,,,,159085.69999999553,159085.3999999985,,159084.8999999985,,159089.079,8,400,,,
break_continue,html.Screen,4_41_2,2023-09-15T20:43:14.046Z,,0,,,NaN,,,,,,false,,,,159086.19999999553,159086.09999999404,,159085.79999999702,,159089.079,8,400,,,
sequence,flow.Sequence,4_41,2023-09-15T20:43:14.046Z,,0,,,2905.792999994039,completion,,,,,false,,,,159086.3999999985,159086.09999999404,156165.414,156171.69999999553,156180.307,159089.079,8,400,,,
trial,html.Screen,4_42_0,2023-09-15T20:43:16.962Z,,0,1,,2912.320999998512,response,ISIC_0034106.JPG,5,ISIC_0028328.JPG,ISIC_0034106.JPG,false,1,keypress(m),500,162001.69999999553,162001.3999999985,159082.132,159086.5,159089.079,162005.669,8,400,43,,ISIC_0028328.JPG
break,html.Screen,4_42_1,2023-09-15T20:43:16.963Z,,0,,,NaN,,,,,,false,,,,162002.79999999702,162002.5,,162001.8999999985,,162005.669,8,400,,,
break_continue,html.Screen,4_42_2,2023-09-15T20:43:16.963Z,,0,,,NaN,,,,,,false,,,,162003.29999999702,162003.19999999553,,162002.8999999985,,162005.669,8,400,,,
sequence,flow.Sequence,4_42,2023-09-15T20:43:16.964Z,,0,,,2914.1209999955317,completion,,,,,false,,,,162003.5,162003.19999999553,159082.132,159086.5,159089.079,162005.669,8,400,,,
trial,html.Screen,4_43_0,2023-09-15T20:43:19.926Z,,0,1,,2959.930999994045,response,ISIC_0031807.JPG,5,ISIC_0961235.JPG,ISIC_0961235.JPG,false,0,keypress(z),500,164965.8999999985,164965.59999999404,161998.604,162003.69999999553,162005.669,164970.859,8,400,44,,ISIC_0031807.JPG
break,html.Screen,4_43_1,2023-09-15T20:43:19.927Z,,0,,,NaN,,,,,,false,,,,164967,164966.69999999553,,164966.09999999404,,164970.859,8,400,,,
break_continue,html.Screen,4_43_2,2023-09-15T20:43:19.928Z,,0,,,NaN,,,,,,false,,,,164967.5,164967.3999999985,,164967.09999999404,,164970.859,8,400,,,
sequence,flow.Sequence,4_43,2023-09-15T20:43:19.928Z,,0,,,2961.7309999985155,completion,,,,,false,,,,164967.69999999553,164967.3999999985,161998.604,162003.59999999404,162005.669,164970.859,8,400,,,
trial,html.Screen,4_44_0,2023-09-15T20:43:23.658Z,,0,1,,3726.940999997023,response,ISIC_5369000.JPG,5,ISIC_0031170.JPG,ISIC_5369000.JPG,false,1,keypress(m),500,168698,168697.79999999702,164963.757,164967.8999999985,164970.859,168707.539,8,400,45,,ISIC_0031170.JPG
break,html.Screen,4_44_1,2023-09-15T20:43:23.659Z,,0,,,NaN,,,,,,false,,,,168699.29999999702,168699.09999999404,,168698.29999999702,,168707.539,8,400,,,
break_continue,html.Screen,4_44_2,2023-09-15T20:43:23.660Z,,0,,,NaN,,,,,,false,,,,168699.8999999985,168699.69999999553,,168699.5,,168707.539,8,400,,,
sequence,flow.Sequence,4_44,2023-09-15T20:43:23.660Z,,0,,,3728.840999995533,completion,,,,,false,,,,168700,168699.69999999553,164963.757,164967.8999999985,164970.859,168707.539,8,400,,,
trial,html.Screen,4_45_0,2023-09-15T20:43:27.279Z,,0,1,,3610.86099999852,response,ISIC_8943906.JPG,6,ISIC_8969883.JPG,ISIC_8969883.JPG,false,0,keypress(z),500,172318.79999999702,172318.3999999985,168692.845,168700.09999999404,168707.539,172324.789,8,400,46,,ISIC_8943906.JPG
break,html.Screen,4_45_1,2023-09-15T20:43:27.280Z,,0,,,NaN,,,,,,false,,,,172319.79999999702,172319.59999999404,,172319,,172324.789,8,400,,,
break_continue,html.Screen,4_45_2,2023-09-15T20:43:27.280Z,,0,,,NaN,,,,,,false,,,,172320.29999999702,172320.19999999553,,172320,,172324.789,8,400,,,
sequence,flow.Sequence,4_45,2023-09-15T20:43:27.281Z,,0,,,3612.66099999554,completion,,,,,false,,,,172320.59999999404,172320.19999999553,168692.845,168700.09999999404,168707.539,172324.789,8,400,,,
trial,html.Screen,4_46_0,2023-09-15T20:43:30.931Z,,0,1,,3645.61099999852,response,ISIC_0064071.JPG,5,ISIC_3686329.JPG,ISIC_3686329.JPG,false,0,keypress(z),500,175970.69999999553,175970.3999999985,172317.914,172320.69999999553,172324.789,175977.522,8,400,47,,ISIC_0064071.JPG
break,html.Screen,4_46_1,2023-09-15T20:43:30.932Z,,0,,,NaN,,,,,,false,,,,175971.79999999702,175971.59999999404,,175971,,175977.522,8,400,,,
break_continue,html.Screen,4_46_2,2023-09-15T20:43:30.932Z,,0,,,NaN,,,,,,false,,,,175972.3999999985,175972.19999999553,,175971.8999999985,,175977.522,8,400,,,
sequence,flow.Sequence,4_46,2023-09-15T20:43:30.933Z,,0,,,3647.41099999554,completion,,,,,false,,,,175972.59999999404,175972.19999999553,172317.914,172320.69999999553,172324.789,175977.522,8,400,,,
trial,html.Screen,4_47_0,2023-09-15T20:43:33.911Z,,0,1,,2973.3779999985127,response,ISIC_2528656.JPG,5,ISIC_8504479.JPG,ISIC_2528656.JPG,false,1,keypress(m),500,178951.29999999702,178950.8999999985,175970.421,175972.69999999553,175977.522,178956.605,8,400,48,,ISIC_8504479.JPG
break,html.Screen,4_47_1,2023-09-15T20:43:33.912Z,,0,,,NaN,,,,,,false,,,,178952.29999999702,178952.09999999404,,178951.5,,178956.605,8,400,,,
break_continue,html.Screen,4_47_2,2023-09-15T20:43:33.913Z,,0,,,NaN,,,,,,false,,,,178952.79999999702,178952.69999999553,,178952.3999999985,,178956.605,8,400,,,
sequence,flow.Sequence,4_47,2023-09-15T20:43:33.913Z,,0,,,2975.1779999955324,completion,,,,,false,,,,178953,178952.69999999553,175970.421,175972.59999999404,175977.522,178956.605,8,400,,,
trial,html.Screen,4_48_0,2023-09-15T20:43:37.115Z,,0,1,,3197.7949999984994,response,ISIC_0012740.JPG,5,ISIC_0016114.JPG,ISIC_0016114.JPG,false,0,keypress(z),500,182154.69999999553,182154.3999999985,178949.831,178953.19999999553,178956.605,182157.963,8,400,49,,ISIC_0012740.JPG
break,html.Screen,4_48_1,2023-09-15T20:43:37.116Z,,0,,,NaN,,,,,,false,,,,182155.8999999985,182155.69999999553,,182155,,182157.963,8,400,,,
break_continue,html.Screen,4_48_2,2023-09-15T20:43:37.116Z,,0,,,NaN,,,,,,false,,,,182156.5,182156.29999999702,,182156.09999999404,,182157.963,8,400,,,
sequence,flow.Sequence,4_48,2023-09-15T20:43:37.117Z,,0,,,3199.6949999970093,completion,,,,,false,,,,182156.69999999553,182156.29999999702,178949.831,178953.09999999404,178956.605,182157.963,8,400,,,
trial,html.Screen,4_49_0,2023-09-15T20:43:40.175Z,,0,1,,3056.836999997031,response,ISIC_0064180.JPG,5,ISIC_7110699.JPG,ISIC_0064180.JPG,false,1,keypress(m),500,185215.09999999404,185214.79999999702,182150.894,182156.79999999702,182157.963,185220.349,8,400,50,,ISIC_7110699.JPG
break,html.Screen,4_49_1,2023-09-15T20:43:50.174Z,,0,,,9999.648000000016,timeout,,,,,false,,,,195213.5,195213.045,185213.345,185215.29999999702,185220.349,195219.997,8,400,,,
break_continue,html.Screen,4_49_2,2023-09-15T20:49:52.343Z,,0,,,362160.503,response,,,,,false,continue,keypress(Space),,557383.8999999985,557380.5,195213.045,195213.59999999404,195219.997,557385.703,8,400,,,
sequence,flow.Sequence,4_49,2023-09-15T20:49:52.343Z,,0,,,375222.537,completion,,,,,false,,,,557383.8999999985,557380.5,182150.894,182156.69999999553,182157.963,557385.703,8,400,,,
trial,html.Screen,4_50_0,2023-09-15T20:49:56.057Z,,0,2,,3711.99699999555,response,ISIC_0030470.JPG,5,ISIC_2720426.JPG,ISIC_0030470.JPG,false,1,keypress(m),500,561097.799999997,561097.6999999955,557378.597,557384,557385.703,561101.034,8,400,1,,ISIC_2720426.JPG
break,html.Screen,4_50_1,2023-09-15T20:49:56.057Z,,0,,,NaN,,,,,,false,,,,561098.099999994,561098.099999994,,561097.8999999985,,561101.034,8,400,,,
break_continue,html.Screen,4_50_2,2023-09-15T20:49:56.057Z,,0,,,NaN,,,,,,false,,,,561098.099999994,561098.099999994,,561098.099999994,,561101.034,8,400,,,
sequence,flow.Sequence,4_50,2023-09-15T20:49:56.058Z,,0,,,3712.39699999406,completion,,,,,false,,,,561098.799999997,561098.099999994,557378.597,557383.8999999985,557385.703,561101.034,8,400,,,
trial,html.Screen,4_51_0,2023-09-15T20:49:59.181Z,,0,2,,3120.2659999970347,response,ISIC_8274622.JPG,5,ISIC_4168757.JPG,ISIC_8274622.JPG,false,1,keypress(m),500,564221.3999999985,564221.299999997,561094.071,561099.1999999955,561101.034,564225.882,8,400,2,,ISIC_4168757.JPG
break,html.Screen,4_51_1,2023-09-15T20:49:59.181Z,,0,,,NaN,,,,,,false,,,,564221.6999999955,564221.6999999955,,564221.3999999985,,564225.882,8,400,,,
break_continue,html.Screen,4_51_2,2023-09-15T20:49:59.181Z,,0,,,NaN,,,,,,false,,,,564221.799999997,564221.6999999955,,564221.6999999955,,564225.882,8,400,,,
sequence,flow.Sequence,4_51,2023-09-15T20:49:59.181Z,,0,,,3120.6659999955446,completion,,,,,false,,,,564221.799999997,564221.6999999955,561094.071,561099,561101.034,564225.882,8,400,,,
trial,html.Screen,4_52_0,2023-09-15T20:50:02.015Z,,0,2,,2829.2179999940563,response,ISIC_0418738.JPG,4,ISIC_7682938.JPG,ISIC_7682938.JPG,false,0,keypress(z),500,567055.3999999985,567055.099999994,564218.898,564221.799999997,564225.882,567059.263,8,400,3,,ISIC_0418738.JPG
break,html.Screen,4_52_1,2023-09-15T20:50:02.016Z,,0,,,NaN,,,,,,false,,,,567056.5,567056.1999999955,,567055.599999994,,567059.263,8,400,,,
break_continue,html.Screen,4_52_2,2023-09-15T20:50:02.016Z,,0,,,NaN,,,,,,false,,,,567057.099999994,567056.8999999985,,567056.6999999955,,567059.263,8,400,,,
sequence,flow.Sequence,4_52,2023-09-15T20:50:02.016Z,,0,,,2831.0179999985266,completion,,,,,false,,,,567057.1999999955,567056.8999999985,564218.898,564221.799999997,564225.882,567059.263,8,400,,,
trial,html.Screen,4_53_0,2023-09-15T20:50:05.348Z,,0,2,,3329.1369999984745,response,ISIC_7147898.JPG,5,ISIC_0031013.JPG,ISIC_0031013.JPG,false,0,keypress(z),500,570388.799999997,570388.3999999985,567052.214,567057.3999999985,567059.263,570392.519,8,400,4,,ISIC_7147898.JPG
break,html.Screen,4_53_1,2023-09-15T20:50:05.349Z,,0,,,NaN,,,,,,false,,,,570389.799999997,570389.5,,570389,,570392.519,8,400,,,
break_continue,html.Screen,4_53_2,2023-09-15T20:50:05.350Z,,0,,,NaN,,,,,,false,,,,570390.3999999985,570390.299999997,,570390,,570392.519,8,400,,,
sequence,flow.Sequence,4_53,2023-09-15T20:50:05.350Z,,0,,,3331.0369999969844,completion,,,,,false,,,,570390.599999994,570390.299999997,567052.214,567057.299999997,567059.263,570392.519,8,400,,,
trial,html.Screen,4_54_0,2023-09-15T20:50:09.080Z,,0,2,,3727.5809999940684,response,ISIC_3893354.JPG,5,ISIC_7824688.JPG,ISIC_3893354.JPG,false,1,keypress(m),500,574120.3999999985,574120.099999994,570385.499,570390.6999999955,570392.519,574128.453,8,400,5,,ISIC_7824688.JPG
break,html.Screen,4_54_1,2023-09-15T20:50:09.081Z,,0,,,NaN,,,,,,false,,,,574121.5,574121.1999999955,,574120.6999999955,,574128.453,8,400,,,
break_continue,html.Screen,4_54_2,2023-09-15T20:50:09.081Z,,0,,,NaN,,,,,,false,,,,574122.099999994,574122,,574121.599999994,,574128.453,8,400,,,
sequence,flow.Sequence,4_54,2023-09-15T20:50:09.081Z,,0,,,3729.481000000029,completion,,,,,false,,,,574122.1999999955,574122,570385.499,570390.599999994,570392.519,574128.453,8,400,,,
trial,html.Screen,4_55_0,2023-09-15T20:50:12.252Z,,0,2,,3163.8469999970403,response,ISIC_0014093.JPG,6,ISIC_0030921.JPG,ISIC_0030921.JPG,false,0,keypress(z),500,577292.6999999955,577292.299999997,574121.61,574122.3999999985,574128.453,577295.118,8,400,6,,ISIC_0014093.JPG
break,html.Screen,4_55_1,2023-09-15T20:50:12.253Z,,0,,,NaN,,,,,,false,,,,577293.799999997,577293.599999994,,577293,,577295.118,8,400,,,
break_continue,html.Screen,4_55_2,2023-09-15T20:50:12.254Z,,0,,,NaN,,,,,,false,,,,577294.3999999985,577294.299999997,,577294,,577295.118,8,400,,,
sequence,flow.Sequence,4_55,2023-09-15T20:50:12.254Z,,0,,,3165.8469999970403,completion,,,,,false,,,,577294.599999994,577294.299999997,574121.61,574122.3999999985,574128.453,577295.118,8,400,,,
trial,html.Screen,4_56_0,2023-09-15T20:50:16.048Z,,0,2,,3793.581999995513,response,ISIC_7509837.JPG,5,ISIC_0029626.JPG,ISIC_0029626.JPG,false,0,keypress(z),500,581088.8999999985,581088.6999999955,577288.183,577294.799999997,577295.118,581093.527,8,400,7,,ISIC_7509837.JPG
break,html.Screen,4_56_1,2023-09-15T20:50:16.048Z,,0,,,NaN,,,,,,false,,,,581089.1999999955,581089.099999994,,581088.8999999985,,581093.527,8,400,,,
break_continue,html.Screen,4_56_2,2023-09-15T20:50:16.048Z,,0,,,NaN,,,,,,false,,,,581089.299999997,581089.299999997,,581089.1999999955,,581093.527,8,400,,,
sequence,flow.Sequence,4_56,2023-09-15T20:50:16.048Z,,0,,,3794.181999997003,completion,,,,,false,,,,581089.299999997,581089.299999997,577288.183,577294.799999997,577295.118,581093.527,8,400,,,
trial,html.Screen,4_57_0,2023-09-15T20:50:20.098Z,,0,2,,4044.972999999998,response,ISIC_3530422.JPG,5,ISIC_0845105.JPG,ISIC_3530422.JPG,false,1,keypress(m),500,585138.8999999985,585138.5,581086.759,581089.3999999985,581093.527,585142.159,8,400,8,,ISIC_0845105.JPG
break,html.Screen,4_57_1,2023-09-15T20:50:20.099Z,,0,,,NaN,,,,,,false,,,,585139.8999999985,585139.6999999955,,585139.1999999955,,585142.159,8,400,,,
break_continue,html.Screen,4_57_2,2023-09-15T20:50:20.100Z,,0,,,NaN,,,,,,false,,,,585140.3999999985,585140.299999997,,585140.099999994,,585142.159,8,400,,,
sequence,flow.Sequence,4_57,2023-09-15T20:50:20.100Z,,0,,,4046.772999997018,completion,,,,,false,,,,585140.599999994,585140.299999997,581086.759,581089.299999997,581093.527,585142.159,8,400,,,
trial,html.Screen,4_58_0,2023-09-15T20:50:24.278Z,,0,2,,4176.540999995545,response,ISIC_0059066.JPG,6,ISIC_0065740.JPG,ISIC_0065740.JPG,false,0,keypress(z),500,589318.8999999985,589318.6999999955,585135.054,585140.6999999955,585142.159,589322.584,8,400,9,,ISIC_0059066.JPG
break,html.Screen,4_58_1,2023-09-15T20:50:24.278Z,,0,,,NaN,,,,,,false,,,,589319.1999999955,589319.099999994,,589318.8999999985,,589322.584,8,400,,,
break_continue,html.Screen,4_58_2,2023-09-15T20:50:24.278Z,,0,,,NaN,,,,,,false,,,,589319.299999997,589319.299999997,,589319.1999999955,,589322.584,8,400,,,
sequence,flow.Sequence,4_58,2023-09-15T20:50:24.279Z,,0,,,4177.140999997035,completion,,,,,false,,,,589319.299999997,589319.299999997,585135.054,585140.6999999955,585142.159,589322.584,8,400,,,
trial,html.Screen,4_59_0,2023-09-15T20:50:28.072Z,,0,2,,3789.515999994008,response,ISIC_0032516.JPG,4,ISIC_1589997.JPG,ISIC_1589997.JPG,false,0,keypress(z),500,593112.3999999985,593112.099999994,589315.577,589319.299999997,589322.584,593122.214,8,400,10,,ISIC_0032516.JPG
break,html.Screen,4_59_1,2023-09-15T20:50:28.073Z,,0,,,NaN,,,,,,false,,,,593113.5,593113.1999999955,,593112.6999999955,,593122.214,8,400,,,
break_continue,html.Screen,4_59_2,2023-09-15T20:50:28.073Z,,0,,,NaN,,,,,,false,,,,593114,593113.8999999985,,593113.6999999955,,593122.214,8,400,,,
sequence,flow.Sequence,4_59,2023-09-15T20:50:28.073Z,,0,,,3791.315999998478,completion,,,,,false,,,,593114.299999997,593113.8999999985,589315.577,589319.299999997,589322.584,593122.214,8,400,,,
trial,html.Screen,4_60_0,2023-09-15T20:50:32.877Z,,0,2,,4795.185999998474,response,ISIC_0071944.JPG,4,ISIC_4654443.JPG,ISIC_0071944.JPG,false,1,keypress(m),500,597917.6999999955,597917.3999999985,593107.141,593114.3999999985,593122.214,597927.337,8,400,11,,ISIC_4654443.JPG
break,html.Screen,4_60_1,2023-09-15T20:50:32.878Z,,0,,,NaN,,,,,,false,,,,597919,597918.599999994,,597918,,597927.337,8,400,,,
break_continue,html.Screen,4_60_2,2023-09-15T20:50:32.879Z,,0,,,NaN,,,,,,false,,,,597919.3999999985,597919.299999997,,597919,,597927.337,8,400,,,
sequence,flow.Sequence,4_60,2023-09-15T20:50:32.879Z,,0,,,4797.085999996983,completion,,,,,false,,,,597919.599999994,597919.299999997,593107.141,593114.3999999985,593122.214,597927.337,8,400,,,
trial,html.Screen,4_61_0,2023-09-15T20:50:38.434Z,,0,2,,5546.762999993982,response,ISIC_0063551.JPG,5,ISIC_0024260.JPG,ISIC_0063551.JPG,false,1,keypress(m),500,603474.3999999985,603474.099999994,597912.582,597919.799999997,597927.337,603481.923,8,400,12,,ISIC_0024260.JPG
break,html.Screen,4_61_1,2023-09-15T20:50:38.435Z,,0,,,NaN,,,,,,false,,,,603475.5,603475.1999999955,,603474.599999994,,603481.923,8,400,,,
break_continue,html.Screen,4_61_2,2023-09-15T20:50:38.435Z,,0,,,NaN,,,,,,false,,,,603476,603475.799999997,,603475.599999994,,603481.923,8,400,,,
sequence,flow.Sequence,4_61,2023-09-15T20:50:38.435Z,,0,,,5548.462999996962,completion,,,,,false,,,,603476.099999994,603475.799999997,597912.582,597919.6999999955,597927.337,603481.923,8,400,,,
trial,html.Screen,4_62_0,2023-09-15T20:50:42.679Z,,0,2,,4237.376999997068,response,ISIC_6026759.JPG,5,ISIC_7428248.JPG,ISIC_6026759.JPG,false,1,keypress(m),500,607719.599999994,607719.299999997,603475.071,603476.299999997,603481.923,607724.837,8,400,13,,ISIC_7428248.JPG
break,html.Screen,4_62_1,2023-09-15T20:50:42.680Z,,0,,,NaN,,,,,,false,,,,607720.6999999955,607720.3999999985,,607719.8999999985,,607724.837,8,400,,,
break_continue,html.Screen,4_62_2,2023-09-15T20:50:42.680Z,,0,,,NaN,,,,,,false,,,,607721.1999999955,607721.099999994,,607720.799999997,,607724.837,8,400,,,
sequence,flow.Sequence,4_62,2023-09-15T20:50:42.681Z,,0,,,4239.176999994088,completion,,,,,false,,,,607721.3999999985,607721.099999994,603475.071,603476.299999997,603481.923,607724.837,8,400,,,
trial,html.Screen,4_63_0,2023-09-15T20:50:47.948Z,,0,2,,5262.662999999942,response,ISIC_0011697.JPG,5,ISIC_0030820.JPG,ISIC_0011697.JPG,false,1,keypress(m),500,612987.8999999985,612987.5,607717.878,607721.5,607724.837,612995.582,8,400,14,,ISIC_0030820.JPG
break,html.Screen,4_63_1,2023-09-15T20:50:47.949Z,,0,,,NaN,,,,,,false,,,,612988.8999999985,612988.6999999955,,612988.099999994,,612995.582,8,400,,,
break_continue,html.Screen,4_63_2,2023-09-15T20:50:47.949Z,,0,,,NaN,,,,,,false,,,,612989.3999999985,612989.299999997,,612989.099999994,,612995.582,8,400,,,
sequence,flow.Sequence,4_63,2023-09-15T20:50:47.950Z,,0,,,5264.462999996962,completion,,,,,false,,,,612989.599999994,612989.299999997,607717.878,607721.5,607724.837,612995.582,8,400,,,
trial,html.Screen,4_64_0,2023-09-15T20:50:52.671Z,,0,2,,4715.517999993986,response,ISIC_0029998.JPG,5,ISIC_6358752.JPG,ISIC_0029998.JPG,false,1,keypress(m),500,617711.5,617711.099999994,612988.619,612989.799999997,612995.582,617717.675,8,400,15,,ISIC_6358752.JPG
break,html.Screen,4_64_1,2023-09-15T20:50:52.673Z,,0,,,NaN,,,,,,false,,,,617712.5,617712.299999997,,617711.6999999955,,617717.675,8,400,,,
break_continue,html.Screen,4_64_2,2023-09-15T20:50:52.673Z,,0,,,NaN,,,,,,false,,,,617713,617712.8999999985,,617712.6999999955,,617717.675,8,400,,,
sequence,flow.Sequence,4_64,2023-09-15T20:50:52.673Z,,0,,,4717.317999998457,completion,,,,,false,,,,617713.1999999955,617712.8999999985,612988.619,612989.6999999955,612995.582,617717.675,8,400,,,
trial,html.Screen,4_65_0,2023-09-15T20:50:58.323Z,,0,2,,5645.524999995483,response,ISIC_0055781.JPG,5,ISIC_0026426.JPG,ISIC_0055781.JPG,false,1,keypress(m),500,623363.3999999985,623363.1999999955,617710.936,617713.3999999985,617717.675,623370.37,8,400,16,,ISIC_0026426.JPG
break,html.Screen,4_65_1,2023-09-15T20:50:58.325Z,,0,,,NaN,,,,,,false,,,,623364.599999994,623364.3999999985,,623363.6999999955,,623370.37,8,400,,,
break_continue,html.Screen,4_65_2,2023-09-15T20:50:58.325Z,,0,,,NaN,,,,,,false,,,,623365.099999994,623365,,623364.799999997,,623370.37,8,400,,,
sequence,flow.Sequence,4_65,2023-09-15T20:50:58.325Z,,0,,,5647.324999999953,completion,,,,,false,,,,623365.299999997,623365,617710.936,617713.3999999985,617717.675,623370.37,8,400,,,
trial,html.Screen,4_66_0,2023-09-15T20:51:01.767Z,,0,2,,3436.4299999970244,response,ISIC_0065346.JPG,5,ISIC_7074321.JPG,ISIC_0065346.JPG,false,1,keypress(m),500,626807.099999994,626806.799999997,623363.423,623365.5,623370.37,626814.688,8,400,17,,ISIC_7074321.JPG
break,html.Screen,4_66_1,2023-09-15T20:51:01.768Z,,0,,,NaN,,,,,,false,,,,626808.1999999955,626807.8999999985,,626807.299999997,,626814.688,8,400,,,
break_continue,html.Screen,4_66_2,2023-09-15T20:51:01.769Z,,0,,,NaN,,,,,,false,,,,626808.8999999985,626808.6999999955,,626808.3999999985,,626814.688,8,400,,,
sequence,flow.Sequence,4_66,2023-09-15T20:51:01.769Z,,0,,,3438.3299999955343,completion,,,,,false,,,,626809.099999994,626808.6999999955,623363.423,623365.3999999985,623370.37,626814.688,8,400,,,
trial,html.Screen,4_67_0,2023-09-15T20:51:04.971Z,,0,2,,3196.511999995564,response,ISIC_0061630.JPG,5,ISIC_0031248.JPG,ISIC_0061630.JPG,false,1,keypress(m),500,630011.1999999955,630011.1999999955,626807.73,626809.1999999955,626814.688,630015.977,8,400,18,,ISIC_0031248.JPG
break,html.Screen,4_67_1,2023-09-15T20:51:04.972Z,,0,,,NaN,,,,,,false,,,,630011.5,630011.5,,630011.299999997,,630015.977,8,400,,,
break_continue,html.Screen,4_67_2,2023-09-15T20:51:04.972Z,,0,,,NaN,,,,,,false,,,,630011.599999994,630011.599999994,,630011.5,,630015.977,8,400,,,
sequence,flow.Sequence,4_67,2023-09-15T20:51:04.972Z,,0,,,3196.911999994074,completion,,,,,false,,,,630011.6999999955,630011.599999994,626807.73,626809.1999999955,626814.688,630015.977,8,400,,,
trial,html.Screen,4_68_0,2023-09-15T20:51:08.957Z,,0,2,,3981.1229999940842,response,ISIC_0063369.JPG,5,ISIC_5230371.JPG,ISIC_0063369.JPG,false,1,keypress(m),500,633997.3999999985,633997.099999994,630009.056,630011.6999999955,630015.977,634002.136,8,400,19,,ISIC_5230371.JPG
break,html.Screen,4_68_1,2023-09-15T20:51:08.959Z,,0,,,NaN,,,,,,false,,,,633998.599999994,633998.299999997,,633997.6999999955,,634002.136,8,400,,,
break_continue,html.Screen,4_68_2,2023-09-15T20:51:08.961Z,,0,,,NaN,,,,,,false,,,,634000.6999999955,634000.5,,633998.6999999955,,634002.136,8,400,,,
sequence,flow.Sequence,4_68,2023-09-15T20:51:08.961Z,,0,,,3984.5230000000447,completion,,,,,false,,,,634000.8999999985,634000.5,630009.056,630011.6999999955,630015.977,634002.136,8,400,,,
trial,html.Screen,4_69_0,2023-09-15T20:51:12.819Z,,0,2,,3856.763999998453,response,ISIC_0030754.JPG,4,ISIC_0066564.JPG,ISIC_0066564.JPG,false,0,keypress(z),500,637859.1999999955,637858.8999999985,633995.008,634001.099999994,634002.136,637863.09,8,400,20,,ISIC_0030754.JPG
break,html.Screen,4_69_1,2023-09-15T20:51:12.820Z,,0,,,NaN,,,,,,false,,,,637860.299999997,637860.099999994,,637859.5,,637863.09,8,400,,,
break_continue,html.Screen,4_69_2,2023-09-15T20:51:12.821Z,,0,,,NaN,,,,,,false,,,,637860.8999999985,637860.799999997,,637860.5,,637863.09,8,400,,,
sequence,flow.Sequence,4_69,2023-09-15T20:51:12.821Z,,0,,,3858.663999996963,completion,,,,,false,,,,637861.099999994,637860.799999997,633995.008,634001,634002.136,637863.09,8,400,,,
trial,html.Screen,4_70_0,2023-09-15T20:51:16.343Z,,0,2,,3519.4100000000326,response,ISIC_9168700.JPG,5,ISIC_4897852.JPG,ISIC_9168700.JPG,false,1,keypress(m),500,641382.8999999985,641382.5,637856.057,637861.1999999955,637863.09,641390.706,8,400,21,,ISIC_4897852.JPG
break,html.Screen,4_70_1,2023-09-15T20:51:16.344Z,,0,,,NaN,,,,,,false,,,,641384,641383.6999999955,,641383.099999994,,641390.706,8,400,,,
break_continue,html.Screen,4_70_2,2023-09-15T20:51:16.345Z,,0,,,NaN,,,,,,false,,,,641384.5,641384.3999999985,,641384.099999994,,641390.706,8,400,,,
sequence,flow.Sequence,4_70,2023-09-15T20:51:16.345Z,,0,,,3521.3099999985425,completion,,,,,false,,,,641384.6999999955,641384.3999999985,637856.057,637861.099999994,637863.09,641390.706,8,400,,,
trial,html.Screen,4_71_0,2023-09-15T20:51:20.251Z,,0,2,,3900.1939999985043,response,ISIC_0057531.JPG,5,ISIC_2283509.JPG,ISIC_2283509.JPG,false,0,keypress(z),500,645291.299999997,645290.8999999985,641383.781,641384.8999999985,641390.706,645301.58,8,400,22,,ISIC_0057531.JPG
break,html.Screen,4_71_1,2023-09-15T20:51:20.252Z,,0,,,NaN,,,,,,false,,,,645292.299999997,645292.099999994,,645291.5,,645301.58,8,400,,,
break_continue,html.Screen,4_71_2,2023-09-15T20:51:20.253Z,,0,,,NaN,,,,,,false,,,,645292.8999999985,645292.6999999955,,645292.5,,645301.58,8,400,,,
sequence,flow.Sequence,4_71,2023-09-15T20:51:20.253Z,,0,,,3901.993999995524,completion,,,,,false,,,,645293.099999994,645292.6999999955,641383.781,641384.799999997,641390.706,645301.58,8,400,,,
trial,html.Screen,4_72_0,2023-09-15T20:51:25.151Z,,0,2,,4889.420000000042,response,ISIC_9049170.JPG,6,ISIC_6032520.JPG,ISIC_9049170.JPG,false,1,keypress(m),500,650191.299999997,650191,645286.335,645293.1999999955,645301.58,650196.131,8,400,23,,ISIC_6032520.JPG
break,html.Screen,4_72_1,2023-09-15T20:51:25.152Z,,0,,,NaN,,,,,,false,,,,650192.3999999985,650192.099999994,,650191.5,,650196.131,8,400,,,
break_continue,html.Screen,4_72_2,2023-09-15T20:51:25.153Z,,0,,,NaN,,,,,,false,,,,650192.8999999985,650192.799999997,,650192.599999994,,650196.131,8,400,,,
sequence,flow.Sequence,4_72,2023-09-15T20:51:25.153Z,,0,,,4891.219999997062,completion,,,,,false,,,,650193.099999994,650192.799999997,645286.335,645293.1999999955,645301.58,650196.131,8,400,,,
trial,html.Screen,4_73_0,2023-09-15T20:51:28.867Z,,0,2,,3710.9689999939874,response,ISIC_0008774.JPG,5,ISIC_2858419.JPG,ISIC_2858419.JPG,false,0,keypress(z),500,653907.1999999955,653907.099999994,650189.082,650193.299999997,650196.131,653911.286,8,400,24,,ISIC_0008774.JPG
break,html.Screen,4_73_1,2023-09-15T20:51:28.868Z,,0,,,NaN,,,,,,false,,,,653907.3999999985,653907.3999999985,,653907.1999999955,,653911.286,8,400,,,
break_continue,html.Screen,4_73_2,2023-09-15T20:51:28.868Z,,0,,,NaN,,,,,,false,,,,653907.599999994,653907.599999994,,653907.5,,653911.286,8,400,,,
sequence,flow.Sequence,4_73,2023-09-15T20:51:28.868Z,,0,,,3711.4689999939874,completion,,,,,false,,,,653907.599999994,653907.599999994,650189.082,650193.299999997,650196.131,653911.286,8,400,,,
trial,html.Screen,4_74_0,2023-09-15T20:51:32.453Z,,0,2,,3581.513999997056,response,ISIC_0061188.JPG,5,ISIC_0016131.JPG,ISIC_0016131.JPG,false,0,keypress(z),500,657493.099999994,657492.799999997,653904.277,653907.599999994,653911.286,657501.733,8,400,25,,ISIC_0061188.JPG
break,html.Screen,4_74_1,2023-09-15T20:51:32.454Z,,0,,,NaN,,,,,,false,,,,657494.1999999955,657494,,657493.299999997,,657501.733,8,400,,,
break_continue,html.Screen,4_74_2,2023-09-15T20:51:32.455Z,,0,,,NaN,,,,,,false,,,,657494.6999999955,657494.599999994,,657494.3999999985,,657501.733,8,400,,,
sequence,flow.Sequence,4_74,2023-09-15T20:51:32.455Z,,0,,,3583.313999994076,completion,,,,,false,,,,657494.8999999985,657494.599999994,653904.277,653907.599999994,653911.286,657501.733,8,400,,,
trial,html.Screen,4_75_0,2023-09-15T20:51:35.753Z,,0,2,,3291.0669999970123,response,ISIC_1570390.JPG,4,ISIC_7129901.JPG,ISIC_1570390.JPG,false,1,keypress(m),500,660793.099999994,660792.799999997,657487.485,657495.099999994,657501.733,660800.008,8,400,26,,ISIC_7129901.JPG
break,html.Screen,4_75_1,2023-09-15T20:51:35.754Z,,0,,,NaN,,,,,,false,,,,660794.099999994,660793.8999999985,,660793.299999997,,660800.008,8,400,,,
break_continue,html.Screen,4_75_2,2023-09-15T20:51:35.755Z,,0,,,NaN,,,,,,false,,,,660794.6999999955,660794.5,,660794.299999997,,660800.008,8,400,,,
sequence,flow.Sequence,4_75,2023-09-15T20:51:35.755Z,,0,,,3292.7669999999925,completion,,,,,false,,,,660794.799999997,660794.5,657487.485,657494.8999999985,657501.733,660800.008,8,400,,,
trial,html.Screen,4_76_0,2023-09-15T20:51:39.005Z,,0,2,,3244.291999996989,response,ISIC_0674746.JPG,5,ISIC_0011095.JPG,ISIC_0011095.JPG,false,0,keypress(z),500,664044.6999999955,664044.299999997,660792.937,660795,660800.008,664049.955,8,400,27,,ISIC_0674746.JPG
break,html.Screen,4_76_1,2023-09-15T20:51:39.006Z,,0,,,NaN,,,,,,false,,,,664045.799999997,664045.5,,664044.8999999985,,664049.955,8,400,,,
break_continue,html.Screen,4_76_2,2023-09-15T20:51:39.006Z,,0,,,NaN,,,,,,false,,,,664046.299999997,664046.1999999955,,664046,,664049.955,8,400,,,
sequence,flow.Sequence,4_76,2023-09-15T20:51:39.007Z,,0,,,3246.191999995499,completion,,,,,false,,,,664046.5,664046.1999999955,660792.937,660795,660800.008,664049.955,8,400,,,
trial,html.Screen,4_77_0,2023-09-15T20:51:42.818Z,,0,2,,3807.444999998552,response,ISIC_9910791.JPG,4,ISIC_2928274.JPG,ISIC_9910791.JPG,false,1,keypress(m),500,667857.6999999955,667857.3999999985,664042.978,664046.6999999955,664049.955,667862.368,8,400,28,,ISIC_2928274.JPG
break,html.Screen,4_77_1,2023-09-15T20:51:42.819Z,,0,,,NaN,,,,,,false,,,,667858.6999999955,667858.5,,667858,,667862.368,8,400,,,
break_continue,html.Screen,4_77_2,2023-09-15T20:51:42.819Z,,0,,,NaN,,,,,,false,,,,667859.299999997,667859.099999994,,667859,,667862.368,8,400,,,
sequence,flow.Sequence,4_77,2023-09-15T20:51:42.819Z,,0,,,3809.1449999940814,completion,,,,,false,,,,667859.5,667859.099999994,664042.978,664046.599999994,664049.955,667862.368,8,400,,,
trial,html.Screen,4_78_0,2023-09-15T20:51:46.167Z,,0,2,,3344.031999998493,response,ISIC_9211072.JPG,5,ISIC_3751090.JPG,ISIC_9211072.JPG,false,1,keypress(m),500,671206.6999999955,671206.3999999985,667855.505,667859.6999999955,667862.368,671209.509,8,400,29,,ISIC_3751090.JPG
break,html.Screen,4_78_1,2023-09-15T20:51:46.168Z,,0,,,NaN,,,,,,false,,,,671207.799999997,671207.599999994,,671207,,671209.509,8,400,,,
break_continue,html.Screen,4_78_2,2023-09-15T20:51:46.168Z,,0,,,NaN,,,,,,false,,,,671208.3999999985,671208.1999999955,,671208,,671209.509,8,400,,,
sequence,flow.Sequence,4_78,2023-09-15T20:51:46.169Z,,0,,,3345.831999995513,completion,,,,,false,,,,671208.599999994,671208.1999999955,667855.505,667859.599999994,667862.368,671209.509,8,400,,,
trial,html.Screen,4_79_0,2023-09-15T20:51:50.235Z,,0,2,,4065.290999997058,response,ISIC_0046351.JPG,5,ISIC_7621412.JPG,ISIC_7621412.JPG,false,0,keypress(z),500,675275.099999994,675274.799999997,671202.41,671208.799999997,671209.509,675278.847,8,400,30,,ISIC_0046351.JPG
break,html.Screen,4_79_1,2023-09-15T20:51:50.236Z,,0,,,NaN,,,,,,false,,,,675276.099999994,675275.8999999985,,675275.299999997,,675278.847,8,400,,,
break_continue,html.Screen,4_79_2,2023-09-15T20:51:50.237Z,,0,,,NaN,,,,,,false,,,,675276.599999994,675276.5,,675276.299999997,,675278.847,8,400,,,
sequence,flow.Sequence,4_79,2023-09-15T20:51:50.237Z,,0,,,4066.991000000038,completion,,,,,false,,,,675276.8999999985,675276.5,671202.41,671208.6999999955,671209.509,675278.847,8,400,,,
trial,html.Screen,4_80_0,2023-09-15T20:51:55.423Z,,0,2,,5184.052999998559,response,ISIC_0032413.JPG,5,ISIC_0004961.JPG,ISIC_0004961.JPG,false,0,keypress(z),500,680463.299999997,680462.8999999985,675271.84,675277,675278.847,680466.231,8,400,31,,ISIC_0032413.JPG
break,html.Screen,4_80_1,2023-09-15T20:51:55.424Z,,0,,,NaN,,,,,,false,,,,680464.3999999985,680464.099999994,,680463.5,,680466.231,8,400,,,
break_continue,html.Screen,4_80_2,2023-09-15T20:51:55.425Z,,0,,,NaN,,,,,,false,,,,680464.8999999985,680464.799999997,,680464.5,,680466.231,8,400,,,
sequence,flow.Sequence,4_80,2023-09-15T20:51:55.425Z,,0,,,5185.952999997069,completion,,,,,false,,,,680465.099999994,680464.799999997,675271.84,675277,675278.847,680466.231,8,400,,,
trial,html.Screen,4_81_0,2023-09-15T20:52:00.307Z,,0,2,,4880.268999999971,response,ISIC_0008774.JPG,5,ISIC_4966865.JPG,ISIC_4966865.JPG,false,0,keypress(z),500,685346.799999997,685346.5,680459.224,680465.299999997,680466.231,685355.67,8,400,32,,ISIC_0008774.JPG
break,html.Screen,4_81_1,2023-09-15T20:52:00.307Z,,0,,,NaN,,,,,,false,,,,685347.3999999985,685347.299999997,,685346.8999999985,,685355.67,8,400,,,
break_continue,html.Screen,4_81_2,2023-09-15T20:52:00.308Z,,0,,,NaN,,,,,,false,,,,685347.6999999955,685347.599999994,,685347.5,,685355.67,8,400,,,
sequence,flow.Sequence,4_81,2023-09-15T20:52:00.308Z,,0,,,4881.368999994011,completion,,,,,false,,,,685347.6999999955,685347.599999994,680459.224,680465.1999999955,680466.231,685355.67,8,400,,,
trial,html.Screen,4_82_0,2023-09-15T20:52:04.630Z,,0,2,,4313.829999999958,response,ISIC_9348399.JPG,5,ISIC_0064406.JPG,ISIC_0064406.JPG,false,0,keypress(z),500,689669.799999997,689669.5,685341.088,685347.8999999985,685355.67,689674.363,8,400,33,,ISIC_9348399.JPG
break,html.Screen,4_82_1,2023-09-15T20:52:04.631Z,,0,,,NaN,,,,,,false,,,,689670.8999999985,689670.599999994,,689670,,689674.363,8,400,,,
break_continue,html.Screen,4_82_2,2023-09-15T20:52:04.631Z,,0,,,NaN,,,,,,false,,,,689671.5,689671.299999997,,689671.099999994,,689674.363,8,400,,,
sequence,flow.Sequence,4_82,2023-09-15T20:52:04.632Z,,0,,,4315.629999996978,completion,,,,,false,,,,689671.599999994,689671.299999997,685341.088,685347.8999999985,685355.67,689674.363,8,400,,,
trial,html.Screen,4_83_0,2023-09-15T20:52:07.898Z,,0,2,,3263.3369999955175,response,ISIC_1558504.JPG,5,ISIC_2410736.JPG,ISIC_1558504.JPG,false,1,keypress(m),500,692938,692937.6999999955,689667.249,689671.799999997,689674.363,692945.066,8,400,34,,ISIC_2410736.JPG
break,html.Screen,4_83_1,2023-09-15T20:52:07.899Z,,0,,,NaN,,,,,,false,,,,692939.099999994,692938.799999997,,692938.1999999955,,692945.066,8,400,,,
break_continue,html.Screen,4_83_2,2023-09-15T20:52:07.900Z,,0,,,NaN,,,,,,false,,,,692939.599999994,692939.3999999985,,692939.1999999955,,692945.066,8,400,,,
sequence,flow.Sequence,4_83,2023-09-15T20:52:07.900Z,,0,,,3265.036999998498,completion,,,,,false,,,,692939.799999997,692939.3999999985,689667.249,689671.799999997,689674.363,692945.066,8,400,,,
trial,html.Screen,4_84_0,2023-09-15T20:52:13.662Z,,0,2,,5756.934000000008,response,ISIC_0056788.JPG,4,ISIC_0053542.JPG,ISIC_0053542.JPG,false,0,keypress(z),500,698702.1999999955,698702,692938.05,692939.8999999985,692945.066,698708.78,8,400,35,,ISIC_0056788.JPG
break,html.Screen,4_84_1,2023-09-15T20:52:13.663Z,,0,,,NaN,,,,,,false,,,,698703.299999997,698703,,698702.5,,698708.78,8,400,,,
break_continue,html.Screen,4_84_2,2023-09-15T20:52:13.664Z,,0,,,NaN,,,,,,false,,,,698704,698703.799999997,,698703.5,,698708.78,8,400,,,
sequence,flow.Sequence,4_84,2023-09-15T20:52:13.664Z,,0,,,5758.733999997028,completion,,,,,false,,,,698704.099999994,698703.799999997,692938.05,692939.8999999985,692945.066,698708.78,8,400,,,
trial,html.Screen,4_85_0,2023-09-15T20:52:17.730Z,,0,2,,4061.019999996992,response,ISIC_0046222.JPG,5,ISIC_0030597.JPG,ISIC_0030597.JPG,false,0,keypress(z),500,702770.1999999955,702769.799999997,698701.83,698704.299999997,698708.78,702778.108,8,400,36,,ISIC_0046222.JPG
break,html.Screen,4_85_1,2023-09-15T20:52:17.731Z,,0,,,NaN,,,,,,false,,,,702771.299999997,702771,,702770.3999999985,,702778.108,8,400,,,
break_continue,html.Screen,4_85_2,2023-09-15T20:52:17.732Z,,0,,,NaN,,,,,,false,,,,702771.799999997,702771.6999999955,,702771.5,,702778.108,8,400,,,
sequence,flow.Sequence,4_85,2023-09-15T20:52:17.732Z,,0,,,4062.9199999955017,completion,,,,,false,,,,702771.8999999985,702771.6999999955,698701.83,698704.299999997,698708.78,702778.108,8,400,,,
trial,html.Screen,4_86_0,2023-09-15T20:52:22.422Z,,0,2,,4683.991999994032,response,ISIC_0030506.JPG,5,ISIC_0000533.JPG,ISIC_0000533.JPG,false,0,keypress(z),500,707462.3999999985,707462.099999994,702771.19,702772.1999999955,702778.108,707465.566,8,400,37,,ISIC_0030506.JPG
break,html.Screen,4_86_1,2023-09-15T20:52:22.424Z,,0,,,NaN,,,,,,false,,,,707463.5,707463.299999997,,707462.6999999955,,707465.566,8,400,,,
break_continue,html.Screen,4_86_2,2023-09-15T20:52:22.424Z,,0,,,NaN,,,,,,false,,,,707464,707463.8999999985,,707463.6999999955,,707465.566,8,400,,,
sequence,flow.Sequence,4_86,2023-09-15T20:52:22.424Z,,0,,,4685.791999998502,completion,,,,,false,,,,707464.299999997,707463.8999999985,702771.19,702772,702778.108,707465.566,8,400,,,
trial,html.Screen,4_87_0,2023-09-15T20:52:26.714Z,,0,2,,4288.233999997028,response,ISIC_0027798.JPG,5,ISIC_0030428.JPG,ISIC_0030428.JPG,false,0,keypress(z),500,711753.8999999985,711753.799999997,707458.449,707464.5,707465.566,711757.095,8,400,38,,ISIC_0027798.JPG
break,html.Screen,4_87_1,2023-09-15T20:52:26.714Z,,0,,,NaN,,,,,,false,,,,711754.1999999955,711754.1999999955,,711754,,711757.095,8,400,,,
break_continue,html.Screen,4_87_2,2023-09-15T20:52:26.714Z,,0,,,NaN,,,,,,false,,,,711754.3999999985,711754.299999997,,711754.1999999955,,711757.095,8,400,,,
sequence,flow.Sequence,4_87,2023-09-15T20:52:26.714Z,,0,,,4288.733999997028,completion,,,,,false,,,,711754.3999999985,711754.299999997,707458.449,707464.3999999985,707465.566,711757.095,8,400,,,
trial,html.Screen,4_88_0,2023-09-15T20:52:31.756Z,,0,2,,5038.5049999940675,response,ISIC_0536433.JPG,4,ISIC_0027492.JPG,ISIC_0536433.JPG,false,1,keypress(m),500,716796,716795.599999994,711750.084,711754.3999999985,711757.095,716798.681,8,400,39,,ISIC_0027492.JPG
break,html.Screen,4_88_1,2023-09-15T20:52:31.757Z,,0,,,NaN,,,,,,false,,,,716797.099999994,716796.8999999985,,716796.299999997,,716798.681,8,400,,,
break_continue,html.Screen,4_88_2,2023-09-15T20:52:31.758Z,,0,,,NaN,,,,,,false,,,,716797.599999994,716797.5,,716797.299999997,,716798.681,8,400,,,
sequence,flow.Sequence,4_88,2023-09-15T20:52:31.758Z,,0,,,5040.405000000028,completion,,,,,false,,,,716797.799999997,716797.5,711750.084,711754.3999999985,711757.095,716798.681,8,400,,,
trial,html.Screen,4_89_0,2023-09-15T20:52:35.424Z,,0,2,,3665.0189999955473,response,ISIC_9077722.JPG,5,ISIC_1874480.JPG,ISIC_1874480.JPG,false,0,keypress(z),500,720463.8999999985,720463.6999999955,716791.567,716797.8999999985,716798.681,720472.947,8,400,40,,ISIC_9077722.JPG
break,html.Screen,4_89_1,2023-09-15T20:52:35.424Z,,0,,,NaN,,,,,,false,,,,720464.1999999955,720464.099999994,,720463.8999999985,,720472.947,8,400,,,
break_continue,html.Screen,4_89_2,2023-09-15T20:52:35.424Z,,0,,,NaN,,,,,,false,,,,720464.1999999955,720464.1999999955,,720464.1999999955,,720472.947,8,400,,,
sequence,flow.Sequence,4_89,2023-09-15T20:52:35.424Z,,0,,,3665.5189999955473,completion,,,,,false,,,,720464.299999997,720464.1999999955,716791.567,716797.8999999985,716798.681,720472.947,8,400,,,
trial,html.Screen,4_90_0,2023-09-15T20:52:40.881Z,,0,2,,5447.852999996976,response,ISIC_0046773.JPG,4,ISIC_0059353.JPG,ISIC_0046773.JPG,false,1,keypress(m),500,725921.099999994,725920.799999997,720458.195,720464.3999999985,720472.947,725923.46,8,400,41,,ISIC_0059353.JPG
break,html.Screen,4_90_1,2023-09-15T20:52:40.882Z,,0,,,NaN,,,,,,false,,,,725922.1999999955,725922,,725921.299999997,,725923.46,8,400,,,
break_continue,html.Screen,4_90_2,2023-09-15T20:52:40.883Z,,0,,,NaN,,,,,,false,,,,725922.6999999955,725922.599999994,,725922.299999997,,725923.46,8,400,,,
sequence,flow.Sequence,4_90,2023-09-15T20:52:40.883Z,,0,,,5449.652999993996,completion,,,,,false,,,,725923,725922.599999994,720458.195,720464.3999999985,720472.947,725923.46,8,400,,,
trial,html.Screen,4_91_0,2023-09-15T20:52:44.053Z,,0,2,,3169.0400000000373,response,ISIC_0053674.JPG,4,ISIC_4322723.JPG,ISIC_0053674.JPG,false,1,keypress(m),500,729092.8999999985,729092.5,725916.336,725923.099999994,725923.46,729096.984,8,400,42,,ISIC_4322723.JPG
break,html.Screen,4_91_1,2023-09-15T20:52:44.054Z,,0,,,NaN,,,,,,false,,,,729094,729093.6999999955,,729093.099999994,,729096.984,8,400,,,
break_continue,html.Screen,4_91_2,2023-09-15T20:52:44.054Z,,0,,,NaN,,,,,,false,,,,729094.3999999985,729094.299999997,,729094.099999994,,729096.984,8,400,,,
sequence,flow.Sequence,4_91,2023-09-15T20:52:44.055Z,,0,,,3170.839999997057,completion,,,,,false,,,,729094.6999999955,729094.299999997,725916.336,725923,725923.46,729096.984,8,400,,,
trial,html.Screen,4_92_0,2023-09-15T20:52:47.849Z,,0,2,,3791.515999999945,response,ISIC_5111521.JPG,5,ISIC_0016114.JPG,ISIC_5111521.JPG,false,1,keypress(m),500,732888.799999997,732888.5,729089.851,729094.799999997,729096.984,732895.455,8,400,43,,ISIC_0016114.JPG
break,html.Screen,4_92_1,2023-09-15T20:52:47.850Z,,0,,,NaN,,,,,,false,,,,732889.8999999985,732889.6999999955,,732889.099999994,,732895.455,8,400,,,
break_continue,html.Screen,4_92_2,2023-09-15T20:52:47.850Z,,0,,,NaN,,,,,,false,,,,732890.3999999985,732890.1999999955,,732890.099999994,,732895.455,8,400,,,
sequence,flow.Sequence,4_92,2023-09-15T20:52:47.850Z,,0,,,3793.2159999954747,completion,,,,,false,,,,732890.599999994,732890.1999999955,729089.851,729094.799999997,729096.984,732895.455,8,400,,,
trial,html.Screen,4_93_0,2023-09-15T20:52:51.692Z,,0,2,,3836.7449999955716,response,ISIC_9402324.JPG,5,ISIC_6539127.JPG,ISIC_9402324.JPG,false,1,keypress(m),500,736732.299999997,736732.1999999955,732888.405,732890.6999999955,732895.455,736735.622,8,400,44,,ISIC_6539127.JPG
break,html.Screen,4_93_1,2023-09-15T20:52:51.692Z,,0,,,NaN,,,,,,false,,,,736732.599999994,736732.5,,736732.3999999985,,736735.622,8,400,,,
break_continue,html.Screen,4_93_2,2023-09-15T20:52:51.693Z,,0,,,NaN,,,,,,false,,,,736732.799999997,736732.6999999955,,736732.6999999955,,736735.622,8,400,,,
sequence,flow.Sequence,4_93,2023-09-15T20:52:51.693Z,,0,,,3837.2449999955716,completion,,,,,false,,,,736732.799999997,736732.6999999955,732888.405,732890.6999999955,732895.455,736735.622,8,400,,,
trial,html.Screen,4_94_0,2023-09-15T20:52:57.678Z,,0,2,,5981.977999994066,response,ISIC_5204408.JPG,5,ISIC_0025379.JPG,ISIC_5204408.JPG,false,1,keypress(m),500,742717.8999999985,742717.599999994,736728.563,736732.799999997,736735.622,742721.647,8,400,45,,ISIC_0025379.JPG
break,html.Screen,4_94_1,2023-09-15T20:52:57.679Z,,0,,,NaN,,,,,,false,,,,742719,742718.6999999955,,742718.1999999955,,742721.647,8,400,,,
break_continue,html.Screen,4_94_2,2023-09-15T20:52:57.679Z,,0,,,NaN,,,,,,false,,,,742719.3999999985,742719.299999997,,742719.1999999955,,742721.647,8,400,,,
sequence,flow.Sequence,4_94,2023-09-15T20:52:57.679Z,,0,,,5983.677999997046,completion,,,,,false,,,,742719.6999999955,742719.299999997,736728.563,736732.799999997,736735.622,742721.647,8,400,,,
trial,html.Screen,4_95_0,2023-09-15T20:53:02.466Z,,0,2,,4784.353000000003,response,ISIC_0060679.JPG,5,ISIC_4374944.JPG,ISIC_4374944.JPG,false,0,keypress(z),500,747506.3999999985,747506,742714.553,742719.8999999985,742721.647,747513.136,8,400,46,,ISIC_0060679.JPG
break,html.Screen,4_95_1,2023-09-15T20:53:02.467Z,,0,,,NaN,,,,,,false,,,,747507.5,747507.1999999955,,747506.599999994,,747513.136,8,400,,,
break_continue,html.Screen,4_95_2,2023-09-15T20:53:02.468Z,,0,,,NaN,,,,,,false,,,,747508.1999999955,747508,,747507.799999997,,747513.136,8,400,,,
sequence,flow.Sequence,4_95,2023-09-15T20:53:02.468Z,,0,,,4786.353000000003,completion,,,,,false,,,,747508.299999997,747508,742714.553,742719.799999997,742721.647,747513.136,8,400,,,
trial,html.Screen,4_96_0,2023-09-15T20:53:05.942Z,,0,2,,3468.863999999943,response,ISIC_0062077.JPG,5,ISIC_6532137.JPG,ISIC_0062077.JPG,false,1,keypress(m),500,750982.299999997,750982,747506.23,747508.5,747513.136,750985.347,8,400,47,,ISIC_6532137.JPG
break,html.Screen,4_96_1,2023-09-15T20:53:05.943Z,,0,,,NaN,,,,,,false,,,,750983.599999994,750983.299999997,,750982.599999994,,750985.347,8,400,,,
break_continue,html.Screen,4_96_2,2023-09-15T20:53:05.944Z,,0,,,NaN,,,,,,false,,,,750984,750983.8999999985,,750983.6999999955,,750985.347,8,400,,,
sequence,flow.Sequence,4_96,2023-09-15T20:53:05.944Z,,0,,,3470.763999998453,completion,,,,,false,,,,750984.1999999955,750983.8999999985,747506.23,747508.5,747513.136,750985.347,8,400,,,
trial,html.Screen,4_97_0,2023-09-15T20:53:09.227Z,,0,2,,3281.952999997069,response,ISIC_4619789.JPG,4,ISIC_9876515.JPG,ISIC_4619789.JPG,false,1,keypress(m),500,754267.6999999955,754267.299999997,750978.328,750984.3999999985,750985.347,754270.012,8,400,48,,ISIC_9876515.JPG
break,html.Screen,4_97_1,2023-09-15T20:53:09.229Z,,0,,,NaN,,,,,,false,,,,754268.799999997,754268.5,,754268,,754270.012,8,400,,,
break_continue,html.Screen,4_97_2,2023-09-15T20:53:09.229Z,,0,,,NaN,,,,,,false,,,,754269.1999999955,754269.099999994,,754268.8999999985,,754270.012,8,400,,,
sequence,flow.Sequence,4_97,2023-09-15T20:53:09.229Z,,0,,,3283.752999994089,completion,,,,,false,,,,754269.5,754269.099999994,750978.328,750984.299999997,750985.347,754270.012,8,400,,,
trial,html.Screen,4_98_0,2023-09-15T20:53:12.576Z,,0,2,,3345.488000000012,response,ISIC_2826766.JPG,5,ISIC_6756517.JPG,ISIC_2826766.JPG,false,1,keypress(m),500,757615.799999997,757615.5,754262.933,754269.6999999955,754270.012,757631.057,8,400,49,,ISIC_6756517.JPG
break,html.Screen,4_98_1,2023-09-15T20:53:12.577Z,,0,,,NaN,,,,,,false,,,,757617,757616.6999999955,,757616.099999994,,757631.057,8,400,,,
break_continue,html.Screen,4_98_2,2023-09-15T20:53:12.577Z,,0,,,NaN,,,,,,false,,,,757617.599999994,757617.3999999985,,757617.099999994,,757631.057,8,400,,,
sequence,flow.Sequence,4_98,2023-09-15T20:53:12.578Z,,0,,,3347.387999998522,completion,,,,,false,,,,757617.799999997,757617.3999999985,754262.933,754269.599999994,754270.012,757631.057,8,400,,,
trial,html.Screen,4_99_0,2023-09-15T20:53:19.652Z,,0,2,,7060.94299999997,response,ISIC_3578186.JPG,4,ISIC_2489504.JPG,ISIC_3578186.JPG,false,1,keypress(m),500,764692.3999999985,764692,757624.206,757617.8999999985,757631.057,764700.266,8,400,50,,ISIC_2489504.JPG
break,html.Screen,4_99_1,2023-09-15T20:53:29.653Z,,0,,,9999.767000000109,timeout,,,,,false,,,,774693.3999999985,774693.119,764693.374,764692.599999994,764700.266,774700.033,8,400,,,
break_continue,html.Screen,4_99_2,2023-09-15T21:05:52.490Z,,0,,,742838.566999994,response,,,,,false,continue,keypress(Space),,1517543.5,1517538.599999994,774693.119,774693.3999999985,774700.033,1517548.056,8,400,,,
sequence,flow.Sequence,4_99,2023-09-15T21:05:52.490Z,,0,,,759907.542999994,completion,,,,,false,,,,1517543.5,1517538.599999994,757624.206,757617.8999999985,757631.057,1517548.056,8,400,,,
trial,html.Screen,4_100_0,2023-09-15T21:05:58.108Z,,0,3,,5613.043999993941,response,ISIC_9572761.JPG,5,ISIC_4347535.JPG,ISIC_4347535.JPG,false,0,keypress(z),500,1523161.1999999955,1523161.099999994,1517541.071,1517543.599999994,1517548.056,1523166.065,8,400,1,,ISIC_9572761.JPG
break,html.Screen,4_100_1,2023-09-15T21:05:58.108Z,,0,,,NaN,,,,,,false,,,,1523161.599999994,1523161.5,,1523161.299999997,,1523166.065,8,400,,,
break_continue,html.Screen,4_100_2,2023-09-15T21:05:58.108Z,,0,,,NaN,,,,,,false,,,,1523161.6999999955,1523161.6999999955,,1523161.599999994,,1523166.065,8,400,,,
sequence,flow.Sequence,4_100,2023-09-15T21:05:58.108Z,,0,,,5613.643999995431,completion,,,,,false,,,,1523161.6999999955,1523161.6999999955,1517541.071,1517543.599999994,1517548.056,1523166.065,8,400,,,
trial,html.Screen,4_101_0,2023-09-15T21:06:02.141Z,,0,3,,4028.8349999985658,response,ISIC_0604532.JPG,5,ISIC_0192893.JPG,ISIC_0604532.JPG,false,1,keypress(m),500,1527195,1527194.8999999985,1523159.072,1523161.6999999955,1523166.065,1527200.629,8,400,2,,ISIC_0192893.JPG
break,html.Screen,4_101_1,2023-09-15T21:06:02.142Z,,0,,,NaN,,,,,,false,,,,1527195.299999997,1527195.299999997,,1527195.099999994,,1527200.629,8,400,,,
break_continue,html.Screen,4_101_2,2023-09-15T21:06:02.142Z,,0,,,NaN,,,,,,false,,,,1527195.3999999985,1527195.3999999985,,1527195.299999997,,1527200.629,8,400,,,
sequence,flow.Sequence,4_101,2023-09-15T21:06:02.142Z,,0,,,4029.3349999985658,completion,,,,,false,,,,1527195.3999999985,1527195.3999999985,1523159.072,1523161.6999999955,1523166.065,1527200.629,8,400,,,
trial,html.Screen,4_102_0,2023-09-15T21:06:05.471Z,,0,3,,3323.5709999955725,response,ISIC_6533176.JPG,6,ISIC_0024481.JPG,ISIC_0024481.JPG,false,0,keypress(z),500,1530524.3999999985,1530524.1999999955,1527193.642,1527195.5,1527200.629,1530526.964,8,400,3,,ISIC_6533176.JPG
break,html.Screen,4_102_1,2023-09-15T21:06:05.471Z,,0,,,NaN,,,,,,false,,,,1530524.599999994,1530524.599999994,,1530524.3999999985,,1530526.964,8,400,,,
break_continue,html.Screen,4_102_2,2023-09-15T21:06:05.471Z,,0,,,NaN,,,,,,false,,,,1530524.6999999955,1530524.6999999955,,1530524.6999999955,,1530526.964,8,400,,,
sequence,flow.Sequence,4_102,2023-09-15T21:06:05.471Z,,0,,,3324.0709999955725,completion,,,,,false,,,,1530524.799999997,1530524.6999999955,1527193.642,1527195.3999999985,1527200.629,1530526.964,8,400,,,
trial,html.Screen,4_103_0,2023-09-15T21:06:09.233Z,,0,3,,3759.2359999956097,response,ISIC_1915890.JPG,5,ISIC_7906421.JPG,ISIC_7906421.JPG,false,0,keypress(z),500,1534286.299999997,1534286.1999999955,1530519.911,1530524.799999997,1530526.964,1534290.813,8,400,4,,ISIC_1915890.JPG
break,html.Screen,4_103_1,2023-09-15T21:06:09.233Z,,0,,,NaN,,,,,,false,,,,1534286.599999994,1534286.5,,1534286.299999997,,1534290.813,8,400,,,
break_continue,html.Screen,4_103_2,2023-09-15T21:06:09.234Z,,0,,,NaN,,,,,,false,,,,1534287.1999999955,1534286.599999994,,1534286.599999994,,1534290.813,8,400,,,
sequence,flow.Sequence,4_103,2023-09-15T21:06:09.234Z,,0,,,3759.6359999941196,completion,,,,,false,,,,1534287.299999997,1534286.599999994,1530519.911,1530524.799999997,1530526.964,1534290.813,8,400,,,
trial,html.Screen,4_104_0,2023-09-15T21:06:11.427Z,,0,3,,2189.3869999954477,response,ISIC_3792196.JPG,5,ISIC_0000143.JPG,ISIC_0000143.JPG,false,0,keypress(z),500,1536480.3999999985,1536480.1999999955,1534283.735,1534287.299999997,1534290.813,1536485.137,8,400,5,,ISIC_3792196.JPG
break,html.Screen,4_104_1,2023-09-15T21:06:11.427Z,,0,,,NaN,,,,,,false,,,,1536480.6999999955,1536480.599999994,,1536480.3999999985,,1536485.137,8,400,,,
break_continue,html.Screen,4_104_2,2023-09-15T21:06:11.427Z,,0,,,NaN,,,,,,false,,,,1536480.799999997,1536480.799999997,,1536480.6999999955,,1536485.137,8,400,,,
sequence,flow.Sequence,4_104,2023-09-15T21:06:11.427Z,,0,,,2189.986999996938,completion,,,,,false,,,,1536480.799999997,1536480.799999997,1534283.735,1534287.299999997,1534290.813,1536485.137,8,400,,,
trial,html.Screen,4_105_0,2023-09-15T21:06:14.948Z,,0,3,,3516.2629999984056,response,ISIC_7171090.JPG,5,ISIC_3762459.JPG,ISIC_3762459.JPG,false,0,keypress(z),500,1540001.5,1540001.3999999985,1536478.135,1536480.8999999985,1536485.137,1540005.898,8,400,6,,ISIC_7171090.JPG
break,html.Screen,4_105_1,2023-09-15T21:06:14.948Z,,0,,,NaN,,,,,,false,,,,1540001.799999997,1540001.6999999955,,1540001.599999994,,1540005.898,8,400,,,
break_continue,html.Screen,4_105_2,2023-09-15T21:06:14.948Z,,0,,,NaN,,,,,,false,,,,1540002,1540001.8999999985,,1540001.799999997,,1540005.898,8,400,,,
sequence,flow.Sequence,4_105,2023-09-15T21:06:14.948Z,,0,,,3516.7629999984056,completion,,,,,false,,,,1540002,1540001.8999999985,1536478.135,1536480.799999997,1536485.137,1540005.898,8,400,,,
trial,html.Screen,4_106_0,2023-09-15T21:06:19.510Z,,0,3,,4557.801999995485,response,ISIC_0056192.JPG,5,ISIC_0057180.JPG,ISIC_0057180.JPG,false,0,keypress(z),500,1544563.799999997,1544563.6999999955,1539998.929,1540002,1540005.898,1544568.281,8,400,7,,ISIC_0056192.JPG
break,html.Screen,4_106_1,2023-09-15T21:06:19.510Z,,0,,,NaN,,,,,,false,,,,1544564.1999999955,1544564.099999994,,1544563.799999997,,1544568.281,8,400,,,
break_continue,html.Screen,4_106_2,2023-09-15T21:06:19.511Z,,0,,,NaN,,,,,,false,,,,1544564.299999997,1544564.299999997,,1544564.1999999955,,1544568.281,8,400,,,
sequence,flow.Sequence,4_106,2023-09-15T21:06:19.511Z,,0,,,4558.401999996975,completion,,,,,false,,,,1544564.3999999985,1544564.299999997,1539998.929,1540002,1540005.898,1544568.281,8,400,,,
trial,html.Screen,4_107_0,2023-09-15T21:06:23.753Z,,0,3,,4238.118999998551,response,ISIC_2720971.JPG,4,ISIC_9933790.JPG,ISIC_9933790.JPG,false,0,keypress(z),500,1548806.5,1548806.3999999985,1544561.362,1544564.3999999985,1544568.281,1548811.246,8,400,8,,ISIC_2720971.JPG
break,html.Screen,4_107_1,2023-09-15T21:06:23.753Z,,0,,,NaN,,,,,,false,,,,1548806.8999999985,1548806.799999997,,1548806.599999994,,1548811.246,8,400,,,
break_continue,html.Screen,4_107_2,2023-09-15T21:06:23.753Z,,0,,,NaN,,,,,,false,,,,1548807,1548806.8999999985,,1548806.8999999985,,1548811.246,8,400,,,
sequence,flow.Sequence,4_107,2023-09-15T21:06:23.753Z,,0,,,4238.618999998551,completion,,,,,false,,,,1548807,1548806.8999999985,1544561.362,1544564.3999999985,1544568.281,1548811.246,8,400,,,
trial,html.Screen,4_108_0,2023-09-15T21:06:28.204Z,,0,3,,4445.853999993997,response,ISIC_6824842.JPG,5,ISIC_0029478.JPG,ISIC_0029478.JPG,false,0,keypress(z),500,1553257.1999999955,1553257.099999994,1548804.222,1548807.099999994,1548811.246,1553262.501,8,400,9,,ISIC_6824842.JPG
break,html.Screen,4_108_1,2023-09-15T21:06:28.204Z,,0,,,NaN,,,,,,false,,,,1553257.5,1553257.3999999985,,1553257.1999999955,,1553262.501,8,400,,,
break_continue,html.Screen,4_108_2,2023-09-15T21:06:28.204Z,,0,,,NaN,,,,,,false,,,,1553257.5,1553257.5,,1553257.5,,1553262.501,8,400,,,
sequence,flow.Sequence,4_108,2023-09-15T21:06:28.204Z,,0,,,4446.253999999957,completion,,,,,false,,,,1553257.6999999955,1553257.5,1548804.222,1548807,1548811.246,1553262.501,8,400,,,
trial,html.Screen,4_109_0,2023-09-15T21:06:33.246Z,,0,3,,5036.798999997089,response,ISIC_1035480.JPG,5,ISIC_0773096.JPG,ISIC_1035480.JPG,false,1,keypress(m),500,1558299.3999999985,1558299.299999997,1553255.519,1553257.6999999955,1553262.501,1558304.109,8,400,10,,ISIC_0773096.JPG
break,html.Screen,4_109_1,2023-09-15T21:06:33.246Z,,0,,,NaN,,,,,,false,,,,1558299.599999994,1558299.599999994,,1558299.3999999985,,1558304.109,8,400,,,
break_continue,html.Screen,4_109_2,2023-09-15T21:06:33.246Z,,0,,,NaN,,,,,,false,,,,1558299.799999997,1558299.6999999955,,1558299.6999999955,,1558304.109,8,400,,,
sequence,flow.Sequence,4_109,2023-09-15T21:06:33.246Z,,0,,,5037.198999995599,completion,,,,,false,,,,1558299.799999997,1558299.6999999955,1553255.519,1553257.6999999955,1553262.501,1558304.109,8,400,,,
trial,html.Screen,4_110_0,2023-09-15T21:06:38.799Z,,0,3,,5548.690999997081,response,ISIC_0032466.JPG,6,ISIC_0011587.JPG,ISIC_0011587.JPG,false,0,keypress(z),500,1563852.8999999985,1563852.799999997,1558297.108,1558299.799999997,1558304.109,1563859.509,8,400,11,,ISIC_0032466.JPG
break,html.Screen,4_110_1,2023-09-15T21:06:38.799Z,,0,,,NaN,,,,,,false,,,,1563853.099999994,1563853.099999994,,1563853,,1563859.509,8,400,,,
break_continue,html.Screen,4_110_2,2023-09-15T21:06:38.800Z,,0,,,NaN,,,,,,false,,,,1563853.299999997,1563853.299999997,,1563853.1999999955,,1563859.509,8,400,,,
sequence,flow.Sequence,4_110,2023-09-15T21:06:38.800Z,,0,,,5549.190999997081,completion,,,,,false,,,,1563853.299999997,1563853.299999997,1558297.108,1558299.799999997,1558304.109,1563859.509,8,400,,,
trial,html.Screen,4_111_0,2023-09-15T21:06:43.617Z,,0,3,,4810.590999993961,response,ISIC_0034042.JPG,4,ISIC_5993530.JPG,ISIC_5993530.JPG,false,0,keypress(z),500,1568670.299999997,1568670.099999994,1563852.475,1563853.299999997,1563859.509,1568671.943,8,400,12,,ISIC_0034042.JPG
break,html.Screen,4_111_1,2023-09-15T21:06:43.617Z,,0,,,NaN,,,,,,false,,,,1568670.5,1568670.5,,1568670.299999997,,1568671.943,8,400,,,
break_continue,html.Screen,4_111_2,2023-09-15T21:06:43.617Z,,0,,,NaN,,,,,,false,,,,1568670.599999994,1568670.599999994,,1568670.5,,1568671.943,8,400,,,
sequence,flow.Sequence,4_111,2023-09-15T21:06:43.617Z,,0,,,4811.090999993961,completion,,,,,false,,,,1568670.6999999955,1568670.599999994,1563852.475,1563853.299999997,1563859.509,1568671.943,8,400,,,
trial,html.Screen,4_112_0,2023-09-15T21:06:49.394Z,,0,3,,5775.35699999705,response,ISIC_0565743.JPG,5,ISIC_0026911.JPG,ISIC_0565743.JPG,false,1,keypress(m),500,1574447.3999999985,1574447.299999997,1568665.022,1568670.6999999955,1568671.943,1574449.604,8,400,13,,ISIC_0026911.JPG
break,html.Screen,4_112_1,2023-09-15T21:06:49.394Z,,0,,,NaN,,,,,,false,,,,1574447.799999997,1574447.6999999955,,1574447.5,,1574449.604,8,400,,,
break_continue,html.Screen,4_112_2,2023-09-15T21:06:49.394Z,,0,,,NaN,,,,,,false,,,,1574447.799999997,1574447.799999997,,1574447.799999997,,1574449.604,8,400,,,
sequence,flow.Sequence,4_112,2023-09-15T21:06:49.394Z,,0,,,5775.85699999705,completion,,,,,false,,,,1574447.8999999985,1574447.799999997,1568665.022,1568670.6999999955,1568671.943,1574449.604,8,400,,,
trial,html.Screen,4_113_0,2023-09-15T21:06:54.484Z,,0,3,,5087.1959999969695,response,ISIC_9338761.JPG,5,ISIC_7620514.JPG,ISIC_7620514.JPG,false,0,keypress(z),500,1579536.799999997,1579536.799999997,1574442.576,1574447.8999999985,1574449.604,1579539.714,8,400,14,,ISIC_9338761.JPG
break,html.Screen,4_113_1,2023-09-15T21:06:54.484Z,,0,,,NaN,,,,,,false,,,,1579537.1999999955,1579537.099999994,,1579536.8999999985,,1579539.714,8,400,,,
break_continue,html.Screen,4_113_2,2023-09-15T21:06:54.484Z,,0,,,NaN,,,,,,false,,,,1579537.1999999955,1579537.1999999955,,1579537.1999999955,,1579539.714,8,400,,,
sequence,flow.Sequence,4_113,2023-09-15T21:06:54.484Z,,0,,,5087.595999995479,completion,,,,,false,,,,1579537.1999999955,1579537.1999999955,1574442.576,1574447.8999999985,1574449.604,1579539.714,8,400,,,
trial,html.Screen,4_114_0,2023-09-15T21:06:58.694Z,,0,3,,4206.68599999859,response,ISIC_0011958.JPG,5,ISIC_7329395.JPG,ISIC_0011958.JPG,false,1,keypress(m),500,1583746.5,1583746.3999999985,1579532.664,1579537.299999997,1579539.714,1583755.105,8,400,15,,ISIC_7329395.JPG
break,html.Screen,4_114_1,2023-09-15T21:06:58.694Z,,0,,,NaN,,,,,,false,,,,1583746.799999997,1583746.6999999955,,1583746.5,,1583755.105,8,400,,,
break_continue,html.Screen,4_114_2,2023-09-15T21:06:58.694Z,,0,,,NaN,,,,,,false,,,,1583746.8999999985,1583746.8999999985,,1583746.799999997,,1583755.105,8,400,,,
sequence,flow.Sequence,4_114,2023-09-15T21:06:58.694Z,,0,,,4207.18599999859,completion,,,,,false,,,,1583746.8999999985,1583746.8999999985,1579532.664,1579537.299999997,1579539.714,1583755.105,8,400,,,
trial,html.Screen,4_115_0,2023-09-15T21:07:03.784Z,,0,3,,5081.2949999985285,response,ISIC_3084322.JPG,5,ISIC_6258744.JPG,ISIC_3084322.JPG,false,1,keypress(m),500,1588836.5,1588836.3999999985,1583740.957,1583747,1583755.105,1588845.261,8,400,16,,ISIC_6258744.JPG
break,html.Screen,4_115_1,2023-09-15T21:07:03.784Z,,0,,,NaN,,,,,,false,,,,1588836.799999997,1588836.6999999955,,1588836.5,,1588845.261,8,400,,,
break_continue,html.Screen,4_115_2,2023-09-15T21:07:03.784Z,,0,,,NaN,,,,,,false,,,,1588836.8999999985,1588836.799999997,,1588836.799999997,,1588845.261,8,400,,,
sequence,flow.Sequence,4_115,2023-09-15T21:07:03.784Z,,0,,,5081.694999997038,completion,,,,,false,,,,1588836.8999999985,1588836.799999997,1583740.957,1583746.8999999985,1583755.105,1588845.261,8,400,,,
trial,html.Screen,4_116_0,2023-09-15T21:07:07.753Z,,0,3,,3960.338999994099,response,ISIC_0597218.JPG,5,ISIC_0000024.JPG,ISIC_0000024.JPG,false,0,keypress(z),500,1592805.6999999955,1592805.599999994,1588831.019,1588837,1588845.261,1592810.155,8,400,17,,ISIC_0597218.JPG
break,html.Screen,4_116_1,2023-09-15T21:07:07.753Z,,0,,,NaN,,,,,,false,,,,1592806,1592805.8999999985,,1592805.6999999955,,1592810.155,8,400,,,
break_continue,html.Screen,4_116_2,2023-09-15T21:07:07.753Z,,0,,,NaN,,,,,,false,,,,1592806.099999994,1592806.099999994,,1592806,,1592810.155,8,400,,,
sequence,flow.Sequence,4_116,2023-09-15T21:07:07.753Z,,0,,,3960.838999994099,completion,,,,,false,,,,1592806.099999994,1592806.099999994,1588831.019,1588837,1588845.261,1592810.155,8,400,,,
trial,html.Screen,4_117_0,2023-09-15T21:07:12.235Z,,0,3,,4477.844999999972,response,ISIC_0561634.JPG,4,ISIC_4803943.JPG,ISIC_4803943.JPG,false,0,keypress(z),500,1597288.099999994,1597288,1592803.194,1592806.099999994,1592810.155,1597297.328,8,400,18,,ISIC_0561634.JPG
break,html.Screen,4_117_1,2023-09-15T21:07:12.235Z,,0,,,NaN,,,,,,false,,,,1597288.3999999985,1597288.3999999985,,1597288.1999999955,,1597297.328,8,400,,,
break_continue,html.Screen,4_117_2,2023-09-15T21:07:12.236Z,,0,,,NaN,,,,,,false,,,,1597288.599999994,1597288.3999999985,,1597288.3999999985,,1597297.328,8,400,,,
sequence,flow.Sequence,4_117,2023-09-15T21:07:12.236Z,,0,,,4478.244999998482,completion,,,,,false,,,,1597288.599999994,1597288.3999999985,1592803.194,1592806.099999994,1592810.155,1597297.328,8,400,,,
trial,html.Screen,4_118_0,2023-09-15T21:07:16.605Z,,0,3,,4360.07199999853,response,ISIC_0063742.JPG,4,ISIC_0667763.JPG,ISIC_0063742.JPG,false,1,keypress(m),500,1601657.599999994,1601657.3999999985,1597282.211,1597288.599999994,1597297.328,1601664.191,8,400,19,,ISIC_0667763.JPG
break,html.Screen,4_118_1,2023-09-15T21:07:16.605Z,,0,,,NaN,,,,,,false,,,,1601657.799999997,1601657.799999997,,1601657.599999994,,1601664.191,8,400,,,
break_continue,html.Screen,4_118_2,2023-09-15T21:07:16.605Z,,0,,,NaN,,,,,,false,,,,1601658,1601657.8999999985,,1601657.799999997,,1601664.191,8,400,,,
sequence,flow.Sequence,4_118,2023-09-15T21:07:16.605Z,,0,,,4360.57199999853,completion,,,,,false,,,,1601658,1601657.8999999985,1597282.211,1597288.599999994,1597297.328,1601664.191,8,400,,,
trial,html.Screen,4_119_0,2023-09-15T21:07:21.582Z,,0,3,,4970.308999999892,response,ISIC_0034246.JPG,5,ISIC_0029050.JPG,ISIC_0034246.JPG,false,1,keypress(m),500,1606634.8999999985,1606634.5,1601657.147,1601658,1601664.191,1606643.49,8,400,20,,ISIC_0029050.JPG
break,html.Screen,4_119_1,2023-09-15T21:07:21.583Z,,0,,,NaN,,,,,,false,,,,1606635.8999999985,1606635.6999999955,,1606635.099999994,,1606643.49,8,400,,,
break_continue,html.Screen,4_119_2,2023-09-15T21:07:21.583Z,,0,,,NaN,,,,,,false,,,,1606636.3999999985,1606636.299999997,,1606636.099999994,,1606643.49,8,400,,,
sequence,flow.Sequence,4_119,2023-09-15T21:07:21.584Z,,0,,,4972.108999996912,completion,,,,,false,,,,1606636.599999994,1606636.299999997,1601657.147,1601658,1601664.191,1606643.49,8,400,,,
trial,html.Screen,4_120_0,2023-09-15T21:07:26.402Z,,0,3,,4811.109999994049,response,ISIC_0027087.JPG,4,ISIC_0046340.JPG,ISIC_0046340.JPG,false,0,keypress(z),500,1611454.8999999985,1611454.599999994,1606629.211,1606636.799999997,1606643.49,1611462.577,8,400,21,,ISIC_0027087.JPG
break,html.Screen,4_120_1,2023-09-15T21:07:26.403Z,,0,,,NaN,,,,,,false,,,,1611455.8999999985,1611455.6999999955,,1611455.099999994,,1611462.577,8,400,,,
break_continue,html.Screen,4_120_2,2023-09-15T21:07:26.403Z,,0,,,NaN,,,,,,false,,,,1611456.5,1611456.299999997,,1611456.099999994,,1611462.577,8,400,,,
sequence,flow.Sequence,4_120,2023-09-15T21:07:26.404Z,,0,,,4812.809999997029,completion,,,,,false,,,,1611456.6999999955,1611456.299999997,1606629.211,1606636.799999997,1606643.49,1611462.577,8,400,,,
trial,html.Screen,4_121_0,2023-09-15T21:07:31.254Z,,0,3,,4844.522999993991,response,ISIC_0058768.JPG,4,ISIC_0011128.JPG,ISIC_0058768.JPG,false,1,keypress(m),500,1616307.3999999985,1616307.099999994,1611455.499,1611456.8999999985,1611462.577,1616309.673,8,400,22,,ISIC_0011128.JPG
break,html.Screen,4_121_1,2023-09-15T21:07:31.256Z,,0,,,NaN,,,,,,false,,,,1616308.3999999985,1616308.1999999955,,1616307.599999994,,1616309.673,8,400,,,
break_continue,html.Screen,4_121_2,2023-09-15T21:07:31.256Z,,0,,,NaN,,,,,,false,,,,1616309,1616308.8999999985,,1616308.6999999955,,1616309.673,8,400,,,
sequence,flow.Sequence,4_121,2023-09-15T21:07:31.256Z,,0,,,4846.3229999984615,completion,,,,,false,,,,1616309.1999999955,1616308.8999999985,1611455.499,1611456.8999999985,1611462.577,1616309.673,8,400,,,
trial,html.Screen,4_122_0,2023-09-15T21:07:36.074Z,,0,3,,4817.126999997068,response,ISIC_9688119.JPG,5,ISIC_0029736.JPG,ISIC_0029736.JPG,false,0,keypress(z),500,1621127.099999994,1621126.799999997,1616302.621,1616309.299999997,1616309.673,1621136.885,8,400,23,,ISIC_9688119.JPG
break,html.Screen,4_122_1,2023-09-15T21:07:36.075Z,,0,,,NaN,,,,,,false,,,,1621128.299999997,1621128,,1621127.5,,1621136.885,8,400,,,
break_continue,html.Screen,4_122_2,2023-09-15T21:07:36.076Z,,0,,,NaN,,,,,,false,,,,1621128.8999999985,1621128.6999999955,,1621128.3999999985,,1621136.885,8,400,,,
sequence,flow.Sequence,4_122,2023-09-15T21:07:36.076Z,,0,,,4819.026999995578,completion,,,,,false,,,,1621129.099999994,1621128.6999999955,1616302.621,1616309.299999997,1616309.673,1621136.885,8,400,,,
trial,html.Screen,4_123_0,2023-09-15T21:07:40.766Z,,0,3,,4681.514999998501,response,ISIC_0064284.JPG,6,ISIC_7896667.JPG,ISIC_0064284.JPG,false,1,keypress(m),500,1625818.799999997,1625818.3999999985,1621121.942,1621129.1999999955,1621136.885,1625823.347,8,400,24,,ISIC_7896667.JPG
break,html.Screen,4_123_1,2023-09-15T21:07:40.767Z,,0,,,NaN,,,,,,false,,,,1625819.799999997,1625819.599999994,,1625819,,1625823.347,8,400,,,
break_continue,html.Screen,4_123_2,2023-09-15T21:07:40.767Z,,0,,,NaN,,,,,,false,,,,1625820.3999999985,1625820.1999999955,,1625820.099999994,,1625823.347,8,400,,,
sequence,flow.Sequence,4_123,2023-09-15T21:07:40.768Z,,0,,,4683.31499999552,completion,,,,,false,,,,1625820.799999997,1625820.1999999955,1621121.942,1621129.099999994,1621136.885,1625823.347,8,400,,,
trial,html.Screen,4_124_0,2023-09-15T21:07:48.946Z,,0,3,,8175.552999998443,response,ISIC_0071458.JPG,6,ISIC_9312164.JPG,ISIC_0071458.JPG,false,1,keypress(m),500,1633999.1999999955,1633998.8999999985,1625816.232,1625820.8999999985,1625823.347,1634003.704,8,400,25,,ISIC_9312164.JPG
break,html.Screen,4_124_1,2023-09-15T21:07:48.947Z,,0,,,NaN,,,,,,false,,,,1634000.299999997,1634000,,1633999.3999999985,,1634003.704,8,400,,,
break_continue,html.Screen,4_124_2,2023-09-15T21:07:48.948Z,,0,,,NaN,,,,,,false,,,,1634000.8999999985,1634000.6999999955,,1634000.3999999985,,1634003.704,8,400,,,
sequence,flow.Sequence,4_124,2023-09-15T21:07:48.948Z,,0,,,8177.352999995463,completion,,,,,false,,,,1634001.1999999955,1634000.6999999955,1625816.232,1625820.799999997,1625823.347,1634003.704,8,400,,,
trial,html.Screen,4_125_0,2023-09-15T21:07:53.510Z,,0,3,,4558.995999995619,response,ISIC_6155782.JPG,5,ISIC_0000087.JPG,ISIC_6155782.JPG,false,1,keypress(m),500,1638563.099999994,1638562.6999999955,1633996.645,1634001.1999999955,1634003.704,1638566.1,8,400,26,,ISIC_0000087.JPG
break,html.Screen,4_125_1,2023-09-15T21:07:53.511Z,,0,,,NaN,,,,,,false,,,,1638564.099999994,1638563.8999999985,,1638563.1999999955,,1638566.1,8,400,,,
break_continue,html.Screen,4_125_2,2023-09-15T21:07:53.512Z,,0,,,NaN,,,,,,false,,,,1638564.6999999955,1638564.5,,1638564.299999997,,1638566.1,8,400,,,
sequence,flow.Sequence,4_125,2023-09-15T21:07:53.512Z,,0,,,4560.796000000089,completion,,,,,false,,,,1638564.8999999985,1638564.5,1633996.645,1634001.1999999955,1634003.704,1638566.1,8,400,,,
