sender,sender_type,sender_id,timestamp,meta,,blockNo,condition,duration,ended_on,img_left,img_reveal,img_right,loser,practice,response,response_action,selection_duration,time_commit,time_end,time_render,time_run,time_show,time_switch,total_blocks,total_trials,trialNo,url,winner
informed_consent,html.Screen,0,2023-11-02T21:45:43.398Z,"{""labjs_version"":""20.2.4"",""labjs_build"":{""flavor"":""production"",""commit"":""f5b4a49f956347addd546a832a3327688c2c0fef""},""location"":""https://run.pavlovia.org/MurrayBennett/melanoma-2afc/?participant=67418&platform=sona"",""userAgent"":""Mozilla/5.0 (Windows NT 10.0; Win64; x64) AppleWebKit/537.36 (KHTML, like Gecko) Chrome/118.0.0.0 Safari/537.36 Edg/118.0.2088.61"",""platform"":""Win32"",""language"":""en-US"",""locale"":""en-US"",""timeZone"":""America/Chicago"",""timezoneOffset"":300,""screen_width"":1536,""screen_height"":864,""scroll_width"":1488,""scroll_height"":702,""window_innerWidth"":1488,""window_innerHeight"":750,""devicePixelRatio"":1.25}",,,,18166.801999952317,response,,,,,,consent,click button,,23112.39999985695,23109.299999952316,4093.326,4917.799999952316,4942.498,23141.915,,,,"{""participant"":""67418"",""platform"":""sona""}",
Welcome,html.Screen,1,2023-11-02T21:46:07.325Z,,,,colourful,23895.484999856948,response,,,,,,continue,click button,,47039.299999952316,47037.39999985695,23108.78,23112.89999985695,23141.915,47052.799,,,,,
trial,html.Screen,2_0_0,2023-11-02T21:46:15.331Z,,0,0,,7992.3009999046335,response,ISIC_0063388.JPG,,ISIC_0025593.JPG,ISIC_0063388.JPG,true,1,keypress(m),500,55045.59999990463,55045.09999990463,47036.225,47040.200000047684,47052.799,55062.048,1,6,1,,ISIC_0025593.JPG
sequence,flow.Sequence,2_0,2023-11-02T21:46:15.332Z,,0,,,7992.3009999046335,completion,,,,,true,,,,55046.299999952316,55045.09999990463,47036.225,47040.200000047684,47052.799,55062.048,1,6,,,
trial,html.Screen,2_1_0,2023-11-02T21:46:26.841Z,,0,0,,11538.792999999998,timeout,ISIC_1309015.JPG,,ISIC_0028178.JPG,,true,,,500,66554.89999985695,66554.5,55045.534,55046.59999990463,55062.048,66600.841,1,6,2,,
sequence,flow.Sequence,2_1,2023-11-02T21:46:26.841Z,,0,,,11492.451999999997,completion,,,,,true,,,,66555.09999990463,66554.5,55045.534,55046.5,55062.048,66600.841,1,6,,,
trial,html.Screen,2_2_0,2023-11-02T21:46:33.339Z,,0,0,,6451.659,response,ISIC_3314853.JPG,,ISIC_0031128.JPG,ISIC_0031128.JPG,true,0,keypress(z),500,73053.20000004768,73052.5,66567.557,66555.29999995232,66600.841,73061.454,1,6,3,,ISIC_3314853.JPG
sequence,flow.Sequence,2_2,2023-11-02T21:46:33.340Z,,0,,,6451.659,completion,,,,,true,,,,73053.79999995232,73052.5,66567.557,66555.20000004768,66600.841,73061.454,1,6,,,
trial,html.Screen,2_3_0,2023-11-02T21:46:38.495Z,,0,0,,5147.345999952318,response,ISIC_0031612.JPG,,ISIC_8980141.JPG,ISIC_8980141.JPG,true,0,keypress(z),500,78209.20000004768,78208.79999995232,73045.207,73054.29999995232,73061.454,78223.285,1,6,4,,ISIC_0031612.JPG
sequence,flow.Sequence,2_3,2023-11-02T21:46:38.496Z,,0,,,5147.345999952318,completion,,,,,true,,,,78209.70000004768,78208.79999995232,73045.207,73054.20000004768,73061.454,78223.285,1,6,,,
trial,html.Screen,2_4_0,2023-11-02T21:46:43.394Z,,0,0,,4884.7149999999965,response,ISIC_9721604.JPG,,ISIC_1197737.JPG,ISIC_9721604.JPG,true,1,keypress(m),500,83108.5,83108,78206.952,78209.89999985695,78223.285,83118.746,1,6,5,,ISIC_1197737.JPG
sequence,flow.Sequence,2_4,2023-11-02T21:46:43.395Z,,0,,,4884.7149999999965,completion,,,,,true,,,,83108.89999985695,83108,78206.952,78209.79999995232,78223.285,83118.746,1,6,,,
trial,html.Screen,2_5_0,2023-11-02T21:46:49.654Z,,0,0,,6249.4540000476845,response,ISIC_0025346.JPG,,ISIC_0010681.JPG,ISIC_0010681.JPG,true,0,keypress(z),500,89368.5,89368.20000004768,83102.39,83109.09999990463,83118.746,89379.395,1,6,6,,ISIC_0025346.JPG
sequence,flow.Sequence,2_5,2023-11-02T21:46:49.655Z,,0,,,6249.4540000476845,completion,,,,,true,,,,89368.79999995232,89368.20000004768,83102.39,83109,83118.746,89379.395,1,6,,,
loop,flow.Loop,2,2023-11-02T21:46:49.655Z,,,,,42315.401000047685,completion,,,,,true,,,,89369,89368.20000004768,47036.225,47039.799999952316,47052.799,89379.395,1,6,,,
exp_instructions,html.Screen,3,2023-11-02T21:48:02.415Z,,,,,72747.90499995231,response,,,,,,continue,keypress(Space),,162129.5,162127.29999995232,89363.248,89369.09999990463,89379.395,162145.158,,,,,
trial,html.Screen,4_0_0,2023-11-02T21:48:06.629Z,,0,1,,4197.542000047688,response,ISIC_4679971.JPG,6,ISIC_7418723.JPG,ISIC_4679971.JPG,false,1,keypress(m),500,166343,166342.70000004768,162126.426,162130.20000004768,162145.158,166356.609,8,400,1,,ISIC_7418723.JPG
break,html.Screen,4_0_1,2023-11-02T21:48:06.630Z,,0,,,NaN,,,,,,false,,,,166344.20000004768,166343.79999995232,,166343.09999990463,,166356.609,8,400,,,
break_continue,html.Screen,4_0_2,2023-11-02T21:48:06.631Z,,0,,,NaN,,,,,,false,,,,166344.59999990463,166344.5,,166344.29999995232,,166356.609,8,400,,,
sequence,flow.Sequence,4_0,2023-11-02T21:48:06.631Z,,0,,,4199.342000000004,completion,,,,,false,,,,166344.79999995232,166344.5,162126.426,162130.20000004768,162145.158,166356.609,8,400,,,
trial,html.Screen,4_1_0,2023-11-02T21:48:13.481Z,,0,1,,6838.290999856952,response,ISIC_0012840.JPG,18,ISIC_1507583.JPG,ISIC_1507583.JPG,false,0,keypress(z),500,173195.20000004768,173194.89999985695,166340.45,166344.89999985695,166356.609,173200.175,8,400,2,,ISIC_0012840.JPG
break,html.Screen,4_1_1,2023-11-02T21:48:13.482Z,,0,,,NaN,,,,,,false,,,,173196.20000004768,173195.79999995232,,173195.39999985695,,173200.175,8,400,,,
break_continue,html.Screen,4_1_2,2023-11-02T21:48:13.482Z,,0,,,NaN,,,,,,false,,,,173196.5,173196.39999985695,,173196.29999995232,,173200.175,8,400,,,
sequence,flow.Sequence,4_1,2023-11-02T21:48:13.483Z,,0,,,6839.790999856952,completion,,,,,false,,,,173196.70000004768,173196.39999985695,166340.45,166344.89999985695,166356.609,173200.175,8,400,,,
trial,html.Screen,4_2_0,2023-11-02T21:48:20.046Z,,0,1,,6559.025000047695,response,ISIC_6809191.JPG,5,ISIC_0033318.JPG,ISIC_6809191.JPG,false,1,keypress(m),500,179759.70000004768,179759.20000004768,173184.091,173196.79999995232,173200.175,179777.316,8,400,3,,ISIC_0033318.JPG
break,html.Screen,4_2_1,2023-11-02T21:48:20.047Z,,0,,,NaN,,,,,,false,,,,179760.79999995232,179760.29999995232,,179759.89999985695,,179777.316,8,400,,,
break_continue,html.Screen,4_2_2,2023-11-02T21:48:20.047Z,,0,,,NaN,,,,,,false,,,,179761.39999985695,179761.20000004768,,179761,,179777.316,8,400,,,
sequence,flow.Sequence,4_2,2023-11-02T21:48:20.048Z,,0,,,6561.025000047695,completion,,,,,false,,,,179761.59999990463,179761.20000004768,173184.091,173196.79999995232,173200.175,179777.316,8,400,,,
trial,html.Screen,4_3_0,2023-11-02T21:48:25.187Z,,0,1,,5123.184000000008,response,ISIC_2100640.JPG,5,ISIC_5641619.JPG,ISIC_2100640.JPG,false,1,keypress(m),500,184900.79999995232,184900.5,179744.532,179761.79999995232,179777.316,184905.998,8,400,4,,ISIC_5641619.JPG
break,html.Screen,4_3_1,2023-11-02T21:48:25.187Z,,0,,,NaN,,,,,,false,,,,184901.59999990463,184901.39999985695,,184901.09999990463,,184905.998,8,400,,,
break_continue,html.Screen,4_3_2,2023-11-02T21:48:25.188Z,,0,,,NaN,,,,,,false,,,,184902.09999990463,184901.89999985695,,184901.79999995232,,184905.998,8,400,,,
sequence,flow.Sequence,4_3,2023-11-02T21:48:25.188Z,,0,,,5124.583999856957,completion,,,,,false,,,,184902.29999995232,184901.89999985695,179744.532,179761.79999995232,179777.316,184905.998,8,400,,,
trial,html.Screen,4_4_0,2023-11-02T21:48:32.519Z,,0,1,,7326.60199990464,response,ISIC_0010208.JPG,6,ISIC_8563961.JPG,ISIC_8563961.JPG,false,0,keypress(z),500,192232.89999985695,192232.59999990463,184889.957,184902.39999985695,184905.998,192249.021,8,400,5,,ISIC_0010208.JPG
break,html.Screen,4_4_1,2023-11-02T21:48:32.520Z,,0,,,NaN,,,,,,false,,,,192233.70000004768,192233.5,,192233.20000004768,,192249.021,8,400,,,
break_continue,html.Screen,4_4_2,2023-11-02T21:48:32.520Z,,0,,,NaN,,,,,,false,,,,192234.29999995232,192234.09999990463,,192233.89999985695,,192249.021,8,400,,,
sequence,flow.Sequence,4_4,2023-11-02T21:48:32.520Z,,0,,,7328.10199990464,completion,,,,,false,,,,192234.39999985695,192234.09999990463,184889.957,184902.29999995232,184905.998,192249.021,8,400,,,
trial,html.Screen,4_5_0,2023-11-02T21:48:38.570Z,,0,1,,6034.778999952308,response,ISIC_7680333.JPG,5,ISIC_0591226.JPG,ISIC_0591226.JPG,false,0,keypress(z),500,198284.09999990463,198283.79999995232,192232.641,192234.5,192249.021,198293.343,8,400,6,,ISIC_7680333.JPG
break,html.Screen,4_5_1,2023-11-02T21:48:38.571Z,,0,,,NaN,,,,,,false,,,,198285,198284.79999995232,,198284.39999985695,,198293.343,8,400,,,
break_continue,html.Screen,4_5_2,2023-11-02T21:48:38.571Z,,0,,,NaN,,,,,,false,,,,198285.5,198285.39999985695,,198285.20000004768,,198293.343,8,400,,,
sequence,flow.Sequence,4_5,2023-11-02T21:48:38.572Z,,0,,,6036.378999856941,completion,,,,,false,,,,198285.79999995232,198285.39999985695,192232.641,192234.5,192249.021,198293.343,8,400,,,
trial,html.Screen,4_6_0,2023-11-02T21:48:44.863Z,,0,1,,6283.256999904639,response,ISIC_0067077.JPG,4,ISIC_7296201.JPG,ISIC_0067077.JPG,false,1,keypress(m),500,204576.79999995232,204576.59999990463,198276.943,198285.89999985695,198293.343,204587.191,8,400,7,,ISIC_7296201.JPG
break,html.Screen,4_6_1,2023-11-02T21:48:44.864Z,,0,,,NaN,,,,,,false,,,,204577.79999995232,204577.39999985695,,204577,,204587.191,8,400,,,
break_continue,html.Screen,4_6_2,2023-11-02T21:48:44.864Z,,0,,,NaN,,,,,,false,,,,204578.09999990463,204578,,204577.89999985695,,204587.191,8,400,,,
sequence,flow.Sequence,4_6,2023-11-02T21:48:44.864Z,,0,,,6284.6570000000065,completion,,,,,false,,,,204578.29999995232,204578,198276.943,198285.79999995232,198293.343,204587.191,8,400,,,
trial,html.Screen,4_7_0,2023-11-02T21:48:49.649Z,,0,1,,4775.809000000008,response,ISIC_8252406.JPG,5,ISIC_1452314.JPG,ISIC_1452314.JPG,false,0,keypress(z),500,209363.39999985695,209363,204571.326,204578.39999985695,204587.191,209366.205,8,400,8,,ISIC_8252406.JPG
break,html.Screen,4_7_1,2023-11-02T21:48:49.651Z,,0,,,NaN,,,,,,false,,,,209364.70000004768,209364.29999995232,,209363.70000004768,,209366.205,8,400,,,
break_continue,html.Screen,4_7_2,2023-11-02T21:48:49.651Z,,0,,,NaN,,,,,,false,,,,209365.5,209365.20000004768,,209364.89999985695,,209366.205,8,400,,,
sequence,flow.Sequence,4_7,2023-11-02T21:48:49.652Z,,0,,,4778.009000047692,completion,,,,,false,,,,209365.79999995232,209365.20000004768,204571.326,204578.39999985695,204587.191,209366.205,8,400,,,
trial,html.Screen,4_8_0,2023-11-02T21:48:54.712Z,,0,1,,5059.394999904645,response,ISIC_1264576.JPG,16,ISIC_0057155.JPG,ISIC_1264576.JPG,false,1,keypress(m),500,214425.79999995232,214425.59999990463,209349.81,209366,209366.205,214427.931,8,400,9,,ISIC_0057155.JPG
break,html.Screen,4_8_1,2023-11-02T21:48:54.713Z,,0,,,NaN,,,,,,false,,,,214426.59999990463,214426.5,,214426.09999990463,,214427.931,8,400,,,
break_continue,html.Screen,4_8_2,2023-11-02T21:48:54.713Z,,0,,,NaN,,,,,,false,,,,214427,214426.89999985695,,214426.79999995232,,214427.931,8,400,,,
sequence,flow.Sequence,4_8,2023-11-02T21:48:54.713Z,,0,,,5060.694999856962,completion,,,,,false,,,,214427.20000004768,214426.89999985695,209349.81,209366,209366.205,214427.931,8,400,,,
trial,html.Screen,4_9_0,2023-11-02T21:49:01.261Z,,0,1,,6546.668999904621,response,ISIC_0011471.JPG,6,ISIC_0012382.JPG,ISIC_0012382.JPG,false,0,keypress(z),500,220974.79999995232,220974.59999990463,214411.698,214427.20000004768,214427.931,220988.406,8,400,10,,ISIC_0011471.JPG
break,html.Screen,4_9_1,2023-11-02T21:49:01.262Z,,0,,,NaN,,,,,,false,,,,220975.59999990463,220975.39999985695,,220975,,220988.406,8,400,,,
break_continue,html.Screen,4_9_2,2023-11-02T21:49:01.262Z,,0,,,NaN,,,,,,false,,,,220976,220976,,220975.79999995232,,220988.406,8,400,,,
sequence,flow.Sequence,4_9,2023-11-02T21:49:01.262Z,,0,,,6548.068999999989,completion,,,,,false,,,,220976.20000004768,220976,214411.698,214427.20000004768,214427.931,220988.406,8,400,,,
trial,html.Screen,4_10_0,2023-11-02T21:49:10.833Z,,0,1,,9558.49399985696,response,ISIC_0011350.JPG,5,ISIC_0066382.JPG,ISIC_0011350.JPG,false,1,keypress(m),500,230547.29999995232,230546.89999985695,220972.16,220976.5,220988.406,230562.865,8,400,11,,ISIC_0066382.JPG
break,html.Screen,4_10_1,2023-11-02T21:49:10.835Z,,0,,,NaN,,,,,,false,,,,230548.79999995232,230548.39999985695,,230547.70000004768,,230562.865,8,400,,,
break_continue,html.Screen,4_10_2,2023-11-02T21:49:10.836Z,,0,,,NaN,,,,,,false,,,,230549.79999995232,230549.39999985695,,230549.09999990463,,230562.865,8,400,,,
sequence,flow.Sequence,4_10,2023-11-02T21:49:10.836Z,,0,,,9560.99399985696,completion,,,,,false,,,,230550,230549.39999985695,220972.16,220976.39999985695,220988.406,230562.865,8,400,,,
trial,html.Screen,4_11_0,2023-11-02T21:49:20.070Z,,0,1,,9220.734999904642,response,ISIC_7300631.JPG,5,ISIC_0011848.JPG,ISIC_7300631.JPG,false,1,keypress(m),500,239783.79999995232,239783.59999990463,230546.479,230550.20000004768,230562.865,239787.278,8,400,12,,ISIC_0011848.JPG
break,html.Screen,4_11_1,2023-11-02T21:49:20.071Z,,0,,,NaN,,,,,,false,,,,239784.70000004768,239784.39999985695,,239784,,239787.278,8,400,,,
break_continue,html.Screen,4_11_2,2023-11-02T21:49:20.071Z,,0,,,NaN,,,,,,false,,,,239785.09999990463,239785,,239784.79999995232,,239787.278,8,400,,,
sequence,flow.Sequence,4_11,2023-11-02T21:49:20.071Z,,0,,,9222.13500000001,completion,,,,,false,,,,239785.29999995232,239785,230546.479,230550.09999990463,230562.865,239787.278,8,400,,,
trial,html.Screen,4_12_0,2023-11-02T21:49:27.929Z,,0,1,,7855.922000047693,response,ISIC_5744196.JPG,6,ISIC_6860222.JPG,ISIC_6860222.JPG,false,0,keypress(z),500,247643.5,247643.20000004768,239771.03,239785.5,239787.278,247646.552,8,400,13,,ISIC_5744196.JPG
break,html.Screen,4_12_1,2023-11-02T21:49:27.930Z,,0,,,NaN,,,,,,false,,,,247644.39999985695,247644.20000004768,,247643.79999995232,,247646.552,8,400,,,
break_continue,html.Screen,4_12_2,2023-11-02T21:49:27.933Z,,0,,,NaN,,,,,,false,,,,247647.29999995232,247647,,247645.5,,247646.552,8,400,,,
sequence,flow.Sequence,4_12,2023-11-02T21:49:27.934Z,,0,,,7859.722000000009,completion,,,,,false,,,,247647.59999990463,247647,239771.03,239785.5,239787.278,247646.552,8,400,,,
trial,html.Screen,4_13_0,2023-11-02T21:49:37.921Z,,0,1,,9988.148000047688,response,ISIC_6828892.JPG,5,ISIC_0031018.JPG,ISIC_6828892.JPG,false,1,keypress(m),500,257635,257634.70000004768,247630.316,247647.89999985695,247646.552,257653.831,8,400,14,,ISIC_0031018.JPG
break,html.Screen,4_13_1,2023-11-02T21:49:37.922Z,,0,,,NaN,,,,,,false,,,,257635.79999995232,257635.59999990463,,257635.20000004768,,257653.831,8,400,,,
break_continue,html.Screen,4_13_2,2023-11-02T21:49:37.922Z,,0,,,NaN,,,,,,false,,,,257636.09999990463,257635.89999985695,,257635.79999995232,,257653.831,8,400,,,
sequence,flow.Sequence,4_13,2023-11-02T21:49:37.922Z,,0,,,9989.347999856953,completion,,,,,false,,,,257636.20000004768,257635.89999985695,247630.316,247647.79999995232,247646.552,257653.831,8,400,,,
trial,html.Screen,4_14_0,2023-11-02T21:49:43.589Z,,0,1,,5648.568999856943,response,ISIC_0032742.JPG,5,ISIC_5934239.JPG,ISIC_0032742.JPG,false,1,keypress(m),500,263302.59999990463,263302.39999985695,257637.107,257636.29999995232,257653.831,263315.408,8,400,15,,ISIC_5934239.JPG
break,html.Screen,4_14_1,2023-11-02T21:49:43.590Z,,0,,,NaN,,,,,,false,,,,263303.7000000477,263303.2999999523,,263302.89999985695,,263315.408,8,400,,,
break_continue,html.Screen,4_14_2,2023-11-02T21:49:43.590Z,,0,,,NaN,,,,,,false,,,,263304.2000000477,263304,,263303.89999985695,,263315.408,8,400,,,
sequence,flow.Sequence,4_14,2023-11-02T21:49:43.590Z,,0,,,5650.168999999994,completion,,,,,false,,,,263304.2999999523,263304,257637.107,257636.20000004768,257653.831,263315.408,8,400,,,
trial,html.Screen,4_15_0,2023-11-02T21:49:48.203Z,,0,1,,4601.092000000004,response,ISIC_0014395.JPG,5,ISIC_0023811.JPG,ISIC_0023811.JPG,false,0,keypress(z),500,267916.89999985695,267916.5,263298.908,263304.5,263315.408,267927.448,8,400,16,,ISIC_0014395.JPG
break,html.Screen,4_15_1,2023-11-02T21:49:48.204Z,,0,,,NaN,,,,,,false,,,,267917.89999985695,267917.7000000477,,267917.2000000477,,267927.448,8,400,,,
break_continue,html.Screen,4_15_2,2023-11-02T21:49:48.204Z,,0,,,NaN,,,,,,false,,,,267918.39999985695,267918.2000000477,,267918.09999990463,,267927.448,8,400,,,
sequence,flow.Sequence,4_15,2023-11-02T21:49:48.205Z,,0,,,4602.792000047688,completion,,,,,false,,,,267918.7000000477,267918.2000000477,263298.908,263304.39999985695,263315.408,267927.448,8,400,,,
trial,html.Screen,4_16_0,2023-11-02T21:49:52.432Z,,0,1,,4217.951999856974,response,ISIC_0063289.JPG,25,ISIC_0026558.JPG,ISIC_0026558.JPG,false,0,keypress(z),500,272145.59999990463,272145.39999985695,267911.132,267918.89999985695,267927.448,272156.735,8,400,17,,ISIC_0063289.JPG
break,html.Screen,4_16_1,2023-11-02T21:49:52.433Z,,0,,,NaN,,,,,,false,,,,272147,272146.2999999523,,272145.89999985695,,272156.735,8,400,,,
break_continue,html.Screen,4_16_2,2023-11-02T21:49:52.433Z,,0,,,NaN,,,,,,false,,,,272147.5,272147.39999985695,,272147.2000000477,,272156.735,8,400,,,
sequence,flow.Sequence,4_16,2023-11-02T21:49:52.434Z,,0,,,4219.951999856974,completion,,,,,false,,,,272147.7000000477,272147.39999985695,267911.132,267918.89999985695,267927.448,272156.735,8,400,,,
trial,html.Screen,4_17_0,2023-11-02T21:49:59.635Z,,0,1,,7192.164999856963,response,ISIC_0072893.JPG,5,ISIC_0024280.JPG,ISIC_0072893.JPG,false,1,keypress(m),500,279349.2000000477,279348.89999985695,272140.558,272147.7999999523,272156.735,279366.675,8,400,18,,ISIC_0024280.JPG
break,html.Screen,4_17_1,2023-11-02T21:49:59.637Z,,0,,,NaN,,,,,,false,,,,279350.7000000477,279350.2000000477,,279349.59999990463,,279366.675,8,400,,,
break_continue,html.Screen,4_17_2,2023-11-02T21:49:59.637Z,,0,,,NaN,,,,,,false,,,,279351.39999985695,279351.2000000477,,279350.89999985695,,279366.675,8,400,,,
sequence,flow.Sequence,4_17,2023-11-02T21:49:59.637Z,,0,,,7194.465000047698,completion,,,,,false,,,,279351.5,279351.2000000477,272140.558,272147.7999999523,272156.735,279366.675,8,400,,,
trial,html.Screen,4_18_0,2023-11-02T21:50:06.281Z,,0,1,,6628.525000047695,response,ISIC_6995731.JPG,4,ISIC_0014936.JPG,ISIC_6995731.JPG,false,1,keypress(m),500,285995.39999985695,285995.2000000477,279350.36,279351.7000000477,279366.675,286010.306,8,400,19,,ISIC_0014936.JPG
break,html.Screen,4_18_1,2023-11-02T21:50:06.282Z,,0,,,NaN,,,,,,false,,,,285996.2000000477,285996,,285995.7000000477,,286010.306,8,400,,,
break_continue,html.Screen,4_18_2,2023-11-02T21:50:06.283Z,,0,,,NaN,,,,,,false,,,,285996.7000000477,285996.5,,285996.39999985695,,286010.306,8,400,,,
sequence,flow.Sequence,4_18,2023-11-02T21:50:06.283Z,,0,,,6629.825000000012,completion,,,,,false,,,,285996.89999985695,285996.5,279350.36,279351.7000000477,279366.675,286010.306,8,400,,,
trial,html.Screen,4_19_0,2023-11-02T21:50:11.261Z,,0,1,,4964.493999952334,response,ISIC_9141817.JPG,6,ISIC_5287679.JPG,ISIC_5287679.JPG,false,0,keypress(z),500,290975,290974.7999999523,285994.082,285996.89999985695,286010.306,290989.001,8,400,20,,ISIC_9141817.JPG
break,html.Screen,4_19_1,2023-11-02T21:50:11.262Z,,0,,,NaN,,,,,,false,,,,290975.7999999523,290975.59999990463,,290975.2000000477,,290989.001,8,400,,,
break_continue,html.Screen,4_19_2,2023-11-02T21:50:11.262Z,,0,,,NaN,,,,,,false,,,,290976.2000000477,290976.09999990463,,290975.89999985695,,290989.001,8,400,,,
sequence,flow.Sequence,4_19,2023-11-02T21:50:11.262Z,,0,,,4965.79399990465,completion,,,,,false,,,,290976.2999999523,290976.09999990463,285994.082,285996.89999985695,286010.306,290989.001,8,400,,,
trial,html.Screen,4_20_0,2023-11-02T21:50:15.952Z,,0,1,,4676.999000000011,response,ISIC_1504257.JPG,5,ISIC_0060700.JPG,ISIC_1504257.JPG,false,1,keypress(m),500,295666.2999999523,295666,290972.881,290976.59999990463,290989.001,295685.86,8,400,21,,ISIC_0060700.JPG
break,html.Screen,4_20_1,2023-11-02T21:50:15.953Z,,0,,,NaN,,,,,,false,,,,295667,295666.7999999523,,295666.39999985695,,295685.86,8,400,,,
break_continue,html.Screen,4_20_2,2023-11-02T21:50:15.953Z,,0,,,NaN,,,,,,false,,,,295667.39999985695,295667.39999985695,,295667.2999999523,,295685.86,8,400,,,
sequence,flow.Sequence,4_20,2023-11-02T21:50:15.954Z,,0,,,4678.39899985696,completion,,,,,false,,,,295667.7000000477,295667.39999985695,290972.881,290976.5,290989.001,295685.86,8,400,,,
trial,html.Screen,4_21_0,2023-11-02T21:50:19.525Z,,0,1,,3552.539999856963,response,ISIC_9933790.JPG,26,ISIC_0064073.JPG,ISIC_9933790.JPG,false,1,keypress(m),500,299238.7999999523,299238.39999985695,295651.674,295667.7999999523,295685.86,299248.19,8,400,22,,ISIC_0064073.JPG
break,html.Screen,4_21_1,2023-11-02T21:50:19.526Z,,0,,,NaN,,,,,,false,,,,299239.7999999523,299239.59999990463,,299239,,299248.19,8,400,,,
break_continue,html.Screen,4_21_2,2023-11-02T21:50:19.526Z,,0,,,NaN,,,,,,false,,,,299240.2000000477,299240.09999990463,,299240,,299248.19,8,400,,,
sequence,flow.Sequence,4_21,2023-11-02T21:50:19.526Z,,0,,,3554.2399999046465,completion,,,,,false,,,,299240.39999985695,299240.09999990463,295651.674,295667.7999999523,295685.86,299248.19,8,400,,,
trial,html.Screen,4_22_0,2023-11-02T21:50:23.065Z,,0,1,,3530.609999952314,response,ISIC_1777398.JPG,6,ISIC_2739547.JPG,ISIC_1777398.JPG,false,1,keypress(m),500,302779.09999990463,302778.7999999523,299231.629,299240.59999990463,299248.19,302794.518,8,400,23,,ISIC_2739547.JPG
break,html.Screen,4_22_1,2023-11-02T21:50:23.066Z,,0,,,NaN,,,,,,false,,,,302779.89999985695,302779.7000000477,,302779.2999999523,,302794.518,8,400,,,
break_continue,html.Screen,4_22_2,2023-11-02T21:50:23.067Z,,0,,,NaN,,,,,,false,,,,302781.39999985695,302781.2000000477,,302780.09999990463,,302794.518,8,400,,,
sequence,flow.Sequence,4_22,2023-11-02T21:50:23.068Z,,0,,,3533.0100000476814,completion,,,,,false,,,,302781.59999990463,302781.2000000477,299231.629,299240.59999990463,299248.19,302794.518,8,400,,,
trial,html.Screen,4_23_0,2023-11-02T21:50:29.743Z,,0,1,,6661.982000000018,response,ISIC_0000173.JPG,23,ISIC_7394897.JPG,ISIC_7394897.JPG,false,0,keypress(z),500,309456.7000000477,309456.5,302778.316,302781.7999999523,302794.518,309471.533,8,400,24,,ISIC_0000173.JPG
break,html.Screen,4_23_1,2023-11-02T21:50:29.743Z,,0,,,NaN,,,,,,false,,,,309457.5,309457.2999999523,,309456.89999985695,,309471.533,8,400,,,
break_continue,html.Screen,4_23_2,2023-11-02T21:50:29.744Z,,0,,,NaN,,,,,,false,,,,309458,309457.7999999523,,309457.7000000477,,309471.533,8,400,,,
sequence,flow.Sequence,4_23,2023-11-02T21:50:29.744Z,,0,,,6663.281999952334,completion,,,,,false,,,,309458.09999990463,309457.7999999523,302778.316,302781.7000000477,302794.518,309471.533,8,400,,,
trial,html.Screen,4_24_0,2023-11-02T21:50:35.378Z,,0,1,,5620.467000000004,response,ISIC_0024840.JPG,6,ISIC_6352730.JPG,ISIC_6352730.JPG,false,0,keypress(z),500,315092.2000000477,315092,309454.972,309458.39999985695,309471.533,315099.526,8,400,25,,ISIC_0024840.JPG
break,html.Screen,4_24_1,2023-11-02T21:50:35.379Z,,0,,,NaN,,,,,,false,,,,315093.2000000477,315092.7999999523,,315092.5,,315099.526,8,400,,,
break_continue,html.Screen,4_24_2,2023-11-02T21:50:35.379Z,,0,,,NaN,,,,,,false,,,,315093.5,315093.5,,315093.39999985695,,315099.526,8,400,,,
sequence,flow.Sequence,4_24,2023-11-02T21:50:35.380Z,,0,,,5621.967000000004,completion,,,,,false,,,,315093.7000000477,315093.5,309454.972,309458.2000000477,309471.533,315099.526,8,400,,,
trial,html.Screen,4_25_0,2023-11-02T21:50:38.981Z,,0,1,,3595.2739999523037,response,ISIC_0025397.JPG,6,ISIC_9618489.JPG,ISIC_0025397.JPG,false,1,keypress(m),500,318695.09999990463,318694.7999999523,315083.362,315093.7999999523,315099.526,318713.631,8,400,26,,ISIC_9618489.JPG
break,html.Screen,4_25_1,2023-11-02T21:50:38.982Z,,0,,,NaN,,,,,,false,,,,318695.7999999523,318695.59999990463,,318695.2000000477,,318713.631,8,400,,,
break_continue,html.Screen,4_25_2,2023-11-02T21:50:38.982Z,,0,,,NaN,,,,,,false,,,,318696.5,318696.2999999523,,318696.09999990463,,318713.631,8,400,,,
sequence,flow.Sequence,4_25,2023-11-02T21:50:38.983Z,,0,,,3596.7739999523037,completion,,,,,false,,,,318696.7999999523,318696.2999999523,315083.362,315093.7999999523,315099.526,318713.631,8,400,,,
trial,html.Screen,4_26_0,2023-11-02T21:50:47.114Z,,0,1,,8114.268999856955,response,ISIC_2153401.JPG,7,ISIC_0027033.JPG,ISIC_2153401.JPG,false,1,keypress(m),500,326828.2999999523,326827.89999985695,318679.864,318697,318713.631,326838.434,8,400,27,,ISIC_0027033.JPG
break,html.Screen,4_26_1,2023-11-02T21:50:47.115Z,,0,,,NaN,,,,,,false,,,,326828.89999985695,326828.7000000477,,326828.39999985695,,326838.434,8,400,,,
break_continue,html.Screen,4_26_2,2023-11-02T21:50:47.115Z,,0,,,NaN,,,,,,false,,,,326829.2999999523,326829,,326829,,326838.434,8,400,,,
sequence,flow.Sequence,4_26,2023-11-02T21:50:47.115Z,,0,,,8115.369000000006,completion,,,,,false,,,,326829.5,326829,318679.864,318696.89999985695,318713.631,326838.434,8,400,,,
trial,html.Screen,4_27_0,2023-11-02T21:50:52.141Z,,0,1,,5016.565999999992,response,ISIC_5369000.JPG,5,ISIC_0031278.JPG,ISIC_0031278.JPG,false,0,keypress(z),500,331855.5,331855,326822.218,326829.59999990463,326838.434,331867.053,8,400,28,,ISIC_5369000.JPG
break,html.Screen,4_27_1,2023-11-02T21:50:52.143Z,,0,,,NaN,,,,,,false,,,,331857,331856.59999990463,,331855.7999999523,,331867.053,8,400,,,
break_continue,html.Screen,4_27_2,2023-11-02T21:50:52.144Z,,0,,,NaN,,,,,,false,,,,331857.7999999523,331857.5,,331857.2999999523,,331867.053,8,400,,,
sequence,flow.Sequence,4_27,2023-11-02T21:50:52.144Z,,0,,,5019.065999999992,completion,,,,,false,,,,331858,331857.5,326822.218,326829.59999990463,326838.434,331867.053,8,400,,,
trial,html.Screen,4_28_0,2023-11-02T21:50:56.900Z,,0,1,,4746.746999952302,response,ISIC_3560519.JPG,5,ISIC_5261146.JPG,ISIC_3560519.JPG,false,1,keypress(m),500,336614.09999990463,336613.7999999523,331850.811,331858.2000000477,331867.053,336629.271,8,400,29,,ISIC_5261146.JPG
break,html.Screen,4_28_1,2023-11-02T21:50:56.901Z,,0,,,NaN,,,,,,false,,,,336614.7000000477,336614.59999990463,,336614.2000000477,,336629.271,8,400,,,
break_continue,html.Screen,4_28_2,2023-11-02T21:50:56.901Z,,0,,,NaN,,,,,,false,,,,336615.2000000477,336615.09999990463,,336614.89999985695,,336629.271,8,400,,,
sequence,flow.Sequence,4_28,2023-11-02T21:50:56.901Z,,0,,,4748.046999904618,completion,,,,,false,,,,336615.2999999523,336615.09999990463,331850.811,331858.2000000477,331867.053,336629.271,8,400,,,
trial,html.Screen,4_29_0,2023-11-02T21:51:01.304Z,,0,1,,4388.429000047676,response,ISIC_0062639.JPG,29,ISIC_6963954.JPG,ISIC_0062639.JPG,false,1,keypress(m),500,341018,341017.7000000477,336612.957,336615.39999985695,336629.271,341025.046,8,400,30,,ISIC_6963954.JPG
break,html.Screen,4_29_1,2023-11-02T21:51:01.305Z,,0,,,NaN,,,,,,false,,,,341018.7000000477,341018.59999990463,,341018.2000000477,,341025.046,8,400,,,
break_continue,html.Screen,4_29_2,2023-11-02T21:51:01.305Z,,0,,,NaN,,,,,,false,,,,341019.2999999523,341019.09999990463,,341018.89999985695,,341025.046,8,400,,,
sequence,flow.Sequence,4_29,2023-11-02T21:51:01.305Z,,0,,,4389.828999904625,completion,,,,,false,,,,341019.39999985695,341019.09999990463,336612.957,336615.39999985695,336629.271,341025.046,8,400,,,
trial,html.Screen,4_30_0,2023-11-02T21:51:05.547Z,,0,1,,4235.654000047711,response,ISIC_0056817.JPG,5,ISIC_0031338.JPG,ISIC_0031338.JPG,false,0,keypress(z),500,345260.89999985695,345260.7000000477,341008.845,341019.59999990463,341025.046,345271.043,8,400,31,,ISIC_0056817.JPG
break,html.Screen,4_30_1,2023-11-02T21:51:05.548Z,,0,,,NaN,,,,,,false,,,,345261.7999999523,345261.5,,345261.2000000477,,345271.043,8,400,,,
break_continue,html.Screen,4_30_2,2023-11-02T21:51:05.548Z,,0,,,NaN,,,,,,false,,,,345262.2000000477,345262.09999990463,,345262,,345271.043,8,400,,,
sequence,flow.Sequence,4_30,2023-11-02T21:51:05.548Z,,0,,,4237.05399990466,completion,,,,,false,,,,345262.39999985695,345262.09999990463,341008.845,341019.5,341025.046,345271.043,8,400,,,
trial,html.Screen,4_31_0,2023-11-02T21:51:09.807Z,,0,1,,4250.256999952311,response,ISIC_0011482.JPG,21,ISIC_0011506.JPG,ISIC_0011482.JPG,false,1,keypress(m),500,349521.59999990463,349521.2999999523,345254.834,345262.59999990463,345271.043,349533.67,8,400,32,,ISIC_0011506.JPG
break,html.Screen,4_31_1,2023-11-02T21:51:09.808Z,,0,,,NaN,,,,,,false,,,,349522.39999985695,349522.2000000477,,349521.7999999523,,349533.67,8,400,,,
break_continue,html.Screen,4_31_2,2023-11-02T21:51:09.809Z,,0,,,NaN,,,,,,false,,,,349522.89999985695,349522.7000000477,,349522.7000000477,,349533.67,8,400,,,
sequence,flow.Sequence,4_31,2023-11-02T21:51:09.809Z,,0,,,4251.657000047679,completion,,,,,false,,,,349523.09999990463,349522.7000000477,345254.834,345262.5,345271.043,349533.67,8,400,,,
trial,html.Screen,4_32_0,2023-11-02T21:51:13.076Z,,0,1,,3256.729999856965,response,ISIC_9317929.JPG,5,ISIC_0024308.JPG,ISIC_0024308.JPG,false,0,keypress(z),500,352790.7000000477,352790.39999985695,349517.421,349523.09999990463,349533.67,352797.342,8,400,33,,ISIC_9317929.JPG
break,html.Screen,4_32_1,2023-11-02T21:51:13.078Z,,0,,,NaN,,,,,,false,,,,352791.59999990463,352791.2999999523,,352790.89999985695,,352797.342,8,400,,,
break_continue,html.Screen,4_32_2,2023-11-02T21:51:13.078Z,,0,,,NaN,,,,,,false,,,,352792.09999990463,352791.89999985695,,352791.7999999523,,352797.342,8,400,,,
sequence,flow.Sequence,4_32,2023-11-02T21:51:13.078Z,,0,,,3258.229999856965,completion,,,,,false,,,,352792.5,352791.89999985695,349517.421,349523.09999990463,349533.67,352797.342,8,400,,,
trial,html.Screen,4_33_0,2023-11-02T21:51:16.808Z,,0,1,,3724.457999952312,response,ISIC_0640770.JPG,22,ISIC_0000153.JPG,ISIC_0640770.JPG,false,1,keypress(m),500,356522.09999990463,356521.7999999523,352781.079,352792.7000000477,352797.342,356527.038,8,400,34,,ISIC_0000153.JPG
break,html.Screen,4_33_1,2023-11-02T21:51:16.809Z,,0,,,NaN,,,,,,false,,,,356523.2999999523,356523,,356522.5,,356527.038,8,400,,,
break_continue,html.Screen,4_33_2,2023-11-02T21:51:16.810Z,,0,,,NaN,,,,,,false,,,,356524.09999990463,356523.7999999523,,356523.59999990463,,356527.038,8,400,,,
sequence,flow.Sequence,4_33,2023-11-02T21:51:16.810Z,,0,,,3726.457999952312,completion,,,,,false,,,,356524.2999999523,356523.7999999523,352781.079,352792.59999990463,352797.342,356527.038,8,400,,,
trial,html.Screen,4_34_0,2023-11-02T21:51:19.901Z,,0,1,,3088.061999904632,response,ISIC_0013610.JPG,6,ISIC_0028306.JPG,ISIC_0013610.JPG,false,1,keypress(m),500,359615.5,359615.09999990463,356510.802,356524.7000000477,356527.038,359624.096,8,400,35,,ISIC_0028306.JPG
break,html.Screen,4_34_1,2023-11-02T21:51:19.902Z,,0,,,NaN,,,,,,false,,,,359616.59999990463,359616.2000000477,,359615.7000000477,,359624.096,8,400,,,
break_continue,html.Screen,4_34_2,2023-11-02T21:51:19.903Z,,0,,,NaN,,,,,,false,,,,359617,359616.7999999523,,359616.7000000477,,359624.096,8,400,,,
sequence,flow.Sequence,4_34,2023-11-02T21:51:19.903Z,,0,,,3089.761999952316,completion,,,,,false,,,,359617.09999990463,359616.7999999523,356510.802,356524.59999990463,356527.038,359624.096,8,400,,,
trial,html.Screen,4_35_0,2023-11-02T21:51:27.298Z,,0,1,,7387.303999856929,response,ISIC_4308751.JPG,6,ISIC_9788545.JPG,ISIC_9788545.JPG,false,0,keypress(z),500,367011.59999990463,367011.39999985695,359607.505,359617.2000000477,359624.096,367017.166,8,400,36,,ISIC_4308751.JPG
break,html.Screen,4_35_1,2023-11-02T21:51:27.298Z,,0,,,NaN,,,,,,false,,,,367012.2999999523,367012.09999990463,,367011.89999985695,,367017.166,8,400,,,
break_continue,html.Screen,4_35_2,2023-11-02T21:51:27.299Z,,0,,,NaN,,,,,,false,,,,367012.7000000477,367012.59999990463,,367012.39999985695,,367017.166,8,400,,,
sequence,flow.Sequence,4_35,2023-11-02T21:51:27.299Z,,0,,,7388.503999904613,completion,,,,,false,,,,367012.89999985695,367012.59999990463,359607.505,359617.2000000477,359624.096,367017.166,8,400,,,
trial,html.Screen,4_36_0,2023-11-02T21:51:31.880Z,,0,1,,4576.534000047657,response,ISIC_0053485.JPG,4,ISIC_6617618.JPG,ISIC_6617618.JPG,false,0,keypress(z),500,371593.89999985695,371593.7000000477,367000.872,367013,367017.166,371596.157,8,400,37,,ISIC_0053485.JPG
break,html.Screen,4_36_1,2023-11-02T21:51:31.881Z,,0,,,NaN,,,,,,false,,,,371594.7999999523,371594.7000000477,,371594.2000000477,,371596.157,8,400,,,
break_continue,html.Screen,4_36_2,2023-11-02T21:51:31.881Z,,0,,,NaN,,,,,,false,,,,371595.39999985695,371595.2000000477,,371595.09999990463,,371596.157,8,400,,,
sequence,flow.Sequence,4_36,2023-11-02T21:51:31.882Z,,0,,,4578.034000047657,completion,,,,,false,,,,371595.59999990463,371595.2000000477,367000.872,367013,367017.166,371596.157,8,400,,,
trial,html.Screen,4_37_0,2023-11-02T21:51:36.845Z,,0,1,,4962.64299995231,response,ISIC_0066564.JPG,28,ISIC_8885809.JPG,ISIC_8885809.JPG,false,0,keypress(z),500,376559.2000000477,376558.7999999523,371579.939,371595.7000000477,371596.157,376574.789,8,400,38,,ISIC_0066564.JPG
break,html.Screen,4_37_1,2023-11-02T21:51:36.846Z,,0,,,NaN,,,,,,false,,,,376560.2999999523,376560,,376559.2999999523,,376574.789,8,400,,,
break_continue,html.Screen,4_37_2,2023-11-02T21:51:36.847Z,,0,,,NaN,,,,,,false,,,,376560.7000000477,376560.59999990463,,376560.5,,376574.789,8,400,,,
sequence,flow.Sequence,4_37,2023-11-02T21:51:36.847Z,,0,,,4964.442999904626,completion,,,,,false,,,,376560.7999999523,376560.59999990463,371579.939,371595.7000000477,371596.157,376574.789,8,400,,,
trial,html.Screen,4_38_0,2023-11-02T21:51:41.969Z,,0,1,,5108.21100000001,response,ISIC_4770073.JPG,5,ISIC_8822331.JPG,ISIC_8822331.JPG,false,0,keypress(z),500,381683.2000000477,381683,376558.576,376561,376574.789,381686.598,8,400,39,,ISIC_4770073.JPG
break,html.Screen,4_38_1,2023-11-02T21:51:41.970Z,,0,,,NaN,,,,,,false,,,,381684,381683.89999985695,,381683.5,,381686.598,8,400,,,
break_continue,html.Screen,4_38_2,2023-11-02T21:51:41.970Z,,0,,,NaN,,,,,,false,,,,381684.5,381684.39999985695,,381684.2000000477,,381686.598,8,400,,,
sequence,flow.Sequence,4_38,2023-11-02T21:51:41.971Z,,0,,,5109.610999856959,completion,,,,,false,,,,381684.59999990463,381684.39999985695,376558.576,376561,376574.789,381686.598,8,400,,,
trial,html.Screen,4_39_0,2023-11-02T21:51:46.037Z,,0,1,,4064.6020000476856,response,ISIC_0026498.JPG,5,ISIC_8073555.JPG,ISIC_0026498.JPG,false,1,keypress(m),500,385751.5,385751.2000000477,381670.043,381684.7999999523,381686.598,385766.347,8,400,40,,ISIC_8073555.JPG
break,html.Screen,4_39_1,2023-11-02T21:51:46.038Z,,0,,,NaN,,,,,,false,,,,385752.5,385752.2999999523,,385751.89999985695,,385766.347,8,400,,,
break_continue,html.Screen,4_39_2,2023-11-02T21:51:46.039Z,,0,,,NaN,,,,,,false,,,,385753,385752.7999999523,,385752.7000000477,,385766.347,8,400,,,
sequence,flow.Sequence,4_39,2023-11-02T21:51:46.039Z,,0,,,4066.201999952318,completion,,,,,false,,,,385753.2000000477,385752.7999999523,381670.043,381684.7000000477,381686.598,385766.347,8,400,,,
trial,html.Screen,4_40_0,2023-11-02T21:51:49.946Z,,0,1,,3893.4529999523074,response,ISIC_7642591.JPG,29,ISIC_7590292.JPG,ISIC_7642591.JPG,false,1,keypress(m),500,389660.09999990463,389659.7999999523,385749.895,385753.39999985695,385766.347,389662.376,8,400,41,,ISIC_7590292.JPG
break,html.Screen,4_40_1,2023-11-02T21:51:49.947Z,,0,,,NaN,,,,,,false,,,,389661.2000000477,389660.89999985695,,389660.39999985695,,389662.376,8,400,,,
break_continue,html.Screen,4_40_2,2023-11-02T21:51:49.948Z,,0,,,NaN,,,,,,false,,,,389661.59999990463,389661.5,,389661.2999999523,,389662.376,8,400,,,
sequence,flow.Sequence,4_40,2023-11-02T21:51:49.948Z,,0,,,3895.152999999991,completion,,,,,false,,,,389661.89999985695,389661.5,385749.895,385753.39999985695,385766.347,389662.376,8,400,,,
trial,html.Screen,4_41_0,2023-11-02T21:51:57.727Z,,0,1,,7778.923999952327,response,ISIC_2998367.JPG,6,ISIC_0067550.JPG,ISIC_2998367.JPG,false,1,keypress(m),500,397441.5,397441.2999999523,389646.206,389662.2000000477,389662.376,397455.041,8,400,42,,ISIC_0067550.JPG
break,html.Screen,4_41_1,2023-11-02T21:51:57.728Z,,0,,,NaN,,,,,,false,,,,397442.2999999523,397442.2000000477,,397441.7999999523,,397455.041,8,400,,,
break_continue,html.Screen,4_41_2,2023-11-02T21:51:57.729Z,,0,,,NaN,,,,,,false,,,,397443.2999999523,397443.09999990463,,397442.7999999523,,397455.041,8,400,,,
sequence,flow.Sequence,4_41,2023-11-02T21:51:57.729Z,,0,,,7780.723999904643,completion,,,,,false,,,,397443.5,397443.09999990463,389646.206,389662.09999990463,389662.376,397455.041,8,400,,,
trial,html.Screen,4_42_0,2023-11-02T21:52:04.756Z,,0,1,,7014.358999856922,response,ISIC_3701563.JPG,5,ISIC_9260499.JPG,ISIC_3701563.JPG,false,1,keypress(m),500,404469.7999999523,404469.39999985695,397438.802,397443.59999990463,397455.041,404481.891,8,400,43,,ISIC_9260499.JPG
break,html.Screen,4_42_1,2023-11-02T21:52:04.757Z,,0,,,NaN,,,,,,false,,,,404470.89999985695,404470.7000000477,,404470,,404481.891,8,400,,,
break_continue,html.Screen,4_42_2,2023-11-02T21:52:04.757Z,,0,,,NaN,,,,,,false,,,,404471.5,404471.39999985695,,404471.09999990463,,404481.891,8,400,,,
sequence,flow.Sequence,4_42,2023-11-02T21:52:04.758Z,,0,,,7016.358999856922,completion,,,,,false,,,,404471.7000000477,404471.39999985695,397438.802,397443.5,397455.041,404481.891,8,400,,,
trial,html.Screen,4_43_0,2023-11-02T21:52:13.913Z,,0,1,,9144.70899990463,response,ISIC_0029761.JPG,5,ISIC_0063445.JPG,ISIC_0029761.JPG,false,1,keypress(m),500,413627,413626.59999990463,404465.559,404471.89999985695,404481.891,413639.809,8,400,44,,ISIC_0063445.JPG
break,html.Screen,4_43_1,2023-11-02T21:52:13.914Z,,0,,,NaN,,,,,,false,,,,413628,413627.59999990463,,413627.2000000477,,413639.809,8,400,,,
break_continue,html.Screen,4_43_2,2023-11-02T21:52:13.915Z,,0,,,NaN,,,,,,false,,,,413628.5,413628.39999985695,,413628.2999999523,,413639.809,8,400,,,
sequence,flow.Sequence,4_43,2023-11-02T21:52:13.915Z,,0,,,9146.508999856946,completion,,,,,false,,,,413628.7999999523,413628.39999985695,404465.559,404471.7999999523,404481.891,413639.809,8,400,,,
trial,html.Screen,4_44_0,2023-11-02T21:52:17.789Z,,0,1,,3862.790999904624,response,ISIC_1919324.JPG,5,ISIC_4898865.JPG,ISIC_4898865.JPG,false,0,keypress(z),500,417503,417502.59999990463,413623.565,413629.2000000477,413639.809,417519.422,8,400,45,,ISIC_1919324.JPG
break,html.Screen,4_44_1,2023-11-02T21:52:17.790Z,,0,,,NaN,,,,,,false,,,,417504.5,417504,,417503.39999985695,,417519.422,8,400,,,
break_continue,html.Screen,4_44_2,2023-11-02T21:52:17.792Z,,0,,,NaN,,,,,,false,,,,417505.5,417505.2999999523,,417505,,417519.422,8,400,,,
sequence,flow.Sequence,4_44,2023-11-02T21:52:17.792Z,,0,,,3865.490999952308,completion,,,,,false,,,,417505.7999999523,417505.2999999523,413623.565,413629,413639.809,417519.422,8,400,,,
trial,html.Screen,4_45_0,2023-11-02T21:52:25.332Z,,0,1,,7525.877999952296,response,ISIC_0010398.JPG,15,ISIC_0011704.JPG,ISIC_0010398.JPG,false,1,keypress(m),500,425046,425045.2999999523,417503.245,417506.39999985695,417519.422,425062.36,8,400,46,,ISIC_0011704.JPG
break,html.Screen,4_45_1,2023-11-02T21:52:25.334Z,,0,,,NaN,,,,,,false,,,,425047.59999990463,425047.09999990463,,425046.39999985695,,425062.36,8,400,,,
break_continue,html.Screen,4_45_2,2023-11-02T21:52:25.334Z,,0,,,NaN,,,,,,false,,,,425048.2999999523,425048,,425047.7999999523,,425062.36,8,400,,,
sequence,flow.Sequence,4_45,2023-11-02T21:52:25.335Z,,0,,,7528.5779999999795,completion,,,,,false,,,,425048.59999990463,425048,417503.245,417506.09999990463,417519.422,425062.36,8,400,,,
trial,html.Screen,4_46_0,2023-11-02T21:52:30.473Z,,0,1,,5124.840000047698,response,ISIC_0033530.JPG,6,ISIC_1974281.JPG,ISIC_1974281.JPG,false,0,keypress(z),500,430187.2999999523,430187.2000000477,425046.092,425048.7000000477,425062.36,430190.741,8,400,47,,ISIC_0033530.JPG
break,html.Screen,4_46_1,2023-11-02T21:52:30.474Z,,0,,,NaN,,,,,,false,,,,430187.7999999523,430187.7000000477,,430187.39999985695,,430190.741,8,400,,,
break_continue,html.Screen,4_46_2,2023-11-02T21:52:30.474Z,,0,,,NaN,,,,,,false,,,,430188,430187.89999985695,,430187.7999999523,,430190.741,8,400,,,
sequence,flow.Sequence,4_46,2023-11-02T21:52:30.474Z,,0,,,5125.539999856963,completion,,,,,false,,,,430188.09999990463,430187.89999985695,425046.092,425048.7000000477,425062.36,430190.741,8,400,,,
trial,html.Screen,4_47_0,2023-11-02T21:52:36.333Z,,0,1,,5856.25900000002,response,ISIC_0033419.JPG,4,ISIC_0072612.JPG,ISIC_0033419.JPG,false,1,keypress(m),500,436047.2999999523,436047,430174.478,430188.2999999523,430190.741,436051.918,8,400,48,,ISIC_0072612.JPG
break,html.Screen,4_47_1,2023-11-02T21:52:36.334Z,,0,,,NaN,,,,,,false,,,,436048.2999999523,436048.09999990463,,436047.7000000477,,436051.918,8,400,,,
break_continue,html.Screen,4_47_2,2023-11-02T21:52:36.335Z,,0,,,NaN,,,,,,false,,,,436048.7999999523,436048.59999990463,,436048.5,,436051.918,8,400,,,
sequence,flow.Sequence,4_47,2023-11-02T21:52:36.335Z,,0,,,5857.858999904653,completion,,,,,false,,,,436049,436048.59999990463,430174.478,430188.2999999523,430190.741,436051.918,8,400,,,
trial,html.Screen,4_48_0,2023-11-02T21:52:39.601Z,,0,1,,3262.7820000476786,response,ISIC_7109582.JPG,5,ISIC_0011517.JPG,ISIC_7109582.JPG,false,1,keypress(m),500,439315,439314.7000000477,436035.73,436049.09999990463,436051.918,439332.164,8,400,49,,ISIC_0011517.JPG
break,html.Screen,4_48_1,2023-11-02T21:52:39.602Z,,0,,,NaN,,,,,,false,,,,439316.2999999523,439315.7999999523,,439315.2999999523,,439332.164,8,400,,,
break_continue,html.Screen,4_48_2,2023-11-02T21:52:39.603Z,,0,,,NaN,,,,,,false,,,,439316.7999999523,439316.7000000477,,439316.5,,439332.164,8,400,,,
sequence,flow.Sequence,4_48,2023-11-02T21:52:39.603Z,,0,,,3264.7820000476786,completion,,,,,false,,,,439317,439316.7000000477,436035.73,436049,436051.918,439332.164,8,400,,,
trial,html.Screen,4_49_0,2023-11-02T21:52:43.702Z,,0,1,,4083.935999904643,response,ISIC_0032976.JPG,16,ISIC_0028181.JPG,ISIC_0032976.JPG,false,1,keypress(m),500,443416.5,443416.09999990463,439315.982,439317.09999990463,439332.164,443428.241,8,400,50,,ISIC_0028181.JPG
break,html.Screen,4_49_1,2023-11-02T21:52:53.706Z,,0,,,10007.244000000006,timeout,,,,,false,,,,453420.2000000477,453418.892,443411.999,443416.7999999523,443428.241,453435.485,8,400,,,
break_continue,html.Screen,4_49_2,2023-11-02T21:52:56.555Z,,0,,,2818.6149999046465,response,,,,,false,continue,keypress(Space),,456268.59999990463,456254.09999990463,453418.892,453420.39999985695,453435.485,456282.765,8,400,,,
sequence,flow.Sequence,4_49,2023-11-02T21:52:56.555Z,,0,,,16921.935999904643,completion,,,,,false,,,,456268.89999985695,456254.09999990463,439315.982,439317.09999990463,439332.164,456282.765,8,400,,,
trial,html.Screen,4_50_0,2023-11-02T21:53:02.687Z,,0,2,,6117.534999952302,response,ISIC_0057199.JPG,5,ISIC_4659355.JPG,ISIC_4659355.JPG,false,0,keypress(z),500,462400.5,462400.2999999523,456268.703,456269,456282.765,462410.309,8,400,1,,ISIC_0057199.JPG
break,html.Screen,4_50_1,2023-11-02T21:53:02.687Z,,0,,,NaN,,,,,,false,,,,462401.5,462401.2000000477,,462400.7000000477,,462410.309,8,400,,,
break_continue,html.Screen,4_50_2,2023-11-02T21:53:02.688Z,,0,,,NaN,,,,,,false,,,,462401.89999985695,462401.7000000477,,462401.59999990463,,462410.309,8,400,,,
sequence,flow.Sequence,4_50,2023-11-02T21:53:02.688Z,,0,,,6118.93500004767,completion,,,,,false,,,,462402.2000000477,462401.7000000477,456268.703,456269,456282.765,462410.309,8,400,,,
trial,html.Screen,4_51_0,2023-11-02T21:53:06.435Z,,0,2,,3738.8910000476753,response,ISIC_7131973.JPG,5,ISIC_5938680.JPG,ISIC_7131973.JPG,false,1,keypress(m),500,466149.39999985695,466149.2000000477,462394.15,462402.39999985695,462410.309,466156.996,8,400,2,,ISIC_5938680.JPG
break,html.Screen,4_51_1,2023-11-02T21:53:06.437Z,,0,,,NaN,,,,,,false,,,,466150.5,466150.2000000477,,466149.59999990463,,466156.996,8,400,,,
break_continue,html.Screen,4_51_2,2023-11-02T21:53:06.437Z,,0,,,NaN,,,,,,false,,,,466151.39999985695,466151.09999990463,,466150.7999999523,,466156.996,8,400,,,
sequence,flow.Sequence,4_51,2023-11-02T21:53:06.438Z,,0,,,3740.790999904624,completion,,,,,false,,,,466151.59999990463,466151.09999990463,462394.15,462402.2999999523,462410.309,466156.996,8,400,,,
trial,html.Screen,4_52_0,2023-11-02T21:53:10.585Z,,0,2,,4141.903999856964,response,ISIC_6069236.JPG,1,ISIC_8438811.JPG,ISIC_8438811.JPG,false,0,keypress(z),500,470299.2000000477,470298.89999985695,466140.636,466151.7000000477,466156.996,470302.916,8,400,3,,ISIC_6069236.JPG
break,html.Screen,4_52_1,2023-11-02T21:53:10.586Z,,0,,,NaN,,,,,,false,,,,470300,470299.7999999523,,470299.39999985695,,470302.916,8,400,,,
break_continue,html.Screen,4_52_2,2023-11-02T21:53:10.586Z,,0,,,NaN,,,,,,false,,,,470300.39999985695,470300.2000000477,,470300.09999990463,,470302.916,8,400,,,
sequence,flow.Sequence,4_52,2023-11-02T21:53:10.586Z,,0,,,4143.204000047699,completion,,,,,false,,,,470300.5,470300.2000000477,466140.636,466151.7000000477,466156.996,470302.916,8,400,,,
trial,html.Screen,4_53_0,2023-11-02T21:53:14.412Z,,0,2,,3823.183999904606,response,ISIC_0054444.JPG,5,ISIC_0000585.JPG,ISIC_0000585.JPG,false,0,keypress(z),500,474126.2999999523,474126.09999990463,470286.685,470300.7000000477,470302.916,474132.651,8,400,4,,ISIC_0054444.JPG
break,html.Screen,4_53_1,2023-11-02T21:53:14.413Z,,0,,,NaN,,,,,,false,,,,474126.7999999523,474126.7999999523,,474126.39999985695,,474132.651,8,400,,,
break_continue,html.Screen,4_53_2,2023-11-02T21:53:14.413Z,,0,,,NaN,,,,,,false,,,,474127.09999990463,474127,,474127,,474132.651,8,400,,,
sequence,flow.Sequence,4_53,2023-11-02T21:53:14.413Z,,0,,,3824.0839999999735,completion,,,,,false,,,,474127.2000000477,474127,470286.685,470300.59999990463,470302.916,474132.651,8,400,,,
trial,html.Screen,4_54_0,2023-11-02T21:53:18.975Z,,0,2,,4556.44899990462,response,ISIC_1210565.JPG,5,ISIC_0011481.JPG,ISIC_0011481.JPG,false,0,keypress(z),500,478689.39999985695,478689.09999990463,474116.456,474127.2999999523,474132.651,478694.951,8,400,5,,ISIC_1210565.JPG
break,html.Screen,4_54_1,2023-11-02T21:53:18.976Z,,0,,,NaN,,,,,,false,,,,478690.09999990463,478690,,478689.7000000477,,478694.951,8,400,,,
break_continue,html.Screen,4_54_2,2023-11-02T21:53:18.977Z,,0,,,NaN,,,,,,false,,,,478690.7000000477,478690.59999990463,,478690.2999999523,,478694.951,8,400,,,
sequence,flow.Sequence,4_54,2023-11-02T21:53:18.977Z,,0,,,4557.94899990462,completion,,,,,false,,,,478690.7999999523,478690.59999990463,474116.456,474127.2999999523,474132.651,478694.951,8,400,,,
trial,html.Screen,4_55_0,2023-11-02T21:53:22.243Z,,0,2,,3261.8489999523154,response,ISIC_0029112.JPG,6,ISIC_0055404.JPG,ISIC_0029112.JPG,false,1,keypress(m),500,481957.09999990463,481956.7999999523,478678.832,478691,478694.951,481975.637,8,400,6,,ISIC_0055404.JPG
break,html.Screen,4_55_1,2023-11-02T21:53:22.244Z,,0,,,NaN,,,,,,false,,,,481958.09999990463,481957.7999999523,,481957.2999999523,,481975.637,8,400,,,
break_continue,html.Screen,4_55_2,2023-11-02T21:53:22.245Z,,0,,,NaN,,,,,,false,,,,481959.2000000477,481958.59999990463,,481958.2999999523,,481975.637,8,400,,,
sequence,flow.Sequence,4_55,2023-11-02T21:53:22.246Z,,0,,,3263.6489999046316,completion,,,,,false,,,,481959.59999990463,481958.59999990463,478678.832,478691,478694.951,481975.637,8,400,,,
trial,html.Screen,4_56_0,2023-11-02T21:53:27.449Z,,0,2,,5186.962999904645,response,ISIC_1761799.JPG,3,ISIC_8357679.JPG,ISIC_8357679.JPG,false,0,keypress(z),500,487163,487162.59999990463,481942.407,481959.7999999523,481975.637,487170.291,8,400,7,,ISIC_1761799.JPG
break,html.Screen,4_56_1,2023-11-02T21:53:27.450Z,,0,,,NaN,,,,,,false,,,,487163.59999990463,487163.5,,487163.09999990463,,487170.291,8,400,,,
break_continue,html.Screen,4_56_2,2023-11-02T21:53:27.450Z,,0,,,NaN,,,,,,false,,,,487164,487163.89999985695,,487163.7000000477,,487170.291,8,400,,,
sequence,flow.Sequence,4_56,2023-11-02T21:53:27.450Z,,0,,,5188.262999856961,completion,,,,,false,,,,487164.2000000477,487163.89999985695,481942.407,481959.7000000477,481975.637,487170.291,8,400,,,
trial,html.Screen,4_57_0,2023-11-02T21:53:30.606Z,,0,2,,3149.6089998569223,response,ISIC_6644659.JPG,5,ISIC_0027622.JPG,ISIC_6644659.JPG,false,1,keypress(m),500,490320.2000000477,490319.89999985695,487154.124,487164.2999999523,487170.291,490334.54,8,400,8,,ISIC_0027622.JPG
break,html.Screen,4_57_1,2023-11-02T21:53:30.607Z,,0,,,NaN,,,,,,false,,,,490321.09999990463,490320.7999999523,,490320.39999985695,,490334.54,8,400,,,
break_continue,html.Screen,4_57_2,2023-11-02T21:53:30.607Z,,0,,,NaN,,,,,,false,,,,490321.5,490321.39999985695,,490321.2000000477,,490334.54,8,400,,,
sequence,flow.Sequence,4_57,2023-11-02T21:53:30.608Z,,0,,,3151.1089998569223,completion,,,,,false,,,,490321.59999990463,490321.39999985695,487154.124,487164.2999999523,487170.291,490334.54,8,400,,,
trial,html.Screen,4_58_0,2023-11-02T21:53:35.250Z,,0,2,,4628.85999985697,response,ISIC_0063180.JPG,11,ISIC_0012018.JPG,ISIC_0012018.JPG,false,0,keypress(z),500,494963.7000000477,494963.39999985695,490317.776,490321.7999999523,490334.54,494979.607,8,400,9,,ISIC_0063180.JPG
break,html.Screen,4_58_1,2023-11-02T21:53:35.250Z,,0,,,NaN,,,,,,false,,,,494964.39999985695,494964.2000000477,,494963.7999999523,,494979.607,8,400,,,
break_continue,html.Screen,4_58_2,2023-11-02T21:53:35.251Z,,0,,,NaN,,,,,,false,,,,494964.89999985695,494964.7999999523,,494964.7000000477,,494979.607,8,400,,,
sequence,flow.Sequence,4_58,2023-11-02T21:53:35.251Z,,0,,,4630.259999952337,completion,,,,,false,,,,494965,494964.7999999523,490317.776,490321.7999999523,490334.54,494979.607,8,400,,,
trial,html.Screen,4_59_0,2023-11-02T21:53:38.773Z,,0,2,,3507.192999952298,response,ISIC_3086579.JPG,5,ISIC_0062762.JPG,ISIC_3086579.JPG,false,1,keypress(m),500,498487.09999990463,498486.7999999523,494963.422,494965.2000000477,494979.607,498492.946,8,400,10,,ISIC_0062762.JPG
break,html.Screen,4_59_1,2023-11-02T21:53:38.774Z,,0,,,NaN,,,,,,false,,,,498488,498487.7999999523,,498487.2999999523,,498492.946,8,400,,,
break_continue,html.Screen,4_59_2,2023-11-02T21:53:38.775Z,,0,,,NaN,,,,,,false,,,,498488.7000000477,498488.2000000477,,498488.09999990463,,498492.946,8,400,,,
sequence,flow.Sequence,4_59,2023-11-02T21:53:38.775Z,,0,,,3508.5930000476656,completion,,,,,false,,,,498489,498488.2000000477,494963.422,494965.2000000477,494979.607,498492.946,8,400,,,
trial,html.Screen,4_60_0,2023-11-02T21:53:42.777Z,,0,2,,3998.1539999046363,response,ISIC_9217340.JPG,4,ISIC_0030139.JPG,ISIC_9217340.JPG,false,1,keypress(m),500,502491.2999999523,502491.09999990463,498476.732,498489.09999990463,498492.946,502505.849,8,400,11,,ISIC_0030139.JPG
break,html.Screen,4_60_1,2023-11-02T21:53:42.778Z,,0,,,NaN,,,,,,false,,,,502492.2000000477,502492,,502491.59999990463,,502505.849,8,400,,,
break_continue,html.Screen,4_60_2,2023-11-02T21:53:42.779Z,,0,,,NaN,,,,,,false,,,,502492.7000000477,502492.5,,502492.39999985695,,502505.849,8,400,,,
sequence,flow.Sequence,4_60,2023-11-02T21:53:42.779Z,,0,,,3999.5540000000037,completion,,,,,false,,,,502492.89999985695,502492.5,498476.732,498489.09999990463,498492.946,502505.849,8,400,,,
trial,html.Screen,4_61_0,2023-11-02T21:53:46.365Z,,0,2,,3572.8510000476963,response,ISIC_0032695.JPG,4,ISIC_0070009.JPG,ISIC_0032695.JPG,false,1,keypress(m),500,506078.89999985695,506078.7000000477,502489.662,502493,502505.849,506085.735,8,400,12,,ISIC_0070009.JPG
break,html.Screen,4_61_1,2023-11-02T21:53:46.366Z,,0,,,NaN,,,,,,false,,,,506079.7000000477,506079.5,,506079.09999990463,,506085.735,8,400,,,
break_continue,html.Screen,4_61_2,2023-11-02T21:53:46.367Z,,0,,,NaN,,,,,,false,,,,506081,506080.7999999523,,506080.59999990463,,506085.735,8,400,,,
sequence,flow.Sequence,4_61,2023-11-02T21:53:46.367Z,,0,,,3574.950999952329,completion,,,,,false,,,,506081.2000000477,506080.7999999523,502489.662,502493,502505.849,506085.735,8,400,,,
trial,html.Screen,4_62_0,2023-11-02T21:53:50.977Z,,0,2,,4605.3649999046465,response,ISIC_3652847.JPG,2,ISIC_4241907.JPG,ISIC_4241907.JPG,false,0,keypress(z),500,510691.39999985695,510691.09999990463,506069.544,506081.2999999523,506085.735,510698.685,8,400,13,,ISIC_3652847.JPG
break,html.Screen,4_62_1,2023-11-02T21:53:50.978Z,,0,,,NaN,,,,,,false,,,,510692.39999985695,510692.2000000477,,510691.7000000477,,510698.685,8,400,,,
break_continue,html.Screen,4_62_2,2023-11-02T21:53:50.979Z,,0,,,NaN,,,,,,false,,,,510692.7999999523,510692.7000000477,,510692.5,,510698.685,8,400,,,
sequence,flow.Sequence,4_62,2023-11-02T21:53:50.979Z,,0,,,4606.965000047698,completion,,,,,false,,,,510693,510692.7000000477,506069.544,506081.2999999523,506085.735,510698.685,8,400,,,
trial,html.Screen,4_63_0,2023-11-02T21:54:02.021Z,,0,2,,11035.614999952319,response,ISIC_2771979.JPG,5,ISIC_9780632.JPG,ISIC_2771979.JPG,false,1,keypress(m),500,521734.7000000477,521734.2999999523,510681.892,510693.09999990463,510698.685,521737.685,8,400,14,,ISIC_9780632.JPG
break,html.Screen,4_63_1,2023-11-02T21:54:02.022Z,,0,,,NaN,,,,,,false,,,,521736,521735.59999990463,,521734.89999985695,,521737.685,8,400,,,
break_continue,html.Screen,4_63_2,2023-11-02T21:54:02.023Z,,0,,,NaN,,,,,,false,,,,521736.7000000477,521736.39999985695,,521736.2000000477,,521737.685,8,400,,,
sequence,flow.Sequence,4_63,2023-11-02T21:54:02.023Z,,0,,,11037.714999856951,completion,,,,,false,,,,521737.09999990463,521736.39999985695,510681.892,510693.09999990463,510698.685,521737.685,8,400,,,
trial,html.Screen,4_64_0,2023-11-02T21:54:09.963Z,,0,2,,7939.015000047686,response,ISIC_0620587.JPG,6,ISIC_0011344.JPG,ISIC_0011344.JPG,false,0,keypress(z),500,529677.0999999046,529676.7000000477,521721.407,521737.2999999523,521737.685,529680.391,8,400,15,,ISIC_0620587.JPG
break,html.Screen,4_64_1,2023-11-02T21:54:09.964Z,,0,,,NaN,,,,,,false,,,,529677.7999999523,529677.5999999046,,529677.2999999523,,529680.391,8,400,,,
break_continue,html.Screen,4_64_2,2023-11-02T21:54:09.964Z,,0,,,NaN,,,,,,false,,,,529678.2999999523,529678.2000000477,,529678.0999999046,,529680.391,8,400,,,
sequence,flow.Sequence,4_64,2023-11-02T21:54:09.965Z,,0,,,7940.515000047686,completion,,,,,false,,,,529678.5999999046,529678.2000000477,521721.407,521737.2999999523,521737.685,529680.391,8,400,,,
trial,html.Screen,4_65_0,2023-11-02T21:54:13.072Z,,0,2,,3105.3090000477387,response,ISIC_0000240.JPG,4,ISIC_0027406.JPG,ISIC_0027406.JPG,false,0,keypress(z),500,532786,532785.7000000477,529663.872,529678.899999857,529680.391,532793.881,8,400,16,,ISIC_0000240.JPG
break,html.Screen,4_65_1,2023-11-02T21:54:13.073Z,,0,,,NaN,,,,,,false,,,,532787.0999999046,532786.7999999523,,532786.399999857,,532793.881,8,400,,,
break_continue,html.Screen,4_65_2,2023-11-02T21:54:13.074Z,,0,,,NaN,,,,,,false,,,,532787.5999999046,532787.399999857,,532787.2999999523,,532793.881,8,400,,,
sequence,flow.Sequence,4_65,2023-11-02T21:54:13.074Z,,0,,,3107.008999857004,completion,,,,,false,,,,532787.899999857,532787.399999857,529663.872,529678.7999999523,529680.391,532793.881,8,400,,,
trial,html.Screen,4_66_0,2023-11-02T21:54:17.268Z,,0,2,,4188.21899990458,response,ISIC_8692155.JPG,25,ISIC_6017148.JPG,ISIC_8692155.JPG,false,1,keypress(m),500,536982.5,536982.0999999046,532777.705,532788.0999999046,532793.881,536989.915,8,400,17,,ISIC_6017148.JPG
break,html.Screen,4_66_1,2023-11-02T21:54:17.269Z,,0,,,NaN,,,,,,false,,,,536983.5,536983.2000000477,,536982.7999999523,,536989.915,8,400,,,
break_continue,html.Screen,4_66_2,2023-11-02T21:54:17.270Z,,0,,,NaN,,,,,,false,,,,536984.0999999046,536983.899999857,,536983.7000000477,,536989.915,8,400,,,
sequence,flow.Sequence,4_66,2023-11-02T21:54:17.270Z,,0,,,4190.018999856897,completion,,,,,false,,,,536984.2999999523,536983.899999857,532777.705,532788,532793.881,536989.915,8,400,,,
trial,html.Screen,4_67_0,2023-11-02T21:54:20.458Z,,0,2,,3181.2850000476465,response,ISIC_0053554.JPG,6,ISIC_2064934.JPG,ISIC_2064934.JPG,false,0,keypress(z),500,540171.5999999046,540171.2000000477,536973.68,536984.5,536989.915,540186.903,8,400,18,,ISIC_0053554.JPG
break,html.Screen,4_67_1,2023-11-02T21:54:20.459Z,,0,,,NaN,,,,,,false,,,,540172.5999999046,540172.2000000477,,540171.7999999523,,540186.903,8,400,,,
break_continue,html.Screen,4_67_2,2023-11-02T21:54:20.459Z,,0,,,NaN,,,,,,false,,,,540173.0999999046,540172.899999857,,540172.7000000477,,540186.903,8,400,,,
sequence,flow.Sequence,4_67,2023-11-02T21:54:20.459Z,,0,,,3182.9849998569116,completion,,,,,false,,,,540173.2999999523,540172.899999857,536973.68,536984.5,536989.915,540186.903,8,400,,,
trial,html.Screen,4_68_0,2023-11-02T21:54:23.773Z,,0,2,,3299.9969998568995,response,ISIC_5706956.JPG,20,ISIC_6741865.JPG,ISIC_5706956.JPG,false,1,keypress(m),500,543487.2000000477,543486.899999857,540170.708,540173.399999857,540186.903,543500.409,8,400,19,,ISIC_6741865.JPG
break,html.Screen,4_68_1,2023-11-02T21:54:23.774Z,,0,,,NaN,,,,,,false,,,,543488.399999857,543488,,543487.5,,543500.409,8,400,,,
break_continue,html.Screen,4_68_2,2023-11-02T21:54:23.775Z,,0,,,NaN,,,,,,false,,,,543488.899999857,543488.7000000477,,543488.5999999046,,543500.409,8,400,,,
sequence,flow.Sequence,4_68,2023-11-02T21:54:23.775Z,,0,,,3301.7970000476344,completion,,,,,false,,,,543489.0999999046,543488.7000000477,540170.708,540173.399999857,540186.903,543500.409,8,400,,,
trial,html.Screen,4_69_0,2023-11-02T21:54:28.225Z,,0,2,,4437.990999856964,response,ISIC_1092432.JPG,4,ISIC_0056991.JPG,ISIC_0056991.JPG,false,0,keypress(z),500,547938.5999999046,547938.399999857,543484.801,543489.2000000477,543500.409,547946.179,8,400,20,,ISIC_1092432.JPG
break,html.Screen,4_69_1,2023-11-02T21:54:28.226Z,,0,,,NaN,,,,,,false,,,,547939.5999999046,547939.2999999523,,547938.7999999523,,547946.179,8,400,,,
break_continue,html.Screen,4_69_2,2023-11-02T21:54:28.226Z,,0,,,NaN,,,,,,false,,,,547940.2000000477,547940.0999999046,,547939.899999857,,547946.179,8,400,,,
sequence,flow.Sequence,4_69,2023-11-02T21:54:28.226Z,,0,,,4439.6909999046475,completion,,,,,false,,,,547940.5,547940.0999999046,543484.801,543489.2000000477,543500.409,547946.179,8,400,,,
trial,html.Screen,4_70_0,2023-11-02T21:54:34.118Z,,0,2,,5885.220999856945,response,ISIC_0003925.JPG,20,ISIC_0073147.JPG,ISIC_0003925.JPG,false,1,keypress(m),500,553831.7000000477,553831.399999857,547930.124,547940.7000000477,547946.179,553840.796,8,400,21,,ISIC_0073147.JPG
break,html.Screen,4_70_1,2023-11-02T21:54:34.118Z,,0,,,NaN,,,,,,false,,,,553832.5999999046,553832.399999857,,553831.7999999523,,553840.796,8,400,,,
break_continue,html.Screen,4_70_2,2023-11-02T21:54:34.119Z,,0,,,NaN,,,,,,false,,,,553833.0999999046,553833,,553832.7999999523,,553840.796,8,400,,,
sequence,flow.Sequence,4_70,2023-11-02T21:54:34.119Z,,0,,,5886.820999999996,completion,,,,,false,,,,553833.399999857,553833,547930.124,547940.5999999046,547946.179,553840.796,8,400,,,
trial,html.Screen,4_71_0,2023-11-02T21:54:38.810Z,,0,2,,4683.30399990466,response,ISIC_6410859.JPG,5,ISIC_0016114.JPG,ISIC_6410859.JPG,false,1,keypress(m),500,558524.399999857,558524.0999999046,553824.293,553833.5999999046,553840.796,558536.285,8,400,22,,ISIC_0016114.JPG
break,html.Screen,4_71_1,2023-11-02T21:54:38.811Z,,0,,,NaN,,,,,,false,,,,558525.0999999046,558525,,558524.5999999046,,558536.285,8,400,,,
break_continue,html.Screen,4_71_2,2023-11-02T21:54:38.812Z,,0,,,NaN,,,,,,false,,,,558525.7000000477,558525.5999999046,,558525.399999857,,558536.285,8,400,,,
sequence,flow.Sequence,4_71,2023-11-02T21:54:38.812Z,,0,,,4684.80399990466,completion,,,,,false,,,,558525.899999857,558525.5999999046,553824.293,553833.5999999046,553840.796,558536.285,8,400,,,
trial,html.Screen,4_72_0,2023-11-02T21:54:46.383Z,,0,2,,7560.514999952284,response,ISIC_9572761.JPG,28,ISIC_2399613.JPG,ISIC_2399613.JPG,false,0,keypress(z),500,566097,566096.7999999523,558520.226,558526,558536.285,566112.366,8,400,23,,ISIC_9572761.JPG
break,html.Screen,4_72_1,2023-11-02T21:54:46.384Z,,0,,,NaN,,,,,,false,,,,566097.899999857,566097.5999999046,,566097.2000000477,,566112.366,8,400,,,
break_continue,html.Screen,4_72_2,2023-11-02T21:54:46.384Z,,0,,,NaN,,,,,,false,,,,566098.2000000477,566098.0999999046,,566098,,566112.366,8,400,,,
sequence,flow.Sequence,4_72,2023-11-02T21:54:46.385Z,,0,,,7561.8149999046,completion,,,,,false,,,,566098.5999999046,566098.0999999046,558520.226,558526,558536.285,566112.366,8,400,,,
trial,html.Screen,4_73_0,2023-11-02T21:54:49.987Z,,0,2,,3588.5339998569107,response,ISIC_0029374.JPG,5,ISIC_0054292.JPG,ISIC_0054292.JPG,false,0,keypress(z),500,569701.399999857,569700.899999857,566096.218,566098.899999857,566112.366,569709.019,8,400,24,,ISIC_0029374.JPG
break,html.Screen,4_73_1,2023-11-02T21:54:49.988Z,,0,,,NaN,,,,,,false,,,,569702.0999999046,569702,,569701.5999999046,,569709.019,8,400,,,
break_continue,html.Screen,4_73_2,2023-11-02T21:54:49.989Z,,0,,,NaN,,,,,,false,,,,569702.5999999046,569702.5,,569702.399999857,,569709.019,8,400,,,
sequence,flow.Sequence,4_73,2023-11-02T21:54:49.989Z,,0,,,3590.133999999962,completion,,,,,false,,,,569702.7999999523,569702.5,566096.218,566098.7999999523,566112.366,569709.019,8,400,,,
trial,html.Screen,4_74_0,2023-11-02T21:54:52.856Z,,0,2,,2860.481000000029,response,ISIC_1169724.JPG,10,ISIC_1200192.JPG,ISIC_1169724.JPG,false,1,keypress(m),500,572569.7000000477,572569.5,569692.819,569702.899999857,569709.019,572573.025,8,400,25,,ISIC_1200192.JPG
break,html.Screen,4_74_1,2023-11-02T21:54:52.857Z,,0,,,NaN,,,,,,false,,,,572570.7000000477,572570.2999999523,,572569.899999857,,572573.025,8,400,,,
break_continue,html.Screen,4_74_2,2023-11-02T21:54:52.857Z,,0,,,NaN,,,,,,false,,,,572571.2000000477,572571.0999999046,,572571,,572573.025,8,400,,,
sequence,flow.Sequence,4_74,2023-11-02T21:54:52.857Z,,0,,,2862.0809999046614,completion,,,,,false,,,,572571.399999857,572571.0999999046,569692.819,569702.899999857,569709.019,572573.025,8,400,,,
trial,html.Screen,4_75_0,2023-11-02T21:54:57.308Z,,0,2,,4448.274999952293,response,ISIC_4069836.JPG,5,ISIC_9829805.JPG,ISIC_4069836.JPG,false,1,keypress(m),500,577021.7000000477,577021.2999999523,572556.772,572571.5,572573.025,577035.4,8,400,26,,ISIC_9829805.JPG
break,html.Screen,4_75_1,2023-11-02T21:54:57.309Z,,0,,,NaN,,,,,,false,,,,577022.7999999523,577022.399999857,,577021.899999857,,577035.4,8,400,,,
break_continue,html.Screen,4_75_2,2023-11-02T21:54:57.309Z,,0,,,NaN,,,,,,false,,,,577023.0999999046,577023.0999999046,,577022.899999857,,577035.4,8,400,,,
sequence,flow.Sequence,4_75,2023-11-02T21:54:57.309Z,,0,,,4450.074999904609,completion,,,,,false,,,,577023.2999999523,577023.0999999046,572556.772,572571.399999857,572573.025,577035.4,8,400,,,
trial,html.Screen,4_76_0,2023-11-02T21:55:01.488Z,,0,2,,4165.899999952293,response,ISIC_5405889.JPG,11,ISIC_9058340.JPG,ISIC_5405889.JPG,false,1,keypress(m),500,581201.7000000477,581201.2999999523,577019.187,577023.5,577035.4,581214.816,8,400,27,,ISIC_9058340.JPG
break,html.Screen,4_76_1,2023-11-02T21:55:01.488Z,,0,,,NaN,,,,,,false,,,,581202.399999857,581202.2000000477,,581201.899999857,,581214.816,8,400,,,
break_continue,html.Screen,4_76_2,2023-11-02T21:55:01.489Z,,0,,,NaN,,,,,,false,,,,581202.7999999523,581202.7999999523,,581202.5999999046,,581214.816,8,400,,,
sequence,flow.Sequence,4_76,2023-11-02T21:55:01.489Z,,0,,,4167.399999952293,completion,,,,,false,,,,581203.0999999046,581202.7999999523,577019.187,577023.5,577035.4,581214.816,8,400,,,
trial,html.Screen,4_77_0,2023-11-02T21:55:04.276Z,,0,2,,2774.783999904641,response,ISIC_1784255.JPG,5,ISIC_0046932.JPG,ISIC_0046932.JPG,false,0,keypress(z),500,583990,583989.5999999046,581198.654,581203.0999999046,581214.816,583995.553,8,400,28,,ISIC_1784255.JPG
break,html.Screen,4_77_1,2023-11-02T21:55:04.277Z,,0,,,NaN,,,,,,false,,,,583991.2000000477,583990.899999857,,583990.2999999523,,583995.553,8,400,,,
break_continue,html.Screen,4_77_2,2023-11-02T21:55:04.278Z,,0,,,NaN,,,,,,false,,,,583991.7999999523,583991.7000000477,,583991.5,,583995.553,8,400,,,
sequence,flow.Sequence,4_77,2023-11-02T21:55:04.278Z,,0,,,2776.884000047692,completion,,,,,false,,,,583992,583991.7000000477,581198.654,581203.0999999046,581214.816,583995.553,8,400,,,
trial,html.Screen,4_78_0,2023-11-02T21:55:07.416Z,,0,2,,3134.3469998569926,response,ISIC_0834745.JPG,5,ISIC_7976934.JPG,ISIC_0834745.JPG,false,1,keypress(m),500,587130.2000000477,587129.899999857,583979.409,583992.2000000477,583995.553,587142.594,8,400,29,,ISIC_7976934.JPG
break,html.Screen,4_78_1,2023-11-02T21:55:07.417Z,,0,,,NaN,,,,,,false,,,,587130.899999857,587130.7000000477,,587130.399999857,,587142.594,8,400,,,
break_continue,html.Screen,4_78_2,2023-11-02T21:55:07.417Z,,0,,,NaN,,,,,,false,,,,587131.2999999523,587131.0999999046,,587131,,587142.594,8,400,,,
sequence,flow.Sequence,4_78,2023-11-02T21:55:07.417Z,,0,,,3135.5469999046763,completion,,,,,false,,,,587131.5,587131.0999999046,583979.409,583992.2000000477,583995.553,587142.594,8,400,,,
trial,html.Screen,4_79_0,2023-11-02T21:55:10.748Z,,0,2,,3319.305999856908,response,ISIC_4123109.JPG,6,ISIC_8869929.JPG,ISIC_4123109.JPG,false,1,keypress(m),500,590462.2000000477,590461.899999857,587125.935,587131.5999999046,587142.594,590472.684,8,400,30,,ISIC_8869929.JPG
break,html.Screen,4_79_1,2023-11-02T21:55:10.749Z,,0,,,NaN,,,,,,false,,,,590462.899999857,590462.7000000477,,590462.399999857,,590472.684,8,400,,,
break_continue,html.Screen,4_79_2,2023-11-02T21:55:10.749Z,,0,,,NaN,,,,,,false,,,,590463.399999857,590463.2999999523,,590463.0999999046,,590472.684,8,400,,,
sequence,flow.Sequence,4_79,2023-11-02T21:55:10.749Z,,0,,,3320.7059999522753,completion,,,,,false,,,,590463.5,590463.2999999523,587125.935,587131.5999999046,587142.594,590472.684,8,400,,,
trial,html.Screen,4_80_0,2023-11-02T21:55:14.079Z,,0,2,,3320.5160000476753,response,ISIC_0026371.JPG,10,ISIC_4015508.JPG,ISIC_0026371.JPG,false,1,keypress(m),500,593793.5999999046,593793.2000000477,590456.571,590463.5999999046,590472.684,593802.958,8,400,31,,ISIC_4015508.JPG
break,html.Screen,4_80_1,2023-11-02T21:55:14.080Z,,0,,,NaN,,,,,,false,,,,593794.399999857,593794.2000000477,,593793.7000000477,,593802.958,8,400,,,
break_continue,html.Screen,4_80_2,2023-11-02T21:55:14.081Z,,0,,,NaN,,,,,,false,,,,593794.899999857,593794.7000000477,,593794.5999999046,,593802.958,8,400,,,
sequence,flow.Sequence,4_80,2023-11-02T21:55:14.081Z,,0,,,3322.0160000476753,completion,,,,,false,,,,593795,593794.7000000477,590456.571,590463.5999999046,590472.684,593802.958,8,400,,,
trial,html.Screen,4_81_0,2023-11-02T21:55:17.426Z,,0,2,,3337.341999952332,response,ISIC_0010360.JPG,4,ISIC_9499185.JPG,ISIC_9499185.JPG,false,0,keypress(z),500,597140.5999999046,597140.2999999523,593786.704,593795.2000000477,593802.958,597166.444,8,400,32,,ISIC_0010360.JPG
break,html.Screen,4_81_1,2023-11-02T21:55:17.427Z,,0,,,NaN,,,,,,false,,,,597141.2999999523,597141.0999999046,,597140.7999999523,,597166.444,8,400,,,
break_continue,html.Screen,4_81_2,2023-11-02T21:55:17.428Z,,0,,,NaN,,,,,,false,,,,597141.5999999046,597141.5,,597141.399999857,,597166.444,8,400,,,
sequence,flow.Sequence,4_81,2023-11-02T21:55:17.428Z,,0,,,3338.542000000016,completion,,,,,false,,,,597141.7999999523,597141.5,593786.704,593795.0999999046,593802.958,597166.444,8,400,,,
trial,html.Screen,4_82_0,2023-11-02T21:55:21.397Z,,0,2,,3944.756000047666,response,ISIC_3596927.JPG,22,ISIC_9436034.JPG,ISIC_9436034.JPG,false,0,keypress(z),500,601111.5,601111.2000000477,597149.789,597142,597166.444,601130.064,8,400,33,,ISIC_3596927.JPG
break,html.Screen,4_82_1,2023-11-02T21:55:21.398Z,,0,,,NaN,,,,,,false,,,,601112.399999857,601112.2000000477,,601111.7999999523,,601130.064,8,400,,,
break_continue,html.Screen,4_82_2,2023-11-02T21:55:21.399Z,,0,,,NaN,,,,,,false,,,,601113.0999999046,601112.899999857,,601112.7000000477,,601130.064,8,400,,,
sequence,flow.Sequence,4_82,2023-11-02T21:55:21.399Z,,0,,,3946.455999856931,completion,,,,,false,,,,601113.5,601112.899999857,597149.789,597141.899999857,597166.444,601130.064,8,400,,,
trial,html.Screen,4_83_0,2023-11-02T21:55:25.417Z,,0,2,,4001.0359999046195,response,ISIC_0000161.JPG,5,ISIC_0283541.JPG,ISIC_0283541.JPG,false,0,keypress(z),500,605131.399999857,605131.0999999046,601096.45,601113.5999999046,601130.064,605142.432,8,400,34,,ISIC_0000161.JPG
break,html.Screen,4_83_1,2023-11-02T21:55:25.418Z,,0,,,NaN,,,,,,false,,,,605132.2999999523,605132,,605131.5,,605142.432,8,400,,,
break_continue,html.Screen,4_83_2,2023-11-02T21:55:25.419Z,,0,,,NaN,,,,,,false,,,,605132.7000000477,605132.5999999046,,605132.399999857,,605142.432,8,400,,,
sequence,flow.Sequence,4_83,2023-11-02T21:55:25.419Z,,0,,,4002.5359999046195,completion,,,,,false,,,,605133,605132.5999999046,601096.45,601113.5999999046,601130.064,605142.432,8,400,,,
trial,html.Screen,4_84_0,2023-11-02T21:55:29.948Z,,0,2,,4519.768000047654,response,ISIC_0030255.JPG,10,ISIC_2752919.JPG,ISIC_2752919.JPG,false,0,keypress(z),500,609662.5,609662.2000000477,605125.99,605133.2000000477,605142.432,609671.221,8,400,35,,ISIC_0030255.JPG
break,html.Screen,4_84_1,2023-11-02T21:55:29.949Z,,0,,,NaN,,,,,,false,,,,609663.2999999523,609663.0999999046,,609662.7999999523,,609671.221,8,400,,,
break_continue,html.Screen,4_84_2,2023-11-02T21:55:29.950Z,,0,,,NaN,,,,,,false,,,,609663.7000000477,609663.5,,609663.399999857,,609671.221,8,400,,,
sequence,flow.Sequence,4_84,2023-11-02T21:55:29.950Z,,0,,,4521.06799999997,completion,,,,,false,,,,609663.7999999523,609663.5,605125.99,605133.0999999046,605142.432,609671.221,8,400,,,
trial,html.Screen,4_85_0,2023-11-02T21:55:32.703Z,,0,2,,2745.7789999999804,response,ISIC_0150363.JPG,6,ISIC_0010140.JPG,ISIC_0150363.JPG,false,1,keypress(m),500,612417.2000000477,612417,609655.047,609664,609671.221,612435.865,8,400,36,,ISIC_0010140.JPG
break,html.Screen,4_85_1,2023-11-02T21:55:32.704Z,,0,,,NaN,,,,,,false,,,,612418,612417.7999999523,,612417.399999857,,612435.865,8,400,,,
break_continue,html.Screen,4_85_2,2023-11-02T21:55:32.704Z,,0,,,NaN,,,,,,false,,,,612418.399999857,612418.2999999523,,612418.0999999046,,612435.865,8,400,,,
sequence,flow.Sequence,4_85,2023-11-02T21:55:32.704Z,,0,,,2747.0789999522967,completion,,,,,false,,,,612418.5999999046,612418.2999999523,609655.047,609663.899999857,609671.221,612435.865,8,400,,,
trial,html.Screen,4_86_0,2023-11-02T21:55:35.427Z,,0,2,,2705.034999856958,response,ISIC_2980578.JPG,5,ISIC_5281908.JPG,ISIC_2980578.JPG,false,1,keypress(m),500,615141.2999999523,615140.899999857,612402.477,612418.7999999523,612435.865,615166.145,8,400,37,,ISIC_5281908.JPG
break,html.Screen,4_86_1,2023-11-02T21:55:35.428Z,,0,,,NaN,,,,,,false,,,,615142.2999999523,615142,,615141.5,,615166.145,8,400,,,
break_continue,html.Screen,4_86_2,2023-11-02T21:55:35.429Z,,0,,,NaN,,,,,,false,,,,615142.7999999523,615142.5999999046,,615142.5,,615166.145,8,400,,,
sequence,flow.Sequence,4_86,2023-11-02T21:55:35.429Z,,0,,,2706.734999904642,completion,,,,,false,,,,615143,615142.5999999046,612402.477,612418.7000000477,612435.865,615166.145,8,400,,,
trial,html.Screen,4_87_0,2023-11-02T21:55:39.015Z,,0,2,,3562.8549999999814,response,ISIC_0002878.JPG,5,ISIC_0527350.JPG,ISIC_0002878.JPG,false,1,keypress(m),500,618729.399999857,618729,615149.423,615143.2000000477,615166.145,618746.132,8,400,38,,ISIC_0527350.JPG
break,html.Screen,4_87_1,2023-11-02T21:55:39.018Z,,0,,,NaN,,,,,,false,,,,618731.7000000477,618731,,618730.2000000477,,618746.132,8,400,,,
break_continue,html.Screen,4_87_2,2023-11-02T21:55:39.019Z,,0,,,NaN,,,,,,false,,,,618732.7000000477,618732.2999999523,,618731.899999857,,618746.132,8,400,,,
sequence,flow.Sequence,4_87,2023-11-02T21:55:39.019Z,,0,,,3566.1549999522977,completion,,,,,false,,,,618733.0999999046,618732.2999999523,615149.423,615143.0999999046,615166.145,618746.132,8,400,,,
trial,html.Screen,4_88_0,2023-11-02T21:55:41.885Z,,0,2,,2853.0680000477005,response,ISIC_0063168.JPG,30,ISIC_0033473.JPG,ISIC_0063168.JPG,false,1,keypress(m),500,621599.399999857,621599.2000000477,618729.815,618733.399999857,618746.132,621609.958,8,400,39,,ISIC_0033473.JPG
break,html.Screen,4_88_1,2023-11-02T21:55:41.886Z,,0,,,NaN,,,,,,false,,,,621600.0999999046,621599.899999857,,621599.5999999046,,621609.958,8,400,,,
break_continue,html.Screen,4_88_2,2023-11-02T21:55:41.887Z,,0,,,NaN,,,,,,false,,,,621600.7000000477,621600.5999999046,,621600.2999999523,,621609.958,8,400,,,
sequence,flow.Sequence,4_88,2023-11-02T21:55:41.887Z,,0,,,2854.4679999046493,completion,,,,,false,,,,621600.899999857,621600.5999999046,618729.815,618733.2999999523,618746.132,621609.958,8,400,,,
trial,html.Screen,4_89_0,2023-11-02T21:55:44.577Z,,0,2,,2680.341999952332,response,ISIC_0066314.JPG,5,ISIC_0072773.JPG,ISIC_0072773.JPG,false,0,keypress(z),500,624290.5999999046,624290.2999999523,621593.766,621601,621609.958,624307.426,8,400,40,,ISIC_0066314.JPG
break,html.Screen,4_89_1,2023-11-02T21:55:44.578Z,,0,,,NaN,,,,,,false,,,,624291.899999857,624291.5,,624290.7999999523,,624307.426,8,400,,,
break_continue,html.Screen,4_89_2,2023-11-02T21:55:44.578Z,,0,,,NaN,,,,,,false,,,,624292.399999857,624292.2999999523,,624292.0999999046,,624307.426,8,400,,,
sequence,flow.Sequence,4_89,2023-11-02T21:55:44.578Z,,0,,,2682.341999952332,completion,,,,,false,,,,624292.5,624292.2999999523,621593.766,621601,621609.958,624307.426,8,400,,,
trial,html.Screen,4_90_0,2023-11-02T21:55:47.476Z,,0,2,,2882.5740000000224,response,ISIC_0000358.JPG,5,ISIC_0064240.JPG,ISIC_0000358.JPG,false,1,keypress(m),500,627190.2999999523,627190,624291.247,624292.5,624307.426,627204.714,8,400,41,,ISIC_0064240.JPG
break,html.Screen,4_90_1,2023-11-02T21:55:47.477Z,,0,,,NaN,,,,,,false,,,,627191.399999857,627191.2000000477,,627190.5999999046,,627204.714,8,400,,,
break_continue,html.Screen,4_90_2,2023-11-02T21:55:47.478Z,,0,,,NaN,,,,,,false,,,,627191.899999857,627191.7999999523,,627191.5999999046,,627204.714,8,400,,,
sequence,flow.Sequence,4_90,2023-11-02T21:55:47.478Z,,0,,,2884.3739999523386,completion,,,,,false,,,,627192,627191.7999999523,624291.247,624292.5,624307.426,627204.714,8,400,,,
trial,html.Screen,4_91_0,2023-11-02T21:55:50.378Z,,0,2,,2886.4860000476474,response,ISIC_0056740.JPG,5,ISIC_0034180.JPG,ISIC_0034180.JPG,false,0,keypress(z),500,630091.5999999046,630091.2000000477,627188.499,627192.0999999046,627204.714,630102.087,8,400,42,,ISIC_0056740.JPG
break,html.Screen,4_91_1,2023-11-02T21:55:50.378Z,,0,,,NaN,,,,,,false,,,,630092.399999857,630092.2999999523,,630091.899999857,,630102.087,8,400,,,
break_continue,html.Screen,4_91_2,2023-11-02T21:55:50.379Z,,0,,,NaN,,,,,,false,,,,630092.7999999523,630092.7000000477,,630092.5999999046,,630102.087,8,400,,,
sequence,flow.Sequence,4_91,2023-11-02T21:55:50.379Z,,0,,,2887.9860000476474,completion,,,,,false,,,,630093,630092.7000000477,627188.499,627192.0999999046,627204.714,630102.087,8,400,,,
trial,html.Screen,4_92_0,2023-11-02T21:55:53.214Z,,0,2,,2825.812999856891,response,ISIC_0034260.JPG,5,ISIC_0232101.JPG,ISIC_0232101.JPG,false,0,keypress(z),500,632928.0999999046,632927.899999857,630085.772,630093.0999999046,630102.087,632932.884,8,400,43,,ISIC_0034260.JPG
break,html.Screen,4_92_1,2023-11-02T21:55:53.216Z,,0,,,NaN,,,,,,false,,,,632929.7999999523,632929,,632928.2999999523,,632932.884,8,400,,,
break_continue,html.Screen,4_92_2,2023-11-02T21:55:53.216Z,,0,,,NaN,,,,,,false,,,,632930.5,632930.2000000477,,632930.0999999046,,632932.884,8,400,,,
sequence,flow.Sequence,4_92,2023-11-02T21:55:53.217Z,,0,,,2828.113000047626,completion,,,,,false,,,,632930.7000000477,632930.2000000477,630085.772,630093.0999999046,630102.087,632932.884,8,400,,,
trial,html.Screen,4_93_0,2023-11-02T21:55:57.028Z,,0,2,,3808.816000047722,response,ISIC_6124481.JPG,5,ISIC_0031863.JPG,ISIC_0031863.JPG,false,0,keypress(z),500,636741.899999857,636741.7000000477,632916.417,632930.899999857,632932.884,636745.759,8,400,44,,ISIC_6124481.JPG
break,html.Screen,4_93_1,2023-11-02T21:55:57.029Z,,0,,,NaN,,,,,,false,,,,636742.5999999046,636742.399999857,,636742.0999999046,,636745.759,8,400,,,
break_continue,html.Screen,4_93_2,2023-11-02T21:55:57.029Z,,0,,,NaN,,,,,,false,,,,636743.2000000477,636743,,636742.899999857,,636745.759,8,400,,,
sequence,flow.Sequence,4_93,2023-11-02T21:55:57.029Z,,0,,,3810.116000000038,completion,,,,,false,,,,636743.2999999523,636743,632916.417,632930.899999857,632932.884,636745.759,8,400,,,
trial,html.Screen,4_94_0,2023-11-02T21:56:00.535Z,,0,2,,3503.140999856987,response,ISIC_0025093.JPG,19,ISIC_7528996.JPG,ISIC_0025093.JPG,false,1,keypress(m),500,640249.399999857,640248.899999857,636729.491,636743.399999857,636745.759,640259.187,8,400,45,,ISIC_7528996.JPG
break,html.Screen,4_94_1,2023-11-02T21:56:00.536Z,,0,,,NaN,,,,,,false,,,,640250.399999857,640250.2000000477,,640249.7000000477,,640259.187,8,400,,,
break_continue,html.Screen,4_94_2,2023-11-02T21:56:00.537Z,,0,,,NaN,,,,,,false,,,,640251,640250.7999999523,,640250.5999999046,,640259.187,8,400,,,
sequence,flow.Sequence,4_94,2023-11-02T21:56:00.537Z,,0,,,3505.0409999523545,completion,,,,,false,,,,640251.2000000477,640250.7999999523,636729.491,636743.2999999523,636745.759,640259.187,8,400,,,
trial,html.Screen,4_95_0,2023-11-02T21:56:04.651Z,,0,2,,4106.013000047649,response,ISIC_0078703.JPG,5,ISIC_8082460.JPG,ISIC_0078703.JPG,false,1,keypress(m),500,644365.5,644365.2000000477,640242.497,640251.2999999523,640259.187,644371.816,8,400,46,,ISIC_8082460.JPG
break,html.Screen,4_95_1,2023-11-02T21:56:04.652Z,,0,,,NaN,,,,,,false,,,,644366.399999857,644366,,644365.5999999046,,644371.816,8,400,,,
break_continue,html.Screen,4_95_2,2023-11-02T21:56:04.653Z,,0,,,NaN,,,,,,false,,,,644367,644366.899999857,,644366.5999999046,,644371.816,8,400,,,
sequence,flow.Sequence,4_95,2023-11-02T21:56:04.653Z,,0,,,4107.712999856914,completion,,,,,false,,,,644367.2000000477,644366.899999857,640242.497,640251.2999999523,640259.187,644371.816,8,400,,,
trial,html.Screen,4_96_0,2023-11-02T21:56:08.031Z,,0,2,,3373.384000047692,response,ISIC_3844404.JPG,16,ISIC_3430447.JPG,ISIC_3844404.JPG,false,1,keypress(m),500,647745.399999857,647745.2000000477,644355.631,644367.399999857,644371.816,647751.931,8,400,47,,ISIC_3430447.JPG
break,html.Screen,4_96_1,2023-11-02T21:56:08.032Z,,0,,,NaN,,,,,,false,,,,647746.2000000477,647746,,647745.5999999046,,647751.931,8,400,,,
break_continue,html.Screen,4_96_2,2023-11-02T21:56:08.033Z,,0,,,NaN,,,,,,false,,,,647746.7000000477,647746.5999999046,,647746.5,,647751.931,8,400,,,
sequence,flow.Sequence,4_96,2023-11-02T21:56:08.033Z,,0,,,3374.783999904641,completion,,,,,false,,,,647747.0999999046,647746.5999999046,644355.631,644367.2999999523,644371.816,647751.931,8,400,,,
trial,html.Screen,4_97_0,2023-11-02T21:56:13.556Z,,0,2,,5517.868999952334,response,ISIC_8843901.JPG,6,ISIC_7592920.JPG,ISIC_7592920.JPG,false,0,keypress(z),500,653270.2999999523,653269.7999999523,647735.796,647747.2999999523,647751.931,653280.06,8,400,48,,ISIC_8843901.JPG
break,html.Screen,4_97_1,2023-11-02T21:56:13.557Z,,0,,,NaN,,,,,,false,,,,653271.5999999046,653271.2000000477,,653270.5999999046,,653280.06,8,400,,,
break_continue,html.Screen,4_97_2,2023-11-02T21:56:13.558Z,,0,,,NaN,,,,,,false,,,,653272.2000000477,653271.899999857,,653271.7000000477,,653280.06,8,400,,,
sequence,flow.Sequence,4_97,2023-11-02T21:56:13.558Z,,0,,,5519.968999856967,completion,,,,,false,,,,653272.5,653271.899999857,647735.796,647747.2999999523,647751.931,653280.06,8,400,,,
trial,html.Screen,4_98_0,2023-11-02T21:56:16.506Z,,0,2,,2939.839999856893,response,ISIC_0016137.JPG,5,ISIC_0010350.JPG,ISIC_0010350.JPG,false,0,keypress(z),500,656220.2000000477,656219.899999857,653263.881,653272.7999999523,653280.06,656227.296,8,400,49,,ISIC_0016137.JPG
break,html.Screen,4_98_1,2023-11-02T21:56:16.507Z,,0,,,NaN,,,,,,false,,,,656221.2000000477,656220.899999857,,656220.399999857,,656227.296,8,400,,,
break_continue,html.Screen,4_98_2,2023-11-02T21:56:16.508Z,,0,,,NaN,,,,,,false,,,,656221.5999999046,656221.399999857,,656221.2999999523,,656227.296,8,400,,,
sequence,flow.Sequence,4_98,2023-11-02T21:56:16.508Z,,0,,,2941.339999856893,completion,,,,,false,,,,656221.7999999523,656221.399999857,653263.881,653272.7000000477,653280.06,656227.296,8,400,,,
trial,html.Screen,4_99_0,2023-11-02T21:56:21.454Z,,0,2,,4940.204000000027,response,ISIC_0058828.JPG,5,ISIC_1366765.JPG,ISIC_0058828.JPG,false,1,keypress(m),500,661167.7999999523,661167.5,656211.234,656222,656227.296,661172.667,8,400,50,,ISIC_1366765.JPG
break,html.Screen,4_99_1,2023-11-02T21:56:31.450Z,,0,,,10007.201999999932,timeout,,,,,false,,,,671164.5,671163.427,661156.379,661168,661172.667,671179.869,8,400,,,
break_continue,html.Screen,4_99_2,2023-11-02T21:57:03.190Z,,0,,,31686.43099995237,response,,,,,false,continue,keypress(Space),,702903.899999857,702866.2999999523,671163.427,671164.5999999046,671179.869,702916.998,8,400,,,
sequence,flow.Sequence,4_99,2023-11-02T21:57:03.190Z,,0,,,46639.00399995234,completion,,,,,false,,,,702904.5,702866.2999999523,656211.234,656221.7999999523,656227.296,702916.998,8,400,,,
trial,html.Screen,4_100_0,2023-11-02T21:57:07.211Z,,0,3,,4007.301999952295,response,ISIC_6488658.JPG,5,ISIC_0011868.JPG,ISIC_6488658.JPG,false,1,keypress(m),500,706924.7000000477,706924.2999999523,702902.846,702904.7000000477,702916.998,706929.424,8,400,1,,ISIC_0011868.JPG
break,html.Screen,4_100_1,2023-11-02T21:57:07.212Z,,0,,,NaN,,,,,,false,,,,706925.7000000477,706925.2999999523,,706924.7999999523,,706929.424,8,400,,,
break_continue,html.Screen,4_100_2,2023-11-02T21:57:07.212Z,,0,,,NaN,,,,,,false,,,,706926.2999999523,706926,,706925.7999999523,,706929.424,8,400,,,
sequence,flow.Sequence,4_100,2023-11-02T21:57:07.212Z,,0,,,4009.0019999999786,completion,,,,,false,,,,706926.5,706926,702902.846,702904.5999999046,702916.998,706929.424,8,400,,,
trial,html.Screen,4_101_0,2023-11-02T21:57:12.607Z,,0,3,,5390.875999952317,response,ISIC_9631669.JPG,6,ISIC_4141898.JPG,ISIC_4141898.JPG,false,0,keypress(z),500,712320.5999999046,712320.2999999523,706913.453,706926.7000000477,706929.424,712324.258,8,400,2,,ISIC_9631669.JPG
break,html.Screen,4_101_1,2023-11-02T21:57:12.607Z,,0,,,NaN,,,,,,false,,,,712321.399999857,712321.0999999046,,712320.7999999523,,712324.258,8,400,,,
break_continue,html.Screen,4_101_2,2023-11-02T21:57:12.608Z,,0,,,NaN,,,,,,false,,,,712321.7999999523,712321.5999999046,,712321.5,,712324.258,8,400,,,
sequence,flow.Sequence,4_101,2023-11-02T21:57:12.608Z,,0,,,5392.1759999046335,completion,,,,,false,,,,712322,712321.5999999046,706913.453,706926.5,706929.424,712324.258,8,400,,,
trial,html.Screen,4_102_0,2023-11-02T21:57:16.482Z,,0,3,,3871.442000047653,response,ISIC_9406755.JPG,6,ISIC_3198731.JPG,ISIC_3198731.JPG,false,0,keypress(z),500,716196.2999999523,716195.7000000477,712308.116,712322.0999999046,712324.258,716203.989,8,400,3,,ISIC_9406755.JPG
break,html.Screen,4_102_1,2023-11-02T21:57:16.483Z,,0,,,NaN,,,,,,false,,,,716197.399999857,716197.0999999046,,716196.7000000477,,716203.989,8,400,,,
break_continue,html.Screen,4_102_2,2023-11-02T21:57:16.484Z,,0,,,NaN,,,,,,false,,,,716198,716197.899999857,,716197.5999999046,,716203.989,8,400,,,
sequence,flow.Sequence,4_102,2023-11-02T21:57:16.484Z,,0,,,3873.641999856918,completion,,,,,false,,,,716198.2999999523,716197.899999857,712308.116,712322.0999999046,712324.258,716203.989,8,400,,,
trial,html.Screen,4_103_0,2023-11-02T21:57:20.729Z,,0,3,,4238.511000000057,response,ISIC_0000490.JPG,3,ISIC_0067476.JPG,ISIC_0000490.JPG,false,1,keypress(m),500,720442.7999999523,720442.5,716187.763,716198.5,716203.989,720449.935,8,400,4,,ISIC_0067476.JPG
break,html.Screen,4_103_1,2023-11-02T21:57:20.729Z,,0,,,NaN,,,,,,false,,,,720443.399999857,720443.2999999523,,720443,,720449.935,8,400,,,
break_continue,html.Screen,4_103_2,2023-11-02T21:57:20.730Z,,0,,,NaN,,,,,,false,,,,720443.899999857,720443.7000000477,,720443.5,,720449.935,8,400,,,
sequence,flow.Sequence,4_103,2023-11-02T21:57:20.730Z,,0,,,4239.7110000477405,completion,,,,,false,,,,720444.0999999046,720443.7000000477,716187.763,716198.5,716203.989,720449.935,8,400,,,
trial,html.Screen,4_104_0,2023-11-02T21:57:26.620Z,,0,3,,5884.265000047628,response,ISIC_5648111.JPG,5,ISIC_8401332.JPG,ISIC_5648111.JPG,false,1,keypress(m),500,726334.399999857,726334.2000000477,720433.794,720444.2000000477,720449.935,726344.382,8,400,5,,ISIC_8401332.JPG
break,html.Screen,4_104_1,2023-11-02T21:57:26.620Z,,0,,,NaN,,,,,,false,,,,726335.2999999523,726335,,726334.7000000477,,726344.382,8,400,,,
break_continue,html.Screen,4_104_2,2023-11-02T21:57:26.621Z,,0,,,NaN,,,,,,false,,,,726335.7999999523,726335.7000000477,,726335.5,,726344.382,8,400,,,
sequence,flow.Sequence,4_104,2023-11-02T21:57:26.621Z,,0,,,5885.765000047628,completion,,,,,false,,,,726336,726335.7000000477,720433.794,720444.2000000477,720449.935,726344.382,8,400,,,
trial,html.Screen,4_105_0,2023-11-02T21:57:29.375Z,,0,3,,2745.2179999046493,response,ISIC_8849004.JPG,5,ISIC_0058408.JPG,ISIC_8849004.JPG,false,1,keypress(m),500,729089.899999857,729089.5999999046,726327.88,726336.0999999046,726344.382,729109.427,8,400,6,,ISIC_0058408.JPG
break,html.Screen,4_105_1,2023-11-02T21:57:29.376Z,,0,,,NaN,,,,,,false,,,,729090.7000000477,729090.5,,729090.2000000477,,729109.427,8,400,,,
break_continue,html.Screen,4_105_2,2023-11-02T21:57:29.376Z,,0,,,NaN,,,,,,false,,,,729091.2000000477,729091.0999999046,,729090.899999857,,729109.427,8,400,,,
sequence,flow.Sequence,4_105,2023-11-02T21:57:29.377Z,,0,,,2746.7179999046493,completion,,,,,false,,,,729091.399999857,729091.0999999046,726327.88,726336.0999999046,726344.382,729109.427,8,400,,,
trial,html.Screen,4_106_0,2023-11-02T21:57:32.563Z,,0,3,,3168.072999999975,response,ISIC_3920274.JPG,5,ISIC_9785077.JPG,ISIC_3920274.JPG,false,1,keypress(m),500,732277.7999999523,732277.5,729075.513,729091.5999999046,729109.427,732288.755,8,400,7,,ISIC_9785077.JPG
break,html.Screen,4_106_1,2023-11-02T21:57:32.564Z,,0,,,NaN,,,,,,false,,,,732278.5999999046,732278.399999857,,732278,,732288.755,8,400,,,
break_continue,html.Screen,4_106_2,2023-11-02T21:57:32.564Z,,0,,,NaN,,,,,,false,,,,732279.0999999046,732278.899999857,,732278.7999999523,,732288.755,8,400,,,
sequence,flow.Sequence,4_106,2023-11-02T21:57:32.564Z,,0,,,3169.4729998569237,completion,,,,,false,,,,732279.2999999523,732278.899999857,729075.513,729091.5999999046,729109.427,732288.755,8,400,,,
trial,html.Screen,4_107_0,2023-11-02T21:57:35.319Z,,0,3,,2744.945000047679,response,ISIC_0071947.JPG,6,ISIC_4131697.JPG,ISIC_4131697.JPG,false,0,keypress(z),500,735034,735033.7000000477,732272.863,732279.399999857,732288.755,735053.518,8,400,8,,ISIC_0071947.JPG
break,html.Screen,4_107_1,2023-11-02T21:57:35.320Z,,0,,,NaN,,,,,,false,,,,735034.899999857,735034.5999999046,,735034.2000000477,,735053.518,8,400,,,
break_continue,html.Screen,4_107_2,2023-11-02T21:57:35.321Z,,0,,,NaN,,,,,,false,,,,735035.5,735035.2999999523,,735035.2000000477,,735053.518,8,400,,,
sequence,flow.Sequence,4_107,2023-11-02T21:57:35.321Z,,0,,,2746.5449999523116,completion,,,,,false,,,,735035.7999999523,735035.2999999523,732272.863,732279.399999857,732288.755,735053.518,8,400,,,
trial,html.Screen,4_108_0,2023-11-02T21:57:38.108Z,,0,3,,2768.7819999522762,response,ISIC_3410193.JPG,6,ISIC_0030951.JPG,ISIC_3410193.JPG,false,1,keypress(m),500,737822.5999999046,737822.2999999523,735019.925,735035.899999857,735053.518,737833.535,8,400,9,,ISIC_0030951.JPG
break,html.Screen,4_108_1,2023-11-02T21:57:38.109Z,,0,,,NaN,,,,,,false,,,,737823.7999999523,737823.399999857,,737822.899999857,,737833.535,8,400,,,
break_continue,html.Screen,4_108_2,2023-11-02T21:57:38.110Z,,0,,,NaN,,,,,,false,,,,737824.5,737824.2000000477,,737824,,737833.535,8,400,,,
sequence,flow.Sequence,4_108,2023-11-02T21:57:38.110Z,,0,,,2770.6820000476437,completion,,,,,false,,,,737824.7999999523,737824.2000000477,735019.925,735035.7999999523,735053.518,737833.535,8,400,,,
trial,html.Screen,4_109_0,2023-11-02T21:57:40.783Z,,0,3,,2664.3649998569163,response,ISIC_1165548.JPG,5,ISIC_0059943.JPG,ISIC_1165548.JPG,false,1,keypress(m),500,740498.2999999523,740497.899999857,737817.344,737824.7999999523,737833.535,740514.358,8,400,10,,ISIC_0059943.JPG
break,html.Screen,4_109_1,2023-11-02T21:57:40.784Z,,0,,,NaN,,,,,,false,,,,740499.2000000477,740499,,740498.5,,740514.358,8,400,,,
break_continue,html.Screen,4_109_2,2023-11-02T21:57:40.785Z,,0,,,NaN,,,,,,false,,,,740499.5,740499.399999857,,740499.399999857,,740514.358,8,400,,,
sequence,flow.Sequence,4_109,2023-11-02T21:57:40.785Z,,0,,,2665.8649998569163,completion,,,,,false,,,,740499.899999857,740499.399999857,737817.344,737824.7999999523,737833.535,740514.358,8,400,,,
trial,html.Screen,4_110_0,2023-11-02T21:57:43.651Z,,0,3,,2851.3420000476763,response,ISIC_0033386.JPG,6,ISIC_0057462.JPG,ISIC_0033386.JPG,false,1,keypress(m),500,743366,743365.7000000477,740498.147,740500,740514.358,743378.294,8,400,11,,ISIC_0057462.JPG
break,html.Screen,4_110_1,2023-11-02T21:57:43.652Z,,0,,,NaN,,,,,,false,,,,743366.7000000477,743366.5999999046,,743366.2000000477,,743378.294,8,400,,,
break_continue,html.Screen,4_110_2,2023-11-02T21:57:43.652Z,,0,,,NaN,,,,,,false,,,,743367.2000000477,743367.2000000477,,743367,,743378.294,8,400,,,
sequence,flow.Sequence,4_110,2023-11-02T21:57:43.653Z,,0,,,2852.8420000476763,completion,,,,,false,,,,743367.399999857,743367.2000000477,740498.147,740500,740514.358,743378.294,8,400,,,
trial,html.Screen,4_111_0,2023-11-02T21:57:52.007Z,,0,3,,8343.105999856954,response,ISIC_7592920.JPG,5,ISIC_0259179.JPG,ISIC_0259179.JPG,false,0,keypress(z),500,751721.7000000477,751721.399999857,743362.114,743367.5,743378.294,751737.076,8,400,12,,ISIC_7592920.JPG
break,html.Screen,4_111_1,2023-11-02T21:57:52.008Z,,0,,,NaN,,,,,,false,,,,751722.399999857,751722.2000000477,,751721.899999857,,751737.076,8,400,,,
break_continue,html.Screen,4_111_2,2023-11-02T21:57:52.008Z,,0,,,NaN,,,,,,false,,,,751722.899999857,751722.7999999523,,751722.5999999046,,751737.076,8,400,,,
sequence,flow.Sequence,4_111,2023-11-02T21:57:52.008Z,,0,,,8344.505999952322,completion,,,,,false,,,,751723.2000000477,751722.7999999523,743362.114,743367.399999857,743378.294,751737.076,8,400,,,
trial,html.Screen,4_112_0,2023-11-02T21:57:56.779Z,,0,3,,4757.023999904632,response,ISIC_0409276.JPG,5,ISIC_5565517.JPG,ISIC_0409276.JPG,false,1,keypress(m),500,756494.2999999523,756494.0999999046,751720.812,751723.399999857,751737.076,756499.265,8,400,13,,ISIC_5565517.JPG
break,html.Screen,4_112_1,2023-11-02T21:57:56.780Z,,0,,,NaN,,,,,,false,,,,756495.0999999046,756494.899999857,,756494.5999999046,,756499.265,8,400,,,
break_continue,html.Screen,4_112_2,2023-11-02T21:57:56.781Z,,0,,,NaN,,,,,,false,,,,756495.5,756495.2999999523,,756495.2000000477,,756499.265,8,400,,,
sequence,flow.Sequence,4_112,2023-11-02T21:57:56.781Z,,0,,,4758.223999952315,completion,,,,,false,,,,756495.5999999046,756495.2999999523,751720.812,751723.399999857,751737.076,756499.265,8,400,,,
trial,html.Screen,4_113_0,2023-11-02T21:58:01.071Z,,0,3,,4286.43500004767,response,ISIC_0014127.JPG,28,ISIC_0034100.JPG,ISIC_0034100.JPG,false,0,keypress(z),500,760786,760785.7000000477,756483.416,756495.7000000477,756499.265,760795.153,8,400,14,,ISIC_0014127.JPG
break,html.Screen,4_113_1,2023-11-02T21:58:01.072Z,,0,,,NaN,,,,,,false,,,,760786.899999857,760786.5,,760786.2000000477,,760795.153,8,400,,,
break_continue,html.Screen,4_113_2,2023-11-02T21:58:01.072Z,,0,,,NaN,,,,,,false,,,,760787.2999999523,760787.2000000477,,760787.0999999046,,760795.153,8,400,,,
sequence,flow.Sequence,4_113,2023-11-02T21:58:01.073Z,,0,,,4287.93500004767,completion,,,,,false,,,,760787.5999999046,760787.2000000477,756483.416,756495.7000000477,756499.265,760795.153,8,400,,,
trial,html.Screen,4_114_0,2023-11-02T21:58:04.293Z,,0,3,,3211.946999904583,response,ISIC_4320200.JPG,5,ISIC_4601527.JPG,ISIC_4320200.JPG,false,1,keypress(m),500,764007.399999857,764007.0999999046,760778.991,760788,760795.153,764025.952,8,400,15,,ISIC_4601527.JPG
break,html.Screen,4_114_1,2023-11-02T21:58:04.293Z,,0,,,NaN,,,,,,false,,,,764008.2000000477,764008,,764007.5999999046,,764025.952,8,400,,,
break_continue,html.Screen,4_114_2,2023-11-02T21:58:04.294Z,,0,,,NaN,,,,,,false,,,,764008.5999999046,764008.399999857,,764008.2999999523,,764025.952,8,400,,,
sequence,flow.Sequence,4_114,2023-11-02T21:58:04.294Z,,0,,,3213.2469998568995,completion,,,,,false,,,,764008.899999857,764008.399999857,760778.991,760787.7999999523,760795.153,764025.952,8,400,,,
trial,html.Screen,4_115_0,2023-11-02T21:58:08.904Z,,0,3,,4592.9479998569,response,ISIC_0025653.JPG,13,ISIC_4806829.JPG,ISIC_0025653.JPG,false,1,keypress(m),500,768619.2000000477,768618.899999857,763992.648,764009.2000000477,764025.952,768638.264,8,400,16,,ISIC_4806829.JPG
break,html.Screen,4_115_1,2023-11-02T21:58:08.905Z,,0,,,NaN,,,,,,false,,,,768620.2000000477,768619.7999999523,,768619.5,,768638.264,8,400,,,
break_continue,html.Screen,4_115_2,2023-11-02T21:58:08.906Z,,0,,,NaN,,,,,,false,,,,768620.5999999046,768620.5,,768620.2999999523,,768638.264,8,400,,,
sequence,flow.Sequence,4_115,2023-11-02T21:58:08.906Z,,0,,,4594.547999999952,completion,,,,,false,,,,768620.7000000477,768620.5,763992.648,764009.0999999046,764025.952,768638.264,8,400,,,
trial,html.Screen,4_116_0,2023-11-02T21:58:15.821Z,,0,3,,6897.53599995235,response,ISIC_0026759.JPG,6,ISIC_0012810.JPG,ISIC_0026759.JPG,false,1,keypress(m),500,775536,775535.7999999523,768605.088,768620.899999857,768638.264,775547.856,8,400,17,,ISIC_0012810.JPG
break,html.Screen,4_116_1,2023-11-02T21:58:15.822Z,,0,,,NaN,,,,,,false,,,,775536.7000000477,775536.5999999046,,775536.2000000477,,775547.856,8,400,,,
break_continue,html.Screen,4_116_2,2023-11-02T21:58:15.822Z,,0,,,NaN,,,,,,false,,,,775537.2999999523,775537.2000000477,,775537.0999999046,,775547.856,8,400,,,
sequence,flow.Sequence,4_116,2023-11-02T21:58:15.823Z,,0,,,6898.936000047717,completion,,,,,false,,,,775537.5,775537.2000000477,768605.088,768620.899999857,768638.264,775547.856,8,400,,,
trial,html.Screen,4_117_0,2023-11-02T21:58:20.304Z,,0,3,,4471.243999904604,response,ISIC_0068744.JPG,5,ISIC_0029531.JPG,ISIC_0068744.JPG,false,1,keypress(m),500,780019.2999999523,780019.0999999046,775531.677,775537.5999999046,775547.856,780027.285,8,400,18,,ISIC_0029531.JPG
break,html.Screen,4_117_1,2023-11-02T21:58:20.306Z,,0,,,NaN,,,,,,false,,,,780020.399999857,780020,,780019.5,,780027.285,8,400,,,
break_continue,html.Screen,4_117_2,2023-11-02T21:58:20.306Z,,0,,,NaN,,,,,,false,,,,780020.7000000477,780020.5999999046,,780020.5,,780027.285,8,400,,,
sequence,flow.Sequence,4_117,2023-11-02T21:58:20.306Z,,0,,,4472.743999904604,completion,,,,,false,,,,780021,780020.5999999046,775531.677,775537.5,775547.856,780027.285,8,400,,,
trial,html.Screen,4_118_0,2023-11-02T21:58:25.221Z,,0,3,,4908.415000047651,response,ISIC_0026188.JPG,22,ISIC_5942564.JPG,ISIC_5942564.JPG,false,0,keypress(z),500,784936,784935.7000000477,780010.76,780021.0999999046,780027.285,784939.251,8,400,19,,ISIC_0026188.JPG
break,html.Screen,4_118_1,2023-11-02T21:58:25.222Z,,0,,,NaN,,,,,,false,,,,784936.7999999523,784936.5,,784936.2000000477,,784939.251,8,400,,,
break_continue,html.Screen,4_118_2,2023-11-02T21:58:25.222Z,,0,,,NaN,,,,,,false,,,,784937.2999999523,784937.2000000477,,784937,,784939.251,8,400,,,
sequence,flow.Sequence,4_118,2023-11-02T21:58:25.223Z,,0,,,4909.915000047651,completion,,,,,false,,,,784937.399999857,784937.2000000477,780010.76,780021.0999999046,780027.285,784939.251,8,400,,,
trial,html.Screen,4_119_0,2023-11-02T21:58:28.602Z,,0,3,,3376.048999952269,response,ISIC_3981425.JPG,6,ISIC_0032945.JPG,ISIC_0032945.JPG,false,0,keypress(z),500,788315.5999999046,788315.2999999523,784922.824,784937.5999999046,784939.251,788335.827,8,400,20,,ISIC_3981425.JPG
break,html.Screen,4_119_1,2023-11-02T21:58:28.603Z,,0,,,NaN,,,,,,false,,,,788316.7000000477,788316.399999857,,788315.7999999523,,788335.827,8,400,,,
break_continue,html.Screen,4_119_2,2023-11-02T21:58:28.603Z,,0,,,NaN,,,,,,false,,,,788317.0999999046,788316.899999857,,788316.7999999523,,788335.827,8,400,,,
sequence,flow.Sequence,4_119,2023-11-02T21:58:28.603Z,,0,,,3377.6489998569014,completion,,,,,false,,,,788317.2999999523,788316.899999857,784922.824,784937.5,784939.251,788335.827,8,400,,,
trial,html.Screen,4_120_0,2023-11-02T21:58:32.237Z,,0,3,,3615.1729999999516,response,ISIC_0010380.JPG,4,ISIC_0011349.JPG,ISIC_0010380.JPG,false,1,keypress(m),500,791951.2999999523,791951,788319.586,788317.5,788335.827,791965.79,8,400,21,,ISIC_0011349.JPG
break,html.Screen,4_120_1,2023-11-02T21:58:32.238Z,,0,,,NaN,,,,,,false,,,,791952.0999999046,791951.899999857,,791951.5,,791965.79,8,400,,,
break_continue,html.Screen,4_120_2,2023-11-02T21:58:32.238Z,,0,,,NaN,,,,,,false,,,,791952.5,791952.399999857,,791952.2000000477,,791965.79,8,400,,,
sequence,flow.Sequence,4_120,2023-11-02T21:58:32.239Z,,0,,,3616.5729998569004,completion,,,,,false,,,,791952.7000000477,791952.399999857,788319.586,788317.399999857,788335.827,791965.79,8,400,,,
trial,html.Screen,4_121_0,2023-11-02T21:58:43.522Z,,0,3,,11269.609999856912,response,ISIC_6512653.JPG,2,ISIC_0010916.JPG,ISIC_0010916.JPG,false,0,keypress(z),500,803235.7000000477,803235.399999857,791949.603,791952.7000000477,791965.79,803238.648,8,400,22,,ISIC_6512653.JPG
break,html.Screen,4_121_1,2023-11-02T21:58:43.522Z,,0,,,NaN,,,,,,false,,,,803236.399999857,803236.2999999523,,803235.899999857,,803238.648,8,400,,,
break_continue,html.Screen,4_121_2,2023-11-02T21:58:43.523Z,,0,,,NaN,,,,,,false,,,,803237,803236.899999857,,803236.7999999523,,803238.648,8,400,,,
sequence,flow.Sequence,4_121,2023-11-02T21:58:43.523Z,,0,,,11271.109999856912,completion,,,,,false,,,,803237.399999857,803236.899999857,791949.603,791952.7000000477,791965.79,803238.648,8,400,,,
trial,html.Screen,4_122_0,2023-11-02T21:58:46.390Z,,0,3,,2864.8519999999553,response,ISIC_0030434.JPG,5,ISIC_8699796.JPG,ISIC_0030434.JPG,false,1,keypress(m),500,806103.899999857,806103.5,803222.195,803237.5999999046,803238.648,806119.078,8,400,23,,ISIC_8699796.JPG
break,html.Screen,4_122_1,2023-11-02T21:58:46.391Z,,0,,,NaN,,,,,,false,,,,806104.7000000477,806104.399999857,,806104,,806119.078,8,400,,,
break_continue,html.Screen,4_122_2,2023-11-02T21:58:46.391Z,,0,,,NaN,,,,,,false,,,,806105.2000000477,806105.0999999046,,806104.899999857,,806119.078,8,400,,,
sequence,flow.Sequence,4_122,2023-11-02T21:58:46.391Z,,0,,,2866.451999904588,completion,,,,,false,,,,806105.399999857,806105.0999999046,803222.195,803237.5,803238.648,806119.078,8,400,,,
trial,html.Screen,4_123_0,2023-11-02T21:58:49.754Z,,0,3,,3349.021999904653,response,ISIC_1569775.JPG,5,ISIC_6118824.JPG,ISIC_6118824.JPG,false,0,keypress(z),500,809468.399999857,809468.0999999046,806102.821,806105.5999999046,806119.078,809482.511,8,400,24,,ISIC_1569775.JPG
break,html.Screen,4_123_1,2023-11-02T21:58:49.755Z,,0,,,NaN,,,,,,false,,,,809469.399999857,809469,,809468.5999999046,,809482.511,8,400,,,
break_continue,html.Screen,4_123_2,2023-11-02T21:58:49.756Z,,0,,,NaN,,,,,,false,,,,809470,809469.7999999523,,809469.5999999046,,809482.511,8,400,,,
sequence,flow.Sequence,4_123,2023-11-02T21:58:49.756Z,,0,,,3350.721999952337,completion,,,,,false,,,,809470.5,809469.7999999523,806102.821,806105.5999999046,806119.078,809482.511,8,400,,,
trial,html.Screen,4_124_0,2023-11-02T21:58:56.017Z,,0,3,,6248.488999999943,response,ISIC_0008621.JPG,6,ISIC_0028248.JPG,ISIC_0008621.JPG,false,1,keypress(m),500,815731.2999999523,815731,809466.518,809470.7000000477,809482.511,815743.266,8,400,25,,ISIC_0028248.JPG
break,html.Screen,4_124_1,2023-11-02T21:58:56.018Z,,0,,,NaN,,,,,,false,,,,815732.2000000477,815731.899999857,,815731.5,,815743.266,8,400,,,
break_continue,html.Screen,4_124_2,2023-11-02T21:58:56.019Z,,0,,,NaN,,,,,,false,,,,815732.5999999046,815732.399999857,,815732.2999999523,,815743.266,8,400,,,
sequence,flow.Sequence,4_124,2023-11-02T21:58:56.019Z,,0,,,6249.888999856892,completion,,,,,false,,,,815732.7000000477,815732.399999857,809466.518,809470.7000000477,809482.511,815743.266,8,400,,,
trial,html.Screen,4_125_0,2023-11-02T21:58:59.750Z,,0,3,,3720.3339999046875,response,ISIC_6118204.JPG,5,ISIC_7984569.JPG,ISIC_6118204.JPG,false,1,keypress(m),500,819463.899999857,819463.5999999046,815727.105,815732.7999999523,815743.266,819489.795,8,400,26,,ISIC_7984569.JPG
break,html.Screen,4_125_1,2023-11-02T21:58:59.751Z,,0,,,NaN,,,,,,false,,,,819464.7999999523,819464.5999999046,,819464.0999999046,,819489.795,8,400,,,
break_continue,html.Screen,4_125_2,2023-11-02T21:58:59.751Z,,0,,,NaN,,,,,,false,,,,819465.2000000477,819465,,819465,,819489.795,8,400,,,
sequence,flow.Sequence,4_125,2023-11-02T21:58:59.751Z,,0,,,3721.734000000055,completion,,,,,false,,,,819465.5,819465,815727.105,815732.7999999523,815743.266,819489.795,8,400,,,
trial,html.Screen,4_126_0,2023-11-02T21:59:02.715Z,,0,3,,2938.5049999522744,response,ISIC_5111521.JPG,28,ISIC_0062058.JPG,ISIC_5111521.JPG,false,1,keypress(m),500,822428.5999999046,822428.2999999523,819473.155,819465.5999999046,819489.795,822436.932,8,400,27,,ISIC_0062058.JPG
