sender,sender_type,sender_id,timestamp,meta,,blockNo,condition,duration,ended_on,img_left,img_reveal,img_right,loser,practice,response,response_action,selection_duration,time_commit,time_end,time_render,time_run,time_show,time_switch,total_blocks,total_trials,trialNo,url,winner
informed_consent,html.Screen,0,2023-11-03T15:53:38.261Z,"{""labjs_version"":""20.2.4"",""labjs_build"":{""flavor"":""production"",""commit"":""f5b4a49f956347addd546a832a3327688c2c0fef""},""location"":""https://run.pavlovia.org/MurrayBennett/melanoma-2afc/?participant=65888&platform=sona"",""userAgent"":""Mozilla/5.0 (Macintosh; Intel Mac OS X 10_15_7) AppleWebKit/605.1.15 (KHTML, like Gecko) Version/16.5 Safari/605.1.15"",""platform"":""MacIntel"",""language"":""en-US"",""locale"":""en-US"",""timeZone"":""America/Chicago"",""timezoneOffset"":300,""screen_width"":1440,""screen_height"":900,""scroll_width"":1440,""scroll_height"":772,""window_innerWidth"":1440,""window_innerHeight"":820,""devicePixelRatio"":2}",,,,6176,response,,,,,,consent,click button,,12932,13122,6946,6943.000000000001,6961,12960,,,,"{""participant"":""65888"",""platform"":""sona""}",
Welcome,html.Screen,1,2023-11-03T15:53:42.146Z,,,,colourful,4063,response,,,,,,continue,click button,,16817,17006,12943,12932,12960,16843,,,,,
trial,html.Screen,2_0_0,2023-11-03T15:53:50.286Z,,0,0,,8130,response,ISIC_0063388.JPG,,ISIC_0025593.JPG,ISIC_0063388.JPG,true,1,keypress(m),500,24957,24956,16826,16818,16843,24994,1,6,1,,ISIC_0025593.JPG
sequence,flow.Sequence,2_0,2023-11-03T15:53:50.287Z,,0,,,8113,completion,,,,,true,,,,24958.000000000004,24956,16826,16818,16843,24994,1,6,,,
trial,html.Screen,2_1_0,2023-11-03T15:53:56.638Z,,0,0,,6332,response,ISIC_1309015.JPG,,ISIC_0028178.JPG,ISIC_0028178.JPG,true,0,keypress(z),500,31310.000000000004,31309,24977,24958.000000000004,24994,31344,1,6,2,,ISIC_1309015.JPG
sequence,flow.Sequence,2_1,2023-11-03T15:53:56.639Z,,0,,,6315,completion,,,,,true,,,,31310.000000000004,31309,24977,24958.000000000004,24994,31344,1,6,,,
trial,html.Screen,2_2_0,2023-11-03T15:54:01.368Z,,0,0,,4712,response,ISIC_0031128.JPG,,ISIC_3314853.JPG,ISIC_3314853.JPG,true,0,keypress(z),500,36039,36039,31327,31311,31344,36077,1,6,3,,ISIC_0031128.JPG
sequence,flow.Sequence,2_2,2023-11-03T15:54:01.368Z,,0,,,4695,completion,,,,,true,,,,36040,36039,31327,31311,31344,36077,1,6,,,
trial,html.Screen,2_3_0,2023-11-03T15:54:05.373Z,,0,0,,3983.0000000000073,response,ISIC_0031612.JPG,,ISIC_8980141.JPG,ISIC_8980141.JPG,true,0,keypress(z),500,40045,40044.00000000001,36061,36040,36077,40077,1,6,4,,ISIC_0031612.JPG
sequence,flow.Sequence,2_3,2023-11-03T15:54:05.374Z,,0,,,3967.0000000000073,completion,,,,,true,,,,40046,40044.00000000001,36061,36040,36077,40077,1,6,,,
trial,html.Screen,2_4_0,2023-11-03T15:54:10.339Z,,0,0,,4949,response,ISIC_1197737.JPG,,ISIC_9721604.JPG,ISIC_9721604.JPG,true,0,keypress(z),500,45011,45010,40061,40046,40077,45044,1,6,5,,ISIC_1197737.JPG
sequence,flow.Sequence,2_4,2023-11-03T15:54:10.339Z,,0,,,4933,completion,,,,,true,,,,45012,45010,40061,40046,40077,45044,1,6,,,
trial,html.Screen,2_5_0,2023-11-03T15:54:13.951Z,,0,0,,3595,response,ISIC_0025346.JPG,,ISIC_0010681.JPG,ISIC_0025346.JPG,true,1,keypress(m),500,48624,48623,45028,45012,45044,48661,1,6,6,,ISIC_0010681.JPG
sequence,flow.Sequence,2_5,2023-11-03T15:54:13.952Z,,0,,,3579,completion,,,,,true,,,,48624,48623,45028,45012,45044,48661,1,6,,,
loop,flow.Loop,2,2023-11-03T15:54:13.952Z,,,,,31780,completion,,,,,true,,,,48625,48623,16826,16818,16843,48661,1,6,,,
exp_instructions,html.Screen,3,2023-11-03T15:54:16.991Z,,,,,3210.0000000000073,response,,,,,,continue,keypress(Space),,51664,51855.00000000001,48645,48625,48661,51695,,,,,
trial,html.Screen,4_0_0,2023-11-03T15:54:20.954Z,,0,1,,3948,response,ISIC_0067985.JPG,8,ISIC_0006116.JPG,ISIC_0006116.JPG,false,0,keypress(z),500,55627,55626,51678,51664,51695,55661,8,400,1,,ISIC_0067985.JPG
break,html.Screen,4_0_1,2023-11-03T15:54:20.956Z,,0,,,NaN,,,,,,false,,,,55629,55628,,55627,,55661,8,400,,,
break_continue,html.Screen,4_0_2,2023-11-03T15:54:20.957Z,,0,,,NaN,,,,,,false,,,,55630,55629,,55629,,55661,8,400,,,
sequence,flow.Sequence,4_0,2023-11-03T15:54:20.957Z,,0,,,3934,completion,,,,,false,,,,55630,55629,51678,51664,51695,55661,8,400,,,
trial,html.Screen,4_1_0,2023-11-03T15:54:25.208Z,,0,1,,4235,response,ISIC_6685513.JPG,10,ISIC_3565564.JPG,ISIC_3565564.JPG,false,0,keypress(z),500,59881,59880,55645,55630,55661,59911,8,400,2,,ISIC_6685513.JPG
break,html.Screen,4_1_1,2023-11-03T15:54:25.209Z,,0,,,NaN,,,,,,false,,,,59882,59882,,59881,,59911,8,400,,,
break_continue,html.Screen,4_1_2,2023-11-03T15:54:25.210Z,,0,,,NaN,,,,,,false,,,,59883,59882,,59882,,59911,8,400,,,
sequence,flow.Sequence,4_1,2023-11-03T15:54:25.210Z,,0,,,4221,completion,,,,,false,,,,59883,59882,55645,55630,55661,59911,8,400,,,
trial,html.Screen,4_2_0,2023-11-03T15:54:28.156Z,,0,1,,2933,response,ISIC_9690263.JPG,7,ISIC_8255784.JPG,ISIC_9690263.JPG,false,1,keypress(m),500,62829,62828,59895,59883,59911,62861,8,400,3,,ISIC_8255784.JPG
break,html.Screen,4_2_1,2023-11-03T15:54:28.157Z,,0,,,NaN,,,,,,false,,,,62830,62830,,62829,,62861,8,400,,,
break_continue,html.Screen,4_2_2,2023-11-03T15:54:28.158Z,,0,,,NaN,,,,,,false,,,,62831,62830,,62830,,62861,8,400,,,
sequence,flow.Sequence,4_2,2023-11-03T15:54:28.158Z,,0,,,2919,completion,,,,,false,,,,62831,62830,59895,59883,59911,62861,8,400,,,
trial,html.Screen,4_3_0,2023-11-03T15:54:30.998Z,,0,1,,2825,response,ISIC_6535558.JPG,9,ISIC_0053541.JPG,ISIC_6535558.JPG,false,1,keypress(m),500,65671,65670,62845,62831,62861,65695,8,400,4,,ISIC_0053541.JPG
break,html.Screen,4_3_1,2023-11-03T15:54:30.999Z,,0,,,NaN,,,,,,false,,,,65672,65672,,65671,,65695,8,400,,,
break_continue,html.Screen,4_3_2,2023-11-03T15:54:31.000Z,,0,,,NaN,,,,,,false,,,,65673,65673,,65672,,65695,8,400,,,
sequence,flow.Sequence,4_3,2023-11-03T15:54:31.000Z,,0,,,2812,completion,,,,,false,,,,65673,65673,62845,62831,62861,65695,8,400,,,
trial,html.Screen,4_4_0,2023-11-03T15:54:34.124Z,,0,1,,3118,response,ISIC_9881460.JPG,1,ISIC_8109460.JPG,ISIC_8109460.JPG,false,0,keypress(z),500,68797,68796,65678,65674,65695,68828,8,400,5,,ISIC_9881460.JPG
break,html.Screen,4_4_1,2023-11-03T15:54:34.126Z,,0,,,NaN,,,,,,false,,,,68799,68798,,68797,,68828,8,400,,,
break_continue,html.Screen,4_4_2,2023-11-03T15:54:34.126Z,,0,,,NaN,,,,,,false,,,,68800,68799,,68799,,68828,8,400,,,
sequence,flow.Sequence,4_4,2023-11-03T15:54:34.127Z,,0,,,3104,completion,,,,,false,,,,68800,68799,65678,65673,65695,68828,8,400,,,
trial,html.Screen,4_5_0,2023-11-03T15:54:37.286Z,,0,1,,3146,response,ISIC_0030970.JPG,7,ISIC_1470934.JPG,ISIC_1470934.JPG,false,0,keypress(z),500,71959,71958,68812,68800,68828,71995,8,400,6,,ISIC_0030970.JPG
break,html.Screen,4_5_1,2023-11-03T15:54:37.287Z,,0,,,NaN,,,,,,false,,,,71961,71960.00000000001,,71960.00000000001,,71995,8,400,,,
break_continue,html.Screen,4_5_2,2023-11-03T15:54:37.288Z,,0,,,NaN,,,,,,false,,,,71961,71961,,71961,,71995,8,400,,,
sequence,flow.Sequence,4_5,2023-11-03T15:54:37.288Z,,0,,,3133,completion,,,,,false,,,,71961,71961,68812,68800,68828,71995,8,400,,,
trial,html.Screen,4_6_0,2023-11-03T15:54:40.005Z,,0,1,,2697,response,ISIC_0061915.JPG,14,ISIC_7798358.JPG,ISIC_7798358.JPG,false,0,keypress(z),500,74677,74676,71979,71962,71995,74712,8,400,7,,ISIC_0061915.JPG
break,html.Screen,4_6_1,2023-11-03T15:54:40.007Z,,0,,,NaN,,,,,,false,,,,74678,74678,,74677,,74712,8,400,,,
break_continue,html.Screen,4_6_2,2023-11-03T15:54:40.007Z,,0,,,NaN,,,,,,false,,,,74679,74678,,74678,,74712,8,400,,,
sequence,flow.Sequence,4_6,2023-11-03T15:54:40.008Z,,0,,,2683,completion,,,,,false,,,,74679,74678,71979,71962,71995,74712,8,400,,,
trial,html.Screen,4_7_0,2023-11-03T15:54:45.027Z,,0,1,,4999.000000000015,response,ISIC_0034208.JPG,13,ISIC_0033518.JPG,ISIC_0034208.JPG,false,1,keypress(m),500,79695.00000000001,79695.00000000001,74696,74679,74712,79729,8,400,8,,ISIC_0033518.JPG
break,html.Screen,4_7_1,2023-11-03T15:54:45.028Z,,0,,,NaN,,,,,,false,,,,79697,79696,,79696,,79729,8,400,,,
break_continue,html.Screen,4_7_2,2023-11-03T15:54:45.028Z,,0,,,NaN,,,,,,false,,,,79697,79697,,79697,,79729,8,400,,,
sequence,flow.Sequence,4_7,2023-11-03T15:54:45.029Z,,0,,,4985,completion,,,,,false,,,,79698.00000000001,79697,74696,74679,74712,79729,8,400,,,
trial,html.Screen,4_8_0,2023-11-03T15:54:49.723Z,,0,1,,4678,response,ISIC_8953848.JPG,10,ISIC_1783062.JPG,ISIC_1783062.JPG,false,0,keypress(z),500,84391,84390,79712,79698.00000000001,79729,84413,8,400,9,,ISIC_8953848.JPG
break,html.Screen,4_8_1,2023-11-03T15:54:49.725Z,,0,,,NaN,,,,,,false,,,,84392,84392,,84391,,84413,8,400,,,
break_continue,html.Screen,4_8_2,2023-11-03T15:54:49.725Z,,0,,,NaN,,,,,,false,,,,84392,84392,,84392,,84413,8,400,,,
sequence,flow.Sequence,4_8,2023-11-03T15:54:49.725Z,,0,,,4663,completion,,,,,false,,,,84393,84392,79712,79698.00000000001,79729,84413,8,400,,,
trial,html.Screen,4_9_0,2023-11-03T15:54:52.439Z,,0,1,,2710,response,ISIC_2682861.JPG,16,ISIC_0026087.JPG,ISIC_2682861.JPG,false,1,keypress(m),500,87106.00000000001,87105,84395,84393,84413,87129,8,400,10,,ISIC_0026087.JPG
break,html.Screen,4_9_1,2023-11-03T15:54:52.440Z,,0,,,NaN,,,,,,false,,,,87107,87107,,87106.00000000001,,87129,8,400,,,
break_continue,html.Screen,4_9_2,2023-11-03T15:54:52.441Z,,0,,,NaN,,,,,,false,,,,87107,87107,,87107,,87129,8,400,,,
sequence,flow.Sequence,4_9,2023-11-03T15:54:52.441Z,,0,,,2694,completion,,,,,false,,,,87107,87107,84395,84393,84413,87129,8,400,,,
trial,html.Screen,4_10_0,2023-11-03T15:54:56.079Z,,0,1,,3632,response,ISIC_4915897.JPG,1,ISIC_5149162.JPG,ISIC_4915897.JPG,false,1,keypress(m),500,90745,90744,87112,87108,87129,90779,8,400,11,,ISIC_5149162.JPG
break,html.Screen,4_10_1,2023-11-03T15:54:56.081Z,,0,,,NaN,,,,,,false,,,,90746,90746,,90745,,90779,8,400,,,
break_continue,html.Screen,4_10_2,2023-11-03T15:54:56.081Z,,0,,,NaN,,,,,,false,,,,90747,90746,,90746,,90779,8,400,,,
sequence,flow.Sequence,4_10,2023-11-03T15:54:56.081Z,,0,,,3617,completion,,,,,false,,,,90747,90746,87112,87108,87129,90779,8,400,,,
trial,html.Screen,4_11_0,2023-11-03T15:54:59.060Z,,0,1,,2962.0000000000146,response,ISIC_0065807.JPG,12,ISIC_0011508.JPG,ISIC_0011508.JPG,false,0,keypress(z),500,93725.00000000001,93725.00000000001,90763,90747,90779,93763,8,400,12,,ISIC_0065807.JPG
break,html.Screen,4_11_1,2023-11-03T15:54:59.061Z,,0,,,NaN,,,,,,false,,,,93726,93726,,93725.00000000001,,93763,8,400,,,
break_continue,html.Screen,4_11_2,2023-11-03T15:54:59.062Z,,0,,,NaN,,,,,,false,,,,93727,93727,,93727,,93763,8,400,,,
sequence,flow.Sequence,4_11,2023-11-03T15:54:59.062Z,,0,,,2948,completion,,,,,false,,,,93727,93727,90763,90747,90779,93763,8,400,,,
trial,html.Screen,4_12_0,2023-11-03T15:55:02.546Z,,0,1,,3463.0000000000146,response,ISIC_9088073.JPG,15,ISIC_8246858.JPG,ISIC_9088073.JPG,false,1,keypress(m),500,97211,97210.00000000001,93747,93727,93763,97230,8,400,13,,ISIC_8246858.JPG
break,html.Screen,4_12_1,2023-11-03T15:55:02.547Z,,0,,,NaN,,,,,,false,,,,97212,97212,,97211,,97230,8,400,,,
break_continue,html.Screen,4_12_2,2023-11-03T15:55:02.548Z,,0,,,NaN,,,,,,false,,,,97212,97212,,97212,,97230,8,400,,,
sequence,flow.Sequence,4_12,2023-11-03T15:55:02.548Z,,0,,,3449,completion,,,,,false,,,,97213.00000000001,97212,93747,93727,93763,97230,8,400,,,
trial,html.Screen,4_13_0,2023-11-03T15:55:05.335Z,,0,1,,2784,response,ISIC_2721699.JPG,13,ISIC_0011857.JPG,ISIC_2721699.JPG,false,1,keypress(m),500,99999,99999,97215,97213.00000000001,97230,100030,8,400,14,,ISIC_0011857.JPG
break,html.Screen,4_13_1,2023-11-03T15:55:05.336Z,,0,,,NaN,,,,,,false,,,,100001,100000,,100000,,100030,8,400,,,
break_continue,html.Screen,4_13_2,2023-11-03T15:55:05.337Z,,0,,,NaN,,,,,,false,,,,100001,100001,,100001,,100030,8,400,,,
sequence,flow.Sequence,4_13,2023-11-03T15:55:05.337Z,,0,,,2771,completion,,,,,false,,,,100001,100001,97215,97213.00000000001,97230,100030,8,400,,,
trial,html.Screen,4_14_0,2023-11-03T15:55:07.969Z,,0,1,,2620,response,ISIC_0011012.JPG,7,ISIC_8584748.JPG,ISIC_0011012.JPG,false,1,keypress(m),500,102634,102633,100013,100001,100030,102663,8,400,15,,ISIC_8584748.JPG
break,html.Screen,4_14_1,2023-11-03T15:55:07.971Z,,0,,,NaN,,,,,,false,,,,102635,102635,,102634,,102663,8,400,,,
break_continue,html.Screen,4_14_2,2023-11-03T15:55:07.971Z,,0,,,NaN,,,,,,false,,,,102636,102635,,102635,,102663,8,400,,,
sequence,flow.Sequence,4_14,2023-11-03T15:55:07.972Z,,0,,,2605,completion,,,,,false,,,,102636,102635,100013,100001,100030,102663,8,400,,,
trial,html.Screen,4_15_0,2023-11-03T15:55:10.540Z,,0,1,,2556,response,ISIC_7108282.JPG,6,ISIC_0066952.JPG,ISIC_0066952.JPG,false,0,keypress(z),500,105204.00000000001,105203,102647,102636,102663,105229,8,400,16,,ISIC_7108282.JPG
break,html.Screen,4_15_1,2023-11-03T15:55:10.541Z,,0,,,NaN,,,,,,false,,,,105205,105205,,105204.00000000001,,105229,8,400,,,
break_continue,html.Screen,4_15_2,2023-11-03T15:55:10.541Z,,0,,,NaN,,,,,,false,,,,105205,105205,,105205,,105229,8,400,,,
sequence,flow.Sequence,4_15,2023-11-03T15:55:10.542Z,,0,,,2542,completion,,,,,false,,,,105206,105205,102647,102636,102663,105229,8,400,,,
trial,html.Screen,4_16_0,2023-11-03T15:55:13.085Z,,0,1,,2535,response,ISIC_9094080.JPG,3,ISIC_9571842.JPG,ISIC_9094080.JPG,false,1,keypress(m),500,107749,107748,105213,105206,105229,107780,8,400,17,,ISIC_9571842.JPG
break,html.Screen,4_16_1,2023-11-03T15:55:13.087Z,,0,,,NaN,,,,,,false,,,,107751,107750,,107749,,107780,8,400,,,
break_continue,html.Screen,4_16_2,2023-11-03T15:55:13.087Z,,0,,,NaN,,,,,,false,,,,107751,107751,,107751,,107780,8,400,,,
sequence,flow.Sequence,4_16,2023-11-03T15:55:13.087Z,,0,,,2522,completion,,,,,false,,,,107751,107751,105213,105206,105229,107780,8,400,,,
trial,html.Screen,4_17_0,2023-11-03T15:55:16.424Z,,0,1,,3325.0000000000146,response,ISIC_3520750.JPG,8,ISIC_7976934.JPG,ISIC_3520750.JPG,false,1,keypress(m),500,111088.00000000001,111088.00000000001,107763,107751,107780,111113,8,400,18,,ISIC_7976934.JPG
break,html.Screen,4_17_1,2023-11-03T15:55:16.426Z,,0,,,NaN,,,,,,false,,,,111089,111089,,111088.00000000001,,111113,8,400,,,
break_continue,html.Screen,4_17_2,2023-11-03T15:55:16.426Z,,0,,,NaN,,,,,,false,,,,111090,111090,,111090,,111113,8,400,,,
sequence,flow.Sequence,4_17,2023-11-03T15:55:16.426Z,,0,,,3310,completion,,,,,false,,,,111090,111090,107763,107751,107780,111113,8,400,,,
trial,html.Screen,4_18_0,2023-11-03T15:55:19.079Z,,0,1,,2645,response,ISIC_0010514.JPG,3,ISIC_9072567.JPG,ISIC_9072567.JPG,false,0,keypress(z),500,113743.00000000001,113742,111097,111090,111113,113780,8,400,19,,ISIC_0010514.JPG
break,html.Screen,4_18_1,2023-11-03T15:55:19.081Z,,0,,,NaN,,,,,,false,,,,113744,113744,,113743.00000000001,,113780,8,400,,,
break_continue,html.Screen,4_18_2,2023-11-03T15:55:19.081Z,,0,,,NaN,,,,,,false,,,,113745,113745,,113745,,113780,8,400,,,
sequence,flow.Sequence,4_18,2023-11-03T15:55:19.082Z,,0,,,2632,completion,,,,,false,,,,113745,113745,111097,111090,111113,113780,8,400,,,
trial,html.Screen,4_19_0,2023-11-03T15:55:22.178Z,,0,1,,3077.0000000000146,response,ISIC_0016103.JPG,14,ISIC_8105020.JPG,ISIC_8105020.JPG,false,0,keypress(z),500,116842,116841.00000000001,113764,113746.00000000001,113780,116864,8,400,20,,ISIC_0016103.JPG
break,html.Screen,4_19_1,2023-11-03T15:55:22.179Z,,0,,,NaN,,,,,,false,,,,116843,116843,,116842,,116864,8,400,,,
break_continue,html.Screen,4_19_2,2023-11-03T15:55:22.180Z,,0,,,NaN,,,,,,false,,,,116844.00000000001,116843,,116843,,116864,8,400,,,
sequence,flow.Sequence,4_19,2023-11-03T15:55:22.180Z,,0,,,3063,completion,,,,,false,,,,116844.00000000001,116843,113764,113746.00000000001,113780,116864,8,400,,,
trial,html.Screen,4_20_0,2023-11-03T15:55:24.742Z,,0,1,,2558,response,ISIC_3676643.JPG,16,ISIC_0597218.JPG,ISIC_3676643.JPG,false,1,keypress(m),500,119406,119405,116847,116844.00000000001,116864,119431,8,400,21,,ISIC_0597218.JPG
break,html.Screen,4_20_1,2023-11-03T15:55:24.744Z,,0,,,NaN,,,,,,false,,,,119407,119407,,119406,,119431,8,400,,,
break_continue,html.Screen,4_20_2,2023-11-03T15:55:24.744Z,,0,,,NaN,,,,,,false,,,,119408,119408,,119408,,119431,8,400,,,
sequence,flow.Sequence,4_20,2023-11-03T15:55:24.744Z,,0,,,2544,completion,,,,,false,,,,119408,119408,116847,116844.00000000001,116864,119431,8,400,,,
trial,html.Screen,4_21_0,2023-11-03T15:55:27.366Z,,0,1,,2615,response,ISIC_8635849.JPG,1,ISIC_0067733.JPG,ISIC_8635849.JPG,false,1,keypress(m),500,122029,122029,119414,119408,119431,122064,8,400,22,,ISIC_0067733.JPG
break,html.Screen,4_21_1,2023-11-03T15:55:27.367Z,,0,,,NaN,,,,,,false,,,,122031,122030,,122030,,122064,8,400,,,
break_continue,html.Screen,4_21_2,2023-11-03T15:55:27.367Z,,0,,,NaN,,,,,,false,,,,122031,122031,,122031,,122064,8,400,,,
sequence,flow.Sequence,4_21,2023-11-03T15:55:27.368Z,,0,,,2600,completion,,,,,false,,,,122032,122031,119414,119408,119431,122064,8,400,,,
trial,html.Screen,4_22_0,2023-11-03T15:55:30.074Z,,0,1,,2690.0000000000146,response,ISIC_0010231.JPG,11,ISIC_0010017.JPG,ISIC_0010017.JPG,false,0,keypress(z),500,124738,124737.00000000001,122047,122032,122064,124764,8,400,23,,ISIC_0010231.JPG
break,html.Screen,4_22_1,2023-11-03T15:55:30.075Z,,0,,,NaN,,,,,,false,,,,124739,124739,,124738,,124764,8,400,,,
break_continue,html.Screen,4_22_2,2023-11-03T15:55:30.076Z,,0,,,NaN,,,,,,false,,,,124739,124739,,124739,,124764,8,400,,,
sequence,flow.Sequence,4_22,2023-11-03T15:55:30.076Z,,0,,,2675,completion,,,,,false,,,,124740.00000000001,124739,122047,122032,122064,124764,8,400,,,
trial,html.Screen,4_23_0,2023-11-03T15:55:32.708Z,,0,1,,2624.0000000000146,response,ISIC_9655520.JPG,3,ISIC_0061972.JPG,ISIC_0061972.JPG,false,0,keypress(z),500,127372,127371.00000000001,124747,124740.00000000001,124764,127398,8,400,24,,ISIC_9655520.JPG
break,html.Screen,4_23_1,2023-11-03T15:55:32.709Z,,0,,,NaN,,,,,,false,,,,127373,127373,,127372,,127398,8,400,,,
break_continue,html.Screen,4_23_2,2023-11-03T15:55:32.710Z,,0,,,NaN,,,,,,false,,,,127373,127373,,127373,,127398,8,400,,,
sequence,flow.Sequence,4_23,2023-11-03T15:55:32.710Z,,0,,,2609,completion,,,,,false,,,,127374.00000000001,127373,124747,124740.00000000001,124764,127398,8,400,,,
trial,html.Screen,4_24_0,2023-11-03T15:55:35.465Z,,0,1,,2747.9999999999854,response,ISIC_0011669.JPG,3,ISIC_7407847.JPG,ISIC_7407847.JPG,false,0,keypress(z),500,130128.99999999999,130128.99999999999,127381,127374.00000000001,127398,130164,8,400,25,,ISIC_0011669.JPG
break,html.Screen,4_24_1,2023-11-03T15:55:35.467Z,,0,,,NaN,,,,,,false,,,,130130,130130,,130128.99999999999,,130164,8,400,,,
break_continue,html.Screen,4_24_2,2023-11-03T15:55:35.467Z,,0,,,NaN,,,,,,false,,,,130131,130131,,130131,,130164,8,400,,,
sequence,flow.Sequence,4_24,2023-11-03T15:55:35.467Z,,0,,,2733,completion,,,,,false,,,,130131,130131,127381,127374.00000000001,127398,130164,8,400,,,
trial,html.Screen,4_25_0,2023-11-03T15:55:38.985Z,,0,1,,3500,response,ISIC_3272999.JPG,12,ISIC_2375394.JPG,ISIC_2375394.JPG,false,0,keypress(z),500,133648,133648,130148,130131,130164,133681,8,400,26,,ISIC_3272999.JPG
break,html.Screen,4_25_1,2023-11-03T15:55:38.986Z,,0,,,NaN,,,,,,false,,,,133650,133649,,133649,,133681,8,400,,,
break_continue,html.Screen,4_25_2,2023-11-03T15:55:38.986Z,,0,,,NaN,,,,,,false,,,,133650,133650,,133650,,133681,8,400,,,
sequence,flow.Sequence,4_25,2023-11-03T15:55:38.986Z,,0,,,3486,completion,,,,,false,,,,133650,133650,130148,130131,130164,133681,8,400,,,
trial,html.Screen,4_26_0,2023-11-03T15:55:41.598Z,,0,1,,2596,response,ISIC_0030047.JPG,10,ISIC_0033125.JPG,ISIC_0030047.JPG,false,1,keypress(m),500,136262,136261,133665,133650,133681,136298,8,400,27,,ISIC_0033125.JPG
break,html.Screen,4_26_1,2023-11-03T15:55:41.599Z,,0,,,NaN,,,,,,false,,,,136263,136263,,136262,,136298,8,400,,,
break_continue,html.Screen,4_26_2,2023-11-03T15:55:41.599Z,,0,,,NaN,,,,,,false,,,,136263,136263,,136263,,136298,8,400,,,
sequence,flow.Sequence,4_26,2023-11-03T15:55:41.600Z,,0,,,2582,completion,,,,,false,,,,136263,136263,133665,133650,133681,136298,8,400,,,
trial,html.Screen,4_27_0,2023-11-03T15:55:44.710Z,,0,1,,3093,response,ISIC_2642742.JPG,13,ISIC_0057692.JPG,ISIC_2642742.JPG,false,1,keypress(m),500,139374,139374,136281,136264,136298,139398,8,400,28,,ISIC_0057692.JPG
break,html.Screen,4_27_1,2023-11-03T15:55:44.711Z,,0,,,NaN,,,,,,false,,,,139375,139375,,139375,,139398,8,400,,,
break_continue,html.Screen,4_27_2,2023-11-03T15:55:44.712Z,,0,,,NaN,,,,,,false,,,,139376,139376,,139376,,139398,8,400,,,
sequence,flow.Sequence,4_27,2023-11-03T15:55:44.712Z,,0,,,3078,completion,,,,,false,,,,139376,139376,136281,136264,136298,139398,8,400,,,
trial,html.Screen,4_28_0,2023-11-03T15:55:47.582Z,,0,1,,2865,response,ISIC_3416324.JPG,1,ISIC_0027798.JPG,ISIC_3416324.JPG,false,1,keypress(m),500,142246,142246,139381,139376,139398,142281,8,400,29,,ISIC_0027798.JPG
break,html.Screen,4_28_1,2023-11-03T15:55:47.583Z,,0,,,NaN,,,,,,false,,,,142247,142247,,142247,,142281,8,400,,,
break_continue,html.Screen,4_28_2,2023-11-03T15:55:47.584Z,,0,,,NaN,,,,,,false,,,,142248,142248,,142247,,142281,8,400,,,
sequence,flow.Sequence,4_28,2023-11-03T15:55:47.584Z,,0,,,2850,completion,,,,,false,,,,142248,142248,139381,139376,139398,142281,8,400,,,
trial,html.Screen,4_29_0,2023-11-03T15:55:50.280Z,,0,1,,2678,response,ISIC_2372468.JPG,13,ISIC_0056167.JPG,ISIC_2372468.JPG,false,1,keypress(m),500,144944.00000000003,144943,142265,142248,142281,144982,8,400,30,,ISIC_0056167.JPG
break,html.Screen,4_29_1,2023-11-03T15:55:50.281Z,,0,,,NaN,,,,,,false,,,,144945,144945,,144944.00000000003,,144982,8,400,,,
break_continue,html.Screen,4_29_2,2023-11-03T15:55:50.281Z,,0,,,NaN,,,,,,false,,,,144945,144945,,144945,,144982,8,400,,,
sequence,flow.Sequence,4_29,2023-11-03T15:55:50.282Z,,0,,,2664,completion,,,,,false,,,,144946,144945,142265,142248,142281,144982,8,400,,,
trial,html.Screen,4_30_0,2023-11-03T15:55:53.204Z,,0,1,,2903,response,ISIC_0510617.JPG,14,ISIC_5182148.JPG,ISIC_5182148.JPG,false,0,keypress(z),500,147869,147868,144965,144946,144982,147899,8,400,31,,ISIC_0510617.JPG
break,html.Screen,4_30_1,2023-11-03T15:55:53.205Z,,0,,,NaN,,,,,,false,,,,147870,147870,,147869,,147899,8,400,,,
break_continue,html.Screen,4_30_2,2023-11-03T15:55:53.206Z,,0,,,NaN,,,,,,false,,,,147870,147870,,147870,,147899,8,400,,,
sequence,flow.Sequence,4_30,2023-11-03T15:55:53.206Z,,0,,,2888,completion,,,,,false,,,,147870,147870,144965,144946,144982,147899,8,400,,,
trial,html.Screen,4_31_0,2023-11-03T15:55:55.881Z,,0,1,,2664.000000000029,response,ISIC_0062546.JPG,7,ISIC_2412888.JPG,ISIC_2412888.JPG,false,0,keypress(z),500,150545.00000000003,150545.00000000003,147881,147871,147899,150582,8,400,32,,ISIC_0062546.JPG
break,html.Screen,4_31_1,2023-11-03T15:55:55.882Z,,0,,,NaN,,,,,,false,,,,150547,150546,,150546,,150582,8,400,,,
break_continue,html.Screen,4_31_2,2023-11-03T15:55:55.883Z,,0,,,NaN,,,,,,false,,,,150547,150547,,150547,,150582,8,400,,,
sequence,flow.Sequence,4_31,2023-11-03T15:55:55.883Z,,0,,,2648,completion,,,,,false,,,,150547,150547,147881,147870,147899,150582,8,400,,,
trial,html.Screen,4_32_0,2023-11-03T15:55:58.591Z,,0,1,,2690,response,ISIC_0062301.JPG,13,ISIC_5362869.JPG,ISIC_0062301.JPG,false,1,keypress(m),500,153256,153255,150565,150547,150582,153282,8,400,33,,ISIC_5362869.JPG
break,html.Screen,4_32_1,2023-11-03T15:55:58.592Z,,0,,,NaN,,,,,,false,,,,153257,153257,,153256,,153282,8,400,,,
break_continue,html.Screen,4_32_2,2023-11-03T15:55:58.593Z,,0,,,NaN,,,,,,false,,,,153257,153257,,153257,,153282,8,400,,,
sequence,flow.Sequence,4_32,2023-11-03T15:55:58.593Z,,0,,,2675,completion,,,,,false,,,,153258,153257,150565,150547,150582,153282,8,400,,,
trial,html.Screen,4_33_0,2023-11-03T15:56:01.627Z,,0,1,,3026,response,ISIC_2979268.JPG,3,ISIC_7096389.JPG,ISIC_2979268.JPG,false,1,keypress(m),500,156292,156291,153265,153258,153282,156315,8,400,34,,ISIC_7096389.JPG
break,html.Screen,4_33_1,2023-11-03T15:56:01.628Z,,0,,,NaN,,,,,,false,,,,156293,156293,,156292,,156315,8,400,,,
break_continue,html.Screen,4_33_2,2023-11-03T15:56:01.629Z,,0,,,NaN,,,,,,false,,,,156294,156294,,156293,,156315,8,400,,,
sequence,flow.Sequence,4_33,2023-11-03T15:56:01.629Z,,0,,,3012,completion,,,,,false,,,,156294,156294,153265,153258,153282,156315,8,400,,,
trial,html.Screen,4_34_0,2023-11-03T15:56:04.420Z,,0,1,,2787,response,ISIC_5787517.JPG,16,ISIC_4529092.JPG,ISIC_4529092.JPG,false,0,keypress(z),500,159085,159085,156298,156294,156315,159116,8,400,35,,ISIC_5787517.JPG
break,html.Screen,4_34_1,2023-11-03T15:56:04.422Z,,0,,,NaN,,,,,,false,,,,159086,159086,,159085,,159116,8,400,,,
break_continue,html.Screen,4_34_2,2023-11-03T15:56:04.422Z,,0,,,NaN,,,,,,false,,,,159087.00000000003,159087.00000000003,,159087.00000000003,,159116,8,400,,,
sequence,flow.Sequence,4_34,2023-11-03T15:56:04.422Z,,0,,,2772.000000000029,completion,,,,,false,,,,159087.00000000003,159087.00000000003,156298,156294,156315,159116,8,400,,,
trial,html.Screen,4_35_0,2023-11-03T15:56:07.136Z,,0,1,,2701,response,ISIC_0010651.JPG,8,ISIC_9069800.JPG,ISIC_9069800.JPG,false,0,keypress(z),500,161801.00000000003,161800,159099,159087.00000000003,159116,161832,8,400,36,,ISIC_0010651.JPG
break,html.Screen,4_35_1,2023-11-03T15:56:07.137Z,,0,,,NaN,,,,,,false,,,,161802,161802,,161801.00000000003,,161832,8,400,,,
break_continue,html.Screen,4_35_2,2023-11-03T15:56:07.138Z,,0,,,NaN,,,,,,false,,,,161802,161802,,161802,,161832,8,400,,,
sequence,flow.Sequence,4_35,2023-11-03T15:56:07.138Z,,0,,,2686,completion,,,,,false,,,,161802,161802,159099,159087.00000000003,159116,161832,8,400,,,
trial,html.Screen,4_36_0,2023-11-03T15:56:09.678Z,,0,1,,2528,response,ISIC_0033526.JPG,9,ISIC_2998367.JPG,ISIC_2998367.JPG,false,0,keypress(z),500,164343,164343,161815,161803,161832,164366,8,400,37,,ISIC_0033526.JPG
break,html.Screen,4_36_1,2023-11-03T15:56:09.680Z,,0,,,NaN,,,,,,false,,,,164344,164344,,164344,,164366,8,400,,,
break_continue,html.Screen,4_36_2,2023-11-03T15:56:09.680Z,,0,,,NaN,,,,,,false,,,,164345,164345,,164345,,164366,8,400,,,
sequence,flow.Sequence,4_36,2023-11-03T15:56:09.680Z,,0,,,2513,completion,,,,,false,,,,164345,164345,161815,161803,161832,164366,8,400,,,
trial,html.Screen,4_37_0,2023-11-03T15:56:12.400Z,,0,1,,2716,response,ISIC_6831108.JPG,0,ISIC_0000801.JPG,ISIC_0000801.JPG,false,0,keypress(z),500,167065,167065,164349,164345,164366,167099,8,400,38,,ISIC_6831108.JPG
break,html.Screen,4_37_1,2023-11-03T15:56:12.402Z,,0,,,NaN,,,,,,false,,,,167067,167066,,167066,,167099,8,400,,,
break_continue,html.Screen,4_37_2,2023-11-03T15:56:12.402Z,,0,,,NaN,,,,,,false,,,,167067,167067,,167067,,167099,8,400,,,
sequence,flow.Sequence,4_37,2023-11-03T15:56:12.402Z,,0,,,2701,completion,,,,,false,,,,167067,167067,164349,164345,164366,167099,8,400,,,
trial,html.Screen,4_38_0,2023-11-03T15:56:15.019Z,,0,1,,2601,response,ISIC_4964478.JPG,11,ISIC_0046422.JPG,ISIC_4964478.JPG,false,1,keypress(m),500,169684,169683,167082,167068,167099,169716,8,400,39,,ISIC_0046422.JPG
break,html.Screen,4_38_1,2023-11-03T15:56:15.020Z,,0,,,NaN,,,,,,false,,,,169685,169685,,169684,,169716,8,400,,,
break_continue,html.Screen,4_38_2,2023-11-03T15:56:15.020Z,,0,,,NaN,,,,,,false,,,,169685,169685,,169685,,169716,8,400,,,
sequence,flow.Sequence,4_38,2023-11-03T15:56:15.020Z,,0,,,2586,completion,,,,,false,,,,169686,169685,167082,167068,167099,169716,8,400,,,
trial,html.Screen,4_39_0,2023-11-03T15:56:17.544Z,,0,1,,2510,response,ISIC_0609067.JPG,10,ISIC_8612828.JPG,ISIC_8612828.JPG,false,0,keypress(z),500,172210,172209,169699,169686,169716,172233,8,400,40,,ISIC_0609067.JPG
break,html.Screen,4_39_1,2023-11-03T15:56:17.546Z,,0,,,NaN,,,,,,false,,,,172211,172211,,172210,,172233,8,400,,,
break_continue,html.Screen,4_39_2,2023-11-03T15:56:17.546Z,,0,,,NaN,,,,,,false,,,,172211,172211,,172211,,172233,8,400,,,
sequence,flow.Sequence,4_39,2023-11-03T15:56:17.546Z,,0,,,2495,completion,,,,,false,,,,172211,172211,169699,169686,169716,172233,8,400,,,
trial,html.Screen,4_40_0,2023-11-03T15:56:20.131Z,,0,1,,2580,response,ISIC_5895384.JPG,0,ISIC_0026204.JPG,ISIC_0026204.JPG,false,0,keypress(z),500,174796,174796,172216,172211,172233,174833,8,400,41,,ISIC_5895384.JPG
break,html.Screen,4_40_1,2023-11-03T15:56:20.132Z,,0,,,NaN,,,,,,false,,,,174798,174797,,174797,,174833,8,400,,,
break_continue,html.Screen,4_40_2,2023-11-03T15:56:20.133Z,,0,,,NaN,,,,,,false,,,,174798,174798,,174798,,174833,8,400,,,
sequence,flow.Sequence,4_40,2023-11-03T15:56:20.133Z,,0,,,2565,completion,,,,,false,,,,174798,174798,172216,172211,172233,174833,8,400,,,
trial,html.Screen,4_41_0,2023-11-03T15:56:22.650Z,,0,1,,2498,response,ISIC_9596721.JPG,13,ISIC_0010143.JPG,ISIC_0010143.JPG,false,0,keypress(z),500,177316,177315,174817,174798,174833,177350,8,400,42,,ISIC_9596721.JPG
break,html.Screen,4_41_1,2023-11-03T15:56:22.651Z,,0,,,NaN,,,,,,false,,,,177317,177317,,177316,,177350,8,400,,,
break_continue,html.Screen,4_41_2,2023-11-03T15:56:22.652Z,,0,,,NaN,,,,,,false,,,,177317,177317,,177317,,177350,8,400,,,
sequence,flow.Sequence,4_41,2023-11-03T15:56:22.652Z,,0,,,2484,completion,,,,,false,,,,177317,177317,174817,174798,174833,177350,8,400,,,
trial,html.Screen,4_42_0,2023-11-03T15:56:27.092Z,,0,1,,4424,response,ISIC_0063655.JPG,11,ISIC_1628539.JPG,ISIC_1628539.JPG,false,0,keypress(z),500,181757,181757,177333,177317,177350,181783,8,400,43,,ISIC_0063655.JPG
break,html.Screen,4_42_1,2023-11-03T15:56:27.093Z,,0,,,NaN,,,,,,false,,,,181759,181758,,181758,,181783,8,400,,,
break_continue,html.Screen,4_42_2,2023-11-03T15:56:27.094Z,,0,,,NaN,,,,,,false,,,,181759,181759,,181759,,181783,8,400,,,
sequence,flow.Sequence,4_42,2023-11-03T15:56:27.094Z,,0,,,4409,completion,,,,,false,,,,181759,181759,177333,177317,177350,181783,8,400,,,
trial,html.Screen,4_43_0,2023-11-03T15:56:29.681Z,,0,1,,2580,response,ISIC_0010262.JPG,2,ISIC_2489146.JPG,ISIC_2489146.JPG,false,0,keypress(z),500,184347,184346,181766,181759,181783,184383,8,400,44,,ISIC_0010262.JPG
break,html.Screen,4_43_1,2023-11-03T15:56:29.683Z,,0,,,NaN,,,,,,false,,,,184348,184348,,184347,,184383,8,400,,,
break_continue,html.Screen,4_43_2,2023-11-03T15:56:29.683Z,,0,,,NaN,,,,,,false,,,,184349.00000000003,184349.00000000003,,184348,,184383,8,400,,,
sequence,flow.Sequence,4_43,2023-11-03T15:56:29.683Z,,0,,,2566.000000000029,completion,,,,,false,,,,184349.00000000003,184349.00000000003,181766,181759,181783,184383,8,400,,,
trial,html.Screen,4_44_0,2023-11-03T15:56:32.300Z,,0,1,,2598,response,ISIC_7596681.JPG,13,ISIC_0033616.JPG,ISIC_7596681.JPG,false,1,keypress(m),500,186966,186965,184367,184349.00000000003,184383,187000,8,400,45,,ISIC_0033616.JPG
break,html.Screen,4_44_1,2023-11-03T15:56:32.301Z,,0,,,NaN,,,,,,false,,,,186967,186967,,186966,,187000,8,400,,,
break_continue,html.Screen,4_44_2,2023-11-03T15:56:32.302Z,,0,,,NaN,,,,,,false,,,,186967,186967,,186967,,187000,8,400,,,
sequence,flow.Sequence,4_44,2023-11-03T15:56:32.302Z,,0,,,2584,completion,,,,,false,,,,186968.00000000003,186967,184367,184349.00000000003,184383,187000,8,400,,,
trial,html.Screen,4_45_0,2023-11-03T15:56:34.906Z,,0,1,,2588,response,ISIC_0012069.JPG,11,ISIC_6207688.JPG,ISIC_6207688.JPG,false,0,keypress(z),500,189572,189572,186984,186968.00000000003,187000,189600,8,400,46,,ISIC_0012069.JPG
break,html.Screen,4_45_1,2023-11-03T15:56:34.907Z,,0,,,NaN,,,,,,false,,,,189573,189573,,189572,,189600,8,400,,,
break_continue,html.Screen,4_45_2,2023-11-03T15:56:34.908Z,,0,,,NaN,,,,,,false,,,,189574,189573,,189573,,189600,8,400,,,
sequence,flow.Sequence,4_45,2023-11-03T15:56:34.908Z,,0,,,2573,completion,,,,,false,,,,189574,189573,186984,186968.00000000003,187000,189600,8,400,,,
trial,html.Screen,4_46_0,2023-11-03T15:56:37.565Z,,0,1,,2647.000000000029,response,ISIC_0010873.JPG,5,ISIC_0001101.JPG,ISIC_0010873.JPG,false,1,keypress(m),500,192230.00000000003,192230.00000000003,189583,189574,189600,192267,8,400,47,,ISIC_0001101.JPG
break,html.Screen,4_46_1,2023-11-03T15:56:37.566Z,,0,,,NaN,,,,,,false,,,,192232,192232,,192231,,192267,8,400,,,
break_continue,html.Screen,4_46_2,2023-11-03T15:56:37.566Z,,0,,,NaN,,,,,,false,,,,192232,192232,,192232,,192267,8,400,,,
sequence,flow.Sequence,4_46,2023-11-03T15:56:37.566Z,,0,,,2632,completion,,,,,false,,,,192232,192232,189583,189574,189600,192267,8,400,,,
trial,html.Screen,4_47_0,2023-11-03T15:56:40.254Z,,0,1,,2668,response,ISIC_0011268.JPG,14,ISIC_0070927.JPG,ISIC_0070927.JPG,false,0,keypress(z),500,194920.00000000003,194919,192251,192233,192267,194950,8,400,48,,ISIC_0011268.JPG
break,html.Screen,4_47_1,2023-11-03T15:56:40.255Z,,0,,,NaN,,,,,,false,,,,194921,194921,,194920.00000000003,,194950,8,400,,,
break_continue,html.Screen,4_47_2,2023-11-03T15:56:40.255Z,,0,,,NaN,,,,,,false,,,,194921,194921,,194921,,194950,8,400,,,
sequence,flow.Sequence,4_47,2023-11-03T15:56:40.256Z,,0,,,2654,completion,,,,,false,,,,194922,194921,192251,192233,192267,194950,8,400,,,
trial,html.Screen,4_48_0,2023-11-03T15:56:42.948Z,,0,1,,2680,response,ISIC_0009947.JPG,8,ISIC_6703027.JPG,ISIC_6703027.JPG,false,0,keypress(z),500,197614,197614,194934,194922,194950,197651,8,400,49,,ISIC_0009947.JPG
break,html.Screen,4_48_1,2023-11-03T15:56:42.949Z,,0,,,NaN,,,,,,false,,,,197615,197615,,197614,,197651,8,400,,,
break_continue,html.Screen,4_48_2,2023-11-03T15:56:42.950Z,,0,,,NaN,,,,,,false,,,,197616,197616,,197615,,197651,8,400,,,
sequence,flow.Sequence,4_48,2023-11-03T15:56:42.950Z,,0,,,2666,completion,,,,,false,,,,197616,197616,194934,194922,194950,197651,8,400,,,
trial,html.Screen,4_49_0,2023-11-03T15:56:46.653Z,,0,1,,3684,response,ISIC_0009939.JPG,13,ISIC_3975133.JPG,ISIC_3975133.JPG,false,0,keypress(z),500,201319.00000000003,201318,197634,197616,197651,201351,8,400,50,,ISIC_0009939.JPG
break,html.Screen,4_49_1,2023-11-03T15:56:56.669Z,,0,,,10000,timeout,,,,,false,,,,211335,211334,201334,201319.00000000003,201351,211351,8,400,,,
break_continue,html.Screen,4_49_2,2023-11-03T15:56:58.326Z,,0,,,1840,response,,,,,false,continue,keypress(Space),,212993,213174,211334,211335,211351,213018,8,400,,,
sequence,flow.Sequence,4_49,2023-11-03T15:56:58.326Z,,0,,,15523,completion,,,,,false,,,,212993,213174,197634,197616,197651,213018,8,400,,,
trial,html.Screen,4_50_0,2023-11-03T15:57:01.204Z,,0,2,,2869,response,ISIC_0080539.JPG,4,ISIC_5343231.JPG,ISIC_0080539.JPG,false,1,keypress(m),500,215871,215870,213001,212993,213018,215901,8,400,1,,ISIC_5343231.JPG
break,html.Screen,4_50_1,2023-11-03T15:57:01.205Z,,0,,,NaN,,,,,,false,,,,215872,215872,,215871,,215901,8,400,,,
break_continue,html.Screen,4_50_2,2023-11-03T15:57:01.206Z,,0,,,NaN,,,,,,false,,,,215872,215872,,215872,,215901,8,400,,,
sequence,flow.Sequence,4_50,2023-11-03T15:57:01.206Z,,0,,,2854,completion,,,,,false,,,,215873,215872,213001,212993,213018,215901,8,400,,,
trial,html.Screen,4_51_0,2023-11-03T15:57:03.469Z,,0,2,,2251,response,ISIC_8066110.JPG,7,ISIC_8955135.JPG,ISIC_8066110.JPG,false,1,keypress(m),500,218136,218136,215885,215873,215901,218168,8,400,2,,ISIC_8955135.JPG
break,html.Screen,4_51_1,2023-11-03T15:57:03.470Z,,0,,,NaN,,,,,,false,,,,218137,218137,,218136,,218168,8,400,,,
break_continue,html.Screen,4_51_2,2023-11-03T15:57:03.471Z,,0,,,NaN,,,,,,false,,,,218138,218138,,218137,,218168,8,400,,,
sequence,flow.Sequence,4_51,2023-11-03T15:57:03.471Z,,0,,,2237,completion,,,,,false,,,,218138,218138,215885,215873,215901,218168,8,400,,,
trial,html.Screen,4_52_0,2023-11-03T15:57:05.797Z,,0,2,,2312,response,ISIC_9974613.JPG,9,ISIC_0068798.JPG,ISIC_0068798.JPG,false,0,keypress(z),500,220464,220463,218151,218138,218168,220502,8,400,3,,ISIC_9974613.JPG
break,html.Screen,4_52_1,2023-11-03T15:57:05.798Z,,0,,,NaN,,,,,,false,,,,220465,220465,,220464,,220502,8,400,,,
break_continue,html.Screen,4_52_2,2023-11-03T15:57:05.798Z,,0,,,NaN,,,,,,false,,,,220465,220465,,220465,,220502,8,400,,,
sequence,flow.Sequence,4_52,2023-11-03T15:57:05.798Z,,0,,,2297,completion,,,,,false,,,,220465,220465,218151,218138,218168,220502,8,400,,,
trial,html.Screen,4_53_0,2023-11-03T15:57:08.437Z,,0,2,,2619,response,ISIC_0012150.JPG,15,ISIC_0691454.JPG,ISIC_0691454.JPG,false,0,keypress(z),500,223104,223103,220484,220465,220502,223135,8,400,4,,ISIC_0012150.JPG
break,html.Screen,4_53_1,2023-11-03T15:57:08.438Z,,0,,,NaN,,,,,,false,,,,223105.00000000003,223105.00000000003,,223104,,223135,8,400,,,
break_continue,html.Screen,4_53_2,2023-11-03T15:57:08.438Z,,0,,,NaN,,,,,,false,,,,223105.00000000003,223105.00000000003,,223105.00000000003,,223135,8,400,,,
sequence,flow.Sequence,4_53,2023-11-03T15:57:08.438Z,,0,,,2603.000000000029,completion,,,,,false,,,,223106,223105.00000000003,220484,220465,220502,223135,8,400,,,
trial,html.Screen,4_54_0,2023-11-03T15:57:10.877Z,,0,2,,2426,response,ISIC_0010209.JPG,8,ISIC_8398000.JPG,ISIC_8398000.JPG,false,0,keypress(z),500,225544,225544,223118,223106,223135,225568,8,400,5,,ISIC_0010209.JPG
break,html.Screen,4_54_1,2023-11-03T15:57:10.878Z,,0,,,NaN,,,,,,false,,,,225546,225545.00000000003,,225545.00000000003,,225568,8,400,,,
break_continue,html.Screen,4_54_2,2023-11-03T15:57:10.879Z,,0,,,NaN,,,,,,false,,,,225546,225546,,225546,,225568,8,400,,,
sequence,flow.Sequence,4_54,2023-11-03T15:57:10.879Z,,0,,,2411,completion,,,,,false,,,,225546,225546,223118,223106,223135,225568,8,400,,,
trial,html.Screen,4_55_0,2023-11-03T15:57:13.236Z,,0,2,,2352,response,ISIC_6780662.JPG,1,ISIC_5284935.JPG,ISIC_5284935.JPG,false,0,keypress(z),500,227904,227903,225551,225546,225568,227935,8,400,6,,ISIC_6780662.JPG
break,html.Screen,4_55_1,2023-11-03T15:57:13.237Z,,0,,,NaN,,,,,,false,,,,227905,227904,,227904,,227935,8,400,,,
break_continue,html.Screen,4_55_2,2023-11-03T15:57:13.238Z,,0,,,NaN,,,,,,false,,,,227905,227905,,227905,,227935,8,400,,,
sequence,flow.Sequence,4_55,2023-11-03T15:57:13.238Z,,0,,,2337,completion,,,,,false,,,,227905,227905,225551,225546,225568,227935,8,400,,,
trial,html.Screen,4_56_0,2023-11-03T15:57:15.603Z,,0,2,,2352,response,ISIC_0024417.JPG,8,ISIC_5705973.JPG,ISIC_5705973.JPG,false,0,keypress(z),500,230271.00000000003,230270,227918,227905,227935,230302,8,400,7,,ISIC_0024417.JPG
break,html.Screen,4_56_1,2023-11-03T15:57:15.605Z,,0,,,NaN,,,,,,false,,,,230272,230272,,230271.00000000003,,230302,8,400,,,
break_continue,html.Screen,4_56_2,2023-11-03T15:57:15.605Z,,0,,,NaN,,,,,,false,,,,230272,230272,,230272,,230302,8,400,,,
sequence,flow.Sequence,4_56,2023-11-03T15:57:15.605Z,,0,,,2337,completion,,,,,false,,,,230273,230272,227918,227905,227935,230302,8,400,,,
trial,html.Screen,4_57_0,2023-11-03T15:57:18.058Z,,0,2,,2440,response,ISIC_0062162.JPG,8,ISIC_0011943.JPG,ISIC_0011943.JPG,false,0,keypress(z),500,232725,232725,230285,230273,230302,232751,8,400,8,,ISIC_0062162.JPG
break,html.Screen,4_57_1,2023-11-03T15:57:18.059Z,,0,,,NaN,,,,,,false,,,,232727,232726,,232726,,232751,8,400,,,
break_continue,html.Screen,4_57_2,2023-11-03T15:57:18.059Z,,0,,,NaN,,,,,,false,,,,232727,232727,,232727,,232751,8,400,,,
sequence,flow.Sequence,4_57,2023-11-03T15:57:18.060Z,,0,,,2425,completion,,,,,false,,,,232727,232727,230285,230273,230302,232751,8,400,,,
trial,html.Screen,4_58_0,2023-11-03T15:57:20.537Z,,0,2,,2469,response,ISIC_0000551.JPG,4,ISIC_0010240.JPG,ISIC_0010240.JPG,false,0,keypress(z),500,235205,235204,232735,232727,232751,235235,8,400,9,,ISIC_0000551.JPG
break,html.Screen,4_58_1,2023-11-03T15:57:20.539Z,,0,,,NaN,,,,,,false,,,,235206.00000000003,235206.00000000003,,235205,,235235,8,400,,,
break_continue,html.Screen,4_58_2,2023-11-03T15:57:20.539Z,,0,,,NaN,,,,,,false,,,,235207,235206.00000000003,,235206.00000000003,,235235,8,400,,,
sequence,flow.Sequence,4_58,2023-11-03T15:57:20.539Z,,0,,,2455.000000000029,completion,,,,,false,,,,235207,235206.00000000003,232735,232727,232751,235235,8,400,,,
trial,html.Screen,4_59_0,2023-11-03T15:57:23.080Z,,0,2,,2528,response,ISIC_8127578.JPG,7,ISIC_0011802.JPG,ISIC_8127578.JPG,false,1,keypress(m),500,237748.00000000003,237747,235219,235207,235235,237785,8,400,10,,ISIC_0011802.JPG
break,html.Screen,4_59_1,2023-11-03T15:57:23.081Z,,0,,,NaN,,,,,,false,,,,237749,237748.00000000003,,237748.00000000003,,237785,8,400,,,
break_continue,html.Screen,4_59_2,2023-11-03T15:57:23.081Z,,0,,,NaN,,,,,,false,,,,237749,237749,,237749,,237785,8,400,,,
sequence,flow.Sequence,4_59,2023-11-03T15:57:23.081Z,,0,,,2514,completion,,,,,false,,,,237749,237749,235219,235207,235235,237785,8,400,,,
trial,html.Screen,4_60_0,2023-11-03T15:57:25.498Z,,0,2,,2396,response,ISIC_9605122.JPG,15,ISIC_9538419.JPG,ISIC_9538419.JPG,false,0,keypress(z),500,240166,240165,237769,237749,237785,240186,8,400,11,,ISIC_9605122.JPG
break,html.Screen,4_60_1,2023-11-03T15:57:25.499Z,,0,,,NaN,,,,,,false,,,,240167,240167,,240166,,240186,8,400,,,
break_continue,html.Screen,4_60_2,2023-11-03T15:57:25.500Z,,0,,,NaN,,,,,,false,,,,240167,240167,,240167,,240186,8,400,,,
sequence,flow.Sequence,4_60,2023-11-03T15:57:25.500Z,,0,,,2382,completion,,,,,false,,,,240168,240167,237769,237749,237785,240186,8,400,,,
trial,html.Screen,4_61_0,2023-11-03T15:57:28.181Z,,0,2,,2679.000000000029,response,ISIC_9562442.JPG,13,ISIC_0033501.JPG,ISIC_0033501.JPG,false,0,keypress(z),500,242849.00000000003,242849.00000000003,240170,240168,240186,242869,8,400,12,,ISIC_9562442.JPG
break,html.Screen,4_61_1,2023-11-03T15:57:28.182Z,,0,,,NaN,,,,,,false,,,,242850,242850,,242850,,242869,8,400,,,
break_continue,html.Screen,4_61_2,2023-11-03T15:57:28.183Z,,0,,,NaN,,,,,,false,,,,242851,242851,,242851,,242869,8,400,,,
sequence,flow.Sequence,4_61,2023-11-03T15:57:28.183Z,,0,,,2665,completion,,,,,false,,,,242851,242851,240170,240168,240186,242869,8,400,,,
trial,html.Screen,4_62_0,2023-11-03T15:57:30.716Z,,0,2,,2526,response,ISIC_6280523.JPG,11,ISIC_2998367.JPG,ISIC_2998367.JPG,false,0,keypress(z),500,245384,245383,242857,242851,242869,245402,8,400,13,,ISIC_6280523.JPG
break,html.Screen,4_62_1,2023-11-03T15:57:30.718Z,,0,,,NaN,,,,,,false,,,,245386,245385,,245385,,245402,8,400,,,
break_continue,html.Screen,4_62_2,2023-11-03T15:57:30.718Z,,0,,,NaN,,,,,,false,,,,245386,245386,,245386,,245402,8,400,,,
sequence,flow.Sequence,4_62,2023-11-03T15:57:30.718Z,,0,,,2517,completion,,,,,false,,,,245386,245386,242857,242851,242869,245402,8,400,,,
trial,html.Screen,4_63_0,2023-11-03T15:57:33.418Z,,0,2,,2697,response,ISIC_9699426.JPG,12,ISIC_0015071.JPG,ISIC_0015071.JPG,false,0,keypress(z),500,248086,248086,245389,245387,245402,248119,8,400,14,,ISIC_9699426.JPG
break,html.Screen,4_63_1,2023-11-03T15:57:33.419Z,,0,,,NaN,,,,,,false,,,,248087.00000000003,248087.00000000003,,248086,,248119,8,400,,,
break_continue,html.Screen,4_63_2,2023-11-03T15:57:33.420Z,,0,,,NaN,,,,,,false,,,,248088,248088,,248088,,248119,8,400,,,
sequence,flow.Sequence,4_63,2023-11-03T15:57:33.420Z,,0,,,2686,completion,,,,,false,,,,248088,248088,245389,245387,245402,248119,8,400,,,
trial,html.Screen,4_64_0,2023-11-03T15:57:35.929Z,,0,2,,2494,response,ISIC_0063081.JPG,11,ISIC_0032162.JPG,ISIC_0032162.JPG,false,0,keypress(z),500,250598,250597,248103,248088,248119,250619,8,400,15,,ISIC_0063081.JPG
break,html.Screen,4_64_1,2023-11-03T15:57:35.930Z,,0,,,NaN,,,,,,false,,,,250599.00000000003,250598,,250598,,250619,8,400,,,
break_continue,html.Screen,4_64_2,2023-11-03T15:57:35.931Z,,0,,,NaN,,,,,,false,,,,250599.00000000003,250599.00000000003,,250599.00000000003,,250619,8,400,,,
sequence,flow.Sequence,4_64,2023-11-03T15:57:35.931Z,,0,,,2480.000000000029,completion,,,,,false,,,,250599.00000000003,250599.00000000003,248103,248088,248119,250619,8,400,,,
trial,html.Screen,4_65_0,2023-11-03T15:57:38.990Z,,0,2,,3056.000000000029,response,ISIC_2916754.JPG,7,ISIC_0054185.JPG,ISIC_0054185.JPG,false,0,keypress(z),500,253659,253658.00000000003,250602,250599.00000000003,250619,253686,8,400,16,,ISIC_2916754.JPG
break,html.Screen,4_65_1,2023-11-03T15:57:38.992Z,,0,,,NaN,,,,,,false,,,,253660,253660,,253659,,253686,8,400,,,
break_continue,html.Screen,4_65_2,2023-11-03T15:57:38.992Z,,0,,,NaN,,,,,,false,,,,253660,253660,,253660,,253686,8,400,,,
sequence,flow.Sequence,4_65,2023-11-03T15:57:38.992Z,,0,,,3041,completion,,,,,false,,,,253661,253660,250602,250599.00000000003,250619,253686,8,400,,,
trial,html.Screen,4_66_0,2023-11-03T15:57:41.713Z,,0,2,,2711.000000000029,response,ISIC_0057362.JPG,4,ISIC_0029405.JPG,ISIC_0057362.JPG,false,1,keypress(m),500,256381.00000000003,256381.00000000003,253670,253661,253686,256420,8,400,17,,ISIC_0029405.JPG
break,html.Screen,4_66_1,2023-11-03T15:57:41.714Z,,0,,,NaN,,,,,,false,,,,256382.99999999997,256382,,256382,,256420,8,400,,,
break_continue,html.Screen,4_66_2,2023-11-03T15:57:41.715Z,,0,,,NaN,,,,,,false,,,,256382.99999999997,256382.99999999997,,256382.99999999997,,256420,8,400,,,
sequence,flow.Sequence,4_66,2023-11-03T15:57:41.715Z,,0,,,2696.999999999971,completion,,,,,false,,,,256382.99999999997,256382.99999999997,253670,253661,253686,256420,8,400,,,
trial,html.Screen,4_67_0,2023-11-03T15:57:44.430Z,,0,2,,2695,response,ISIC_3505339.JPG,15,ISIC_0024826.JPG,ISIC_3505339.JPG,false,1,keypress(m),500,259099,259098,256403,256384,256420,259136,8,400,18,,ISIC_0024826.JPG
break,html.Screen,4_67_1,2023-11-03T15:57:44.431Z,,0,,,NaN,,,,,,false,,,,259100.00000000003,259100.00000000003,,259099,,259136,8,400,,,
break_continue,html.Screen,4_67_2,2023-11-03T15:57:44.432Z,,0,,,NaN,,,,,,false,,,,259100.00000000003,259100.00000000003,,259100.00000000003,,259136,8,400,,,
sequence,flow.Sequence,4_67,2023-11-03T15:57:44.432Z,,0,,,2680.000000000029,completion,,,,,false,,,,259101,259100.00000000003,256403,256384,256420,259136,8,400,,,
trial,html.Screen,4_68_0,2023-11-03T15:57:46.700Z,,0,2,,2248,response,ISIC_9572152.JPG,14,ISIC_0026692.JPG,ISIC_0026692.JPG,false,0,keypress(z),500,261369.00000000003,261368,259120,259101,259136,261403,8,400,19,,ISIC_9572152.JPG
break,html.Screen,4_68_1,2023-11-03T15:57:46.702Z,,0,,,NaN,,,,,,false,,,,261370,261370,,261369.00000000003,,261403,8,400,,,
break_continue,html.Screen,4_68_2,2023-11-03T15:57:46.702Z,,0,,,NaN,,,,,,false,,,,261370.99999999997,261370,,261370,,261403,8,400,,,
sequence,flow.Sequence,4_68,2023-11-03T15:57:46.702Z,,0,,,2234,completion,,,,,false,,,,261370.99999999997,261370,259120,259101,259136,261403,8,400,,,
trial,html.Screen,4_69_0,2023-11-03T15:57:49.194Z,,0,2,,2475,response,ISIC_0030546.JPG,11,ISIC_0011032.JPG,ISIC_0011032.JPG,false,0,keypress(z),500,263863,263862,261387,261370.99999999997,261403,263886,8,400,20,,ISIC_0030546.JPG
break,html.Screen,4_69_1,2023-11-03T15:57:49.196Z,,0,,,NaN,,,,,,false,,,,263864.00000000006,263864.00000000006,,263863,,263886,8,400,,,
break_continue,html.Screen,4_69_2,2023-11-03T15:57:49.196Z,,0,,,NaN,,,,,,false,,,,263865,263865,,263865,,263886,8,400,,,
sequence,flow.Sequence,4_69,2023-11-03T15:57:49.196Z,,0,,,2462,completion,,,,,false,,,,263865,263865,261387,261370.99999999997,261403,263886,8,400,,,
trial,html.Screen,4_70_0,2023-11-03T15:57:52.219Z,,0,2,,3017,response,ISIC_0204355.JPG,0,ISIC_0031997.JPG,ISIC_0031997.JPG,false,0,keypress(z),500,266888.00000000006,266887,263870,263865,263886,266920,8,400,21,,ISIC_0204355.JPG
break,html.Screen,4_70_1,2023-11-03T15:57:52.220Z,,0,,,NaN,,,,,,false,,,,266889,266889,,266888.00000000006,,266920,8,400,,,
break_continue,html.Screen,4_70_2,2023-11-03T15:57:52.220Z,,0,,,NaN,,,,,,false,,,,266889,266889,,266889,,266920,8,400,,,
sequence,flow.Sequence,4_70,2023-11-03T15:57:52.221Z,,0,,,3003,completion,,,,,false,,,,266890,266889,263870,263865,263886,266920,8,400,,,
trial,html.Screen,4_71_0,2023-11-03T15:57:54.647Z,,0,2,,2413.000000000058,response,ISIC_5272345.JPG,10,ISIC_0031627.JPG,ISIC_0031627.JPG,false,0,keypress(z),500,269316.00000000006,269316.00000000006,266903,266890,266920,269337,8,400,22,,ISIC_5272345.JPG
break,html.Screen,4_71_1,2023-11-03T15:57:54.648Z,,0,,,NaN,,,,,,false,,,,269317,269317,,269317,,269337,8,400,,,
break_continue,html.Screen,4_71_2,2023-11-03T15:57:54.649Z,,0,,,NaN,,,,,,false,,,,269318,269318,,269317,,269337,8,400,,,
sequence,flow.Sequence,4_71,2023-11-03T15:57:54.649Z,,0,,,2398,completion,,,,,false,,,,269318,269318,266903,266890,266920,269337,8,400,,,
trial,html.Screen,4_72_0,2023-11-03T15:57:57.005Z,,0,2,,2353,response,ISIC_0064478.JPG,15,ISIC_8959410.JPG,ISIC_8959410.JPG,false,0,keypress(z),500,271674,271673,269320,269318,269337,271704,8,400,23,,ISIC_0064478.JPG
break,html.Screen,4_72_1,2023-11-03T15:57:57.006Z,,0,,,NaN,,,,,,false,,,,271675,271675,,271674,,271704,8,400,,,
break_continue,html.Screen,4_72_2,2023-11-03T15:57:57.006Z,,0,,,NaN,,,,,,false,,,,271675,271675,,271675,,271704,8,400,,,
sequence,flow.Sequence,4_72,2023-11-03T15:57:57.006Z,,0,,,2338,completion,,,,,false,,,,271676,271675,269320,269318,269337,271704,8,400,,,
trial,html.Screen,4_73_0,2023-11-03T15:57:59.604Z,,0,2,,2586,response,ISIC_3981425.JPG,7,ISIC_6398283.JPG,ISIC_6398283.JPG,false,0,keypress(z),500,274273,274273,271687,271676,271704,274304,8,400,24,,ISIC_3981425.JPG
break,html.Screen,4_73_1,2023-11-03T15:57:59.605Z,,0,,,NaN,,,,,,false,,,,274274,274274,,274274,,274304,8,400,,,
break_continue,html.Screen,4_73_2,2023-11-03T15:57:59.606Z,,0,,,NaN,,,,,,false,,,,274275.00000000006,274275.00000000006,,274275.00000000006,,274304,8,400,,,
sequence,flow.Sequence,4_73,2023-11-03T15:57:59.606Z,,0,,,2571.000000000058,completion,,,,,false,,,,274275.00000000006,274275.00000000006,271687,271676,271704,274304,8,400,,,
trial,html.Screen,4_74_0,2023-11-03T15:58:02.245Z,,0,2,,2627,response,ISIC_0002878.JPG,7,ISIC_3013569.JPG,ISIC_0002878.JPG,false,1,keypress(m),500,276914,276914,274287,274275.00000000006,274304,276937,8,400,25,,ISIC_3013569.JPG
break,html.Screen,4_74_1,2023-11-03T15:58:02.246Z,,0,,,NaN,,,,,,false,,,,276915,276915,,276914,,276937,8,400,,,
break_continue,html.Screen,4_74_2,2023-11-03T15:58:02.246Z,,0,,,NaN,,,,,,false,,,,276915,276915,,276915,,276937,8,400,,,
sequence,flow.Sequence,4_74,2023-11-03T15:58:02.246Z,,0,,,2611,completion,,,,,false,,,,276916,276915,274287,274275.00000000006,274304,276937,8,400,,,
trial,html.Screen,4_75_0,2023-11-03T15:58:04.667Z,,0,2,,2416,response,ISIC_0011196.JPG,0,ISIC_0063988.JPG,ISIC_0011196.JPG,false,1,keypress(m),500,279336,279336,276920,276916,276937,279354,8,400,26,,ISIC_0063988.JPG
break,html.Screen,4_75_1,2023-11-03T15:58:04.668Z,,0,,,NaN,,,,,,false,,,,279337,279337,,279336,,279354,8,400,,,
break_continue,html.Screen,4_75_2,2023-11-03T15:58:04.668Z,,0,,,NaN,,,,,,false,,,,279337,279337,,279337,,279354,8,400,,,
sequence,flow.Sequence,4_75,2023-11-03T15:58:04.668Z,,0,,,2400,completion,,,,,false,,,,279338,279337,276920,276916,276937,279354,8,400,,,
trial,html.Screen,4_76_0,2023-11-03T15:58:06.987Z,,0,2,,2316,response,ISIC_0009721.JPG,12,ISIC_5423896.JPG,ISIC_0009721.JPG,false,1,keypress(m),500,281656,281656,279340,279338,279354,281687,8,400,27,,ISIC_5423896.JPG
break,html.Screen,4_76_1,2023-11-03T15:58:06.988Z,,0,,,NaN,,,,,,false,,,,281657,281657,,281656,,281687,8,400,,,
break_continue,html.Screen,4_76_2,2023-11-03T15:58:06.988Z,,0,,,NaN,,,,,,false,,,,281658,281657,,281657,,281687,8,400,,,
sequence,flow.Sequence,4_76,2023-11-03T15:58:06.988Z,,0,,,2303,completion,,,,,false,,,,281658,281657,279340,279338,279354,281687,8,400,,,
trial,html.Screen,4_77_0,2023-11-03T15:58:09.396Z,,0,2,,2394,response,ISIC_1210565.JPG,8,ISIC_0645454.JPG,ISIC_0645454.JPG,false,0,keypress(z),500,284065,284065,281671,281658,281687,284087,8,400,28,,ISIC_1210565.JPG
break,html.Screen,4_77_1,2023-11-03T15:58:09.397Z,,0,,,NaN,,,,,,false,,,,284067,284066.00000000006,,284066.00000000006,,284087,8,400,,,
break_continue,html.Screen,4_77_2,2023-11-03T15:58:09.397Z,,0,,,NaN,,,,,,false,,,,284067,284067,,284067,,284087,8,400,,,
sequence,flow.Sequence,4_77,2023-11-03T15:58:09.398Z,,0,,,2380,completion,,,,,false,,,,284067,284067,281671,281658,281687,284087,8,400,,,
trial,html.Screen,4_78_0,2023-11-03T15:58:11.765Z,,0,2,,2364,response,ISIC_0025127.JPG,16,ISIC_5907931.JPG,ISIC_0025127.JPG,false,1,keypress(m),500,286434,286434,284070,284067,284087,286471,8,400,29,,ISIC_5907931.JPG
break,html.Screen,4_78_1,2023-11-03T15:58:11.766Z,,0,,,NaN,,,,,,false,,,,286435,286435,,286435,,286471,8,400,,,
break_continue,html.Screen,4_78_2,2023-11-03T15:58:11.766Z,,0,,,NaN,,,,,,false,,,,286436,286436,,286435,,286471,8,400,,,
sequence,flow.Sequence,4_78,2023-11-03T15:58:11.767Z,,0,,,2349,completion,,,,,false,,,,286436,286436,284070,284067,284087,286471,8,400,,,
trial,html.Screen,4_79_0,2023-11-03T15:58:14.069Z,,0,2,,2283,response,ISIC_0239178.JPG,14,ISIC_0056655.JPG,ISIC_0056655.JPG,false,0,keypress(z),500,288738,288738,286455,286436,286471,288771,8,400,30,,ISIC_0239178.JPG
break,html.Screen,4_79_1,2023-11-03T15:58:14.070Z,,0,,,NaN,,,,,,false,,,,288740,288739.00000000006,,288739.00000000006,,288771,8,400,,,
break_continue,html.Screen,4_79_2,2023-11-03T15:58:14.070Z,,0,,,NaN,,,,,,false,,,,288740,288740,,288740,,288771,8,400,,,
sequence,flow.Sequence,4_79,2023-11-03T15:58:14.071Z,,0,,,2269,completion,,,,,false,,,,288740,288740,286455,286436,286471,288771,8,400,,,
trial,html.Screen,4_80_0,2023-11-03T15:58:16.577Z,,0,2,,2493,response,ISIC_0027600.JPG,10,ISIC_9495211.JPG,ISIC_0027600.JPG,false,1,keypress(m),500,291247,291247,288754,288740,288771,291271,8,400,31,,ISIC_9495211.JPG
break,html.Screen,4_80_1,2023-11-03T15:58:16.579Z,,0,,,NaN,,,,,,false,,,,291248,291248,,291248,,291271,8,400,,,
break_continue,html.Screen,4_80_2,2023-11-03T15:58:16.579Z,,0,,,NaN,,,,,,false,,,,291249,291249,,291249,,291271,8,400,,,
sequence,flow.Sequence,4_80,2023-11-03T15:58:16.579Z,,0,,,2478,completion,,,,,false,,,,291249,291249,288754,288740,288771,291271,8,400,,,
trial,html.Screen,4_81_0,2023-11-03T15:58:18.996Z,,0,2,,2411,response,ISIC_0055826.JPG,0,ISIC_0011691.JPG,ISIC_0055826.JPG,false,1,keypress(m),500,293666,293665,291254,291249,291271,293688,8,400,32,,ISIC_0011691.JPG
break,html.Screen,4_81_1,2023-11-03T15:58:18.997Z,,0,,,NaN,,,,,,false,,,,293667.00000000006,293667.00000000006,,293666,,293688,8,400,,,
break_continue,html.Screen,4_81_2,2023-11-03T15:58:18.998Z,,0,,,NaN,,,,,,false,,,,293668,293668,,293667.00000000006,,293688,8,400,,,
sequence,flow.Sequence,4_81,2023-11-03T15:58:18.998Z,,0,,,2397,completion,,,,,false,,,,293668,293668,291254,291249,291271,293688,8,400,,,
trial,html.Screen,4_82_0,2023-11-03T15:58:21.357Z,,0,2,,2356,response,ISIC_4697037.JPG,16,ISIC_4418545.JPG,ISIC_4697037.JPG,false,1,keypress(m),500,296027,296026,293670,293668,293688,296055,8,400,33,,ISIC_4418545.JPG
break,html.Screen,4_82_1,2023-11-03T15:58:21.358Z,,0,,,NaN,,,,,,false,,,,296028,296028,,296027,,296055,8,400,,,
break_continue,html.Screen,4_82_2,2023-11-03T15:58:21.358Z,,0,,,NaN,,,,,,false,,,,296028,296028,,296028,,296055,8,400,,,
sequence,flow.Sequence,4_82,2023-11-03T15:58:21.359Z,,0,,,2340,completion,,,,,false,,,,296029,296028,293670,293668,293688,296055,8,400,,,
trial,html.Screen,4_83_0,2023-11-03T15:58:23.674Z,,0,2,,2307,response,ISIC_7629589.JPG,5,ISIC_5904116.JPG,ISIC_7629589.JPG,false,1,keypress(m),500,298344,298344,296037,296029,296055,298371,8,400,34,,ISIC_5904116.JPG
break,html.Screen,4_83_1,2023-11-03T15:58:23.675Z,,0,,,NaN,,,,,,false,,,,298345,298345,,298345,,298371,8,400,,,
break_continue,html.Screen,4_83_2,2023-11-03T15:58:23.676Z,,0,,,NaN,,,,,,false,,,,298346,298346,,298346,,298371,8,400,,,
sequence,flow.Sequence,4_83,2023-11-03T15:58:23.676Z,,0,,,2291,completion,,,,,false,,,,298346,298346,296037,296029,296055,298371,8,400,,,
trial,html.Screen,4_84_0,2023-11-03T15:58:25.969Z,,0,2,,2283.000000000058,response,ISIC_8485716.JPG,5,ISIC_6581765.JPG,ISIC_8485716.JPG,false,1,keypress(m),500,300639,300638.00000000006,298355,298346,298371,300671,8,400,35,,ISIC_6581765.JPG
break,html.Screen,4_84_1,2023-11-03T15:58:25.970Z,,0,,,NaN,,,,,,false,,,,300640,300640,,300639,,300671,8,400,,,
break_continue,html.Screen,4_84_2,2023-11-03T15:58:25.970Z,,0,,,NaN,,,,,,false,,,,300640,300640,,300640,,300671,8,400,,,
sequence,flow.Sequence,4_84,2023-11-03T15:58:25.970Z,,0,,,2269,completion,,,,,false,,,,300641,300640,298355,298346,298371,300671,8,400,,,
trial,html.Screen,4_85_0,2023-11-03T15:58:28.271Z,,0,2,,2286.000000000058,response,ISIC_5971574.JPG,10,ISIC_0000031.JPG,ISIC_5971574.JPG,false,1,keypress(m),500,302941.00000000006,302941.00000000006,300655,300641,300671,302971,8,400,36,,ISIC_0000031.JPG
break,html.Screen,4_85_1,2023-11-03T15:58:28.272Z,,0,,,NaN,,,,,,false,,,,302942,302942,,302942,,302971,8,400,,,
break_continue,html.Screen,4_85_2,2023-11-03T15:58:28.272Z,,0,,,NaN,,,,,,false,,,,302943,302943,,302943,,302971,8,400,,,
sequence,flow.Sequence,4_85,2023-11-03T15:58:28.273Z,,0,,,2272,completion,,,,,false,,,,302943,302943,300655,300641,300671,302971,8,400,,,
trial,html.Screen,4_86_0,2023-11-03T15:58:30.623Z,,0,2,,2338,response,ISIC_0663824.JPG,8,ISIC_0055087.JPG,ISIC_0663824.JPG,false,1,keypress(m),500,305293,305293,302955,302943,302971,305321,8,400,37,,ISIC_0055087.JPG
break,html.Screen,4_86_1,2023-11-03T15:58:30.624Z,,0,,,NaN,,,,,,false,,,,305295,305294,,305294,,305321,8,400,,,
break_continue,html.Screen,4_86_2,2023-11-03T15:58:30.625Z,,0,,,NaN,,,,,,false,,,,305295,305295,,305295,,305321,8,400,,,
sequence,flow.Sequence,4_86,2023-11-03T15:58:30.625Z,,0,,,2324,completion,,,,,false,,,,305295,305295,302955,302943,302971,305321,8,400,,,
trial,html.Screen,4_87_0,2023-11-03T15:58:32.945Z,,0,2,,2310,response,ISIC_2635051.JPG,6,ISIC_0070217.JPG,ISIC_2635051.JPG,false,1,keypress(m),500,307616,307615,305305,305295,305321,307638,8,400,38,,ISIC_0070217.JPG
break,html.Screen,4_87_1,2023-11-03T15:58:32.946Z,,0,,,NaN,,,,,,false,,,,307617,307617,,307616,,307638,8,400,,,
break_continue,html.Screen,4_87_2,2023-11-03T15:58:32.947Z,,0,,,NaN,,,,,,false,,,,307617,307617,,307617,,307638,8,400,,,
sequence,flow.Sequence,4_87,2023-11-03T15:58:32.947Z,,0,,,2296,completion,,,,,false,,,,307617,307617,305305,305295,305321,307638,8,400,,,
trial,html.Screen,4_88_0,2023-11-03T15:58:35.266Z,,0,2,,2315,response,ISIC_0069515.JPG,0,ISIC_0032780.JPG,ISIC_0069515.JPG,false,1,keypress(m),500,309937,309936,307621,307617,307638,309972,8,400,39,,ISIC_0032780.JPG
break,html.Screen,4_88_1,2023-11-03T15:58:35.267Z,,0,,,NaN,,,,,,false,,,,309937,309937,,309937,,309972,8,400,,,
break_continue,html.Screen,4_88_2,2023-11-03T15:58:35.267Z,,0,,,NaN,,,,,,false,,,,309938,309938,,309938,,309972,8,400,,,
sequence,flow.Sequence,4_88,2023-11-03T15:58:35.267Z,,0,,,2300,completion,,,,,false,,,,309938,309938,307621,307617,307638,309972,8,400,,,
trial,html.Screen,4_89_0,2023-11-03T15:58:37.598Z,,0,2,,2313,response,ISIC_0027089.JPG,13,ISIC_0063899.JPG,ISIC_0027089.JPG,false,1,keypress(m),500,312269,312268,309955,309938,309972,312305,8,400,40,,ISIC_0063899.JPG
break,html.Screen,4_89_1,2023-11-03T15:58:37.599Z,,0,,,NaN,,,,,,false,,,,312270,312270,,312269,,312305,8,400,,,
break_continue,html.Screen,4_89_2,2023-11-03T15:58:37.600Z,,0,,,NaN,,,,,,false,,,,312270,312270,,312270,,312305,8,400,,,
sequence,flow.Sequence,4_89,2023-11-03T15:58:37.600Z,,0,,,2298,completion,,,,,false,,,,312271,312270,309955,309938,309972,312305,8,400,,,
trial,html.Screen,4_90_0,2023-11-03T15:58:39.898Z,,0,2,,2279,response,ISIC_0006730.JPG,14,ISIC_1504257.JPG,ISIC_0006730.JPG,false,1,keypress(m),500,314569,314568,312289,312271,312305,314605,8,400,41,,ISIC_1504257.JPG
break,html.Screen,4_90_1,2023-11-03T15:58:39.899Z,,0,,,NaN,,,,,,false,,,,314570,314570,,314569,,314605,8,400,,,
break_continue,html.Screen,4_90_2,2023-11-03T15:58:39.900Z,,0,,,NaN,,,,,,false,,,,314570,314570,,314570,,314605,8,400,,,
sequence,flow.Sequence,4_90,2023-11-03T15:58:39.900Z,,0,,,2265,completion,,,,,false,,,,314571,314570,312289,312271,312305,314605,8,400,,,
trial,html.Screen,4_91_0,2023-11-03T15:58:42.167Z,,0,2,,2249,response,ISIC_0032981.JPG,13,ISIC_4684860.JPG,ISIC_0032981.JPG,false,1,keypress(m),500,316838,316838,314589,314571,314605,316871,8,400,42,,ISIC_4684860.JPG
break,html.Screen,4_91_1,2023-11-03T15:58:42.169Z,,0,,,NaN,,,,,,false,,,,316839,316839,,316838,,316871,8,400,,,
break_continue,html.Screen,4_91_2,2023-11-03T15:58:42.169Z,,0,,,NaN,,,,,,false,,,,316840.00000000006,316840.00000000006,,316840.00000000006,,316871,8,400,,,
sequence,flow.Sequence,4_91,2023-11-03T15:58:42.169Z,,0,,,2235.000000000058,completion,,,,,false,,,,316840.00000000006,316840.00000000006,314589,314571,314605,316871,8,400,,,
trial,html.Screen,4_92_0,2023-11-03T15:58:44.509Z,,0,2,,2324.000000000058,response,ISIC_0059432.JPG,11,ISIC_0310134.JPG,ISIC_0059432.JPG,false,1,keypress(m),500,319180,319179.00000000006,316855,316840.00000000006,316871,319205,8,400,43,,ISIC_0310134.JPG
break,html.Screen,4_92_1,2023-11-03T15:58:44.510Z,,0,,,NaN,,,,,,false,,,,319181,319181,,319180,,319205,8,400,,,
break_continue,html.Screen,4_92_2,2023-11-03T15:58:44.510Z,,0,,,NaN,,,,,,false,,,,319181,319181,,319181,,319205,8,400,,,
sequence,flow.Sequence,4_92,2023-11-03T15:58:44.511Z,,0,,,2310,completion,,,,,false,,,,319182,319181,316855,316840.00000000006,316871,319205,8,400,,,
trial,html.Screen,4_93_0,2023-11-03T15:58:46.782Z,,0,2,,2263,response,ISIC_0012048.JPG,3,ISIC_5306427.JPG,ISIC_0012048.JPG,false,1,keypress(m),500,321453.00000000006,321452,319189,319182,319205,321489,8,400,44,,ISIC_5306427.JPG
break,html.Screen,4_93_1,2023-11-03T15:58:46.783Z,,0,,,NaN,,,,,,false,,,,321454,321454,,321453.00000000006,,321489,8,400,,,
break_continue,html.Screen,4_93_2,2023-11-03T15:58:46.783Z,,0,,,NaN,,,,,,false,,,,321454,321454,,321454,,321489,8,400,,,
sequence,flow.Sequence,4_93,2023-11-03T15:58:46.784Z,,0,,,2249,completion,,,,,false,,,,321455,321454,319189,319182,319205,321489,8,400,,,
trial,html.Screen,4_94_0,2023-11-03T15:58:49.116Z,,0,2,,2315.000000000058,response,ISIC_9767255.JPG,13,ISIC_0046315.JPG,ISIC_9767255.JPG,false,1,keypress(m),500,323788,323787.00000000006,321472,321455,321489,323822,8,400,45,,ISIC_0046315.JPG
break,html.Screen,4_94_1,2023-11-03T15:58:49.118Z,,0,,,NaN,,,,,,false,,,,323789,323789,,323788,,323822,8,400,,,
break_continue,html.Screen,4_94_2,2023-11-03T15:58:49.118Z,,0,,,NaN,,,,,,false,,,,323789,323789,,323789,,323822,8,400,,,
sequence,flow.Sequence,4_94,2023-11-03T15:58:49.118Z,,0,,,2300,completion,,,,,false,,,,323789,323789,321472,321455,321489,323822,8,400,,,
trial,html.Screen,4_95_0,2023-11-03T15:58:51.381Z,,0,2,,2245,response,ISIC_0015436.JPG,12,ISIC_0065128.JPG,ISIC_0015436.JPG,false,1,keypress(m),500,326052,326051,323806,323789,323822,326089,8,400,46,,ISIC_0065128.JPG
break,html.Screen,4_95_1,2023-11-03T15:58:51.382Z,,0,,,NaN,,,,,,false,,,,326053,326053,,326052,,326089,8,400,,,
break_continue,html.Screen,4_95_2,2023-11-03T15:58:51.383Z,,0,,,NaN,,,,,,false,,,,326054.00000000006,326054.00000000006,,326054.00000000006,,326089,8,400,,,
sequence,flow.Sequence,4_95,2023-11-03T15:58:51.383Z,,0,,,2232.000000000058,completion,,,,,false,,,,326054.00000000006,326054.00000000006,323806,323789,323822,326089,8,400,,,
trial,html.Screen,4_96_0,2023-11-03T15:58:53.758Z,,0,2,,2356.000000000058,response,ISIC_0071559.JPG,14,ISIC_0055013.JPG,ISIC_0071559.JPG,false,1,keypress(m),500,328430,328429.00000000006,326073,326054.00000000006,326089,328456,8,400,47,,ISIC_0055013.JPG
break,html.Screen,4_96_1,2023-11-03T15:58:53.759Z,,0,,,NaN,,,,,,false,,,,328430,328430,,328430,,328456,8,400,,,
break_continue,html.Screen,4_96_2,2023-11-03T15:58:53.760Z,,0,,,NaN,,,,,,false,,,,328431,328431,,328431,,328456,8,400,,,
sequence,flow.Sequence,4_96,2023-11-03T15:58:53.760Z,,0,,,2342,completion,,,,,false,,,,328431,328431,326073,326054.00000000006,326089,328456,8,400,,,
trial,html.Screen,4_97_0,2023-11-03T15:58:56.227Z,,0,2,,2459,response,ISIC_9424787.JPG,4,ISIC_0055783.JPG,ISIC_9424787.JPG,false,1,keypress(m),500,330899,330898,328439,328431,328456,330922,8,400,48,,ISIC_0055783.JPG
break,html.Screen,4_97_1,2023-11-03T15:58:56.228Z,,0,,,NaN,,,,,,false,,,,330900.00000000006,330900.00000000006,,330899,,330922,8,400,,,
break_continue,html.Screen,4_97_2,2023-11-03T15:58:56.229Z,,0,,,NaN,,,,,,false,,,,330900.00000000006,330900.00000000006,,330900.00000000006,,330922,8,400,,,
sequence,flow.Sequence,4_97,2023-11-03T15:58:56.229Z,,0,,,2444.000000000058,completion,,,,,false,,,,330900.00000000006,330900.00000000006,328439,328431,328456,330922,8,400,,,
trial,html.Screen,4_98_0,2023-11-03T15:58:58.532Z,,0,2,,2296,response,ISIC_7662993.JPG,1,ISIC_7802213.JPG,ISIC_7662993.JPG,false,1,keypress(m),500,333203.00000000006,333202,330906,330901,330922,333239,8,400,49,,ISIC_7802213.JPG
break,html.Screen,4_98_1,2023-11-03T15:58:58.533Z,,0,,,NaN,,,,,,false,,,,333205,333205,,333204,,333239,8,400,,,
break_continue,html.Screen,4_98_2,2023-11-03T15:58:58.534Z,,0,,,NaN,,,,,,false,,,,333205,333205,,333205,,333239,8,400,,,
sequence,flow.Sequence,4_98,2023-11-03T15:58:58.534Z,,0,,,2283,completion,,,,,false,,,,333206,333205,330906,330901,330922,333239,8,400,,,
trial,html.Screen,4_99_0,2023-11-03T15:59:00.872Z,,0,2,,2321,response,ISIC_0010266.JPG,13,ISIC_9961652.JPG,ISIC_0010266.JPG,false,1,keypress(m),500,335544,335544,333223,333206,333239,335572,8,400,50,,ISIC_9961652.JPG
break,html.Screen,4_99_1,2023-11-03T15:59:10.885Z,,0,,,10001,timeout,,,,,false,,,,345557,345557,335556,335544,335572,345573,8,400,,,
break_continue,html.Screen,4_99_2,2023-11-03T15:59:12.338Z,,0,,,1637,response,,,,,false,continue,keypress(Space),,347010,347194,345557,345558,345573,347040,8,400,,,
sequence,flow.Sequence,4_99,2023-11-03T15:59:12.339Z,,0,,,13955,completion,,,,,false,,,,347011,347194,333223,333206,333239,347040,8,400,,,
trial,html.Screen,4_100_0,2023-11-03T15:59:14.678Z,,0,3,,2327,response,ISIC_4723378.JPG,8,ISIC_5903193.JPG,ISIC_4723378.JPG,false,1,keypress(m),500,349350,349350,347023,347011,347040,349373,8,400,1,,ISIC_5903193.JPG
break,html.Screen,4_100_1,2023-11-03T15:59:14.679Z,,0,,,NaN,,,,,,false,,,,349351,349351,,349350,,349373,8,400,,,
break_continue,html.Screen,4_100_2,2023-11-03T15:59:14.680Z,,0,,,NaN,,,,,,false,,,,349352.00000000006,349352.00000000006,,349352.00000000006,,349373,8,400,,,
sequence,flow.Sequence,4_100,2023-11-03T15:59:14.680Z,,0,,,2312.000000000058,completion,,,,,false,,,,349352.00000000006,349352.00000000006,347023,347011,347040,349373,8,400,,,
trial,html.Screen,4_101_0,2023-11-03T15:59:16.800Z,,0,3,,2115,response,ISIC_6657600.JPG,0,ISIC_8759207.JPG,ISIC_6657600.JPG,false,1,keypress(m),500,351472,351471,349356,349352.00000000006,349373,351507,8,400,2,,ISIC_8759207.JPG
break,html.Screen,4_101_1,2023-11-03T15:59:16.801Z,,0,,,NaN,,,,,,false,,,,351473,351473,,351472,,351507,8,400,,,
break_continue,html.Screen,4_101_2,2023-11-03T15:59:16.801Z,,0,,,NaN,,,,,,false,,,,351473,351473,,351473,,351507,8,400,,,
sequence,flow.Sequence,4_101,2023-11-03T15:59:16.801Z,,0,,,2100,completion,,,,,false,,,,351474,351473,349356,349352.00000000006,349373,351507,8,400,,,
trial,html.Screen,4_102_0,2023-11-03T15:59:19.090Z,,0,3,,2271,response,ISIC_9045601.JPG,12,ISIC_4153234.JPG,ISIC_9045601.JPG,false,1,keypress(m),500,353762,353761,351490,351474,351507,353790,8,400,3,,ISIC_4153234.JPG
break,html.Screen,4_102_1,2023-11-03T15:59:19.091Z,,0,,,NaN,,,,,,false,,,,353763.00000000006,353763.00000000006,,353762,,353790,8,400,,,
break_continue,html.Screen,4_102_2,2023-11-03T15:59:19.091Z,,0,,,NaN,,,,,,false,,,,353764,353764,,353763.00000000006,,353790,8,400,,,
sequence,flow.Sequence,4_102,2023-11-03T15:59:19.092Z,,0,,,2257,completion,,,,,false,,,,353764,353764,351490,351474,351507,353790,8,400,,,
trial,html.Screen,4_103_0,2023-11-03T15:59:21.402Z,,0,3,,2300,response,ISIC_2967024.JPG,6,ISIC_8849818.JPG,ISIC_2967024.JPG,false,1,keypress(m),500,356075,356074,353774,353764,353790,356107,8,400,4,,ISIC_8849818.JPG
break,html.Screen,4_103_1,2023-11-03T15:59:21.403Z,,0,,,NaN,,,,,,false,,,,356076,356076,,356075,,356107,8,400,,,
break_continue,html.Screen,4_103_2,2023-11-03T15:59:21.404Z,,0,,,NaN,,,,,,false,,,,356076,356076,,356076,,356107,8,400,,,
sequence,flow.Sequence,4_103,2023-11-03T15:59:21.404Z,,0,,,2286,completion,,,,,false,,,,356076,356076,353774,353764,353790,356107,8,400,,,
trial,html.Screen,4_104_0,2023-11-03T15:59:23.696Z,,0,3,,2278,response,ISIC_9808863.JPG,9,ISIC_0054332.JPG,ISIC_9808863.JPG,false,1,keypress(m),500,358368,358368,356090,356077,356107,358390,8,400,5,,ISIC_0054332.JPG
break,html.Screen,4_104_1,2023-11-03T15:59:23.697Z,,0,,,NaN,,,,,,false,,,,358370,358369,,358369,,358390,8,400,,,
break_continue,html.Screen,4_104_2,2023-11-03T15:59:23.698Z,,0,,,NaN,,,,,,false,,,,358370,358370,,358370,,358390,8,400,,,
sequence,flow.Sequence,4_104,2023-11-03T15:59:23.698Z,,0,,,2263,completion,,,,,false,,,,358370,358370,356090,356077,356107,358390,8,400,,,
trial,html.Screen,4_105_0,2023-11-03T15:59:25.984Z,,0,3,,2283,response,ISIC_0069918.JPG,0,ISIC_0034071.JPG,ISIC_0069918.JPG,false,1,keypress(m),500,360657,360656,358373,358370,358390,360690,8,400,6,,ISIC_0034071.JPG
break,html.Screen,4_105_1,2023-11-03T15:59:25.985Z,,0,,,NaN,,,,,,false,,,,360658,360658,,360657,,360690,8,400,,,
break_continue,html.Screen,4_105_2,2023-11-03T15:59:25.986Z,,0,,,NaN,,,,,,false,,,,360658,360658,,360658,,360690,8,400,,,
sequence,flow.Sequence,4_105,2023-11-03T15:59:25.986Z,,0,,,2268,completion,,,,,false,,,,360659,360658,358373,358370,358390,360690,8,400,,,
trial,html.Screen,4_106_0,2023-11-03T15:59:28.238Z,,0,3,,2237,response,ISIC_8969855.JPG,11,ISIC_5679004.JPG,ISIC_8969855.JPG,false,1,keypress(m),500,362911,362910,360673,360659,360690,362941,8,400,7,,ISIC_5679004.JPG
break,html.Screen,4_106_1,2023-11-03T15:59:28.239Z,,0,,,NaN,,,,,,false,,,,362912.00000000006,362912.00000000006,,362911,,362941,8,400,,,
break_continue,html.Screen,4_106_2,2023-11-03T15:59:28.240Z,,0,,,NaN,,,,,,false,,,,362912.00000000006,362912.00000000006,,362912.00000000006,,362941,8,400,,,
sequence,flow.Sequence,4_106,2023-11-03T15:59:28.240Z,,0,,,2222.000000000058,completion,,,,,false,,,,362913,362912.00000000006,360673,360659,360690,362941,8,400,,,
trial,html.Screen,4_107_0,2023-11-03T15:59:30.517Z,,0,3,,2265,response,ISIC_0065658.JPG,7,ISIC_7468304.JPG,ISIC_0065658.JPG,false,1,keypress(m),500,365190,365189,362924,362913,362941,365224,8,400,8,,ISIC_7468304.JPG
break,html.Screen,4_107_1,2023-11-03T15:59:30.519Z,,0,,,NaN,,,,,,false,,,,365191.00000000006,365191.00000000006,,365190,,365224,8,400,,,
break_continue,html.Screen,4_107_2,2023-11-03T15:59:30.519Z,,0,,,NaN,,,,,,false,,,,365192,365192,,365192,,365224,8,400,,,
sequence,flow.Sequence,4_107,2023-11-03T15:59:30.519Z,,0,,,2251,completion,,,,,false,,,,365192,365192,362924,362913,362941,365224,8,400,,,
trial,html.Screen,4_108_0,2023-11-03T15:59:32.811Z,,0,3,,2276,response,ISIC_0032976.JPG,11,ISIC_0073043.JPG,ISIC_0032976.JPG,false,1,keypress(m),500,367483,367483,365207,365192,365224,367507,8,400,9,,ISIC_0073043.JPG
break,html.Screen,4_108_1,2023-11-03T15:59:32.812Z,,0,,,NaN,,,,,,false,,,,367485,367484,,367484,,367507,8,400,,,
break_continue,html.Screen,4_108_2,2023-11-03T15:59:32.812Z,,0,,,NaN,,,,,,false,,,,367485,367485,,367485,,367507,8,400,,,
sequence,flow.Sequence,4_108,2023-11-03T15:59:32.813Z,,0,,,2261,completion,,,,,false,,,,367485,367485,365207,365192,365224,367507,8,400,,,
trial,html.Screen,4_109_0,2023-11-03T15:59:35.148Z,,0,3,,2330,response,ISIC_0029571.JPG,1,ISIC_0010040.JPG,ISIC_0029571.JPG,false,1,keypress(m),500,369821,369820,367490,367486,367507,369857,8,400,10,,ISIC_0010040.JPG
break,html.Screen,4_109_1,2023-11-03T15:59:35.149Z,,0,,,NaN,,,,,,false,,,,369822,369822,,369821,,369857,8,400,,,
break_continue,html.Screen,4_109_2,2023-11-03T15:59:35.149Z,,0,,,NaN,,,,,,false,,,,369822,369822,,369822,,369857,8,400,,,
sequence,flow.Sequence,4_109,2023-11-03T15:59:35.150Z,,0,,,2315,completion,,,,,false,,,,369822,369822,367490,367485,367507,369857,8,400,,,
trial,html.Screen,4_110_0,2023-11-03T15:59:37.472Z,,0,3,,2304,response,ISIC_1515947.JPG,14,ISIC_0034012.JPG,ISIC_1515947.JPG,false,1,keypress(m),500,372145,372145,369841,369823.00000000006,369857,372174,8,400,11,,ISIC_0034012.JPG
break,html.Screen,4_110_1,2023-11-03T15:59:37.474Z,,0,,,NaN,,,,,,false,,,,372147,372146,,372146,,372174,8,400,,,
break_continue,html.Screen,4_110_2,2023-11-03T15:59:37.474Z,,0,,,NaN,,,,,,false,,,,372147,372147,,372147,,372174,8,400,,,
sequence,flow.Sequence,4_110,2023-11-03T15:59:37.474Z,,0,,,2290,completion,,,,,false,,,,372147,372147,369841,369823.00000000006,369857,372174,8,400,,,
trial,html.Screen,4_111_0,2023-11-03T15:59:39.865Z,,0,3,,2379.000000000058,response,ISIC_0034150.JPG,6,ISIC_0067476.JPG,ISIC_0034150.JPG,false,1,keypress(m),500,374538,374537.00000000006,372158,372147,372174,374574,8,400,12,,ISIC_0067476.JPG
break,html.Screen,4_111_1,2023-11-03T15:59:39.866Z,,0,,,NaN,,,,,,false,,,,374539,374539,,374538,,374574,8,400,,,
break_continue,html.Screen,4_111_2,2023-11-03T15:59:39.866Z,,0,,,NaN,,,,,,false,,,,374539,374539,,374539,,374574,8,400,,,
sequence,flow.Sequence,4_111,2023-11-03T15:59:39.867Z,,0,,,2365,completion,,,,,false,,,,374540,374539,372158,372147,372174,374574,8,400,,,
trial,html.Screen,4_112_0,2023-11-03T15:59:42.164Z,,0,3,,2279,response,ISIC_1300967.JPG,14,ISIC_0001108.JPG,ISIC_1300967.JPG,false,1,keypress(m),500,376837,376837,374558,374540,374574,376875,8,400,13,,ISIC_0001108.JPG
break,html.Screen,4_112_1,2023-11-03T15:59:42.165Z,,0,,,NaN,,,,,,false,,,,376838,376838,,376838,,376875,8,400,,,
break_continue,html.Screen,4_112_2,2023-11-03T15:59:42.166Z,,0,,,NaN,,,,,,false,,,,376839,376839,,376839,,376875,8,400,,,
sequence,flow.Sequence,4_112,2023-11-03T15:59:42.166Z,,0,,,2265,completion,,,,,false,,,,376839,376839,374558,374540,374574,376875,8,400,,,
trial,html.Screen,4_113_0,2023-11-03T15:59:44.358Z,,0,3,,2173,response,ISIC_0013316.JPG,14,ISIC_6013764.JPG,ISIC_0013316.JPG,false,1,keypress(m),500,379032,379031,376858,376839,376875,379058,8,400,14,,ISIC_6013764.JPG
break,html.Screen,4_113_1,2023-11-03T15:59:44.359Z,,0,,,NaN,,,,,,false,,,,379033,379033,,379032,,379058,8,400,,,
break_continue,html.Screen,4_113_2,2023-11-03T15:59:44.360Z,,0,,,NaN,,,,,,false,,,,379033,379033,,379033,,379058,8,400,,,
sequence,flow.Sequence,4_113,2023-11-03T15:59:44.360Z,,0,,,2158,completion,,,,,false,,,,379033,379033,376858,376839,376875,379058,8,400,,,
trial,html.Screen,4_114_0,2023-11-03T15:59:46.678Z,,0,3,,2309,response,ISIC_7501061.JPG,3,ISIC_0759561.JPG,ISIC_7501061.JPG,false,1,keypress(m),500,381351,381350,379041,379033,379058,381375,8,400,15,,ISIC_0759561.JPG
break,html.Screen,4_114_1,2023-11-03T15:59:46.679Z,,0,,,NaN,,,,,,false,,,,381352.00000000006,381352.00000000006,,381351,,381375,8,400,,,
break_continue,html.Screen,4_114_2,2023-11-03T15:59:46.679Z,,0,,,NaN,,,,,,false,,,,381353,381352.00000000006,,381352.00000000006,,381375,8,400,,,
sequence,flow.Sequence,4_114,2023-11-03T15:59:46.680Z,,0,,,2294.000000000058,completion,,,,,false,,,,381353,381352.00000000006,379041,379033,379058,381375,8,400,,,
trial,html.Screen,4_115_0,2023-11-03T15:59:49.090Z,,0,3,,2406.000000000058,response,ISIC_3374533.JPG,1,ISIC_4055288.JPG,ISIC_3374533.JPG,false,1,keypress(m),500,383764,383763.00000000006,381357,381353,381375,383791,8,400,16,,ISIC_4055288.JPG
break,html.Screen,4_115_1,2023-11-03T15:59:49.091Z,,0,,,NaN,,,,,,false,,,,383765,383764,,383764,,383791,8,400,,,
break_continue,html.Screen,4_115_2,2023-11-03T15:59:49.092Z,,0,,,NaN,,,,,,false,,,,383765,383765,,383765,,383791,8,400,,,
sequence,flow.Sequence,4_115,2023-11-03T15:59:49.092Z,,0,,,2390,completion,,,,,false,,,,383765,383765,381357,381353,381375,383791,8,400,,,
trial,html.Screen,4_116_0,2023-11-03T15:59:51.396Z,,0,3,,2294,response,ISIC_0011489.JPG,6,ISIC_0026685.JPG,ISIC_0011489.JPG,false,1,keypress(m),500,386070,386069,383775,383766,383791,386091,8,400,17,,ISIC_0026685.JPG
break,html.Screen,4_116_1,2023-11-03T15:59:51.398Z,,0,,,NaN,,,,,,false,,,,386071,386071,,386070,,386091,8,400,,,
break_continue,html.Screen,4_116_2,2023-11-03T15:59:51.398Z,,0,,,NaN,,,,,,false,,,,386072,386071,,386071,,386091,8,400,,,
sequence,flow.Sequence,4_116,2023-11-03T15:59:51.398Z,,0,,,2280,completion,,,,,false,,,,386072,386071,383775,383765,383791,386091,8,400,,,
trial,html.Screen,4_117_0,2023-11-03T15:59:53.891Z,,0,3,,2490,response,ISIC_0029007.JPG,15,ISIC_4529363.JPG,ISIC_0029007.JPG,false,1,keypress(m),500,388565,388564,386074,386072,386091,388592,8,400,18,,ISIC_4529363.JPG
break,html.Screen,4_117_1,2023-11-03T15:59:53.893Z,,0,,,NaN,,,,,,false,,,,388566.00000000006,388566.00000000006,,388565,,388592,8,400,,,
break_continue,html.Screen,4_117_2,2023-11-03T15:59:53.893Z,,0,,,NaN,,,,,,false,,,,388567,388567,,388566.00000000006,,388592,8,400,,,
sequence,flow.Sequence,4_117,2023-11-03T15:59:53.893Z,,0,,,2476,completion,,,,,false,,,,388567,388567,386074,386072,386091,388592,8,400,,,
trial,html.Screen,4_118_0,2023-11-03T15:59:56.238Z,,0,3,,2336,response,ISIC_0011135.JPG,4,ISIC_1924949.JPG,ISIC_0011135.JPG,false,1,keypress(m),500,390911,390911,388575,388567,388592,390942,8,400,19,,ISIC_1924949.JPG
break,html.Screen,4_118_1,2023-11-03T15:59:56.239Z,,0,,,NaN,,,,,,false,,,,390913,390912.00000000006,,390912.00000000006,,390942,8,400,,,
break_continue,html.Screen,4_118_2,2023-11-03T15:59:56.239Z,,0,,,NaN,,,,,,false,,,,390913,390913,,390913,,390942,8,400,,,
sequence,flow.Sequence,4_118,2023-11-03T15:59:56.240Z,,0,,,2321,completion,,,,,false,,,,390913,390913,388575,388567,388592,390942,8,400,,,
trial,html.Screen,4_119_0,2023-11-03T15:59:58.574Z,,0,3,,2322,response,ISIC_0030087.JPG,8,ISIC_0011030.JPG,ISIC_0030087.JPG,false,1,keypress(m),500,393248,393247,390925,390913,390942,393275,8,400,20,,ISIC_0011030.JPG
break,html.Screen,4_119_1,2023-11-03T15:59:58.575Z,,0,,,NaN,,,,,,false,,,,393249,393249,,393248,,393275,8,400,,,
break_continue,html.Screen,4_119_2,2023-11-03T15:59:58.576Z,,0,,,NaN,,,,,,false,,,,393250,393249,,393249,,393275,8,400,,,
sequence,flow.Sequence,4_119,2023-11-03T15:59:58.576Z,,0,,,2307,completion,,,,,false,,,,393250,393249,390925,390913,390942,393275,8,400,,,
trial,html.Screen,4_120_0,2023-11-03T16:00:00.860Z,,0,3,,2274,response,ISIC_0025508.JPG,5,ISIC_9680433.JPG,ISIC_0025508.JPG,false,1,keypress(m),500,395534,395533,393259,393250,393275,395559,8,400,21,,ISIC_9680433.JPG
break,html.Screen,4_120_1,2023-11-03T16:00:00.861Z,,0,,,NaN,,,,,,false,,,,395535,395535,,395534,,395559,8,400,,,
break_continue,html.Screen,4_120_2,2023-11-03T16:00:00.862Z,,0,,,NaN,,,,,,false,,,,395535,395535,,395535,,395559,8,400,,,
sequence,flow.Sequence,4_120,2023-11-03T16:00:00.862Z,,0,,,2260,completion,,,,,false,,,,395536,395535,393259,393250,393275,395559,8,400,,,
trial,html.Screen,4_121_0,2023-11-03T16:00:02.996Z,,0,3,,2128,response,ISIC_6099476.JPG,1,ISIC_2203247.JPG,ISIC_6099476.JPG,false,1,keypress(m),500,397670,397670,395542,395536,395559,397692,8,400,22,,ISIC_2203247.JPG
break,html.Screen,4_121_1,2023-11-03T16:00:02.998Z,,0,,,NaN,,,,,,false,,,,397672,397671,,397671,,397692,8,400,,,
break_continue,html.Screen,4_121_2,2023-11-03T16:00:02.998Z,,0,,,NaN,,,,,,false,,,,397672,397672,,397672,,397692,8,400,,,
sequence,flow.Sequence,4_121,2023-11-03T16:00:02.998Z,,0,,,2113,completion,,,,,false,,,,397672,397672,395542,395536,395559,397692,8,400,,,
trial,html.Screen,4_122_0,2023-11-03T16:00:05.363Z,,0,3,,2361,response,ISIC_0026560.JPG,15,ISIC_0056902.JPG,ISIC_0026560.JPG,false,1,keypress(m),500,400037.00000000006,400036,397675,397672,397692,400059,8,400,23,,ISIC_0056902.JPG
break,html.Screen,4_122_1,2023-11-03T16:00:05.364Z,,0,,,NaN,,,,,,false,,,,400038,400038,,400037.00000000006,,400059,8,400,,,
break_continue,html.Screen,4_122_2,2023-11-03T16:00:05.364Z,,0,,,NaN,,,,,,false,,,,400038,400038,,400038,,400059,8,400,,,
sequence,flow.Sequence,4_122,2023-11-03T16:00:05.364Z,,0,,,2346,completion,,,,,false,,,,400038,400038,397675,397672,397692,400059,8,400,,,
trial,html.Screen,4_123_0,2023-11-03T16:00:07.848Z,,0,3,,2480,response,ISIC_0061184.JPG,0,ISIC_7822725.JPG,ISIC_0061184.JPG,false,1,keypress(m),500,402522,402522,400042,400038,400059,402558,8,400,24,,ISIC_7822725.JPG
break,html.Screen,4_123_1,2023-11-03T16:00:07.849Z,,0,,,NaN,,,,,,false,,,,402523,402523,,402523,,402558,8,400,,,
break_continue,html.Screen,4_123_2,2023-11-03T16:00:07.850Z,,0,,,NaN,,,,,,false,,,,402524,402524,,402524,,402558,8,400,,,
sequence,flow.Sequence,4_123,2023-11-03T16:00:07.850Z,,0,,,2465,completion,,,,,false,,,,402524,402524,400042,400038,400059,402558,8,400,,,
trial,html.Screen,4_124_0,2023-11-03T16:00:10.169Z,,0,3,,2299,response,ISIC_0071169.JPG,13,ISIC_6392089.JPG,ISIC_0071169.JPG,false,1,keypress(m),500,404843,404842,402543,402524,402558,404876,8,400,25,,ISIC_6392089.JPG
break,html.Screen,4_124_1,2023-11-03T16:00:10.170Z,,0,,,NaN,,,,,,false,,,,404844,404844,,404843,,404876,8,400,,,
break_continue,html.Screen,4_124_2,2023-11-03T16:00:10.170Z,,0,,,NaN,,,,,,false,,,,404844,404844,,404844,,404876,8,400,,,
sequence,flow.Sequence,4_124,2023-11-03T16:00:10.170Z,,0,,,2286,completion,,,,,false,,,,404845,404844,402543,402524,402558,404876,8,400,,,
trial,html.Screen,4_125_0,2023-11-03T16:00:12.722Z,,0,3,,2536,response,ISIC_0072953.JPG,10,ISIC_5931552.JPG,ISIC_0072953.JPG,false,1,keypress(m),500,407396,407395,404859,404845,404876,407426,8,400,26,,ISIC_5931552.JPG
break,html.Screen,4_125_1,2023-11-03T16:00:12.723Z,,0,,,NaN,,,,,,false,,,,407397,407397,,407396,,407426,8,400,,,
break_continue,html.Screen,4_125_2,2023-11-03T16:00:12.723Z,,0,,,NaN,,,,,,false,,,,407397,407397,,407397,,407426,8,400,,,
sequence,flow.Sequence,4_125,2023-11-03T16:00:12.723Z,,0,,,2521,completion,,,,,false,,,,407398,407397,404859,404845,404876,407426,8,400,,,
trial,html.Screen,4_126_0,2023-11-03T16:00:15.004Z,,0,3,,2269,response,ISIC_0032856.JPG,7,ISIC_0378399.JPG,ISIC_0032856.JPG,false,1,keypress(m),500,409678,409678,407409,407398,407426,409708,8,400,27,,ISIC_0378399.JPG
break,html.Screen,4_126_1,2023-11-03T16:00:15.005Z,,0,,,NaN,,,,,,false,,,,409679.00000000006,409679.00000000006,,409679.00000000006,,409708,8,400,,,
break_continue,html.Screen,4_126_2,2023-11-03T16:00:15.005Z,,0,,,NaN,,,,,,false,,,,409680,409679.00000000006,,409679.00000000006,,409708,8,400,,,
sequence,flow.Sequence,4_126,2023-11-03T16:00:15.005Z,,0,,,2253.000000000058,completion,,,,,false,,,,409680,409679.00000000006,407409,407398,407426,409708,8,400,,,
trial,html.Screen,4_127_0,2023-11-03T16:00:17.521Z,,0,3,,2502,response,ISIC_3902917.JPG,8,ISIC_0060979.JPG,ISIC_3902917.JPG,false,1,keypress(m),500,412196,412195,409693,409680,409708,412226,8,400,28,,ISIC_0060979.JPG
break,html.Screen,4_127_1,2023-11-03T16:00:17.522Z,,0,,,NaN,,,,,,false,,,,412197,412197,,412196,,412226,8,400,,,
break_continue,html.Screen,4_127_2,2023-11-03T16:00:17.523Z,,0,,,NaN,,,,,,false,,,,412197,412197,,412197,,412226,8,400,,,
sequence,flow.Sequence,4_127,2023-11-03T16:00:17.523Z,,0,,,2489,completion,,,,,false,,,,412198.00000000006,412197,409693,409680,409708,412226,8,400,,,
trial,html.Screen,4_128_0,2023-11-03T16:00:20.406Z,,0,3,,2871,response,ISIC_0062161.JPG,7,ISIC_0002288.JPG,ISIC_0062161.JPG,false,1,keypress(m),500,415080,415080,412209,412198.00000000006,412226,415109,8,400,29,,ISIC_0002288.JPG
break,html.Screen,4_128_1,2023-11-03T16:00:20.407Z,,0,,,NaN,,,,,,false,,,,415081,415081,,415081,,415109,8,400,,,
break_continue,html.Screen,4_128_2,2023-11-03T16:00:20.407Z,,0,,,NaN,,,,,,false,,,,415082,415082,,415082,,415109,8,400,,,
sequence,flow.Sequence,4_128,2023-11-03T16:00:20.407Z,,0,,,2856,completion,,,,,false,,,,415082,415082,412209,412198.00000000006,412226,415109,8,400,,,
trial,html.Screen,4_129_0,2023-11-03T16:00:22.699Z,,0,3,,2281,response,ISIC_0821520.JPG,6,ISIC_0033569.JPG,ISIC_0821520.JPG,false,1,keypress(m),500,417374,417374,415093,415082,415109,417393,8,400,30,,ISIC_0033569.JPG
break,html.Screen,4_129_1,2023-11-03T16:00:22.700Z,,0,,,NaN,,,,,,false,,,,417375,417375,,417374,,417393,8,400,,,
break_continue,html.Screen,4_129_2,2023-11-03T16:00:22.701Z,,0,,,NaN,,,,,,false,,,,417376.00000000006,417375,,417375,,417393,8,400,,,
sequence,flow.Sequence,4_129,2023-11-03T16:00:22.701Z,,0,,,2266,completion,,,,,false,,,,417376.00000000006,417375,415093,415082,415109,417393,8,400,,,
trial,html.Screen,4_130_0,2023-11-03T16:00:25.044Z,,0,3,,2341,response,ISIC_0067308.JPG,12,ISIC_0068413.JPG,ISIC_0067308.JPG,false,1,keypress(m),500,419719,419719,417378,417376.00000000006,417393,419743,8,400,31,,ISIC_0068413.JPG
break,html.Screen,4_130_1,2023-11-03T16:00:25.045Z,,0,,,NaN,,,,,,false,,,,419720,419720,,419719,,419743,8,400,,,
break_continue,html.Screen,4_130_2,2023-11-03T16:00:25.046Z,,0,,,NaN,,,,,,false,,,,419721,419721,,419720,,419743,8,400,,,
sequence,flow.Sequence,4_130,2023-11-03T16:00:25.046Z,,0,,,2328,completion,,,,,false,,,,419721,419721,417378,417376.00000000006,417393,419743,8,400,,,
trial,html.Screen,4_131_0,2023-11-03T16:00:27.051Z,,0,3,,1999,response,ISIC_0033679.JPG,1,ISIC_0060707.JPG,ISIC_0033679.JPG,false,1,keypress(m),500,421726,421725,419726,419721,419743,421760,8,400,32,,ISIC_0060707.JPG
break,html.Screen,4_131_1,2023-11-03T16:00:27.052Z,,0,,,NaN,,,,,,false,,,,421727.00000000006,421727.00000000006,,421726,,421760,8,400,,,
break_continue,html.Screen,4_131_2,2023-11-03T16:00:27.053Z,,0,,,NaN,,,,,,false,,,,421728,421728,,421727.00000000006,,421760,8,400,,,
sequence,flow.Sequence,4_131,2023-11-03T16:00:27.053Z,,0,,,1985,completion,,,,,false,,,,421728,421728,419726,419721,419743,421760,8,400,,,
trial,html.Screen,4_132_0,2023-11-03T16:00:29.344Z,,0,3,,2276,response,ISIC_3009564.JPG,10,ISIC_2717192.JPG,ISIC_3009564.JPG,false,1,keypress(m),500,424019,424019,421743,421728,421760,424043,8,400,33,,ISIC_2717192.JPG
break,html.Screen,4_132_1,2023-11-03T16:00:29.346Z,,0,,,NaN,,,,,,false,,,,424021,424020,,424020,,424043,8,400,,,
break_continue,html.Screen,4_132_2,2023-11-03T16:00:29.346Z,,0,,,NaN,,,,,,false,,,,424021,424021,,424021,,424043,8,400,,,
sequence,flow.Sequence,4_132,2023-11-03T16:00:29.346Z,,0,,,2261,completion,,,,,false,,,,424021,424021,421743,421728,421760,424043,8,400,,,
trial,html.Screen,4_133_0,2023-11-03T16:00:31.899Z,,0,3,,2548,response,ISIC_8909545.JPG,1,ISIC_2682861.JPG,ISIC_8909545.JPG,false,1,keypress(m),500,426574,426574,424026,424021,424043,426610,8,400,34,,ISIC_2682861.JPG
break,html.Screen,4_133_1,2023-11-03T16:00:31.900Z,,0,,,NaN,,,,,,false,,,,426576,426575,,426575,,426610,8,400,,,
break_continue,html.Screen,4_133_2,2023-11-03T16:00:31.901Z,,0,,,NaN,,,,,,false,,,,426576,426576,,426576,,426610,8,400,,,
sequence,flow.Sequence,4_133,2023-11-03T16:00:31.901Z,,0,,,2533,completion,,,,,false,,,,426576,426576,424026,424021,424043,426610,8,400,,,
trial,html.Screen,4_134_0,2023-11-03T16:00:34.220Z,,0,3,,2301,response,ISIC_0031598.JPG,12,ISIC_0033771.JPG,ISIC_0031598.JPG,false,1,keypress(m),500,428895,428895,426594,426576,426610,428927,8,400,35,,ISIC_0033771.JPG
break,html.Screen,4_134_1,2023-11-03T16:00:34.221Z,,0,,,NaN,,,,,,false,,,,428896,428896,,428895,,428927,8,400,,,
break_continue,html.Screen,4_134_2,2023-11-03T16:00:34.221Z,,0,,,NaN,,,,,,false,,,,428897,428897,,428896,,428927,8,400,,,
sequence,flow.Sequence,4_134,2023-11-03T16:00:34.222Z,,0,,,2287,completion,,,,,false,,,,428897,428897,426594,426576,426610,428927,8,400,,,
trial,html.Screen,4_135_0,2023-11-03T16:00:36.567Z,,0,3,,2333,response,ISIC_0006624.JPG,9,ISIC_0030116.JPG,ISIC_0006624.JPG,false,1,keypress(m),500,431242,431242,428909,428897,428927,431277,8,400,36,,ISIC_0030116.JPG
break,html.Screen,4_135_1,2023-11-03T16:00:36.568Z,,0,,,NaN,,,,,,false,,,,431244,431243,,431243,,431277,8,400,,,
break_continue,html.Screen,4_135_2,2023-11-03T16:00:36.569Z,,0,,,NaN,,,,,,false,,,,431244,431244,,431244,,431277,8,400,,,
sequence,flow.Sequence,4_135,2023-11-03T16:00:36.569Z,,0,,,2317,completion,,,,,false,,,,431244,431244,428909,428897,428927,431277,8,400,,,
trial,html.Screen,4_136_0,2023-11-03T16:00:38.879Z,,0,3,,2294.000000000058,response,ISIC_7138875.JPG,11,ISIC_7798403.JPG,ISIC_7138875.JPG,false,1,keypress(m),500,433554.00000000006,433554.00000000006,431260,431244,431277,433577,8,400,37,,ISIC_7798403.JPG
break,html.Screen,4_136_1,2023-11-03T16:00:38.880Z,,0,,,NaN,,,,,,false,,,,433556,433555,,433555,,433577,8,400,,,
break_continue,html.Screen,4_136_2,2023-11-03T16:00:38.881Z,,0,,,NaN,,,,,,false,,,,433556,433556,,433556,,433577,8,400,,,
sequence,flow.Sequence,4_136,2023-11-03T16:00:38.881Z,,0,,,2279,completion,,,,,false,,,,433556,433556,431260,431244,431277,433577,8,400,,,
trial,html.Screen,4_137_0,2023-11-03T16:00:42.426Z,,0,3,,3541,response,ISIC_6054977.JPG,16,ISIC_0072553.JPG,ISIC_6054977.JPG,false,1,keypress(m),500,437101,437101,433560,433556,433577,437127,8,400,38,,ISIC_0072553.JPG
break,html.Screen,4_137_1,2023-11-03T16:00:42.427Z,,0,,,NaN,,,,,,false,,,,437103,437102.00000000006,,437102.00000000006,,437127,8,400,,,
break_continue,html.Screen,4_137_2,2023-11-03T16:00:42.427Z,,0,,,NaN,,,,,,false,,,,437103,437103,,437103,,437127,8,400,,,
sequence,flow.Sequence,4_137,2023-11-03T16:00:42.428Z,,0,,,3526,completion,,,,,false,,,,437103,437103,433560,433556,433577,437127,8,400,,,
trial,html.Screen,4_138_0,2023-11-03T16:00:44.764Z,,0,3,,2329,response,ISIC_0034141.JPG,3,ISIC_5191344.JPG,ISIC_0034141.JPG,false,1,keypress(m),500,439439,439439,437110,437103,437127,439477,8,400,39,,ISIC_5191344.JPG
break,html.Screen,4_138_1,2023-11-03T16:00:44.765Z,,0,,,NaN,,,,,,false,,,,439440,439440,,439440,,439477,8,400,,,
break_continue,html.Screen,4_138_2,2023-11-03T16:00:44.765Z,,0,,,NaN,,,,,,false,,,,439441.00000000006,439441.00000000006,,439441.00000000006,,439477,8,400,,,
sequence,flow.Sequence,4_138,2023-11-03T16:00:44.765Z,,0,,,2314.000000000058,completion,,,,,false,,,,439441.00000000006,439441.00000000006,437110,437103,437127,439477,8,400,,,
trial,html.Screen,4_139_0,2023-11-03T16:00:47.225Z,,0,3,,2439.000000000058,response,ISIC_0900349.JPG,15,ISIC_0070248.JPG,ISIC_0900349.JPG,false,1,keypress(m),500,441900.00000000006,441900.00000000006,439461,439441.00000000006,439477,441927,8,400,40,,ISIC_0070248.JPG
break,html.Screen,4_139_1,2023-11-03T16:00:47.225Z,,0,,,NaN,,,,,,false,,,,441901,441901,,441901,,441927,8,400,,,
break_continue,html.Screen,4_139_2,2023-11-03T16:00:47.226Z,,0,,,NaN,,,,,,false,,,,441901,441901,,441901,,441927,8,400,,,
sequence,flow.Sequence,4_139,2023-11-03T16:00:47.226Z,,0,,,2424,completion,,,,,false,,,,441902,441901,439461,439441.00000000006,439477,441927,8,400,,,
trial,html.Screen,4_140_0,2023-11-03T16:00:49.481Z,,0,3,,2245,response,ISIC_0064589.JPG,5,ISIC_0072612.JPG,ISIC_0064589.JPG,false,1,keypress(m),500,444156,444156,441911,441902,441927,444194,8,400,41,,ISIC_0072612.JPG
break,html.Screen,4_140_1,2023-11-03T16:00:49.482Z,,0,,,NaN,,,,,,false,,,,444158,444157,,444157,,444194,8,400,,,
break_continue,html.Screen,4_140_2,2023-11-03T16:00:49.482Z,,0,,,NaN,,,,,,false,,,,444158,444158,,444158,,444194,8,400,,,
sequence,flow.Sequence,4_140,2023-11-03T16:00:49.482Z,,0,,,2231,completion,,,,,false,,,,444158,444158,441911,441902,441927,444194,8,400,,,
trial,html.Screen,4_141_0,2023-11-03T16:00:51.803Z,,0,3,,2300,response,ISIC_0000310.JPG,15,ISIC_0025748.JPG,ISIC_0000310.JPG,false,1,keypress(m),500,446479,446478,444178,444158,444194,446511,8,400,42,,ISIC_0025748.JPG
break,html.Screen,4_141_1,2023-11-03T16:00:51.804Z,,0,,,NaN,,,,,,false,,,,446480,446480,,446479,,446511,8,400,,,
break_continue,html.Screen,4_141_2,2023-11-03T16:00:51.804Z,,0,,,NaN,,,,,,false,,,,446480,446480,,446480,,446511,8,400,,,
sequence,flow.Sequence,4_141,2023-11-03T16:00:51.804Z,,0,,,2286,completion,,,,,false,,,,446480,446480,444178,444158,444194,446511,8,400,,,
trial,html.Screen,4_142_0,2023-11-03T16:00:54.065Z,,0,3,,2246,response,ISIC_0012681.JPG,9,ISIC_0031711.JPG,ISIC_0012681.JPG,false,1,keypress(m),500,448741,448740,446494,446481,446511,448776,8,400,43,,ISIC_0031711.JPG
break,html.Screen,4_142_1,2023-11-03T16:00:54.066Z,,0,,,NaN,,,,,,false,,,,448742,448742,,448741,,448776,8,400,,,
break_continue,html.Screen,4_142_2,2023-11-03T16:00:54.066Z,,0,,,NaN,,,,,,false,,,,448742,448742,,448742,,448776,8,400,,,
sequence,flow.Sequence,4_142,2023-11-03T16:00:54.067Z,,0,,,2231,completion,,,,,false,,,,448743,448742,446494,446480,446511,448776,8,400,,,
trial,html.Screen,4_143_0,2023-11-03T16:00:56.454Z,,0,3,,2368,response,ISIC_0012211.JPG,14,ISIC_0026475.JPG,ISIC_0012211.JPG,false,1,keypress(m),500,451130,451129,448761,448743,448776,451161,8,400,44,,ISIC_0026475.JPG
break,html.Screen,4_143_1,2023-11-03T16:00:56.455Z,,0,,,NaN,,,,,,false,,,,451131,451131,,451130,,451161,8,400,,,
break_continue,html.Screen,4_143_2,2023-11-03T16:00:56.455Z,,0,,,NaN,,,,,,false,,,,451132,451131,,451131,,451161,8,400,,,
sequence,flow.Sequence,4_143,2023-11-03T16:00:56.456Z,,0,,,2355,completion,,,,,false,,,,451132,451131,448761,448743,448776,451161,8,400,,,
trial,html.Screen,4_144_0,2023-11-03T16:00:58.993Z,,0,3,,2525,response,ISIC_0060893.JPG,8,ISIC_1175170.JPG,ISIC_0060893.JPG,false,1,keypress(m),500,453669,453669,451144,451132,451161,453694,8,400,45,,ISIC_1175170.JPG
break,html.Screen,4_144_1,2023-11-03T16:00:58.994Z,,0,,,NaN,,,,,,false,,,,453670,453670,,453670,,453694,8,400,,,
break_continue,html.Screen,4_144_2,2023-11-03T16:00:58.995Z,,0,,,NaN,,,,,,false,,,,453671,453671,,453671,,453694,8,400,,,
sequence,flow.Sequence,4_144,2023-11-03T16:00:58.995Z,,0,,,2510,completion,,,,,false,,,,453671,453671,451144,451132,451161,453694,8,400,,,
trial,html.Screen,4_145_0,2023-11-03T16:01:01.282Z,,0,3,,2280,response,ISIC_8588033.JPG,2,ISIC_0055226.JPG,ISIC_8588033.JPG,false,1,keypress(m),500,455958,455957,453677,453671,453694,455994,8,400,46,,ISIC_0055226.JPG
break,html.Screen,4_145_1,2023-11-03T16:01:01.283Z,,0,,,NaN,,,,,,false,,,,455959,455959,,455958,,455994,8,400,,,
break_continue,html.Screen,4_145_2,2023-11-03T16:01:01.283Z,,0,,,NaN,,,,,,false,,,,455960.00000000006,455959,,455959,,455994,8,400,,,
sequence,flow.Sequence,4_145,2023-11-03T16:01:01.284Z,,0,,,2265,completion,,,,,false,,,,455960.00000000006,455959,453677,453671,453694,455994,8,400,,,
trial,html.Screen,4_146_0,2023-11-03T16:01:03.585Z,,0,3,,2282,response,ISIC_0450295.JPG,13,ISIC_0439726.JPG,ISIC_0450295.JPG,false,1,keypress(m),500,458261,458261,455979,455960.00000000006,455994,458294,8,400,47,,ISIC_0439726.JPG
break,html.Screen,4_146_1,2023-11-03T16:01:03.586Z,,0,,,NaN,,,,,,false,,,,458262,458262,,458261,,458294,8,400,,,
break_continue,html.Screen,4_146_2,2023-11-03T16:01:03.586Z,,0,,,NaN,,,,,,false,,,,458262,458262,,458262,,458294,8,400,,,
sequence,flow.Sequence,4_146,2023-11-03T16:01:03.586Z,,0,,,2268,completion,,,,,false,,,,458262,458262,455979,455960.00000000006,455994,458294,8,400,,,
trial,html.Screen,4_147_0,2023-11-03T16:01:05.834Z,,0,3,,2231,response,ISIC_0034253.JPG,11,ISIC_6777714.JPG,ISIC_0034253.JPG,false,1,keypress(m),500,460510,460509,458278,458263.00000000006,458294,460545,8,400,48,,ISIC_6777714.JPG
break,html.Screen,4_147_1,2023-11-03T16:01:05.835Z,,0,,,NaN,,,,,,false,,,,460511,460511,,460510,,460545,8,400,,,
break_continue,html.Screen,4_147_2,2023-11-03T16:01:05.835Z,,0,,,NaN,,,,,,false,,,,460512,460511,,460511,,460545,8,400,,,
sequence,flow.Sequence,4_147,2023-11-03T16:01:05.835Z,,0,,,2217,completion,,,,,false,,,,460512,460511,458278,458263.00000000006,458294,460545,8,400,,,
trial,html.Screen,4_148_0,2023-11-03T16:01:08.157Z,,0,3,,2305,response,ISIC_0000306.JPG,12,ISIC_0069620.JPG,ISIC_0000306.JPG,false,1,keypress(m),500,462834,462833,460528,460512,460545,462861,8,400,49,,ISIC_0069620.JPG
break,html.Screen,4_148_1,2023-11-03T16:01:08.158Z,,0,,,NaN,,,,,,false,,,,462835.00000000006,462835.00000000006,,462834,,462861,8,400,,,
break_continue,html.Screen,4_148_2,2023-11-03T16:01:08.159Z,,0,,,NaN,,,,,,false,,,,462835.00000000006,462835.00000000006,,462835.00000000006,,462861,8,400,,,
sequence,flow.Sequence,4_148,2023-11-03T16:01:08.159Z,,0,,,2290.000000000058,completion,,,,,false,,,,462836,462835.00000000006,460528,460512,460545,462861,8,400,,,
trial,html.Screen,4_149_0,2023-11-03T16:01:10.757Z,,0,3,,2589,response,ISIC_0058376.JPG,4,ISIC_4782878.JPG,ISIC_0058376.JPG,false,1,keypress(m),500,465434,465433,462844,462836,462861,465461,8,400,50,,ISIC_4782878.JPG
break,html.Screen,4_149_1,2023-11-03T16:01:20.769Z,,0,,,10001,timeout,,,,,false,,,,475446,475445,465445,465434,465461,475462,8,400,,,
break_continue,html.Screen,4_149_2,2023-11-03T16:01:22.002Z,,0,,,1423,response,,,,,false,continue,keypress(Space),,476679.00000000006,476868,475445,475446,475462,476712,8,400,,,
sequence,flow.Sequence,4_149,2023-11-03T16:01:22.002Z,,0,,,14007,completion,,,,,false,,,,476679.00000000006,476868,462844,462836,462861,476712,8,400,,,
trial,html.Screen,4_150_0,2023-11-03T16:01:25.425Z,,0,4,,3407.000000000058,response,ISIC_1601532.JPG,12,ISIC_3256116.JPG,ISIC_3256116.JPG,false,0,keypress(z),500,480103,480102.00000000006,476695,476679.00000000006,476712,480129,8,400,1,,ISIC_1601532.JPG
break,html.Screen,4_150_1,2023-11-03T16:01:25.427Z,,0,,,NaN,,,,,,false,,,,480104,480104,,480103,,480129,8,400,,,
break_continue,html.Screen,4_150_2,2023-11-03T16:01:25.427Z,,0,,,NaN,,,,,,false,,,,480104,480104,,480104,,480129,8,400,,,
sequence,flow.Sequence,4_150,2023-11-03T16:01:25.427Z,,0,,,3392,completion,,,,,false,,,,480104,480104,476695,476679.00000000006,476712,480129,8,400,,,
trial,html.Screen,4_151_0,2023-11-03T16:01:27.785Z,,0,4,,2351,response,ISIC_3716504.JPG,3,ISIC_9574191.JPG,ISIC_9574191.JPG,false,0,keypress(z),500,482462,482462,480111,480104,480129,482496,8,400,2,,ISIC_3716504.JPG
break,html.Screen,4_151_1,2023-11-03T16:01:27.786Z,,0,,,NaN,,,,,,false,,,,482464,482463,,482463,,482496,8,400,,,
break_continue,html.Screen,4_151_2,2023-11-03T16:01:27.787Z,,0,,,NaN,,,,,,false,,,,482464,482464,,482464,,482496,8,400,,,
sequence,flow.Sequence,4_151,2023-11-03T16:01:27.787Z,,0,,,2335,completion,,,,,false,,,,482464,482464,480111,480104,480129,482496,8,400,,,
trial,html.Screen,4_152_0,2023-11-03T16:01:30.429Z,,0,4,,2626,response,ISIC_0027514.JPG,11,ISIC_0029092.JPG,ISIC_0029092.JPG,false,0,keypress(z),500,485106,485105,482479,482464,482496,485129,8,400,3,,ISIC_0027514.JPG
break,html.Screen,4_152_1,2023-11-03T16:01:30.430Z,,0,,,NaN,,,,,,false,,,,485107,485107,,485106,,485129,8,400,,,
break_continue,html.Screen,4_152_2,2023-11-03T16:01:30.430Z,,0,,,NaN,,,,,,false,,,,485108,485107,,485107,,485129,8,400,,,
sequence,flow.Sequence,4_152,2023-11-03T16:01:30.430Z,,0,,,2611,completion,,,,,false,,,,485108,485107,482479,482464,482496,485129,8,400,,,
trial,html.Screen,4_153_0,2023-11-03T16:01:33.691Z,,0,4,,3256,response,ISIC_0070092.JPG,0,ISIC_0065235.JPG,ISIC_0070092.JPG,false,1,keypress(m),500,488369,488368,485112,485108,485129,488395,8,400,4,,ISIC_0065235.JPG
break,html.Screen,4_153_1,2023-11-03T16:01:33.693Z,,0,,,NaN,,,,,,false,,,,488370,488370,,488369,,488395,8,400,,,
break_continue,html.Screen,4_153_2,2023-11-03T16:01:33.693Z,,0,,,NaN,,,,,,false,,,,488371.00000000006,488371.00000000006,,488370,,488395,8,400,,,
sequence,flow.Sequence,4_153,2023-11-03T16:01:33.693Z,,0,,,3242.000000000058,completion,,,,,false,,,,488371.00000000006,488371.00000000006,485112,485108,485129,488395,8,400,,,
trial,html.Screen,4_154_0,2023-11-03T16:01:36.216Z,,0,4,,2514,response,ISIC_4151356.JPG,4,ISIC_7096885.JPG,ISIC_7096885.JPG,false,0,keypress(z),500,490893,490893,488379,488371.00000000006,488395,490929,8,400,5,,ISIC_4151356.JPG
break,html.Screen,4_154_1,2023-11-03T16:01:36.217Z,,0,,,NaN,,,,,,false,,,,490894,490894,,490894,,490929,8,400,,,
break_continue,html.Screen,4_154_2,2023-11-03T16:01:36.217Z,,0,,,NaN,,,,,,false,,,,490895,490895,,490895,,490929,8,400,,,
sequence,flow.Sequence,4_154,2023-11-03T16:01:36.217Z,,0,,,2500,completion,,,,,false,,,,490895,490895,488379,488371.00000000006,488395,490929,8,400,,,
trial,html.Screen,4_155_0,2023-11-03T16:01:38.618Z,,0,4,,2382,response,ISIC_2702929.JPG,13,ISIC_0174983.JPG,ISIC_0174983.JPG,false,0,keypress(z),500,493295,493295,490913,490895,490929,493329,8,400,6,,ISIC_2702929.JPG
break,html.Screen,4_155_1,2023-11-03T16:01:38.619Z,,0,,,NaN,,,,,,false,,,,493297,493296,,493296,,493329,8,400,,,
break_continue,html.Screen,4_155_2,2023-11-03T16:01:38.619Z,,0,,,NaN,,,,,,false,,,,493297,493297,,493297,,493329,8,400,,,
sequence,flow.Sequence,4_155,2023-11-03T16:01:38.619Z,,0,,,2368,completion,,,,,false,,,,493297,493297,490913,490895,490929,493329,8,400,,,
trial,html.Screen,4_156_0,2023-11-03T16:01:40.933Z,,0,4,,2297,response,ISIC_5405889.JPG,11,ISIC_9021685.JPG,ISIC_9021685.JPG,false,0,keypress(z),500,495611,495610,493313,493297,493329,495646,8,400,7,,ISIC_5405889.JPG
break,html.Screen,4_156_1,2023-11-03T16:01:40.934Z,,0,,,NaN,,,,,,false,,,,495612,495612,,495611,,495646,8,400,,,
break_continue,html.Screen,4_156_2,2023-11-03T16:01:40.935Z,,0,,,NaN,,,,,,false,,,,495612,495612,,495612,,495646,8,400,,,
sequence,flow.Sequence,4_156,2023-11-03T16:01:40.935Z,,0,,,2283,completion,,,,,false,,,,495613,495612,493313,493297,493329,495646,8,400,,,
trial,html.Screen,4_157_0,2023-11-03T16:01:43.226Z,,0,4,,2273,response,ISIC_0982855.JPG,12,ISIC_0031561.JPG,ISIC_0031561.JPG,false,0,keypress(z),500,497904,497903,495630,495613,495646,497929,8,400,8,,ISIC_0982855.JPG
break,html.Screen,4_157_1,2023-11-03T16:01:43.227Z,,0,,,NaN,,,,,,false,,,,497905.00000000006,497905.00000000006,,497904,,497929,8,400,,,
