sender,sender_type,sender_id,timestamp,meta,,blockNo,condition,duration,ended_on,img_left,img_reveal,img_right,loser,practice,response,response_action,selection_duration,time_commit,time_end,time_render,time_run,time_show,time_switch,total_blocks,total_trials,trialNo,url,winner
informed_consent,html.Screen,0,2023-05-01T22:11:05.643Z,"{""labjs_version"":""20.2.4"",""labjs_build"":{""flavor"":""production"",""commit"":""f5b4a49f956347addd546a832a3327688c2c0fef""},""location"":""https://run.pavlovia.org/MurrayBennett/melanoma-2afc/?participant=65203"",""userAgent"":""Mozilla/5.0 (Windows NT 10.0; Win64; x64) AppleWebKit/537.36 (KHTML, like Gecko) Chrome/112.0.0.0 Safari/537.36"",""platform"":""Win32"",""language"":""en-US"",""locale"":""en-US"",""timeZone"":""America/Chicago"",""timezoneOffset"":300,""screen_width"":1920,""screen_height"":1080,""scroll_width"":1920,""scroll_height"":913,""window_innerWidth"":1920,""window_innerHeight"":961,""devicePixelRatio"":1}",,,,2087.294999976158,response,,,,,,consent,click button,,3985.599999964237,3984.899999976158,1718.265,1893.8999999761581,1897.605,3991.23,,,,"{""participant"":""65203""}",
Welcome,html.Screen,1,2023-05-01T22:11:11.836Z,,,,regular,6187.570000011921,response,,,,,,continue,click button,,10179.300000011921,10178.800000011921,3982.89,3985.800000011921,3991.23,10180.704,,,,,
trial,html.Screen,2_0_0,2023-05-01T22:11:23.335Z,,0,0,,11503.242,timeout,ISIC_0061792.JPG,,ISIC_4679428.JPG,,true,,,500,21677.599999964237,21677.399999976158,10176.534,10179.300000011921,10180.704,21683.946,1,6,1,,
sequence,flow.Sequence,2_0,2023-05-01T22:11:23.335Z,,0,,,11496.695999976158,completion,,,,,true,,,,21677.69999998808,21677.399999976158,10176.534,10179.300000011921,10180.704,21683.946,1,6,,,
trial,html.Screen,2_1_0,2023-05-01T22:11:30.335Z,,0,0,,6994.153999964237,response,ISIC_0776486.JPG,,ISIC_5199497.JPG,ISIC_0776486.JPG,true,1,keypress(m),500,28678.19999998808,28678.099999964237,21681.421,21677.80000001192,21683.946,28682.763,1,6,2,,ISIC_5199497.JPG
sequence,flow.Sequence,2_1,2023-05-01T22:11:30.335Z,,0,,,6994.153999964237,completion,,,,,true,,,,28678.399999976158,28678.099999964237,21681.421,21677.80000001192,21683.946,28682.763,1,6,,,
trial,html.Screen,2_2_0,2023-05-01T22:11:36.986Z,,0,0,,6646.136999976159,response,ISIC_2556187.JPG,,ISIC_8575776.JPG,ISIC_2556187.JPG,true,1,keypress(m),500,35329.09999996424,35328.89999997616,28678.391,28678.399999976158,28682.763,35331.14,1,6,3,,ISIC_8575776.JPG
sequence,flow.Sequence,2_2,2023-05-01T22:11:36.986Z,,0,,,6646.136999976159,completion,,,,,true,,,,35329.19999998808,35328.89999997616,28678.391,28678.399999976158,28682.763,35331.14,1,6,,,
trial,html.Screen,2_3_0,2023-05-01T22:11:40.431Z,,0,0,,3442.959999964238,response,ISIC_8141769.JPG,,ISIC_9238366.JPG,ISIC_8141769.JPG,true,1,keypress(m),500,38774.19999998808,38774.09999996424,35326.804,35329.30000001192,35331.14,38776.217,1,6,4,,ISIC_9238366.JPG
sequence,flow.Sequence,2_3,2023-05-01T22:11:40.431Z,,0,,,3442.959999964238,completion,,,,,true,,,,38774.30000001192,38774.09999996424,35326.804,35329.30000001192,35331.14,38776.217,1,6,,,
trial,html.Screen,2_4_0,2023-05-01T22:11:45.705Z,,0,0,,5271.283000000003,response,ISIC_8949026.JPG,,ISIC_9959593.JPG,ISIC_9959593.JPG,true,0,keypress(z),500,44047.59999996424,44047.5,38772.047,38774.39999997616,38776.217,44051.196,1,6,5,,ISIC_8949026.JPG
sequence,flow.Sequence,2_4,2023-05-01T22:11:45.705Z,,0,,,5271.283000000003,completion,,,,,true,,,,44047.69999998808,44047.5,38772.047,38774.39999997616,38776.217,44051.196,1,6,,,
trial,html.Screen,2_5_0,2023-05-01T22:11:48.714Z,,0,0,,3005.5039999880755,response,ISIC_0010479.JPG,,ISIC_0460240.JPG,ISIC_0010479.JPG,true,1,keypress(m),500,47056.80000001192,47056.69999998808,44046.907,44047.80000001192,44051.196,47059.48,1,6,6,,ISIC_0460240.JPG
sequence,flow.Sequence,2_5,2023-05-01T22:11:48.714Z,,0,,,3005.5039999880755,completion,,,,,true,,,,47056.89999997616,47056.69999998808,44046.907,44047.80000001192,44051.196,47059.48,1,6,,,
loop,flow.Loop,2,2023-05-01T22:11:48.714Z,,,,,36875.99599998808,completion,,,,,true,,,,47057,47056.69999998808,10176.534,10179.300000011921,10180.704,47059.48,1,6,,,
exp_instructions,html.Screen,3,2023-05-01T22:11:55.379Z,,,,,6661.820000011918,response,,,,,,continue,keypress(Space),,53721.69999998808,53721.30000001192,47055.31,47057.09999996424,47059.48,53725.672,,,,,
trial,html.Screen,4_0_0,2023-05-01T22:11:59.237Z,,0,1,,3853.9279999642386,response,ISIC_0025081.JPG,,ISIC_0029885.JPG,ISIC_0025081.JPG,false,1,keypress(m),500,57579.69999998808,57579.59999996424,53721.503,53721.69999998808,53725.672,57582.557,8,400,1,,ISIC_0029885.JPG
break,html.Screen,4_0_1,2023-05-01T22:11:59.237Z,,0,,,NaN,,,,,,false,,,,57580.09999996424,57580,,57579.89999997616,,57582.557,8,400,,,
break_continue,html.Screen,4_0_2,2023-05-01T22:11:59.237Z,,0,,,NaN,,,,,,false,,,,57580.19999998808,57580.19999998808,,57580.19999998808,,57582.557,8,400,,,
sequence,flow.Sequence,4_0,2023-05-01T22:11:59.237Z,,0,,,3854.5279999880804,completion,,,,,false,,,,57580.30000001192,57580.19999998808,53721.503,53721.69999998808,53725.672,57582.557,8,400,,,
trial,html.Screen,4_1_0,2023-05-01T22:12:02.274Z,,0,1,,3034.1429999880784,response,ISIC_0032858.JPG,,ISIC_0057759.JPG,ISIC_0057759.JPG,false,0,keypress(z),500,60616.80000001192,60616.69999998808,57578.247,57580.30000001192,57582.557,60618.823,8,400,2,,ISIC_0032858.JPG
break,html.Screen,4_1_1,2023-05-01T22:12:02.274Z,,0,,,NaN,,,,,,false,,,,60617.09999996424,60617.09999996424,,60617,,60618.823,8,400,,,
break_continue,html.Screen,4_1_2,2023-05-01T22:12:02.274Z,,0,,,NaN,,,,,,false,,,,60617.19999998808,60617.19999998808,,60617.09999996424,,60618.823,8,400,,,
sequence,flow.Sequence,4_1,2023-05-01T22:12:02.274Z,,0,,,3034.6429999880784,completion,,,,,false,,,,60617.30000001192,60617.19999998808,57578.247,57580.30000001192,57582.557,60618.823,8,400,,,
trial,html.Screen,4_2_0,2023-05-01T22:12:05.477Z,,0,1,,3201.2769999642405,response,ISIC_9363106.JPG,,ISIC_8484660.JPG,ISIC_9363106.JPG,false,1,keypress(m),500,63820.30000001192,63820.09999996424,60614.653,60617.39999997616,60618.823,63822.227,8,400,3,,ISIC_8484660.JPG
break,html.Screen,4_2_1,2023-05-01T22:12:05.477Z,,0,,,NaN,,,,,,false,,,,63820.5,63820.5,,63820.30000001192,,63822.227,8,400,,,
break_continue,html.Screen,4_2_2,2023-05-01T22:12:05.478Z,,0,,,NaN,,,,,,false,,,,63820.59999996424,63820.59999996424,,63820.59999996424,,63822.227,8,400,,,
sequence,flow.Sequence,4_2,2023-05-01T22:12:05.478Z,,0,,,3201.7769999642405,completion,,,,,false,,,,63820.69999998808,63820.59999996424,60614.653,60617.39999997616,60618.823,63822.227,8,400,,,
trial,html.Screen,4_3_0,2023-05-01T22:12:08.513Z,,0,1,,3033.47299998808,response,ISIC_0069475.JPG,,ISIC_0927854.JPG,ISIC_0069475.JPG,false,1,keypress(m),500,66855.80000001192,66855.69999998808,63818.032,63820.69999998808,63822.227,66858.61,8,400,4,,ISIC_0927854.JPG
break,html.Screen,4_3_1,2023-05-01T22:12:08.513Z,,0,,,NaN,,,,,,false,,,,66856.09999996424,66856.09999996424,,66855.89999997616,,66858.61,8,400,,,
break_continue,html.Screen,4_3_2,2023-05-01T22:12:08.513Z,,0,,,NaN,,,,,,false,,,,66856.19999998808,66856.19999998808,,66856.09999996424,,66858.61,8,400,,,
sequence,flow.Sequence,4_3,2023-05-01T22:12:08.513Z,,0,,,3033.97299998808,completion,,,,,false,,,,66856.19999998808,66856.19999998808,63818.032,63820.69999998808,63822.227,66858.61,8,400,,,
trial,html.Screen,4_4_0,2023-05-01T22:12:12.011Z,,0,1,,3495.2899999761576,response,ISIC_4043580.JPG,,ISIC_2200924.JPG,ISIC_2200924.JPG,false,0,keypress(z),500,70354,70353.89999997616,66854.404,66856.39999997616,66858.61,70357.99,8,400,5,,ISIC_4043580.JPG
break,html.Screen,4_4_1,2023-05-01T22:12:12.011Z,,0,,,NaN,,,,,,false,,,,70354.30000001192,70354.19999998808,,70354.09999996424,,70357.99,8,400,,,
break_continue,html.Screen,4_4_2,2023-05-01T22:12:12.011Z,,0,,,NaN,,,,,,false,,,,70354.39999997616,70354.39999997616,,70354.39999997616,,70357.99,8,400,,,
sequence,flow.Sequence,4_4,2023-05-01T22:12:12.011Z,,0,,,3495.7899999761576,completion,,,,,false,,,,70354.5,70354.39999997616,66854.404,66856.30000001192,66858.61,70357.99,8,400,,,
trial,html.Screen,4_5_0,2023-05-01T22:12:15.137Z,,0,1,,3121.409999976153,response,ISIC_9716860.JPG,,ISIC_4296456.JPG,ISIC_9716860.JPG,false,1,keypress(m),500,73479.59999996424,73479.39999997616,70353.422,70354.59999996424,70357.99,73480.058,8,400,6,,ISIC_4296456.JPG
break,html.Screen,4_5_1,2023-05-01T22:12:15.137Z,,0,,,NaN,,,,,,false,,,,73479.89999997616,73479.80000001192,,73479.69999998808,,73480.058,8,400,,,
break_continue,html.Screen,4_5_2,2023-05-01T22:12:15.137Z,,0,,,NaN,,,,,,false,,,,73480,73479.89999997616,,73479.89999997616,,73480.058,8,400,,,
sequence,flow.Sequence,4_5,2023-05-01T22:12:15.137Z,,0,,,3121.909999976153,completion,,,,,false,,,,73480.09999996424,73479.89999997616,70353.422,70354.59999996424,70357.99,73480.058,8,400,,,
trial,html.Screen,4_6_0,2023-05-01T22:12:17.651Z,,0,1,,2513.5419999642327,response,ISIC_1962844.JPG,,ISIC_0026910.JPG,ISIC_0026910.JPG,false,0,keypress(z),500,75993.69999998808,75993.59999996424,73475.769,73480.09999996424,73480.058,75996.896,8,400,7,,ISIC_1962844.JPG
break,html.Screen,4_6_1,2023-05-01T22:12:17.651Z,,0,,,NaN,,,,,,false,,,,75994,75994,,75993.80000001192,,75996.896,8,400,,,
break_continue,html.Screen,4_6_2,2023-05-01T22:12:17.651Z,,0,,,NaN,,,,,,false,,,,75994.09999996424,75994.09999996424,,75994.09999996424,,75996.896,8,400,,,
sequence,flow.Sequence,4_6,2023-05-01T22:12:17.651Z,,0,,,2514.0419999642327,completion,,,,,false,,,,75994.19999998808,75994.09999996424,73475.769,73480.09999996424,73480.058,75996.896,8,400,,,
trial,html.Screen,4_7_0,2023-05-01T22:12:20.511Z,,0,1,,2857.203999964244,response,ISIC_0064606.JPG,,ISIC_9612228.JPG,ISIC_0064606.JPG,false,1,keypress(m),500,78854.19999998808,78854.09999996424,75992.726,75994.30000001192,75996.896,78858.17,8,400,8,,ISIC_9612228.JPG
break,html.Screen,4_7_1,2023-05-01T22:12:20.511Z,,0,,,NaN,,,,,,false,,,,78854.5,78854.39999997616,,78854.30000001192,,78858.17,8,400,,,
break_continue,html.Screen,4_7_2,2023-05-01T22:12:20.512Z,,0,,,NaN,,,,,,false,,,,78854.59999996424,78854.59999996424,,78854.5,,78858.17,8,400,,,
sequence,flow.Sequence,4_7,2023-05-01T22:12:20.512Z,,0,,,2857.703999964244,completion,,,,,false,,,,78854.69999998808,78854.59999996424,75992.726,75994.30000001192,75996.896,78858.17,8,400,,,
trial,html.Screen,4_8_0,2023-05-01T22:12:24.847Z,,0,1,,4331.929999964239,response,ISIC_3729849.JPG,,ISIC_8650269.JPG,ISIC_8650269.JPG,false,0,keypress(z),500,83190.09999996424,83190.09999996424,78853.961,78854.69999998808,78858.17,83191.58,8,400,9,,ISIC_3729849.JPG
break,html.Screen,4_8_1,2023-05-01T22:12:24.847Z,,0,,,NaN,,,,,,false,,,,83190.39999997616,83190.39999997616,,83190.19999998808,,83191.58,8,400,,,
break_continue,html.Screen,4_8_2,2023-05-01T22:12:24.848Z,,0,,,NaN,,,,,,false,,,,83190.59999996424,83190.5,,83190.5,,83191.58,8,400,,,
sequence,flow.Sequence,4_8,2023-05-01T22:12:24.848Z,,0,,,4332.330000000002,completion,,,,,false,,,,83190.59999996424,83190.5,78853.961,78854.69999998808,78858.17,83191.58,8,400,,,
trial,html.Screen,4_9_0,2023-05-01T22:12:27.792Z,,0,1,,2943.5199999642355,response,ISIC_0010580.JPG,,ISIC_3211915.JPG,ISIC_0010580.JPG,false,1,keypress(m),500,86135.30000001192,86135.09999996424,83187.41,83190.59999996424,83191.58,86136.214,8,400,10,,ISIC_3211915.JPG
break,html.Screen,4_9_1,2023-05-01T22:12:27.792Z,,0,,,NaN,,,,,,false,,,,86135.5,86135.39999997616,,86135.39999997616,,86136.214,8,400,,,
break_continue,html.Screen,4_9_2,2023-05-01T22:12:27.793Z,,0,,,NaN,,,,,,false,,,,86135.5,86135.5,,86135.5,,86136.214,8,400,,,
sequence,flow.Sequence,4_9,2023-05-01T22:12:27.793Z,,0,,,2943.9199999999983,completion,,,,,false,,,,86135.59999996424,86135.5,83187.41,83190.59999996424,83191.58,86136.214,8,400,,,
trial,html.Screen,4_10_0,2023-05-01T22:12:30.835Z,,0,1,,3041.785999999993,response,ISIC_4472903.JPG,,ISIC_1154109.JPG,ISIC_4472903.JPG,false,1,keypress(m),500,89178.09999996424,89178,86132.044,86135.59999996424,86136.214,89181.037,8,400,11,,ISIC_1154109.JPG
break,html.Screen,4_10_1,2023-05-01T22:12:30.835Z,,0,,,NaN,,,,,,false,,,,89178.39999997616,89178.39999997616,,89178.19999998808,,89181.037,8,400,,,
break_continue,html.Screen,4_10_2,2023-05-01T22:12:30.835Z,,0,,,NaN,,,,,,false,,,,89178.5,89178.5,,89178.5,,89181.037,8,400,,,
sequence,flow.Sequence,4_10,2023-05-01T22:12:30.836Z,,0,,,3042.285999999993,completion,,,,,false,,,,89178.59999996424,89178.5,86132.044,86135.59999996424,86136.214,89181.037,8,400,,,
trial,html.Screen,4_11_0,2023-05-01T22:12:33.818Z,,0,1,,2979.4630000000034,response,ISIC_1492055.JPG,,ISIC_0741694.JPG,ISIC_1492055.JPG,false,1,keypress(m),500,92160.59999996424,92160.5,89176.764,89178.59999996424,89181.037,92163.103,8,400,12,,ISIC_0741694.JPG
break,html.Screen,4_11_1,2023-05-01T22:12:33.818Z,,0,,,NaN,,,,,,false,,,,92160.80000001192,92160.80000001192,,92160.59999996424,,92163.103,8,400,,,
break_continue,html.Screen,4_11_2,2023-05-01T22:12:33.818Z,,0,,,NaN,,,,,,false,,,,92160.89999997616,92160.89999997616,,92160.89999997616,,92163.103,8,400,,,
sequence,flow.Sequence,4_11,2023-05-01T22:12:33.818Z,,0,,,2979.8629999761615,completion,,,,,false,,,,92161.09999996424,92160.89999997616,89176.764,89178.59999996424,89181.037,92163.103,8,400,,,
trial,html.Screen,4_12_0,2023-05-01T22:12:38.156Z,,0,1,,4335.996999964234,response,ISIC_2211136.JPG,,ISIC_0830806.JPG,ISIC_2211136.JPG,false,1,keypress(m),500,96499.09999996424,96499.09999996424,92158.933,92161.09999996424,92163.103,96501.992,8,400,13,,ISIC_0830806.JPG
break,html.Screen,4_12_1,2023-05-01T22:12:38.156Z,,0,,,NaN,,,,,,false,,,,96499.5,96499.39999997616,,96499.19999998808,,96501.992,8,400,,,
break_continue,html.Screen,4_12_2,2023-05-01T22:12:38.157Z,,0,,,NaN,,,,,,false,,,,96499.59999996424,96499.59999996424,,96499.5,,96501.992,8,400,,,
sequence,flow.Sequence,4_12,2023-05-01T22:12:38.157Z,,0,,,4336.496999964234,completion,,,,,false,,,,96499.69999998808,96499.59999996424,92158.933,92161.09999996424,92163.103,96501.992,8,400,,,
trial,html.Screen,4_13_0,2023-05-01T22:12:43.394Z,,0,1,,5234.808000011923,response,ISIC_7835257.JPG,,ISIC_0485529.JPG,ISIC_7835257.JPG,false,1,keypress(m),500,101736.89999997616,101736.80000001192,96497.818,96499.69999998808,96501.992,101739.48,8,400,14,,ISIC_0485529.JPG
break,html.Screen,4_13_1,2023-05-01T22:12:43.394Z,,0,,,NaN,,,,,,false,,,,101737.19999998808,101737.09999996424,,101737,,101739.48,8,400,,,
break_continue,html.Screen,4_13_2,2023-05-01T22:12:43.394Z,,0,,,NaN,,,,,,false,,,,101737.19999998808,101737.19999998808,,101737.19999998808,,101739.48,8,400,,,
sequence,flow.Sequence,4_13,2023-05-01T22:12:43.394Z,,0,,,5235.207999988081,completion,,,,,false,,,,101737.30000001192,101737.19999998808,96497.818,96499.69999998808,96501.992,101739.48,8,400,,,
trial,html.Screen,4_14_0,2023-05-01T22:12:49.135Z,,0,1,,5738.119999964241,response,ISIC_0055297.JPG,,ISIC_2597678.JPG,ISIC_0055297.JPG,false,1,keypress(m),500,107477.69999998808,107477.59999996424,101735.3,101737.39999997616,101739.48,107478.418,8,400,15,,ISIC_2597678.JPG
break,html.Screen,4_14_1,2023-05-01T22:12:49.135Z,,0,,,NaN,,,,,,false,,,,107478,107477.89999997616,,107477.80000001192,,107478.418,8,400,,,
break_continue,html.Screen,4_14_2,2023-05-01T22:12:49.135Z,,0,,,NaN,,,,,,false,,,,107478.09999996424,107478.09999996424,,107478,,107478.418,8,400,,,
sequence,flow.Sequence,4_14,2023-05-01T22:12:49.135Z,,0,,,5738.619999964241,completion,,,,,false,,,,107478.19999998808,107478.09999996424,101735.3,101737.30000001192,101739.48,107478.418,8,400,,,
trial,html.Screen,4_15_0,2023-05-01T22:12:53.099Z,,0,1,,3963.281999988074,response,ISIC_2808323.JPG,,ISIC_5110133.JPG,ISIC_5110133.JPG,false,0,keypress(z),500,111441.80000001192,111441.69999998808,107474.248,107478.19999998808,107478.418,111445.067,8,400,16,,ISIC_2808323.JPG
break,html.Screen,4_15_1,2023-05-01T22:12:53.099Z,,0,,,NaN,,,,,,false,,,,111442.09999996424,111442.09999996424,,111441.89999997616,,111445.067,8,400,,,
break_continue,html.Screen,4_15_2,2023-05-01T22:12:53.099Z,,0,,,NaN,,,,,,false,,,,111442.30000001192,111442.19999998808,,111442.19999998808,,111445.067,8,400,,,
sequence,flow.Sequence,4_15,2023-05-01T22:12:53.099Z,,0,,,3963.781999988074,completion,,,,,false,,,,111442.30000001192,111442.19999998808,107474.248,107478.19999998808,107478.418,111445.067,8,400,,,
trial,html.Screen,4_16_0,2023-05-01T22:12:56.129Z,,0,1,,3026.7330000119255,response,ISIC_0000429.JPG,,ISIC_5458290.JPG,ISIC_0000429.JPG,false,1,keypress(m),500,114471.89999997616,114471.80000001192,111440.689,111442.30000001192,111445.067,114472.876,8,400,17,,ISIC_5458290.JPG
break,html.Screen,4_16_1,2023-05-01T22:12:56.129Z,,0,,,NaN,,,,,,false,,,,114472.19999998808,114472.09999996424,,114472,,114472.876,8,400,,,
break_continue,html.Screen,4_16_2,2023-05-01T22:12:56.129Z,,0,,,NaN,,,,,,false,,,,114472.30000001192,114472.19999998808,,114472.19999998808,,114472.876,8,400,,,
sequence,flow.Sequence,4_16,2023-05-01T22:12:56.130Z,,0,,,3027.1329999880836,completion,,,,,false,,,,114472.30000001192,114472.19999998808,111440.689,111442.30000001192,111445.067,114472.876,8,400,,,
trial,html.Screen,4_17_0,2023-05-01T22:12:59.041Z,,0,1,,2910.5239999761543,response,ISIC_4580926.JPG,,ISIC_3133127.JPG,ISIC_3133127.JPG,false,0,keypress(z),500,117383.5,117383.39999997616,114468.707,114472.39999997616,114472.876,117384.332,8,400,18,,ISIC_4580926.JPG
break,html.Screen,4_17_1,2023-05-01T22:12:59.041Z,,0,,,NaN,,,,,,false,,,,117383.80000001192,117383.69999998808,,117383.59999996424,,117384.332,8,400,,,
break_continue,html.Screen,4_17_2,2023-05-01T22:12:59.041Z,,0,,,NaN,,,,,,false,,,,117383.89999997616,117383.80000001192,,117383.80000001192,,117384.332,8,400,,,
sequence,flow.Sequence,4_17,2023-05-01T22:12:59.041Z,,0,,,2910.924000011917,completion,,,,,false,,,,117384,117383.80000001192,114468.707,114472.39999997616,114472.876,117384.332,8,400,,,
trial,html.Screen,4_18_0,2023-05-01T22:13:04.306Z,,0,1,,5264.668000000005,response,ISIC_0032630.JPG,,ISIC_5810696.JPG,ISIC_0032630.JPG,false,1,keypress(m),500,122649.09999996424,122649,117380.162,117384,117384.332,122652.158,8,400,19,,ISIC_5810696.JPG
break,html.Screen,4_18_1,2023-05-01T22:13:04.307Z,,0,,,NaN,,,,,,false,,,,122649.39999997616,122649.30000001192,,122649.19999998808,,122652.158,8,400,,,
break_continue,html.Screen,4_18_2,2023-05-01T22:13:04.307Z,,0,,,NaN,,,,,,false,,,,122649.39999997616,122649.39999997616,,122649.39999997616,,122652.158,8,400,,,
sequence,flow.Sequence,4_18,2023-05-01T22:13:04.307Z,,0,,,5265.067999976163,completion,,,,,false,,,,122649.5,122649.39999997616,117380.162,117384,117384.332,122652.158,8,400,,,
trial,html.Screen,4_19_0,2023-05-01T22:13:07.474Z,,0,1,,3164.342000000004,response,ISIC_0029995.JPG,,ISIC_0025817.JPG,ISIC_0029995.JPG,false,1,keypress(m),500,125816.5,125816.5,122647.922,122649.5,122652.158,125817.511,8,400,20,,ISIC_0025817.JPG
break,html.Screen,4_19_1,2023-05-01T22:13:07.474Z,,0,,,NaN,,,,,,false,,,,125816.80000001192,125816.69999998808,,125816.59999996424,,125817.511,8,400,,,
break_continue,html.Screen,4_19_2,2023-05-01T22:13:07.474Z,,0,,,NaN,,,,,,false,,,,125816.89999997616,125816.89999997616,,125816.80000001192,,125817.511,8,400,,,
sequence,flow.Sequence,4_19,2023-05-01T22:13:07.474Z,,0,,,3164.7419999761623,completion,,,,,false,,,,125817,125816.89999997616,122647.922,122649.5,122652.158,125817.511,8,400,,,
trial,html.Screen,4_20_0,2023-05-01T22:13:11.099Z,,0,1,,3624.2890000119223,response,ISIC_7423852.JPG,,ISIC_7030404.JPG,ISIC_7030404.JPG,false,0,keypress(z),500,129441.89999997616,129441.80000001192,125813.342,125817.09999996424,125817.511,129442.346,8,400,21,,ISIC_7423852.JPG
break,html.Screen,4_20_1,2023-05-01T22:13:11.099Z,,0,,,NaN,,,,,,false,,,,129442.30000001192,129442.19999998808,,129442.09999996424,,129442.346,8,400,,,
break_continue,html.Screen,4_20_2,2023-05-01T22:13:11.100Z,,0,,,NaN,,,,,,false,,,,129442.39999997616,129442.39999997616,,129442.30000001192,,129442.346,8,400,,,
sequence,flow.Sequence,4_20,2023-05-01T22:13:11.100Z,,0,,,3624.8889999761595,completion,,,,,false,,,,129442.39999997616,129442.39999997616,125813.342,125817,125817.511,129442.346,8,400,,,
trial,html.Screen,4_21_0,2023-05-01T22:13:14.698Z,,0,1,,3598.153999999995,response,ISIC_0064763.JPG,,ISIC_3278303.JPG,ISIC_0064763.JPG,false,1,keypress(m),500,133040.5,133040.5,129438.177,129442.5,129442.346,133042.762,8,400,22,,ISIC_3278303.JPG
break,html.Screen,4_21_1,2023-05-01T22:13:14.698Z,,0,,,NaN,,,,,,false,,,,133040.80000001192,133040.69999998808,,133040.59999996424,,133042.762,8,400,,,
break_continue,html.Screen,4_21_2,2023-05-01T22:13:14.698Z,,0,,,NaN,,,,,,false,,,,133040.89999997616,133040.89999997616,,133040.80000001192,,133042.762,8,400,,,
sequence,flow.Sequence,4_21,2023-05-01T22:13:14.698Z,,0,,,3598.553999976153,completion,,,,,false,,,,133041,133040.89999997616,129438.177,129442.5,129442.346,133042.762,8,400,,,
trial,html.Screen,4_22_0,2023-05-01T22:13:19.763Z,,0,1,,5062.538000011933,response,ISIC_0333091.JPG,,ISIC_0029675.JPG,ISIC_0333091.JPG,false,1,keypress(m),500,138105.5,138105.30000001192,133038.588,133041,133042.762,138108.896,8,400,23,,ISIC_0029675.JPG
break,html.Screen,4_22_1,2023-05-01T22:13:19.763Z,,0,,,NaN,,,,,,false,,,,138105.69999998808,138105.69999998808,,138105.5,,138108.896,8,400,,,
break_continue,html.Screen,4_22_2,2023-05-01T22:13:19.763Z,,0,,,NaN,,,,,,false,,,,138105.80000001192,138105.80000001192,,138105.80000001192,,138108.896,8,400,,,
sequence,flow.Sequence,4_22,2023-05-01T22:13:19.763Z,,0,,,5063.038000011933,completion,,,,,false,,,,138106,138105.80000001192,133038.588,133041,133042.762,138108.896,8,400,,,
trial,html.Screen,4_23_0,2023-05-01T22:13:24.462Z,,0,1,,4696.00399997615,response,ISIC_0027305.JPG,,ISIC_0031565.JPG,ISIC_0031565.JPG,false,0,keypress(z),500,142805,142804.89999997616,138104.727,138106,138108.896,142805.642,8,400,24,,ISIC_0027305.JPG
break,html.Screen,4_23_1,2023-05-01T22:13:24.462Z,,0,,,NaN,,,,,,false,,,,142805.30000001192,142805.19999998808,,142805.09999996424,,142805.642,8,400,,,
break_continue,html.Screen,4_23_2,2023-05-01T22:13:24.463Z,,0,,,NaN,,,,,,false,,,,142805.39999997616,142805.39999997616,,142805.30000001192,,142805.642,8,400,,,
sequence,flow.Sequence,4_23,2023-05-01T22:13:24.463Z,,0,,,4696.50399997615,completion,,,,,false,,,,142805.5,142805.39999997616,138104.727,138106,138108.896,142805.642,8,400,,,
trial,html.Screen,4_24_0,2023-05-01T22:13:27.735Z,,0,1,,3271.6580000119284,response,ISIC_0059768.JPG,,ISIC_0066321.JPG,ISIC_0059768.JPG,false,1,keypress(m),500,146077.5,146077.30000001192,142801.472,142805.5,142805.642,146079.906,8,400,25,,ISIC_0066321.JPG
break,html.Screen,4_24_1,2023-05-01T22:13:27.735Z,,0,,,NaN,,,,,,false,,,,146077.69999998808,146077.69999998808,,146077.59999996424,,146079.906,8,400,,,
break_continue,html.Screen,4_24_2,2023-05-01T22:13:27.735Z,,0,,,NaN,,,,,,false,,,,146077.89999997616,146077.89999997616,,146077.80000001192,,146079.906,8,400,,,
sequence,flow.Sequence,4_24,2023-05-01T22:13:27.735Z,,0,,,3272.2579999761656,completion,,,,,false,,,,146077.89999997616,146077.89999997616,142801.472,142805.5,142805.642,146079.906,8,400,,,
trial,html.Screen,4_25_0,2023-05-01T22:13:30.274Z,,0,1,,2536.99399997617,response,ISIC_0032244.JPG,,ISIC_0097500.JPG,ISIC_0032244.JPG,false,1,keypress(m),500,148617,148616.89999997616,146075.244,146078,146079.906,148620.595,8,400,26,,ISIC_0097500.JPG
break,html.Screen,4_25_1,2023-05-01T22:13:30.274Z,,0,,,NaN,,,,,,false,,,,148617.30000001192,148617.19999998808,,148617,,148620.595,8,400,,,
break_continue,html.Screen,4_25_2,2023-05-01T22:13:30.275Z,,0,,,NaN,,,,,,false,,,,148617.39999997616,148617.30000001192,,148617.30000001192,,148620.595,8,400,,,
sequence,flow.Sequence,4_25,2023-05-01T22:13:30.275Z,,0,,,2537.394000011933,completion,,,,,false,,,,148617.39999997616,148617.30000001192,146075.244,146077.89999997616,146079.906,148620.595,8,400,,,
trial,html.Screen,4_26_0,2023-05-01T22:13:32.720Z,,0,1,,2442.2050000119198,response,ISIC_1477990.JPG,,ISIC_0030156.JPG,ISIC_0030156.JPG,false,0,keypress(z),500,151063,151062.80000001192,148616.421,148617.5,148620.595,151068.262,8,400,27,,ISIC_1477990.JPG
break,html.Screen,4_26_1,2023-05-01T22:13:32.720Z,,0,,,NaN,,,,,,false,,,,151063.19999998808,151063.09999996424,,151063,,151068.262,8,400,,,
break_continue,html.Screen,4_26_2,2023-05-01T22:13:32.720Z,,0,,,NaN,,,,,,false,,,,151063.30000001192,151063.30000001192,,151063.19999998808,,151068.262,8,400,,,
sequence,flow.Sequence,4_26,2023-05-01T22:13:32.720Z,,0,,,2442.7050000119198,completion,,,,,false,,,,151063.30000001192,151063.30000001192,148616.421,148617.5,148620.595,151068.262,8,400,,,
trial,html.Screen,4_27_0,2023-05-01T22:13:36.753Z,,0,1,,4027.6379999761702,response,ISIC_2299749.JPG,,ISIC_0058781.JPG,ISIC_0058781.JPG,false,0,keypress(z),500,155096,155095.89999997616,151063.698,151063.30000001192,151068.262,155096.796,8,400,28,,ISIC_2299749.JPG
break,html.Screen,4_27_1,2023-05-01T22:13:36.753Z,,0,,,NaN,,,,,,false,,,,155096.19999998808,155096.19999998808,,155096.09999996424,,155096.796,8,400,,,
break_continue,html.Screen,4_27_2,2023-05-01T22:13:36.754Z,,0,,,NaN,,,,,,false,,,,155096.39999997616,155096.39999997616,,155096.30000001192,,155096.796,8,400,,,
sequence,flow.Sequence,4_27,2023-05-01T22:13:36.754Z,,0,,,4028.1379999761702,completion,,,,,false,,,,155096.5,155096.39999997616,151063.698,151063.30000001192,151068.262,155096.796,8,400,,,
trial,html.Screen,4_28_0,2023-05-01T22:13:40.019Z,,0,1,,3264.504000011919,response,ISIC_7883190.JPG,,ISIC_1757941.JPG,ISIC_1757941.JPG,false,0,keypress(z),500,158361.39999997616,158361.30000001192,155092.627,155096.5,155096.796,158362.898,8,400,29,,ISIC_7883190.JPG
break,html.Screen,4_28_1,2023-05-01T22:13:40.019Z,,0,,,NaN,,,,,,false,,,,158361.69999998808,158361.59999996424,,158361.5,,158362.898,8,400,,,
break_continue,html.Screen,4_28_2,2023-05-01T22:13:40.019Z,,0,,,NaN,,,,,,false,,,,158361.80000001192,158361.80000001192,,158361.69999998808,,158362.898,8,400,,,
sequence,flow.Sequence,4_28,2023-05-01T22:13:40.019Z,,0,,,3265.004000011919,completion,,,,,false,,,,158361.80000001192,158361.80000001192,155092.627,155096.5,155096.796,158362.898,8,400,,,
trial,html.Screen,4_29_0,2023-05-01T22:13:42.984Z,,0,1,,2964.0019999761716,response,ISIC_6657600.JPG,,ISIC_0010886.JPG,ISIC_0010886.JPG,false,0,keypress(z),500,161327,161326.89999997616,158358.729,158361.89999997616,158362.898,161328.305,8,400,30,,ISIC_6657600.JPG
break,html.Screen,4_29_1,2023-05-01T22:13:42.984Z,,0,,,NaN,,,,,,false,,,,161327.30000001192,161327.30000001192,,161327.09999996424,,161328.305,8,400,,,
break_continue,html.Screen,4_29_2,2023-05-01T22:13:42.985Z,,0,,,NaN,,,,,,false,,,,161327.5,161327.39999997616,,161327.39999997616,,161328.305,8,400,,,
sequence,flow.Sequence,4_29,2023-05-01T22:13:42.985Z,,0,,,2964.5019999761716,completion,,,,,false,,,,161327.5,161327.39999997616,158358.729,158361.89999997616,158362.898,161328.305,8,400,,,
trial,html.Screen,4_30_0,2023-05-01T22:13:46.270Z,,0,1,,3284.594999976165,response,ISIC_0073119.JPG,,ISIC_1265382.JPG,ISIC_1265382.JPG,false,0,keypress(z),500,164613,164612.89999997616,161324.135,161327.5,161328.305,164615.085,8,400,31,,ISIC_0073119.JPG
break,html.Screen,4_30_1,2023-05-01T22:13:46.270Z,,0,,,NaN,,,,,,false,,,,164613.30000001192,164613.19999998808,,164613.09999996424,,164615.085,8,400,,,
break_continue,html.Screen,4_30_2,2023-05-01T22:13:46.271Z,,0,,,NaN,,,,,,false,,,,164613.30000001192,164613.30000001192,,164613.30000001192,,164615.085,8,400,,,
sequence,flow.Sequence,4_30,2023-05-01T22:13:46.271Z,,0,,,3284.995000011928,completion,,,,,false,,,,164613.39999997616,164613.30000001192,161324.135,161327.5,161328.305,164615.085,8,400,,,
trial,html.Screen,4_31_0,2023-05-01T22:13:50.609Z,,0,1,,4336.514999964245,response,ISIC_6067430.JPG,,ISIC_0015401.JPG,ISIC_0015401.JPG,false,0,keypress(z),500,168951.69999998808,168951.59999996424,164610.915,164613.39999997616,164615.085,168952.712,8,400,32,,ISIC_6067430.JPG
break,html.Screen,4_31_1,2023-05-01T22:13:50.609Z,,0,,,NaN,,,,,,false,,,,168952.09999996424,168952,,168951.89999997616,,168952.712,8,400,,,
break_continue,html.Screen,4_31_2,2023-05-01T22:13:50.609Z,,0,,,NaN,,,,,,false,,,,168952.09999996424,168952.09999996424,,168952.09999996424,,168952.712,8,400,,,
sequence,flow.Sequence,4_31,2023-05-01T22:13:50.609Z,,0,,,4337.014999964245,completion,,,,,false,,,,168952.19999998808,168952.09999996424,164610.915,164613.39999997616,164615.085,168952.712,8,400,,,
trial,html.Screen,4_32_0,2023-05-01T22:14:02.108Z,,0,1,,11503.534000000014,timeout,ISIC_0000058.JPG,,ISIC_0029459.JPG,,false,,,500,180450.80000001192,180450.80000001192,168948.542,168952.30000001192,168952.712,180456.246,8,400,33,,
break,html.Screen,4_32_1,2023-05-01T22:14:02.108Z,,0,,,NaN,,,,,,false,,,,180451.09999996424,180451,,180451,,180456.246,8,400,,,
break_continue,html.Screen,4_32_2,2023-05-01T22:14:02.108Z,,0,,,NaN,,,,,,false,,,,180451.19999998808,180451.09999996424,,180451.09999996424,,180456.246,8,400,,,
sequence,flow.Sequence,4_32,2023-05-01T22:14:02.108Z,,0,,,11498.387999964238,completion,,,,,false,,,,180451.19999998808,180451.09999996424,168948.542,168952.30000001192,168952.712,180456.246,8,400,,,
trial,html.Screen,4_33_0,2023-05-01T22:14:06.252Z,,0,1,,4139.054000011907,response,ISIC_6931712.JPG,,ISIC_4645995.JPG,ISIC_4645995.JPG,false,0,keypress(z),500,184595.30000001192,184595.30000001192,180453.995,180451.30000001192,180456.246,184597.659,8,400,34,,ISIC_6931712.JPG
break,html.Screen,4_33_1,2023-05-01T22:14:06.253Z,,0,,,NaN,,,,,,false,,,,184595.59999996424,184595.59999996424,,184595.39999997616,,184597.659,8,400,,,
break_continue,html.Screen,4_33_2,2023-05-01T22:14:06.253Z,,0,,,NaN,,,,,,false,,,,184595.80000001192,184595.69999998808,,184595.59999996424,,184597.659,8,400,,,
sequence,flow.Sequence,4_33,2023-05-01T22:14:06.253Z,,0,,,4139.453999988065,completion,,,,,false,,,,184595.80000001192,184595.69999998808,180453.995,180451.30000001192,180456.246,184597.659,8,400,,,
trial,html.Screen,4_34_0,2023-05-01T22:14:09.159Z,,0,1,,2903.740999976144,response,ISIC_1410408.JPG,,ISIC_0034049.JPG,ISIC_0034049.JPG,false,0,keypress(z),500,187501.5,187501.39999997616,184593.489,184595.80000001192,184597.659,187504.798,8,400,35,,ISIC_1410408.JPG
break,html.Screen,4_34_1,2023-05-01T22:14:09.159Z,,0,,,NaN,,,,,,false,,,,187501.69999998808,187501.69999998808,,187501.59999996424,,187504.798,8,400,,,
break_continue,html.Screen,4_34_2,2023-05-01T22:14:09.159Z,,0,,,NaN,,,,,,false,,,,187501.89999997616,187501.89999997616,,187501.80000001192,,187504.798,8,400,,,
sequence,flow.Sequence,4_34,2023-05-01T22:14:09.159Z,,0,,,2904.240999976144,completion,,,,,false,,,,187501.89999997616,187501.89999997616,184593.489,184595.80000001192,184597.659,187504.798,8,400,,,
trial,html.Screen,4_35_0,2023-05-01T22:14:11.956Z,,0,1,,2793.9019999880693,response,ISIC_5971591.JPG,,ISIC_0962121.JPG,ISIC_5971591.JPG,false,1,keypress(m),500,190298.80000001192,190298.69999998808,187500.593,187502,187504.798,190299.103,8,400,36,,ISIC_0962121.JPG
break,html.Screen,4_35_1,2023-05-01T22:14:11.956Z,,0,,,NaN,,,,,,false,,,,190299,190299,,190298.89999997616,,190299.103,8,400,,,
break_continue,html.Screen,4_35_2,2023-05-01T22:14:11.956Z,,0,,,NaN,,,,,,false,,,,190299.19999998808,190299.09999996424,,190299,,190299.103,8,400,,,
sequence,flow.Sequence,4_35,2023-05-01T22:14:11.956Z,,0,,,2794.3019999642274,completion,,,,,false,,,,190299.19999998808,190299.09999996424,187500.593,187502,187504.798,190299.103,8,400,,,
trial,html.Screen,4_36_0,2023-05-01T22:14:14.774Z,,0,1,,2817.4969999642344,response,ISIC_1140410.JPG,,ISIC_8135931.JPG,ISIC_8135931.JPG,false,0,keypress(z),500,193116.80000001192,193116.59999996424,190294.933,190299.19999998808,190299.103,193118.82,8,400,37,,ISIC_1140410.JPG
break,html.Screen,4_36_1,2023-05-01T22:14:14.774Z,,0,,,NaN,,,,,,false,,,,193117,193116.89999997616,,193116.80000001192,,193118.82,8,400,,,
break_continue,html.Screen,4_36_2,2023-05-01T22:14:14.774Z,,0,,,NaN,,,,,,false,,,,193117.09999996424,193117.09999996424,,193117,,193118.82,8,400,,,
sequence,flow.Sequence,4_36,2023-05-01T22:14:14.774Z,,0,,,2817.9969999642344,completion,,,,,false,,,,193117.19999998808,193117.09999996424,190294.933,190299.19999998808,190299.103,193118.82,8,400,,,
trial,html.Screen,4_37_0,2023-05-01T22:14:17.515Z,,0,1,,2738.579999976151,response,ISIC_0024952.JPG,,ISIC_4936662.JPG,ISIC_0024952.JPG,false,1,keypress(m),500,195857.59999996424,195857.39999997616,193114.441,193117.19999998808,193118.82,195858.919,8,400,38,,ISIC_4936662.JPG
break,html.Screen,4_37_1,2023-05-01T22:14:17.515Z,,0,,,NaN,,,,,,false,,,,195857.89999997616,195857.80000001192,,195857.69999998808,,195858.919,8,400,,,
break_continue,html.Screen,4_37_2,2023-05-01T22:14:17.515Z,,0,,,NaN,,,,,,false,,,,195858,195857.89999997616,,195857.89999997616,,195858.919,8,400,,,
sequence,flow.Sequence,4_37,2023-05-01T22:14:17.515Z,,0,,,2739.079999976151,completion,,,,,false,,,,195858,195857.89999997616,193114.441,193117.19999998808,193118.82,195858.919,8,400,,,
trial,html.Screen,4_38_0,2023-05-01T22:14:20.482Z,,0,1,,2965.9809999761637,response,ISIC_7074321.JPG,,ISIC_0192596.JPG,ISIC_7074321.JPG,false,1,keypress(m),500,198824.89999997616,198824.89999997616,195854.749,195858,195858.919,198826.927,8,400,39,,ISIC_0192596.JPG
break,html.Screen,4_38_1,2023-05-01T22:14:20.482Z,,0,,,NaN,,,,,,false,,,,198825.30000001192,198825.19999998808,,198825,,198826.927,8,400,,,
break_continue,html.Screen,4_38_2,2023-05-01T22:14:20.482Z,,0,,,NaN,,,,,,false,,,,198825.39999997616,198825.39999997616,,198825.30000001192,,198826.927,8,400,,,
sequence,flow.Sequence,4_38,2023-05-01T22:14:20.482Z,,0,,,2966.4809999761637,completion,,,,,false,,,,198825.39999997616,198825.39999997616,195854.749,195858,195858.919,198826.927,8,400,,,
trial,html.Screen,4_39_0,2023-05-01T22:14:25.711Z,,0,1,,5226.672999964241,response,ISIC_3401777.JPG,,ISIC_2603420.JPG,ISIC_2603420.JPG,false,0,keypress(z),500,204053.69999998808,204053.59999996424,198822.645,198825.5,198826.927,204054.325,8,400,40,,ISIC_3401777.JPG
break,html.Screen,4_39_1,2023-05-01T22:14:25.711Z,,0,,,NaN,,,,,,false,,,,204054,204053.89999997616,,204053.80000001192,,204054.325,8,400,,,
break_continue,html.Screen,4_39_2,2023-05-01T22:14:25.711Z,,0,,,NaN,,,,,,false,,,,204054.09999996424,204054,,204054,,204054.325,8,400,,,
sequence,flow.Sequence,4_39,2023-05-01T22:14:25.711Z,,0,,,5227.073000000004,completion,,,,,false,,,,204054.09999996424,204054,198822.645,198825.5,198826.927,204054.325,8,400,,,
trial,html.Screen,4_40_0,2023-05-01T22:14:29.041Z,,0,1,,3329.7749999642256,response,ISIC_0067390.JPG,,ISIC_1601532.JPG,ISIC_1601532.JPG,false,0,keypress(z),500,207384.19999998808,207384.09999996424,204050.156,204054.19999998808,204054.325,207384.584,8,400,41,,ISIC_0067390.JPG
break,html.Screen,4_40_1,2023-05-01T22:14:29.042Z,,0,,,NaN,,,,,,false,,,,207384.5,207384.5,,207384.39999997616,,207384.584,8,400,,,
break_continue,html.Screen,4_40_2,2023-05-01T22:14:29.042Z,,0,,,NaN,,,,,,false,,,,207384.59999996424,207384.59999996424,,207384.5,,207384.584,8,400,,,
sequence,flow.Sequence,4_40,2023-05-01T22:14:29.042Z,,0,,,3330.2749999642256,completion,,,,,false,,,,207384.69999998808,207384.59999996424,204050.156,204054.19999998808,204054.325,207384.584,8,400,,,
trial,html.Screen,4_41_0,2023-05-01T22:14:32.223Z,,0,1,,3181.5159999642347,response,ISIC_7492682.JPG,,ISIC_8127323.JPG,ISIC_8127323.JPG,false,0,keypress(z),500,210566.19999998808,210566.09999996424,207380.302,207384.69999998808,207384.584,210569.521,8,400,42,,ISIC_7492682.JPG
break,html.Screen,4_41_1,2023-05-01T22:14:32.224Z,,0,,,NaN,,,,,,false,,,,210566.5,210566.39999997616,,210566.30000001192,,210569.521,8,400,,,
break_continue,html.Screen,4_41_2,2023-05-01T22:14:32.224Z,,0,,,NaN,,,,,,false,,,,210566.69999998808,210566.59999996424,,210566.59999996424,,210569.521,8,400,,,
sequence,flow.Sequence,4_41,2023-05-01T22:14:32.224Z,,0,,,3182.0159999642347,completion,,,,,false,,,,210566.69999998808,210566.59999996424,207380.302,207384.69999998808,207384.584,210569.521,8,400,,,
trial,html.Screen,4_42_0,2023-05-01T22:14:35.872Z,,0,1,,3645.5789999642293,response,ISIC_0029863.JPG,,ISIC_0068895.JPG,ISIC_0068895.JPG,false,0,keypress(z),500,214215.19999998808,214215.09999996424,210565.254,210566.80000001192,210569.521,214219.084,8,400,43,,ISIC_0029863.JPG
break,html.Screen,4_42_1,2023-05-01T22:14:35.873Z,,0,,,NaN,,,,,,false,,,,214215.5,214215.39999997616,,214215.30000001192,,214219.084,8,400,,,
break_continue,html.Screen,4_42_2,2023-05-01T22:14:35.873Z,,0,,,NaN,,,,,,false,,,,214215.59999996424,214215.59999996424,,214215.5,,214219.084,8,400,,,
sequence,flow.Sequence,4_42,2023-05-01T22:14:35.873Z,,0,,,3646.0789999642293,completion,,,,,false,,,,214215.59999996424,214215.59999996424,210565.254,210566.80000001192,210569.521,214219.084,8,400,,,
trial,html.Screen,4_43_0,2023-05-01T22:14:38.689Z,,0,1,,2812.4159999999974,response,ISIC_0029050.JPG,,ISIC_3059367.JPG,ISIC_0029050.JPG,false,1,keypress(m),500,217031.59999996424,217031.5,214214.782,214215.80000001192,214219.084,217034.481,8,400,44,,ISIC_3059367.JPG
break,html.Screen,4_43_1,2023-05-01T22:14:38.689Z,,0,,,NaN,,,,,,false,,,,217031.89999997616,217031.80000001192,,217031.69999998808,,217034.481,8,400,,,
break_continue,html.Screen,4_43_2,2023-05-01T22:14:38.689Z,,0,,,NaN,,,,,,false,,,,217032,217032,,217032,,217034.481,8,400,,,
sequence,flow.Sequence,4_43,2023-05-01T22:14:38.689Z,,0,,,2812.9159999999974,completion,,,,,false,,,,217032.09999996424,217032,214214.782,214215.80000001192,214219.084,217034.481,8,400,,,
trial,html.Screen,4_44_0,2023-05-01T22:14:42.507Z,,0,1,,3815.5190000000002,response,ISIC_0054151.JPG,,ISIC_3673080.JPG,ISIC_3673080.JPG,false,0,keypress(z),500,220850.19999998808,220850,217030.149,217032.09999996424,217034.481,220850.69,8,400,45,,ISIC_0054151.JPG
break,html.Screen,4_44_1,2023-05-01T22:14:42.508Z,,0,,,NaN,,,,,,false,,,,220850.39999997616,220850.39999997616,,220850.30000001192,,220850.69,8,400,,,
break_continue,html.Screen,4_44_2,2023-05-01T22:14:42.508Z,,0,,,NaN,,,,,,false,,,,220850.59999996424,220850.5,,220850.5,,220850.69,8,400,,,
sequence,flow.Sequence,4_44,2023-05-01T22:14:42.508Z,,0,,,3816.0190000000002,completion,,,,,false,,,,220850.59999996424,220850.5,217030.149,217032.09999996424,217034.481,220850.69,8,400,,,
trial,html.Screen,4_45_0,2023-05-01T22:14:45.404Z,,0,1,,2896.6100000119186,response,ISIC_4834687.JPG,,ISIC_4138377.JPG,ISIC_4834687.JPG,false,1,keypress(m),500,223747.39999997616,223747.30000001192,220846.52,220850.69999998808,220850.69,223749.538,8,400,46,,ISIC_4138377.JPG
break,html.Screen,4_45_1,2023-05-01T22:14:45.405Z,,0,,,NaN,,,,,,false,,,,223747.69999998808,223747.59999996424,,223747.5,,223749.538,8,400,,,
break_continue,html.Screen,4_45_2,2023-05-01T22:14:45.405Z,,0,,,NaN,,,,,,false,,,,223747.69999998808,223747.69999998808,,223747.69999998808,,223749.538,8,400,,,
sequence,flow.Sequence,4_45,2023-05-01T22:14:45.405Z,,0,,,2897.0099999880767,completion,,,,,false,,,,223747.80000001192,223747.69999998808,220846.52,220850.69999998808,220850.69,223749.538,8,400,,,
trial,html.Screen,4_46_0,2023-05-01T22:14:48.178Z,,0,1,,2770.9619999999995,response,ISIC_3704157.JPG,,ISIC_0027964.JPG,ISIC_0027964.JPG,false,0,keypress(z),500,226520.59999996424,226520.5,223745.289,223747.80000001192,223749.538,226523.157,8,400,47,,ISIC_3704157.JPG
break,html.Screen,4_46_1,2023-05-01T22:14:48.178Z,,0,,,NaN,,,,,,false,,,,226521,226520.89999997616,,226520.80000001192,,226523.157,8,400,,,
break_continue,html.Screen,4_46_2,2023-05-01T22:14:48.178Z,,0,,,NaN,,,,,,false,,,,226521.09999996424,226521.09999996424,,226521.09999996424,,226523.157,8,400,,,
sequence,flow.Sequence,4_46,2023-05-01T22:14:48.178Z,,0,,,2771.5619999642367,completion,,,,,false,,,,226521.09999996424,226521.09999996424,223745.289,223747.80000001192,223749.538,226523.157,8,400,,,
trial,html.Screen,4_47_0,2023-05-01T22:14:51.088Z,,0,1,,2907.3429999999935,response,ISIC_0029513.JPG,,ISIC_0002118.JPG,ISIC_0029513.JPG,false,1,keypress(m),500,229430.59999996424,229430.5,226518.793,226521.19999998808,226523.157,229430.783,8,400,48,,ISIC_0002118.JPG
break,html.Screen,4_47_1,2023-05-01T22:14:51.088Z,,0,,,NaN,,,,,,false,,,,229430.80000001192,229430.80000001192,,229430.69999998808,,229430.783,8,400,,,
break_continue,html.Screen,4_47_2,2023-05-01T22:14:51.088Z,,0,,,NaN,,,,,,false,,,,229430.89999997616,229430.89999997616,,229430.80000001192,,229430.783,8,400,,,
sequence,flow.Sequence,4_47,2023-05-01T22:14:51.088Z,,0,,,2907.7429999761516,completion,,,,,false,,,,229431,229430.89999997616,226518.793,226521.09999996424,226523.157,229430.783,8,400,,,
trial,html.Screen,4_48_0,2023-05-01T22:14:53.589Z,,0,1,,2501.217000000004,response,ISIC_1519891.JPG,,ISIC_0064517.JPG,ISIC_0064517.JPG,false,0,keypress(z),500,231932,231932,229426.609,229431,229430.783,231937.019,8,400,49,,ISIC_1519891.JPG
break,html.Screen,4_48_1,2023-05-01T22:14:53.590Z,,0,,,NaN,,,,,,false,,,,231932.30000001192,231932.30000001192,,231932.09999996424,,231937.019,8,400,,,
break_continue,html.Screen,4_48_2,2023-05-01T22:14:53.590Z,,0,,,NaN,,,,,,false,,,,231932.39999997616,231932.39999997616,,231932.30000001192,,231937.019,8,400,,,
sequence,flow.Sequence,4_48,2023-05-01T22:14:53.590Z,,0,,,2501.6169999761623,completion,,,,,false,,,,231932.5,231932.39999997616,229426.609,229431,229430.783,231937.019,8,400,,,
trial,html.Screen,4_49_0,2023-05-01T22:14:57.397Z,,0,1,,3802.9809999999998,response,ISIC_8015541.JPG,,ISIC_0013775.JPG,ISIC_0013775.JPG,false,0,keypress(z),500,235740.09999996424,235740,231932.399,231932.5,231937.019,235744.922,8,400,50,,ISIC_8015541.JPG
break,html.Screen,4_49_1,2023-05-01T22:15:02.400Z,,0,,,5000.951000000001,timeout,,,,,false,,,,240742.69999998808,240741.703,235740.453,235740.19999998808,235744.922,240745.873,8,400,,,
break_continue,html.Screen,4_49_2,2023-05-01T22:15:03.076Z,,0,,,670.0269999761658,response,,,,,false,continue,keypress(Space),,241419,241415.89999997616,240741.703,240742.80000001192,240745.873,241421.413,8,400,,,
sequence,flow.Sequence,4_49,2023-05-01T22:15:03.076Z,,0,,,9478.880999976158,completion,,,,,false,,,,241419.09999996424,241415.89999997616,231932.399,231932.5,231937.019,241421.413,8,400,,,
trial,html.Screen,4_50_0,2023-05-01T22:15:05.934Z,,0,2,,2855.3870000119205,response,ISIC_8316125.JPG,,ISIC_0071043.JPG,ISIC_0071043.JPG,false,0,keypress(z),500,244276.89999997616,244276.80000001192,241417.243,241419.09999996424,241421.413,244278.309,8,400,1,,ISIC_8316125.JPG
break,html.Screen,4_50_1,2023-05-01T22:15:05.934Z,,0,,,NaN,,,,,,false,,,,244277.19999998808,244277.19999998808,,244277,,244278.309,8,400,,,
break_continue,html.Screen,4_50_2,2023-05-01T22:15:05.934Z,,0,,,NaN,,,,,,false,,,,244277.30000001192,244277.30000001192,,244277.30000001192,,244278.309,8,400,,,
sequence,flow.Sequence,4_50,2023-05-01T22:15:05.935Z,,0,,,2855.8870000119205,completion,,,,,false,,,,244277.30000001192,244277.30000001192,241417.243,241419.09999996424,241421.413,244278.309,8,400,,,
trial,html.Screen,4_51_0,2023-05-01T22:15:08.685Z,,0,2,,2748.8909999880707,response,ISIC_2547431.JPG,,ISIC_8145260.JPG,ISIC_2547431.JPG,false,1,keypress(m),500,247027.39999997616,247027.19999998808,244274.139,244277.39999997616,244278.309,247031.118,8,400,2,,ISIC_8145260.JPG
break,html.Screen,4_51_1,2023-05-01T22:15:08.685Z,,0,,,NaN,,,,,,false,,,,247027.59999996424,247027.5,,247027.5,,247031.118,8,400,,,
break_continue,html.Screen,4_51_2,2023-05-01T22:15:08.685Z,,0,,,NaN,,,,,,false,,,,247027.80000001192,247027.69999998808,,247027.59999996424,,247031.118,8,400,,,
sequence,flow.Sequence,4_51,2023-05-01T22:15:08.685Z,,0,,,2749.3909999880707,completion,,,,,false,,,,247027.80000001192,247027.69999998808,244274.139,244277.39999997616,244278.309,247031.118,8,400,,,
trial,html.Screen,4_52_0,2023-05-01T22:15:11.898Z,,0,2,,3209.2819999761705,response,ISIC_4116770.JPG,,ISIC_5305288.JPG,ISIC_4116770.JPG,false,1,keypress(m),500,250240.39999997616,250240.39999997616,247026.948,247027.89999997616,247031.118,250242.84,8,400,3,,ISIC_5305288.JPG
break,html.Screen,4_52_1,2023-05-01T22:15:11.898Z,,0,,,NaN,,,,,,false,,,,250240.69999998808,250240.59999996424,,250240.5,,250242.84,8,400,,,
break_continue,html.Screen,4_52_2,2023-05-01T22:15:11.898Z,,0,,,NaN,,,,,,false,,,,250240.89999997616,250240.80000001192,,250240.80000001192,,250242.84,8,400,,,
sequence,flow.Sequence,4_52,2023-05-01T22:15:11.898Z,,0,,,3209.6820000119333,completion,,,,,false,,,,250240.89999997616,250240.80000001192,247026.948,247027.89999997616,247031.118,250242.84,8,400,,,
trial,html.Screen,4_53_0,2023-05-01T22:15:14.378Z,,0,2,,2477.8599999880826,response,ISIC_0001102.JPG,,ISIC_8366864.JPG,ISIC_0001102.JPG,false,1,keypress(m),500,252720.69999998808,252720.69999998808,250238.127,250240.89999997616,250242.84,252724.409,8,400,4,,ISIC_8366864.JPG
break,html.Screen,4_53_1,2023-05-01T22:15:14.378Z,,0,,,NaN,,,,,,false,,,,252721,252721,,252720.80000001192,,252724.409,8,400,,,
break_continue,html.Screen,4_53_2,2023-05-01T22:15:14.378Z,,0,,,NaN,,,,,,false,,,,252721.19999998808,252721.09999996424,,252721,,252724.409,8,400,,,
sequence,flow.Sequence,4_53,2023-05-01T22:15:14.378Z,,0,,,2478.2599999642407,completion,,,,,false,,,,252721.19999998808,252721.09999996424,250238.127,250240.89999997616,250242.84,252724.409,8,400,,,
trial,html.Screen,4_54_0,2023-05-01T22:15:16.953Z,,0,2,,2571.590999999986,response,ISIC_0228772.JPG,,ISIC_8397285.JPG,ISIC_8397285.JPG,false,0,keypress(z),500,255296.19999998808,255296,252720.239,252721.19999998808,252724.409,255297.505,8,400,5,,ISIC_0228772.JPG
break,html.Screen,4_54_1,2023-05-01T22:15:16.954Z,,0,,,NaN,,,,,,false,,,,255296.39999997616,255296.39999997616,,255296.30000001192,,255297.505,8,400,,,
break_continue,html.Screen,4_54_2,2023-05-01T22:15:16.954Z,,0,,,NaN,,,,,,false,,,,255296.59999996424,255296.5,,255296.39999997616,,255297.505,8,400,,,
sequence,flow.Sequence,4_54,2023-05-01T22:15:16.954Z,,0,,,2572.090999999986,completion,,,,,false,,,,255296.69999998808,255296.5,252720.239,252721.19999998808,252724.409,255297.505,8,400,,,
trial,html.Screen,4_55_0,2023-05-01T22:15:19.427Z,,0,2,,2472.3949999761535,response,ISIC_0027087.JPG,,ISIC_6809191.JPG,ISIC_0027087.JPG,false,1,keypress(m),500,257770,257769.89999997616,255293.336,255296.69999998808,255297.505,257770.906,8,400,6,,ISIC_6809191.JPG
break,html.Screen,4_55_1,2023-05-01T22:15:19.427Z,,0,,,NaN,,,,,,false,,,,257770.19999998808,257770.19999998808,,257770.09999996424,,257770.906,8,400,,,
break_continue,html.Screen,4_55_2,2023-05-01T22:15:19.428Z,,0,,,NaN,,,,,,false,,,,257770.30000001192,257770.30000001192,,257770.30000001192,,257770.906,8,400,,,
sequence,flow.Sequence,4_55,2023-05-01T22:15:19.428Z,,0,,,2472.7950000119163,completion,,,,,false,,,,257770.39999997616,257770.30000001192,255293.336,255296.69999998808,255297.505,257770.906,8,400,,,
trial,html.Screen,4_56_0,2023-05-01T22:15:22.309Z,,0,2,,2880.394000011933,response,ISIC_8705622.JPG,,ISIC_0966527.JPG,ISIC_0966527.JPG,false,0,keypress(z),500,260651.39999997616,260651.30000001192,257766.737,257770.39999997616,257770.906,260654.171,8,400,7,,ISIC_8705622.JPG
break,html.Screen,4_56_1,2023-05-01T22:15:22.309Z,,0,,,NaN,,,,,,false,,,,260651.69999998808,260651.59999996424,,260651.5,,260654.171,8,400,,,
break_continue,html.Screen,4_56_2,2023-05-01T22:15:22.309Z,,0,,,NaN,,,,,,false,,,,260651.80000001192,260651.69999998808,,260651.69999998808,,260654.171,8,400,,,
sequence,flow.Sequence,4_56,2023-05-01T22:15:22.309Z,,0,,,2880.793999988091,completion,,,,,false,,,,260651.89999997616,260651.69999998808,257766.737,257770.39999997616,257770.906,260654.171,8,400,,,
trial,html.Screen,4_57_0,2023-05-01T22:15:25.113Z,,0,2,,2801.629000011919,response,ISIC_6451703.JPG,,ISIC_2752919.JPG,ISIC_6451703.JPG,false,1,keypress(m),500,263455.89999997616,263455.8000000119,260649.048,260651.89999997616,260654.171,263456.066,8,400,8,,ISIC_2752919.JPG
break,html.Screen,4_57_1,2023-05-01T22:15:25.113Z,,0,,,NaN,,,,,,false,,,,263456.1999999881,263456.09999996424,,263455.89999997616,,263456.066,8,400,,,
break_continue,html.Screen,4_57_2,2023-05-01T22:15:25.113Z,,0,,,NaN,,,,,,false,,,,263456.3000000119,263456.3000000119,,263456.1999999881,,263456.066,8,400,,,
sequence,flow.Sequence,4_57,2023-05-01T22:15:25.114Z,,0,,,2802.129000011919,completion,,,,,false,,,,263456.3000000119,263456.3000000119,260649.048,260651.89999997616,260654.171,263456.066,8,400,,,
trial,html.Screen,4_58_0,2023-05-01T22:15:27.073Z,,0,2,,1959.3339999761665,response,ISIC_4128342.JPG,,ISIC_5916208.JPG,ISIC_4128342.JPG,false,1,keypress(m),500,265415.5,265415.39999997616,263451.896,263456.3000000119,263456.066,265416.379,8,400,9,,ISIC_5916208.JPG
break,html.Screen,4_58_1,2023-05-01T22:15:27.073Z,,0,,,NaN,,,,,,false,,,,265415.6999999881,265415.6999999881,,265415.59999996424,,265416.379,8,400,,,
break_continue,html.Screen,4_58_2,2023-05-01T22:15:27.073Z,,0,,,NaN,,,,,,false,,,,265415.89999997616,265415.8000000119,,265415.8000000119,,265416.379,8,400,,,
sequence,flow.Sequence,4_58,2023-05-01T22:15:27.073Z,,0,,,1959.7340000119293,completion,,,,,false,,,,265415.89999997616,265415.8000000119,263451.896,263456.3000000119,263456.066,265416.379,8,400,,,
trial,html.Screen,4_59_0,2023-05-01T22:15:29.803Z,,0,2,,2728.9210000119056,response,ISIC_1761799.JPG,,ISIC_0012406.JPG,ISIC_0012406.JPG,false,0,keypress(z),500,268145.5,268145.3000000119,265412.209,265416,265416.379,268148.276,8,400,10,,ISIC_1761799.JPG
break,html.Screen,4_59_1,2023-05-01T22:15:29.803Z,,0,,,NaN,,,,,,false,,,,268145.8000000119,268145.6999999881,,268145.5,,268148.276,8,400,,,
break_continue,html.Screen,4_59_2,2023-05-01T22:15:29.803Z,,0,,,NaN,,,,,,false,,,,268145.89999997616,268145.8000000119,,268145.8000000119,,268148.276,8,400,,,
sequence,flow.Sequence,4_59,2023-05-01T22:15:29.803Z,,0,,,2729.4210000119056,completion,,,,,false,,,,268145.89999997616,268145.8000000119,265412.209,265416,265416.379,268148.276,8,400,,,
trial,html.Screen,4_60_0,2023-05-01T22:15:33.138Z,,0,2,,3332.4239999880665,response,ISIC_0062709.JPG,,ISIC_0025891.JPG,ISIC_0025891.JPG,false,0,keypress(z),500,271480.89999997616,271480.6999999881,268143.972,268146,268148.276,271484.985,8,400,11,,ISIC_0062709.JPG
break,html.Screen,4_60_1,2023-05-01T22:15:33.138Z,,0,,,NaN,,,,,,false,,,,271481.09999996424,271481,,271480.89999997616,,271484.985,8,400,,,
break_continue,html.Screen,4_60_2,2023-05-01T22:15:33.138Z,,0,,,NaN,,,,,,false,,,,271481.1999999881,271481.09999996424,,271481.09999996424,,271484.985,8,400,,,
sequence,flow.Sequence,4_60,2023-05-01T22:15:33.138Z,,0,,,3332.8239999642246,completion,,,,,false,,,,271481.1999999881,271481.09999996424,268143.972,268146,268148.276,271484.985,8,400,,,
trial,html.Screen,4_61_0,2023-05-01T22:15:37.595Z,,0,2,,4452.815000011935,response,ISIC_0069698.JPG,,ISIC_0027031.JPG,ISIC_0069698.JPG,false,1,keypress(m),500,275938,275937.8000000119,271480.792,271481.3000000119,271484.985,275939.34,8,400,12,,ISIC_0027031.JPG
break,html.Screen,4_61_1,2023-05-01T22:15:37.595Z,,0,,,NaN,,,,,,false,,,,275938.1999999881,275938.1999999881,,275938.09999996424,,275939.34,8,400,,,
break_continue,html.Screen,4_61_2,2023-05-01T22:15:37.596Z,,0,,,NaN,,,,,,false,,,,275938.39999997616,275938.3000000119,,275938.3000000119,,275939.34,8,400,,,
sequence,flow.Sequence,4_61,2023-05-01T22:15:37.596Z,,0,,,4453.315000011935,completion,,,,,false,,,,275938.39999997616,275938.3000000119,271480.792,271481.3000000119,271484.985,275939.34,8,400,,,
trial,html.Screen,4_62_0,2023-05-01T22:15:40.457Z,,0,2,,2860.3599999880535,response,ISIC_6673956.JPG,,ISIC_4035599.JPG,ISIC_6673956.JPG,false,1,keypress(m),500,278799.8000000119,278799.6999999881,275935.17,275938.5,275939.34,278800.346,8,400,13,,ISIC_4035599.JPG
break,html.Screen,4_62_1,2023-05-01T22:15:40.457Z,,0,,,NaN,,,,,,false,,,,278800.09999996424,278800,,278799.89999997616,,278800.346,8,400,,,
break_continue,html.Screen,4_62_2,2023-05-01T22:15:40.457Z,,0,,,NaN,,,,,,false,,,,278800.1999999881,278800.09999996424,,278800.09999996424,,278800.346,8,400,,,
sequence,flow.Sequence,4_62,2023-05-01T22:15:40.457Z,,0,,,2860.7599999642116,completion,,,,,false,,,,278800.1999999881,278800.09999996424,275935.17,275938.5,275939.34,278800.346,8,400,,,
trial,html.Screen,4_63_0,2023-05-01T22:15:43.984Z,,0,2,,3526.7539999642177,response,ISIC_2603420.JPG,,ISIC_0011094.JPG,ISIC_0011094.JPG,false,0,keypress(z),500,282327.1999999881,282327.09999996424,278796.177,278800.3000000119,278800.346,282327.849,8,400,14,,ISIC_2603420.JPG
break,html.Screen,4_63_1,2023-05-01T22:15:43.985Z,,0,,,NaN,,,,,,false,,,,282327.39999997616,282327.3000000119,,282327.1999999881,,282327.849,8,400,,,
break_continue,html.Screen,4_63_2,2023-05-01T22:15:43.985Z,,0,,,NaN,,,,,,false,,,,282327.5,282327.5,,282327.39999997616,,282327.849,8,400,,,
sequence,flow.Sequence,4_63,2023-05-01T22:15:43.985Z,,0,,,3527.1539999999804,completion,,,,,false,,,,282327.6999999881,282327.5,278796.177,278800.1999999881,278800.346,282327.849,8,400,,,
trial,html.Screen,4_64_0,2023-05-01T22:15:48.527Z,,0,2,,4541.350999988092,response,ISIC_0010718.JPG,,ISIC_3372750.JPG,ISIC_3372750.JPG,false,0,keypress(z),500,286869.39999997616,286869.1999999881,282323.598,282327.6999999881,282327.849,286871.374,8,400,15,,ISIC_0010718.JPG
break,html.Screen,4_64_1,2023-05-01T22:15:48.527Z,,0,,,NaN,,,,,,false,,,,286869.59999996424,286869.59999996424,,286869.5,,286871.374,8,400,,,
break_continue,html.Screen,4_64_2,2023-05-01T22:15:48.527Z,,0,,,NaN,,,,,,false,,,,286869.8000000119,286869.6999999881,,286869.6999999881,,286871.374,8,400,,,
sequence,flow.Sequence,4_64,2023-05-01T22:15:48.527Z,,0,,,4541.850999988092,completion,,,,,false,,,,286869.8000000119,286869.6999999881,282323.598,282327.6999999881,282327.849,286871.374,8,400,,,
trial,html.Screen,4_65_0,2023-05-01T22:15:51.394Z,,0,2,,2864.8259999880684,response,ISIC_4407580.JPG,,ISIC_1507583.JPG,ISIC_1507583.JPG,false,0,keypress(z),500,289736.3000000119,289736.1999999881,286866.76,286869.8000000119,286871.374,289736.662,8,400,16,,ISIC_4407580.JPG
break,html.Screen,4_65_1,2023-05-01T22:15:51.394Z,,0,,,NaN,,,,,,false,,,,289736.59999996424,289736.5,,289736.39999997616,,289736.662,8,400,,,
break_continue,html.Screen,4_65_2,2023-05-01T22:15:51.394Z,,0,,,NaN,,,,,,false,,,,289736.6999999881,289736.59999996424,,289736.59999996424,,289736.662,8,400,,,
sequence,flow.Sequence,4_65,2023-05-01T22:15:51.394Z,,0,,,2865.2259999642265,completion,,,,,false,,,,289736.6999999881,289736.59999996424,286866.76,286869.8000000119,286871.374,289736.662,8,400,,,
trial,html.Screen,4_66_0,2023-05-01T22:15:55.015Z,,0,2,,3620.6380000119098,response,ISIC_4538207.JPG,,ISIC_0029189.JPG,ISIC_0029189.JPG,false,0,keypress(z),500,293357.39999997616,293357.3000000119,289732.411,289736.8000000119,289736.662,293361.158,8,400,17,,ISIC_4538207.JPG
break,html.Screen,4_66_1,2023-05-01T22:15:55.015Z,,0,,,NaN,,,,,,false,,,,293357.6999999881,293357.59999996424,,293357.39999997616,,293361.158,8,400,,,
break_continue,html.Screen,4_66_2,2023-05-01T22:15:55.015Z,,0,,,NaN,,,,,,false,,,,293357.8000000119,293357.8000000119,,293357.6999999881,,293361.158,8,400,,,
sequence,flow.Sequence,4_66,2023-05-01T22:15:55.015Z,,0,,,3621.1380000119098,completion,,,,,false,,,,293357.8000000119,293357.8000000119,289732.411,289736.6999999881,289736.662,293361.158,8,400,,,
trial,html.Screen,4_67_0,2023-05-01T22:15:58.941Z,,0,2,,3922.142000011925,response,ISIC_8484660.JPG,,ISIC_0068215.JPG,ISIC_8484660.JPG,false,1,keypress(m),500,297283.3000000119,297283.3000000119,293356.789,293357.8000000119,293361.158,297286.353,8,400,18,,ISIC_0068215.JPG
break,html.Screen,4_67_1,2023-05-01T22:15:58.941Z,,0,,,NaN,,,,,,false,,,,297283.6999999881,297283.5,,297283.39999997616,,297286.353,8,400,,,
break_continue,html.Screen,4_67_2,2023-05-01T22:15:58.941Z,,0,,,NaN,,,,,,false,,,,297283.8000000119,297283.6999999881,,297283.6999999881,,297286.353,8,400,,,
sequence,flow.Sequence,4_67,2023-05-01T22:15:58.941Z,,0,,,3922.5419999880833,completion,,,,,false,,,,297283.89999997616,297283.6999999881,293356.789,293357.8000000119,293361.158,297286.353,8,400,,,
trial,html.Screen,4_68_0,2023-05-01T22:16:01.544Z,,0,2,,2600.447000011918,response,ISIC_2993032.JPG,,ISIC_2054066.JPG,ISIC_2993032.JPG,false,1,keypress(m),500,299886.89999997616,299886.8000000119,297282.181,297283.89999997616,297286.353,299888.441,8,400,19,,ISIC_2054066.JPG
break,html.Screen,4_68_1,2023-05-01T22:16:01.545Z,,0,,,NaN,,,,,,false,,,,299887.1999999881,299887.1999999881,,299887,,299888.441,8,400,,,
break_continue,html.Screen,4_68_2,2023-05-01T22:16:01.545Z,,0,,,NaN,,,,,,false,,,,299887.39999997616,299887.39999997616,,299887.3000000119,,299888.441,8,400,,,
sequence,flow.Sequence,4_68,2023-05-01T22:16:01.545Z,,0,,,2601.0469999761553,completion,,,,,false,,,,299887.39999997616,299887.39999997616,297282.181,297283.89999997616,297286.353,299888.441,8,400,,,
trial,html.Screen,4_69_0,2023-05-01T22:16:04.829Z,,0,2,,3283.3590000119293,response,ISIC_0010067.JPG,,ISIC_6606767.JPG,ISIC_0010067.JPG,false,1,keypress(m),500,303171.8000000119,303171.8000000119,299884.271,299887.39999997616,299888.441,303175.53,8,400,20,,ISIC_6606767.JPG
break,html.Screen,4_69_1,2023-05-01T22:16:04.830Z,,0,,,NaN,,,,,,false,,,,303172.09999996424,303172.09999996424,,303171.89999997616,,303175.53,8,400,,,
break_continue,html.Screen,4_69_2,2023-05-01T22:16:04.830Z,,0,,,NaN,,,,,,false,,,,303172.1999999881,303172.1999999881,,303172.09999996424,,303175.53,8,400,,,
sequence,flow.Sequence,4_69,2023-05-01T22:16:04.830Z,,0,,,3283.7589999880875,completion,,,,,false,,,,303172.3000000119,303172.1999999881,299884.271,299887.39999997616,299888.441,303175.53,8,400,,,
trial,html.Screen,4_70_0,2023-05-01T22:16:07.451Z,,0,2,,2618.36999997613,response,ISIC_0024546.JPG,,ISIC_0012150.JPG,ISIC_0024546.JPG,false,1,keypress(m),500,305794.09999996424,305793.89999997616,303171.358,303172.3000000119,303175.53,305798.614,8,400,21,,ISIC_0012150.JPG
break,html.Screen,4_70_1,2023-05-01T22:16:07.452Z,,0,,,NaN,,,,,,false,,,,305794.39999997616,305794.3000000119,,305794.09999996424,,305798.614,8,400,,,
break_continue,html.Screen,4_70_2,2023-05-01T22:16:07.452Z,,0,,,NaN,,,,,,false,,,,305794.5,305794.39999997616,,305794.39999997616,,305798.614,8,400,,,
sequence,flow.Sequence,4_70,2023-05-01T22:16:07.452Z,,0,,,2618.86999997613,completion,,,,,false,,,,305794.59999996424,305794.39999997616,303171.358,303172.3000000119,303175.53,305798.614,8,400,,,
trial,html.Screen,4_71_0,2023-05-01T22:16:10.058Z,,0,2,,2601.5859999880777,response,ISIC_0072266.JPG,,ISIC_7176034.JPG,ISIC_0072266.JPG,false,1,keypress(m),500,308400.3000000119,308400.1999999881,305794.419,305794.59999996424,305798.614,308400.828,8,400,22,,ISIC_7176034.JPG
break,html.Screen,4_71_1,2023-05-01T22:16:10.058Z,,0,,,NaN,,,,,,false,,,,308400.5,308400.39999997616,,308400.39999997616,,308400.828,8,400,,,
break_continue,html.Screen,4_71_2,2023-05-01T22:16:10.058Z,,0,,,NaN,,,,,,false,,,,308400.59999996424,308400.59999996424,,308400.59999996424,,308400.828,8,400,,,
sequence,flow.Sequence,4_71,2023-05-01T22:16:10.058Z,,0,,,2601.985999964236,completion,,,,,false,,,,308400.6999999881,308400.59999996424,305794.419,305794.59999996424,305798.614,308400.828,8,400,,,
trial,html.Screen,4_72_0,2023-05-01T22:16:13.094Z,,0,2,,3035.1720000000205,response,ISIC_2380341.JPG,,ISIC_1495793.JPG,ISIC_1495793.JPG,false,0,keypress(z),500,311436.09999996424,311436,308396.659,308400.8000000119,308400.828,311438.071,8,400,23,,ISIC_2380341.JPG
break,html.Screen,4_72_1,2023-05-01T22:16:13.094Z,,0,,,NaN,,,,,,false,,,,311436.39999997616,311436.3000000119,,311436.09999996424,,311438.071,8,400,,,
break_continue,html.Screen,4_72_2,2023-05-01T22:16:13.094Z,,0,,,NaN,,,,,,false,,,,311436.5,311436.5,,311436.39999997616,,311438.071,8,400,,,
sequence,flow.Sequence,4_72,2023-05-01T22:16:13.094Z,,0,,,3035.6720000000205,completion,,,,,false,,,,311436.59999996424,311436.5,308396.659,308400.8000000119,308400.828,311438.071,8,400,,,
trial,html.Screen,4_73_0,2023-05-01T22:16:15.722Z,,0,2,,2626.628999988083,response,ISIC_0553565.JPG,,ISIC_3368468.JPG,ISIC_3368468.JPG,false,0,keypress(z),500,314064.6999999881,314064.6999999881,311433.899,311436.59999996424,311438.071,314065.171,8,400,24,,ISIC_0553565.JPG
break,html.Screen,4_73_1,2023-05-01T22:16:15.722Z,,0,,,NaN,,,,,,false,,,,314065.09999996424,314065,,314064.89999997616,,314065.171,8,400,,,
break_continue,html.Screen,4_73_2,2023-05-01T22:16:15.723Z,,0,,,NaN,,,,,,false,,,,314065.09999996424,314065.09999996424,,314065.09999996424,,314065.171,8,400,,,
sequence,flow.Sequence,4_73,2023-05-01T22:16:15.723Z,,0,,,2627.028999964241,completion,,,,,false,,,,314065.1999999881,314065.09999996424,311433.899,311436.59999996424,311438.071,314065.171,8,400,,,
trial,html.Screen,4_74_0,2023-05-01T22:16:19.502Z,,0,2,,3779.428999964264,response,ISIC_0054364.JPG,,ISIC_2771979.JPG,ISIC_2771979.JPG,false,0,keypress(z),500,317844.6999999881,317844.59999996424,314061.001,314065.3000000119,314065.171,317848.216,8,400,25,,ISIC_0054364.JPG
break,html.Screen,4_74_1,2023-05-01T22:16:19.502Z,,0,,,NaN,,,,,,false,,,,317845.09999996424,317845,,317844.89999997616,,317848.216,8,400,,,
break_continue,html.Screen,4_74_2,2023-05-01T22:16:19.503Z,,0,,,NaN,,,,,,false,,,,317845.09999996424,317845.09999996424,,317845.09999996424,,317848.216,8,400,,,
sequence,flow.Sequence,4_74,2023-05-01T22:16:19.503Z,,0,,,3779.928999964264,completion,,,,,false,,,,317845.1999999881,317845.09999996424,314061.001,314065.1999999881,314065.171,317848.216,8,400,,,
trial,html.Screen,4_75_0,2023-05-01T22:16:22.269Z,,0,2,,2763.584000011906,response,ISIC_0059571.JPG,,ISIC_2758999.JPG,ISIC_0059571.JPG,false,1,keypress(m),500,320612,320611.8000000119,317844.014,317845.3000000119,317848.216,320613.953,8,400,26,,ISIC_2758999.JPG
break,html.Screen,4_75_1,2023-05-01T22:16:22.270Z,,0,,,NaN,,,,,,false,,,,320612.1999999881,320612.1999999881,,320612,,320613.953,8,400,,,
break_continue,html.Screen,4_75_2,2023-05-01T22:16:22.270Z,,0,,,NaN,,,,,,false,,,,320612.3000000119,320612.3000000119,,320612.1999999881,,320613.953,8,400,,,
sequence,flow.Sequence,4_75,2023-05-01T22:16:22.270Z,,0,,,2764.084000011906,completion,,,,,false,,,,320612.3000000119,320612.3000000119,317844.014,317845.3000000119,317848.216,320613.953,8,400,,,
trial,html.Screen,4_76_0,2023-05-01T22:16:25.297Z,,0,2,,3025.1469999642577,response,ISIC_1205826.JPG,,ISIC_1676261.JPG,ISIC_1676261.JPG,false,0,keypress(z),500,323639.3000000119,323639.09999996424,320609.781,320612.39999997616,320613.953,323641.428,8,400,27,,ISIC_1205826.JPG
break,html.Screen,4_76_1,2023-05-01T22:16:25.297Z,,0,,,NaN,,,,,,false,,,,323639.5,323639.5,,323639.3000000119,,323641.428,8,400,,,
break_continue,html.Screen,4_76_2,2023-05-01T22:16:25.297Z,,0,,,NaN,,,,,,false,,,,323639.59999996424,323639.59999996424,,323639.59999996424,,323641.428,8,400,,,
sequence,flow.Sequence,4_76,2023-05-01T22:16:25.297Z,,0,,,3025.6469999642577,completion,,,,,false,,,,323639.6999999881,323639.59999996424,320609.781,320612.39999997616,320613.953,323641.428,8,400,,,
trial,html.Screen,4_77_0,2023-05-01T22:16:27.825Z,,0,2,,2526.0719999999856,response,ISIC_0028484.JPG,,ISIC_2256461.JPG,ISIC_2256461.JPG,false,0,keypress(z),500,326167.6999999881,326167.5,323637.17,323639.8000000119,323641.428,326168.728,8,400,28,,ISIC_0028484.JPG
break,html.Screen,4_77_1,2023-05-01T22:16:27.825Z,,0,,,NaN,,,,,,false,,,,326168,326167.89999997616,,326167.8000000119,,326168.728,8,400,,,
break_continue,html.Screen,4_77_2,2023-05-01T22:16:27.825Z,,0,,,NaN,,,,,,false,,,,326168.09999996424,326168,,326168,,326168.728,8,400,,,
sequence,flow.Sequence,4_77,2023-05-01T22:16:27.826Z,,0,,,2526.5719999999856,completion,,,,,false,,,,326168.09999996424,326168,323637.17,323639.8000000119,323641.428,326168.728,8,400,,,
trial,html.Screen,4_78_0,2023-05-01T22:16:30.250Z,,0,2,,2423.8719999642344,response,ISIC_0070163.JPG,,ISIC_0029572.JPG,ISIC_0070163.JPG,false,1,keypress(m),500,328592.6999999881,328592.59999996424,326164.559,326168.1999999881,326168.728,328596.427,8,400,29,,ISIC_0029572.JPG
break,html.Screen,4_78_1,2023-05-01T22:16:30.250Z,,0,,,NaN,,,,,,false,,,,328593,328593,,328592.8000000119,,328596.427,8,400,,,
break_continue,html.Screen,4_78_2,2023-05-01T22:16:30.251Z,,0,,,NaN,,,,,,false,,,,328593.09999996424,328593.09999996424,,328593.09999996424,,328596.427,8,400,,,
sequence,flow.Sequence,4_78,2023-05-01T22:16:30.251Z,,0,,,2424.3719999642344,completion,,,,,false,,,,328593.09999996424,328593.09999996424,326164.559,326168.1999999881,326168.728,328596.427,8,400,,,
trial,html.Screen,4_79_0,2023-05-01T22:16:34.348Z,,0,2,,4093.772999988054,response,ISIC_8174951.JPG,,ISIC_7424320.JPG,ISIC_7424320.JPG,false,0,keypress(z),500,332690.3000000119,332690.1999999881,328592.257,328593.1999999881,328596.427,332692.829,8,400,30,,ISIC_8174951.JPG
break,html.Screen,4_79_1,2023-05-01T22:16:34.348Z,,0,,,NaN,,,,,,false,,,,332690.59999996424,332690.5,,332690.39999997616,,332692.829,8,400,,,
break_continue,html.Screen,4_79_2,2023-05-01T22:16:34.348Z,,0,,,NaN,,,,,,false,,,,332690.6999999881,332690.59999996424,,332690.59999996424,,332692.829,8,400,,,
sequence,flow.Sequence,4_79,2023-05-01T22:16:34.348Z,,0,,,4094.172999964212,completion,,,,,false,,,,332690.8000000119,332690.59999996424,328592.257,328593.1999999881,328596.427,332692.829,8,400,,,
trial,html.Screen,4_80_0,2023-05-01T22:16:37.638Z,,0,2,,3287.170999999973,response,ISIC_0010915.JPG,,ISIC_6831482.JPG,ISIC_6831482.JPG,false,0,keypress(z),500,335980.09999996424,335980,332688.588,332690.8000000119,332692.829,335983.037,8,400,31,,ISIC_0010915.JPG
break,html.Screen,4_80_1,2023-05-01T22:16:37.638Z,,0,,,NaN,,,,,,false,,,,335980.39999997616,335980.1999999881,,335980.1999999881,,335983.037,8,400,,,
break_continue,html.Screen,4_80_2,2023-05-01T22:16:37.638Z,,0,,,NaN,,,,,,false,,,,335980.39999997616,335980.39999997616,,335980.39999997616,,335983.037,8,400,,,
sequence,flow.Sequence,4_80,2023-05-01T22:16:37.638Z,,0,,,3287.570999976131,completion,,,,,false,,,,335980.39999997616,335980.39999997616,332688.588,332690.8000000119,332692.829,335983.037,8,400,,,
trial,html.Screen,4_81_0,2023-05-01T22:16:41.777Z,,0,2,,4136.462999999989,response,ISIC_7136995.JPG,,ISIC_0059733.JPG,ISIC_0059733.JPG,false,0,keypress(z),500,340119.6999999881,340119.5,335978.867,335980.5,335983.037,340120.499,8,400,32,,ISIC_7136995.JPG
break,html.Screen,4_81_1,2023-05-01T22:16:41.777Z,,0,,,NaN,,,,,,false,,,,340119.89999997616,340119.89999997616,,340119.6999999881,,340120.499,8,400,,,
break_continue,html.Screen,4_81_2,2023-05-01T22:16:41.777Z,,0,,,NaN,,,,,,false,,,,340120.09999996424,340120.09999996424,,340119.89999997616,,340120.499,8,400,,,
sequence,flow.Sequence,4_81,2023-05-01T22:16:41.778Z,,0,,,4137.062999964226,completion,,,,,false,,,,340120.09999996424,340120.09999996424,335978.867,335980.5,335983.037,340120.499,8,400,,,
trial,html.Screen,4_82_0,2023-05-01T22:16:44.712Z,,0,2,,2933.5009999999893,response,ISIC_0004996.JPG,,ISIC_7266604.JPG,ISIC_7266604.JPG,false,0,keypress(z),500,343054.1999999881,343054,340116.329,340120.09999996424,340120.499,343056.875,8,400,33,,ISIC_0004996.JPG
break,html.Screen,4_82_1,2023-05-01T22:16:44.712Z,,0,,,NaN,,,,,,false,,,,343054.39999997616,343054.3000000119,,343054.3000000119,,343056.875,8,400,,,
break_continue,html.Screen,4_82_2,2023-05-01T22:16:44.712Z,,0,,,NaN,,,,,,false,,,,343054.5,343054.5,,343054.5,,343056.875,8,400,,,
sequence,flow.Sequence,4_82,2023-05-01T22:16:44.712Z,,0,,,2934.0009999999893,completion,,,,,false,,,,343054.5,343054.5,340116.329,340120.09999996424,340120.499,343056.875,8,400,,,
trial,html.Screen,4_83_0,2023-05-01T22:16:47.265Z,,0,2,,2551.024999976158,response,ISIC_4308751.JPG,,ISIC_5583159.JPG,ISIC_4308751.JPG,false,1,keypress(m),500,345608,345607.89999997616,343052.41,343054.59999996424,343056.875,345609.057,8,400,34,,ISIC_5583159.JPG
break,html.Screen,4_83_1,2023-05-01T22:16:47.266Z,,0,,,NaN,,,,,,false,,,,345608.39999997616,345608.3000000119,,345608.09999996424,,345609.057,8,400,,,
break_continue,html.Screen,4_83_2,2023-05-01T22:16:47.266Z,,0,,,NaN,,,,,,false,,,,345608.39999997616,345608.39999997616,,345608.39999997616,,345609.057,8,400,,,
sequence,flow.Sequence,4_83,2023-05-01T22:16:47.266Z,,0,,,2551.524999976158,completion,,,,,false,,,,345608.5,345608.39999997616,343052.41,343054.59999996424,343056.875,345609.057,8,400,,,
trial,html.Screen,4_84_0,2023-05-01T22:16:50.074Z,,0,2,,2807.4430000000284,response,ISIC_0000484.JPG,,ISIC_0033879.JPG,ISIC_0000484.JPG,false,1,keypress(m),500,348416.6999999881,348416.5,345604.888,345608.59999996424,345609.057,348416.874,8,400,35,,ISIC_0033879.JPG
break,html.Screen,4_84_1,2023-05-01T22:16:50.074Z,,0,,,NaN,,,,,,false,,,,348416.89999997616,348416.89999997616,,348416.6999999881,,348416.874,8,400,,,
break_continue,html.Screen,4_84_2,2023-05-01T22:16:50.075Z,,0,,,NaN,,,,,,false,,,,348417.09999996424,348417,,348417,,348416.874,8,400,,,
sequence,flow.Sequence,4_84,2023-05-01T22:16:50.075Z,,0,,,2807.9430000000284,completion,,,,,false,,,,348417.09999996424,348417,345604.888,345608.5,345609.057,348416.874,8,400,,,
trial,html.Screen,4_85_0,2023-05-01T22:16:52.931Z,,0,2,,2856.3259999880684,response,ISIC_6017148.JPG,,ISIC_7630831.JPG,ISIC_7630831.JPG,false,0,keypress(z),500,351273.3000000119,351273.1999999881,348412.702,348417.3000000119,348416.874,351277.686,8,400,36,,ISIC_6017148.JPG
break,html.Screen,4_85_1,2023-05-01T22:16:52.931Z,,0,,,NaN,,,,,,false,,,,351273.59999996424,351273.5,,351273.3000000119,,351277.686,8,400,,,
break_continue,html.Screen,4_85_2,2023-05-01T22:16:52.931Z,,0,,,NaN,,,,,,false,,,,351273.59999996424,351273.59999996424,,351273.59999996424,,351277.686,8,400,,,
sequence,flow.Sequence,4_85,2023-05-01T22:16:52.931Z,,0,,,2856.7259999642265,completion,,,,,false,,,,351273.59999996424,351273.59999996424,348412.702,348417.1999999881,348416.874,351277.686,8,400,,,
trial,html.Screen,4_86_0,2023-05-01T22:16:55.431Z,,0,2,,2495.513999988092,response,ISIC_2203247.JPG,,ISIC_4393704.JPG,ISIC_4393704.JPG,false,0,keypress(z),500,353773.3000000119,353773.1999999881,351273.338,351273.6999999881,351277.686,353775.973,8,400,37,,ISIC_2203247.JPG
break,html.Screen,4_86_1,2023-05-01T22:16:55.431Z,,0,,,NaN,,,,,,false,,,,353773.6999999881,353773.5,,353773.39999997616,,353775.973,8,400,,,
break_continue,html.Screen,4_86_2,2023-05-01T22:16:55.431Z,,0,,,NaN,,,,,,false,,,,353773.6999999881,353773.6999999881,,353773.6999999881,,353775.973,8,400,,,
sequence,flow.Sequence,4_86,2023-05-01T22:16:55.431Z,,0,,,2496.013999988092,completion,,,,,false,,,,353773.8000000119,353773.6999999881,351273.338,351273.6999999881,351277.686,353775.973,8,400,,,
trial,html.Screen,4_87_0,2023-05-01T22:16:58.254Z,,0,2,,2820.827000011923,response,ISIC_0702876.JPG,,ISIC_0028396.JPG,ISIC_0028396.JPG,false,0,keypress(z),500,356596.89999997616,356596.8000000119,353771.635,353773.8000000119,353775.973,356599.548,8,400,38,,ISIC_0702876.JPG
break,html.Screen,4_87_1,2023-05-01T22:16:58.255Z,,0,,,NaN,,,,,,false,,,,356597.1999999881,356597.09999996424,,356597,,356599.548,8,400,,,
break_continue,html.Screen,4_87_2,2023-05-01T22:16:58.255Z,,0,,,NaN,,,,,,false,,,,356597.3000000119,356597.3000000119,,356597.1999999881,,356599.548,8,400,,,
sequence,flow.Sequence,4_87,2023-05-01T22:16:58.255Z,,0,,,2821.327000011923,completion,,,,,false,,,,356597.3000000119,356597.3000000119,353771.635,353773.8000000119,353775.973,356599.548,8,400,,,
trial,html.Screen,4_88_0,2023-05-01T22:17:01.222Z,,0,2,,2965.45199999999,response,ISIC_6668197.JPG,,ISIC_0024697.JPG,ISIC_6668197.JPG,false,1,keypress(m),500,359565.09999996424,359565,356595.298,356597.39999997616,356599.548,359569.284,8,400,39,,ISIC_0024697.JPG
break,html.Screen,4_88_1,2023-05-01T22:17:01.223Z,,0,,,NaN,,,,,,false,,,,359565.3000000119,359565.1999999881,,359565.09999996424,,359569.284,8,400,,,
break_continue,html.Screen,4_88_2,2023-05-01T22:17:01.223Z,,0,,,NaN,,,,,,false,,,,359565.39999997616,359565.39999997616,,359565.39999997616,,359569.284,8,400,,,
sequence,flow.Sequence,4_88,2023-05-01T22:17:01.223Z,,0,,,2965.8519999761484,completion,,,,,false,,,,359565.39999997616,359565.39999997616,356595.298,356597.39999997616,356599.548,359569.284,8,400,,,
trial,html.Screen,4_89_0,2023-05-01T22:17:04.386Z,,0,2,,3159.615999976173,response,ISIC_0071536.JPG,,ISIC_0014657.JPG,ISIC_0014657.JPG,false,0,keypress(z),500,362729.09999996424,362728.89999997616,359565.114,359565.39999997616,359569.284,362730.787,8,400,40,,ISIC_0071536.JPG
break,html.Screen,4_89_1,2023-05-01T22:17:04.387Z,,0,,,NaN,,,,,,false,,,,362729.3000000119,362729.3000000119,,362729.1999999881,,362730.787,8,400,,,
break_continue,html.Screen,4_89_2,2023-05-01T22:17:04.387Z,,0,,,NaN,,,,,,false,,,,362729.5,362729.39999997616,,362729.39999997616,,362730.787,8,400,,,
sequence,flow.Sequence,4_89,2023-05-01T22:17:04.387Z,,0,,,3160.115999976173,completion,,,,,false,,,,362729.5,362729.39999997616,359565.114,359565.39999997616,359569.284,362730.787,8,400,,,
trial,html.Screen,4_90_0,2023-05-01T22:17:08.425Z,,0,2,,4036.712999999989,response,ISIC_0054229.JPG,,ISIC_9227392.JPG,ISIC_0054229.JPG,false,1,keypress(m),500,366767.59999996424,366767.5,362726.617,362729.5,362730.787,366768.177,8,400,41,,ISIC_9227392.JPG
break,html.Screen,4_90_1,2023-05-01T22:17:08.425Z,,0,,,NaN,,,,,,false,,,,366767.8000000119,366767.8000000119,,366767.6999999881,,366768.177,8,400,,,
break_continue,html.Screen,4_90_2,2023-05-01T22:17:08.425Z,,0,,,NaN,,,,,,false,,,,366768,366768,,366767.89999997616,,366768.177,8,400,,,
sequence,flow.Sequence,4_90,2023-05-01T22:17:08.425Z,,0,,,4037.212999999989,completion,,,,,false,,,,366768.09999996424,366768,362726.617,362729.5,362730.787,366768.177,8,400,,,
trial,html.Screen,4_91_0,2023-05-01T22:17:11.071Z,,0,2,,2645.623000011896,response,ISIC_8493108.JPG,,ISIC_0067274.JPG,ISIC_8493108.JPG,false,1,keypress(m),500,369414,369413.8000000119,366764.007,366768.09999996424,366768.177,369416.736,8,400,42,,ISIC_0067274.JPG
break,html.Screen,4_91_1,2023-05-01T22:17:11.072Z,,0,,,NaN,,,,,,false,,,,369414.1999999881,369414.1999999881,,369414.09999996424,,369416.736,8,400,,,
break_continue,html.Screen,4_91_2,2023-05-01T22:17:11.072Z,,0,,,NaN,,,,,,false,,,,369414.39999997616,369414.39999997616,,369414.3000000119,,369416.736,8,400,,,
sequence,flow.Sequence,4_91,2023-05-01T22:17:11.072Z,,0,,,2646.222999976133,completion,,,,,false,,,,369414.39999997616,369414.39999997616,366764.007,366768.09999996424,366768.177,369416.736,8,400,,,
trial,html.Screen,4_92_0,2023-05-01T22:17:13.586Z,,0,2,,2511.9639999881038,response,ISIC_7045042.JPG,,ISIC_4834687.JPG,ISIC_4834687.JPG,false,0,keypress(z),500,371928.8000000119,371928.6999999881,369412.379,369414.5,369416.736,371931.714,8,400,43,,ISIC_7045042.JPG
break,html.Screen,4_92_1,2023-05-01T22:17:13.586Z,,0,,,NaN,,,,,,false,,,,371929.09999996424,371929,,371928.89999997616,,371931.714,8,400,,,
break_continue,html.Screen,4_92_2,2023-05-01T22:17:13.587Z,,0,,,NaN,,,,,,false,,,,371929.09999996424,371929.09999996424,,371929.09999996424,,371931.714,8,400,,,
sequence,flow.Sequence,4_92,2023-05-01T22:17:13.587Z,,0,,,2512.363999964262,completion,,,,,false,,,,371929.1999999881,371929.09999996424,369412.379,369414.5,369416.736,371931.714,8,400,,,
trial,html.Screen,4_93_0,2023-05-01T22:17:16.172Z,,0,2,,2582.586000011943,response,ISIC_0066882.JPG,,ISIC_4187627.JPG,ISIC_0066882.JPG,false,1,keypress(m),500,374514.5,374514.3000000119,371927.305,371929.3000000119,371931.714,374517.587,8,400,44,,ISIC_4187627.JPG
break,html.Screen,4_93_1,2023-05-01T22:17:16.172Z,,0,,,NaN,,,,,,false,,,,374514.6999999881,374514.6999999881,,374514.59999996424,,374517.587,8,400,,,
break_continue,html.Screen,4_93_2,2023-05-01T22:17:16.172Z,,0,,,NaN,,,,,,false,,,,374514.89999997616,374514.89999997616,,374514.8000000119,,374517.587,8,400,,,
sequence,flow.Sequence,4_93,2023-05-01T22:17:16.172Z,,0,,,2583.18599997618,completion,,,,,false,,,,374514.89999997616,374514.89999997616,371927.305,371929.1999999881,371931.714,374517.587,8,400,,,
trial,html.Screen,4_94_0,2023-05-01T22:17:18.879Z,,0,2,,2704.2130000119214,response,ISIC_0063748.JPG,,ISIC_0010235.JPG,ISIC_0063748.JPG,false,1,keypress(m),500,377222,377221.8000000119,374513.341,374514.89999997616,374517.587,377224.598,8,400,45,,ISIC_0010235.JPG
break,html.Screen,4_94_1,2023-05-01T22:17:18.880Z,,0,,,NaN,,,,,,false,,,,377222.1999999881,377222.09999996424,,377222.09999996424,,377224.598,8,400,,,
break_continue,html.Screen,4_94_2,2023-05-01T22:17:18.880Z,,0,,,NaN,,,,,,false,,,,377222.39999997616,377222.3000000119,,377222.3000000119,,377224.598,8,400,,,
sequence,flow.Sequence,4_94,2023-05-01T22:17:18.880Z,,0,,,2704.7130000119214,completion,,,,,false,,,,377222.5,377222.3000000119,374513.341,374514.89999997616,374517.587,377224.598,8,400,,,
trial,html.Screen,4_95_0,2023-05-01T22:17:21.854Z,,0,2,,2972.001999964239,response,ISIC_0296580.JPG,,ISIC_4142019.JPG,ISIC_0296580.JPG,false,1,keypress(m),500,380196.8000000119,380196.59999996424,377219.594,377222.59999996424,377224.598,380198.241,8,400,46,,ISIC_4142019.JPG
break,html.Screen,4_95_1,2023-05-01T22:17:21.854Z,,0,,,NaN,,,,,,false,,,,380197,380197,,380196.8000000119,,380198.241,8,400,,,
break_continue,html.Screen,4_95_2,2023-05-01T22:17:21.855Z,,0,,,NaN,,,,,,false,,,,380197.1999999881,380197.09999996424,,380197.09999996424,,380198.241,8,400,,,
sequence,flow.Sequence,4_95,2023-05-01T22:17:21.855Z,,0,,,2972.501999964239,completion,,,,,false,,,,380197.1999999881,380197.09999996424,377219.594,377222.59999996424,377224.598,380198.241,8,400,,,
trial,html.Screen,4_96_0,2023-05-01T22:17:24.695Z,,0,2,,2839.658999976178,response,ISIC_0000483.JPG,,ISIC_0057556.JPG,ISIC_0057556.JPG,false,0,keypress(z),500,383038,383037.89999997616,380194.071,380197.3000000119,380198.241,383039.677,8,400,47,,ISIC_0000483.JPG
break,html.Screen,4_96_1,2023-05-01T22:17:24.696Z,,0,,,NaN,,,,,,false,,,,383038.3000000119,383038.1999999881,,383038.1999999881,,383039.677,8,400,,,
break_continue,html.Screen,4_96_2,2023-05-01T22:17:24.696Z,,0,,,NaN,,,,,,false,,,,383038.39999997616,383038.39999997616,,383038.3000000119,,383039.677,8,400,,,
sequence,flow.Sequence,4_96,2023-05-01T22:17:24.696Z,,0,,,2840.158999976178,completion,,,,,false,,,,383038.5,383038.39999997616,380194.071,380197.3000000119,380198.241,383039.677,8,400,,,
trial,html.Screen,4_97_0,2023-05-01T22:17:28.768Z,,0,2,,4071.222999976133,response,ISIC_0062401.JPG,,ISIC_3706743.JPG,ISIC_0062401.JPG,false,1,keypress(m),500,387111,387110.89999997616,383035.502,383038.5,383039.677,387113.53,8,400,48,,ISIC_3706743.JPG
break,html.Screen,4_97_1,2023-05-01T22:17:28.769Z,,0,,,NaN,,,,,,false,,,,387111.3000000119,387111.1999999881,,387111.09999996424,,387113.53,8,400,,,
break_continue,html.Screen,4_97_2,2023-05-01T22:17:28.769Z,,0,,,NaN,,,,,,false,,,,387111.39999997616,387111.3000000119,,387111.3000000119,,387113.53,8,400,,,
sequence,flow.Sequence,4_97,2023-05-01T22:17:28.769Z,,0,,,4071.623000011896,completion,,,,,false,,,,387111.5,387111.3000000119,383035.502,383038.5,383039.677,387113.53,8,400,,,
trial,html.Screen,4_98_0,2023-05-01T22:17:31.659Z,,0,2,,2887.770000011893,response,ISIC_0005494.JPG,,ISIC_6532137.JPG,ISIC_0005494.JPG,false,1,keypress(m),500,390001.39999997616,390001.3000000119,387109.36,387111.5,387113.53,390004.04,8,400,49,,ISIC_6532137.JPG
break,html.Screen,4_98_1,2023-05-01T22:17:31.659Z,,0,,,NaN,,,,,,false,,,,390001.6999999881,390001.6999999881,,390001.59999996424,,390004.04,8,400,,,
break_continue,html.Screen,4_98_2,2023-05-01T22:17:31.659Z,,0,,,NaN,,,,,,false,,,,390001.8000000119,390001.8000000119,,390001.8000000119,,390004.04,8,400,,,
sequence,flow.Sequence,4_98,2023-05-01T22:17:31.659Z,,0,,,2888.270000011893,completion,,,,,false,,,,390002,390001.8000000119,387109.36,387111.5,387113.53,390004.04,8,400,,,
trial,html.Screen,4_99_0,2023-05-01T22:17:35.597Z,,0,2,,3935.6599999881,response,ISIC_0027941.JPG,,ISIC_0024961.JPG,ISIC_0024961.JPG,false,0,keypress(z),500,393939.8000000119,393939.6999999881,389999.594,390002,390004.04,393941.073,8,400,50,,ISIC_0027941.JPG
break,html.Screen,4_99_1,2023-05-01T22:17:40.596Z,,0,,,5001.215000000026,timeout,,,,,false,,,,398938.5,398938.118,393936.904,393939.8000000119,393941.073,398942.288,8,400,,,
break_continue,html.Screen,4_99_2,2023-05-01T22:18:03.881Z,,0,,,23275.91199998808,response,,,,,false,continue,keypress(Space),,422223.3000000119,422218.1999999881,398938.118,398938.59999996424,398942.288,422227.568,8,400,,,
sequence,flow.Sequence,4_99,2023-05-01T22:18:03.881Z,,0,,,32214.1599999881,completion,,,,,false,,,,422223.39999997616,422218.1999999881,389999.594,390002,390004.04,422227.568,8,400,,,
trial,html.Screen,4_100_0,2023-05-01T22:18:08.209Z,,0,3,,4323.631999988051,response,ISIC_0032462.JPG,,ISIC_6523459.JPG,ISIC_6523459.JPG,false,0,keypress(z),500,426551.3000000119,426551.1999999881,422223.398,422223.39999997616,422227.568,426553.168,8,400,1,,ISIC_0032462.JPG
break,html.Screen,4_100_1,2023-05-01T22:18:08.209Z,,0,,,NaN,,,,,,false,,,,426551.59999996424,426551.59999996424,,426551.39999997616,,426553.168,8,400,,,
break_continue,html.Screen,4_100_2,2023-05-01T22:18:08.209Z,,0,,,NaN,,,,,,false,,,,426551.8000000119,426551.6999999881,,426551.6999999881,,426553.168,8,400,,,
sequence,flow.Sequence,4_100,2023-05-01T22:18:08.209Z,,0,,,4324.131999988051,completion,,,,,false,,,,426551.8000000119,426551.6999999881,422223.398,422223.39999997616,422227.568,426553.168,8,400,,,
trial,html.Screen,4_101_0,2023-05-01T22:18:12.155Z,,0,3,,3944.531999988074,response,ISIC_0056246.JPG,,ISIC_4614604.JPG,ISIC_4614604.JPG,false,0,keypress(z),500,430497.8000000119,430497.6999999881,426548.891,426551.8000000119,426553.168,430498.702,8,400,2,,ISIC_0056246.JPG
break,html.Screen,4_101_1,2023-05-01T22:18:12.156Z,,0,,,NaN,,,,,,false,,,,430498.09999996424,430498,,430497.89999997616,,430498.702,8,400,,,
break_continue,html.Screen,4_101_2,2023-05-01T22:18:12.156Z,,0,,,NaN,,,,,,false,,,,430498.3000000119,430498.1999999881,,430498.09999996424,,430498.702,8,400,,,
sequence,flow.Sequence,4_101,2023-05-01T22:18:12.156Z,,0,,,3945.031999988074,completion,,,,,false,,,,430498.3000000119,430498.1999999881,426548.891,426551.8000000119,426553.168,430498.702,8,400,,,
trial,html.Screen,4_102_0,2023-05-01T22:18:16.151Z,,0,3,,3994.897999964247,response,ISIC_0007084.JPG,,ISIC_0014157.JPG,ISIC_0014157.JPG,false,0,keypress(z),500,434493.6999999881,434493.59999996424,430494.532,430498.3000000119,430498.702,434494.383,8,400,3,,ISIC_0007084.JPG
break,html.Screen,4_102_1,2023-05-01T22:18:16.151Z,,0,,,NaN,,,,,,false,,,,434494,434493.89999997616,,434493.89999997616,,434494.383,8,400,,,
break_continue,html.Screen,4_102_2,2023-05-01T22:18:16.152Z,,0,,,NaN,,,,,,false,,,,434494.1999999881,434494.09999996424,,434494.09999996424,,434494.383,8,400,,,
sequence,flow.Sequence,4_102,2023-05-01T22:18:16.152Z,,0,,,3995.397999964247,completion,,,,,false,,,,434494.1999999881,434494.09999996424,430494.532,430498.3000000119,430498.702,434494.383,8,400,,,
trial,html.Screen,4_103_0,2023-05-01T22:18:20.647Z,,0,3,,4495.216999964265,response,ISIC_0010775.JPG,,ISIC_0025324.JPG,ISIC_0010775.JPG,false,1,keypress(m),500,438989.6999999881,438989.59999996424,434490.213,434494.3000000119,434494.383,438994.261,8,400,4,,ISIC_0025324.JPG
break,html.Screen,4_103_1,2023-05-01T22:18:20.647Z,,0,,,NaN,,,,,,false,,,,438989.89999997616,438989.89999997616,,438989.6999999881,,438994.261,8,400,,,
break_continue,html.Screen,4_103_2,2023-05-01T22:18:20.647Z,,0,,,NaN,,,,,,false,,,,438990,438990,,438990,,438994.261,8,400,,,
sequence,flow.Sequence,4_103,2023-05-01T22:18:20.647Z,,0,,,4495.6170000000275,completion,,,,,false,,,,438990.09999996424,438990,434490.213,434494.1999999881,434494.383,438994.261,8,400,,,
trial,html.Screen,4_104_0,2023-05-01T22:18:25.108Z,,0,3,,4455.9389999880805,response,ISIC_4654965.JPG,,ISIC_2680588.JPG,ISIC_2680588.JPG,false,0,keypress(z),500,443450.3000000119,443450.1999999881,438990.052,438990.09999996424,438994.261,443453.597,8,400,5,,ISIC_4654965.JPG
break,html.Screen,4_104_1,2023-05-01T22:18:25.108Z,,0,,,NaN,,,,,,false,,,,443450.5,443450.39999997616,,443450.3000000119,,443453.597,8,400,,,
break_continue,html.Screen,4_104_2,2023-05-01T22:18:25.108Z,,0,,,NaN,,,,,,false,,,,443450.6999999881,443450.6999999881,,443450.5,,443453.597,8,400,,,
sequence,flow.Sequence,4_104,2023-05-01T22:18:25.108Z,,0,,,4456.4389999880805,completion,,,,,false,,,,443450.8000000119,443450.6999999881,438990.052,438990.09999996424,438994.261,443453.597,8,400,,,
trial,html.Screen,4_105_0,2023-05-01T22:18:30.658Z,,0,3,,5547.402999999991,response,ISIC_1068686.JPG,,ISIC_0033843.JPG,ISIC_0033843.JPG,false,0,keypress(z),500,449001.09999996424,449001,443448.911,443450.8000000119,443453.597,449004.891,8,400,6,,ISIC_1068686.JPG
break,html.Screen,4_105_1,2023-05-01T22:18:30.659Z,,0,,,NaN,,,,,,false,,,,449001.39999997616,449001.3000000119,,449001.09999996424,,449004.891,8,400,,,
break_continue,html.Screen,4_105_2,2023-05-01T22:18:30.659Z,,0,,,NaN,,,,,,false,,,,449001.5,449001.39999997616,,449001.39999997616,,449004.891,8,400,,,
sequence,flow.Sequence,4_105,2023-05-01T22:18:30.659Z,,0,,,5547.802999976149,completion,,,,,false,,,,449001.5,449001.39999997616,443448.911,443450.8000000119,443453.597,449004.891,8,400,,,
trial,html.Screen,4_106_0,2023-05-01T22:18:33.816Z,,0,3,,3153.708999964234,response,ISIC_5367118.JPG,,ISIC_6714082.JPG,ISIC_6714082.JPG,false,0,keypress(z),500,452158.6999999881,452158.59999996424,449000.721,449001.59999996424,449004.891,452161.954,8,400,7,,ISIC_5367118.JPG
break,html.Screen,4_106_1,2023-05-01T22:18:33.816Z,,0,,,NaN,,,,,,false,,,,452159,452159,,452158.8000000119,,452161.954,8,400,,,
break_continue,html.Screen,4_106_2,2023-05-01T22:18:33.817Z,,0,,,NaN,,,,,,false,,,,452159.09999996424,452159.09999996424,,452159.09999996424,,452161.954,8,400,,,
sequence,flow.Sequence,4_106,2023-05-01T22:18:33.817Z,,0,,,3154.208999964234,completion,,,,,false,,,,452159.1999999881,452159.09999996424,449000.721,449001.5,449004.891,452161.954,8,400,,,
trial,html.Screen,4_107_0,2023-05-01T22:18:36.422Z,,0,3,,2602.64599996421,response,ISIC_0009894.JPG,,ISIC_0032716.JPG,ISIC_0009894.JPG,false,1,keypress(m),500,454764.6999999881,454764.59999996424,452157.785,452159.1999999881,452161.954,454766.415,8,400,8,,ISIC_0032716.JPG
break,html.Screen,4_107_1,2023-05-01T22:18:36.422Z,,0,,,NaN,,,,,,false,,,,454765,454765,,454764.89999997616,,454766.415,8,400,,,
break_continue,html.Screen,4_107_2,2023-05-01T22:18:36.423Z,,0,,,NaN,,,,,,false,,,,454765.09999996424,454765.09999996424,,454765,,454766.415,8,400,,,
sequence,flow.Sequence,4_107,2023-05-01T22:18:36.423Z,,0,,,2603.14599996421,completion,,,,,false,,,,454765.3000000119,454765.09999996424,452157.785,452159.1999999881,452161.954,454766.415,8,400,,,
trial,html.Screen,4_108_0,2023-05-01T22:18:43.292Z,,0,3,,6868.184999964258,response,ISIC_0032130.JPG,,ISIC_0067274.JPG,ISIC_0032130.JPG,false,1,keypress(m),500,461634.6999999881,461634.59999996424,454762.206,454765.3000000119,454766.415,461638.488,8,400,9,,ISIC_0067274.JPG
break,html.Screen,4_108_1,2023-05-01T22:18:43.292Z,,0,,,NaN,,,,,,false,,,,461635,461634.89999997616,,461634.6999999881,,461638.488,8,400,,,
break_continue,html.Screen,4_108_2,2023-05-01T22:18:43.293Z,,0,,,NaN,,,,,,false,,,,461635.1999999881,461635.09999996424,,461635,,461638.488,8,400,,,
sequence,flow.Sequence,4_108,2023-05-01T22:18:43.293Z,,0,,,6868.684999964258,completion,,,,,false,,,,461635.1999999881,461635.09999996424,454762.206,454765.3000000119,454766.415,461638.488,8,400,,,
trial,html.Screen,4_109_0,2023-05-01T22:18:47.515Z,,0,3,,4219.211999988067,response,ISIC_0013844.JPG,,ISIC_2605120.JPG,ISIC_0013844.JPG,false,1,keypress(m),500,465857.8000000119,465857.6999999881,461634.118,461635.1999999881,461638.488,465859.028,8,400,10,,ISIC_2605120.JPG
break,html.Screen,4_109_1,2023-05-01T22:18:47.516Z,,0,,,NaN,,,,,,false,,,,465858.1999999881,465858.09999996424,,465857.89999997616,,465859.028,8,400,,,
break_continue,html.Screen,4_109_2,2023-05-01T22:18:47.516Z,,0,,,NaN,,,,,,false,,,,465858.3000000119,465858.3000000119,,465858.1999999881,,465859.028,8,400,,,
sequence,flow.Sequence,4_109,2023-05-01T22:18:47.516Z,,0,,,4219.812000011909,completion,,,,,false,,,,465858.39999997616,465858.3000000119,461634.118,461635.1999999881,461638.488,465859.028,8,400,,,
trial,html.Screen,4_110_0,2023-05-01T22:18:52.425Z,,0,3,,4908.171999988088,response,ISIC_8241457.JPG,,ISIC_2214766.JPG,ISIC_8241457.JPG,false,1,keypress(m),500,470767.39999997616,470767.1999999881,465854.909,465858.39999997616,465859.028,470772.658,8,400,11,,ISIC_2214766.JPG
break,html.Screen,4_110_1,2023-05-01T22:18:52.425Z,,0,,,NaN,,,,,,false,,,,470767.6999999881,470767.5,,470767.39999997616,,470772.658,8,400,,,
break_continue,html.Screen,4_110_2,2023-05-01T22:18:52.425Z,,0,,,NaN,,,,,,false,,,,470767.6999999881,470767.6999999881,,470767.6999999881,,470772.658,8,400,,,
sequence,flow.Sequence,4_110,2023-05-01T22:18:52.425Z,,0,,,4908.671999988088,completion,,,,,false,,,,470767.8000000119,470767.6999999881,465854.909,465858.39999997616,465859.028,470772.658,8,400,,,
trial,html.Screen,4_111_0,2023-05-01T22:18:58.884Z,,0,3,,6453.842000000004,response,ISIC_0058508.JPG,,ISIC_5234605.JPG,ISIC_0058508.JPG,false,1,keypress(m),500,477226.59999996424,477226.5,470768.469,470767.8000000119,470772.658,477228.768,8,400,12,,ISIC_5234605.JPG
break,html.Screen,4_111_1,2023-05-01T22:18:58.884Z,,0,,,NaN,,,,,,false,,,,477226.89999997616,477226.8000000119,,477226.6999999881,,477228.768,8,400,,,
break_continue,html.Screen,4_111_2,2023-05-01T22:18:58.884Z,,0,,,NaN,,,,,,false,,,,477227,477227,,477227,,477228.768,8,400,,,
sequence,flow.Sequence,4_111,2023-05-01T22:18:58.884Z,,0,,,6454.342000000004,completion,,,,,false,,,,477227,477227,470768.469,470767.8000000119,470772.658,477228.768,8,400,,,
trial,html.Screen,4_112_0,2023-05-01T22:19:04.344Z,,0,3,,5457.331999964255,response,ISIC_0029729.JPG,,ISIC_2772616.JPG,ISIC_0029729.JPG,false,1,keypress(m),500,482686.1999999881,482686.09999996424,477224.599,477227.09999996424,477228.768,482688.796,8,400,13,,ISIC_2772616.JPG
break,html.Screen,4_112_1,2023-05-01T22:19:04.344Z,,0,,,NaN,,,,,,false,,,,482686.5,482686.39999997616,,482686.3000000119,,482688.796,8,400,,,
break_continue,html.Screen,4_112_2,2023-05-01T22:19:04.344Z,,0,,,NaN,,,,,,false,,,,482686.59999996424,482686.59999996424,,482686.59999996424,,482688.796,8,400,,,
sequence,flow.Sequence,4_112,2023-05-01T22:19:04.344Z,,0,,,5457.831999964255,completion,,,,,false,,,,482686.59999996424,482686.59999996424,477224.599,477227.09999996424,477228.768,482688.796,8,400,,,
trial,html.Screen,4_113_0,2023-05-01T22:19:10.018Z,,0,3,,5671.903999988106,response,ISIC_6899527.JPG,,ISIC_0031680.JPG,ISIC_6899527.JPG,false,1,keypress(m),500,488360.8000000119,488360.6999999881,482684.621,482686.6999999881,482688.796,488361.026,8,400,14,,ISIC_0031680.JPG
break,html.Screen,4_113_1,2023-05-01T22:19:10.018Z,,0,,,NaN,,,,,,false,,,,488361.09999996424,488361,,488360.89999997616,,488361.026,8,400,,,
break_continue,html.Screen,4_113_2,2023-05-01T22:19:10.019Z,,0,,,NaN,,,,,,false,,,,488361.1999999881,488361.1999999881,,488361.09999996424,,488361.026,8,400,,,
sequence,flow.Sequence,4_113,2023-05-01T22:19:10.019Z,,0,,,5672.403999988106,completion,,,,,false,,,,488361.1999999881,488361.1999999881,482684.621,482686.6999999881,482688.796,488361.026,8,400,,,
trial,html.Screen,4_114_0,2023-05-01T22:19:13.240Z,,0,3,,3221.3739999761456,response,ISIC_7299025.JPG,,ISIC_0004996.JPG,ISIC_7299025.JPG,false,1,keypress(m),500,491582.5,491582.39999997616,488356.856,488361.3000000119,488361.026,491585.469,8,400,15,,ISIC_0004996.JPG
break,html.Screen,4_114_1,2023-05-01T22:19:13.240Z,,0,,,NaN,,,,,,false,,,,491582.8000000119,491582.8000000119,,491582.6999999881,,491585.469,8,400,,,
break_continue,html.Screen,4_114_2,2023-05-01T22:19:13.240Z,,0,,,NaN,,,,,,false,,,,491583,491582.89999997616,,491582.89999997616,,491585.469,8,400,,,
sequence,flow.Sequence,4_114,2023-05-01T22:19:13.240Z,,0,,,3221.8739999761456,completion,,,,,false,,,,491583,491582.89999997616,488356.856,488361.3000000119,488361.026,491585.469,8,400,,,
trial,html.Screen,4_115_0,2023-05-01T22:19:18.757Z,,0,3,,5514.331000011938,response,ISIC_5437785.JPG,,ISIC_1071355.JPG,ISIC_1071355.JPG,false,0,keypress(z),500,497099.89999997616,497099.8000000119,491581.22,491583,491585.469,497103.276,8,400,16,,ISIC_5437785.JPG
break,html.Screen,4_115_1,2023-05-01T22:19:18.758Z,,0,,,NaN,,,,,,false,,,,497100.1999999881,497100.1999999881,,497100.09999996424,,497103.276,8,400,,,
break_continue,html.Screen,4_115_2,2023-05-01T22:19:18.758Z,,0,,,NaN,,,,,,false,,,,497100.3000000119,497100.3000000119,,497100.1999999881,,497103.276,8,400,,,
sequence,flow.Sequence,4_115,2023-05-01T22:19:18.758Z,,0,,,5514.831000011938,completion,,,,,false,,,,497100.39999997616,497100.3000000119,491581.22,491583,491585.469,497103.276,8,400,,,
trial,html.Screen,4_116_0,2023-05-01T22:19:22.150Z,,0,3,,3389.4239999880665,response,ISIC_0919467.JPG,,ISIC_4263521.JPG,ISIC_4263521.JPG,false,0,keypress(z),500,500492.8000000119,500492.6999999881,497099.1,497100.39999997616,497103.276,500494.139,8,400,17,,ISIC_0919467.JPG
break,html.Screen,4_116_1,2023-05-01T22:19:22.151Z,,0,,,NaN,,,,,,false,,,,500493.1999999881,500493.09999996424,,500493,,500494.139,8,400,,,
break_continue,html.Screen,4_116_2,2023-05-01T22:19:22.151Z,,0,,,NaN,,,,,,false,,,,500493.1999999881,500493.1999999881,,500493.1999999881,,500494.139,8,400,,,
sequence,flow.Sequence,4_116,2023-05-01T22:19:22.151Z,,0,,,3389.9239999880665,completion,,,,,false,,,,500493.3000000119,500493.1999999881,497099.1,497100.39999997616,497103.276,500494.139,8,400,,,
trial,html.Screen,4_117_0,2023-05-01T22:19:27.617Z,,0,3,,5465.360999999975,response,ISIC_0001831.JPG,,ISIC_0057759.JPG,ISIC_0057759.JPG,false,0,keypress(z),500,505959.59999996424,505959.5,500489.969,500493.39999997616,500494.139,505962.034,8,400,18,,ISIC_0001831.JPG
break,html.Screen,4_117_1,2023-05-01T22:19:27.617Z,,0,,,NaN,,,,,,false,,,,505959.8000000119,505959.8000000119,,505959.6999999881,,505962.034,8,400,,,
break_continue,html.Screen,4_117_2,2023-05-01T22:19:27.617Z,,0,,,NaN,,,,,,false,,,,505959.89999997616,505959.89999997616,,505959.8000000119,,505962.034,8,400,,,
sequence,flow.Sequence,4_117,2023-05-01T22:19:27.617Z,,0,,,5465.7609999761335,completion,,,,,false,,,,505959.89999997616,505959.89999997616,500489.969,500493.39999997616,500494.139,505962.034,8,400,,,
trial,html.Screen,4_118_0,2023-05-01T22:19:35.759Z,,0,3,,8139.766000011936,response,ISIC_0009971.JPG,,ISIC_1962845.JPG,ISIC_1962845.JPG,false,0,keypress(z),500,514101.89999997616,514101.8000000119,505957.864,505959.89999997616,505962.034,514103.511,8,400,19,,ISIC_0009971.JPG
break,html.Screen,4_118_1,2023-05-01T22:19:35.759Z,,0,,,NaN,,,,,,false,,,,514102,514102,,514102,,514103.511,8,400,,,
break_continue,html.Screen,4_118_2,2023-05-01T22:19:35.760Z,,0,,,NaN,,,,,,false,,,,514102.1999999881,514102.1999999881,,514102.1999999881,,514103.511,8,400,,,
sequence,flow.Sequence,4_118,2023-05-01T22:19:35.760Z,,0,,,8140.165999988094,completion,,,,,false,,,,514102.1999999881,514102.1999999881,505957.864,505959.89999997616,505962.034,514103.511,8,400,,,
trial,html.Screen,4_119_0,2023-05-01T22:19:39.667Z,,0,3,,3906.3889999761595,response,ISIC_6945921.JPG,,ISIC_0057539.JPG,ISIC_0057539.JPG,false,0,keypress(z),500,518010.09999996424,518009.89999997616,514099.341,514102.1999999881,514103.511,518011.62,8,400,20,,ISIC_6945921.JPG
break,html.Screen,4_119_1,2023-05-01T22:19:39.668Z,,0,,,NaN,,,,,,false,,,,518010.3000000119,518010.3000000119,,518010.09999996424,,518011.62,8,400,,,
break_continue,html.Screen,4_119_2,2023-05-01T22:19:39.668Z,,0,,,NaN,,,,,,false,,,,518010.5,518010.39999997616,,518010.3000000119,,518011.62,8,400,,,
sequence,flow.Sequence,4_119,2023-05-01T22:19:39.668Z,,0,,,3906.8889999761595,completion,,,,,false,,,,518010.5,518010.39999997616,514099.341,514102.1999999881,514103.511,518011.62,8,400,,,
trial,html.Screen,4_120_0,2023-05-01T22:19:43.067Z,,0,3,,3397.6800000119256,response,ISIC_0010380.JPG,,ISIC_0922552.JPG,ISIC_0010380.JPG,false,1,keypress(m),500,521409.39999997616,521409.3000000119,518007.45,518010.5,518011.62,521410.997,8,400,21,,ISIC_0922552.JPG
break,html.Screen,4_120_1,2023-05-01T22:19:43.067Z,,0,,,NaN,,,,,,false,,,,521409.6999999881,521409.59999996424,,521409.5,,521410.997,8,400,,,
break_continue,html.Screen,4_120_2,2023-05-01T22:19:43.067Z,,0,,,NaN,,,,,,false,,,,521409.8000000119,521409.8000000119,,521409.6999999881,,521410.997,8,400,,,
sequence,flow.Sequence,4_120,2023-05-01T22:19:43.067Z,,0,,,3398.1800000119256,completion,,,,,false,,,,521409.89999997616,521409.8000000119,518007.45,518010.5,518011.62,521410.997,8,400,,,
trial,html.Screen,4_121_0,2023-05-01T22:19:48.305Z,,0,3,,5236.303000011947,response,ISIC_2070595.JPG,,ISIC_4345000.JPG,ISIC_4345000.JPG,false,0,keypress(z),500,526647.3999999762,526647.3000000119,521406.827,521409.89999997616,521410.997,526651.319,8,400,22,,ISIC_2070595.JPG
break,html.Screen,4_121_1,2023-05-01T22:19:48.305Z,,0,,,NaN,,,,,,false,,,,526647.6999999881,526647.6999999881,,526647.5,,526651.319,8,400,,,
break_continue,html.Screen,4_121_2,2023-05-01T22:19:48.305Z,,0,,,NaN,,,,,,false,,,,526647.8000000119,526647.8000000119,,526647.6999999881,,526651.319,8,400,,,
sequence,flow.Sequence,4_121,2023-05-01T22:19:48.305Z,,0,,,5236.803000011947,completion,,,,,false,,,,526647.8000000119,526647.8000000119,521406.827,521409.89999997616,521410.997,526651.319,8,400,,,
trial,html.Screen,4_122_0,2023-05-01T22:19:51.177Z,,0,3,,2867.8809999880614,response,ISIC_0026082.JPG,,ISIC_0031397.JPG,ISIC_0031397.JPG,false,0,keypress(z),500,529519.3999999762,529519.1999999881,526647.218,526648,526651.319,529523.444,8,400,23,,ISIC_0026082.JPG
break,html.Screen,4_122_1,2023-05-01T22:19:51.177Z,,0,,,NaN,,,,,,false,,,,529519.5999999642,529519.5,,529519.3999999762,,529523.444,8,400,,,
break_continue,html.Screen,4_122_2,2023-05-01T22:19:51.177Z,,0,,,NaN,,,,,,false,,,,529519.6999999881,529519.6999999881,,529519.5999999642,,529523.444,8,400,,,
sequence,flow.Sequence,4_122,2023-05-01T22:19:51.177Z,,0,,,2868.3809999880614,completion,,,,,false,,,,529519.6999999881,529519.6999999881,526647.218,526647.8999999762,526651.319,529523.444,8,400,,,
trial,html.Screen,4_123_0,2023-05-01T22:19:54.208Z,,0,3,,3027.5559999999823,response,ISIC_0032426.JPG,,ISIC_9917640.JPG,ISIC_0032426.JPG,false,1,keypress(m),500,532551.0999999642,532551,529519.055,529519.8000000119,529523.444,532555.61,8,400,24,,ISIC_9917640.JPG
break,html.Screen,4_123_1,2023-05-01T22:19:54.209Z,,0,,,NaN,,,,,,false,,,,532551.3999999762,532551.3999999762,,532551.1999999881,,532555.61,8,400,,,
break_continue,html.Screen,4_123_2,2023-05-01T22:19:54.209Z,,0,,,NaN,,,,,,false,,,,532551.5999999642,532551.5,,532551.5,,532555.61,8,400,,,
sequence,flow.Sequence,4_123,2023-05-01T22:19:54.209Z,,0,,,3028.0559999999823,completion,,,,,false,,,,532551.5999999642,532551.5,529519.055,529519.8000000119,529523.444,532555.61,8,400,,,
trial,html.Screen,4_124_0,2023-05-01T22:19:58.132Z,,0,3,,3918.789999976172,response,ISIC_0028366.JPG,,ISIC_0014114.JPG,ISIC_0028366.JPG,false,1,keypress(m),500,536474.5,536474.3999999762,532551.326,532551.5999999642,532555.61,536476.114,8,400,25,,ISIC_0014114.JPG
break,html.Screen,4_124_1,2023-05-01T22:19:58.132Z,,0,,,NaN,,,,,,false,,,,536474.8000000119,536474.8000000119,,536474.5999999642,,536476.114,8,400,,,
break_continue,html.Screen,4_124_2,2023-05-01T22:19:58.132Z,,0,,,NaN,,,,,,false,,,,536474.8999999762,536474.8999999762,,536474.8999999762,,536476.114,8,400,,,
sequence,flow.Sequence,4_124,2023-05-01T22:19:58.132Z,,0,,,3919.289999976172,completion,,,,,false,,,,536475,536474.8999999762,532551.326,532551.5999999642,532555.61,536476.114,8,400,,,
trial,html.Screen,4_125_0,2023-05-01T22:20:03.892Z,,0,3,,5758.886000000057,response,ISIC_1988335.JPG,,ISIC_5481211.JPG,ISIC_1988335.JPG,false,1,keypress(m),500,542235.0999999642,542235,536471.944,536475.0999999642,536476.114,542236.616,8,400,26,,ISIC_5481211.JPG
break,html.Screen,4_125_1,2023-05-01T22:20:03.893Z,,0,,,NaN,,,,,,false,,,,542235.3999999762,542235.3999999762,,542235.0999999642,,542236.616,8,400,,,
break_continue,html.Screen,4_125_2,2023-05-01T22:20:03.893Z,,0,,,NaN,,,,,,false,,,,542235.5,542235.3999999762,,542235.3999999762,,542236.616,8,400,,,
