sender,sender_type,sender_id,timestamp,meta,,blockNo,condition,duration,ended_on,img_left,img_reveal,img_right,loser,practice,response,response_action,selection_duration,time_commit,time_end,time_render,time_run,time_show,time_switch,total_blocks,total_trials,trialNo,url,winner
informed_consent,html.Screen,0,2023-09-17T20:45:13.962Z,"{""labjs_version"":""20.2.4"",""labjs_build"":{""flavor"":""production"",""commit"":""f5b4a49f956347addd546a832a3327688c2c0fef""},""location"":""https://run.pavlovia.org/MurrayBennett/melanoma-2afc/?participant=65886&platform=sona"",""userAgent"":""Mozilla/5.0 (Windows NT 10.0; Win64; x64) AppleWebKit/537.36 (KHTML, like Gecko) Chrome/116.0.0.0 Safari/537.36"",""platform"":""Win32"",""language"":""en-US"",""locale"":""en-US"",""timeZone"":""America/Chicago"",""timezoneOffset"":300,""screen_width"":2560,""screen_height"":1440,""scroll_width"":2560,""scroll_height"":1235,""window_innerWidth"":2560,""window_innerHeight"":1283,""devicePixelRatio"":1}",,,,1613.6319999970196,response,,,,,,consent,click button,,2093.8999999910593,2093.2999999970198,473.546,469,479.668,2103.843,,,,"{""participant"":""65886"",""platform"":""sona""}",
Welcome,html.Screen,1,2023-09-17T20:45:14.814Z,,,,regular,842.1570000000002,response,,,,,,continue,click button,,2946.7000000029802,2946,2097.799,2094.0999999940395,2103.843,2952.434,,,,,
trial,html.Screen,2_0_0,2023-09-17T20:45:19.830Z,,0,0,,5009.465999991059,response,ISIC_4679428.JPG,,ISIC_0061792.JPG,ISIC_4679428.JPG,true,1,keypress(m),500,7962.29999999702,7961.899999991059,2946.389,2946.8999999910593,2952.434,7964.802,1,6,1,,ISIC_0061792.JPG
sequence,flow.Sequence,2_0,2023-09-17T20:45:19.830Z,,0,,,5009.465999991059,completion,,,,,true,,,,7962.79999999702,7961.899999991059,2946.389,2946.8999999910593,2952.434,7964.802,1,6,,,
trial,html.Screen,2_1_0,2023-09-17T20:45:23.000Z,,0,0,,3167.5979999910596,response,ISIC_0776486.JPG,,ISIC_5199497.JPG,ISIC_0776486.JPG,true,1,keypress(m),500,11132.59999999404,11132.39999999106,7958.385,7963,7964.802,11134.301,1,6,2,,ISIC_5199497.JPG
sequence,flow.Sequence,2_1,2023-09-17T20:45:23.000Z,,0,,,3167.5979999910596,completion,,,,,true,,,,11132.59999999404,11132.39999999106,7958.385,7962.899999991059,7964.802,11134.301,1,6,,,
trial,html.Screen,2_2_0,2023-09-17T20:45:25.354Z,,0,0,,2351.6990000000005,response,ISIC_8575776.JPG,,ISIC_2556187.JPG,ISIC_2556187.JPG,true,0,keypress(z),500,13486,13486,11128.314,11132.79999999702,11134.301,13491.849,1,6,3,,ISIC_8575776.JPG
sequence,flow.Sequence,2_2,2023-09-17T20:45:25.354Z,,0,,,2351.6990000000005,completion,,,,,true,,,,13486.09999999404,13486,11128.314,11132.79999999702,11134.301,13491.849,1,6,,,
trial,html.Screen,2_3_0,2023-09-17T20:45:28.300Z,,0,0,,2939.85100000298,response,ISIC_9238366.JPG,,ISIC_8141769.JPG,ISIC_9238366.JPG,true,1,keypress(m),500,16431.89999999106,16431.70000000298,13485.784,13486.09999999404,13491.849,16437.313,1,6,4,,ISIC_8141769.JPG
sequence,flow.Sequence,2_3,2023-09-17T20:45:28.300Z,,0,,,2939.85100000298,completion,,,,,true,,,,16432.20000000298,16431.70000000298,13485.784,13486.09999999404,13491.849,16437.313,1,6,,,
trial,html.Screen,2_4_0,2023-09-17T20:45:31.283Z,,0,0,,2977.887000002982,response,ISIC_9959593.JPG,,ISIC_8949026.JPG,ISIC_9959593.JPG,true,1,keypress(m),500,19415.5,19415.20000000298,16431.279,16432.29999999702,16437.313,19419.2,1,6,5,,ISIC_8949026.JPG
sequence,flow.Sequence,2_4,2023-09-17T20:45:31.284Z,,0,,,2977.887000002982,completion,,,,,true,,,,19415.89999999106,19415.20000000298,16431.279,16432.20000000298,16437.313,19419.2,1,6,,,
trial,html.Screen,2_5_0,2023-09-17T20:45:33.721Z,,0,0,,2434.099999997019,response,ISIC_0010479.JPG,,ISIC_0460240.JPG,ISIC_0010479.JPG,true,1,keypress(m),500,21853.59999999404,21853.29999999702,19413.032,19416.09999999404,19419.2,21863.343,1,6,6,,ISIC_0460240.JPG
sequence,flow.Sequence,2_5,2023-09-17T20:45:33.722Z,,0,,,2434.099999997019,completion,,,,,true,,,,21853.89999999106,21853.29999999702,19413.032,19416,19419.2,21863.343,1,6,,,
loop,flow.Loop,2,2023-09-17T20:45:33.722Z,,,,,18900.86599999702,completion,,,,,true,,,,21854.20000000298,21853.29999999702,2946.389,2946.8999999910593,2952.434,21863.343,1,6,,,
exp_instructions,html.Screen,3,2023-09-17T20:50:55.072Z,,,,,321340.956999997,response,,,,,,continue,keypress(Space),,343204.799999997,343204.299999997,21849.366,21854.29999999702,21863.343,343210.938,,,,,
trial,html.Screen,4_0_0,2023-09-17T20:50:58.070Z,,0,1,,2991.361999996996,response,ISIC_5642824.JPG,5,ISIC_6577767.JPG,ISIC_5642824.JPG,false,1,keypress(m),500,346202.59999999404,346202.299999997,343204.738,343205,343210.938,346204.777,8,400,1,,ISIC_6577767.JPG
break,html.Screen,4_0_1,2023-09-17T20:50:58.071Z,,0,,,NaN,,,,,,false,,,,346203.59999999404,346203.200000003,,346202.799999997,,346204.777,8,400,,,
break_continue,html.Screen,4_0_2,2023-09-17T20:50:58.071Z,,0,,,NaN,,,,,,false,,,,346203.89999999106,346203.89999999106,,346203.799999997,,346204.777,8,400,,,
sequence,flow.Sequence,4_0,2023-09-17T20:50:58.071Z,,0,,,2992.9619999910356,completion,,,,,false,,,,346204,346203.89999999106,343204.738,343204.89999999106,343210.938,346204.777,8,400,,,
trial,html.Screen,4_1_0,2023-09-17T20:51:00.665Z,,0,1,,2592.6229999910574,response,ISIC_0026167.JPG,5,ISIC_7130929.JPG,ISIC_0026167.JPG,false,1,keypress(m),500,348797.700000003,348797.39999999106,346198.739,346204,346204.777,348806.765,8,400,2,,ISIC_7130929.JPG
break,html.Screen,4_1_1,2023-09-17T20:51:00.666Z,,0,,,NaN,,,,,,false,,,,348798.59999999404,348798.39999999106,,348798,,348806.765,8,400,,,
break_continue,html.Screen,4_1_2,2023-09-17T20:51:00.667Z,,0,,,NaN,,,,,,false,,,,348799.200000003,348798.799999997,,348798.700000003,,348806.765,8,400,,,
sequence,flow.Sequence,4_1,2023-09-17T20:51:00.667Z,,0,,,2594.022999997018,completion,,,,,false,,,,348799.39999999106,348798.799999997,346198.739,346204,346204.777,348806.765,8,400,,,
trial,html.Screen,4_2_0,2023-09-17T20:51:03.171Z,,0,1,,2496.234999999986,response,ISIC_1185006.JPG,5,ISIC_0013917.JPG,ISIC_1185006.JPG,false,1,keypress(m),500,351303.299999997,351303,348792.977,348799.59999999404,348806.765,351307.993,8,400,3,,ISIC_0013917.JPG
break,html.Screen,4_2_1,2023-09-17T20:51:03.172Z,,0,,,NaN,,,,,,false,,,,351304.59999999404,351304.200000003,,351303.59999999404,,351307.993,8,400,,,
break_continue,html.Screen,4_2_2,2023-09-17T20:51:03.173Z,,0,,,NaN,,,,,,false,,,,351305.299999997,351305.09999999404,,351304.89999999106,,351307.993,8,400,,,
sequence,flow.Sequence,4_2,2023-09-17T20:51:03.173Z,,0,,,2498.3349999940256,completion,,,,,false,,,,351305.5,351305.09999999404,348792.977,348799.5,348806.765,351307.993,8,400,,,
trial,html.Screen,4_3_0,2023-09-17T20:51:05.607Z,,0,1,,2431.5069999999832,response,ISIC_5688950.JPG,5,ISIC_0062099.JPG,ISIC_0062099.JPG,false,0,keypress(z),500,353739.799999997,353739.5,351298.479,351305.59999999404,351307.993,353744.248,8,400,4,,ISIC_5688950.JPG
break,html.Screen,4_3_1,2023-09-17T20:51:05.608Z,,0,,,NaN,,,,,,false,,,,353740.700000003,353740.39999999106,,353740,,353744.248,8,400,,,
break_continue,html.Screen,4_3_2,2023-09-17T20:51:05.609Z,,0,,,NaN,,,,,,false,,,,353741.200000003,353741.09999999404,,353740.89999999106,,353744.248,8,400,,,
sequence,flow.Sequence,4_3,2023-09-17T20:51:05.609Z,,0,,,2433.1069999940228,completion,,,,,false,,,,353741.39999999106,353741.09999999404,351298.479,351305.59999999404,351307.993,353744.248,8,400,,,
trial,html.Screen,4_4_0,2023-09-17T20:51:08.251Z,,0,1,,2639.2519999999786,response,ISIC_1008609.JPG,4,ISIC_0010581.JPG,ISIC_0010581.JPG,false,0,keypress(z),500,356383.799999997,356383.5,353738.094,353741.5,353744.248,356386.742,8,400,5,,ISIC_1008609.JPG
break,html.Screen,4_4_1,2023-09-17T20:51:08.252Z,,0,,,NaN,,,,,,false,,,,356384.799999997,356384.5,,356384,,356386.742,8,400,,,
break_continue,html.Screen,4_4_2,2023-09-17T20:51:08.253Z,,0,,,NaN,,,,,,false,,,,356385.59999999404,356385.200000003,,356385,,356386.742,8,400,,,
sequence,flow.Sequence,4_4,2023-09-17T20:51:08.253Z,,0,,,2640.952000002959,completion,,,,,false,,,,356385.799999997,356385.200000003,353738.094,353741.39999999106,353744.248,356386.742,8,400,,,
trial,html.Screen,4_5_0,2023-09-17T20:51:11.024Z,,0,1,,2769.2579999999725,response,ISIC_0028757.JPG,5,ISIC_0013213.JPG,ISIC_0028757.JPG,false,1,keypress(m),500,359156.200000003,359156,356380.501,356386,356386.742,359162.587,8,400,6,,ISIC_0013213.JPG
break,html.Screen,4_5_1,2023-09-17T20:51:11.024Z,,0,,,NaN,,,,,,false,,,,359156.59999999404,359156.59999999404,,359156.299999997,,359162.587,8,400,,,
break_continue,html.Screen,4_5_2,2023-09-17T20:51:11.024Z,,0,,,NaN,,,,,,false,,,,359157.09999999404,359157,,359156.89999999106,,359162.587,8,400,,,
sequence,flow.Sequence,4_5,2023-09-17T20:51:11.025Z,,0,,,2770.2579999999725,completion,,,,,false,,,,359157.200000003,359157,356380.501,356385.89999999106,356386.742,359162.587,8,400,,,
trial,html.Screen,4_6_0,2023-09-17T20:51:13.538Z,,0,1,,2507.9130000000005,response,ISIC_6920867.JPG,6,ISIC_3181358.JPG,ISIC_6920867.JPG,false,1,keypress(m),500,361670.799999997,361670.5,359156.288,359157.299999997,359162.587,361677.673,8,400,7,,ISIC_3181358.JPG
break,html.Screen,4_6_1,2023-09-17T20:51:13.540Z,,0,,,NaN,,,,,,false,,,,361672.09999999404,361671.700000003,,361671.09999999404,,361677.673,8,400,,,
break_continue,html.Screen,4_6_2,2023-09-17T20:51:13.540Z,,0,,,NaN,,,,,,false,,,,361672.799999997,361672.59999999404,,361672.39999999106,,361677.673,8,400,,,
sequence,flow.Sequence,4_6,2023-09-17T20:51:13.541Z,,0,,,2510.01299999404,completion,,,,,false,,,,361673.200000003,361672.59999999404,359156.288,359157.200000003,359162.587,361677.673,8,400,,,
trial,html.Screen,4_7_0,2023-09-17T20:51:16.144Z,,0,1,,2598.32699999999,response,ISIC_0027573.JPG,6,ISIC_0066033.JPG,ISIC_0066033.JPG,false,0,keypress(z),500,364276.200000003,364276,361665.857,361673.39999999106,361677.673,364285.373,8,400,8,,ISIC_0027573.JPG
break,html.Screen,4_7_1,2023-09-17T20:51:16.145Z,,0,,,NaN,,,,,,false,,,,364277.09999999404,364276.799999997,,364276.39999999106,,364285.373,8,400,,,
break_continue,html.Screen,4_7_2,2023-09-17T20:51:16.145Z,,0,,,NaN,,,,,,false,,,,364277.799999997,364277.5,,364277.299999997,,364285.373,8,400,,,
sequence,flow.Sequence,4_7,2023-09-17T20:51:16.146Z,,0,,,2599.82699999999,completion,,,,,false,,,,364278.200000003,364277.5,361665.857,361673.299999997,361677.673,364285.373,8,400,,,
trial,html.Screen,4_8_0,2023-09-17T20:51:18.868Z,,0,1,,2715.327000002959,response,ISIC_0063300.JPG,5,ISIC_1807276.JPG,ISIC_0063300.JPG,false,1,keypress(m),500,367000.799999997,367000.700000003,364271.621,364278.299999997,364285.373,367004.869,8,400,9,,ISIC_1807276.JPG
break,html.Screen,4_8_1,2023-09-17T20:51:18.869Z,,0,,,NaN,,,,,,false,,,,367001.09999999404,367000.89999999106,,367000.89999999106,,367004.869,8,400,,,
break_continue,html.Screen,4_8_2,2023-09-17T20:51:18.869Z,,0,,,NaN,,,,,,false,,,,367001.200000003,367001.09999999404,,367001.09999999404,,367004.869,8,400,,,
sequence,flow.Sequence,4_8,2023-09-17T20:51:18.869Z,,0,,,2715.726999994018,completion,,,,,false,,,,367001.200000003,367001.09999999404,364271.621,364278.299999997,364285.373,367004.869,8,400,,,
trial,html.Screen,4_9_0,2023-09-17T20:51:21.434Z,,0,1,,2561.0309999910532,response,ISIC_0027694.JPG,5,ISIC_0046741.JPG,ISIC_0027694.JPG,false,1,keypress(m),500,369566.200000003,369565.89999999106,366999.165,367001.200000003,367004.869,369568.686,8,400,10,,ISIC_0046741.JPG
break,html.Screen,4_9_1,2023-09-17T20:51:21.435Z,,0,,,NaN,,,,,,false,,,,369567.200000003,369566.700000003,,369566.39999999106,,369568.686,8,400,,,
break_continue,html.Screen,4_9_2,2023-09-17T20:51:21.435Z,,0,,,NaN,,,,,,false,,,,369567.59999999404,369567.5,,369567.39999999106,,369568.686,8,400,,,
sequence,flow.Sequence,4_9,2023-09-17T20:51:21.435Z,,0,,,2562.630999999994,completion,,,,,false,,,,369567.89999999106,369567.5,366999.165,367001.200000003,367004.869,369568.686,8,400,,,
trial,html.Screen,4_10_0,2023-09-17T20:51:23.950Z,,0,1,,2513.314000000013,response,ISIC_0013813.JPG,5,ISIC_2536779.JPG,ISIC_0013813.JPG,false,1,keypress(m),500,372082.200000003,372082,369562.441,369567.89999999106,369568.686,372091.658,8,400,11,,ISIC_2536779.JPG
break,html.Screen,4_10_1,2023-09-17T20:51:23.951Z,,0,,,NaN,,,,,,false,,,,372083.299999997,372082.89999999106,,372082.39999999106,,372091.658,8,400,,,
break_continue,html.Screen,4_10_2,2023-09-17T20:51:23.951Z,,0,,,NaN,,,,,,false,,,,372083.89999999106,372083.700000003,,372083.5,,372091.658,8,400,,,
sequence,flow.Sequence,4_10,2023-09-17T20:51:23.952Z,,0,,,2515.0140000029933,completion,,,,,false,,,,372084.09999999404,372083.700000003,369562.441,369567.89999999106,369568.686,372091.658,8,400,,,
trial,html.Screen,4_11_0,2023-09-17T20:51:26.513Z,,0,1,,2553.641999997024,response,ISIC_0070948.JPG,5,ISIC_8159718.JPG,ISIC_0070948.JPG,false,1,keypress(m),500,374645.700000003,374645.299999997,372078.115,372084.299999997,372091.658,374647.632,8,400,12,,ISIC_8159718.JPG
break,html.Screen,4_11_1,2023-09-17T20:51:26.514Z,,0,,,NaN,,,,,,false,,,,374646.799999997,374646.39999999106,,374645.89999999106,,374647.632,8,400,,,
break_continue,html.Screen,4_11_2,2023-09-17T20:51:26.515Z,,0,,,NaN,,,,,,false,,,,374647.299999997,374647.09999999404,,374646.89999999106,,374647.632,8,400,,,
sequence,flow.Sequence,4_11,2023-09-17T20:51:26.515Z,,0,,,2555.4419999940437,completion,,,,,false,,,,374647.39999999106,374647.09999999404,372078.115,372084.200000003,372091.658,374647.632,8,400,,,
trial,html.Screen,4_12_0,2023-09-17T20:51:29.125Z,,0,1,,2609.4679999940563,response,ISIC_0000240.JPG,5,ISIC_0015115.JPG,ISIC_0015115.JPG,false,0,keypress(z),500,377257.39999999106,377257.09999999404,374641.309,374647.700000003,374647.632,377259.576,8,400,13,,ISIC_0000240.JPG
break,html.Screen,4_12_1,2023-09-17T20:51:29.126Z,,0,,,NaN,,,,,,false,,,,377258.5,377258.200000003,,377257.59999999404,,377259.576,8,400,,,
break_continue,html.Screen,4_12_2,2023-09-17T20:51:29.126Z,,0,,,NaN,,,,,,false,,,,377259,377258.799999997,,377258.59999999404,,377259.576,8,400,,,
sequence,flow.Sequence,4_12,2023-09-17T20:51:29.127Z,,0,,,2611.1679999970365,completion,,,,,false,,,,377259.200000003,377258.799999997,374641.309,374647.59999999404,374647.632,377259.576,8,400,,,
trial,html.Screen,4_13_0,2023-09-17T20:51:31.593Z,,0,1,,2466.0239999940386,response,ISIC_2975580.JPG,5,ISIC_0475506.JPG,ISIC_2975580.JPG,false,1,keypress(m),500,379725.89999999106,379725.59999999404,377253.329,377259.299999997,377259.576,379732.295,8,400,14,,ISIC_0475506.JPG
break,html.Screen,4_13_1,2023-09-17T20:51:31.594Z,,0,,,NaN,,,,,,false,,,,379726.59999999404,379726.39999999106,,379726.09999999404,,379732.295,8,400,,,
break_continue,html.Screen,4_13_2,2023-09-17T20:51:31.595Z,,0,,,NaN,,,,,,false,,,,379727.299999997,379727.200000003,,379727,,379732.295,8,400,,,
sequence,flow.Sequence,4_13,2023-09-17T20:51:31.595Z,,0,,,2467.6240000029793,completion,,,,,false,,,,379727.59999999404,379727.200000003,377253.329,377259.299999997,377259.576,379732.295,8,400,,,
trial,html.Screen,4_14_0,2023-09-17T20:51:34.256Z,,0,1,,2656.6049999910756,response,ISIC_1110583.JPG,5,ISIC_4148086.JPG,ISIC_1110583.JPG,false,1,keypress(m),500,382389,382388.89999999106,379726.193,379727.799999997,379732.295,382392.967,8,400,15,,ISIC_4148086.JPG
break,html.Screen,4_14_1,2023-09-17T20:51:34.257Z,,0,,,NaN,,,,,,false,,,,382389.299999997,382389.299999997,,382389,,382392.967,8,400,,,
break_continue,html.Screen,4_14_2,2023-09-17T20:51:34.257Z,,0,,,NaN,,,,,,false,,,,382389.39999999106,382389.39999999106,,382389.39999999106,,382392.967,8,400,,,
sequence,flow.Sequence,4_14,2023-09-17T20:51:34.257Z,,0,,,2657.1049999910756,completion,,,,,false,,,,382389.5,382389.39999999106,379726.193,379727.799999997,379732.295,382392.967,8,400,,,
trial,html.Screen,4_15_0,2023-09-17T20:51:37.431Z,,0,1,,3170.8329999970156,response,ISIC_0025409.JPG,6,ISIC_1432058.JPG,ISIC_0025409.JPG,false,1,keypress(m),500,385564.09999999404,385563.799999997,382387.155,382389.59999999404,382392.967,385568.707,8,400,16,,ISIC_1432058.JPG
break,html.Screen,4_15_1,2023-09-17T20:51:37.433Z,,0,,,NaN,,,,,,false,,,,385565,385564.700000003,,385564.299999997,,385568.707,8,400,,,
break_continue,html.Screen,4_15_2,2023-09-17T20:51:37.433Z,,0,,,NaN,,,,,,false,,,,385565.5,385565.39999999106,,385565.299999997,,385568.707,8,400,,,
sequence,flow.Sequence,4_15,2023-09-17T20:51:37.433Z,,0,,,3172.432999991055,completion,,,,,false,,,,385565.700000003,385565.39999999106,382387.155,382389.5,382392.967,385568.707,8,400,,,
trial,html.Screen,4_16_0,2023-09-17T20:51:39.867Z,,0,1,,2430.6929999910644,response,ISIC_0009666.JPG,5,ISIC_0058998.JPG,ISIC_0058998.JPG,false,0,keypress(z),500,387999.700000003,387999.39999999106,385562.569,385565.799999997,385568.707,388005.513,8,400,17,,ISIC_0009666.JPG
break,html.Screen,4_16_1,2023-09-17T20:51:39.868Z,,0,,,NaN,,,,,,false,,,,388000.700000003,388000.5,,387999.89999999106,,388005.513,8,400,,,
break_continue,html.Screen,4_16_2,2023-09-17T20:51:39.869Z,,0,,,NaN,,,,,,false,,,,388001.200000003,388001,,388000.89999999106,,388005.513,8,400,,,
sequence,flow.Sequence,4_16,2023-09-17T20:51:39.869Z,,0,,,2432.293000000005,completion,,,,,false,,,,388001.299999997,388001,385562.569,385565.799999997,385568.707,388005.513,8,400,,,
trial,html.Screen,4_17_0,2023-09-17T20:51:42.383Z,,0,1,,2509.687000003003,response,ISIC_9560298.JPG,5,ISIC_0058823.JPG,ISIC_9560298.JPG,false,1,keypress(m),500,390515.39999999106,390515.200000003,387998.934,388001.39999999106,388005.513,390520.243,8,400,18,,ISIC_0058823.JPG
break,html.Screen,4_17_1,2023-09-17T20:51:42.384Z,,0,,,NaN,,,,,,false,,,,390516.299999997,390516.09999999404,,390515.700000003,,390520.243,8,400,,,
break_continue,html.Screen,4_17_2,2023-09-17T20:51:42.384Z,,0,,,NaN,,,,,,false,,,,390516.59999999404,390516.59999999404,,390516.5,,390520.243,8,400,,,
sequence,flow.Sequence,4_17,2023-09-17T20:51:42.384Z,,0,,,2511.0869999940624,completion,,,,,false,,,,390516.799999997,390516.59999999404,387998.934,388001.39999999106,388005.513,390520.243,8,400,,,
trial,html.Screen,4_18_0,2023-09-17T20:51:44.899Z,,0,1,,2510.7569999999832,response,ISIC_8483458.JPG,5,ISIC_1220154.JPG,ISIC_8483458.JPG,false,1,keypress(m),500,393031.299999997,393031,390513.971,390516.89999999106,390520.243,393041.466,8,400,19,,ISIC_1220154.JPG
break,html.Screen,4_18_1,2023-09-17T20:51:44.900Z,,0,,,NaN,,,,,,false,,,,393032.39999999106,393032.09999999404,,393031.59999999404,,393041.466,8,400,,,
break_continue,html.Screen,4_18_2,2023-09-17T20:51:44.900Z,,0,,,NaN,,,,,,false,,,,393033.09999999404,393032.799999997,,393032.5,,393041.466,8,400,,,
sequence,flow.Sequence,4_18,2023-09-17T20:51:44.901Z,,0,,,2512.556999997003,completion,,,,,false,,,,393033.200000003,393032.799999997,390513.971,390516.89999999106,390520.243,393041.466,8,400,,,
trial,html.Screen,4_19_0,2023-09-17T20:51:47.336Z,,0,1,,2426.533999999985,response,ISIC_0031005.JPG,5,ISIC_8699796.JPG,ISIC_0031005.JPG,false,1,keypress(m),500,395468.200000003,395468,393035.73,393033.39999999106,393041.466,395477.829,8,400,20,,ISIC_8699796.JPG
break,html.Screen,4_19_1,2023-09-17T20:51:47.337Z,,0,,,NaN,,,,,,false,,,,395469.09999999404,395468.89999999106,,395468.5,,395477.829,8,400,,,
break_continue,html.Screen,4_19_2,2023-09-17T20:51:47.337Z,,0,,,NaN,,,,,,false,,,,395469.59999999404,395469.39999999106,,395469.299999997,,395477.829,8,400,,,
sequence,flow.Sequence,4_19,2023-09-17T20:51:47.337Z,,0,,,2427.9339999910444,completion,,,,,false,,,,395469.799999997,395469.39999999106,393035.73,393033.299999997,393041.466,395477.829,8,400,,,
trial,html.Screen,4_20_0,2023-09-17T20:51:49.932Z,,0,1,,2586.0709999910323,response,ISIC_0013840.JPG,6,ISIC_0011267.JPG,ISIC_0013840.JPG,false,1,keypress(m),500,398064,398063.89999999106,395471.796,395469.89999999106,395477.829,398065.688,8,400,21,,ISIC_0011267.JPG
break,html.Screen,4_20_1,2023-09-17T20:51:49.932Z,,0,,,NaN,,,,,,false,,,,398064.5,398064.200000003,,398064.09999999404,,398065.688,8,400,,,
break_continue,html.Screen,4_20_2,2023-09-17T20:51:49.932Z,,0,,,NaN,,,,,,false,,,,398064.59999999404,398064.59999999404,,398064.59999999404,,398065.688,8,400,,,
sequence,flow.Sequence,4_20,2023-09-17T20:51:49.932Z,,0,,,2586.7709999940125,completion,,,,,false,,,,398064.799999997,398064.59999999404,395471.796,395469.799999997,395477.829,398065.688,8,400,,,
trial,html.Screen,4_21_0,2023-09-17T20:51:52.768Z,,0,1,,2834.2119999910356,response,ISIC_1018265.JPG,5,ISIC_5153848.JPG,ISIC_1018265.JPG,false,1,keypress(m),500,400900.200000003,400899.89999999106,398059.609,398064.799999997,398065.688,400902.132,8,400,22,,ISIC_5153848.JPG
break,html.Screen,4_21_1,2023-09-17T20:51:52.769Z,,0,,,NaN,,,,,,false,,,,400901.299999997,400900.89999999106,,400900.39999999106,,400902.132,8,400,,,
break_continue,html.Screen,4_21_2,2023-09-17T20:51:52.769Z,,0,,,NaN,,,,,,false,,,,400901.89999999106,400901.59999999404,,400901.5,,400902.132,8,400,,,
sequence,flow.Sequence,4_21,2023-09-17T20:51:52.770Z,,0,,,2835.911999994016,completion,,,,,false,,,,400902,400901.59999999404,398059.609,398064.799999997,398065.688,400902.132,8,400,,,
trial,html.Screen,4_22_0,2023-09-17T20:51:55.704Z,,0,1,,2933.767999991076,response,ISIC_5149162.JPG,6,ISIC_3610783.JPG,ISIC_3610783.JPG,false,0,keypress(z),500,403836.09999999404,403835.89999999106,400895.954,400902.09999999404,400902.132,403841.544,8,400,23,,ISIC_5149162.JPG
break,html.Screen,4_22_1,2023-09-17T20:51:55.705Z,,0,,,NaN,,,,,,false,,,,403837,403836.799999997,,403836.39999999106,,403841.544,8,400,,,
break_continue,html.Screen,4_22_2,2023-09-17T20:51:55.705Z,,0,,,NaN,,,,,,false,,,,403837.299999997,403837.200000003,,403837.09999999404,,403841.544,8,400,,,
sequence,flow.Sequence,4_22,2023-09-17T20:51:55.705Z,,0,,,2935.068000002997,completion,,,,,false,,,,403837.5,403837.200000003,400895.954,400902.09999999404,400902.132,403841.544,8,400,,,
trial,html.Screen,4_23_0,2023-09-17T20:51:58.701Z,,0,1,,2991.7559999970254,response,ISIC_0067427.JPG,5,ISIC_0070948.JPG,ISIC_0070948.JPG,false,0,keypress(z),500,406833.5,406833.299999997,403835.939,403837.700000003,403841.544,406835.469,8,400,24,,ISIC_0067427.JPG
break,html.Screen,4_23_1,2023-09-17T20:51:58.702Z,,0,,,NaN,,,,,,false,,,,406834.5,406834.200000003,,406833.89999999106,,406835.469,8,400,,,
break_continue,html.Screen,4_23_2,2023-09-17T20:51:58.703Z,,0,,,NaN,,,,,,false,,,,406835.09999999404,406834.89999999106,,406834.700000003,,406835.469,8,400,,,
sequence,flow.Sequence,4_23,2023-09-17T20:51:58.703Z,,0,,,2993.355999991065,completion,,,,,false,,,,406835.299999997,406834.89999999106,403835.939,403837.700000003,403841.544,406835.469,8,400,,,
trial,html.Screen,4_24_0,2023-09-17T20:52:01.234Z,,0,1,,2530.7310000029975,response,ISIC_0033589.JPG,4,ISIC_0030336.JPG,ISIC_0033589.JPG,false,1,keypress(m),500,409366.39999999106,409366.200000003,406829.33,406835.39999999106,406835.469,409368.838,8,400,25,,ISIC_0030336.JPG
break,html.Screen,4_24_1,2023-09-17T20:52:01.235Z,,0,,,NaN,,,,,,false,,,,409367.39999999106,409367.09999999404,,409366.700000003,,409368.838,8,400,,,
break_continue,html.Screen,4_24_2,2023-09-17T20:52:01.236Z,,0,,,NaN,,,,,,false,,,,409367.799999997,409367.700000003,,409367.59999999404,,409368.838,8,400,,,
sequence,flow.Sequence,4_24,2023-09-17T20:52:01.236Z,,0,,,2532.2310000029975,completion,,,,,false,,,,409368,409367.700000003,406829.33,406835.39999999106,406835.469,409368.838,8,400,,,
trial,html.Screen,4_25_0,2023-09-17T20:52:03.755Z,,0,1,,2518.0619999910705,response,ISIC_8330906.JPG,5,ISIC_0054974.JPG,ISIC_0054974.JPG,false,0,keypress(z),500,411887.200000003,411886.89999999106,409363.008,409368.200000003,409368.838,411890.054,8,400,26,,ISIC_8330906.JPG
break,html.Screen,4_25_1,2023-09-17T20:52:03.756Z,,0,,,NaN,,,,,,false,,,,411888.200000003,411887.799999997,,411887.39999999106,,411890.054,8,400,,,
break_continue,html.Screen,4_25_2,2023-09-17T20:52:03.756Z,,0,,,NaN,,,,,,false,,,,411888.799999997,411888.700000003,,411888.39999999106,,411890.054,8,400,,,
sequence,flow.Sequence,4_25,2023-09-17T20:52:03.757Z,,0,,,2519.8620000029914,completion,,,,,false,,,,411889,411888.700000003,409363.008,409368.200000003,409368.838,411890.054,8,400,,,
trial,html.Screen,4_26_0,2023-09-17T20:52:06.334Z,,0,1,,2576.045999994036,response,ISIC_0647224.JPG,5,ISIC_0010049.JPG,ISIC_0647224.JPG,false,1,keypress(m),500,414466.39999999106,414466.09999999404,411884.975,411889.09999999404,411890.054,414471.802,8,400,27,,ISIC_0010049.JPG
break,html.Screen,4_26_1,2023-09-17T20:52:06.335Z,,0,,,NaN,,,,,,false,,,,414466.89999999106,414466.799999997,,414466.5,,414471.802,8,400,,,
break_continue,html.Screen,4_26_2,2023-09-17T20:52:06.335Z,,0,,,NaN,,,,,,false,,,,414467.09999999404,414467.09999999404,,414467,,414471.802,8,400,,,
sequence,flow.Sequence,4_26,2023-09-17T20:52:06.335Z,,0,,,2577.045999994036,completion,,,,,false,,,,414467.299999997,414467.09999999404,411884.975,411889.09999999404,411890.054,414471.802,8,400,,,
trial,html.Screen,4_27_0,2023-09-17T20:52:08.849Z,,0,1,,2509.398000002955,response,ISIC_0271408.JPG,6,ISIC_1495182.JPG,ISIC_0271408.JPG,false,1,keypress(m),500,416981.5,416981.200000003,414465.688,414467.299999997,414471.802,416986.991,8,400,28,,ISIC_1495182.JPG
break,html.Screen,4_27_1,2023-09-17T20:52:08.850Z,,0,,,NaN,,,,,,false,,,,416982.200000003,416982,,416981.59999999404,,416986.991,8,400,,,
break_continue,html.Screen,4_27_2,2023-09-17T20:52:08.850Z,,0,,,NaN,,,,,,false,,,,416982.59999999404,416982.5,,416982.39999999106,,416986.991,8,400,,,
sequence,flow.Sequence,4_27,2023-09-17T20:52:08.850Z,,0,,,2510.697999999975,completion,,,,,false,,,,416982.700000003,416982.5,414465.688,414467.299999997,414471.802,416986.991,8,400,,,
trial,html.Screen,4_28_0,2023-09-17T20:52:13.061Z,,0,1,,4206.209000003,response,ISIC_0010267.JPG,5,ISIC_0031900.JPG,ISIC_0010267.JPG,false,1,keypress(m),500,421193.5,421193.200000003,416980.983,416982.799999997,416986.991,421199.155,8,400,29,,ISIC_0031900.JPG
break,html.Screen,4_28_1,2023-09-17T20:52:13.062Z,,0,,,NaN,,,,,,false,,,,421194.59999999404,421194.39999999106,,421194,,421199.155,8,400,,,
break_continue,html.Screen,4_28_2,2023-09-17T20:52:13.063Z,,0,,,NaN,,,,,,false,,,,421195.5,421195.09999999404,,421194.89999999106,,421199.155,8,400,,,
sequence,flow.Sequence,4_28,2023-09-17T20:52:13.063Z,,0,,,4208.10899999406,completion,,,,,false,,,,421195.799999997,421195.09999999404,416980.983,416982.799999997,416986.991,421199.155,8,400,,,
trial,html.Screen,4_29_0,2023-09-17T20:52:15.498Z,,0,1,,2430.7449999910314,response,ISIC_0067412.JPG,5,ISIC_0032762.JPG,ISIC_0067412.JPG,false,1,keypress(m),500,423630.200000003,423629.89999999106,421192.835,421196.09999999404,421199.155,423635.57,8,400,30,,ISIC_0032762.JPG
break,html.Screen,4_29_1,2023-09-17T20:52:15.499Z,,0,,,NaN,,,,,,false,,,,423631.09999999404,423630.799999997,,423630.39999999106,,423635.57,8,400,,,
break_continue,html.Screen,4_29_2,2023-09-17T20:52:15.499Z,,0,,,NaN,,,,,,false,,,,423631.5,423631.39999999106,,423631.200000003,,423635.57,8,400,,,
sequence,flow.Sequence,4_29,2023-09-17T20:52:15.499Z,,0,,,2432.2449999910314,completion,,,,,false,,,,423631.700000003,423631.39999999106,421192.835,421196,421199.155,423635.57,8,400,,,
trial,html.Screen,4_30_0,2023-09-17T20:52:17.901Z,,0,1,,2397.229999997013,response,ISIC_9935444.JPG,4,ISIC_0069986.JPG,ISIC_0069986.JPG,false,0,keypress(z),500,426033,426032.799999997,423629.52,423631.700000003,423635.57,426035.524,8,400,31,,ISIC_9935444.JPG
break,html.Screen,4_30_1,2023-09-17T20:52:17.901Z,,0,,,NaN,,,,,,false,,,,426033.39999999106,426033.299999997,,426033.09999999404,,426035.524,8,400,,,
break_continue,html.Screen,4_30_2,2023-09-17T20:52:17.901Z,,0,,,NaN,,,,,,false,,,,426033.59999999404,426033.59999999404,,426033.5,,426035.524,8,400,,,
sequence,flow.Sequence,4_30,2023-09-17T20:52:17.901Z,,0,,,2398.0299999940326,completion,,,,,false,,,,426033.799999997,426033.59999999404,423629.52,423631.700000003,423635.57,426035.524,8,400,,,
trial,html.Screen,4_31_0,2023-09-17T20:52:20.370Z,,0,1,,2466.275999997044,response,ISIC_0032721.JPG,5,ISIC_4148086.JPG,ISIC_0032721.JPG,false,1,keypress(m),500,428502.09999999404,428501.799999997,426029.423,426033.799999997,426035.524,428508.321,8,400,32,,ISIC_4148086.JPG
break,html.Screen,4_31_1,2023-09-17T20:52:20.371Z,,0,,,NaN,,,,,,false,,,,428503.299999997,428503,,428502.5,,428508.321,8,400,,,
break_continue,html.Screen,4_31_2,2023-09-17T20:52:20.371Z,,0,,,NaN,,,,,,false,,,,428503.89999999106,428503.700000003,,428503.59999999404,,428508.321,8,400,,,
sequence,flow.Sequence,4_31,2023-09-17T20:52:20.372Z,,0,,,2468.1760000030044,completion,,,,,false,,,,428504,428503.700000003,426029.423,426033.799999997,426035.524,428508.321,8,400,,,
trial,html.Screen,4_32_0,2023-09-17T20:52:22.806Z,,0,1,,2429.879000002984,response,ISIC_0027822.JPG,6,ISIC_5785408.JPG,ISIC_0027822.JPG,false,1,keypress(m),500,430938.5,430938.200000003,428502.545,428504.09999999404,428508.321,430944.708,8,400,33,,ISIC_5785408.JPG
break,html.Screen,4_32_1,2023-09-17T20:52:22.808Z,,0,,,NaN,,,,,,false,,,,430939.89999999106,430939.39999999106,,430938.89999999106,,430944.708,8,400,,,
break_continue,html.Screen,4_32_2,2023-09-17T20:52:22.808Z,,0,,,NaN,,,,,,false,,,,430940.59999999404,430940.39999999106,,430940.299999997,,430944.708,8,400,,,
sequence,flow.Sequence,4_32,2023-09-17T20:52:22.808Z,,0,,,2432.078999991063,completion,,,,,false,,,,430940.799999997,430940.39999999106,428502.545,428504.09999999404,428508.321,430944.708,8,400,,,
trial,html.Screen,4_33_0,2023-09-17T20:52:25.213Z,,0,1,,2399.8919999940554,response,ISIC_5813642.JPG,5,ISIC_0030860.JPG,ISIC_0030860.JPG,false,0,keypress(z),500,433344.89999999106,433344.59999999404,430938.606,430940.89999999106,430944.708,433350.686,8,400,34,,ISIC_5813642.JPG
break,html.Screen,4_33_1,2023-09-17T20:52:25.214Z,,0,,,NaN,,,,,,false,,,,433346,433345.59999999404,,433345.299999997,,433350.686,8,400,,,
break_continue,html.Screen,4_33_2,2023-09-17T20:52:25.214Z,,0,,,NaN,,,,,,false,,,,433346.59999999404,433346.5,,433346.200000003,,433350.686,8,400,,,
sequence,flow.Sequence,4_33,2023-09-17T20:52:25.214Z,,0,,,2401.792000000016,completion,,,,,false,,,,433346.799999997,433346.5,430938.606,430940.799999997,430944.708,433350.686,8,400,,,
trial,html.Screen,4_34_0,2023-09-17T20:52:28.005Z,,0,1,,2786.2139999910723,response,ISIC_0060222.JPG,5,ISIC_0046416.JPG,ISIC_0046416.JPG,false,0,keypress(z),500,436137.09999999404,436136.89999999106,433344.707,433346.89999999106,433350.686,436138.697,8,400,35,,ISIC_0060222.JPG
break,html.Screen,4_34_1,2023-09-17T20:52:28.005Z,,0,,,NaN,,,,,,false,,,,436137.59999999404,436137.5,,436137.299999997,,436138.697,8,400,,,
break_continue,html.Screen,4_34_2,2023-09-17T20:52:28.006Z,,0,,,NaN,,,,,,false,,,,436138.200000003,436138,,436137.799999997,,436138.697,8,400,,,
sequence,flow.Sequence,4_34,2023-09-17T20:52:28.006Z,,0,,,2787.314000000013,completion,,,,,false,,,,436138.299999997,436138,433344.707,433346.89999999106,433350.686,436138.697,8,400,,,
trial,html.Screen,4_35_0,2023-09-17T20:52:30.553Z,,0,1,,2546.0030000029947,response,ISIC_4432898.JPG,5,ISIC_0003201.JPG,ISIC_4432898.JPG,false,1,keypress(m),500,438685,438684.700000003,436132.666,436138.39999999106,436138.697,438690.138,8,400,36,,ISIC_0003201.JPG
break,html.Screen,4_35_1,2023-09-17T20:52:30.554Z,,0,,,NaN,,,,,,false,,,,438686,438685.799999997,,438685.200000003,,438690.138,8,400,,,
break_continue,html.Screen,4_35_2,2023-09-17T20:52:30.554Z,,0,,,NaN,,,,,,false,,,,438686.39999999106,438686.299999997,,438686.200000003,,438690.138,8,400,,,
sequence,flow.Sequence,4_35,2023-09-17T20:52:30.554Z,,0,,,2547.602999997034,completion,,,,,false,,,,438686.59999999404,438686.299999997,436132.666,436138.39999999106,436138.697,438690.138,8,400,,,
trial,html.Screen,4_36_0,2023-09-17T20:52:33.245Z,,0,1,,2686.562000003003,response,ISIC_6938608.JPG,5,ISIC_2487188.JPG,ISIC_6938608.JPG,false,1,keypress(m),500,441376.89999999106,441376.700000003,438684.203,438686.700000003,438690.138,441381.193,8,400,37,,ISIC_2487188.JPG
break,html.Screen,4_36_1,2023-09-17T20:52:33.246Z,,0,,,NaN,,,,,,false,,,,441378.09999999404,441377.799999997,,441377.200000003,,441381.193,8,400,,,
break_continue,html.Screen,4_36_2,2023-09-17T20:52:33.246Z,,0,,,NaN,,,,,,false,,,,441378.5,441378.39999999106,,441378.299999997,,441381.193,8,400,,,
sequence,flow.Sequence,4_36,2023-09-17T20:52:33.246Z,,0,,,2688.261999991082,completion,,,,,false,,,,441378.700000003,441378.39999999106,438684.203,438686.700000003,438690.138,441381.193,8,400,,,
trial,html.Screen,4_37_0,2023-09-17T20:52:35.616Z,,0,1,,2367.1069999969914,response,ISIC_0067467.JPG,5,ISIC_4074537.JPG,ISIC_0067467.JPG,false,1,keypress(m),500,443748.59999999404,443748.299999997,441374.853,441378.799999997,441381.193,443750.889,8,400,38,,ISIC_4074537.JPG
break,html.Screen,4_37_1,2023-09-17T20:52:35.617Z,,0,,,NaN,,,,,,false,,,,443749.700000003,443749.299999997,,443748.799999997,,443750.889,8,400,,,
break_continue,html.Screen,4_37_2,2023-09-17T20:52:35.618Z,,0,,,NaN,,,,,,false,,,,443750.09999999404,443750,,443749.799999997,,443750.889,8,400,,,
sequence,flow.Sequence,4_37,2023-09-17T20:52:35.618Z,,0,,,2368.8069999999716,completion,,,,,false,,,,443750.39999999106,443750,441374.853,441378.799999997,441381.193,443750.889,8,400,,,
trial,html.Screen,4_38_0,2023-09-17T20:52:38.088Z,,0,1,,2469.0109999910346,response,ISIC_1264725.JPG,5,ISIC_0027171.JPG,ISIC_0027171.JPG,false,0,keypress(z),500,446220.200000003,446219.89999999106,443745.358,443750.5,443750.889,446223.565,8,400,39,,ISIC_1264725.JPG
break,html.Screen,4_38_1,2023-09-17T20:52:38.089Z,,0,,,NaN,,,,,,false,,,,446221.200000003,446220.799999997,,446220.39999999106,,446223.565,8,400,,,
break_continue,html.Screen,4_38_2,2023-09-17T20:52:38.089Z,,0,,,NaN,,,,,,false,,,,446221.59999999404,446221.5,,446221.299999997,,446223.565,8,400,,,
sequence,flow.Sequence,4_38,2023-09-17T20:52:38.089Z,,0,,,2470.6109999999753,completion,,,,,false,,,,446221.799999997,446221.5,443745.358,443750.39999999106,443750.889,446223.565,8,400,,,
trial,html.Screen,4_39_0,2023-09-17T20:52:40.524Z,,0,1,,2432.4349999999977,response,ISIC_0033560.JPG,6,ISIC_0015938.JPG,ISIC_0033560.JPG,false,1,keypress(m),500,448656.39999999106,448656,446217.572,446222.09999999404,446223.565,448665.958,8,400,40,,ISIC_0015938.JPG
break,html.Screen,4_39_1,2023-09-17T20:52:40.525Z,,0,,,NaN,,,,,,false,,,,448657.09999999404,448656.89999999106,,448656.5,,448665.958,8,400,,,
break_continue,html.Screen,4_39_2,2023-09-17T20:52:40.525Z,,0,,,NaN,,,,,,false,,,,448657.39999999106,448657.39999999106,,448657.200000003,,448665.958,8,400,,,
sequence,flow.Sequence,4_39,2023-09-17T20:52:40.525Z,,0,,,2433.834999991057,completion,,,,,false,,,,448657.59999999404,448657.39999999106,446217.572,446221.89999999106,446223.565,448665.958,8,400,,,
trial,html.Screen,4_40_0,2023-09-17T20:52:42.916Z,,0,1,,2382.242000002996,response,ISIC_4678416.JPG,5,ISIC_9302863.JPG,ISIC_9302863.JPG,false,0,keypress(z),500,451048.59999999404,451048.200000003,448659.919,448657.700000003,448665.958,451054.009,8,400,41,,ISIC_4678416.JPG
break,html.Screen,4_40_1,2023-09-17T20:52:42.918Z,,0,,,NaN,,,,,,false,,,,451049.89999999106,451049.59999999404,,451048.89999999106,,451054.009,8,400,,,
break_continue,html.Screen,4_40_2,2023-09-17T20:52:42.918Z,,0,,,NaN,,,,,,false,,,,451050.299999997,451050.200000003,,451050.09999999404,,451054.009,8,400,,,
sequence,flow.Sequence,4_40,2023-09-17T20:52:42.918Z,,0,,,2384.242000002996,completion,,,,,false,,,,451050.39999999106,451050.200000003,448659.919,448657.700000003,448665.958,451054.009,8,400,,,
trial,html.Screen,4_41_0,2023-09-17T20:52:45.464Z,,0,1,,2542.49099999998,response,ISIC_0031965.JPG,5,ISIC_3688362.JPG,ISIC_0031965.JPG,false,1,keypress(m),500,453596.59999999404,453596.5,451047.699,451050.5,451054.009,453605.352,8,400,42,,ISIC_3688362.JPG
break,html.Screen,4_41_1,2023-09-17T20:52:45.464Z,,0,,,NaN,,,,,,false,,,,453596.799999997,453596.700000003,,453596.59999999404,,453605.352,8,400,,,
break_continue,html.Screen,4_41_2,2023-09-17T20:52:45.465Z,,0,,,NaN,,,,,,false,,,,453596.799999997,453596.799999997,,453596.799999997,,453605.352,8,400,,,
sequence,flow.Sequence,4_41,2023-09-17T20:52:45.465Z,,0,,,2542.7909999969997,completion,,,,,false,,,,453596.89999999106,453596.799999997,451047.699,451050.5,451054.009,453605.352,8,400,,,
trial,html.Screen,4_42_0,2023-09-17T20:52:48.474Z,,0,1,,3000.3480000029667,response,ISIC_0347984.JPG,5,ISIC_2087913.JPG,ISIC_2087913.JPG,false,0,keypress(z),500,456606,456605.700000003,453599.287,453596.89999999106,453605.352,456611.494,8,400,43,,ISIC_0347984.JPG
break,html.Screen,4_42_1,2023-09-17T20:52:48.475Z,,0,,,NaN,,,,,,false,,,,456607,456606.59999999404,,456606.200000003,,456611.494,8,400,,,
break_continue,html.Screen,4_42_2,2023-09-17T20:52:48.475Z,,0,,,NaN,,,,,,false,,,,456607.5,456607.299999997,,456607.200000003,,456611.494,8,400,,,
sequence,flow.Sequence,4_42,2023-09-17T20:52:48.475Z,,0,,,3001.9479999970063,completion,,,,,false,,,,456607.700000003,456607.299999997,453599.287,453596.89999999106,453605.352,456611.494,8,400,,,
trial,html.Screen,4_43_0,2023-09-17T20:52:50.895Z,,0,1,,2416.1059999940335,response,ISIC_0572205.JPG,6,ISIC_2147549.JPG,ISIC_0572205.JPG,false,1,keypress(m),500,459027.799999997,459027.59999999404,456605.303,456607.799999997,456611.494,459029.597,8,400,44,,ISIC_2147549.JPG
break,html.Screen,4_43_1,2023-09-17T20:52:50.896Z,,0,,,NaN,,,,,,false,,,,459028,459028,,459027.799999997,,459029.597,8,400,,,
break_continue,html.Screen,4_43_2,2023-09-17T20:52:50.896Z,,0,,,NaN,,,,,,false,,,,459028.299999997,459028.299999997,,459028.09999999404,,459029.597,8,400,,,
sequence,flow.Sequence,4_43,2023-09-17T20:52:50.896Z,,0,,,2416.8059999970137,completion,,,,,false,,,,459028.39999999106,459028.299999997,456605.303,456607.799999997,456611.494,459029.597,8,400,,,
trial,html.Screen,4_44_0,2023-09-17T20:52:53.282Z,,0,1,,2384.1030000029714,response,ISIC_0033950.JPG,5,ISIC_5785408.JPG,ISIC_0033950.JPG,false,1,keypress(m),500,461414,461413.700000003,459023.817,459028.39999999106,459029.597,461417.617,8,400,45,,ISIC_5785408.JPG
break,html.Screen,4_44_1,2023-09-17T20:52:53.283Z,,0,,,NaN,,,,,,false,,,,461415,461414.700000003,,461414.299999997,,461417.617,8,400,,,
break_continue,html.Screen,4_44_2,2023-09-17T20:52:53.283Z,,0,,,NaN,,,,,,false,,,,461415.39999999106,461415.299999997,,461415.09999999404,,461417.617,8,400,,,
sequence,flow.Sequence,4_44,2023-09-17T20:52:53.283Z,,0,,,2385.702999997011,completion,,,,,false,,,,461415.59999999404,461415.299999997,459023.817,459028.39999999106,459029.597,461417.617,8,400,,,
trial,html.Screen,4_45_0,2023-09-17T20:52:55.912Z,,0,1,,2626.3829999999725,response,ISIC_0010644.JPG,5,ISIC_0504165.JPG,ISIC_0504165.JPG,false,0,keypress(z),500,464044.200000003,464044,461411.297,461415.700000003,461417.617,464047.851,8,400,46,,ISIC_0010644.JPG
break,html.Screen,4_45_1,2023-09-17T20:52:55.912Z,,0,,,NaN,,,,,,false,,,,464044.5,464044.299999997,,464044.200000003,,464047.851,8,400,,,
break_continue,html.Screen,4_45_2,2023-09-17T20:52:55.912Z,,0,,,NaN,,,,,,false,,,,464044.5,464044.5,,464044.5,,464047.851,8,400,,,
sequence,flow.Sequence,4_45,2023-09-17T20:52:55.912Z,,0,,,2626.8829999999725,completion,,,,,false,,,,464044.5,464044.5,461411.297,461415.59999999404,461417.617,464047.851,8,400,,,
trial,html.Screen,4_46_0,2023-09-17T20:52:58.314Z,,0,1,,2397.9489999969956,response,ISIC_0015180.JPG,6,ISIC_0071754.JPG,ISIC_0015180.JPG,false,1,keypress(m),500,466446.09999999404,466445.799999997,464041.785,464044.59999999404,464047.851,466447.929,8,400,47,,ISIC_0071754.JPG
break,html.Screen,4_46_1,2023-09-17T20:52:58.315Z,,0,,,NaN,,,,,,false,,,,466446.89999999106,466446.700000003,,466446.39999999106,,466447.929,8,400,,,
break_continue,html.Screen,4_46_2,2023-09-17T20:52:58.315Z,,0,,,NaN,,,,,,false,,,,466447.200000003,466447.09999999404,,466447,,466447.929,8,400,,,
sequence,flow.Sequence,4_46,2023-09-17T20:52:58.315Z,,0,,,2399.2489999940153,completion,,,,,false,,,,466447.39999999106,466447.09999999404,464041.785,464044.59999999404,464047.851,466447.929,8,400,,,
trial,html.Screen,4_47_0,2023-09-17T20:53:00.925Z,,0,1,,2609.0709999999963,response,ISIC_7171090.JPG,5,ISIC_8622204.JPG,ISIC_7171090.JPG,false,1,keypress(m),500,469057.299999997,469057,466441.816,466447.5,466447.929,469060.065,8,400,48,,ISIC_8622204.JPG
break,html.Screen,4_47_1,2023-09-17T20:53:00.926Z,,0,,,NaN,,,,,,false,,,,469058.5,469057.89999999106,,469057.59999999404,,469060.065,8,400,,,
break_continue,html.Screen,4_47_2,2023-09-17T20:53:00.927Z,,0,,,NaN,,,,,,false,,,,469058.89999999106,469058.799999997,,469058.700000003,,469060.065,8,400,,,
sequence,flow.Sequence,4_47,2023-09-17T20:53:00.927Z,,0,,,2610.870999997016,completion,,,,,false,,,,469059.09999999404,469058.799999997,466441.816,466447.39999999106,466447.929,469060.065,8,400,,,
trial,html.Screen,4_48_0,2023-09-17T20:53:03.335Z,,0,1,,2406.834999991057,response,ISIC_0068837.JPG,5,ISIC_3123711.JPG,ISIC_0068837.JPG,false,1,keypress(m),500,471467.09999999404,471466.89999999106,469054.003,469059.299999997,469060.065,471472.127,8,400,49,,ISIC_3123711.JPG
break,html.Screen,4_48_1,2023-09-17T20:53:03.335Z,,0,,,NaN,,,,,,false,,,,471467.39999999106,471467.299999997,,471467.200000003,,471472.127,8,400,,,
break_continue,html.Screen,4_48_2,2023-09-17T20:53:03.335Z,,0,,,NaN,,,,,,false,,,,471467.5,471467.39999999106,,471467.39999999106,,471472.127,8,400,,,
sequence,flow.Sequence,4_48,2023-09-17T20:53:03.335Z,,0,,,2407.334999991057,completion,,,,,false,,,,471467.59999999404,471467.39999999106,469054.003,469059.200000003,469060.065,471472.127,8,400,,,
trial,html.Screen,4_49_0,2023-09-17T20:53:06.025Z,,0,1,,2684.472999994061,response,ISIC_1681964.JPG,6,ISIC_1293743.JPG,ISIC_1293743.JPG,false,0,keypress(z),500,474156.799999997,474156.59999999404,471466.212,471467.59999999404,471472.127,474163.038,8,400,50,,ISIC_1681964.JPG
break,html.Screen,4_49_1,2023-09-17T20:53:16.025Z,,0,,,10000.110999999975,timeout,,,,,false,,,,484157.5,484157.055,474157.021,474157,474163.038,484163.149,8,400,,,
break_continue,html.Screen,4_49_2,2023-09-17T20:53:16.766Z,,0,,,731.150999997044,response,,,,,false,continue,keypress(Space),,484898.39999999106,484894.299999997,484157.055,484157.59999999404,484163.149,484902.484,8,400,,,
sequence,flow.Sequence,4_49,2023-09-17T20:53:16.766Z,,0,,,13422.172999997041,completion,,,,,false,,,,484898.5,484894.299999997,471466.212,471467.59999999404,471472.127,484902.484,8,400,,,
trial,html.Screen,4_50_0,2023-09-17T20:53:19.296Z,,0,2,,2525.7160000029835,response,ISIC_0653706.JPG,5,ISIC_0061479.JPG,ISIC_0061479.JPG,false,0,keypress(z),500,487428.299999997,487428.200000003,484896.289,484898.5,484902.484,487429.804,8,400,1,,ISIC_0653706.JPG
break,html.Screen,4_50_1,2023-09-17T20:53:19.296Z,,0,,,NaN,,,,,,false,,,,487428.5,487428.5,,487428.39999999106,,487429.804,8,400,,,
break_continue,html.Screen,4_50_2,2023-09-17T20:53:19.297Z,,0,,,NaN,,,,,,false,,,,487429.200000003,487429.200000003,,487428.89999999106,,487429.804,8,400,,,
sequence,flow.Sequence,4_50,2023-09-17T20:53:19.297Z,,0,,,2526.7160000029835,completion,,,,,false,,,,487429.299999997,487429.200000003,484896.289,484898.5,484902.484,487429.804,8,400,,,
trial,html.Screen,4_51_0,2023-09-17T20:53:21.794Z,,0,2,,2496.3960000029765,response,ISIC_0061475.JPG,6,ISIC_5483119.JPG,ISIC_0061475.JPG,false,1,keypress(m),500,489926.39999999106,489926.200000003,487423.755,487429.39999999106,487429.804,489932.841,8,400,2,,ISIC_5483119.JPG
break,html.Screen,4_51_1,2023-09-17T20:53:21.795Z,,0,,,NaN,,,,,,false,,,,489927.39999999106,489926.89999999106,,489926.59999999404,,489932.841,8,400,,,
break_continue,html.Screen,4_51_2,2023-09-17T20:53:21.796Z,,0,,,NaN,,,,,,false,,,,489927.799999997,489927.700000003,,489927.59999999404,,489932.841,8,400,,,
sequence,flow.Sequence,4_51,2023-09-17T20:53:21.796Z,,0,,,2497.8960000029765,completion,,,,,false,,,,489928,489927.700000003,487423.755,487429.39999999106,487429.804,489932.841,8,400,,,
trial,html.Screen,4_52_0,2023-09-17T20:53:24.662Z,,0,2,,2861.3590000029653,response,ISIC_0067326.JPG,5,ISIC_0024226.JPG,ISIC_0067326.JPG,false,1,keypress(m),500,492794.5,492794.200000003,489921.907,489928.09999999404,489932.841,492799.651,8,400,3,,ISIC_0024226.JPG
break,html.Screen,4_52_1,2023-09-17T20:53:24.663Z,,0,,,NaN,,,,,,false,,,,492795.59999999404,492795.200000003,,492794.89999999106,,492799.651,8,400,,,
break_continue,html.Screen,4_52_2,2023-09-17T20:53:24.664Z,,0,,,NaN,,,,,,false,,,,492796,492795.89999999106,,492795.799999997,,492799.651,8,400,,,
sequence,flow.Sequence,4_52,2023-09-17T20:53:24.664Z,,0,,,2863.0589999910444,completion,,,,,false,,,,492796.299999997,492795.89999999106,489921.907,489928.09999999404,489932.841,492799.651,8,400,,,
trial,html.Screen,4_53_0,2023-09-17T20:53:27.213Z,,0,2,,2544.948999994027,response,ISIC_0029672.JPG,4,ISIC_2232883.JPG,ISIC_2232883.JPG,false,0,keypress(z),500,495345,495344.59999999404,492793.502,492796.39999999106,492799.651,495351.158,8,400,4,,ISIC_0029672.JPG
break,html.Screen,4_53_1,2023-09-17T20:53:27.214Z,,0,,,NaN,,,,,,false,,,,495346,495345.700000003,,495345.299999997,,495351.158,8,400,,,
break_continue,html.Screen,4_53_2,2023-09-17T20:53:27.214Z,,0,,,NaN,,,,,,false,,,,495346.59999999404,495346.39999999106,,495346.09999999404,,495351.158,8,400,,,
sequence,flow.Sequence,4_53,2023-09-17T20:53:27.215Z,,0,,,2546.7489999910467,completion,,,,,false,,,,495346.799999997,495346.39999999106,492793.502,492796.299999997,492799.651,495351.158,8,400,,,
trial,html.Screen,4_54_0,2023-09-17T20:53:29.682Z,,0,2,,2463.0420000029844,response,ISIC_0046441.JPG,5,ISIC_0066678.JPG,ISIC_0046441.JPG,false,1,keypress(m),500,497814.39999999106,497814.200000003,495344.933,495347,495351.158,497817.828,8,400,5,,ISIC_0066678.JPG
break,html.Screen,4_54_1,2023-09-17T20:53:29.683Z,,0,,,NaN,,,,,,false,,,,497815.200000003,497814.89999999106,,497814.5,,497817.828,8,400,,,
break_continue,html.Screen,4_54_2,2023-09-17T20:53:29.683Z,,0,,,NaN,,,,,,false,,,,497815.39999999106,497815.39999999106,,497815.200000003,,497817.828,8,400,,,
sequence,flow.Sequence,4_54,2023-09-17T20:53:29.683Z,,0,,,2464.2419999910635,completion,,,,,false,,,,497815.5,497815.39999999106,495344.933,495346.89999999106,495351.158,497817.828,8,400,,,
trial,html.Screen,4_55_0,2023-09-17T20:53:32.469Z,,0,2,,2783.27199999406,response,ISIC_9660528.JPG,5,ISIC_0034243.JPG,ISIC_0034243.JPG,false,0,keypress(z),500,500601.299999997,500601.09999999404,497811.631,497815.59999999404,497817.828,500605.666,8,400,6,,ISIC_9660528.JPG
break,html.Screen,4_55_1,2023-09-17T20:53:32.470Z,,0,,,NaN,,,,,,false,,,,500602,500601.700000003,,500601.39999999106,,500605.666,8,400,,,
break_continue,html.Screen,4_55_2,2023-09-17T20:53:32.470Z,,0,,,NaN,,,,,,false,,,,500602.299999997,500602.200000003,,500602.09999999404,,500605.666,8,400,,,
sequence,flow.Sequence,4_55,2023-09-17T20:53:32.470Z,,0,,,2784.3720000030007,completion,,,,,false,,,,500602.5,500602.200000003,497811.631,497815.5,497817.828,500605.666,8,400,,,
trial,html.Screen,4_56_0,2023-09-17T20:53:35.180Z,,0,2,,2706.0340000029537,response,ISIC_0001480.JPG,5,ISIC_7518798.JPG,ISIC_7518798.JPG,false,0,keypress(z),500,503311.89999999106,503311.700000003,500599.519,500602.59999999404,500605.666,503314.902,8,400,7,,ISIC_0001480.JPG
break,html.Screen,4_56_1,2023-09-17T20:53:35.181Z,,0,,,NaN,,,,,,false,,,,503313,503312.700000003,,503312.200000003,,503314.902,8,400,,,
break_continue,html.Screen,4_56_2,2023-09-17T20:53:35.181Z,,0,,,NaN,,,,,,false,,,,503313.5,503313.299999997,,503313.09999999404,,503314.902,8,400,,,
sequence,flow.Sequence,4_56,2023-09-17T20:53:35.182Z,,0,,,2707.633999996993,completion,,,,,false,,,,503313.799999997,503313.299999997,500599.519,500602.5,500605.666,503314.902,8,400,,,
trial,html.Screen,4_57_0,2023-09-17T20:53:37.904Z,,0,2,,2721.097999999998,response,ISIC_8794567.JPG,5,ISIC_0033893.JPG,ISIC_0033893.JPG,false,0,keypress(z),500,506036.299999997,506036,503309.454,503314,503314.902,506042.059,8,400,8,,ISIC_8794567.JPG
break,html.Screen,4_57_1,2023-09-17T20:53:37.905Z,,0,,,NaN,,,,,,false,,,,506037.39999999106,506037.09999999404,,506036.5,,506042.059,8,400,,,
break_continue,html.Screen,4_57_2,2023-09-17T20:53:37.906Z,,0,,,NaN,,,,,,false,,,,506038,506037.799999997,,506037.59999999404,,506042.059,8,400,,,
sequence,flow.Sequence,4_57,2023-09-17T20:53:37.906Z,,0,,,2722.897999997018,completion,,,,,false,,,,506038.200000003,506037.799999997,503309.454,503314,503314.902,506042.059,8,400,,,
trial,html.Screen,4_58_0,2023-09-17T20:53:40.388Z,,0,2,,2478.2409999970114,response,ISIC_0952221.JPG,5,ISIC_0028930.JPG,ISIC_0028930.JPG,false,0,keypress(z),500,508520.700000003,508520.299999997,506035.842,506038.200000003,506042.059,508526.91,8,400,9,,ISIC_0952221.JPG
break,html.Screen,4_58_1,2023-09-17T20:53:40.389Z,,0,,,NaN,,,,,,false,,,,508521.5,508521.299999997,,508521,,508526.91,8,400,,,
break_continue,html.Screen,4_58_2,2023-09-17T20:53:40.390Z,,0,,,NaN,,,,,,false,,,,508522,508521.89999999106,,508521.700000003,,508526.91,8,400,,,
sequence,flow.Sequence,4_58,2023-09-17T20:53:40.390Z,,0,,,2479.840999991051,completion,,,,,false,,,,508522.299999997,508521.89999999106,506035.842,506038.200000003,506042.059,508526.91,8,400,,,
trial,html.Screen,4_59_0,2023-09-17T20:53:42.824Z,,0,2,,2428.8899999970454,response,ISIC_0013342.JPG,4,ISIC_0014926.JPG,ISIC_0014926.JPG,false,0,keypress(z),500,510956.09999999404,510955.799999997,508520.944,508522.5,508526.91,510965.111,8,400,10,,ISIC_0013342.JPG
break,html.Screen,4_59_1,2023-09-17T20:53:42.825Z,,0,,,NaN,,,,,,false,,,,510956.89999999106,510956.59999999404,,510956.299999997,,510965.111,8,400,,,
break_continue,html.Screen,4_59_2,2023-09-17T20:53:42.825Z,,0,,,NaN,,,,,,false,,,,510957.59999999404,510957.299999997,,510957.200000003,,510965.111,8,400,,,
sequence,flow.Sequence,4_59,2023-09-17T20:53:42.826Z,,0,,,2430.3899999970454,completion,,,,,false,,,,510957.799999997,510957.299999997,508520.944,508522.39999999106,508526.91,510965.111,8,400,,,
trial,html.Screen,4_60_0,2023-09-17T20:53:45.195Z,,0,2,,2361.8890000000247,response,ISIC_0062158.JPG,5,ISIC_5108076.JPG,ISIC_0062158.JPG,false,1,keypress(m),500,513327.299999997,513327,510951.121,510958,510965.111,513333.003,8,400,11,,ISIC_5108076.JPG
break,html.Screen,4_60_1,2023-09-17T20:53:45.196Z,,0,,,NaN,,,,,,false,,,,513328.200000003,513327.89999999106,,513327.59999999404,,513333.003,8,400,,,
break_continue,html.Screen,4_60_2,2023-09-17T20:53:45.196Z,,0,,,NaN,,,,,,false,,,,513328.700000003,513328.59999999404,,513328.39999999106,,513333.003,8,400,,,
sequence,flow.Sequence,4_60,2023-09-17T20:53:45.197Z,,0,,,2363.488999994064,completion,,,,,false,,,,513329,513328.59999999404,510951.121,510958,510965.111,513333.003,8,400,,,
trial,html.Screen,4_61_0,2023-09-17T20:53:47.712Z,,0,2,,2510.5969999940135,response,ISIC_4957315.JPG,5,ISIC_0028226.JPG,ISIC_4957315.JPG,false,1,keypress(m),500,515843.799999997,515843.59999999404,513326.959,513329.09999999404,513333.003,515848.208,8,400,12,,ISIC_0028226.JPG
break,html.Screen,4_61_1,2023-09-17T20:53:47.712Z,,0,,,NaN,,,,,,false,,,,515844.39999999106,515844.299999997,,515844,,515848.208,8,400,,,
break_continue,html.Screen,4_61_2,2023-09-17T20:53:47.712Z,,0,,,NaN,,,,,,false,,,,515844.799999997,515844.59999999404,,515844.5,,515848.208,8,400,,,
sequence,flow.Sequence,4_61,2023-09-17T20:53:47.713Z,,0,,,2511.5969999940135,completion,,,,,false,,,,515844.799999997,515844.59999999404,513326.959,513329,513333.003,515848.208,8,400,,,
trial,html.Screen,4_62_0,2023-09-17T20:53:50.187Z,,0,2,,2470.5919999970356,response,ISIC_0063745.JPG,5,ISIC_1996356.JPG,ISIC_1996356.JPG,false,0,keypress(z),500,518319.09999999404,518318.799999997,515842.084,515845,515848.208,518320.926,8,400,13,,ISIC_0063745.JPG
break,html.Screen,4_62_1,2023-09-17T20:53:50.188Z,,0,,,NaN,,,,,,false,,,,518320.200000003,518319.700000003,,518319.39999999106,,518320.926,8,400,,,
break_continue,html.Screen,4_62_2,2023-09-17T20:53:50.188Z,,0,,,NaN,,,,,,false,,,,518320.700000003,518320.5,,518320.39999999106,,518320.926,8,400,,,
sequence,flow.Sequence,4_62,2023-09-17T20:53:50.189Z,,0,,,2472.292000000016,completion,,,,,false,,,,518321,518320.5,515842.084,515845,515848.208,518320.926,8,400,,,
trial,html.Screen,4_63_0,2023-09-17T20:53:52.782Z,,0,2,,2593.4739999910817,response,ISIC_9684649.JPG,5,ISIC_0054523.JPG,ISIC_0054523.JPG,false,0,keypress(z),500,520914.5,520914.39999999106,518314.808,518321.299999997,518320.926,520920.971,8,400,14,,ISIC_9684649.JPG
break,html.Screen,4_63_1,2023-09-17T20:53:52.782Z,,0,,,NaN,,,,,,false,,,,520914.700000003,520914.700000003,,520914.59999999404,,520920.971,8,400,,,
break_continue,html.Screen,4_63_2,2023-09-17T20:53:52.783Z,,0,,,NaN,,,,,,false,,,,520914.799999997,520914.799999997,,520914.799999997,,520920.971,8,400,,,
sequence,flow.Sequence,4_63,2023-09-17T20:53:52.783Z,,0,,,2593.873999997042,completion,,,,,false,,,,520914.799999997,520914.799999997,518314.808,518321.299999997,518320.926,520920.971,8,400,,,
trial,html.Screen,4_64_0,2023-09-17T20:53:55.363Z,,0,2,,2573.7290000029607,response,ISIC_4553633.JPG,5,ISIC_7168122.JPG,ISIC_7168122.JPG,false,0,keypress(z),500,523495,523494.700000003,520914.912,520914.799999997,520920.971,523505.141,8,400,15,,ISIC_4553633.JPG
break,html.Screen,4_64_1,2023-09-17T20:53:55.364Z,,0,,,NaN,,,,,,false,,,,523496.09999999404,523495.59999999404,,523495.299999997,,523505.141,8,400,,,
break_continue,html.Screen,4_64_2,2023-09-17T20:53:55.364Z,,0,,,NaN,,,,,,false,,,,523496.700000003,523496.59999999404,,523496.299999997,,523505.141,8,400,,,
sequence,flow.Sequence,4_64,2023-09-17T20:53:55.365Z,,0,,,2575.62899999402,completion,,,,,false,,,,523497,523496.59999999404,520914.912,520914.799999997,520920.971,523505.141,8,400,,,
trial,html.Screen,4_65_0,2023-09-17T20:53:59.015Z,,0,2,,3641.4589999940363,response,ISIC_1654342.JPG,5,ISIC_0010852.JPG,ISIC_0010852.JPG,false,0,keypress(z),500,527146.799999997,527146.599999994,523490.938,523497.09999999404,523505.141,527151.254,8,400,16,,ISIC_1654342.JPG
break,html.Screen,4_65_1,2023-09-17T20:53:59.015Z,,0,,,NaN,,,,,,false,,,,527147.700000003,527147.3999999911,,527147.099999994,,527151.254,8,400,,,
break_continue,html.Screen,4_65_2,2023-09-17T20:53:59.016Z,,0,,,NaN,,,,,,false,,,,527148,527147.8999999911,,527147.799999997,,527151.254,8,400,,,
sequence,flow.Sequence,4_65,2023-09-17T20:53:59.016Z,,0,,,3642.758999991056,completion,,,,,false,,,,527148.099999994,527147.8999999911,523490.938,523497.09999999404,523505.141,527151.254,8,400,,,
trial,html.Screen,4_66_0,2023-09-17T20:54:01.482Z,,0,2,,2463.145999991102,response,ISIC_3965872.JPG,5,ISIC_0013674.JPG,ISIC_0013674.JPG,false,0,keypress(z),500,529614.700000003,529614.3999999911,527145.043,527148.299999997,527151.254,529617.972,8,400,17,,ISIC_3965872.JPG
break,html.Screen,4_66_1,2023-09-17T20:54:01.483Z,,0,,,NaN,,,,,,false,,,,529615.5,529615.299999997,,529615,,529617.972,8,400,,,
break_continue,html.Screen,4_66_2,2023-09-17T20:54:01.484Z,,0,,,NaN,,,,,,false,,,,529615.799999997,529615.799999997,,529615.599999994,,529617.972,8,400,,,
sequence,flow.Sequence,4_66,2023-09-17T20:54:01.484Z,,0,,,2464.5459999970626,completion,,,,,false,,,,529616.099999994,529615.799999997,527145.043,527148.299999997,527151.254,529617.972,8,400,,,
trial,html.Screen,4_67_0,2023-09-17T20:54:04.382Z,,0,2,,2896.5280000000494,response,ISIC_8711854.JPG,5,ISIC_0012047.JPG,ISIC_0012047.JPG,false,0,keypress(z),500,532514.700000003,532514.5,529611.781,529616.200000003,529617.972,532521.028,8,400,18,,ISIC_8711854.JPG
break,html.Screen,4_67_1,2023-09-17T20:54:04.383Z,,0,,,NaN,,,,,,false,,,,532515.700000003,532515.299999997,,532515,,532521.028,8,400,,,
break_continue,html.Screen,4_67_2,2023-09-17T20:54:04.384Z,,0,,,NaN,,,,,,false,,,,532516.099999994,532516,,532515.799999997,,532521.028,8,400,,,
sequence,flow.Sequence,4_67,2023-09-17T20:54:04.384Z,,0,,,2898.0280000000494,completion,,,,,false,,,,532516.299999997,532516,529611.781,529616.200000003,529617.972,532521.028,8,400,,,
trial,html.Screen,4_68_0,2023-09-17T20:54:07.316Z,,0,2,,2927.37199999101,response,ISIC_0056603.JPG,4,ISIC_0046394.JPG,ISIC_0046394.JPG,false,0,keypress(z),500,535448.599999994,535448.3999999911,532514.841,532516.5,532521.028,535454.47,8,400,19,,ISIC_0056603.JPG
break,html.Screen,4_68_1,2023-09-17T20:54:07.317Z,,0,,,NaN,,,,,,false,,,,535449.700000003,535449.299999997,,535448.8999999911,,535454.47,8,400,,,
break_continue,html.Screen,4_68_2,2023-09-17T20:54:07.318Z,,0,,,NaN,,,,,,false,,,,535450.099999994,535450,,535449.799999997,,535454.47,8,400,,,
sequence,flow.Sequence,4_68,2023-09-17T20:54:07.318Z,,0,,,2928.9719999999506,completion,,,,,false,,,,535450.3999999911,535450,532514.841,532516.3999999911,532521.028,535454.47,8,400,,,
trial,html.Screen,4_69_0,2023-09-17T20:54:09.807Z,,0,2,,2484.030000000028,response,ISIC_0008510.JPG,5,ISIC_0000420.JPG,ISIC_0000420.JPG,false,0,keypress(z),500,537938.8999999911,537938.5,535448.274,535450.5,535454.47,537945.264,8,400,20,,ISIC_0008510.JPG
break,html.Screen,4_69_1,2023-09-17T20:54:09.808Z,,0,,,NaN,,,,,,false,,,,537939.8999999911,537939.700000003,,537939,,537945.264,8,400,,,
break_continue,html.Screen,4_69_2,2023-09-17T20:54:09.808Z,,0,,,NaN,,,,,,false,,,,537940.299999997,537940.200000003,,537940.099999994,,537945.264,8,400,,,
sequence,flow.Sequence,4_69,2023-09-17T20:54:09.808Z,,0,,,2485.730000003008,completion,,,,,false,,,,537940.3999999911,537940.200000003,535448.274,535450.3999999911,535454.47,537945.264,8,400,,,
trial,html.Screen,4_70_0,2023-09-17T20:54:12.201Z,,0,2,,2387.335999994073,response,ISIC_9354965.JPG,5,ISIC_6737771.JPG,ISIC_9354965.JPG,false,1,keypress(m),500,540332.799999997,540332.599999994,537939.135,537940.5,537945.264,540339.265,8,400,21,,ISIC_6737771.JPG
break,html.Screen,4_70_1,2023-09-17T20:54:12.202Z,,0,,,NaN,,,,,,false,,,,540334.099999994,540333.8999999911,,540333,,540339.265,8,400,,,
break_continue,html.Screen,4_70_2,2023-09-17T20:54:12.202Z,,0,,,NaN,,,,,,false,,,,540334.3999999911,540334.299999997,,540334.099999994,,540339.265,8,400,,,
sequence,flow.Sequence,4_70,2023-09-17T20:54:12.202Z,,0,,,2389.0359999970533,completion,,,,,false,,,,540334.5,540334.299999997,537939.135,537940.5,537945.264,540339.265,8,400,,,
trial,html.Screen,4_71_0,2023-09-17T20:54:14.668Z,,0,2,,2461.034999997006,response,ISIC_0060154.JPG,5,ISIC_2294790.JPG,ISIC_0060154.JPG,false,1,keypress(m),500,542800.5,542800.299999997,540333.108,540334.599999994,540339.265,542805.955,8,400,22,,ISIC_2294790.JPG
break,html.Screen,4_71_1,2023-09-17T20:54:14.669Z,,0,,,NaN,,,,,,false,,,,542801.599999994,542801.099999994,,542800.799999997,,542805.955,8,400,,,
break_continue,html.Screen,4_71_2,2023-09-17T20:54:14.670Z,,0,,,NaN,,,,,,false,,,,542802,542801.8999999911,,542801.700000003,,542805.955,8,400,,,
sequence,flow.Sequence,4_71,2023-09-17T20:54:14.670Z,,0,,,2462.6349999910453,completion,,,,,false,,,,542802.200000003,542801.8999999911,540333.108,540334.599999994,540339.265,542805.955,8,400,,,
trial,html.Screen,4_72_0,2023-09-17T20:54:17.152Z,,0,2,,2478.045000000042,response,ISIC_7803163.JPG,5,ISIC_5674396.JPG,ISIC_7803163.JPG,false,1,keypress(m),500,545284.5,545284,542799.818,542802.3999999911,542805.955,545292.304,8,400,23,,ISIC_5674396.JPG
break,html.Screen,4_72_1,2023-09-17T20:54:17.153Z,,0,,,NaN,,,,,,false,,,,545285.599999994,545285.299999997,,545285,,545292.304,8,400,,,
break_continue,html.Screen,4_72_2,2023-09-17T20:54:17.154Z,,0,,,NaN,,,,,,false,,,,545286,545285.700000003,,545285.599999994,,545292.304,8,400,,,
sequence,flow.Sequence,4_72,2023-09-17T20:54:17.154Z,,0,,,2479.745000003022,completion,,,,,false,,,,545286.200000003,545285.700000003,542799.818,542802.299999997,542805.955,545292.304,8,400,,,
trial,html.Screen,4_73_0,2023-09-17T20:54:20.443Z,,0,2,,3282.3960000029765,response,ISIC_0060558.JPG,6,ISIC_0068234.JPG,ISIC_0068234.JPG,false,0,keypress(z),500,548575,548574.700000003,545278.628,545286.299999997,545292.304,548581.623,8,400,24,,ISIC_0060558.JPG
break,html.Screen,4_73_1,2023-09-17T20:54:20.444Z,,0,,,NaN,,,,,,false,,,,548576,548575.599999994,,548575.200000003,,548581.623,8,400,,,
break_continue,html.Screen,4_73_2,2023-09-17T20:54:20.444Z,,0,,,NaN,,,,,,false,,,,548576.3999999911,548576.299999997,,548576.200000003,,548581.623,8,400,,,
sequence,flow.Sequence,4_73,2023-09-17T20:54:20.444Z,,0,,,3283.995999997016,completion,,,,,false,,,,548576.599999994,548576.299999997,545278.628,545286.299999997,545292.304,548581.623,8,400,,,
trial,html.Screen,4_74_0,2023-09-17T20:54:23.108Z,,0,2,,2658.1769999969983,response,ISIC_1388297.JPG,5,ISIC_4411889.JPG,ISIC_4411889.JPG,false,0,keypress(z),500,551240,551239.799999997,548575.536,548576.599999994,548581.623,551242.319,8,400,25,,ISIC_1388297.JPG
break,html.Screen,4_74_1,2023-09-17T20:54:23.109Z,,0,,,NaN,,,,,,false,,,,551240.799999997,551240.599999994,,551240.200000003,,551242.319,8,400,,,
break_continue,html.Screen,4_74_2,2023-09-17T20:54:23.109Z,,0,,,NaN,,,,,,false,,,,551241,551241,,551240.8999999911,,551242.319,8,400,,,
sequence,flow.Sequence,4_74,2023-09-17T20:54:23.109Z,,0,,,2659.3769999999786,completion,,,,,false,,,,551241.200000003,551241,548575.536,548576.599999994,548581.623,551242.319,8,400,,,
trial,html.Screen,4_75_0,2023-09-17T20:54:25.495Z,,0,2,,2384.5809999910416,response,ISIC_2980578.JPG,5,ISIC_0033299.JPG,ISIC_0033299.JPG,false,0,keypress(z),500,553627.099999994,553626.8999999911,551236.193,551241.200000003,551242.319,553630.264,8,400,26,,ISIC_2980578.JPG
break,html.Screen,4_75_1,2023-09-17T20:54:25.496Z,,0,,,NaN,,,,,,false,,,,553627.8999999911,553627.599999994,,553627.3999999911,,553630.264,8,400,,,
break_continue,html.Screen,4_75_2,2023-09-17T20:54:25.496Z,,0,,,NaN,,,,,,false,,,,553628.299999997,553628.200000003,,553628.099999994,,553630.264,8,400,,,
sequence,flow.Sequence,4_75,2023-09-17T20:54:25.496Z,,0,,,2385.8810000029625,completion,,,,,false,,,,553628.3999999911,553628.200000003,551236.193,551241.200000003,551242.319,553630.264,8,400,,,
trial,html.Screen,4_76_0,2023-09-17T20:54:28.954Z,,0,2,,3455.835999994073,response,ISIC_0032873.JPG,4,ISIC_0060158.JPG,ISIC_0032873.JPG,false,1,keypress(m),500,557086.299999997,557086.099999994,553624.115,553628.599999994,553630.264,557090.874,8,400,27,,ISIC_0060158.JPG
break,html.Screen,4_76_1,2023-09-17T20:54:28.955Z,,0,,,NaN,,,,,,false,,,,557087,557086.799999997,,557086.3999999911,,557090.874,8,400,,,
break_continue,html.Screen,4_76_2,2023-09-17T20:54:28.955Z,,0,,,NaN,,,,,,false,,,,557087.3999999911,557087.299999997,,557087.200000003,,557090.874,8,400,,,
sequence,flow.Sequence,4_76,2023-09-17T20:54:28.955Z,,0,,,3457.0359999970533,completion,,,,,false,,,,557087.599999994,557087.299999997,553624.115,553628.5,553630.264,557090.874,8,400,,,
trial,html.Screen,4_77_0,2023-09-17T20:54:31.380Z,,0,2,,2421.225999994087,response,ISIC_0030254.JPG,5,ISIC_0033697.JPG,ISIC_0033697.JPG,false,0,keypress(z),500,559512.3999999911,559512.099999994,557084.746,557087.700000003,557090.874,559515.092,8,400,28,,ISIC_0030254.JPG
break,html.Screen,4_77_1,2023-09-17T20:54:31.381Z,,0,,,NaN,,,,,,false,,,,559513.200000003,559513,,559512.599999994,,559515.092,8,400,,,
break_continue,html.Screen,4_77_2,2023-09-17T20:54:31.382Z,,0,,,NaN,,,,,,false,,,,559514,559513.799999997,,559513.599999994,,559515.092,8,400,,,
sequence,flow.Sequence,4_77,2023-09-17T20:54:31.382Z,,0,,,2422.9259999970673,completion,,,,,false,,,,559514.200000003,559513.799999997,557084.746,557087.700000003,557090.874,559515.092,8,400,,,
trial,html.Screen,4_78_0,2023-09-17T20:54:33.977Z,,0,2,,2593.6080000030342,response,ISIC_6520237.JPG,5,ISIC_0000558.JPG,ISIC_6520237.JPG,false,1,keypress(m),500,562108.8999999911,562108.700000003,559508.938,559514.200000003,559515.092,562115.064,8,400,29,,ISIC_0000558.JPG
break,html.Screen,4_78_1,2023-09-17T20:54:33.978Z,,0,,,NaN,,,,,,false,,,,562109.8999999911,562109.599999994,,562109.200000003,,562115.064,8,400,,,
break_continue,html.Screen,4_78_2,2023-09-17T20:54:33.978Z,,0,,,NaN,,,,,,false,,,,562110.3999999911,562110.299999997,,562110.099999994,,562115.064,8,400,,,
sequence,flow.Sequence,4_78,2023-09-17T20:54:33.978Z,,0,,,2595.207999997074,completion,,,,,false,,,,562110.599999994,562110.299999997,559508.938,559514.200000003,559515.092,562115.064,8,400,,,
trial,html.Screen,4_79_0,2023-09-17T20:54:36.492Z,,0,2,,2509.0359999940265,response,ISIC_5659295.JPG,6,ISIC_0024410.JPG,ISIC_5659295.JPG,false,1,keypress(m),500,564624.3999999911,564624.099999994,562109.126,562110.700000003,562115.064,564630.507,8,400,30,,ISIC_0024410.JPG
break,html.Screen,4_79_1,2023-09-17T20:54:36.493Z,,0,,,NaN,,,,,,false,,,,564625.099999994,564624.700000003,,564624.5,,564630.507,8,400,,,
break_continue,html.Screen,4_79_2,2023-09-17T20:54:36.493Z,,0,,,NaN,,,,,,false,,,,564625.299999997,564625.200000003,,564625.099999994,,564630.507,8,400,,,
sequence,flow.Sequence,4_79,2023-09-17T20:54:36.493Z,,0,,,2510.136000002967,completion,,,,,false,,,,564625.3999999911,564625.200000003,562109.126,562110.700000003,562115.064,564630.507,8,400,,,
trial,html.Screen,4_80_0,2023-09-17T20:54:39.426Z,,0,2,,2927.7929999970365,response,ISIC_2936321.JPG,5,ISIC_0485529.JPG,ISIC_0485529.JPG,false,0,keypress(z),500,567558.5,567558.299999997,564624.16,564625.3999999911,564630.507,567563.608,8,400,31,,ISIC_2936321.JPG
break,html.Screen,4_80_1,2023-09-17T20:54:39.427Z,,0,,,NaN,,,,,,false,,,,567559.599999994,567559.299999997,,567558.799999997,,567563.608,8,400,,,
break_continue,html.Screen,4_80_2,2023-09-17T20:54:39.428Z,,0,,,NaN,,,,,,false,,,,567559.8999999911,567559.799999997,,567559.700000003,,567563.608,8,400,,,
sequence,flow.Sequence,4_80,2023-09-17T20:54:39.428Z,,0,,,2929.2929999970365,completion,,,,,false,,,,567560,567559.799999997,564624.16,564625.3999999911,564630.507,567563.608,8,400,,,
trial,html.Screen,4_81_0,2023-09-17T20:54:41.964Z,,0,2,,2532.1919999970123,response,ISIC_8792007.JPG,6,ISIC_7642591.JPG,ISIC_7642591.JPG,false,0,keypress(z),500,570096.099999994,570095.799999997,567557.411,567560.200000003,567563.608,570109.096,8,400,32,,ISIC_8792007.JPG
break,html.Screen,4_81_1,2023-09-17T20:54:41.965Z,,0,,,NaN,,,,,,false,,,,570097.299999997,570096.599999994,,570096.299999997,,570109.096,8,400,,,
break_continue,html.Screen,4_81_2,2023-09-17T20:54:41.966Z,,0,,,NaN,,,,,,false,,,,570097.799999997,570097.599999994,,570097.3999999911,,570109.096,8,400,,,
sequence,flow.Sequence,4_81,2023-09-17T20:54:41.966Z,,0,,,2533.991999994032,completion,,,,,false,,,,570097.8999999911,570097.599999994,567557.411,567560.099999994,567563.608,570109.096,8,400,,,
trial,html.Screen,4_82_0,2023-09-17T20:54:44.308Z,,0,2,,2331.3039999910397,response,ISIC_7334117.JPG,5,ISIC_9723646.JPG,ISIC_7334117.JPG,false,1,keypress(m),500,572440.700000003,572440.3999999911,570103.148,570098.099999994,570109.096,572442.532,8,400,33,,ISIC_9723646.JPG
break,html.Screen,4_82_1,2023-09-17T20:54:44.310Z,,0,,,NaN,,,,,,false,,,,572441.799999997,572441.3999999911,,572440.8999999911,,572442.532,8,400,,,
break_continue,html.Screen,4_82_2,2023-09-17T20:54:44.310Z,,0,,,NaN,,,,,,false,,,,572442.299999997,572442.200000003,,572442,,572442.532,8,400,,,
sequence,flow.Sequence,4_82,2023-09-17T20:54:44.310Z,,0,,,2333.1040000029607,completion,,,,,false,,,,572442.5,572442.200000003,570103.148,570098,570109.096,572442.532,8,400,,,
trial,html.Screen,4_83_0,2023-09-17T20:54:46.761Z,,0,2,,2450.067999994033,response,ISIC_1258763.JPG,5,ISIC_0032747.JPG,ISIC_0032747.JPG,false,0,keypress(z),500,574892.8999999911,574892.599999994,572436.378,572442.700000003,572442.532,574896.994,8,400,34,,ISIC_1258763.JPG
break,html.Screen,4_83_1,2023-09-17T20:54:46.761Z,,0,,,NaN,,,,,,false,,,,574893.700000003,574893.5,,574893.200000003,,574896.994,8,400,,,
break_continue,html.Screen,4_83_2,2023-09-17T20:54:46.762Z,,0,,,NaN,,,,,,false,,,,574894.3999999911,574894.200000003,,574894,,574896.994,8,400,,,
sequence,flow.Sequence,4_83,2023-09-17T20:54:46.762Z,,0,,,2451.6680000029737,completion,,,,,false,,,,574894.599999994,574894.200000003,572436.378,572442.5,572442.532,574896.994,8,400,,,
trial,html.Screen,4_84_0,2023-09-17T20:54:49.339Z,,0,2,,2574.9059999911115,response,ISIC_0028898.JPG,4,ISIC_8479913.JPG,ISIC_0028898.JPG,false,1,keypress(m),500,577472.099999994,577471.8999999911,574890.913,574894.799999997,574896.994,577478.837,8,400,35,,ISIC_8479913.JPG
break,html.Screen,4_84_1,2023-09-17T20:54:49.340Z,,0,,,NaN,,,,,,false,,,,577473.299999997,577473.099999994,,577472.299999997,,577478.837,8,400,,,
break_continue,html.Screen,4_84_2,2023-09-17T20:54:49.341Z,,0,,,NaN,,,,,,false,,,,577473.599999994,577473.599999994,,577473.3999999911,,577478.837,8,400,,,
sequence,flow.Sequence,4_84,2023-09-17T20:54:49.341Z,,0,,,2576.6059999940917,completion,,,,,false,,,,577473.799999997,577473.599999994,574890.913,574894.700000003,574896.994,577478.837,8,400,,,
trial,html.Screen,4_85_0,2023-09-17T20:54:51.847Z,,0,2,,2500.3630000029225,response,ISIC_8907232.JPG,4,ISIC_6938608.JPG,ISIC_8907232.JPG,false,1,keypress(m),500,579979.5,579979.200000003,577472.945,577473.8999999911,577478.837,579987.887,8,400,36,,ISIC_6938608.JPG
break,html.Screen,4_85_1,2023-09-17T20:54:51.847Z,,0,,,NaN,,,,,,false,,,,579980,579980,,579979.700000003,,579987.887,8,400,,,
break_continue,html.Screen,4_85_2,2023-09-17T20:54:51.847Z,,0,,,NaN,,,,,,false,,,,579980.299999997,579980.200000003,,579980.200000003,,579987.887,8,400,,,
sequence,flow.Sequence,4_85,2023-09-17T20:54:51.848Z,,0,,,2501.3630000029225,completion,,,,,false,,,,579980.3999999911,579980.200000003,577472.945,577473.8999999911,577478.837,579987.887,8,400,,,
trial,html.Screen,4_86_0,2023-09-17T20:54:54.224Z,,0,2,,2369.0129999910714,response,ISIC_6344073.JPG,5,ISIC_9086288.JPG,ISIC_9086288.JPG,false,0,keypress(z),500,582357.200000003,582356.8999999911,579981.848,579980.5,579987.887,582363.66,8,400,37,,ISIC_6344073.JPG
break,html.Screen,4_86_1,2023-09-17T20:54:54.225Z,,0,,,NaN,,,,,,false,,,,582357.8999999911,582357.700000003,,582357.299999997,,582363.66,8,400,,,
break_continue,html.Screen,4_86_2,2023-09-17T20:54:54.225Z,,0,,,NaN,,,,,,false,,,,582358.200000003,582358.099999994,,582357.8999999911,,582363.66,8,400,,,
sequence,flow.Sequence,4_86,2023-09-17T20:54:54.226Z,,0,,,2370.2129999940516,completion,,,,,false,,,,582358.299999997,582358.099999994,579981.848,579980.5,579987.887,582363.66,8,400,,,
trial,html.Screen,4_87_0,2023-09-17T20:54:56.692Z,,0,2,,2461.0400000029476,response,ISIC_3277722.JPG,5,ISIC_0032629.JPG,ISIC_0032629.JPG,false,0,keypress(z),500,584824.799999997,584824.700000003,582357.643,582358.3999999911,582363.66,584830.342,8,400,38,,ISIC_3277722.JPG
break,html.Screen,4_87_1,2023-09-17T20:54:56.693Z,,0,,,NaN,,,,,,false,,,,584825.700000003,584825.3999999911,,584825,,584830.342,8,400,,,
break_continue,html.Screen,4_87_2,2023-09-17T20:54:56.693Z,,0,,,NaN,,,,,,false,,,,584826,584825.799999997,,584825.799999997,,584830.342,8,400,,,
sequence,flow.Sequence,4_87,2023-09-17T20:54:56.693Z,,0,,,2462.139999996987,completion,,,,,false,,,,584826.099999994,584825.799999997,582357.643,582358.3999999911,582363.66,584830.342,8,400,,,
trial,html.Screen,4_88_0,2023-09-17T20:54:59.047Z,,0,2,,2349.7579999940936,response,ISIC_5798015.JPG,4,ISIC_0072990.JPG,ISIC_0072990.JPG,false,0,keypress(z),500,587180.299999997,587180.099999994,584824.392,584826.200000003,584830.342,587181.962,8,400,39,,ISIC_5798015.JPG
break,html.Screen,4_88_1,2023-09-17T20:54:59.048Z,,0,,,NaN,,,,,,false,,,,587181,587180.799999997,,587180.3999999911,,587181.962,8,400,,,
break_continue,html.Screen,4_88_2,2023-09-17T20:54:59.048Z,,0,,,NaN,,,,,,false,,,,587181.200000003,587181.099999994,,587181,,587181.962,8,400,,,
sequence,flow.Sequence,4_88,2023-09-17T20:54:59.049Z,,0,,,2350.7579999940936,completion,,,,,false,,,,587181.299999997,587181.099999994,584824.392,584826.200000003,584830.342,587181.962,8,400,,,
trial,html.Screen,4_89_0,2023-09-17T20:55:01.434Z,,0,2,,2384.337999996962,response,ISIC_0026236.JPG,4,ISIC_0000012.JPG,ISIC_0000012.JPG,false,0,keypress(z),500,589566.599999994,589566.299999997,587175.772,587181.3999999911,587181.962,589569.808,8,400,40,,ISIC_0026236.JPG
break,html.Screen,4_89_1,2023-09-17T20:55:01.435Z,,0,,,NaN,,,,,,false,,,,589567.3999999911,589567.200000003,,589566.799999997,,589569.808,8,400,,,
break_continue,html.Screen,4_89_2,2023-09-17T20:55:01.435Z,,0,,,NaN,,,,,,false,,,,589567.599999994,589567.599999994,,589567.3999999911,,589569.808,8,400,,,
sequence,flow.Sequence,4_89,2023-09-17T20:55:01.435Z,,0,,,2385.637999993982,completion,,,,,false,,,,589567.799999997,589567.599999994,587175.772,587181.3999999911,587181.962,589569.808,8,400,,,
trial,html.Screen,4_90_0,2023-09-17T20:55:04.461Z,,0,2,,3023.3920000030193,response,ISIC_0031807.JPG,4,ISIC_2203247.JPG,ISIC_0031807.JPG,false,1,keypress(m),500,592593.5,592593.200000003,589564.058,589567.8999999911,589569.808,592600.093,8,400,41,,ISIC_2203247.JPG
break,html.Screen,4_90_1,2023-09-17T20:55:04.462Z,,0,,,NaN,,,,,,false,,,,592594.599999994,592594.099999994,,592593.700000003,,592600.093,8,400,,,
break_continue,html.Screen,4_90_2,2023-09-17T20:55:04.462Z,,0,,,NaN,,,,,,false,,,,592595.099999994,592595,,592594.700000003,,592600.093,8,400,,,
sequence,flow.Sequence,4_90,2023-09-17T20:55:04.462Z,,0,,,3025.192000000039,completion,,,,,false,,,,592595.200000003,592595,589564.058,589567.799999997,589569.808,592600.093,8,400,,,
trial,html.Screen,4_91_0,2023-09-17T20:55:06.837Z,,0,2,,2369.306999991066,response,ISIC_7533983.JPG,5,ISIC_7921023.JPG,ISIC_7921023.JPG,false,0,keypress(z),500,594969.3999999911,594969.3999999911,592594.01,592595.5,592600.093,594976.029,8,400,42,,ISIC_7533983.JPG
break,html.Screen,4_91_1,2023-09-17T20:55:06.837Z,,0,,,NaN,,,,,,false,,,,594969.8999999911,594969.799999997,,594969.599999994,,594976.029,8,400,,,
break_continue,html.Screen,4_91_2,2023-09-17T20:55:06.837Z,,0,,,NaN,,,,,,false,,,,594970.099999994,594970.099999994,,594970,,594976.029,8,400,,,
sequence,flow.Sequence,4_91,2023-09-17T20:55:06.837Z,,0,,,2370.006999994046,completion,,,,,false,,,,594970.200000003,594970.099999994,592594.01,592595.5,592600.093,594976.029,8,400,,,
trial,html.Screen,4_92_0,2023-09-17T20:55:09.198Z,,0,2,,2353.9710000000196,response,ISIC_8383600.JPG,4,ISIC_0014684.JPG,ISIC_0014684.JPG,false,0,keypress(z),500,597330.3999999911,597330,594964.047,594970.200000003,594976.029,597333.56,8,400,43,,ISIC_8383600.JPG
break,html.Screen,4_92_1,2023-09-17T20:55:09.199Z,,0,,,NaN,,,,,,false,,,,597331.3999999911,597331.200000003,,597330.599999994,,597333.56,8,400,,,
break_continue,html.Screen,4_92_2,2023-09-17T20:55:09.199Z,,0,,,NaN,,,,,,false,,,,597331.8999999911,597331.700000003,,597331.599999994,,597333.56,8,400,,,
sequence,flow.Sequence,4_92,2023-09-17T20:55:09.199Z,,0,,,2355.671000003,completion,,,,,false,,,,597331.8999999911,597331.700000003,594964.047,594970.200000003,594976.029,597333.56,8,400,,,
trial,html.Screen,4_93_0,2023-09-17T20:55:11.585Z,,0,2,,2384.3399999910034,response,ISIC_8263741.JPG,4,ISIC_5718805.JPG,ISIC_5718805.JPG,false,0,keypress(z),500,599718.200000003,599717.8999999911,597327.4,597332.099999994,597333.56,599721.451,8,400,44,,ISIC_8263741.JPG
break,html.Screen,4_93_1,2023-09-17T20:55:11.587Z,,0,,,NaN,,,,,,false,,,,599719.299999997,599719.099999994,,599718.5,,599721.451,8,400,,,
break_continue,html.Screen,4_93_2,2023-09-17T20:55:11.587Z,,0,,,NaN,,,,,,false,,,,599719.700000003,599719.599999994,,599719.5,,599721.451,8,400,,,
sequence,flow.Sequence,4_93,2023-09-17T20:55:11.587Z,,0,,,2386.0399999939837,completion,,,,,false,,,,599719.8999999911,599719.599999994,597327.4,597332.099999994,597333.56,599721.451,8,400,,,
trial,html.Screen,4_94_0,2023-09-17T20:55:13.973Z,,0,2,,2384.2490000029793,response,ISIC_7938688.JPG,5,ISIC_0027585.JPG,ISIC_0027585.JPG,false,0,keypress(z),500,602106.099999994,602105.700000003,599715.499,599720,599721.451,602109.275,8,400,45,,ISIC_7938688.JPG
break,html.Screen,4_94_1,2023-09-17T20:55:13.975Z,,0,,,NaN,,,,,,false,,,,602107.599999994,602107.200000003,,602106.299999997,,602109.275,8,400,,,
break_continue,html.Screen,4_94_2,2023-09-17T20:55:13.975Z,,0,,,NaN,,,,,,false,,,,602108.099999994,602107.8999999911,,602107.799999997,,602109.275,8,400,,,
sequence,flow.Sequence,4_94,2023-09-17T20:55:13.975Z,,0,,,2386.4489999910584,completion,,,,,false,,,,602108.299999997,602107.8999999911,599715.499,599720,599721.451,602109.275,8,400,,,
trial,html.Screen,4_95_0,2023-09-17T20:55:16.490Z,,0,2,,2513.2249999999767,response,ISIC_7746479.JPG,5,ISIC_5647554.JPG,ISIC_5647554.JPG,false,0,keypress(z),500,604622.799999997,604622.5,602106.826,602108.3999999911,602109.275,604631.898,8,400,46,,ISIC_7746479.JPG
break,html.Screen,4_95_1,2023-09-17T20:55:16.491Z,,0,,,NaN,,,,,,false,,,,604624,604623.700000003,,604623.099999994,,604631.898,8,400,,,
break_continue,html.Screen,4_95_2,2023-09-17T20:55:16.492Z,,0,,,NaN,,,,,,false,,,,604624.599999994,604624.200000003,,604624.099999994,,604631.898,8,400,,,
sequence,flow.Sequence,4_95,2023-09-17T20:55:16.492Z,,0,,,2514.925000002957,completion,,,,,false,,,,604624.799999997,604624.200000003,602106.826,602108.299999997,602109.275,604631.898,8,400,,,
trial,html.Screen,4_96_0,2023-09-17T20:55:19.279Z,,0,2,,2779.401999996975,response,ISIC_1952749.JPG,5,ISIC_0054777.JPG,ISIC_0054777.JPG,false,0,keypress(z),500,607411.5,607411.299999997,604618.348,604624.8999999911,604631.898,607424.471,8,400,47,,ISIC_1952749.JPG
break,html.Screen,4_96_1,2023-09-17T20:55:19.280Z,,0,,,NaN,,,,,,false,,,,607412.599999994,607412.299999997,,607411.700000003,,607424.471,8,400,,,
break_continue,html.Screen,4_96_2,2023-09-17T20:55:19.280Z,,0,,,NaN,,,,,,false,,,,607413,607412.799999997,,607412.700000003,,607424.471,8,400,,,
sequence,flow.Sequence,4_96,2023-09-17T20:55:19.280Z,,0,,,2780.901999996975,completion,,,,,false,,,,607413.200000003,607412.799999997,604618.348,604624.799999997,604631.898,607424.471,8,400,,,
trial,html.Screen,4_97_0,2023-09-17T20:55:22.101Z,,0,2,,2808.62899999402,response,ISIC_0065658.JPG,5,ISIC_9482039.JPG,ISIC_0065658.JPG,false,1,keypress(m),500,610233.3999999911,610233.099999994,607418.365,607413.299999997,607424.471,610236.637,8,400,48,,ISIC_9482039.JPG
break,html.Screen,4_97_1,2023-09-17T20:55:22.102Z,,0,,,NaN,,,,,,false,,,,610234.3999999911,610234.099999994,,610233.599999994,,610236.637,8,400,,,
break_continue,html.Screen,4_97_2,2023-09-17T20:55:22.102Z,,0,,,NaN,,,,,,false,,,,610234.8999999911,610234.700000003,,610234.599999994,,610236.637,8,400,,,
sequence,flow.Sequence,4_97,2023-09-17T20:55:22.102Z,,0,,,2810.2290000029607,completion,,,,,false,,,,610235.200000003,610234.700000003,607418.365,607413.299999997,607424.471,610236.637,8,400,,,
trial,html.Screen,4_98_0,2023-09-17T20:55:24.426Z,,0,2,,2321.7629999910714,response,ISIC_0150363.JPG,5,ISIC_0033359.JPG,ISIC_0033359.JPG,false,0,keypress(z),500,612558.700000003,612558.3999999911,610230.411,610235.3999999911,610236.637,612563.949,8,400,49,,ISIC_0150363.JPG
break,html.Screen,4_98_1,2023-09-17T20:55:24.427Z,,0,,,NaN,,,,,,false,,,,612559.799999997,612559.299999997,,612558.799999997,,612563.949,8,400,,,
break_continue,html.Screen,4_98_2,2023-09-17T20:55:24.428Z,,0,,,NaN,,,,,,false,,,,612560.3999999911,612560.200000003,,612560,,612563.949,8,400,,,
sequence,flow.Sequence,4_98,2023-09-17T20:55:24.428Z,,0,,,2323.5630000029923,completion,,,,,false,,,,612560.599999994,612560.200000003,610230.411,610235.299999997,610236.637,612563.949,8,400,,,
trial,html.Screen,4_99_0,2023-09-17T20:55:27.987Z,,0,2,,3555.650999994017,response,ISIC_0031494.JPG,5,ISIC_6913272.JPG,ISIC_0031494.JPG,false,1,keypress(m),500,616119.799999997,616119.599999994,612555.011,612560.700000003,612563.949,616128.504,8,400,50,,ISIC_6913272.JPG
break,html.Screen,4_99_1,2023-09-17T20:55:37.989Z,,0,,,9999.082000000053,timeout,,,,,false,,,,626121.8999999911,626121.514,616115.296,616120,616128.504,626127.586,8,400,,,
break_continue,html.Screen,4_99_2,2023-09-17T20:55:38.629Z,,0,,,625.7139999970095,response,,,,,false,continue,keypress(Space),,626761.599999994,626753.299999997,626121.514,626122,626127.586,626763.859,8,400,,,
sequence,flow.Sequence,4_99,2023-09-17T20:55:38.629Z,,0,,,14189.350999996997,completion,,,,,false,,,,626761.599999994,626753.299999997,612555.011,612560.700000003,612563.949,626763.859,8,400,,,
trial,html.Screen,4_100_0,2023-09-17T20:55:41.959Z,,0,3,,3327.640999999945,response,ISIC_4184101.JPG,5,ISIC_9745562.JPG,ISIC_4184101.JPG,false,1,keypress(m),500,630091.700000003,630091.5,626757.966,626761.700000003,626763.859,630097.307,8,400,1,,ISIC_9745562.JPG
break,html.Screen,4_100_1,2023-09-17T20:55:41.960Z,,0,,,NaN,,,,,,false,,,,630092.8999999911,630092.5,,630092,,630097.307,8,400,,,
break_continue,html.Screen,4_100_2,2023-09-17T20:55:41.960Z,,0,,,NaN,,,,,,false,,,,630093.299999997,630093.099999994,,630093,,630097.307,8,400,,,
sequence,flow.Sequence,4_100,2023-09-17T20:55:41.961Z,,0,,,3329.2409999939846,completion,,,,,false,,,,630093.5,630093.099999994,626757.966,626761.599999994,626763.859,630097.307,8,400,,,
trial,html.Screen,4_101_0,2023-09-17T20:55:44.923Z,,0,3,,2958.0929999910295,response,ISIC_7820005.JPG,6,ISIC_0013311.JPG,ISIC_0013311.JPG,false,0,keypress(z),500,633055.700000003,633055.3999999911,630091.156,630093.700000003,630097.307,633060.957,8,400,2,,ISIC_7820005.JPG
break,html.Screen,4_101_1,2023-09-17T20:55:44.924Z,,0,,,NaN,,,,,,false,,,,633056.5,633056.299999997,,633055.8999999911,,633060.957,8,400,,,
break_continue,html.Screen,4_101_2,2023-09-17T20:55:44.924Z,,0,,,NaN,,,,,,false,,,,633057,633056.8999999911,,633056.700000003,,633060.957,8,400,,,
sequence,flow.Sequence,4_101,2023-09-17T20:55:44.924Z,,0,,,2959.5929999910295,completion,,,,,false,,,,633057.200000003,633056.8999999911,630091.156,630093.599999994,630097.307,633060.957,8,400,,,
trial,html.Screen,4_102_0,2023-09-17T20:55:47.359Z,,0,3,,2429.743000002927,response,ISIC_0202119.JPG,5,ISIC_0009882.JPG,ISIC_0009882.JPG,false,0,keypress(z),500,635490.799999997,635490.700000003,633054.813,633057.299999997,633060.957,635497.401,8,400,3,,ISIC_0202119.JPG
break,html.Screen,4_102_1,2023-09-17T20:55:47.359Z,,0,,,NaN,,,,,,false,,,,635491,635491,,635490.8999999911,,635497.401,8,400,,,
break_continue,html.Screen,4_102_2,2023-09-17T20:55:47.359Z,,0,,,NaN,,,,,,false,,,,635491.099999994,635491.099999994,,635491.099999994,,635497.401,8,400,,,
sequence,flow.Sequence,4_102,2023-09-17T20:55:47.359Z,,0,,,2430.1429999939865,completion,,,,,false,,,,635491.200000003,635491.099999994,633054.813,633057.299999997,633060.957,635497.401,8,400,,,
trial,html.Screen,4_103_0,2023-09-17T20:55:49.845Z,,0,3,,2479.998999991105,response,ISIC_6966230.JPG,6,ISIC_0031028.JPG,ISIC_0031028.JPG,false,0,keypress(z),500,637977.700000003,637977.3999999911,635491.104,635491.299999997,635497.401,637982.172,8,400,4,,ISIC_6966230.JPG
break,html.Screen,4_103_1,2023-09-17T20:55:49.847Z,,0,,,NaN,,,,,,false,,,,637978.799999997,637978.5,,637977.8999999911,,637982.172,8,400,,,
break_continue,html.Screen,4_103_2,2023-09-17T20:55:49.847Z,,0,,,NaN,,,,,,false,,,,637979.3999999911,637979.299999997,,637979.099999994,,637982.172,8,400,,,
sequence,flow.Sequence,4_103,2023-09-17T20:55:49.847Z,,0,,,2481.8989999970654,completion,,,,,false,,,,637979.700000003,637979.299999997,635491.104,635491.299999997,635497.401,637982.172,8,400,,,
trial,html.Screen,4_104_0,2023-09-17T20:55:52.474Z,,0,3,,2623.5280000029597,response,ISIC_2215276.JPG,5,ISIC_9939963.JPG,ISIC_2215276.JPG,false,1,keypress(m),500,640606,640605.700000003,637976.055,637979.8999999911,637982.172,640612.461,8,400,5,,ISIC_9939963.JPG
break,html.Screen,4_104_1,2023-09-17T20:55:52.475Z,,0,,,NaN,,,,,,false,,,,640606.799999997,640606.700000003,,640606.299999997,,640612.461,8,400,,,
break_continue,html.Screen,4_104_2,2023-09-17T20:55:52.475Z,,0,,,NaN,,,,,,false,,,,640607.200000003,640607.099999994,,640606.8999999911,,640612.461,8,400,,,
sequence,flow.Sequence,4_104,2023-09-17T20:55:52.475Z,,0,,,2624.927999994019,completion,,,,,false,,,,640607.3999999911,640607.099999994,637976.055,637979.799999997,637982.172,640612.461,8,400,,,
trial,html.Screen,4_105_0,2023-09-17T20:55:55.005Z,,0,3,,2524.6389999940293,response,ISIC_2283628.JPG,5,ISIC_0333091.JPG,ISIC_0333091.JPG,false,0,keypress(z),500,643137.099999994,643137.099999994,640606.28,640607.3999999911,640612.461,643139.842,8,400,6,,ISIC_2283628.JPG
break,html.Screen,4_105_1,2023-09-17T20:55:55.005Z,,0,,,NaN,,,,,,false,,,,643137.5,643137.299999997,,643137.200000003,,643139.842,8,400,,,
break_continue,html.Screen,4_105_2,2023-09-17T20:55:55.005Z,,0,,,NaN,,,,,,false,,,,643137.700000003,643137.700000003,,643137.599999994,,643139.842,8,400,,,
sequence,flow.Sequence,4_105,2023-09-17T20:55:55.006Z,,0,,,2525.23900000297,completion,,,,,false,,,,643137.799999997,643137.700000003,640606.28,640607.3999999911,640612.461,643139.842,8,400,,,
trial,html.Screen,4_106_0,2023-09-17T20:55:57.679Z,,0,3,,2671.3580000030342,response,ISIC_0691454.JPG,6,ISIC_4153234.JPG,ISIC_0691454.JPG,false,1,keypress(m),500,645811.5,645811.200000003,643133.679,643137.8999999911,643139.842,645824.742,8,400,7,,ISIC_4153234.JPG
break,html.Screen,4_106_1,2023-09-17T20:55:57.680Z,,0,,,NaN,,,,,,false,,,,645812.599999994,645812.200000003,,645811.700000003,,645824.742,8,400,,,
break_continue,html.Screen,4_106_2,2023-09-17T20:55:57.681Z,,0,,,NaN,,,,,,false,,,,645813.200000003,645813,,645812.799999997,,645824.742,8,400,,,
sequence,flow.Sequence,4_106,2023-09-17T20:55:57.681Z,,0,,,2673.158000000054,completion,,,,,false,,,,645813.3999999911,645813,643133.679,643137.799999997,643139.842,645824.742,8,400,,,
trial,html.Screen,4_107_0,2023-09-17T20:56:09.184Z,,0,3,,11503.006999999983,timeout,ISIC_0065918.JPG,4,ISIC_0025369.JPG,,false,,,500,657316,657315.799999997,645819.971,645813.599999994,645824.742,657327.749,8,400,8,,
break,html.Screen,4_107_1,2023-09-17T20:56:09.184Z,,0,,,NaN,,,,,,false,,,,657316.299999997,657316.200000003,,657316,,657327.749,8,400,,,
break_continue,html.Screen,4_107_2,2023-09-17T20:56:09.184Z,,0,,,NaN,,,,,,false,,,,657316.599999994,657316.5,,657316.5,,657327.749,8,400,,,
sequence,flow.Sequence,4_107,2023-09-17T20:56:09.184Z,,0,,,11491.75800000003,completion,,,,,false,,,,657316.599999994,657316.5,645819.971,645813.599999994,645824.742,657327.749,8,400,,,
trial,html.Screen,4_108_0,2023-09-17T20:56:11.809Z,,0,3,,2613.4510000030277,response,ISIC_0378399.JPG,4,ISIC_7145788.JPG,ISIC_0378399.JPG,false,1,keypress(m),500,659941.3999999911,659941.200000003,657321.602,657316.599999994,657327.749,659945.914,8,400,9,,ISIC_7145788.JPG
break,html.Screen,4_108_1,2023-09-17T20:56:11.809Z,,0,,,NaN,,,,,,false,,,,659941.700000003,659941.5,,659941.5,,659945.914,8,400,,,
break_continue,html.Screen,4_108_2,2023-09-17T20:56:11.809Z,,0,,,NaN,,,,,,false,,,,659941.700000003,659941.700000003,,659941.700000003,,659945.914,8,400,,,
sequence,flow.Sequence,4_108,2023-09-17T20:56:11.810Z,,0,,,2613.9510000030277,completion,,,,,false,,,,659942.200000003,659941.700000003,657321.602,657316.599999994,657327.749,659945.914,8,400,,,
trial,html.Screen,4_109_0,2023-09-17T20:56:14.163Z,,0,3,,2349.4859999910695,response,ISIC_2743014.JPG,5,ISIC_0033607.JPG,ISIC_0033607.JPG,false,0,keypress(z),500,662295.599999994,662295.3999999911,659940.01,659942.200000003,659945.914,662297.477,8,400,10,,ISIC_2743014.JPG
break,html.Screen,4_109_1,2023-09-17T20:56:14.164Z,,0,,,NaN,,,,,,false,,,,662296.599999994,662296.200000003,,662295.799999997,,662297.477,8,400,,,
break_continue,html.Screen,4_109_2,2023-09-17T20:56:14.165Z,,0,,,NaN,,,,,,false,,,,662297.099999994,662297,,662296.799999997,,662297.477,8,400,,,
sequence,flow.Sequence,4_109,2023-09-17T20:56:14.165Z,,0,,,2351.0860000000102,completion,,,,,false,,,,662297.200000003,662297,659940.01,659942.200000003,659945.914,662297.477,8,400,,,
trial,html.Screen,4_110_0,2023-09-17T20:56:17.160Z,,0,3,,2994.723000003025,response,ISIC_0009913.JPG,5,ISIC_5065360.JPG,ISIC_0009913.JPG,false,1,keypress(m),500,665292.3999999911,665292.200000003,662291.146,662297.3999999911,662297.477,665297.462,8,400,11,,ISIC_5065360.JPG
break,html.Screen,4_110_1,2023-09-17T20:56:17.161Z,,0,,,NaN,,,,,,false,,,,665293.200000003,665292.8999999911,,665292.599999994,,665297.462,8,400,,,
break_continue,html.Screen,4_110_2,2023-09-17T20:56:17.161Z,,0,,,NaN,,,,,,false,,,,665293.5,665293.5,,665293.299999997,,665297.462,8,400,,,
sequence,flow.Sequence,4_110,2023-09-17T20:56:17.161Z,,0,,,2996.0230000000447,completion,,,,,false,,,,665293.700000003,665293.5,662291.146,662297.3999999911,662297.477,665297.462,8,400,,,
trial,html.Screen,4_111_0,2023-09-17T20:56:19.628Z,,0,3,,2462.837999996962,response,ISIC_3824206.JPG,5,ISIC_8036175.JPG,ISIC_3824206.JPG,false,1,keypress(m),500,667760.599999994,667760.299999997,665291.22,665293.8999999911,665297.462,667764.207,8,400,12,,ISIC_8036175.JPG
break,html.Screen,4_111_1,2023-09-17T20:56:19.629Z,,0,,,NaN,,,,,,false,,,,667761.700000003,667761.299999997,,667761,,667764.207,8,400,,,
break_continue,html.Screen,4_111_2,2023-09-17T20:56:19.630Z,,0,,,NaN,,,,,,false,,,,667762.099999994,667762,,667761.799999997,,667764.207,8,400,,,
sequence,flow.Sequence,4_111,2023-09-17T20:56:19.630Z,,0,,,2464.5379999999423,completion,,,,,false,,,,667762.200000003,667762,665291.22,665293.700000003,665297.462,667764.207,8,400,,,
trial,html.Screen,4_112_0,2023-09-17T20:56:22.112Z,,0,3,,2480.0929999969667,response,ISIC_3784812.JPG,5,ISIC_0024686.JPG,ISIC_0024686.JPG,false,0,keypress(z),500,670244.599999994,670244.299999997,667758.066,667762.3999999911,667764.207,670249.053,8,400,13,,ISIC_3784812.JPG
break,html.Screen,4_112_1,2023-09-17T20:56:22.114Z,,0,,,NaN,,,,,,false,,,,670245.799999997,670245.3999999911,,670244.8999999911,,670249.053,8,400,,,
break_continue,html.Screen,4_112_2,2023-09-17T20:56:22.114Z,,0,,,NaN,,,,,,false,,,,670246.299999997,670246.099999994,,670246,,670249.053,8,400,,,
sequence,flow.Sequence,4_112,2023-09-17T20:56:22.114Z,,0,,,2481.8929999939865,completion,,,,,false,,,,670246.3999999911,670246.099999994,667758.066,667762.3999999911,667764.207,670249.053,8,400,,,
trial,html.Screen,4_113_0,2023-09-17T20:56:24.469Z,,0,3,,2351.647000003024,response,ISIC_6717452.JPG,6,ISIC_9028997.JPG,ISIC_9028997.JPG,false,0,keypress(z),500,672601,672600.700000003,670242.763,670246.5,670249.053,672606.58,8,400,14,,ISIC_6717452.JPG
break,html.Screen,4_113_1,2023-09-17T20:56:24.469Z,,0,,,NaN,,,,,,false,,,,672601.599999994,672601.3999999911,,672601.099999994,,672606.58,8,400,,,
break_continue,html.Screen,4_113_2,2023-09-17T20:56:24.470Z,,0,,,NaN,,,,,,false,,,,672601.8999999911,672601.799999997,,672601.700000003,,672606.58,8,400,,,
sequence,flow.Sequence,4_113,2023-09-17T20:56:24.470Z,,0,,,2352.7469999970635,completion,,,,,false,,,,672602,672601.799999997,670242.763,670246.5,670249.053,672606.58,8,400,,,
trial,html.Screen,4_114_0,2023-09-17T20:56:26.807Z,,0,3,,2332.620000003022,response,ISIC_0011516.JPG,5,ISIC_3909443.JPG,ISIC_0011516.JPG,false,1,keypress(m),500,674939.200000003,674939.200000003,672600.465,672602.099999994,672606.58,674947.317,8,400,15,,ISIC_3909443.JPG
break,html.Screen,4_114_1,2023-09-17T20:56:26.807Z,,0,,,NaN,,,,,,false,,,,674939.5,674939.3999999911,,674939.299999997,,674947.317,8,400,,,
break_continue,html.Screen,4_114_2,2023-09-17T20:56:26.807Z,,0,,,NaN,,,,,,false,,,,674939.700000003,674939.599999994,,674939.599999994,,674947.317,8,400,,,
sequence,flow.Sequence,4_114,2023-09-17T20:56:26.807Z,,0,,,2333.0199999940814,completion,,,,,false,,,,674939.700000003,674939.599999994,672600.465,672602.099999994,672606.58,674947.317,8,400,,,
trial,html.Screen,4_115_0,2023-09-17T20:56:29.240Z,,0,3,,2425.182999999961,response,ISIC_0054777.JPG,5,ISIC_0058658.JPG,ISIC_0058658.JPG,false,0,keypress(z),500,677372.799999997,677372.5,674933.808,674939.700000003,674947.317,677376.414,8,400,16,,ISIC_0054777.JPG
break,html.Screen,4_115_1,2023-09-17T20:56:29.242Z,,0,,,NaN,,,,,,false,,,,677373.8999999911,677373.5,,677373.099999994,,677376.414,8,400,,,
break_continue,html.Screen,4_115_2,2023-09-17T20:56:29.242Z,,0,,,NaN,,,,,,false,,,,677374.299999997,677374.200000003,,677374,,677376.414,8,400,,,
sequence,flow.Sequence,4_115,2023-09-17T20:56:29.242Z,,0,,,2426.883000002941,completion,,,,,false,,,,677374.5,677374.200000003,674933.808,674939.700000003,674947.317,677376.414,8,400,,,
trial,html.Screen,4_116_0,2023-09-17T20:56:31.724Z,,0,3,,2479.4859999910695,response,ISIC_0029570.JPG,4,ISIC_0027378.JPG,ISIC_0027378.JPG,false,0,keypress(z),500,679856.200000003,679855.8999999911,677370.149,677374.599999994,677376.414,679861.322,8,400,17,,ISIC_0029570.JPG
break,html.Screen,4_116_1,2023-09-17T20:56:31.725Z,,0,,,NaN,,,,,,false,,,,679857.3999999911,679857,,679856.5,,679861.322,8,400,,,
break_continue,html.Screen,4_116_2,2023-09-17T20:56:31.725Z,,0,,,NaN,,,,,,false,,,,679857.700000003,679857.5,,679857.3999999911,,679861.322,8,400,,,
sequence,flow.Sequence,4_116,2023-09-17T20:56:31.726Z,,0,,,2481.0860000000102,completion,,,,,false,,,,679857.8999999911,679857.5,677370.149,677374.5,677376.414,679861.322,8,400,,,
trial,html.Screen,4_117_0,2023-09-17T20:56:34.163Z,,0,3,,2433.8780000029365,response,ISIC_0399220.JPG,5,ISIC_0011521.JPG,ISIC_0011521.JPG,false,0,keypress(z),500,682295.700000003,682295.200000003,679854.943,679857.8999999911,679861.322,682304.993,8,400,18,,ISIC_0399220.JPG
break,html.Screen,4_117_1,2023-09-17T20:56:34.165Z,,0,,,NaN,,,,,,false,,,,682297.200000003,682296.799999997,,682295.8999999911,,682304.993,8,400,,,
break_continue,html.Screen,4_117_2,2023-09-17T20:56:34.166Z,,0,,,NaN,,,,,,false,,,,682297.799999997,682297.700000003,,682297.299999997,,682304.993,8,400,,,
sequence,flow.Sequence,4_117,2023-09-17T20:56:34.166Z,,0,,,2436.3780000029365,completion,,,,,false,,,,682297.8999999911,682297.700000003,679854.943,679857.8999999911,679861.322,682304.993,8,400,,,
trial,html.Screen,4_118_0,2023-09-17T20:56:36.616Z,,0,3,,2443.2070000029635,response,ISIC_0064026.JPG,5,ISIC_1532403.JPG,ISIC_0064026.JPG,false,1,keypress(m),500,684748.5,684748.200000003,682291.201,682298,682304.993,684752.2,8,400,19,,ISIC_1532403.JPG
break,html.Screen,4_118_1,2023-09-17T20:56:36.617Z,,0,,,NaN,,,,,,false,,,,684749.700000003,684749.3999999911,,684748.700000003,,684752.2,8,400,,,
break_continue,html.Screen,4_118_2,2023-09-17T20:56:36.618Z,,0,,,NaN,,,,,,false,,,,684750.3999999911,684750.200000003,,684749.799999997,,684752.2,8,400,,,
sequence,flow.Sequence,4_118,2023-09-17T20:56:36.618Z,,0,,,2445.2070000029635,completion,,,,,false,,,,684750.599999994,684750.200000003,682291.201,682297.8999999911,682304.993,684752.2,8,400,,,
trial,html.Screen,4_119_0,2023-09-17T20:56:39.011Z,,0,3,,2390.8000000000466,response,ISIC_0973194.JPG,5,ISIC_3649632.JPG,ISIC_3649632.JPG,false,0,keypress(z),500,687143.200000003,687143,684746.204,684750.799999997,684752.2,687146.328,8,400,20,,ISIC_0973194.JPG
break,html.Screen,4_119_1,2023-09-17T20:56:39.011Z,,0,,,NaN,,,,,,false,,,,687143.799999997,687143.599999994,,687143.299999997,,687146.328,8,400,,,
break_continue,html.Screen,4_119_2,2023-09-17T20:56:39.012Z,,0,,,NaN,,,,,,false,,,,687143.8999999911,687143.799999997,,687143.799999997,,687146.328,8,400,,,
sequence,flow.Sequence,4_119,2023-09-17T20:56:39.012Z,,0,,,2391.5999999970663,completion,,,,,false,,,,687144,687143.799999997,684746.204,684750.799999997,684752.2,687146.328,8,400,,,
trial,html.Screen,4_120_0,2023-09-17T20:56:41.461Z,,0,3,,2446.77199999406,response,ISIC_0031101.JPG,5,ISIC_0667763.JPG,ISIC_0031101.JPG,false,1,keypress(m),500,689593.299999997,689593.099999994,687139.83,687144,687146.328,689602.78,8,400,21,,ISIC_0667763.JPG
break,html.Screen,4_120_1,2023-09-17T20:56:41.462Z,,0,,,NaN,,,,,,false,,,,689594.200000003,689593.799999997,,689593.5,,689602.78,8,400,,,
break_continue,html.Screen,4_120_2,2023-09-17T20:56:41.462Z,,0,,,NaN,,,,,,false,,,,689594.700000003,689594.599999994,,689594.3999999911,,689602.78,8,400,,,
sequence,flow.Sequence,4_120,2023-09-17T20:56:41.463Z,,0,,,2448.27199999406,completion,,,,,false,,,,689594.799999997,689594.599999994,687139.83,687144,687146.328,689602.78,8,400,,,
trial,html.Screen,4_121_0,2023-09-17T20:56:43.864Z,,0,3,,2393.4200000029523,response,ISIC_0806303.JPG,6,ISIC_0000441.JPG,ISIC_0000441.JPG,false,0,keypress(z),500,691996.3999999911,691996.200000003,689588.51,689595,689602.78,692000.633,8,400,22,,ISIC_0806303.JPG
break,html.Screen,4_121_1,2023-09-17T20:56:43.865Z,,0,,,NaN,,,,,,false,,,,691997.099999994,691996.8999999911,,691996.599999994,,692000.633,8,400,,,
break_continue,html.Screen,4_121_2,2023-09-17T20:56:43.865Z,,0,,,NaN,,,,,,false,,,,691997.599999994,691997.3999999911,,691997.299999997,,692000.633,8,400,,,
sequence,flow.Sequence,4_121,2023-09-17T20:56:43.865Z,,0,,,2394.6199999910314,completion,,,,,false,,,,691997.799999997,691997.3999999911,689588.51,689595,689602.78,692000.633,8,400,,,
trial,html.Screen,4_122_0,2023-09-17T20:56:46.379Z,,0,3,,2510.0670000029495,response,ISIC_8297563.JPG,5,ISIC_0014422.JPG,ISIC_8297563.JPG,false,1,keypress(m),500,694511,694510.700000003,691994.337,691997.8999999911,692000.633,694515.782,8,400,23,,ISIC_0014422.JPG
break,html.Screen,4_122_1,2023-09-17T20:56:46.379Z,,0,,,NaN,,,,,,false,,,,694511.700000003,694511.5,,694511.099999994,,694515.782,8,400,,,
break_continue,html.Screen,4_122_2,2023-09-17T20:56:46.380Z,,0,,,NaN,,,,,,false,,,,694511.8999999911,694511.8999999911,,694511.700000003,,694515.782,8,400,,,
sequence,flow.Sequence,4_122,2023-09-17T20:56:46.380Z,,0,,,2511.2669999910286,completion,,,,,false,,,,694512,694511.8999999911,691994.337,691997.799999997,692000.633,694515.782,8,400,,,
trial,html.Screen,4_123_0,2023-09-17T20:56:48.814Z,,0,3,,2430.0179999970132,response,ISIC_0061454.JPG,5,ISIC_6148533.JPG,ISIC_6148533.JPG,false,0,keypress(z),500,696946.3999999911,696945.799999997,694509.93,694512.200000003,694515.782,696952.123,8,400,24,,ISIC_0061454.JPG
break,html.Screen,4_123_1,2023-09-17T20:56:48.815Z,,0,,,NaN,,,,,,false,,,,696947.3999999911,696947,,696946.700000003,,696952.123,8,400,,,
break_continue,html.Screen,4_123_2,2023-09-17T20:56:48.815Z,,0,,,NaN,,,,,,false,,,,696947.700000003,696947.599999994,,696947.5,,696952.123,8,400,,,
sequence,flow.Sequence,4_123,2023-09-17T20:56:48.816Z,,0,,,2431.817999994033,completion,,,,,false,,,,696947.799999997,696947.599999994,694509.93,694512.200000003,694515.782,696952.123,8,400,,,
trial,html.Screen,4_124_0,2023-09-17T20:56:51.635Z,,0,3,,2815.077000002959,response,ISIC_0024701.JPG,6,ISIC_7892362.JPG,ISIC_0024701.JPG,false,1,keypress(m),500,699767.5,699767.200000003,696945.783,696947.8999999911,696952.123,699770.357,8,400,25,,ISIC_7892362.JPG
break,html.Screen,4_124_1,2023-09-17T20:56:51.636Z,,0,,,NaN,,,,,,false,,,,699768.200000003,699768,,699767.599999994,,699770.357,8,400,,,
break_continue,html.Screen,4_124_2,2023-09-17T20:56:51.636Z,,0,,,NaN,,,,,,false,,,,699768.5,699768.3999999911,,699768.299999997,,699770.357,8,400,,,
sequence,flow.Sequence,4_124,2023-09-17T20:56:51.636Z,,0,,,2816.276999991038,completion,,,,,false,,,,699768.599999994,699768.3999999911,696945.783,696947.8999999911,696952.123,699770.357,8,400,,,
trial,html.Screen,4_125_0,2023-09-17T20:56:54.119Z,,0,3,,2480.3430000030203,response,ISIC_0008630.JPG,5,ISIC_7141361.JPG,ISIC_7141361.JPG,false,0,keypress(z),500,702250.8999999911,702250.700000003,699764.578,699768.799999997,699770.357,702255.25,8,400,26,,ISIC_0008630.JPG
break,html.Screen,4_125_1,2023-09-17T20:56:54.120Z,,0,,,NaN,,,,,,false,,,,702251.799999997,702251.5,,702251.099999994,,702255.25,8,400,,,
break_continue,html.Screen,4_125_2,2023-09-17T20:56:54.120Z,,0,,,NaN,,,,,,false,,,,702252.299999997,702252.200000003,,702252,,702255.25,8,400,,,
sequence,flow.Sequence,4_125,2023-09-17T20:56:54.120Z,,0,,,2481.8430000030203,completion,,,,,false,,,,702252.3999999911,702252.200000003,699764.578,699768.700000003,699770.357,702255.25,8,400,,,
trial,html.Screen,4_126_0,2023-09-17T20:56:56.762Z,,0,3,,2638.9500000029802,response,ISIC_0032598.JPG,4,ISIC_0032522.JPG,ISIC_0032522.JPG,false,0,keypress(z),500,704894.5,704894.200000003,702249.051,702252.5,702255.25,704897.662,8,400,27,,ISIC_0032598.JPG
break,html.Screen,4_126_1,2023-09-17T20:56:56.763Z,,0,,,NaN,,,,,,false,,,,704895,704894.8999999911,,704894.5,,704897.662,8,400,,,
break_continue,html.Screen,4_126_2,2023-09-17T20:56:56.763Z,,0,,,NaN,,,,,,false,,,,704895.200000003,704895.200000003,,704895.099999994,,704897.662,8,400,,,
sequence,flow.Sequence,4_126,2023-09-17T20:56:56.763Z,,0,,,2639.9500000029802,completion,,,,,false,,,,704895.299999997,704895.200000003,702249.051,702252.3999999911,702255.25,704897.662,8,400,,,
