sender,sender_type,sender_id,timestamp,meta,,blockNo,condition,duration,ended_on,img_left,img_reveal,img_right,loser,practice,response,response_action,selection_duration,time_commit,time_end,time_render,time_run,time_show,time_switch,total_blocks,total_trials,trialNo,url,winner
informed_consent,html.Screen,0,2023-11-01T23:01:21.443Z,"{""labjs_version"":""20.2.4"",""labjs_build"":{""flavor"":""production"",""commit"":""f5b4a49f956347addd546a832a3327688c2c0fef""},""location"":""https://run.pavlovia.org/MurrayBennett/melanoma-2afc/?participant=65878&platform=sona"",""userAgent"":""Mozilla/5.0 (Macintosh; Intel Mac OS X 10_15_7) AppleWebKit/537.36 (KHTML, like Gecko) Chrome/118.0.0.0 Safari/537.36"",""platform"":""MacIntel"",""language"":""en-US"",""locale"":""en-US"",""timeZone"":""America/Chicago"",""timezoneOffset"":300,""screen_width"":1440,""screen_height"":900,""scroll_width"":1291,""scroll_height"":672,""window_innerWidth"":1291,""window_innerHeight"":720,""devicePixelRatio"":2}",,,,5555.3700000022345,response,,,,,,consent,click button,,7682.300000000745,7678.400000002235,2106.364,2112.7000000029802,2123.03,7689.474,,,,"{""participant"":""65878"",""platform"":""sona""}",
Welcome,html.Screen,1,2023-11-01T23:01:44.376Z,,,,asymmetry,22922.926000002233,response,,,,,,continue,click button,,30616.10000000149,30612.400000002235,7672.808,7682.70000000298,7689.474,30622.694,,,,,
trial,html.Screen,2_0_0,2023-11-01T23:01:47.603Z,,0,0,,3220.2060000022357,response,ISIC_0069348.JPG,,ISIC_6997061.JPG,ISIC_6997061.JPG,true,0,keypress(z),500,33843.300000000745,33842.900000002235,30606.028,30616.5,30622.694,33855.898,1,6,1,,ISIC_0069348.JPG
sequence,flow.Sequence,2_0,2023-11-01T23:01:47.603Z,,0,,,3220.2060000022357,completion,,,,,true,,,,33843.5,33842.900000002235,30606.028,30616.400000002235,30622.694,33855.898,1,6,,,
trial,html.Screen,2_1_0,2023-11-01T23:01:50.569Z,,0,0,,2952.601999999999,response,ISIC_0057368.JPG,,ISIC_0009529.JPG,ISIC_0009529.JPG,true,0,keypress(z),500,36809,36808.5,33839.232,33843.60000000149,33855.898,36824.08,1,6,2,,ISIC_0057368.JPG
sequence,flow.Sequence,2_1,2023-11-01T23:01:50.569Z,,0,,,2952.601999999999,completion,,,,,true,,,,36809.5,36808.5,33839.232,33843.60000000149,33855.898,36824.08,1,6,,,
trial,html.Screen,2_2_0,2023-11-01T23:01:53.439Z,,0,0,,2855.1200000029785,response,ISIC_9758671.JPG,,ISIC_0064954.JPG,ISIC_0064954.JPG,true,0,keypress(z),500,39679.800000000745,39679.20000000298,36807.414,36809.70000000298,36824.08,39690.632,1,6,3,,ISIC_9758671.JPG
sequence,flow.Sequence,2_2,2023-11-01T23:01:53.440Z,,0,,,2855.1200000029785,completion,,,,,true,,,,39680.20000000298,39679.20000000298,36807.414,36809.60000000149,36824.08,39690.632,1,6,,,
trial,html.Screen,2_3_0,2023-11-01T23:01:55.972Z,,0,0,,2521.7680000022374,response,ISIC_0000080.JPG,,ISIC_0005785.JPG,ISIC_0000080.JPG,true,1,keypress(m),500,42212.800000000745,42212.400000002235,39673.966,39680.60000000149,39690.632,42223.864,1,6,4,,ISIC_0005785.JPG
sequence,flow.Sequence,2_3,2023-11-01T23:01:55.973Z,,0,,,2521.7680000022374,completion,,,,,true,,,,42213.400000002235,42212.400000002235,39673.966,39680.5,39690.632,42223.864,1,6,,,
trial,html.Screen,2_4_0,2023-11-01T23:01:58.749Z,,0,0,,2765.4360000007437,response,ISIC_7944028.JPG,,ISIC_5390060.JPG,ISIC_7944028.JPG,true,1,keypress(m),500,44989.70000000298,44989.300000000745,42207.198,42213.70000000298,42223.864,45007.086,1,6,5,,ISIC_5390060.JPG
sequence,flow.Sequence,2_4,2023-11-01T23:01:58.750Z,,0,,,2765.4360000007437,completion,,,,,true,,,,44990.300000000745,44989.300000000745,42207.198,42213.60000000149,42223.864,45007.086,1,6,,,
trial,html.Screen,2_5_0,2023-11-01T23:02:02.534Z,,0,0,,3767.314000002232,response,ISIC_0794216.JPG,,ISIC_0010188.JPG,ISIC_0794216.JPG,true,1,keypress(m),500,48775,48774.400000002235,44990.42,44990.5,45007.086,48790.944,1,6,6,,ISIC_0010188.JPG
sequence,flow.Sequence,2_5,2023-11-01T23:02:02.535Z,,0,,,3767.314000002232,completion,,,,,true,,,,48775.5,48774.400000002235,44990.42,44990.400000002235,45007.086,48790.944,1,6,,,
loop,flow.Loop,2,2023-11-01T23:02:02.535Z,,,,,18151.706000002236,completion,,,,,true,,,,48775.800000000745,48774.400000002235,30606.028,30616.300000000745,30622.694,48790.944,1,6,,,
exp_instructions,html.Screen,3,2023-11-01T23:03:24.915Z,,,,,82360.45600000223,response,,,,,,continue,keypress(Space),,131157.6000000015,131151.40000000224,48774.278,48776,48790.944,131159.363,,,,,
trial,html.Screen,4_0_0,2023-11-01T23:03:27.630Z,,0,1,,2713.437000000733,response,ISIC_1870415.JPG,8,ISIC_7295035.JPG,ISIC_7295035.JPG,false,0,keypress(z),500,133873.20000000298,133872.80000000075,131142.697,131157.90000000224,131159.363,133875.921,8,400,1,,ISIC_1870415.JPG
break,html.Screen,4_0_1,2023-11-01T23:03:27.632Z,,0,,,NaN,,,,,,false,,,,133874.90000000224,133874.6000000015,,133873.40000000224,,133875.921,8,400,,,
break_continue,html.Screen,4_0_2,2023-11-01T23:03:27.632Z,,0,,,NaN,,,,,,false,,,,133875.40000000224,133875.20000000298,,133875.1000000015,,133875.921,8,400,,,
sequence,flow.Sequence,4_0,2023-11-01T23:03:27.633Z,,0,,,2715.837000002968,completion,,,,,false,,,,133875.5,133875.20000000298,131142.697,131157.90000000224,131159.363,133875.921,8,400,,,
trial,html.Screen,4_1_0,2023-11-01T23:03:30.311Z,,0,1,,2676.879000000743,response,ISIC_9772383.JPG,5,ISIC_7260977.JPG,ISIC_9772383.JPG,false,1,keypress(m),500,136553.5,136552.80000000075,133859.255,133875.6000000015,133875.921,136559.983,8,400,2,,ISIC_7260977.JPG
break,html.Screen,4_1_1,2023-11-01T23:03:30.312Z,,0,,,NaN,,,,,,false,,,,136555.1000000015,136554.80000000075,,136553.90000000224,,136559.983,8,400,,,
break_continue,html.Screen,4_1_2,2023-11-01T23:03:30.312Z,,0,,,NaN,,,,,,false,,,,136555.40000000224,136555.30000000075,,136555.20000000298,,136559.983,8,400,,,
sequence,flow.Sequence,4_1,2023-11-01T23:03:30.313Z,,0,,,2679.379000000743,completion,,,,,false,,,,136555.6000000015,136555.30000000075,133859.255,133875.6000000015,133875.921,136559.983,8,400,,,
trial,html.Screen,4_2_0,2023-11-01T23:03:33.120Z,,0,1,,2803.0169999999925,response,ISIC_8651765.JPG,8,ISIC_0032672.JPG,ISIC_8651765.JPG,false,1,keypress(m),500,139363.5,139363,136543.317,136555.70000000298,136559.983,139376.537,8,400,3,,ISIC_0032672.JPG
break,html.Screen,4_2_1,2023-11-01T23:03:33.122Z,,0,,,NaN,,,,,,false,,,,139365,139364.70000000298,,139363.70000000298,,139376.537,8,400,,,
break_continue,html.Screen,4_2_2,2023-11-01T23:03:33.122Z,,0,,,NaN,,,,,,false,,,,139365.5,139365.30000000075,,139365.1000000015,,139376.537,8,400,,,
sequence,flow.Sequence,4_2,2023-11-01T23:03:33.123Z,,0,,,2805.3170000007376,completion,,,,,false,,,,139365.6000000015,139365.30000000075,136543.317,136555.6000000015,136559.983,139376.537,8,400,,,
trial,html.Screen,4_3_0,2023-11-01T23:03:35.769Z,,0,1,,2633.962999999989,response,ISIC_0010278.JPG,7,ISIC_0034268.JPG,ISIC_0034268.JPG,false,0,keypress(z),500,142012.30000000075,142010.5,139359.871,139365.80000000075,139376.537,142026.431,8,400,4,,ISIC_0010278.JPG
break,html.Screen,4_3_1,2023-11-01T23:03:35.770Z,,0,,,NaN,,,,,,false,,,,142013.5,142013.30000000075,,142012.6000000015,,142026.431,8,400,,,
break_continue,html.Screen,4_3_2,2023-11-01T23:03:35.771Z,,0,,,NaN,,,,,,false,,,,142013.90000000224,142013.80000000075,,142013.70000000298,,142026.431,8,400,,,
sequence,flow.Sequence,4_3,2023-11-01T23:03:35.771Z,,0,,,2637.263000000734,completion,,,,,false,,,,142014.1000000015,142013.80000000075,139359.871,139365.80000000075,139376.537,142026.431,8,400,,,
trial,html.Screen,4_4_0,2023-11-01T23:03:38.356Z,,0,1,,2572.0689999999886,response,ISIC_0667763.JPG,6,ISIC_4382115.JPG,ISIC_4382115.JPG,false,0,keypress(z),500,144599,144598.5,142009.765,142014.20000000298,142026.431,144610.376,8,400,5,,ISIC_0667763.JPG
break,html.Screen,4_4_1,2023-11-01T23:03:38.357Z,,0,,,NaN,,,,,,false,,,,144600.6000000015,144600.40000000224,,144599.30000000075,,144610.376,8,400,,,
break_continue,html.Screen,4_4_2,2023-11-01T23:03:38.358Z,,0,,,NaN,,,,,,false,,,,144601.1000000015,144601,,144600.80000000075,,144610.376,8,400,,,
sequence,flow.Sequence,4_4,2023-11-01T23:03:38.358Z,,0,,,2574.5689999999886,completion,,,,,false,,,,144601.30000000075,144601,142009.765,142014.1000000015,142026.431,144610.376,8,400,,,
trial,html.Screen,4_5_0,2023-11-01T23:03:41.229Z,,0,1,,2861.824000002991,response,ISIC_0011627.JPG,8,ISIC_6577632.JPG,ISIC_0011627.JPG,false,1,keypress(m),500,147472.6000000015,147472.20000000298,144593.71,144601.5,144610.376,147476.928,8,400,6,,ISIC_6577632.JPG
break,html.Screen,4_5_1,2023-11-01T23:03:41.231Z,,0,,,NaN,,,,,,false,,,,147474.1000000015,147473.80000000075,,147472.90000000224,,147476.928,8,400,,,
break_continue,html.Screen,4_5_2,2023-11-01T23:03:41.231Z,,0,,,NaN,,,,,,false,,,,147474.5,147474.40000000224,,147474.20000000298,,147476.928,8,400,,,
sequence,flow.Sequence,4_5,2023-11-01T23:03:41.232Z,,0,,,2864.024000002246,completion,,,,,false,,,,147474.70000000298,147474.40000000224,144593.71,144601.40000000224,144610.376,147476.928,8,400,,,
trial,html.Screen,4_6_0,2023-11-01T23:03:43.989Z,,0,1,,2754.772000002966,response,ISIC_2245325.JPG,6,ISIC_7667157.JPG,ISIC_2245325.JPG,false,1,keypress(m),500,150232.20000000298,150231.70000000298,147460.262,147474.90000000224,147476.928,150243.484,8,400,7,,ISIC_7667157.JPG
break,html.Screen,4_6_1,2023-11-01T23:03:43.990Z,,0,,,NaN,,,,,,false,,,,150233.70000000298,150233.40000000224,,150232.5,,150243.484,8,400,,,
break_continue,html.Screen,4_6_2,2023-11-01T23:03:43.991Z,,0,,,NaN,,,,,,false,,,,150234.1000000015,150234,,150233.80000000075,,150243.484,8,400,,,
sequence,flow.Sequence,4_6,2023-11-01T23:03:43.991Z,,0,,,2757.0719999999856,completion,,,,,false,,,,150234.40000000224,150234,147460.262,147474.90000000224,147476.928,150243.484,8,400,,,
trial,html.Screen,4_7_0,2023-11-01T23:03:46.779Z,,0,1,,2778.3160000007483,response,ISIC_0012150.JPG,8,ISIC_0060390.JPG,ISIC_0012150.JPG,false,1,keypress(m),500,153022.20000000298,153021.80000000075,150226.818,150234.5,150243.484,153026.706,8,400,8,,ISIC_0060390.JPG
break,html.Screen,4_7_1,2023-11-01T23:03:46.780Z,,0,,,NaN,,,,,,false,,,,153023.30000000075,153023,,153022.40000000224,,153026.706,8,400,,,
break_continue,html.Screen,4_7_2,2023-11-01T23:03:46.780Z,,0,,,NaN,,,,,,false,,,,153023.5,153023.5,,153023.40000000224,,153026.706,8,400,,,
sequence,flow.Sequence,4_7,2023-11-01T23:03:46.780Z,,0,,,2780.0160000000033,completion,,,,,false,,,,153023.6000000015,153023.5,150226.818,150234.40000000224,150243.484,153026.706,8,400,,,
trial,html.Screen,4_8_0,2023-11-01T23:03:49.345Z,,0,1,,2561.3940000014845,response,ISIC_9756858.JPG,7,ISIC_0033524.JPG,ISIC_9756858.JPG,false,1,keypress(m),500,155588.6000000015,155588.1000000015,153010.04,153023.80000000075,153026.706,155593.931,8,400,9,,ISIC_0033524.JPG
break,html.Screen,4_8_1,2023-11-01T23:03:49.347Z,,0,,,NaN,,,,,,false,,,,155590.1000000015,155589.80000000075,,155588.90000000224,,155593.931,8,400,,,
break_continue,html.Screen,4_8_2,2023-11-01T23:03:49.347Z,,0,,,NaN,,,,,,false,,,,155590.5,155590.30000000075,,155590.20000000298,,155593.931,8,400,,,
sequence,flow.Sequence,4_8,2023-11-01T23:03:49.347Z,,0,,,2563.5940000007395,completion,,,,,false,,,,155590.6000000015,155590.30000000075,153010.04,153023.6000000015,153026.706,155593.931,8,400,,,
trial,html.Screen,4_9_0,2023-11-01T23:03:52.190Z,,0,1,,2838.5689999999886,response,ISIC_8664718.JPG,8,ISIC_5620802.JPG,ISIC_5620802.JPG,false,0,keypress(z),500,158433,158432.5,155577.265,155590.80000000075,155593.931,158443.817,8,400,10,,ISIC_8664718.JPG
break,html.Screen,4_9_1,2023-11-01T23:03:52.191Z,,0,,,NaN,,,,,,false,,,,158434.40000000224,158434.20000000298,,158433.30000000075,,158443.817,8,400,,,
break_continue,html.Screen,4_9_2,2023-11-01T23:03:52.191Z,,0,,,NaN,,,,,,false,,,,158434.80000000075,158434.70000000298,,158434.6000000015,,158443.817,8,400,,,
sequence,flow.Sequence,4_9,2023-11-01T23:03:52.192Z,,0,,,2840.769000002969,completion,,,,,false,,,,158435,158434.70000000298,155577.265,155590.70000000298,155593.931,158443.817,8,400,,,
trial,html.Screen,4_10_0,2023-11-01T23:03:55.378Z,,0,1,,3177.18299999999,response,ISIC_4052597.JPG,8,ISIC_0014489.JPG,ISIC_4052597.JPG,false,1,keypress(m),500,161621.5,161621,158427.151,158435.20000000298,158443.817,161627.023,8,400,11,,ISIC_0014489.JPG
break,html.Screen,4_10_1,2023-11-01T23:03:55.379Z,,0,,,NaN,,,,,,false,,,,161622.90000000224,161622.70000000298,,161621.80000000075,,161627.023,8,400,,,
break_continue,html.Screen,4_10_2,2023-11-01T23:03:55.380Z,,0,,,NaN,,,,,,false,,,,161623.40000000224,161623.20000000298,,161623.1000000015,,161627.023,8,400,,,
sequence,flow.Sequence,4_10,2023-11-01T23:03:55.380Z,,0,,,3179.38300000297,completion,,,,,false,,,,161623.6000000015,161623.20000000298,158427.151,158435.20000000298,158443.817,161627.023,8,400,,,
trial,html.Screen,4_11_0,2023-11-01T23:03:58.184Z,,0,1,,2800.6770000029937,response,ISIC_9126992.JPG,6,ISIC_0055781.JPG,ISIC_9126992.JPG,false,1,keypress(m),500,164428.1000000015,164427.70000000298,161610.357,161623.80000000075,161627.023,164443.577,8,400,12,,ISIC_0055781.JPG
break,html.Screen,4_11_1,2023-11-01T23:03:58.186Z,,0,,,NaN,,,,,,false,,,,164429.5,164429.30000000075,,164428.40000000224,,164443.577,8,400,,,
break_continue,html.Screen,4_11_2,2023-11-01T23:03:58.186Z,,0,,,NaN,,,,,,false,,,,164430,164429.80000000075,,164429.6000000015,,164443.577,8,400,,,
sequence,flow.Sequence,4_11,2023-11-01T23:03:58.186Z,,0,,,2802.7770000007586,completion,,,,,false,,,,164430.20000000298,164429.80000000075,161610.357,161623.70000000298,161627.023,164443.577,8,400,,,
trial,html.Screen,4_12_0,2023-11-01T23:04:00.756Z,,0,1,,2556.0230000015,response,ISIC_0056292.JPG,8,ISIC_0070092.JPG,ISIC_0070092.JPG,false,0,keypress(z),500,167000.1000000015,166999.6000000015,164426.911,164430.40000000224,164443.577,167010.834,8,400,13,,ISIC_0056292.JPG
break,html.Screen,4_12_1,2023-11-01T23:04:00.758Z,,0,,,NaN,,,,,,false,,,,167001.30000000075,167001.1000000015,,167000.40000000224,,167010.834,8,400,,,
break_continue,html.Screen,4_12_2,2023-11-01T23:04:00.758Z,,0,,,NaN,,,,,,false,,,,167001.80000000075,167001.80000000075,,167001.6000000015,,167010.834,8,400,,,
sequence,flow.Sequence,4_12,2023-11-01T23:04:00.758Z,,0,,,2558.223000000755,completion,,,,,false,,,,167002,167001.80000000075,164426.911,164430.20000000298,164443.577,167010.834,8,400,,,
trial,html.Screen,4_13_0,2023-11-01T23:04:03.580Z,,0,1,,2812.7660000014876,response,ISIC_9348399.JPG,7,ISIC_0817654.JPG,ISIC_9348399.JPG,false,1,keypress(m),500,169824,169823.6000000015,166994.168,167002.20000000298,167010.834,169827.388,8,400,14,,ISIC_0817654.JPG
break,html.Screen,4_13_1,2023-11-01T23:04:03.582Z,,0,,,NaN,,,,,,false,,,,169825.5,169825.20000000298,,169824.30000000075,,169827.388,8,400,,,
break_continue,html.Screen,4_13_2,2023-11-01T23:04:03.582Z,,0,,,NaN,,,,,,false,,,,169825.90000000224,169825.80000000075,,169825.5,,169827.388,8,400,,,
sequence,flow.Sequence,4_13,2023-11-01T23:04:03.582Z,,0,,,2814.9660000007425,completion,,,,,false,,,,169826.1000000015,169825.80000000075,166994.168,167002.1000000015,167010.834,169827.388,8,400,,,
trial,html.Screen,4_14_0,2023-11-01T23:04:06.280Z,,0,1,,2696.4120000007388,response,ISIC_4923095.JPG,6,ISIC_1952749.JPG,ISIC_4923095.JPG,false,1,keypress(m),500,172524.20000000298,172523.80000000075,169810.722,169826.30000000075,169827.388,172527.28,8,400,15,,ISIC_1952749.JPG
break,html.Screen,4_14_1,2023-11-01T23:04:06.282Z,,0,,,NaN,,,,,,false,,,,172525.70000000298,172525.40000000224,,172524.6000000015,,172527.28,8,400,,,
break_continue,html.Screen,4_14_2,2023-11-01T23:04:06.282Z,,0,,,NaN,,,,,,false,,,,172526.20000000298,172526,,172525.90000000224,,172527.28,8,400,,,
sequence,flow.Sequence,4_14,2023-11-01T23:04:06.282Z,,0,,,2698.6119999999937,completion,,,,,false,,,,172526.30000000075,172526,169810.722,169826.20000000298,169827.388,172527.28,8,400,,,
trial,html.Screen,4_15_0,2023-11-01T23:04:09.007Z,,0,1,,2723.720000000001,response,ISIC_0070003.JPG,8,ISIC_0027420.JPG,ISIC_0070003.JPG,false,1,keypress(m),500,175251.5,175251,172510.614,172526.5,172527.28,175261.191,8,400,16,,ISIC_0027420.JPG
break,html.Screen,4_15_1,2023-11-01T23:04:09.009Z,,0,,,NaN,,,,,,false,,,,175252.90000000224,175252.6000000015,,175251.70000000298,,175261.191,8,400,,,
break_continue,html.Screen,4_15_2,2023-11-01T23:04:09.009Z,,0,,,NaN,,,,,,false,,,,175253.30000000075,175253.20000000298,,175253,,175261.191,8,400,,,
sequence,flow.Sequence,4_15,2023-11-01T23:04:09.010Z,,0,,,2725.9200000029814,completion,,,,,false,,,,175253.6000000015,175253.20000000298,172510.614,172526.5,172527.28,175261.191,8,400,,,
trial,html.Screen,4_16_0,2023-11-01T23:04:11.928Z,,0,1,,2910.1090000007534,response,ISIC_8663136.JPG,6,ISIC_7299025.JPG,ISIC_8663136.JPG,false,1,keypress(m),500,178171.70000000298,178171.30000000075,175244.525,175253.70000000298,175261.191,178177.741,8,400,17,,ISIC_7299025.JPG
break,html.Screen,4_16_1,2023-11-01T23:04:11.929Z,,0,,,NaN,,,,,,false,,,,178173.1000000015,178172.80000000075,,178172,,178177.741,8,400,,,
break_continue,html.Screen,4_16_2,2023-11-01T23:04:11.930Z,,0,,,NaN,,,,,,false,,,,178173.6000000015,178173.5,,178173.20000000298,,178177.741,8,400,,,
sequence,flow.Sequence,4_16,2023-11-01T23:04:11.930Z,,0,,,2912.3090000000084,completion,,,,,false,,,,178173.70000000298,178173.5,175244.525,175253.6000000015,175261.191,178177.741,8,400,,,
trial,html.Screen,4_17_0,2023-11-01T23:04:14.588Z,,0,1,,2653.959000002971,response,ISIC_2532544.JPG,7,ISIC_3975743.JPG,ISIC_3975743.JPG,false,0,keypress(z),500,180832.30000000075,180831.70000000298,178161.075,178173.90000000224,178177.741,180844.301,8,400,18,,ISIC_2532544.JPG
break,html.Screen,4_17_1,2023-11-01T23:04:14.590Z,,0,,,NaN,,,,,,false,,,,180833.70000000298,180833.40000000224,,180832.5,,180844.301,8,400,,,
break_continue,html.Screen,4_17_2,2023-11-01T23:04:14.590Z,,0,,,NaN,,,,,,false,,,,180834.20000000298,180834.1000000015,,180833.90000000224,,180844.301,8,400,,,
sequence,flow.Sequence,4_17,2023-11-01T23:04:14.591Z,,0,,,2656.359000001481,completion,,,,,false,,,,180835.5,180834.1000000015,178161.075,178173.90000000224,178177.741,180844.301,8,400,,,
trial,html.Screen,4_18_0,2023-11-01T23:04:17.093Z,,0,1,,2492.0990000022284,response,ISIC_0029736.JPG,7,ISIC_0066952.JPG,ISIC_0029736.JPG,false,1,keypress(m),500,183336.80000000075,183336.40000000224,180827.635,180835.6000000015,180844.301,183344.201,8,400,19,,ISIC_0066952.JPG
break,html.Screen,4_18_1,2023-11-01T23:04:17.094Z,,0,,,NaN,,,,,,false,,,,183338.40000000224,183338.1000000015,,183337.1000000015,,183344.201,8,400,,,
break_continue,html.Screen,4_18_2,2023-11-01T23:04:17.095Z,,0,,,NaN,,,,,,false,,,,183338.80000000075,183338.80000000075,,183338.5,,183344.201,8,400,,,
sequence,flow.Sequence,4_18,2023-11-01T23:04:17.095Z,,0,,,2494.4990000007383,completion,,,,,false,,,,183339,183338.80000000075,180827.635,180835.6000000015,180844.301,183344.201,8,400,,,
trial,html.Screen,4_19_0,2023-11-01T23:04:19.932Z,,0,1,,2831.9990000029793,response,ISIC_0066518.JPG,8,ISIC_0025138.JPG,ISIC_0066518.JPG,false,1,keypress(m),500,186176.6000000015,186176.20000000298,183327.535,183339.20000000298,183344.201,186178.094,8,400,20,,ISIC_0025138.JPG
break,html.Screen,4_19_1,2023-11-01T23:04:19.934Z,,0,,,NaN,,,,,,false,,,,186178,186177.70000000298,,186176.90000000224,,186178.094,8,400,,,
break_continue,html.Screen,4_19_2,2023-11-01T23:04:19.934Z,,0,,,NaN,,,,,,false,,,,186178.6000000015,186178.5,,186178.20000000298,,186178.094,8,400,,,
sequence,flow.Sequence,4_19,2023-11-01T23:04:19.935Z,,0,,,2834.298999999999,completion,,,,,false,,,,186178.80000000075,186178.5,183327.535,183339.20000000298,183344.201,186178.094,8,400,,,
trial,html.Screen,4_20_0,2023-11-01T23:04:22.854Z,,0,1,,2919.3060000022233,response,ISIC_5910975.JPG,5,ISIC_2559074.JPG,ISIC_5910975.JPG,false,1,keypress(m),500,189097.90000000224,189097.40000000224,186161.428,186178.90000000224,186178.094,189111.31,8,400,21,,ISIC_2559074.JPG
break,html.Screen,4_20_1,2023-11-01T23:04:22.855Z,,0,,,NaN,,,,,,false,,,,189099.30000000075,189099.1000000015,,189098.20000000298,,189111.31,8,400,,,
break_continue,html.Screen,4_20_2,2023-11-01T23:04:22.855Z,,0,,,NaN,,,,,,false,,,,189099.70000000298,189099.6000000015,,189099.5,,189111.31,8,400,,,
sequence,flow.Sequence,4_20,2023-11-01T23:04:22.856Z,,0,,,2921.5060000014782,completion,,,,,false,,,,189099.90000000224,189099.6000000015,186161.428,186178.80000000075,186178.094,189111.31,8,400,,,
trial,html.Screen,4_21_0,2023-11-01T23:04:26.447Z,,0,1,,3579.6900000000023,response,ISIC_7052658.JPG,6,ISIC_0028207.JPG,ISIC_0028207.JPG,false,0,keypress(z),500,192691.5,192691,189094.644,189100.1000000015,189111.31,192694.5,8,400,22,,ISIC_7052658.JPG
break,html.Screen,4_21_1,2023-11-01T23:04:26.449Z,,0,,,NaN,,,,,,false,,,,192693.1000000015,192692.80000000075,,192691.80000000075,,192694.5,8,400,,,
break_continue,html.Screen,4_21_2,2023-11-01T23:04:26.449Z,,0,,,NaN,,,,,,false,,,,192693.40000000224,192693.40000000224,,192693.20000000298,,192694.5,8,400,,,
sequence,flow.Sequence,4_21,2023-11-01T23:04:26.449Z,,0,,,3582.0900000022375,completion,,,,,false,,,,192693.6000000015,192693.40000000224,189094.644,189100,189111.31,192694.5,8,400,,,
trial,html.Screen,4_22_0,2023-11-01T23:04:29.268Z,,0,1,,2817.400000002235,response,ISIC_8477065.JPG,9,ISIC_3685955.JPG,ISIC_8477065.JPG,false,1,keypress(m),500,195512.40000000224,195511.90000000224,192677.834,192693.80000000075,192694.5,195528.343,8,400,23,,ISIC_3685955.JPG
break,html.Screen,4_22_1,2023-11-01T23:04:29.271Z,,0,,,NaN,,,,,,false,,,,195515.1000000015,195514.90000000224,,195514,,195528.343,8,400,,,
break_continue,html.Screen,4_22_2,2023-11-01T23:04:29.271Z,,0,,,NaN,,,,,,false,,,,195515.6000000015,195515.5,,195515.30000000075,,195528.343,8,400,,,
sequence,flow.Sequence,4_22,2023-11-01T23:04:29.271Z,,0,,,2821,completion,,,,,false,,,,195515.70000000298,195515.5,192677.834,192693.6000000015,192694.5,195528.343,8,400,,,
trial,html.Screen,4_23_0,2023-11-01T23:04:31.854Z,,0,1,,2569.3570000029868,response,ISIC_0065133.JPG,7,ISIC_9786863.JPG,ISIC_0065133.JPG,false,1,keypress(m),500,198098.20000000298,198097.70000000298,195511.677,195515.90000000224,195528.343,198111.573,8,400,24,,ISIC_9786863.JPG
break,html.Screen,4_23_1,2023-11-01T23:04:31.855Z,,0,,,NaN,,,,,,false,,,,198099.6000000015,198099.30000000075,,198098.5,,198111.573,8,400,,,
break_continue,html.Screen,4_23_2,2023-11-01T23:04:31.855Z,,0,,,NaN,,,,,,false,,,,198100,198099.90000000224,,198099.70000000298,,198111.573,8,400,,,
sequence,flow.Sequence,4_23,2023-11-01T23:04:31.856Z,,0,,,2571.5570000022417,completion,,,,,false,,,,198100.20000000298,198099.90000000224,195511.677,195515.80000000075,195528.343,198111.573,8,400,,,
trial,html.Screen,4_24_0,2023-11-01T23:04:34.451Z,,0,1,,2583.6270000029763,response,ISIC_4446385.JPG,8,ISIC_6809586.JPG,ISIC_4446385.JPG,false,1,keypress(m),500,200695.70000000298,200695.20000000298,198094.907,198100.30000000075,198111.573,200711.469,8,400,25,,ISIC_6809586.JPG
break,html.Screen,4_24_1,2023-11-01T23:04:34.453Z,,0,,,NaN,,,,,,false,,,,200697.40000000224,200697,,200696,,200711.469,8,400,,,
break_continue,html.Screen,4_24_2,2023-11-01T23:04:34.453Z,,0,,,NaN,,,,,,false,,,,200697.80000000075,200697.70000000298,,200697.5,,200711.469,8,400,,,
sequence,flow.Sequence,4_24,2023-11-01T23:04:34.453Z,,0,,,2586.1270000029763,completion,,,,,false,,,,200697.90000000224,200697.70000000298,198094.907,198100.30000000075,198111.573,200711.469,8,400,,,
trial,html.Screen,4_25_0,2023-11-01T23:04:37.738Z,,0,1,,3271.331000000733,response,ISIC_4363603.JPG,8,ISIC_7096389.JPG,ISIC_4363603.JPG,false,1,keypress(m),500,203983.20000000298,203982.80000000075,200694.803,200698.1000000015,200711.469,203994.671,8,400,26,,ISIC_7096389.JPG
break,html.Screen,4_25_1,2023-11-01T23:04:37.740Z,,0,,,NaN,,,,,,false,,,,203984.70000000298,203984.5,,203983.5,,203994.671,8,400,,,
break_continue,html.Screen,4_25_2,2023-11-01T23:04:37.740Z,,0,,,NaN,,,,,,false,,,,203985.20000000298,203985,,203984.80000000075,,203994.671,8,400,,,
sequence,flow.Sequence,4_25,2023-11-01T23:04:37.741Z,,0,,,3273.530999999988,completion,,,,,false,,,,203985.40000000224,203985,200694.803,200698,200711.469,203994.671,8,400,,,
trial,html.Screen,4_26_0,2023-11-01T23:04:41.668Z,,0,1,,3917.929000001488,response,ISIC_6670242.JPG,7,ISIC_0536321.JPG,ISIC_0536321.JPG,false,0,keypress(z),500,207913.20000000298,207912.6000000015,203978.005,203985.5,203994.671,207928.565,8,400,27,,ISIC_6670242.JPG
break,html.Screen,4_26_1,2023-11-01T23:04:41.670Z,,0,,,NaN,,,,,,false,,,,207914.6000000015,207914.30000000075,,207913.5,,207928.565,8,400,,,
break_continue,html.Screen,4_26_2,2023-11-01T23:04:41.670Z,,0,,,NaN,,,,,,false,,,,207915,207914.90000000224,,207914.70000000298,,207928.565,8,400,,,
sequence,flow.Sequence,4_26,2023-11-01T23:04:41.670Z,,0,,,3920.229000002233,completion,,,,,false,,,,207915.20000000298,207914.90000000224,203978.005,203985.5,203994.671,207928.565,8,400,,,
trial,html.Screen,4_27_0,2023-11-01T23:04:44.634Z,,0,1,,2950.2350000007427,response,ISIC_9751013.JPG,8,ISIC_8755163.JPG,ISIC_8755163.JPG,false,0,keypress(z),500,210879.20000000298,210878.80000000075,207911.899,207915.30000000075,207928.565,210895.113,8,400,28,,ISIC_9751013.JPG
break,html.Screen,4_27_1,2023-11-01T23:04:44.635Z,,0,,,NaN,,,,,,false,,,,210880.20000000298,210880,,210879.40000000224,,210895.113,8,400,,,
break_continue,html.Screen,4_27_2,2023-11-01T23:04:44.636Z,,0,,,NaN,,,,,,false,,,,210880.5,210880.40000000224,,210880.40000000224,,210895.113,8,400,,,
sequence,flow.Sequence,4_27,2023-11-01T23:04:44.636Z,,0,,,2951.835000002233,completion,,,,,false,,,,210880.70000000298,210880.40000000224,207911.899,207915.30000000075,207928.565,210895.113,8,400,,,
trial,html.Screen,4_28_0,2023-11-01T23:04:47.377Z,,0,1,,2726.087000002968,response,ISIC_0028554.JPG,7,ISIC_1684829.JPG,ISIC_1684829.JPG,false,0,keypress(z),500,213621.6000000015,213621.20000000298,210878.447,210880.80000000075,210895.113,213628.337,8,400,29,,ISIC_0028554.JPG
break,html.Screen,4_28_1,2023-11-01T23:04:47.378Z,,0,,,NaN,,,,,,false,,,,213623.1000000015,213622.90000000224,,213621.90000000224,,213628.337,8,400,,,
break_continue,html.Screen,4_28_2,2023-11-01T23:04:47.379Z,,0,,,NaN,,,,,,false,,,,213623.6000000015,213623.40000000224,,213623.20000000298,,213628.337,8,400,,,
sequence,flow.Sequence,4_28,2023-11-01T23:04:47.379Z,,0,,,2728.287000002223,completion,,,,,false,,,,213623.70000000298,213623.40000000224,210878.447,210880.80000000075,210895.113,213628.337,8,400,,,
trial,html.Screen,4_29_0,2023-11-01T23:04:49.991Z,,0,1,,2607.1630000000005,response,ISIC_2153401.JPG,8,ISIC_0033021.JPG,ISIC_0033021.JPG,false,0,keypress(z),500,216236,216235.5,213611.671,213623.90000000224,213628.337,216245.575,8,400,30,,ISIC_2153401.JPG
break,html.Screen,4_29_1,2023-11-01T23:04:49.992Z,,0,,,NaN,,,,,,false,,,,216237.40000000224,216237.20000000298,,216236.30000000075,,216245.575,8,400,,,
break_continue,html.Screen,4_29_2,2023-11-01T23:04:49.993Z,,0,,,NaN,,,,,,false,,,,216237.90000000224,216237.80000000075,,216237.6000000015,,216245.575,8,400,,,
sequence,flow.Sequence,4_29,2023-11-01T23:04:49.993Z,,0,,,2609.4630000007455,completion,,,,,false,,,,216238.1000000015,216237.80000000075,213611.671,213623.80000000075,213628.337,216245.575,8,400,,,
trial,html.Screen,4_30_0,2023-11-01T23:04:52.863Z,,0,1,,2861.6250000029686,response,ISIC_0029993.JPG,7,ISIC_0156642.JPG,ISIC_0029993.JPG,false,1,keypress(m),500,219107.80000000075,219107.20000000298,216228.909,216238.40000000224,216245.575,219112.127,8,400,31,,ISIC_0156642.JPG
break,html.Screen,4_30_1,2023-11-01T23:04:52.864Z,,0,,,NaN,,,,,,false,,,,219109.20000000298,219108.90000000224,,219108,,219112.127,8,400,,,
break_continue,html.Screen,4_30_2,2023-11-01T23:04:52.865Z,,0,,,NaN,,,,,,false,,,,219109.70000000298,219109.6000000015,,219109.40000000224,,219112.127,8,400,,,
sequence,flow.Sequence,4_30,2023-11-01T23:04:52.865Z,,0,,,2864.0250000014785,completion,,,,,false,,,,219109.90000000224,219109.6000000015,216228.909,216238.30000000075,216245.575,219112.127,8,400,,,
trial,html.Screen,4_31_0,2023-11-01T23:04:55.511Z,,0,1,,2643.9730000014824,response,ISIC_0011045.JPG,6,ISIC_0533930.JPG,ISIC_0533930.JPG,false,0,keypress(z),500,221756.5,221756.1000000015,219095.461,219110.1000000015,219112.127,221762.021,8,400,32,,ISIC_0011045.JPG
break,html.Screen,4_31_1,2023-11-01T23:04:55.513Z,,0,,,NaN,,,,,,false,,,,221758,221757.80000000075,,221756.90000000224,,221762.021,8,400,,,
break_continue,html.Screen,4_31_2,2023-11-01T23:04:55.513Z,,0,,,NaN,,,,,,false,,,,221758.40000000224,221758.30000000075,,221758.1000000015,,221762.021,8,400,,,
sequence,flow.Sequence,4_31,2023-11-01T23:04:55.513Z,,0,,,2646.1730000007374,completion,,,,,false,,,,221758.6000000015,221758.30000000075,219095.461,219110.1000000015,219112.127,221762.021,8,400,,,
trial,html.Screen,4_32_0,2023-11-01T23:04:58.114Z,,0,1,,2596.279000000737,response,ISIC_0067695.JPG,8,ISIC_0025653.JPG,ISIC_0025653.JPG,false,0,keypress(z),500,224358.80000000075,224358.30000000075,221745.355,221758.80000000075,221762.021,224361.917,8,400,33,,ISIC_0067695.JPG
break,html.Screen,4_32_1,2023-11-01T23:04:58.115Z,,0,,,NaN,,,,,,false,,,,224360.30000000075,224360,,224359.1000000015,,224361.917,8,400,,,
break_continue,html.Screen,4_32_2,2023-11-01T23:04:58.115Z,,0,,,NaN,,,,,,false,,,,224360.80000000075,224360.70000000298,,224360.40000000224,,224361.917,8,400,,,
sequence,flow.Sequence,4_32,2023-11-01T23:04:58.116Z,,0,,,2598.6790000029723,completion,,,,,false,,,,224360.90000000224,224360.70000000298,221745.355,221758.70000000298,221762.021,224361.917,8,400,,,
trial,html.Screen,4_33_0,2023-11-01T23:05:01.081Z,,0,1,,2963.6830000015034,response,ISIC_2795397.JPG,5,ISIC_3018550.JPG,ISIC_2795397.JPG,false,1,keypress(m),500,227326.1000000015,227325.6000000015,224345.251,224361.1000000015,224361.917,227329.081,8,400,34,,ISIC_3018550.JPG
break,html.Screen,4_33_1,2023-11-01T23:05:01.082Z,,0,,,NaN,,,,,,false,,,,227327.40000000224,227327.20000000298,,227326.30000000075,,227329.081,8,400,,,
break_continue,html.Screen,4_33_2,2023-11-01T23:05:01.082Z,,0,,,NaN,,,,,,false,,,,227327.80000000075,227327.70000000298,,227327.6000000015,,227329.081,8,400,,,
sequence,flow.Sequence,4_33,2023-11-01T23:05:01.083Z,,0,,,2965.7830000029935,completion,,,,,false,,,,227327.90000000224,227327.70000000298,224345.251,224361,224361.917,227329.081,8,400,,,
trial,html.Screen,4_34_0,2023-11-01T23:05:03.695Z,,0,1,,2610.4189999999944,response,ISIC_0257447.JPG,9,ISIC_7429127.JPG,ISIC_7429127.JPG,false,0,keypress(z),500,229939.90000000224,229939.5,227312.415,227328.1000000015,227329.081,229945.643,8,400,35,,ISIC_0257447.JPG
break,html.Screen,4_34_1,2023-11-01T23:05:03.696Z,,0,,,NaN,,,,,,false,,,,229941.30000000075,229941,,229940.20000000298,,229945.643,8,400,,,
break_continue,html.Screen,4_34_2,2023-11-01T23:05:03.696Z,,0,,,NaN,,,,,,false,,,,229941.70000000298,229941.6000000015,,229941.40000000224,,229945.643,8,400,,,
sequence,flow.Sequence,4_34,2023-11-01T23:05:03.696Z,,0,,,2612.5190000014845,completion,,,,,false,,,,229941.90000000224,229941.6000000015,227312.415,227328,227329.081,229945.643,8,400,,,
trial,html.Screen,4_35_0,2023-11-01T23:05:06.470Z,,0,1,,2769.0570000029693,response,ISIC_0068048.JPG,9,ISIC_9987485.JPG,ISIC_0068048.JPG,false,1,keypress(m),500,232715.1000000015,232714.70000000298,229928.977,229942,229945.643,232728.865,8,400,36,,ISIC_9987485.JPG
break,html.Screen,4_35_1,2023-11-01T23:05:06.471Z,,0,,,NaN,,,,,,false,,,,232716.5,232716.20000000298,,232715.30000000075,,232728.865,8,400,,,
break_continue,html.Screen,4_35_2,2023-11-01T23:05:06.471Z,,0,,,NaN,,,,,,false,,,,232716.80000000075,232716.80000000075,,232716.6000000015,,232728.865,8,400,,,
sequence,flow.Sequence,4_35,2023-11-01T23:05:06.472Z,,0,,,2771.157000000734,completion,,,,,false,,,,232717,232716.80000000075,229928.977,229942,229945.643,232728.865,8,400,,,
trial,html.Screen,4_36_0,2023-11-01T23:05:10.059Z,,0,1,,3575.5350000022445,response,ISIC_0029651.JPG,6,ISIC_2197722.JPG,ISIC_2197722.JPG,false,0,keypress(z),500,236304.90000000224,236304.40000000224,232712.199,232717.20000000298,232728.865,236312.815,8,400,37,,ISIC_0029651.JPG
break,html.Screen,4_36_1,2023-11-01T23:05:10.061Z,,0,,,NaN,,,,,,false,,,,236306.30000000075,236306,,236305.20000000298,,236312.815,8,400,,,
break_continue,html.Screen,4_36_2,2023-11-01T23:05:10.061Z,,0,,,NaN,,,,,,false,,,,236306.70000000298,236306.6000000015,,236306.5,,236312.815,8,400,,,
sequence,flow.Sequence,4_36,2023-11-01T23:05:10.061Z,,0,,,3577.7350000014994,completion,,,,,false,,,,236306.80000000075,236306.6000000015,232712.199,232717.1000000015,232728.865,236312.815,8,400,,,
trial,html.Screen,4_37_0,2023-11-01T23:05:12.674Z,,0,1,,2606.4850000007427,response,ISIC_0054087.JPG,9,ISIC_0010393.JPG,ISIC_0054087.JPG,false,1,keypress(m),500,238919.70000000298,238919.30000000075,236296.149,236307.1000000015,236312.815,238929.377,8,400,38,,ISIC_0010393.JPG
break,html.Screen,4_37_1,2023-11-01T23:05:12.675Z,,0,,,NaN,,,,,,false,,,,238921.1000000015,238920.90000000224,,238920.1000000015,,238929.377,8,400,,,
break_continue,html.Screen,4_37_2,2023-11-01T23:05:12.676Z,,0,,,NaN,,,,,,false,,,,238921.6000000015,238921.5,,238921.30000000075,,238929.377,8,400,,,
sequence,flow.Sequence,4_37,2023-11-01T23:05:12.676Z,,0,,,2608.6849999999977,completion,,,,,false,,,,238921.70000000298,238921.5,236296.149,236307,236312.815,238929.377,8,400,,,
trial,html.Screen,4_38_0,2023-11-01T23:05:15.272Z,,0,1,,2588.3230000029725,response,ISIC_8011058.JPG,7,ISIC_0028338.JPG,ISIC_0028338.JPG,false,0,keypress(z),500,241518.20000000298,241517.70000000298,238912.711,238921.80000000075,238929.377,241529.273,8,400,39,,ISIC_8011058.JPG
break,html.Screen,4_38_1,2023-11-01T23:05:15.274Z,,0,,,NaN,,,,,,false,,,,241519.5,241519.30000000075,,241518.5,,241529.273,8,400,,,
break_continue,html.Screen,4_38_2,2023-11-01T23:05:15.274Z,,0,,,NaN,,,,,,false,,,,241519.90000000224,241519.90000000224,,241519.70000000298,,241529.273,8,400,,,
sequence,flow.Sequence,4_38,2023-11-01T23:05:15.274Z,,0,,,2590.5230000022275,completion,,,,,false,,,,241520.1000000015,241519.90000000224,238912.711,238921.80000000075,238929.377,241529.273,8,400,,,
trial,html.Screen,4_39_0,2023-11-01T23:05:18.112Z,,0,1,,2827.6270000022487,response,ISIC_6701139.JPG,8,ISIC_2075546.JPG,ISIC_6701139.JPG,false,1,keypress(m),500,244357.40000000224,244356.90000000224,241512.607,241520.20000000298,241529.273,244362.493,8,400,40,,ISIC_2075546.JPG
break,html.Screen,4_39_1,2023-11-01T23:05:18.113Z,,0,,,NaN,,,,,,false,,,,244358.80000000075,244358.5,,244357.70000000298,,244362.493,8,400,,,
break_continue,html.Screen,4_39_2,2023-11-01T23:05:18.113Z,,0,,,NaN,,,,,,false,,,,244359.30000000075,244359.1000000015,,244359,,244362.493,8,400,,,
sequence,flow.Sequence,4_39,2023-11-01T23:05:18.114Z,,0,,,2829.8270000015036,completion,,,,,false,,,,244359.40000000224,244359.1000000015,241512.607,241520.20000000298,241529.273,244362.493,8,400,,,
trial,html.Screen,4_40_0,2023-11-01T23:05:21.159Z,,0,1,,3042.0070000000123,response,ISIC_0029686.JPG,7,ISIC_0026558.JPG,ISIC_0026558.JPG,false,0,keypress(z),500,247404.90000000224,247404.5,244345.827,244359.6000000015,244362.493,247413.043,8,400,41,,ISIC_0029686.JPG
break,html.Screen,4_40_1,2023-11-01T23:05:21.161Z,,0,,,NaN,,,,,,false,,,,247406.40000000224,247406.20000000298,,247405.20000000298,,247413.043,8,400,,,
break_continue,html.Screen,4_40_2,2023-11-01T23:05:21.161Z,,0,,,NaN,,,,,,false,,,,247406.80000000075,247406.70000000298,,247406.5,,247413.043,8,400,,,
sequence,flow.Sequence,4_40,2023-11-01T23:05:21.161Z,,0,,,3044.2070000029926,completion,,,,,false,,,,247407,247406.70000000298,244345.827,244359.6000000015,244362.493,247413.043,8,400,,,
trial,html.Screen,4_41_0,2023-11-01T23:05:24.158Z,,0,1,,2990.657000002975,response,ISIC_0031586.JPG,8,ISIC_0024757.JPG,ISIC_0024757.JPG,false,0,keypress(z),500,250404.20000000298,250403.70000000298,247396.377,247407.20000000298,247413.043,250412.923,8,400,42,,ISIC_0031586.JPG
break,html.Screen,4_41_1,2023-11-01T23:05:24.160Z,,0,,,NaN,,,,,,false,,,,250405.6000000015,250405.30000000075,,250404.40000000224,,250412.923,8,400,,,
break_continue,html.Screen,4_41_2,2023-11-01T23:05:24.160Z,,0,,,NaN,,,,,,false,,,,250406,250405.90000000224,,250405.70000000298,,250412.923,8,400,,,
sequence,flow.Sequence,4_41,2023-11-01T23:05:24.160Z,,0,,,2992.85700000223,completion,,,,,false,,,,250406.20000000298,250405.90000000224,247396.377,247407.1000000015,247413.043,250412.923,8,400,,,
trial,html.Screen,4_42_0,2023-11-01T23:05:26.869Z,,0,1,,2701.1770000014803,response,ISIC_1020369.JPG,8,ISIC_4130478.JPG,ISIC_1020369.JPG,false,1,keypress(m),500,253114.6000000015,253114.1000000015,250396.257,250406.40000000224,250412.923,253129.481,8,400,43,,ISIC_4130478.JPG
break,html.Screen,4_42_1,2023-11-01T23:05:26.870Z,,0,,,NaN,,,,,,false,,,,253116,253115.80000000075,,253114.90000000224,,253129.481,8,400,,,
break_continue,html.Screen,4_42_2,2023-11-01T23:05:26.870Z,,0,,,NaN,,,,,,false,,,,253116.5,253116.30000000075,,253116.20000000298,,253129.481,8,400,,,
sequence,flow.Sequence,4_42,2023-11-01T23:05:26.871Z,,0,,,2703.3770000007353,completion,,,,,false,,,,253116.6000000015,253116.30000000075,250396.257,250406.40000000224,250412.923,253129.481,8,400,,,
trial,html.Screen,4_43_0,2023-11-01T23:05:30.507Z,,0,1,,3622.8190000007453,response,ISIC_0001745.JPG,7,ISIC_5290521.JPG,ISIC_5290521.JPG,false,0,keypress(z),500,256752.70000000298,256752.30000000075,253112.815,253116.80000000075,253129.481,256763.36,8,400,44,,ISIC_0001745.JPG
break,html.Screen,4_43_1,2023-11-01T23:05:30.508Z,,0,,,NaN,,,,,,false,,,,256754.20000000298,256754,,256753.1000000015,,256763.36,8,400,,,
break_continue,html.Screen,4_43_2,2023-11-01T23:05:30.508Z,,0,,,NaN,,,,,,false,,,,256754.5,256754.5,,256754.40000000224,,256763.36,8,400,,,
sequence,flow.Sequence,4_43,2023-11-01T23:05:30.509Z,,0,,,3625.0190000000002,completion,,,,,false,,,,256754.6000000015,256754.5,253112.815,253116.70000000298,253129.481,256763.36,8,400,,,
trial,html.Screen,4_44_0,2023-11-01T23:05:34.081Z,,0,1,,3563.440000000759,response,ISIC_7176034.JPG,8,ISIC_0016043.JPG,ISIC_0016043.JPG,false,0,keypress(z),500,260327.30000000075,260326.80000000075,256746.694,256754.70000000298,256763.36,260346.55,8,400,45,,ISIC_7176034.JPG
break,html.Screen,4_44_1,2023-11-01T23:05:34.082Z,,0,,,NaN,,,,,,false,,,,260328.70000000298,260328.5,,260327.5,,260346.55,8,400,,,
break_continue,html.Screen,4_44_2,2023-11-01T23:05:34.083Z,,0,,,NaN,,,,,,false,,,,260329.1000000015,260329,,260328.90000000224,,260346.55,8,400,,,
sequence,flow.Sequence,4_44,2023-11-01T23:05:34.083Z,,0,,,3565.640000000014,completion,,,,,false,,,,260329.20000000298,260329,256746.694,256754.70000000298,256763.36,260346.55,8,400,,,
trial,html.Screen,4_45_0,2023-11-01T23:05:36.856Z,,0,1,,2755.0500000015018,response,ISIC_0011364.JPG,8,ISIC_0027797.JPG,ISIC_0027797.JPG,false,0,keypress(z),500,263102.200000003,263101.6000000015,260329.884,260329.30000000075,260346.55,263129.772,8,400,46,,ISIC_0011364.JPG
break,html.Screen,4_45_1,2023-11-01T23:05:36.857Z,,0,,,NaN,,,,,,false,,,,263103.700000003,263103.40000000224,,263102.5,,263129.772,8,400,,,
break_continue,html.Screen,4_45_2,2023-11-01T23:05:36.858Z,,0,,,NaN,,,,,,false,,,,263104.1000000015,263104,,263103.700000003,,263129.772,8,400,,,
sequence,flow.Sequence,4_45,2023-11-01T23:05:36.858Z,,0,,,2757.4500000000116,completion,,,,,false,,,,263104.200000003,263104,260329.884,260329.30000000075,260346.55,263129.772,8,400,,,
trial,html.Screen,4_46_0,2023-11-01T23:05:39.390Z,,0,1,,2505.828000001493,response,ISIC_0000413.JPG,7,ISIC_8630818.JPG,ISIC_8630818.JPG,false,0,keypress(z),500,265636.1000000015,265635.6000000015,263113.106,263104.40000000224,263129.772,265646.338,8,400,47,,ISIC_0000413.JPG
break,html.Screen,4_46_1,2023-11-01T23:05:39.391Z,,0,,,NaN,,,,,,false,,,,265637.6000000015,265637.30000000075,,265636.40000000224,,265646.338,8,400,,,
break_continue,html.Screen,4_46_2,2023-11-01T23:05:39.392Z,,0,,,NaN,,,,,,false,,,,265638.1000000015,265637.90000000224,,265637.80000000075,,265646.338,8,400,,,
sequence,flow.Sequence,4_46,2023-11-01T23:05:39.392Z,,0,,,2508.128000002238,completion,,,,,false,,,,265638.30000000075,265637.90000000224,263113.106,263104.40000000224,263129.772,265646.338,8,400,,,
trial,html.Screen,4_47_0,2023-11-01T23:05:42.117Z,,0,1,,2716.662000000011,response,ISIC_1568268.JPG,8,ISIC_0025597.JPG,ISIC_1568268.JPG,false,1,keypress(m),500,268363.5,268363,265629.672,265638.40000000224,265646.338,268380.189,8,400,48,,ISIC_0025597.JPG
break,html.Screen,4_47_1,2023-11-01T23:05:42.119Z,,0,,,NaN,,,,,,false,,,,268364.90000000224,268364.700000003,,268363.80000000075,,268380.189,8,400,,,
break_continue,html.Screen,4_47_2,2023-11-01T23:05:42.119Z,,0,,,NaN,,,,,,false,,,,268365.40000000224,268365.30000000075,,268365.1000000015,,268380.189,8,400,,,
sequence,flow.Sequence,4_47,2023-11-01T23:05:42.119Z,,0,,,2718.9620000007562,completion,,,,,false,,,,268365.6000000015,268365.30000000075,265629.672,265638.40000000224,265646.338,268380.189,8,400,,,
trial,html.Screen,4_48_0,2023-11-01T23:05:44.701Z,,0,1,,2566.511000002967,response,ISIC_6000407.JPG,6,ISIC_4084359.JPG,ISIC_6000407.JPG,false,1,keypress(m),500,270947.200000003,270946.700000003,268363.523,268365.700000003,268380.189,270963.419,8,400,49,,ISIC_4084359.JPG
break,html.Screen,4_48_1,2023-11-01T23:05:44.702Z,,0,,,NaN,,,,,,false,,,,270948.6000000015,270948.40000000224,,270947.5,,270963.419,8,400,,,
break_continue,html.Screen,4_48_2,2023-11-01T23:05:44.703Z,,0,,,NaN,,,,,,false,,,,270949,270948.90000000224,,270948.700000003,,270963.419,8,400,,,
sequence,flow.Sequence,4_48,2023-11-01T23:05:44.703Z,,0,,,2568.711000002222,completion,,,,,false,,,,270949.200000003,270948.90000000224,268363.523,268365.700000003,268380.189,270963.419,8,400,,,
trial,html.Screen,4_49_0,2023-11-01T23:05:47.283Z,,0,1,,2565.6810000014957,response,ISIC_0054982.JPG,5,ISIC_0031674.JPG,ISIC_0031674.JPG,false,0,keypress(z),500,273529.6000000015,273529.1000000015,270946.753,270949.30000000075,270963.419,273546.649,8,400,50,,ISIC_0054982.JPG
break,html.Screen,4_49_1,2023-11-01T23:05:57.289Z,,0,,,10000.237000000023,timeout,,,,,false,,,,283535.80000000075,283530.22,273529.983,273529.90000000224,273546.649,283546.886,8,400,,,
break_continue,html.Screen,4_49_2,2023-11-01T23:57:43.425Z,,0,,,3032169.814000003,response,,,,,false,continue,keypress(Space),,3315731.200000003,3315716.700000003,283530.22,283536,283546.886,3315763.447,8,400,,,
sequence,flow.Sequence,4_49,2023-11-01T23:57:43.425Z,,0,,,3044753.281000003,completion,,,,,false,,,,3315731.5,3315716.700000003,270946.753,270949.30000000075,270963.419,3315763.447,8,400,,,
trial,html.Screen,4_50_0,2023-11-01T23:57:46.357Z,,0,2,,2899.55299999984,response,ISIC_4123109.JPG,6,ISIC_2528656.JPG,ISIC_2528656.JPG,false,0,keypress(z),500,3318663.5,3318663,3315730.115,3315731.6000000015,3315763.447,3318696.663,8,400,1,,ISIC_4123109.JPG
break,html.Screen,4_50_1,2023-11-01T23:57:46.359Z,,0,,,NaN,,,,,,false,,,,3318665,3318664.8000000045,,3318663.8999999985,,3318696.663,8,400,,,
break_continue,html.Screen,4_50_2,2023-11-01T23:57:46.359Z,,0,,,NaN,,,,,,false,,,,3318665.3999999985,3318665.3000000045,,3318665.1000000015,,3318696.663,8,400,,,
sequence,flow.Sequence,4_50,2023-11-01T23:57:46.359Z,,0,,,2901.85300000431,completion,,,,,false,,,,3318665.6000000015,3318665.3000000045,3315730.115,3315731.5,3315763.447,3318696.663,8,400,,,
trial,html.Screen,4_51_0,2023-11-01T23:57:49.103Z,,0,2,,2711.836999999825,response,ISIC_0032939.JPG,6,ISIC_0030653.JPG,ISIC_0030653.JPG,false,0,keypress(z),500,3321409.1000000015,3321408.5,3318663.331,3318665.700000003,3318696.663,3321429.887,8,400,2,,ISIC_0032939.JPG
break,html.Screen,4_51_1,2023-11-01T23:57:49.104Z,,0,,,NaN,,,,,,false,,,,3321410.3999999985,3321410.200000003,,3321409.3999999985,,3321429.887,8,400,,,
break_continue,html.Screen,4_51_2,2023-11-01T23:57:49.104Z,,0,,,NaN,,,,,,false,,,,3321410.8999999985,3321410.8000000045,,3321410.6000000015,,3321429.887,8,400,,,
sequence,flow.Sequence,4_51,2023-11-01T23:57:49.105Z,,0,,,2714.1370000042953,completion,,,,,false,,,,3321411,3321410.8000000045,3318663.331,3318665.700000003,3318696.663,3321429.887,8,400,,,
trial,html.Screen,4_52_0,2023-11-01T23:57:51.669Z,,0,2,,2545.1129999998957,response,ISIC_6766153.JPG,9,ISIC_0058723.JPG,ISIC_6766153.JPG,false,1,keypress(m),500,3323975.5,3323975,3321396.555,3321411.200000003,3321429.887,3323996.451,8,400,3,,ISIC_0058723.JPG
break,html.Screen,4_52_1,2023-11-01T23:57:51.670Z,,0,,,NaN,,,,,,false,,,,3323976.8999999985,3323976.700000003,,3323975.8000000045,,3323996.451,8,400,,,
break_continue,html.Screen,4_52_2,2023-11-01T23:57:51.671Z,,0,,,NaN,,,,,,false,,,,3323977.3999999985,3323977.200000003,,3323977.1000000015,,3323996.451,8,400,,,
sequence,flow.Sequence,4_52,2023-11-01T23:57:51.671Z,,0,,,2547.313000002876,completion,,,,,false,,,,3323977.5,3323977.200000003,3321396.555,3321411.1000000015,3321429.887,3323996.451,8,400,,,
trial,html.Screen,4_53_0,2023-11-01T23:57:54.204Z,,0,2,,2513.9489999986254,response,ISIC_0294687.JPG,6,ISIC_8363069.JPG,ISIC_8363069.JPG,false,0,keypress(z),500,3326510.8000000045,3326510.3999999985,3323963.119,3323977.700000003,3323996.451,3326530.431,8,400,4,,ISIC_0294687.JPG
break,html.Screen,4_53_1,2023-11-01T23:57:54.206Z,,0,,,NaN,,,,,,false,,,,3326512.200000003,3326512.1000000015,,3326511.1000000015,,3326530.431,8,400,,,
break_continue,html.Screen,4_53_2,2023-11-01T23:57:54.206Z,,0,,,NaN,,,,,,false,,,,3326512.700000003,3326512.5,,3326512.3999999985,,3326530.431,8,400,,,
sequence,flow.Sequence,4_53,2023-11-01T23:57:54.206Z,,0,,,2516.0490000001155,completion,,,,,false,,,,3326512.8000000045,3326512.5,3323963.119,3323977.700000003,3323996.451,3326530.431,8,400,,,
trial,html.Screen,4_54_0,2023-11-01T23:57:56.884Z,,0,2,,2659.2690000031143,response,ISIC_0069944.JPG,7,ISIC_5174685.JPG,ISIC_0069944.JPG,false,1,keypress(m),500,3329190.1000000015,3329189.700000003,3326497.099,3326512.8999999985,3326530.431,3329213.657,8,400,5,,ISIC_5174685.JPG
break,html.Screen,4_54_1,2023-11-01T23:57:56.885Z,,0,,,NaN,,,,,,false,,,,3329191.3999999985,3329191.200000003,,3329190.3000000045,,3329213.657,8,400,,,
break_continue,html.Screen,4_54_2,2023-11-01T23:57:56.885Z,,0,,,NaN,,,,,,false,,,,3329191.8000000045,3329191.700000003,,3329191.5,,3329213.657,8,400,,,
sequence,flow.Sequence,4_54,2023-11-01T23:57:56.886Z,,0,,,2661.2690000031143,completion,,,,,false,,,,3329192.1000000015,3329191.700000003,3326497.099,3326512.8000000045,3326530.431,3329213.657,8,400,,,
trial,html.Screen,4_55_0,2023-11-01T23:57:59.707Z,,0,2,,2799.6430000043474,response,ISIC_0010759.JPG,7,ISIC_2212473.JPG,ISIC_0010759.JPG,false,1,keypress(m),500,3332013.700000003,3332013.3000000045,3329180.325,3329192.200000003,3329213.657,3332046.877,8,400,6,,ISIC_2212473.JPG
break,html.Screen,4_55_1,2023-11-01T23:57:59.709Z,,0,,,NaN,,,,,,false,,,,3332015.1000000015,3332014.8999999985,,3332014,,3332046.877,8,400,,,
break_continue,html.Screen,4_55_2,2023-11-01T23:57:59.709Z,,0,,,NaN,,,,,,false,,,,3332015.5,3332015.3999999985,,3332015.3000000045,,3332046.877,8,400,,,
sequence,flow.Sequence,4_55,2023-11-01T23:57:59.709Z,,0,,,2801.742999998387,completion,,,,,false,,,,3332015.700000003,3332015.3999999985,3329180.325,3329192.1000000015,3329213.657,3332046.877,8,400,,,
trial,html.Screen,4_56_0,2023-11-01T23:58:02.562Z,,0,2,,2820.923000004608,response,ISIC_0054357.JPG,8,ISIC_9096302.JPG,ISIC_9096302.JPG,false,0,keypress(z),500,3334868.3999999985,3334867.8000000045,3332013.545,3332015.8000000045,3332046.877,3334896.763,8,400,7,,ISIC_0054357.JPG
break,html.Screen,4_56_1,2023-11-01T23:58:02.564Z,,0,,,NaN,,,,,,false,,,,3334870,3334869.8000000045,,3334868.8000000045,,3334896.763,8,400,,,
break_continue,html.Screen,4_56_2,2023-11-01T23:58:02.564Z,,0,,,NaN,,,,,,false,,,,3334870.6000000015,3334870.3000000045,,3334870.200000003,,3334896.763,8,400,,,
sequence,flow.Sequence,4_56,2023-11-01T23:58:02.564Z,,0,,,2823.423000004608,completion,,,,,false,,,,3334870.700000003,3334870.3000000045,3332013.545,3332015.700000003,3332046.877,3334896.763,8,400,,,
trial,html.Screen,4_57_0,2023-11-01T23:58:05.277Z,,0,2,,2686.4370000031777,response,ISIC_0071568.JPG,8,ISIC_0063295.JPG,ISIC_0063295.JPG,false,0,keypress(z),500,3337583.700000003,3337583.200000003,3334863.431,3334870.8999999985,3334896.763,3337614.012,8,400,8,,ISIC_0071568.JPG
break,html.Screen,4_57_1,2023-11-01T23:58:05.279Z,,0,,,NaN,,,,,,false,,,,3337585.200000003,3337584.8999999985,,3337584,,3337614.012,8,400,,,
break_continue,html.Screen,4_57_2,2023-11-01T23:58:05.279Z,,0,,,NaN,,,,,,false,,,,3337585.6000000015,3337585.5,,3337585.200000003,,3337614.012,8,400,,,
sequence,flow.Sequence,4_57,2023-11-01T23:58:05.279Z,,0,,,2688.7370000001974,completion,,,,,false,,,,3337585.8000000045,3337585.5,3334863.431,3334870.8000000045,3334896.763,3337614.012,8,400,,,
trial,html.Screen,4_58_0,2023-11-01T23:58:07.956Z,,0,2,,2648.188000002876,response,ISIC_3328295.JPG,9,ISIC_0031960.JPG,ISIC_3328295.JPG,false,1,keypress(m),500,3340262.700000003,3340262.200000003,3337580.68,3337586,3337614.012,3340280.572,8,400,9,,ISIC_0031960.JPG
break,html.Screen,4_58_1,2023-11-01T23:58:07.958Z,,0,,,NaN,,,,,,false,,,,3340264.200000003,3340263.8999999985,,3340263,,3340280.572,8,400,,,
break_continue,html.Screen,4_58_2,2023-11-01T23:58:07.958Z,,0,,,NaN,,,,,,false,,,,3340264.6000000015,3340264.5,,3340264.3000000045,,3340280.572,8,400,,,
sequence,flow.Sequence,4_58,2023-11-01T23:58:07.958Z,,0,,,2650.4879999998957,completion,,,,,false,,,,3340264.700000003,3340264.5,3337580.68,3337585.8999999985,3337614.012,3340280.572,8,400,,,
trial,html.Screen,4_59_0,2023-11-01T23:58:10.523Z,,0,2,,2549.02800000133,response,ISIC_0031350.JPG,8,ISIC_0032192.JPG,ISIC_0031350.JPG,false,1,keypress(m),500,3342830,3342829.6000000015,3340247.24,3340264.8000000045,3340280.572,3342863.802,8,400,10,,ISIC_0032192.JPG
break,html.Screen,4_59_1,2023-11-01T23:58:10.525Z,,0,,,NaN,,,,,,false,,,,3342831.3999999985,3342831.1000000015,,3342830.3000000045,,3342863.802,8,400,,,
break_continue,html.Screen,4_59_2,2023-11-01T23:58:10.525Z,,0,,,NaN,,,,,,false,,,,3342831.8000000045,3342831.6000000015,,3342831.5,,3342863.802,8,400,,,
sequence,flow.Sequence,4_59,2023-11-01T23:58:10.525Z,,0,,,2551.02800000133,completion,,,,,false,,,,3342832,3342831.6000000015,3340247.24,3340264.8000000045,3340280.572,3342863.802,8,400,,,
trial,html.Screen,4_60_0,2023-11-01T23:58:13.239Z,,0,2,,2681.5979999983683,response,ISIC_0887792.JPG,7,ISIC_0010895.JPG,ISIC_0887792.JPG,false,1,keypress(m),500,3345545.8000000045,3345545.3999999985,3342830.47,3342832.1000000015,3342863.802,3345563.694,8,400,11,,ISIC_0010895.JPG
break,html.Screen,4_60_1,2023-11-01T23:58:13.241Z,,0,,,NaN,,,,,,false,,,,3345547.3000000045,3345547.1000000015,,3345546.200000003,,3345563.694,8,400,,,
break_continue,html.Screen,4_60_2,2023-11-01T23:58:13.241Z,,0,,,NaN,,,,,,false,,,,3345547.700000003,3345547.5,,3345547.5,,3345563.694,8,400,,,
sequence,flow.Sequence,4_60,2023-11-01T23:58:13.241Z,,0,,,2683.6979999998584,completion,,,,,false,,,,3345547.8000000045,3345547.5,3342830.47,3342832,3342863.802,3345563.694,8,400,,,
trial,html.Screen,4_61_0,2023-11-01T23:58:16.542Z,,0,2,,3284.906000001356,response,ISIC_9917640.JPG,8,ISIC_0069944.JPG,ISIC_9917640.JPG,false,1,keypress(m),500,3348849,3348848.6000000015,3345530.362,3345547.8999999985,3345563.694,3348880.873,8,400,12,,ISIC_0069944.JPG
break,html.Screen,4_61_1,2023-11-01T23:58:16.544Z,,0,,,NaN,,,,,,false,,,,3348850.6000000015,3348850.3000000045,,3348849.3000000045,,3348880.873,8,400,,,
break_continue,html.Screen,4_61_2,2023-11-01T23:58:16.544Z,,0,,,NaN,,,,,,false,,,,3348851.1000000015,3348850.8999999985,,3348850.700000003,,3348880.873,8,400,,,
sequence,flow.Sequence,4_61,2023-11-01T23:58:16.545Z,,0,,,3287.205999998376,completion,,,,,false,,,,3348851.200000003,3348850.8999999985,3345530.362,3345547.8999999985,3345563.694,3348880.873,8,400,,,
trial,html.Screen,4_62_0,2023-11-01T23:58:19.191Z,,0,2,,2616.026999998372,response,ISIC_0056326.JPG,7,ISIC_3897960.JPG,ISIC_0056326.JPG,false,1,keypress(m),500,3351497.3999999985,3351496.8999999985,3348847.541,3348851.3000000045,3348880.873,3351530.767,8,400,13,,ISIC_3897960.JPG
break,html.Screen,4_62_1,2023-11-01T23:58:19.192Z,,0,,,NaN,,,,,,false,,,,3351498.8000000045,3351498.5,,3351497.700000003,,3351530.767,8,400,,,
break_continue,html.Screen,4_62_2,2023-11-01T23:58:19.193Z,,0,,,NaN,,,,,,false,,,,3351499.200000003,3351499.1000000015,,3351499,,3351530.767,8,400,,,
sequence,flow.Sequence,4_62,2023-11-01T23:58:19.193Z,,0,,,2618.2270000013523,completion,,,,,false,,,,3351499.3999999985,3351499.1000000015,3348847.541,3348851.3000000045,3348880.873,3351530.767,8,400,,,
trial,html.Screen,4_63_0,2023-11-01T23:58:21.837Z,,0,2,,2612.7330000000075,response,ISIC_0059976.JPG,7,ISIC_3447311.JPG,ISIC_0059976.JPG,false,1,keypress(m),500,3354144.1000000015,3354143.5,3351497.435,3351499.6000000015,3351530.767,3354163.995,8,400,14,,ISIC_3447311.JPG
break,html.Screen,4_63_1,2023-11-01T23:58:21.839Z,,0,,,NaN,,,,,,false,,,,3354145.5,3354145.3000000045,,3354144.3999999985,,3354163.995,8,400,,,
break_continue,html.Screen,4_63_2,2023-11-01T23:58:21.839Z,,0,,,NaN,,,,,,false,,,,3354145.8000000045,3354145.8000000045,,3354145.6000000015,,3354163.995,8,400,,,
sequence,flow.Sequence,4_63,2023-11-01T23:58:21.839Z,,0,,,2615.033000004478,completion,,,,,false,,,,3354146,3354145.8000000045,3351497.435,3351499.5,3351530.767,3354163.995,8,400,,,
trial,html.Screen,4_64_0,2023-11-01T23:58:24.343Z,,0,2,,2485.3050000043586,response,ISIC_0012211.JPG,6,ISIC_0015110.JPG,ISIC_0012211.JPG,false,1,keypress(m),500,3356649.8000000045,3356649.3000000045,3354130.663,3354146.200000003,3354163.995,3356680.561,8,400,15,,ISIC_0015110.JPG
break,html.Screen,4_64_1,2023-11-01T23:58:24.344Z,,0,,,NaN,,,,,,false,,,,3356651.200000003,3356650.8999999985,,3356650.1000000015,,3356680.561,8,400,,,
break_continue,html.Screen,4_64_2,2023-11-01T23:58:24.345Z,,0,,,NaN,,,,,,false,,,,3356651.6000000015,3356651.5,,3356651.3999999985,,3356680.561,8,400,,,
sequence,flow.Sequence,4_64,2023-11-01T23:58:24.345Z,,0,,,2487.5049999998882,completion,,,,,false,,,,3356651.700000003,3356651.5,3354130.663,3354146.200000003,3354163.995,3356680.561,8,400,,,
trial,html.Screen,4_65_0,2023-11-01T23:58:27.070Z,,0,2,,2696.1390000027604,response,ISIC_1977265.JPG,8,ISIC_6870208.JPG,ISIC_6870208.JPG,false,0,keypress(z),500,3359377.200000003,3359376.700000003,3356647.229,3356651.8000000045,3356680.561,3359397.856,8,400,16,,ISIC_1977265.JPG
break,html.Screen,4_65_1,2023-11-01T23:58:27.072Z,,0,,,NaN,,,,,,false,,,,3359378.700000003,3359378.3999999985,,3359377.5,,3359397.856,8,400,,,
break_continue,html.Screen,4_65_2,2023-11-01T23:58:27.072Z,,0,,,NaN,,,,,,false,,,,3359379.1000000015,3359379,,3359378.8999999985,,3359397.856,8,400,,,
sequence,flow.Sequence,4_65,2023-11-01T23:58:27.073Z,,0,,,2698.43899999978,completion,,,,,false,,,,3359379.3000000045,3359379,3356647.229,3356651.8000000045,3356680.561,3359397.856,8,400,,,
trial,html.Screen,4_66_0,2023-11-01T23:58:29.574Z,,0,2,,2482.5439999983646,response,ISIC_0064120.JPG,8,ISIC_5443837.JPG,ISIC_5443837.JPG,false,0,keypress(z),500,3361880.8000000045,3361880.3999999985,3359364.524,3359379.3999999985,3359397.856,3361914.422,8,400,17,,ISIC_0064120.JPG
break,html.Screen,4_66_1,2023-11-01T23:58:29.575Z,,0,,,NaN,,,,,,false,,,,3361882.3000000045,3361882,,3361881,,3361914.422,8,400,,,
break_continue,html.Screen,4_66_2,2023-11-01T23:58:29.576Z,,0,,,NaN,,,,,,false,,,,3361882.8000000045,3361882.6000000015,,3361882.3999999985,,3361914.422,8,400,,,
sequence,flow.Sequence,4_66,2023-11-01T23:58:29.576Z,,0,,,2484.744000001345,completion,,,,,false,,,,3361883,3361882.6000000015,3359364.524,3359379.3999999985,3359397.856,3361914.422,8,400,,,
trial,html.Screen,4_67_0,2023-11-01T23:58:32.269Z,,0,2,,2660.7780000031926,response,ISIC_1104374.JPG,8,ISIC_0033265.JPG,ISIC_0033265.JPG,false,0,keypress(z),500,3364575.700000003,3364575.200000003,3361881.09,3361883,3361914.422,3364597.648,8,400,18,,ISIC_1104374.JPG
break,html.Screen,4_67_1,2023-11-01T23:58:32.270Z,,0,,,NaN,,,,,,false,,,,3364577.200000003,3364576.8999999985,,3364576,,3364597.648,8,400,,,
break_continue,html.Screen,4_67_2,2023-11-01T23:58:32.271Z,,0,,,NaN,,,,,,false,,,,3364577.6000000015,3364577.3999999985,,3364577.3000000045,,3364597.648,8,400,,,
sequence,flow.Sequence,4_67,2023-11-01T23:58:32.271Z,,0,,,2662.977999998722,completion,,,,,false,,,,3364577.8000000045,3364577.3999999985,3361881.09,3361883,3361914.422,3364597.648,8,400,,,
trial,html.Screen,4_68_0,2023-11-01T23:58:35.029Z,,0,2,,2737.4520000014454,response,ISIC_6983970.JPG,5,ISIC_6054977.JPG,ISIC_6983970.JPG,false,1,keypress(m),500,3367335.5,3367335.1000000015,3364564.316,3364577.8999999985,3364597.648,3367364.832,8,400,19,,ISIC_6054977.JPG
break,html.Screen,4_68_1,2023-11-01T23:58:35.030Z,,0,,,NaN,,,,,,false,,,,3367337.1000000015,3367336.8000000045,,3367335.8999999985,,3367364.832,8,400,,,
break_continue,html.Screen,4_68_2,2023-11-01T23:58:35.031Z,,0,,,NaN,,,,,,false,,,,3367337.3999999985,3367337.3999999985,,3367337.200000003,,3367364.832,8,400,,,
sequence,flow.Sequence,4_68,2023-11-01T23:58:35.031Z,,0,,,2739.751999998465,completion,,,,,false,,,,3367337.5,3367337.3999999985,3364564.316,3364577.8999999985,3364597.648,3367364.832,8,400,,,
trial,html.Screen,4_69_0,2023-11-01T23:58:37.689Z,,0,2,,2630.567999998573,response,ISIC_0525687.JPG,8,ISIC_0063753.JPG,ISIC_0525687.JPG,false,1,keypress(m),500,3369995.5,3369995.3999999985,3367331.5,3367337.6000000015,3367364.832,3370014.726,8,400,20,,ISIC_0063753.JPG
break,html.Screen,4_69_1,2023-11-01T23:58:37.689Z,,0,,,NaN,,,,,,false,,,,3369996.3000000045,3369996.200000003,,3369995.700000003,,3370014.726,8,400,,,
break_continue,html.Screen,4_69_2,2023-11-01T23:58:37.690Z,,0,,,NaN,,,,,,false,,,,3369996.5,3369996.3999999985,,3369996.3999999985,,3370014.726,8,400,,,
sequence,flow.Sequence,4_69,2023-11-01T23:58:37.690Z,,0,,,2631.567999998573,completion,,,,,false,,,,3369996.6000000015,3369996.3999999985,3367331.5,3367337.6000000015,3367364.832,3370014.726,8,400,,,
trial,html.Screen,4_70_0,2023-11-01T23:58:40.384Z,,0,2,,2675.7740000002086,response,ISIC_0030047.JPG,8,ISIC_0033800.JPG,ISIC_0033800.JPG,false,0,keypress(z),500,3372691,3372690.5,3369981.394,3369996.6000000015,3370014.726,3372714.618,8,400,21,,ISIC_0030047.JPG
break,html.Screen,4_70_1,2023-11-01T23:58:40.386Z,,0,,,NaN,,,,,,false,,,,3372692.3999999985,3372692.200000003,,3372691.3000000045,,3372714.618,8,400,,,
break_continue,html.Screen,4_70_2,2023-11-01T23:58:40.386Z,,0,,,NaN,,,,,,false,,,,3372692.8999999985,3372692.700000003,,3372692.6000000015,,3372714.618,8,400,,,
sequence,flow.Sequence,4_70,2023-11-01T23:58:40.386Z,,0,,,2677.974000003189,completion,,,,,false,,,,3372693,3372692.700000003,3369981.394,3369996.6000000015,3370014.726,3372714.618,8,400,,,
trial,html.Screen,4_71_0,2023-11-01T23:58:42.936Z,,0,2,,2527.382000000216,response,ISIC_4791589.JPG,6,ISIC_0063715.JPG,ISIC_0063715.JPG,false,0,keypress(z),500,3375242.5,3375242,3372681.286,3372693.1000000015,3372714.618,3375264.516,8,400,22,,ISIC_4791589.JPG
break,html.Screen,4_71_1,2023-11-01T23:58:42.937Z,,0,,,NaN,,,,,,false,,,,3375243.8999999985,3375243.8000000045,,3375242.8999999985,,3375264.516,8,400,,,
break_continue,html.Screen,4_71_2,2023-11-01T23:58:42.939Z,,0,,,NaN,,,,,,false,,,,3375245.6000000015,3375245.5,,3375244.1000000015,,3375264.516,8,400,,,
sequence,flow.Sequence,4_71,2023-11-01T23:58:42.939Z,,0,,,2530.882000000216,completion,,,,,false,,,,3375245.8999999985,3375245.5,3372681.286,3372693,3372714.618,3375264.516,8,400,,,
trial,html.Screen,4_72_0,2023-11-01T23:58:45.635Z,,0,2,,2677.2840000046417,response,ISIC_0028612.JPG,7,ISIC_7452503.JPG,ISIC_0028612.JPG,false,1,keypress(m),500,3377942.200000003,3377941.8000000045,3375231.184,3375246,3375264.516,3377965.084,8,400,23,,ISIC_7452503.JPG
break,html.Screen,4_72_1,2023-11-01T23:58:45.637Z,,0,,,NaN,,,,,,false,,,,3377943.700000003,3377943.5,,3377942.5,,3377965.084,8,400,,,
break_continue,html.Screen,4_72_2,2023-11-01T23:58:45.637Z,,0,,,NaN,,,,,,false,,,,3377944.200000003,3377944.1000000015,,3377943.8999999985,,3377965.084,8,400,,,
sequence,flow.Sequence,4_72,2023-11-01T23:58:45.638Z,,0,,,2679.5840000016615,completion,,,,,false,,,,3377944.3999999985,3377944.1000000015,3375231.184,3375245.8999999985,3375264.516,3377965.084,8,400,,,
trial,html.Screen,4_73_0,2023-11-01T23:58:48.187Z,,0,2,,2528.815999998711,response,ISIC_0032160.JPG,9,ISIC_4292708.JPG,ISIC_4292708.JPG,false,0,keypress(z),500,3380494.3999999985,3380493.8999999985,3377931.752,3377944.6000000015,3377965.084,3380514.982,8,400,24,,ISIC_0032160.JPG
break,html.Screen,4_73_1,2023-11-01T23:58:48.189Z,,0,,,NaN,,,,,,false,,,,3380495.8000000045,3380495.5,,3380494.700000003,,3380514.982,8,400,,,
break_continue,html.Screen,4_73_2,2023-11-01T23:58:48.189Z,,0,,,NaN,,,,,,false,,,,3380496.3000000045,3380496.200000003,,3380495.8999999985,,3380514.982,8,400,,,
sequence,flow.Sequence,4_73,2023-11-01T23:58:48.190Z,,0,,,2531.1160000031814,completion,,,,,false,,,,3380496.3999999985,3380496.200000003,3377931.752,3377944.6000000015,3377965.084,3380514.982,8,400,,,
trial,html.Screen,4_74_0,2023-11-01T23:58:50.741Z,,0,2,,2532.0180000001565,response,ISIC_0031472.JPG,8,ISIC_1819358.JPG,ISIC_1819358.JPG,false,0,keypress(z),500,3383047.6000000015,3383047,3380481.65,3380496.6000000015,3380514.982,3383081.546,8,400,25,,ISIC_0031472.JPG
break,html.Screen,4_74_1,2023-11-01T23:58:50.742Z,,0,,,NaN,,,,,,false,,,,3383049.1000000015,3383048.8000000045,,3383047.8999999985,,3383081.546,8,400,,,
break_continue,html.Screen,4_74_2,2023-11-01T23:58:50.743Z,,0,,,NaN,,,,,,false,,,,3383049.5,3383049.3999999985,,3383049.200000003,,3383081.546,8,400,,,
sequence,flow.Sequence,4_74,2023-11-01T23:58:50.743Z,,0,,,2534.4179999986663,completion,,,,,false,,,,3383049.6000000015,3383049.3999999985,3380481.65,3380496.5,3380514.982,3383081.546,8,400,,,
trial,html.Screen,4_75_0,2023-11-01T23:58:53.341Z,,0,2,,2565.754000004381,response,ISIC_7976934.JPG,5,ISIC_1944650.JPG,ISIC_1944650.JPG,false,0,keypress(z),500,3385647.8000000045,3385647.3000000045,3383048.214,3383049.8000000045,3383081.546,3385681.442,8,400,26,,ISIC_7976934.JPG
break,html.Screen,4_75_1,2023-11-01T23:58:53.343Z,,0,,,NaN,,,,,,false,,,,3385649.5,3385649.200000003,,3385648.1000000015,,3385681.442,8,400,,,
break_continue,html.Screen,4_75_2,2023-11-01T23:58:53.343Z,,0,,,NaN,,,,,,false,,,,3385649.8999999985,3385649.8000000045,,3385649.6000000015,,3385681.442,8,400,,,
sequence,flow.Sequence,4_75,2023-11-01T23:58:53.343Z,,0,,,2568.254000004381,completion,,,,,false,,,,3385650.1000000015,3385649.8000000045,3383048.214,3383049.700000003,3383081.546,3385681.442,8,400,,,
trial,html.Screen,4_76_0,2023-11-01T23:58:55.896Z,,0,2,,2521.0580000001937,response,ISIC_1423737.JPG,8,ISIC_4425766.JPG,ISIC_4425766.JPG,false,0,keypress(z),500,3388203,3388202.5,3385648.11,3385650.3000000045,3385681.442,3388232.035,8,400,27,,ISIC_1423737.JPG
break,html.Screen,4_76_1,2023-11-01T23:58:55.897Z,,0,,,NaN,,,,,,false,,,,3388204.5,3388204.200000003,,3388203.3000000045,,3388232.035,8,400,,,
break_continue,html.Screen,4_76_2,2023-11-01T23:58:55.898Z,,0,,,NaN,,,,,,false,,,,3388204.8000000045,3388204.700000003,,3388204.5,,3388232.035,8,400,,,
sequence,flow.Sequence,4_76,2023-11-01T23:58:55.898Z,,0,,,2523.258000003174,completion,,,,,false,,,,3388205.1000000015,3388204.700000003,3385648.11,3385650.200000003,3385681.442,3388232.035,8,400,,,
trial,html.Screen,4_77_0,2023-11-01T23:58:58.559Z,,0,2,,2633.165000002831,response,ISIC_0013917.JPG,8,ISIC_3519679.JPG,ISIC_3519679.JPG,false,0,keypress(z),500,3390865.700000003,3390865.200000003,3388198.703,3388205.200000003,3388232.035,3390898.595,8,400,28,,ISIC_0013917.JPG
break,html.Screen,4_77_1,2023-11-01T23:58:58.560Z,,0,,,NaN,,,,,,false,,,,3390867.1000000015,3390866.8999999985,,3390866,,3390898.595,8,400,,,
break_continue,html.Screen,4_77_2,2023-11-01T23:58:58.560Z,,0,,,NaN,,,,,,false,,,,3390867.5,3390867.3000000045,,3390867.3000000045,,3390898.595,8,400,,,
sequence,flow.Sequence,4_77,2023-11-01T23:58:58.561Z,,0,,,2635.2650000043213,completion,,,,,false,,,,3390867.6000000015,3390867.3000000045,3388198.703,3388205.1000000015,3388232.035,3390898.595,8,400,,,
trial,html.Screen,4_78_0,2023-11-01T23:59:01.334Z,,0,2,,2742.1050000027753,response,ISIC_0033329.JPG,8,ISIC_0015219.JPG,ISIC_0033329.JPG,false,1,keypress(m),500,3393641.200000003,3393640.700000003,3390865.263,3390867.8000000045,3390898.595,3393665.151,8,400,29,,ISIC_0015219.JPG
break,html.Screen,4_78_1,2023-11-01T23:59:01.336Z,,0,,,NaN,,,,,,false,,,,3393642.5,3393642.3000000045,,3393641.3999999985,,3393665.151,8,400,,,
break_continue,html.Screen,4_78_2,2023-11-01T23:59:01.336Z,,0,,,NaN,,,,,,false,,,,3393643,3393642.8000000045,,3393642.700000003,,3393665.151,8,400,,,
sequence,flow.Sequence,4_78,2023-11-01T23:59:01.336Z,,0,,,2744.2050000042655,completion,,,,,false,,,,3393643.200000003,3393642.8000000045,3390865.263,3390867.700000003,3390898.595,3393665.151,8,400,,,
trial,html.Screen,4_79_0,2023-11-01T23:59:03.885Z,,0,2,,2526.748999998439,response,ISIC_0033332.JPG,8,ISIC_8613657.JPG,ISIC_8613657.JPG,false,0,keypress(z),500,3396192.3999999985,3396191.8999999985,3393631.819,3393643.3999999985,3393665.151,3396215.049,8,400,30,,ISIC_0033332.JPG
break,html.Screen,4_79_1,2023-11-01T23:59:03.887Z,,0,,,NaN,,,,,,false,,,,3396193.8000000045,3396193.6000000015,,3396192.700000003,,3396215.049,8,400,,,
break_continue,html.Screen,4_79_2,2023-11-01T23:59:03.887Z,,0,,,NaN,,,,,,false,,,,3396194.3000000045,3396194.1000000015,,3396194,,3396215.049,8,400,,,
sequence,flow.Sequence,4_79,2023-11-01T23:59:03.887Z,,0,,,2528.9490000014193,completion,,,,,false,,,,3396194.5,3396194.1000000015,3393631.819,3393643.3000000045,3393665.151,3396215.049,8,400,,,
trial,html.Screen,4_80_0,2023-11-01T23:59:06.901Z,,0,2,,2992.751000004355,response,ISIC_0014103.JPG,8,ISIC_0010962.JPG,ISIC_0014103.JPG,false,1,keypress(m),500,3399208.3000000045,3399207.8000000045,3396181.717,3396194.6000000015,3396215.049,3399232.294,8,400,31,,ISIC_0010962.JPG
break,html.Screen,4_80_1,2023-11-01T23:59:06.903Z,,0,,,NaN,,,,,,false,,,,3399209.700000003,3399209.5,,3399208.6000000015,,3399232.294,8,400,,,
break_continue,html.Screen,4_80_2,2023-11-01T23:59:06.903Z,,0,,,NaN,,,,,,false,,,,3399210.3000000045,3399210.1000000015,,3399209.8999999985,,3399232.294,8,400,,,
sequence,flow.Sequence,4_80,2023-11-01T23:59:06.903Z,,0,,,2995.0510000013746,completion,,,,,false,,,,3399210.3999999985,3399210.1000000015,3396181.717,3396194.6000000015,3396215.049,3399232.294,8,400,,,
trial,html.Screen,4_81_0,2023-11-01T23:59:09.501Z,,0,2,,2575.406000002753,response,ISIC_0027921.JPG,6,ISIC_0026082.JPG,ISIC_0026082.JPG,false,0,keypress(z),500,3401808.200000003,3401807.700000003,3399198.962,3399210.6000000015,3399232.294,3401832.19,8,400,32,,ISIC_0027921.JPG
break,html.Screen,4_81_1,2023-11-01T23:59:09.503Z,,0,,,NaN,,,,,,false,,,,3401809.6000000015,3401809.3999999985,,3401808.5,,3401832.19,8,400,,,
break_continue,html.Screen,4_81_2,2023-11-01T23:59:09.503Z,,0,,,NaN,,,,,,false,,,,3401810,3401810,,3401809.8000000045,,3401832.19,8,400,,,
sequence,flow.Sequence,4_81,2023-11-01T23:59:09.503Z,,0,,,2577.7059999997728,completion,,,,,false,,,,3401810.3000000045,3401810,3399198.962,3399210.5,3399232.294,3401832.19,8,400,,,
trial,html.Screen,4_82_0,2023-11-01T23:59:12.099Z,,0,2,,2573.6100000045262,response,ISIC_8561963.JPG,8,ISIC_1658623.JPG,ISIC_1658623.JPG,false,0,keypress(z),500,3404406.3000000045,3404405.8000000045,3401798.858,3401810.5,3401832.19,3404432.086,8,400,33,,ISIC_8561963.JPG
break,html.Screen,4_82_1,2023-11-01T23:59:12.101Z,,0,,,NaN,,,,,,false,,,,3404407.8000000045,3404407.5,,3404406.6000000015,,3404432.086,8,400,,,
break_continue,html.Screen,4_82_2,2023-11-01T23:59:12.101Z,,0,,,NaN,,,,,,false,,,,3404408.3000000045,3404408.200000003,,3404407.8999999985,,3404432.086,8,400,,,
sequence,flow.Sequence,4_82,2023-11-01T23:59:12.101Z,,0,,,2576.010000003036,completion,,,,,false,,,,3404408.5,3404408.200000003,3401798.858,3401810.3999999985,3401832.19,3404432.086,8,400,,,
trial,html.Screen,4_83_0,2023-11-01T23:59:14.699Z,,0,2,,2573.2140000043437,response,ISIC_0068128.JPG,8,ISIC_0472513.JPG,ISIC_0472513.JPG,false,0,keypress(z),500,3407005.700000003,3407005.3000000045,3404398.754,3404408.6000000015,3404432.086,3407031.982,8,400,34,,ISIC_0068128.JPG
break,html.Screen,4_83_1,2023-11-01T23:59:14.700Z,,0,,,NaN,,,,,,false,,,,3407007.200000003,3407007,,3407006,,3407031.982,8,400,,,
break_continue,html.Screen,4_83_2,2023-11-01T23:59:14.701Z,,0,,,NaN,,,,,,false,,,,3407007.6000000015,3407007.5,,3407007.3999999985,,3407031.982,8,400,,,
sequence,flow.Sequence,4_83,2023-11-01T23:59:14.701Z,,0,,,2575.4139999998733,completion,,,,,false,,,,3407007.8000000045,3407007.5,3404398.754,3404408.6000000015,3404432.086,3407031.982,8,400,,,
trial,html.Screen,4_84_0,2023-11-01T23:59:17.543Z,,0,2,,2817.318000004627,response,ISIC_8969855.JPG,7,ISIC_2160913.JPG,ISIC_8969855.JPG,false,1,keypress(m),500,3409849.8000000045,3409849.3000000045,3406998.65,3407008,3407031.982,3409882.587,8,400,35,,ISIC_2160913.JPG
break,html.Screen,4_84_1,2023-11-01T23:59:17.544Z,,0,,,NaN,,,,,,false,,,,3409851.3000000045,3409851,,3409850,,3409882.587,8,400,,,
break_continue,html.Screen,4_84_2,2023-11-01T23:59:17.545Z,,0,,,NaN,,,,,,false,,,,3409851.700000003,3409851.6000000015,,3409851.3999999985,,3409882.587,8,400,,,
sequence,flow.Sequence,4_84,2023-11-01T23:59:17.545Z,,0,,,2819.6180000016466,completion,,,,,false,,,,3409852,3409851.6000000015,3406998.65,3407008,3407031.982,3409882.587,8,400,,,
trial,html.Screen,4_85_0,2023-11-01T23:59:20.654Z,,0,2,,3078.6130000031553,response,ISIC_9324486.JPG,8,ISIC_0028944.JPG,ISIC_0028944.JPG,false,0,keypress(z),500,3412961.6000000015,3412961.200000003,3409849.255,3409852.200000003,3409882.587,3412982.463,8,400,36,,ISIC_9324486.JPG
break,html.Screen,4_85_1,2023-11-01T23:59:20.656Z,,0,,,NaN,,,,,,false,,,,3412963.200000003,3412962.8999999985,,3412962,,3412982.463,8,400,,,
break_continue,html.Screen,4_85_2,2023-11-01T23:59:20.656Z,,0,,,NaN,,,,,,false,,,,3412963.6000000015,3412963.3999999985,,3412963.200000003,,3412982.463,8,400,,,
sequence,flow.Sequence,4_85,2023-11-01T23:59:20.657Z,,0,,,3080.812999998685,completion,,,,,false,,,,3412963.8000000045,3412963.3999999985,3409849.255,3409852.1000000015,3409882.587,3412982.463,8,400,,,
trial,html.Screen,4_86_0,2023-11-01T23:59:23.238Z,,0,2,,2561.8370000044815,response,ISIC_0070412.JPG,7,ISIC_0046741.JPG,ISIC_0046741.JPG,false,0,keypress(z),500,3415544.8999999985,3415544.3000000045,3412949.131,3412964,3412982.463,3415565.693,8,400,37,,ISIC_0070412.JPG
break,html.Screen,4_86_1,2023-11-01T23:59:23.239Z,,0,,,NaN,,,,,,false,,,,3415546.3999999985,3415546.1000000015,,3415545.200000003,,3415565.693,8,400,,,
break_continue,html.Screen,4_86_2,2023-11-01T23:59:23.240Z,,0,,,NaN,,,,,,false,,,,3415546.8000000045,3415546.700000003,,3415546.5,,3415565.693,8,400,,,
sequence,flow.Sequence,4_86,2023-11-01T23:59:23.240Z,,0,,,2564.2370000029914,completion,,,,,false,,,,3415547,3415546.700000003,3412949.131,3412963.8999999985,3412982.463,3415565.693,8,400,,,
trial,html.Screen,4_87_0,2023-11-01T23:59:25.740Z,,0,2,,2481.30700000003,response,ISIC_5591622.JPG,8,ISIC_0010757.JPG,ISIC_5591622.JPG,false,1,keypress(m),500,3418047.5,3418047,3415532.361,3415547.200000003,3415565.693,3418065.593,8,400,38,,ISIC_0010757.JPG
break,html.Screen,4_87_1,2023-11-01T23:59:25.742Z,,0,,,NaN,,,,,,false,,,,3418049,3418048.700000003,,3418047.8000000045,,3418065.593,8,400,,,
break_continue,html.Screen,4_87_2,2023-11-01T23:59:25.742Z,,0,,,NaN,,,,,,false,,,,3418049.6000000015,3418049.3999999985,,3418049.200000003,,3418065.593,8,400,,,
sequence,flow.Sequence,4_87,2023-11-01T23:59:25.742Z,,0,,,2483.7069999985397,completion,,,,,false,,,,3418049.700000003,3418049.3999999985,3415532.361,3415547.200000003,3415565.693,3418065.593,8,400,,,
trial,html.Screen,4_88_0,2023-11-01T23:59:28.616Z,,0,2,,2856.806999998633,response,ISIC_0065360.JPG,9,ISIC_3945916.JPG,ISIC_3945916.JPG,false,0,keypress(z),500,3420922.8999999985,3420922.3999999985,3418032.261,3418049.8000000045,3418065.593,3420949.445,8,400,39,,ISIC_0065360.JPG
break,html.Screen,4_88_1,2023-11-01T23:59:28.617Z,,0,,,NaN,,,,,,false,,,,3420924.3999999985,3420924.1000000015,,3420923.200000003,,3420949.445,8,400,,,
break_continue,html.Screen,4_88_2,2023-11-01T23:59:28.618Z,,0,,,NaN,,,,,,false,,,,3420924.8000000045,3420924.700000003,,3420924.6000000015,,3420949.445,8,400,,,
sequence,flow.Sequence,4_88,2023-11-01T23:59:28.618Z,,0,,,2859.107000003103,completion,,,,,false,,,,3420925,3420924.700000003,3418032.261,3418049.8000000045,3418065.593,3420949.445,8,400,,,
trial,html.Screen,4_89_0,2023-11-01T23:59:31.299Z,,0,2,,2656.1550000016578,response,ISIC_0064943.JPG,7,ISIC_6162308.JPG,ISIC_6162308.JPG,false,0,keypress(z),500,3423606.1000000015,3423605.6000000015,3420916.113,3420925.200000003,3420949.445,3423632.671,8,400,40,,ISIC_0064943.JPG
break,html.Screen,4_89_1,2023-11-01T23:59:31.300Z,,0,,,NaN,,,,,,false,,,,3423607.700000003,3423607.3999999985,,3423606.5,,3423632.671,8,400,,,
break_continue,html.Screen,4_89_2,2023-11-01T23:59:31.301Z,,0,,,NaN,,,,,,false,,,,3423608.1000000015,3423608,,3423607.8000000045,,3423632.671,8,400,,,
sequence,flow.Sequence,4_89,2023-11-01T23:59:31.301Z,,0,,,2658.5550000001676,completion,,,,,false,,,,3423608.3000000045,3423608,3420916.113,3420925.1000000015,3420949.445,3423632.671,8,400,,,
trial,html.Screen,4_90_0,2023-11-01T23:59:34.090Z,,0,2,,2764.7289999984205,response,ISIC_1531204.JPG,7,ISIC_8417873.JPG,ISIC_1531204.JPG,false,1,keypress(m),500,3426397.8000000045,3426397.3999999985,3423599.339,3423608.5,3423632.671,3426415.893,8,400,41,,ISIC_8417873.JPG
break,html.Screen,4_90_1,2023-11-01T23:59:34.092Z,,0,,,NaN,,,,,,false,,,,3426399.200000003,3426399,,3426398.1000000015,,3426415.893,8,400,,,
break_continue,html.Screen,4_90_2,2023-11-01T23:59:34.092Z,,0,,,NaN,,,,,,false,,,,3426399.700000003,3426399.6000000015,,3426399.3000000045,,3426415.893,8,400,,,
sequence,flow.Sequence,4_90,2023-11-01T23:59:34.093Z,,0,,,2766.9290000014007,completion,,,,,false,,,,3426399.8000000045,3426399.6000000015,3423599.339,3423608.3999999985,3423632.671,3426415.893,8,400,,,
trial,html.Screen,4_91_0,2023-11-01T23:59:37.378Z,,0,2,,3268.7070000013337,response,ISIC_0805941.JPG,7,ISIC_4331481.JPG,ISIC_0805941.JPG,false,1,keypress(m),500,3429685.1000000015,3429684.6000000015,3426382.561,3426400,3426415.893,3429716.452,8,400,42,,ISIC_4331481.JPG
break,html.Screen,4_91_1,2023-11-01T23:59:37.379Z,,0,,,NaN,,,,,,false,,,,3429686.5,3429686.200000003,,3429685.3000000045,,3429716.452,8,400,,,
break_continue,html.Screen,4_91_2,2023-11-01T23:59:37.380Z,,0,,,NaN,,,,,,false,,,,3429687,3429686.8999999985,,3429686.6000000015,,3429716.452,8,400,,,
sequence,flow.Sequence,4_91,2023-11-01T23:59:37.380Z,,0,,,3271.0069999983534,completion,,,,,false,,,,3429687.200000003,3429686.8999999985,3426382.561,3426399.8999999985,3426415.893,3429716.452,8,400,,,
trial,html.Screen,4_92_0,2023-11-01T23:59:40.076Z,,0,2,,2666.1480000014417,response,ISIC_8504479.JPG,5,ISIC_0032982.JPG,ISIC_0032982.JPG,false,0,keypress(z),500,3432383.1000000015,3432382.6000000015,3429683.12,3429687.3000000045,3429716.452,3432416.344,8,400,43,,ISIC_8504479.JPG
break,html.Screen,4_92_1,2023-11-01T23:59:40.077Z,,0,,,NaN,,,,,,false,,,,3432384.6000000015,3432384.3000000045,,3432383.3999999985,,3432416.344,8,400,,,
break_continue,html.Screen,4_92_2,2023-11-01T23:59:40.078Z,,0,,,NaN,,,,,,false,,,,3432385.1000000015,3432385,,3432384.700000003,,3432416.344,8,400,,,
sequence,flow.Sequence,4_92,2023-11-01T23:59:40.078Z,,0,,,2668.5479999999516,completion,,,,,false,,,,3432385.200000003,3432385,3429683.12,3429687.3000000045,3429716.452,3432416.344,8,400,,,
trial,html.Screen,4_93_0,2023-11-01T23:59:42.689Z,,0,2,,2579.055999998469,response,ISIC_0294399.JPG,6,ISIC_0060975.JPG,ISIC_0294399.JPG,false,1,keypress(m),500,3434996,3434995.3999999985,3432383.012,3432385.3000000045,3432416.344,3435016.24,8,400,44,,ISIC_0060975.JPG
break,html.Screen,4_93_1,2023-11-01T23:59:42.690Z,,0,,,NaN,,,,,,false,,,,3434997.3999999985,3434997.200000003,,3434996.3000000045,,3435016.24,8,400,,,
break_continue,html.Screen,4_93_2,2023-11-01T23:59:42.691Z,,0,,,NaN,,,,,,false,,,,3434997.8999999985,3434997.8000000045,,3434997.6000000015,,3435016.24,8,400,,,
sequence,flow.Sequence,4_93,2023-11-01T23:59:42.691Z,,0,,,2581.4560000044294,completion,,,,,false,,,,3434998.1000000015,3434997.8000000045,3432383.012,3432385.200000003,3432416.344,3435016.24,8,400,,,
trial,html.Screen,4_94_0,2023-11-01T23:59:45.304Z,,0,2,,2594.3600000012666,response,ISIC_0033047.JPG,8,ISIC_0016085.JPG,ISIC_0033047.JPG,false,1,keypress(m),500,3437611.200000003,3437610.6000000015,3434982.908,3434998.200000003,3435016.24,3437632.802,8,400,45,,ISIC_0016085.JPG
break,html.Screen,4_94_1,2023-11-01T23:59:45.305Z,,0,,,NaN,,,,,,false,,,,3437612.8000000045,3437612.5,,3437611.6000000015,,3437632.802,8,400,,,
break_continue,html.Screen,4_94_2,2023-11-01T23:59:45.306Z,,0,,,NaN,,,,,,false,,,,3437613.200000003,3437613.200000003,,3437612.8999999985,,3437632.802,8,400,,,
sequence,flow.Sequence,4_94,2023-11-01T23:59:45.306Z,,0,,,2596.9600000027567,completion,,,,,false,,,,3437613.3999999985,3437613.200000003,3434982.908,3434998.1000000015,3435016.24,3437632.802,8,400,,,
trial,html.Screen,4_95_0,2023-11-01T23:59:48.527Z,,0,2,,3200.7980000013486,response,ISIC_6546903.JPG,6,ISIC_0172020.JPG,ISIC_6546903.JPG,false,1,keypress(m),500,3440834,3440833.6000000015,3437599.47,3437613.5,3437632.802,3440866.751,8,400,46,,ISIC_0172020.JPG
break,html.Screen,4_95_1,2023-11-01T23:59:48.528Z,,0,,,NaN,,,,,,false,,,,3440835.6000000015,3440835.3000000045,,3440834.3000000045,,3440866.751,8,400,,,
break_continue,html.Screen,4_95_2,2023-11-01T23:59:48.529Z,,0,,,NaN,,,,,,false,,,,3440836,3440835.8000000045,,3440835.8000000045,,3440866.751,8,400,,,
sequence,flow.Sequence,4_95,2023-11-01T23:59:48.529Z,,0,,,3202.998000004329,completion,,,,,false,,,,3440836.1000000015,3440835.8000000045,3437599.47,3437613.5,3437632.802,3440866.751,8,400,,,
trial,html.Screen,4_96_0,2023-11-01T23:59:51.158Z,,0,2,,2598.248999999836,response,ISIC_0011234.JPG,5,ISIC_4391909.JPG,ISIC_4391909.JPG,false,0,keypress(z),500,3443465.5,3443465,3440833.419,3440836.3000000045,3440866.751,3443483.313,8,400,47,,ISIC_0011234.JPG
break,html.Screen,4_96_1,2023-11-01T23:59:51.159Z,,0,,,NaN,,,,,,false,,,,3443466.8999999985,3443466.6000000015,,3443465.8000000045,,3443483.313,8,400,,,
break_continue,html.Screen,4_96_2,2023-11-01T23:59:51.160Z,,0,,,NaN,,,,,,false,,,,3443467.3000000045,3443467.1000000015,,3443467,,3443483.313,8,400,,,
sequence,flow.Sequence,4_96,2023-11-01T23:59:51.160Z,,0,,,2600.349000001326,completion,,,,,false,,,,3443467.3999999985,3443467.1000000015,3440833.419,3440836.200000003,3440866.751,3443483.313,8,400,,,
trial,html.Screen,4_97_0,2023-11-01T23:59:54.028Z,,0,2,,2852.086999998428,response,ISIC_5483119.JPG,4,ISIC_0056192.JPG,ISIC_5483119.JPG,false,1,keypress(m),500,3446335.700000003,3446335.3999999985,3443449.981,3443467.5,3443483.313,3446366.531,8,400,48,,ISIC_0056192.JPG
break,html.Screen,4_97_1,2023-11-01T23:59:54.029Z,,0,,,NaN,,,,,,false,,,,3446336.3999999985,3446336.3000000045,,3446335.700000003,,3446366.531,8,400,,,
break_continue,html.Screen,4_97_2,2023-11-01T23:59:54.029Z,,0,,,NaN,,,,,,false,,,,3446336.6000000015,3446336.6000000015,,3446336.5,,3446366.531,8,400,,,
sequence,flow.Sequence,4_97,2023-11-01T23:59:54.029Z,,0,,,2853.287000001408,completion,,,,,false,,,,3446336.700000003,3446336.6000000015,3443449.981,3443467.3999999985,3443483.313,3446366.531,8,400,,,
trial,html.Screen,4_98_0,2023-11-01T23:59:56.932Z,,0,2,,2872.469000000041,response,ISIC_7017387.JPG,8,ISIC_4223734.JPG,ISIC_4223734.JPG,false,0,keypress(z),500,3449239.3999999985,3449239,3446333.199,3446337.5,3446366.531,3449266.415,8,400,49,,ISIC_7017387.JPG
break,html.Screen,4_98_1,2023-11-01T23:59:56.933Z,,0,,,NaN,,,,,,false,,,,3449240.8999999985,3449240.6000000015,,3449239.700000003,,3449266.415,8,400,,,
break_continue,html.Screen,4_98_2,2023-11-01T23:59:56.934Z,,0,,,NaN,,,,,,false,,,,3449241.3999999985,3449241.200000003,,3449241,,3449266.415,8,400,,,
sequence,flow.Sequence,4_98,2023-11-01T23:59:56.934Z,,0,,,2874.669000003021,completion,,,,,false,,,,3449241.5,3449241.200000003,3446333.199,3446337.3999999985,3446366.531,3449266.415,8,400,,,
trial,html.Screen,4_99_0,2023-11-01T23:59:59.693Z,,0,2,,2733.185000001453,response,ISIC_6038355.JPG,6,ISIC_8127578.JPG,ISIC_6038355.JPG,false,1,keypress(m),500,3452000.1000000015,3451999.6000000015,3449233.083,3449241.8000000045,3449266.415,3452033.711,8,400,50,,ISIC_8127578.JPG
break,html.Screen,4_99_1,2023-11-02T00:00:16.394Z,,0,,,16699.98099999968,timeout,,,,,false,,,,3468701.3000000045,3468700.36,3452000.379,3452000.3000000045,3452033.711,3468733.692,8,400,,,
break_continue,html.Screen,4_99_2,2023-11-02T00:00:18.511Z,,0,,,2065.908000001684,response,,,,,false,continue,keypress(Space),,3470818.8000000045,3470799.6000000015,3468700.36,3468701.3999999985,3468733.692,3470850.274,8,400,,,
sequence,flow.Sequence,4_99,2023-11-02T00:00:18.511Z,,0,,,21533.185000001453,completion,,,,,false,,,,3470819,3470799.6000000015,3449233.083,3449241.6000000015,3449266.415,3470850.274,8,400,,,
trial,html.Screen,4_100_0,2023-11-02T00:00:23.958Z,,0,3,,5415.125999998301,response,ISIC_2166661.JPG,8,ISIC_6570611.JPG,ISIC_2166661.JPG,false,1,keypress(m),500,3476266,3476265.3999999985,3470816.942,3470819.1000000015,3470850.274,3476284.107,8,400,1,,ISIC_6570611.JPG
break,html.Screen,4_100_1,2023-11-02T00:00:23.960Z,,0,,,NaN,,,,,,false,,,,3476267.5,3476267.200000003,,3476266.3999999985,,3476284.107,8,400,,,
break_continue,html.Screen,4_100_2,2023-11-02T00:00:23.960Z,,0,,,NaN,,,,,,false,,,,3476267.8999999985,3476267.8000000045,,3476267.700000003,,3476284.107,8,400,,,
sequence,flow.Sequence,4_100,2023-11-02T00:00:23.960Z,,0,,,5417.526000004262,completion,,,,,false,,,,3476268,3476267.8000000045,3470816.942,3470819.1000000015,3470850.274,3476284.107,8,400,,,
trial,html.Screen,4_101_0,2023-11-02T00:00:27.165Z,,0,3,,3188.193000004627,response,ISIC_5298608.JPG,9,ISIC_0065513.JPG,ISIC_0065513.JPG,false,0,keypress(z),500,3479472.8000000045,3479472.3000000045,3476250.775,3476268.200000003,3476284.107,3479500.645,8,400,2,,ISIC_5298608.JPG
break,html.Screen,4_101_1,2023-11-02T00:00:27.166Z,,0,,,NaN,,,,,,false,,,,3479474.200000003,3479473.8999999985,,3479473,,3479500.645,8,400,,,
break_continue,html.Screen,4_101_2,2023-11-02T00:00:27.167Z,,0,,,NaN,,,,,,false,,,,3479474.6000000015,3479474.3999999985,,3479474.3000000045,,3479500.645,8,400,,,
sequence,flow.Sequence,4_101,2023-11-02T00:00:27.167Z,,0,,,3190.2929999986663,completion,,,,,false,,,,3479474.700000003,3479474.3999999985,3476250.775,3476268.1000000015,3476284.107,3479500.645,8,400,,,
trial,html.Screen,4_102_0,2023-11-02T00:00:29.861Z,,0,3,,2667.5550000029616,response,ISIC_0069260.JPG,7,ISIC_9439034.JPG,ISIC_0069260.JPG,false,1,keypress(m),500,3482168.6000000015,3482168.200000003,3479467.313,3479474.8999999985,3479500.645,3482201.181,8,400,3,,ISIC_9439034.JPG
break,html.Screen,4_102_1,2023-11-02T00:00:29.862Z,,0,,,NaN,,,,,,false,,,,3482169.8000000045,3482169.6000000015,,3482168.8999999985,,3482201.181,8,400,,,
break_continue,html.Screen,4_102_2,2023-11-02T00:00:29.862Z,,0,,,NaN,,,,,,false,,,,3482170.1000000015,3482170,,3482169.8999999985,,3482201.181,8,400,,,
sequence,flow.Sequence,4_102,2023-11-02T00:00:29.862Z,,0,,,2669.3549999999814,completion,,,,,false,,,,3482170.200000003,3482170,3479467.313,3479474.8999999985,3479500.645,3482201.181,8,400,,,
trial,html.Screen,4_103_0,2023-11-02T00:00:32.479Z,,0,3,,2585.5190000031143,response,ISIC_7694028.JPG,8,ISIC_0000547.JPG,ISIC_7694028.JPG,false,1,keypress(m),500,3484787.200000003,3484786.700000003,3482167.849,3482170.3000000045,3482201.181,3484817.743,8,400,4,,ISIC_0000547.JPG
break,html.Screen,4_103_1,2023-11-02T00:00:32.481Z,,0,,,NaN,,,,,,false,,,,3484788.6000000015,3484788.3000000045,,3484787.5,,3484817.743,8,400,,,
break_continue,html.Screen,4_103_2,2023-11-02T00:00:32.481Z,,0,,,NaN,,,,,,false,,,,3484789,3484788.8999999985,,3484788.6000000015,,3484817.743,8,400,,,
sequence,flow.Sequence,4_103,2023-11-02T00:00:32.481Z,,0,,,2587.718999998644,completion,,,,,false,,,,3484789.1000000015,3484788.8999999985,3482167.849,3482170.200000003,3482201.181,3484817.743,8,400,,,
trial,html.Screen,4_104_0,2023-11-02T00:00:35.463Z,,0,3,,2952.4570000031963,response,ISIC_0016014.JPG,9,ISIC_7468304.JPG,ISIC_0016014.JPG,false,1,keypress(m),500,3487770.700000003,3487770.200000003,3484784.411,3484789.3000000045,3484817.743,3487800.957,8,400,5,,ISIC_7468304.JPG
break,html.Screen,4_104_1,2023-11-02T00:00:35.464Z,,0,,,NaN,,,,,,false,,,,3487772.200000003,3487771.8999999985,,3487771,,3487800.957,8,400,,,
break_continue,html.Screen,4_104_2,2023-11-02T00:00:35.465Z,,0,,,NaN,,,,,,false,,,,3487772.5,3487772.3999999985,,3487772.3000000045,,3487800.957,8,400,,,
sequence,flow.Sequence,4_104,2023-11-02T00:00:35.465Z,,0,,,2954.656999998726,completion,,,,,false,,,,3487772.700000003,3487772.3999999985,3484784.411,3484789.200000003,3484817.743,3487800.957,8,400,,,
trial,html.Screen,4_105_0,2023-11-02T00:00:38.830Z,,0,3,,3336.2430000030436,response,ISIC_0897526.JPG,5,ISIC_6471212.JPG,ISIC_6471212.JPG,false,0,keypress(z),500,3491137.8000000045,3491137.200000003,3487767.625,3487772.8000000045,3487800.957,3491167.489,8,400,6,,ISIC_0897526.JPG
break,html.Screen,4_105_1,2023-11-02T00:00:38.831Z,,0,,,NaN,,,,,,false,,,,3491139.1000000015,3491138.8999999985,,3491138,,3491167.489,8,400,,,
break_continue,html.Screen,4_105_2,2023-11-02T00:00:38.832Z,,0,,,NaN,,,,,,false,,,,3491139.5,3491139.3999999985,,3491139.3000000045,,3491167.489,8,400,,,
sequence,flow.Sequence,4_105,2023-11-02T00:00:38.832Z,,0,,,3338.442999998573,completion,,,,,false,,,,3491139.700000003,3491139.3999999985,3487767.625,3487772.8000000045,3487800.957,3491167.489,8,400,,,
trial,html.Screen,4_106_0,2023-11-02T00:00:42.564Z,,0,3,,3703.9109999984503,response,ISIC_0064879.JPG,8,ISIC_0028967.JPG,ISIC_0028967.JPG,false,0,keypress(z),500,3494871.8000000045,3494871.3999999985,3491134.157,3491139.8999999985,3491167.489,3494901.381,8,400,7,,ISIC_0064879.JPG
break,html.Screen,4_106_1,2023-11-02T00:00:42.565Z,,0,,,NaN,,,,,,false,,,,3494873.200000003,3494872.8999999985,,3494872.1000000015,,3494901.381,8,400,,,
break_continue,html.Screen,4_106_2,2023-11-02T00:00:42.566Z,,0,,,NaN,,,,,,false,,,,3494873.6000000015,3494873.3999999985,,3494873.3000000045,,3494901.381,8,400,,,
sequence,flow.Sequence,4_106,2023-11-02T00:00:42.566Z,,0,,,3705.9109999984503,completion,,,,,false,,,,3494873.8000000045,3494873.3999999985,3491134.157,3491139.8000000045,3491167.489,3494901.381,8,400,,,
trial,html.Screen,4_107_0,2023-11-02T00:00:45.244Z,,0,3,,2650.219000001438,response,ISIC_4936662.JPG,7,ISIC_9983696.JPG,ISIC_9983696.JPG,false,0,keypress(z),500,3497552.1000000015,3497551.6000000015,3494868.049,3494873.8999999985,3494901.381,3497584.607,8,400,8,,ISIC_4936662.JPG
break,html.Screen,4_107_1,2023-11-02T00:00:45.246Z,,0,,,NaN,,,,,,false,,,,3497553.5,3497553.200000003,,3497552.3999999985,,3497584.607,8,400,,,
break_continue,html.Screen,4_107_2,2023-11-02T00:00:45.246Z,,0,,,NaN,,,,,,false,,,,3497553.8999999985,3497553.8000000045,,3497553.6000000015,,3497584.607,8,400,,,
sequence,flow.Sequence,4_107,2023-11-02T00:00:45.246Z,,0,,,2652.419000004418,completion,,,,,false,,,,3497554,3497553.8000000045,3494868.049,3494873.8000000045,3494901.381,3497584.607,8,400,,,
trial,html.Screen,4_108_0,2023-11-02T00:00:48.051Z,,0,3,,2773.693000004627,response,ISIC_2506200.JPG,8,ISIC_0011686.JPG,ISIC_2506200.JPG,false,1,keypress(m),500,3500358.8000000045,3500358.3000000045,3497551.275,3497554.200000003,3497584.607,3500384.495,8,400,9,,ISIC_0011686.JPG
break,html.Screen,4_108_1,2023-11-02T00:00:48.052Z,,0,,,NaN,,,,,,false,,,,3500360.3000000045,3500360,,3500359.1000000015,,3500384.495,8,400,,,
break_continue,html.Screen,4_108_2,2023-11-02T00:00:48.053Z,,0,,,NaN,,,,,,false,,,,3500360.6000000015,3500360.5,,3500360.3000000045,,3500384.495,8,400,,,
sequence,flow.Sequence,4_108,2023-11-02T00:00:48.053Z,,0,,,2775.8930000001565,completion,,,,,false,,,,3500360.8000000045,3500360.5,3497551.275,3497554.1000000015,3497584.607,3500384.495,8,400,,,
trial,html.Screen,4_109_0,2023-11-02T00:00:50.700Z,,0,3,,2622.6050000013784,response,ISIC_1745731.JPG,7,ISIC_0001111.JPG,ISIC_0001111.JPG,false,0,keypress(z),500,3503007.6000000015,3503007.1000000015,3500351.163,3500361,3500384.495,3503035.003,8,400,10,,ISIC_1745731.JPG
break,html.Screen,4_109_1,2023-11-02T00:00:50.701Z,,0,,,NaN,,,,,,false,,,,3503008.8999999985,3503008.6000000015,,3503007.8000000045,,3503035.003,8,400,,,
break_continue,html.Screen,4_109_2,2023-11-02T00:00:50.701Z,,0,,,NaN,,,,,,false,,,,3503009.200000003,3503009.1000000015,,3503009,,3503035.003,8,400,,,
sequence,flow.Sequence,4_109,2023-11-02T00:00:50.701Z,,0,,,2624.6050000013784,completion,,,,,false,,,,3503009.3999999985,3503009.1000000015,3500351.163,3500360.8999999985,3500384.495,3503035.003,8,400,,,
trial,html.Screen,4_110_0,2023-11-02T00:00:53.315Z,,0,3,,2587.2970000044443,response,ISIC_0011509.JPG,6,ISIC_5755836.JPG,ISIC_5755836.JPG,false,0,keypress(z),500,3505622.8000000045,3505622.3000000045,3503001.671,3503009.5,3503035.003,3505651.565,8,400,11,,ISIC_0011509.JPG
break,html.Screen,4_110_1,2023-11-02T00:00:53.316Z,,0,,,NaN,,,,,,false,,,,3505624.3000000045,3505624,,3505623.1000000015,,3505651.565,8,400,,,
break_continue,html.Screen,4_110_2,2023-11-02T00:00:53.317Z,,0,,,NaN,,,,,,false,,,,3505624.8000000045,3505624.6000000015,,3505624.3999999985,,3505651.565,8,400,,,
sequence,flow.Sequence,4_110,2023-11-02T00:00:53.317Z,,0,,,2589.597000001464,completion,,,,,false,,,,3505624.8999999985,3505624.6000000015,3503001.671,3503009.3999999985,3503035.003,3505651.565,8,400,,,
trial,html.Screen,4_111_0,2023-11-02T00:00:56.249Z,,0,3,,2904.8349999985658,response,ISIC_0031249.JPG,5,ISIC_0032615.JPG,ISIC_0032615.JPG,false,0,keypress(z),500,3508556.8999999985,3508556.3999999985,3505618.233,3505625,3505651.565,3508584.781,8,400,12,,ISIC_0031249.JPG
break,html.Screen,4_111_1,2023-11-02T00:00:56.250Z,,0,,,NaN,,,,,,false,,,,3508558.200000003,3508558,,3508557.1000000015,,3508584.781,8,400,,,
break_continue,html.Screen,4_111_2,2023-11-02T00:00:56.251Z,,0,,,NaN,,,,,,false,,,,3508558.700000003,3508558.5,,3508558.3999999985,,3508584.781,8,400,,,
sequence,flow.Sequence,4_111,2023-11-02T00:00:56.251Z,,0,,,2906.935000000056,completion,,,,,false,,,,3508558.8000000045,3508558.5,3505618.233,3505625,3505651.565,3508584.781,8,400,,,
trial,html.Screen,4_112_0,2023-11-02T00:00:58.929Z,,0,3,,2651.919000003021,response,ISIC_0065918.JPG,6,ISIC_9709101.JPG,ISIC_9709101.JPG,false,0,keypress(z),500,3511237.1000000015,3511236.700000003,3508551.449,3508559,3508584.781,3511268.007,8,400,13,,ISIC_0065918.JPG
break,html.Screen,4_112_1,2023-11-02T00:00:58.931Z,,0,,,NaN,,,,,,false,,,,3511238.700000003,3511238.3999999985,,3511237.5,,3511268.007,8,400,,,
break_continue,html.Screen,4_112_2,2023-11-02T00:00:58.931Z,,0,,,NaN,,,,,,false,,,,3511239,3511239,,3511238.700000003,,3511268.007,8,400,,,
sequence,flow.Sequence,4_112,2023-11-02T00:00:58.931Z,,0,,,2654.219000000041,completion,,,,,false,,,,3511239.200000003,3511239,3508551.449,3508559,3508584.781,3511268.007,8,400,,,
trial,html.Screen,4_113_0,2023-11-02T00:01:01.610Z,,0,3,,2649.593000001274,response,ISIC_6634951.JPG,7,ISIC_5679942.JPG,ISIC_5679942.JPG,false,0,keypress(z),500,3513918.1000000015,3513917.6000000015,3511234.675,3511239.3999999985,3511268.007,3513951.955,8,400,14,,ISIC_6634951.JPG
break,html.Screen,4_113_1,2023-11-02T00:01:01.612Z,,0,,,NaN,,,,,,false,,,,3513919.6000000015,3513919.3000000045,,3513918.3999999985,,3513951.955,8,400,,,
break_continue,html.Screen,4_113_2,2023-11-02T00:01:01.612Z,,0,,,NaN,,,,,,false,,,,3513920,3513919.8999999985,,3513919.700000003,,3513951.955,8,400,,,
sequence,flow.Sequence,4_113,2023-11-02T00:01:01.612Z,,0,,,2651.892999998294,completion,,,,,false,,,,3513920.200000003,3513919.8999999985,3511234.675,3511239.3000000045,3511268.007,3513951.955,8,400,,,
trial,html.Screen,4_114_0,2023-11-02T00:01:04.371Z,,0,3,,2726.9449999984354,response,ISIC_3934537.JPG,8,ISIC_8165906.JPG,ISIC_3934537.JPG,false,1,keypress(m),500,3516679.3000000045,3516678.8999999985,3513918.623,3513920.3000000045,3513951.955,3516701.845,8,400,15,,ISIC_8165906.JPG
break,html.Screen,4_114_1,2023-11-02T00:01:04.373Z,,0,,,NaN,,,,,,false,,,,3516680.8999999985,3516680.6000000015,,3516679.700000003,,3516701.845,8,400,,,
break_continue,html.Screen,4_114_2,2023-11-02T00:01:04.373Z,,0,,,NaN,,,,,,false,,,,3516681.3999999985,3516681.200000003,,3516681,,3516701.845,8,400,,,
sequence,flow.Sequence,4_114,2023-11-02T00:01:04.373Z,,0,,,2729.2450000029057,completion,,,,,false,,,,3516681.5,3516681.200000003,3513918.623,3513920.200000003,3513951.955,3516701.845,8,400,,,
trial,html.Screen,4_115_0,2023-11-02T00:01:07.145Z,,0,3,,2750.3550000027753,response,ISIC_0028515.JPG,7,ISIC_0028528.JPG,ISIC_0028515.JPG,false,1,keypress(m),500,3519452.700000003,3519452.200000003,3516668.513,3516681.700000003,3516701.845,3519485.067,8,400,16,,ISIC_0028528.JPG
break,html.Screen,4_115_1,2023-11-02T00:01:07.146Z,,0,,,NaN,,,,,,false,,,,3519454.200000003,3519453.8999999985,,3519453,,3519485.067,8,400,,,
break_continue,html.Screen,4_115_2,2023-11-02T00:01:07.147Z,,0,,,NaN,,,,,,false,,,,3519454.6000000015,3519454.5,,3519454.3000000045,,3519485.067,8,400,,,
sequence,flow.Sequence,4_115,2023-11-02T00:01:07.147Z,,0,,,2752.654999999795,completion,,,,,false,,,,3519454.700000003,3519454.5,3516668.513,3516681.6000000015,3516701.845,3519485.067,8,400,,,
trial,html.Screen,4_116_0,2023-11-02T00:01:09.696Z,,0,3,,2518.8329999987036,response,ISIC_0033359.JPG,7,ISIC_0058132.JPG,ISIC_0058132.JPG,false,0,keypress(z),500,3522004.3000000045,3522003.8999999985,3519451.735,3519454.8999999985,3519485.067,3522035.613,8,400,17,,ISIC_0033359.JPG
break,html.Screen,4_116_1,2023-11-02T00:01:09.697Z,,0,,,NaN,,,,,,false,,,,3522005.3000000045,3522005.1000000015,,3522004.5,,3522035.613,8,400,,,
break_continue,html.Screen,4_116_2,2023-11-02T00:01:09.697Z,,0,,,NaN,,,,,,false,,,,3522005.6000000015,3522005.5,,3522005.3999999985,,3522035.613,8,400,,,
sequence,flow.Sequence,4_116,2023-11-02T00:01:09.698Z,,0,,,2520.4330000001937,completion,,,,,false,,,,3522005.700000003,3522005.5,3519451.735,3519454.8000000045,3519485.067,3522035.613,8,400,,,
trial,html.Screen,4_117_0,2023-11-02T00:01:12.357Z,,0,3,,2629.786999998614,response,ISIC_0061418.JPG,6,ISIC_6920867.JPG,ISIC_6920867.JPG,false,0,keypress(z),500,3524665.6000000015,3524665.3999999985,3522002.281,3522005.700000003,3522035.613,3524685.507,8,400,18,,ISIC_0061418.JPG
break,html.Screen,4_117_1,2023-11-02T00:01:12.358Z,,0,,,NaN,,,,,,false,,,,3524666.200000003,3524666.1000000015,,3524665.700000003,,3524685.507,8,400,,,
break_continue,html.Screen,4_117_2,2023-11-02T00:01:12.358Z,,0,,,NaN,,,,,,false,,,,3524666.3999999985,3524666.3999999985,,3524666.3000000045,,3524685.507,8,400,,,
sequence,flow.Sequence,4_117,2023-11-02T00:01:12.358Z,,0,,,2630.786999998614,completion,,,,,false,,,,3524666.6000000015,3524666.3999999985,3522002.281,3522005.700000003,3522035.613,3524685.507,8,400,,,
trial,html.Screen,4_118_0,2023-11-02T00:01:15.918Z,,0,3,,3540.392999998294,response,ISIC_5705973.JPG,7,ISIC_0028489.JPG,ISIC_5705973.JPG,false,1,keypress(m),500,3528226.3999999985,3528225.8999999985,3524652.175,3524666.6000000015,3524685.507,3528252.031,8,400,19,,ISIC_0028489.JPG
break,html.Screen,4_118_1,2023-11-02T00:01:15.920Z,,0,,,NaN,,,,,,false,,,,3528227.8999999985,3528227.5,,3528226.700000003,,3528252.031,8,400,,,
break_continue,html.Screen,4_118_2,2023-11-02T00:01:15.920Z,,0,,,NaN,,,,,,false,,,,3528228.3000000045,3528228.200000003,,3528228.1000000015,,3528252.031,8,400,,,
sequence,flow.Sequence,4_118,2023-11-02T00:01:15.920Z,,0,,,3542.693000002764,completion,,,,,false,,,,3528228.5,3528228.200000003,3524652.175,3524666.6000000015,3524685.507,3528252.031,8,400,,,
trial,html.Screen,4_119_0,2023-11-02T00:01:19.091Z,,0,3,,3146.969000000041,response,ISIC_0360988.JPG,7,ISIC_0014541.JPG,ISIC_0360988.JPG,false,1,keypress(m),500,3531399.5,3531399,3528218.699,3528228.700000003,3528252.031,3531418.571,8,400,20,,ISIC_0014541.JPG
break,html.Screen,4_119_1,2023-11-02T00:01:19.093Z,,0,,,NaN,,,,,,false,,,,3531401,3531400.8000000045,,3531399.8000000045,,3531418.571,8,400,,,
break_continue,html.Screen,4_119_2,2023-11-02T00:01:19.093Z,,0,,,NaN,,,,,,false,,,,3531401.3999999985,3531401.3000000045,,3531401.1000000015,,3531418.571,8,400,,,
sequence,flow.Sequence,4_119,2023-11-02T00:01:19.093Z,,0,,,3149.2690000045113,completion,,,,,false,,,,3531401.6000000015,3531401.3000000045,3528218.699,3528228.6000000015,3528252.031,3531418.571,8,400,,,
trial,html.Screen,4_120_0,2023-11-02T00:01:22.239Z,,0,3,,3127.729000004474,response,ISIC_9829436.JPG,6,ISIC_5194331.JPG,ISIC_5194331.JPG,false,0,keypress(z),500,3534546.8999999985,3534546.3000000045,3531385.239,3531401.8000000045,3531418.571,3534585.769,8,400,21,,ISIC_9829436.JPG
break,html.Screen,4_120_1,2023-11-02T00:01:22.240Z,,0,,,NaN,,,,,,false,,,,3534548.3999999985,3534548.1000000015,,3534547.200000003,,3534585.769,8,400,,,
break_continue,html.Screen,4_120_2,2023-11-02T00:01:22.241Z,,0,,,NaN,,,,,,false,,,,3534548.8000000045,3534548.700000003,,3534548.5,,3534585.769,8,400,,,
sequence,flow.Sequence,4_120,2023-11-02T00:01:22.241Z,,0,,,3130.129000002984,completion,,,,,false,,,,3534549,3534548.700000003,3531385.239,3531401.700000003,3531418.571,3534585.769,8,400,,,
trial,html.Screen,4_121_0,2023-11-02T00:01:24.905Z,,0,3,,2626.9310000031255,response,ISIC_7380353.JPG,8,ISIC_0998962.JPG,ISIC_0998962.JPG,false,0,keypress(z),500,3537213.1000000015,3537212.700000003,3534552.437,3534549.200000003,3534585.769,3537235.663,8,400,22,,ISIC_7380353.JPG
break,html.Screen,4_121_1,2023-11-02T00:01:24.906Z,,0,,,NaN,,,,,,false,,,,3537214.6000000015,3537214.3999999985,,3537213.5,,3537235.663,8,400,,,
break_continue,html.Screen,4_121_2,2023-11-02T00:01:24.907Z,,0,,,NaN,,,,,,false,,,,3537215,3537214.8999999985,,3537214.8000000045,,3537235.663,8,400,,,
sequence,flow.Sequence,4_121,2023-11-02T00:01:24.907Z,,0,,,2629.130999998655,completion,,,,,false,,,,3537215.1000000015,3537214.8999999985,3534552.437,3534549.200000003,3534585.769,3537235.663,8,400,,,
trial,html.Screen,4_122_0,2023-11-02T00:01:27.539Z,,0,3,,2611.1370000042953,response,ISIC_9694867.JPG,8,ISIC_1910158.JPG,ISIC_1910158.JPG,false,0,keypress(z),500,3539847.3000000045,3539846.8000000045,3537202.331,3537215.200000003,3537235.663,3539868.891,8,400,23,,ISIC_9694867.JPG
break,html.Screen,4_122_1,2023-11-02T00:01:27.541Z,,0,,,NaN,,,,,,false,,,,3539848.8999999985,3539848.5,,3539847.700000003,,3539868.891,8,400,,,
break_continue,html.Screen,4_122_2,2023-11-02T00:01:27.541Z,,0,,,NaN,,,,,,false,,,,3539849.3000000045,3539849.200000003,,3539849,,3539868.891,8,400,,,
sequence,flow.Sequence,4_122,2023-11-02T00:01:27.541Z,,0,,,2613.537000002805,completion,,,,,false,,,,3539849.5,3539849.200000003,3537202.331,3537215.200000003,3537235.663,3539868.891,8,400,,,
trial,html.Screen,4_123_0,2023-11-02T00:01:30.300Z,,0,3,,2739.1090000001714,response,ISIC_0033775.JPG,9,ISIC_4642695.JPG,ISIC_4642695.JPG,false,0,keypress(z),500,3542608.5,3542608,3539835.559,3539849.700000003,3539868.891,3542636.193,8,400,24,,ISIC_0033775.JPG
break,html.Screen,4_123_1,2023-11-02T00:01:30.302Z,,0,,,NaN,,,,,,false,,,,3542610,3542609.700000003,,3542608.700000003,,3542636.193,8,400,,,
break_continue,html.Screen,4_123_2,2023-11-02T00:01:30.302Z,,0,,,NaN,,,,,,false,,,,3542610.3999999985,3542610.3000000045,,3542610.200000003,,3542636.193,8,400,,,
sequence,flow.Sequence,4_123,2023-11-02T00:01:30.302Z,,0,,,2741.4090000046417,completion,,,,,false,,,,3542610.5,3542610.3000000045,3539835.559,3539849.6000000015,3539868.891,3542636.193,8,400,,,
trial,html.Screen,4_124_0,2023-11-02T00:01:33.332Z,,0,3,,3003.90700000152,response,ISIC_9556334.JPG,7,ISIC_0010036.JPG,ISIC_9556334.JPG,false,1,keypress(m),500,3545640.3000000045,3545640.1000000015,3542602.861,3542612,3542636.193,3545669.405,8,400,25,,ISIC_0010036.JPG
