sender,sender_type,sender_id,timestamp,meta,,blockNo,condition,duration,ended_on,img_left,img_reveal,img_right,loser,practice,response,response_action,selection_duration,time_commit,time_end,time_render,time_run,time_show,time_switch,total_blocks,total_trials,trialNo,url,winner
informed_consent,html.Screen,0,2023-09-16T15:43:37.418Z,"{""labjs_version"":""20.2.4"",""labjs_build"":{""flavor"":""production"",""commit"":""f5b4a49f956347addd546a832a3327688c2c0fef""},""location"":""https://run.pavlovia.org/MurrayBennett/melanoma-2afc/?participant=67378&platform=sona"",""userAgent"":""Mozilla/5.0 (Macintosh; Intel Mac OS X 10_15_7) AppleWebKit/537.36 (KHTML, like Gecko) Chrome/116.0.0.0 Safari/537.36"",""platform"":""MacIntel"",""language"":""en-US"",""locale"":""en-US"",""timeZone"":""America/Chicago"",""timezoneOffset"":300,""screen_width"":1440,""screen_height"":900,""scroll_width"":1440,""scroll_height"":634,""window_innerWidth"":1440,""window_innerHeight"":682,""devicePixelRatio"":2}",,,,6638.24799999404,response,,,,,,consent,click button,,8440.29999999702,8436.09999999404,1781.186,1784.7999999970198,1797.852,8447.586,,,,"{""participant"":""67378"",""platform"":""sona""}",
Welcome,html.Screen,1,2023-09-16T15:44:20.733Z,,,,irregular,43307.31399999106,response,,,,,,continue,click button,,51757.70000000298,51754.89999999106,8430.92,8440.70000000298,8447.586,51766.123,,,,,
trial,html.Screen,2_0_0,2023-09-16T15:44:32.003Z,,0,0,,11261.27699999106,response,ISIC_4679428.JPG,,ISIC_0061792.JPG,ISIC_4679428.JPG,true,1,keypress(m),500,63027.89999999106,63027.39999999106,51749.457,51758.09999999404,51766.123,63034.236,1,6,1,,ISIC_0061792.JPG
sequence,flow.Sequence,2_0,2023-09-16T15:44:32.003Z,,0,,,11261.27699999106,completion,,,,,true,,,,63028.59999999404,63027.39999999106,51749.457,51758,51766.123,63034.236,1,6,,,
trial,html.Screen,2_1_0,2023-09-16T15:44:37.869Z,,0,0,,5859.264000000003,response,ISIC_0776486.JPG,,ISIC_5199497.JPG,ISIC_0776486.JPG,true,1,keypress(m),500,68894,68893.5,63017.57,63028.79999999702,63034.236,68900.668,1,6,2,,ISIC_5199497.JPG
sequence,flow.Sequence,2_1,2023-09-16T15:44:37.869Z,,0,,,5859.264000000003,completion,,,,,true,,,,68894.5,68893.5,63017.57,63028.70000000298,63034.236,68900.668,1,6,,,
trial,html.Screen,2_2_0,2023-09-16T15:44:42.737Z,,0,0,,4860.931999994034,response,ISIC_8575776.JPG,,ISIC_2556187.JPG,ISIC_8575776.JPG,true,1,keypress(m),500,73762.29999999702,73761.59999999404,68884.002,68894.79999999702,68900.668,73768.114,1,6,3,,ISIC_2556187.JPG
sequence,flow.Sequence,2_2,2023-09-16T15:44:42.737Z,,0,,,4860.931999994034,completion,,,,,true,,,,73762.70000000298,73761.59999999404,68884.002,68894.59999999404,68900.668,73768.114,1,6,,,
trial,html.Screen,2_3_0,2023-09-16T15:44:48.630Z,,0,0,,5887.485999994038,response,ISIC_9238366.JPG,,ISIC_8141769.JPG,ISIC_9238366.JPG,true,1,keypress(m),500,79656.09999999404,79655.59999999404,73751.448,73763,73768.114,79667.878,1,6,4,,ISIC_8141769.JPG
sequence,flow.Sequence,2_3,2023-09-16T15:44:48.631Z,,0,,,5887.485999994038,completion,,,,,true,,,,79656.70000000298,79655.59999999404,73751.448,73762.89999999106,73768.114,79667.878,1,6,,,
trial,html.Screen,2_4_0,2023-09-16T15:44:53.093Z,,0,0,,4450.521999991062,response,ISIC_8949026.JPG,,ISIC_9959593.JPG,ISIC_8949026.JPG,true,1,keypress(m),500,84118.89999999106,84118.39999999106,79651.212,79657,79667.878,84135.072,1,6,5,,ISIC_9959593.JPG
sequence,flow.Sequence,2_4,2023-09-16T15:44:53.093Z,,0,,,4450.521999991062,completion,,,,,true,,,,84119.39999999106,84118.39999999106,79651.212,79656.89999999106,79667.878,84135.072,1,6,,,
trial,html.Screen,2_5_0,2023-09-16T15:45:00.856Z,,0,0,,7747.22799999702,response,ISIC_0460240.JPG,,ISIC_0010479.JPG,ISIC_0460240.JPG,true,1,keypress(m),500,91882.89999999106,91882.29999999702,84118.406,84119.70000000298,84135.072,91884.762,1,6,6,,ISIC_0010479.JPG
sequence,flow.Sequence,2_5,2023-09-16T15:45:00.857Z,,0,,,7747.22799999702,completion,,,,,true,,,,91883.39999999106,91882.29999999702,84118.406,84119.59999999404,84135.072,91884.762,1,6,,,
loop,flow.Loop,2,2023-09-16T15:45:00.857Z,,,,,40116.17699999702,completion,,,,,true,,,,91883.70000000298,91882.29999999702,51749.457,51758,51766.123,91884.762,1,6,,,
exp_instructions,html.Screen,3,2023-09-16T15:45:07.840Z,,,,,6975.938000002978,response,,,,,,continue,keypress(Space),,98866.5,98860.70000000298,91868.096,91883.79999999702,91884.762,98868.774,,,,,
trial,html.Screen,4_0_0,2023-09-16T15:45:14.983Z,,0,1,,7141.525999997015,response,ISIC_9969907.JPG,8,ISIC_0013473.JPG,ISIC_9969907.JPG,false,1,keypress(m),500,106010.70000000298,106010.29999999702,98852.108,98866.89999999106,98868.774,106018.488,8,400,1,,ISIC_0013473.JPG
break,html.Screen,4_0_1,2023-09-16T15:45:14.985Z,,0,,,NaN,,,,,,false,,,,106012.5,106012,,106011,,106018.488,8,400,,,
break_continue,html.Screen,4_0_2,2023-09-16T15:45:14.986Z,,0,,,NaN,,,,,,false,,,,106013.09999999404,106012.89999999106,,106012.59999999404,,106018.488,8,400,,,
sequence,flow.Sequence,4_0,2023-09-16T15:45:14.986Z,,0,,,7144.125999991054,completion,,,,,false,,,,106013.29999999702,106012.89999999106,98852.108,98866.79999999702,98868.774,106018.488,8,400,,,
trial,html.Screen,4_1_0,2023-09-16T15:45:17.920Z,,0,1,,2928.0120000000024,response,ISIC_7035246.JPG,8,ISIC_1315123.JPG,ISIC_1315123.JPG,false,0,keypress(z),500,108947,108946.5,106001.822,106013.5,106018.488,108953.056,8,400,2,,ISIC_7035246.JPG
break,html.Screen,4_1_1,2023-09-16T15:45:17.921Z,,0,,,NaN,,,,,,false,,,,108948.29999999702,108948.09999999404,,108947.39999999106,,108953.056,8,400,,,
break_continue,html.Screen,4_1_2,2023-09-16T15:45:17.921Z,,0,,,NaN,,,,,,false,,,,108948.70000000298,108948.59999999404,,108948.5,,108953.056,8,400,,,
sequence,flow.Sequence,4_1,2023-09-16T15:45:17.921Z,,0,,,2930.111999994042,completion,,,,,false,,,,108949,108948.59999999404,106001.822,106013.39999999106,106018.488,108953.056,8,400,,,
trial,html.Screen,4_2_0,2023-09-16T15:45:21.962Z,,0,1,,4036.6440000029834,response,ISIC_0025841.JPG,8,ISIC_0031835.JPG,ISIC_0031835.JPG,false,0,keypress(z),500,112990.09999999404,112989.70000000298,108936.39,108949.20000000298,108953.056,113002.894,8,400,3,,ISIC_0025841.JPG
break,html.Screen,4_2_1,2023-09-16T15:45:21.964Z,,0,,,NaN,,,,,,false,,,,112991.5,112991.20000000298,,112990.39999999106,,113002.894,8,400,,,
break_continue,html.Screen,4_2_2,2023-09-16T15:45:21.964Z,,0,,,NaN,,,,,,false,,,,112991.89999999106,112991.79999999702,,112991.70000000298,,113002.894,8,400,,,
sequence,flow.Sequence,4_2,2023-09-16T15:45:21.964Z,,0,,,4038.743999997023,completion,,,,,false,,,,112992.09999999404,112991.79999999702,108936.39,108949.09999999404,108953.056,113002.894,8,400,,,
trial,html.Screen,4_3_0,2023-09-16T15:45:25.520Z,,0,1,,3544.2059999940393,response,ISIC_0028534.JPG,7,ISIC_0004334.JPG,ISIC_0004334.JPG,false,0,keypress(z),500,116547.59999999404,116547.09999999404,112986.228,112992.29999999702,113002.894,116552.752,8,400,4,,ISIC_0028534.JPG
break,html.Screen,4_3_1,2023-09-16T15:45:25.521Z,,0,,,NaN,,,,,,false,,,,116549,116548.79999999702,,116548,,116552.752,8,400,,,
break_continue,html.Screen,4_3_2,2023-09-16T15:45:25.522Z,,0,,,NaN,,,,,,false,,,,116549.5,116549.29999999702,,116549.20000000298,,116552.752,8,400,,,
sequence,flow.Sequence,4_3,2023-09-16T15:45:25.522Z,,0,,,3546.4059999970195,completion,,,,,false,,,,116549.70000000298,116549.29999999702,112986.228,112992.29999999702,113002.894,116552.752,8,400,,,
trial,html.Screen,4_4_0,2023-09-16T15:45:30.083Z,,0,1,,4558.347999994046,response,ISIC_8794567.JPG,8,ISIC_7758102.JPG,ISIC_7758102.JPG,false,0,keypress(z),500,121111.5,121111.09999999404,116536.086,116549.79999999702,116552.752,121120.162,8,400,5,,ISIC_8794567.JPG
break,html.Screen,4_4_1,2023-09-16T15:45:30.085Z,,0,,,NaN,,,,,,false,,,,121112.89999999106,121112.59999999404,,121111.89999999106,,121120.162,8,400,,,
break_continue,html.Screen,4_4_2,2023-09-16T15:45:30.085Z,,0,,,NaN,,,,,,false,,,,121113.29999999702,121113.20000000298,,121113,,121120.162,8,400,,,
sequence,flow.Sequence,4_4,2023-09-16T15:45:30.085Z,,0,,,4560.448000002987,completion,,,,,false,,,,121113.5,121113.20000000298,116536.086,116549.79999999702,116552.752,121120.162,8,400,,,
trial,html.Screen,4_5_0,2023-09-16T15:45:33.314Z,,0,1,,3222.137999997023,response,ISIC_8029613.JPG,8,ISIC_0061379.JPG,ISIC_8029613.JPG,false,1,keypress(m),500,124342.70000000298,124342.29999999702,121103.496,121113.59999999404,121120.162,124353.366,8,400,6,,ISIC_0061379.JPG
break,html.Screen,4_5_1,2023-09-16T15:45:33.316Z,,0,,,NaN,,,,,,false,,,,124344.09999999404,124343.79999999702,,124343.09999999404,,124353.366,8,400,,,
break_continue,html.Screen,4_5_2,2023-09-16T15:45:33.316Z,,0,,,NaN,,,,,,false,,,,124344.5,124344.39999999106,,124344.29999999702,,124353.366,8,400,,,
sequence,flow.Sequence,4_5,2023-09-16T15:45:33.316Z,,0,,,3224.2379999910627,completion,,,,,false,,,,124344.70000000298,124344.39999999106,121103.496,121113.59999999404,121120.162,124353.366,8,400,,,
trial,html.Screen,4_6_0,2023-09-16T15:45:37.683Z,,0,1,,4357.334000002986,response,ISIC_4964478.JPG,5,ISIC_0616491.JPG,ISIC_0616491.JPG,false,0,keypress(z),500,128711.20000000298,128710.70000000298,124336.7,124344.79999999702,124353.366,128720.827,8,400,7,,ISIC_4964478.JPG
break,html.Screen,4_6_1,2023-09-16T15:45:37.684Z,,0,,,NaN,,,,,,false,,,,128712.5,128712.20000000298,,128711.39999999106,,128720.827,8,400,,,
break_continue,html.Screen,4_6_2,2023-09-16T15:45:37.684Z,,0,,,NaN,,,,,,false,,,,128713,128712.89999999106,,128712.70000000298,,128720.827,8,400,,,
sequence,flow.Sequence,4_6,2023-09-16T15:45:37.685Z,,0,,,4359.533999991065,completion,,,,,false,,,,128713.20000000298,128712.89999999106,124336.7,124344.70000000298,124353.366,128720.827,8,400,,,
trial,html.Screen,4_7_0,2023-09-16T15:45:41.834Z,,0,1,,4141.5729999910545,response,ISIC_0033399.JPG,6,ISIC_9860255.JPG,ISIC_9860255.JPG,false,0,keypress(z),500,132862.79999999702,132862.39999999106,128704.161,128713.29999999702,128720.827,132870.661,8,400,8,,ISIC_0033399.JPG
break,html.Screen,4_7_1,2023-09-16T15:45:41.836Z,,0,,,NaN,,,,,,false,,,,132864.29999999702,132864,,132863.20000000298,,132870.661,8,400,,,
break_continue,html.Screen,4_7_2,2023-09-16T15:45:41.836Z,,0,,,NaN,,,,,,false,,,,132864.59999999404,132864.59999999404,,132864.39999999106,,132870.661,8,400,,,
sequence,flow.Sequence,4_7,2023-09-16T15:45:41.836Z,,0,,,4143.772999994035,completion,,,,,false,,,,132864.89999999106,132864.59999999404,128704.161,128713.20000000298,128720.827,132870.661,8,400,,,
trial,html.Screen,4_8_0,2023-09-16T15:45:46.834Z,,0,1,,4991.638999997027,response,ISIC_0010414.JPG,8,ISIC_2203239.JPG,ISIC_0010414.JPG,false,1,keypress(m),500,137862.79999999702,137862.29999999702,132853.995,132865,132870.661,137870.461,8,400,9,,ISIC_2203239.JPG
break,html.Screen,4_8_1,2023-09-16T15:45:46.835Z,,0,,,NaN,,,,,,false,,,,137864.20000000298,137863.79999999702,,137863.09999999404,,137870.461,8,400,,,
break_continue,html.Screen,4_8_2,2023-09-16T15:45:46.836Z,,0,,,NaN,,,,,,false,,,,137864.59999999404,137864.5,,137864.29999999702,,137870.461,8,400,,,
sequence,flow.Sequence,4_8,2023-09-16T15:45:46.836Z,,0,,,4993.839000000007,completion,,,,,false,,,,137864.70000000298,137864.5,132853.995,132865,132870.661,137870.461,8,400,,,
trial,html.Screen,4_9_0,2023-09-16T15:45:52.897Z,,0,1,,6055.138999994029,response,ISIC_3652884.JPG,7,ISIC_7161651.JPG,ISIC_3652884.JPG,false,1,keypress(m),500,143926.09999999404,143925.59999999404,137853.795,137864.79999999702,137870.461,143937.79,8,400,10,,ISIC_7161651.JPG
break,html.Screen,4_9_1,2023-09-16T15:45:52.898Z,,0,,,NaN,,,,,,false,,,,143927.39999999106,143927.09999999404,,143926.39999999106,,143937.79,8,400,,,
break_continue,html.Screen,4_9_2,2023-09-16T15:45:52.899Z,,0,,,NaN,,,,,,false,,,,143927.79999999702,143927.70000000298,,143927.5,,143937.79,8,400,,,
sequence,flow.Sequence,4_9,2023-09-16T15:45:52.899Z,,0,,,6057.23900000297,completion,,,,,false,,,,143928,143927.70000000298,137853.795,137864.79999999702,137870.461,143937.79,8,400,,,
trial,html.Screen,4_10_0,2023-09-16T15:45:56.167Z,,0,1,,3258.8099999940314,response,ISIC_6220953.JPG,8,ISIC_0061848.JPG,ISIC_6220953.JPG,false,1,keypress(m),500,147196.89999999106,147196.59999999404,143921.124,143928.20000000298,143937.79,147204.326,8,400,11,,ISIC_0061848.JPG
break,html.Screen,4_10_1,2023-09-16T15:45:56.168Z,,0,,,NaN,,,,,,false,,,,147197.70000000298,147197.70000000298,,147197.09999999404,,147204.326,8,400,,,
break_continue,html.Screen,4_10_2,2023-09-16T15:45:56.169Z,,0,,,NaN,,,,,,false,,,,147198.09999999404,147197.89999999106,,147197.79999999702,,147204.326,8,400,,,
sequence,flow.Sequence,4_10,2023-09-16T15:45:56.169Z,,0,,,3260.109999991051,completion,,,,,false,,,,147198.09999999404,147197.89999999106,143921.124,143928.09999999404,143937.79,147204.326,8,400,,,
trial,html.Screen,4_11_0,2023-09-16T15:46:01.117Z,,0,1,,4942.173999999999,response,ISIC_0010719.JPG,8,ISIC_2729109.JPG,ISIC_0010719.JPG,false,1,keypress(m),500,152147,152146.5,147187.66,147198.20000000298,147204.326,152155.055,8,400,12,,ISIC_2729109.JPG
break,html.Screen,4_11_1,2023-09-16T15:46:01.119Z,,0,,,NaN,,,,,,false,,,,152148.39999999106,152148.09999999404,,152147.29999999702,,152155.055,8,400,,,
break_continue,html.Screen,4_11_2,2023-09-16T15:46:01.119Z,,0,,,NaN,,,,,,false,,,,152148.89999999106,152148.79999999702,,152148.5,,152155.055,8,400,,,
sequence,flow.Sequence,4_11,2023-09-16T15:46:01.119Z,,0,,,4944.473999997019,completion,,,,,false,,,,152149.09999999404,152148.79999999702,147187.66,147198.20000000298,147204.326,152155.055,8,400,,,
trial,html.Screen,4_12_0,2023-09-16T15:46:05.124Z,,0,1,,3998.445000000007,response,ISIC_0011752.JPG,8,ISIC_4148086.JPG,ISIC_4148086.JPG,false,0,keypress(z),500,156153.89999999106,156153.5,152138.389,152149.09999999404,152155.055,156154.895,8,400,13,,ISIC_0011752.JPG
break,html.Screen,4_12_1,2023-09-16T15:46:05.125Z,,0,,,NaN,,,,,,false,,,,156155.20000000298,156155,,156154.20000000298,,156154.895,8,400,,,
break_continue,html.Screen,4_12_2,2023-09-16T15:46:05.126Z,,0,,,NaN,,,,,,false,,,,156155.59999999404,156155.59999999404,,156155.29999999702,,156154.895,8,400,,,
sequence,flow.Sequence,4_12,2023-09-16T15:46:05.126Z,,0,,,4000.5449999940465,completion,,,,,false,,,,156155.89999999106,156155.59999999404,152138.389,152149.09999999404,152155.055,156154.895,8,400,,,
trial,html.Screen,4_13_0,2023-09-16T15:46:10.847Z,,0,1,,5722.305000002991,response,ISIC_5366657.JPG,9,ISIC_2518896.JPG,ISIC_2518896.JPG,false,0,keypress(z),500,161877.70000000298,161877.20000000298,156138.229,156156,156154.895,161889.055,8,400,14,,ISIC_5366657.JPG
break,html.Screen,4_13_1,2023-09-16T15:46:10.849Z,,0,,,NaN,,,,,,false,,,,161878.89999999106,161878.70000000298,,161878,,161889.055,8,400,,,
break_continue,html.Screen,4_13_2,2023-09-16T15:46:10.849Z,,0,,,NaN,,,,,,false,,,,161879.39999999106,161879.29999999702,,161879,,161889.055,8,400,,,
sequence,flow.Sequence,4_13,2023-09-16T15:46:10.849Z,,0,,,5724.40499999703,completion,,,,,false,,,,161879.59999999404,161879.29999999702,156138.229,156156,156154.895,161889.055,8,400,,,
trial,html.Screen,4_14_0,2023-09-16T15:46:15.125Z,,0,1,,4266.0449999940465,response,ISIC_7670304.JPG,8,ISIC_0012334.JPG,ISIC_0012334.JPG,false,0,keypress(z),500,166155.5,166155.09999999404,161872.389,161879.70000000298,161889.055,166172.217,8,400,15,,ISIC_7670304.JPG
break,html.Screen,4_14_1,2023-09-16T15:46:15.126Z,,0,,,NaN,,,,,,false,,,,166156.79999999702,166156.5,,166155.79999999702,,166172.217,8,400,,,
break_continue,html.Screen,4_14_2,2023-09-16T15:46:15.127Z,,0,,,NaN,,,,,,false,,,,166157.09999999404,166157,,166156.89999999106,,166172.217,8,400,,,
sequence,flow.Sequence,4_14,2023-09-16T15:46:15.127Z,,0,,,4267.945000000007,completion,,,,,false,,,,166157.29999999702,166157,161872.389,161879.70000000298,161889.055,166172.217,8,400,,,
trial,html.Screen,4_15_0,2023-09-16T15:46:19.516Z,,0,1,,4373.882999994035,response,ISIC_0062318.JPG,8,ISIC_7508320.JPG,ISIC_7508320.JPG,false,0,keypress(z),500,170546.5,170546.09999999404,166155.551,166157.5,166172.217,170555.375,8,400,16,,ISIC_0062318.JPG
break,html.Screen,4_15_1,2023-09-16T15:46:19.517Z,,0,,,NaN,,,,,,false,,,,170547.70000000298,170547.39999999106,,170546.70000000298,,170555.375,8,400,,,
break_continue,html.Screen,4_15_2,2023-09-16T15:46:19.517Z,,0,,,NaN,,,,,,false,,,,170548,170547.79999999702,,170547.79999999702,,170555.375,8,400,,,
sequence,flow.Sequence,4_15,2023-09-16T15:46:19.517Z,,0,,,4375.582999997016,completion,,,,,false,,,,170548,170547.79999999702,166155.551,166157.5,166172.217,170555.375,8,400,,,
trial,html.Screen,4_16_0,2023-09-16T15:46:22.375Z,,0,1,,2850.2249999940395,response,ISIC_0033194.JPG,8,ISIC_0014324.JPG,ISIC_0014324.JPG,false,0,keypress(z),500,173406,173405.59999999404,170538.709,170548.20000000298,170555.375,173422.914,8,400,17,,ISIC_0033194.JPG
break,html.Screen,4_16_1,2023-09-16T15:46:22.376Z,,0,,,NaN,,,,,,false,,,,173407.29999999702,173407,,173406.39999999106,,173422.914,8,400,,,
break_continue,html.Screen,4_16_2,2023-09-16T15:46:22.377Z,,0,,,NaN,,,,,,false,,,,173407.79999999702,173407.59999999404,,173407.39999999106,,173422.914,8,400,,,
sequence,flow.Sequence,4_16,2023-09-16T15:46:22.377Z,,0,,,2852.2249999940395,completion,,,,,false,,,,173407.89999999106,173407.59999999404,170538.709,170548.20000000298,170555.375,173422.914,8,400,,,
trial,html.Screen,4_17_0,2023-09-16T15:46:25.519Z,,0,1,,3126.18599999405,response,ISIC_0027683.JPG,8,ISIC_7637091.JPG,ISIC_0027683.JPG,false,1,keypress(m),500,176549.70000000298,176549.09999999404,173406.248,173408.09999999404,173422.914,176556.122,8,400,18,,ISIC_7637091.JPG
break,html.Screen,4_17_1,2023-09-16T15:46:25.520Z,,0,,,NaN,,,,,,false,,,,176551,176550.70000000298,,176550,,176556.122,8,400,,,
break_continue,html.Screen,4_17_2,2023-09-16T15:46:25.520Z,,0,,,NaN,,,,,,false,,,,176551.39999999106,176551.39999999106,,176551.09999999404,,176556.122,8,400,,,
sequence,flow.Sequence,4_17,2023-09-16T15:46:25.521Z,,0,,,3128.4859999910695,completion,,,,,false,,,,176551.59999999404,176551.39999999106,173406.248,173408.09999999404,173422.914,176556.122,8,400,,,
trial,html.Screen,4_18_0,2023-09-16T15:46:28.486Z,,0,1,,2960.877999999997,response,ISIC_4640181.JPG,8,ISIC_6118824.JPG,ISIC_6118824.JPG,false,0,keypress(z),500,179517.39999999106,179517,176539.456,176551.79999999702,176556.122,179522.67,8,400,19,,ISIC_4640181.JPG
break,html.Screen,4_18_1,2023-09-16T15:46:28.488Z,,0,,,NaN,,,,,,false,,,,179518.79999999702,179518.5,,179517.70000000298,,179522.67,8,400,,,
break_continue,html.Screen,4_18_2,2023-09-16T15:46:28.488Z,,0,,,NaN,,,,,,false,,,,179519.20000000298,179519,,179518.89999999106,,179522.67,8,400,,,
sequence,flow.Sequence,4_18,2023-09-16T15:46:28.488Z,,0,,,2962.877999999997,completion,,,,,false,,,,179519.39999999106,179519,176539.456,176551.79999999702,176556.122,179522.67,8,400,,,
trial,html.Screen,4_19_0,2023-09-16T15:46:31.131Z,,0,1,,2639.629999997007,response,ISIC_8628207.JPG,8,ISIC_0033782.JPG,ISIC_0033782.JPG,false,0,keypress(z),500,182162.59999999404,182162.29999999702,179506.004,179519.59999999404,179522.67,182173.409,8,400,20,,ISIC_8628207.JPG
break,html.Screen,4_19_1,2023-09-16T15:46:31.133Z,,0,,,NaN,,,,,,false,,,,182164.09999999404,182163.79999999702,,182163,,182173.409,8,400,,,
break_continue,html.Screen,4_19_2,2023-09-16T15:46:31.133Z,,0,,,NaN,,,,,,false,,,,182164.5,182164.39999999106,,182164.20000000298,,182173.409,8,400,,,
sequence,flow.Sequence,4_19,2023-09-16T15:46:31.133Z,,0,,,2641.7299999910465,completion,,,,,false,,,,182164.70000000298,182164.39999999106,179506.004,179519.5,179522.67,182173.409,8,400,,,
trial,html.Screen,4_20_0,2023-09-16T15:46:33.873Z,,0,1,,2730.1909999940253,response,ISIC_0000507.JPG,9,ISIC_2517072.JPG,ISIC_2517072.JPG,false,0,keypress(z),500,184904,184903.59999999404,182156.743,182164.79999999702,182173.409,184906.633,8,400,21,,ISIC_0000507.JPG
break,html.Screen,4_20_1,2023-09-16T15:46:33.874Z,,0,,,NaN,,,,,,false,,,,184905.20000000298,184905,,184904.29999999702,,184906.633,8,400,,,
break_continue,html.Screen,4_20_2,2023-09-16T15:46:33.874Z,,0,,,NaN,,,,,,false,,,,184905.70000000298,184905.59999999404,,184905.39999999106,,184906.633,8,400,,,
sequence,flow.Sequence,4_20,2023-09-16T15:46:33.874Z,,0,,,2732.1909999940253,completion,,,,,false,,,,184905.89999999106,184905.59999999404,182156.743,182164.79999999702,182173.409,184906.633,8,400,,,
trial,html.Screen,4_21_0,2023-09-16T15:46:36.550Z,,0,1,,2674.2669999910577,response,ISIC_0012160.JPG,5,ISIC_1533305.JPG,ISIC_0012160.JPG,false,1,keypress(m),500,187581.39999999106,187580.89999999106,184889.967,184906,184906.633,187589.859,8,400,22,,ISIC_1533305.JPG
break,html.Screen,4_21_1,2023-09-16T15:46:36.551Z,,0,,,NaN,,,,,,false,,,,187582.79999999702,187582.5,,187581.70000000298,,187589.859,8,400,,,
break_continue,html.Screen,4_21_2,2023-09-16T15:46:36.552Z,,0,,,NaN,,,,,,false,,,,187583.20000000298,187583,,187582.89999999106,,187589.859,8,400,,,
sequence,flow.Sequence,4_21,2023-09-16T15:46:36.552Z,,0,,,2676.3669999999984,completion,,,,,false,,,,187583.29999999702,187583,184889.967,184906,184906.633,187589.859,8,400,,,
trial,html.Screen,4_22_0,2023-09-16T15:46:40.141Z,,0,1,,3582.0409999910626,response,ISIC_0027693.JPG,7,ISIC_8363069.JPG,ISIC_0027693.JPG,false,1,keypress(m),500,191172.39999999106,191171.89999999106,187573.193,187583.5,187589.859,191189.715,8,400,23,,ISIC_8363069.JPG
break,html.Screen,4_22_1,2023-09-16T15:46:40.142Z,,0,,,NaN,,,,,,false,,,,191173.79999999702,191173.5,,191172.70000000298,,191189.715,8,400,,,
break_continue,html.Screen,4_22_2,2023-09-16T15:46:40.142Z,,0,,,NaN,,,,,,false,,,,191174.20000000298,191174.09999999404,,191173.89999999106,,191189.715,8,400,,,
sequence,flow.Sequence,4_22,2023-09-16T15:46:40.143Z,,0,,,3584.240999994043,completion,,,,,false,,,,191174.29999999702,191174.09999999404,187573.193,187583.5,187589.859,191189.715,8,400,,,
trial,html.Screen,4_23_0,2023-09-16T15:46:43.185Z,,0,1,,3027.184999991063,response,ISIC_7519274.JPG,9,ISIC_7098141.JPG,ISIC_7519274.JPG,false,1,keypress(m),500,194217.39999999106,194216.89999999106,191173.049,191174.5,191189.715,194223.834,8,400,24,,ISIC_7098141.JPG
break,html.Screen,4_23_1,2023-09-16T15:46:43.187Z,,0,,,NaN,,,,,,false,,,,194218.59999999404,194218.39999999106,,194217.70000000298,,194223.834,8,400,,,
break_continue,html.Screen,4_23_2,2023-09-16T15:46:43.187Z,,0,,,NaN,,,,,,false,,,,194219.09999999404,194219,,194218.79999999702,,194223.834,8,400,,,
sequence,flow.Sequence,4_23,2023-09-16T15:46:43.187Z,,0,,,3029.2850000000035,completion,,,,,false,,,,194219.20000000298,194219,191173.049,191174.5,191189.715,194223.834,8,400,,,
trial,html.Screen,4_24_0,2023-09-16T15:46:46.072Z,,0,1,,2880.1659999999974,response,ISIC_0013580.JPG,8,ISIC_7354733.JPG,ISIC_0013580.JPG,false,1,keypress(m),500,197104.5,197104,194207.168,194219.5,194223.834,197107.052,8,400,25,,ISIC_7354733.JPG
break,html.Screen,4_24_1,2023-09-16T15:46:46.074Z,,0,,,NaN,,,,,,false,,,,197105.79999999702,197105.5,,197104.79999999702,,197107.052,8,400,,,
break_continue,html.Screen,4_24_2,2023-09-16T15:46:46.074Z,,0,,,NaN,,,,,,false,,,,197106.29999999702,197106.09999999404,,197105.89999999106,,197107.052,8,400,,,
sequence,flow.Sequence,4_24,2023-09-16T15:46:46.074Z,,0,,,2882.265999994037,completion,,,,,false,,,,197106.39999999106,197106.09999999404,194207.168,194219.39999999106,194223.834,197107.052,8,400,,,
trial,html.Screen,4_25_0,2023-09-16T15:46:49.062Z,,0,1,,2986.3479999910633,response,ISIC_9001948.JPG,8,ISIC_0002288.JPG,ISIC_0002288.JPG,false,0,keypress(z),500,200094,200093.39999999106,197090.386,197106.5,197107.052,200106.932,8,400,26,,ISIC_9001948.JPG
break,html.Screen,4_25_1,2023-09-16T15:46:49.063Z,,0,,,NaN,,,,,,false,,,,200095.20000000298,200094.89999999106,,200094.20000000298,,200106.932,8,400,,,
break_continue,html.Screen,4_25_2,2023-09-16T15:46:49.063Z,,0,,,NaN,,,,,,false,,,,200095.70000000298,200095.59999999404,,200095.5,,200106.932,8,400,,,
sequence,flow.Sequence,4_25,2023-09-16T15:46:49.064Z,,0,,,2988.5479999940435,completion,,,,,false,,,,200095.89999999106,200095.59999999404,197090.386,197106.5,197107.052,200106.932,8,400,,,
trial,html.Screen,4_26_0,2023-09-16T15:46:52.951Z,,0,1,,3875.7680000029795,response,ISIC_0012081.JPG,9,ISIC_0071947.JPG,ISIC_0071947.JPG,false,0,keypress(z),500,203983.29999999702,203982.70000000298,200090.266,200096,200106.932,203991.207,8,400,27,,ISIC_0012081.JPG
break,html.Screen,4_26_1,2023-09-16T15:46:52.952Z,,0,,,NaN,,,,,,false,,,,203984.5,203984.29999999702,,203983.59999999404,,203991.207,8,400,,,
break_continue,html.Screen,4_26_2,2023-09-16T15:46:52.953Z,,0,,,NaN,,,,,,false,,,,203985,203984.79999999702,,203984.70000000298,,203991.207,8,400,,,
sequence,flow.Sequence,4_26,2023-09-16T15:46:52.953Z,,0,,,3877.867999997019,completion,,,,,false,,,,203985.20000000298,203984.79999999702,200090.266,200095.89999999106,200106.932,203991.207,8,400,,,
trial,html.Screen,4_27_0,2023-09-16T15:46:57.055Z,,0,1,,4096.092999997025,response,ISIC_0024229.JPG,8,ISIC_0011219.JPG,ISIC_0024229.JPG,false,1,keypress(m),500,208087.70000000298,208087.29999999702,203974.541,203985.39999999106,203991.207,208091.043,8,400,28,,ISIC_0011219.JPG
break,html.Screen,4_27_1,2023-09-16T15:46:57.056Z,,0,,,NaN,,,,,,false,,,,208089.09999999404,208088.79999999702,,208088,,208091.043,8,400,,,
break_continue,html.Screen,4_27_2,2023-09-16T15:46:57.057Z,,0,,,NaN,,,,,,false,,,,208089.5,208089.39999999106,,208089.20000000298,,208091.043,8,400,,,
sequence,flow.Sequence,4_27,2023-09-16T15:46:57.057Z,,0,,,4098.192999991064,completion,,,,,false,,,,208089.70000000298,208089.39999999106,203974.541,203985.29999999702,203991.207,208091.043,8,400,,,
trial,html.Screen,4_28_0,2023-09-16T15:47:00.037Z,,0,1,,2978.7569999970146,response,ISIC_0011329.JPG,5,ISIC_8064866.JPG,ISIC_8064866.JPG,false,0,keypress(z),500,211070.29999999702,211069.79999999702,208074.377,208089.79999999702,208091.043,211074.257,8,400,29,,ISIC_0011329.JPG
break,html.Screen,4_28_1,2023-09-16T15:47:00.039Z,,0,,,NaN,,,,,,false,,,,211071.5,211071.29999999702,,211070.59999999404,,211074.257,8,400,,,
break_continue,html.Screen,4_28_2,2023-09-16T15:47:00.039Z,,0,,,NaN,,,,,,false,,,,211072,211071.89999999106,,211071.59999999404,,211074.257,8,400,,,
sequence,flow.Sequence,4_28,2023-09-16T15:47:00.039Z,,0,,,2980.856999991054,completion,,,,,false,,,,211072.20000000298,211071.89999999106,208074.377,208089.79999999702,208091.043,211074.257,8,400,,,
trial,html.Screen,4_29_0,2023-09-16T15:47:06.012Z,,0,1,,5970.342999994027,response,ISIC_2804864.JPG,9,ISIC_0025448.JPG,ISIC_2804864.JPG,false,1,keypress(m),500,217045,217044.59999999404,211057.591,211072.29999999702,211074.257,217058.242,8,400,30,,ISIC_0025448.JPG
break,html.Screen,4_29_1,2023-09-16T15:47:06.013Z,,0,,,NaN,,,,,,false,,,,217046.29999999702,217046.09999999404,,217045.29999999702,,217058.242,8,400,,,
break_continue,html.Screen,4_29_2,2023-09-16T15:47:06.014Z,,0,,,NaN,,,,,,false,,,,217046.79999999702,217046.70000000298,,217046.39999999106,,217058.242,8,400,,,
sequence,flow.Sequence,4_29,2023-09-16T15:47:06.014Z,,0,,,5972.443000002968,completion,,,,,false,,,,217047,217046.70000000298,211057.591,211072.29999999702,211074.257,217058.242,8,400,,,
trial,html.Screen,4_30_0,2023-09-16T15:47:17.479Z,,0,1,,11454.458000002982,response,ISIC_0004728.JPG,8,ISIC_0032982.JPG,ISIC_0004728.JPG,false,1,keypress(m),500,228513.09999999404,228512.70000000298,217041.576,217047.20000000298,217058.242,228542.21,8,400,31,,ISIC_0032982.JPG
break,html.Screen,4_30_1,2023-09-16T15:47:17.481Z,,0,,,NaN,,,,,,false,,,,228514.5,228514.29999999702,,228513.39999999106,,228542.21,8,400,,,
break_continue,html.Screen,4_30_2,2023-09-16T15:47:17.481Z,,0,,,NaN,,,,,,false,,,,228515,228514.79999999702,,228514.59999999404,,228542.21,8,400,,,
sequence,flow.Sequence,4_30,2023-09-16T15:47:17.481Z,,0,,,11456.557999997021,completion,,,,,false,,,,228515.09999999404,228514.79999999702,217041.576,217047.09999999404,217058.242,228542.21,8,400,,,
trial,html.Screen,4_31_0,2023-09-16T15:47:20.827Z,,0,1,,3318.6899999910675,response,ISIC_0013733.JPG,6,ISIC_2746860.JPG,ISIC_2746860.JPG,false,0,keypress(z),500,231861.29999999702,231860.89999999106,228525.544,228515.20000000298,228542.21,231875.41,8,400,32,,ISIC_0013733.JPG
break,html.Screen,4_31_1,2023-09-16T15:47:20.829Z,,0,,,NaN,,,,,,false,,,,231862.59999999404,231862.39999999106,,231861.59999999404,,231875.41,8,400,,,
break_continue,html.Screen,4_31_2,2023-09-16T15:47:20.829Z,,0,,,NaN,,,,,,false,,,,231863,231862.89999999106,,231862.70000000298,,231875.41,8,400,,,
sequence,flow.Sequence,4_31,2023-09-16T15:47:20.829Z,,0,,,3320.6899999910675,completion,,,,,false,,,,231863.20000000298,231862.89999999106,228525.544,228515.20000000298,228542.21,231875.41,8,400,,,
trial,html.Screen,4_32_0,2023-09-16T15:47:23.732Z,,0,1,,2889.7900000029767,response,ISIC_2795397.JPG,8,ISIC_0034164.JPG,ISIC_2795397.JPG,false,1,keypress(m),500,234765.70000000298,234765.20000000298,231858.744,231863.29999999702,231875.41,234775.294,8,400,33,,ISIC_0034164.JPG
break,html.Screen,4_32_1,2023-09-16T15:47:23.733Z,,0,,,NaN,,,,,,false,,,,234767,234766.70000000298,,234766,,234775.294,8,400,,,
break_continue,html.Screen,4_32_2,2023-09-16T15:47:23.733Z,,0,,,NaN,,,,,,false,,,,234767.5,234767.29999999702,,234767.09999999404,,234775.294,8,400,,,
sequence,flow.Sequence,4_32,2023-09-16T15:47:23.734Z,,0,,,2891.8899999970163,completion,,,,,false,,,,234767.59999999404,234767.29999999702,231858.744,231863.29999999702,231875.41,234775.294,8,400,,,
trial,html.Screen,4_33_0,2023-09-16T15:47:26.395Z,,0,1,,2653.105999991065,response,ISIC_0011649.JPG,7,ISIC_7956417.JPG,ISIC_7956417.JPG,false,0,keypress(z),500,237428.89999999106,237428.39999999106,234758.628,234767.79999999702,234775.294,237442.861,8,400,34,,ISIC_0011649.JPG
break,html.Screen,4_33_1,2023-09-16T15:47:26.396Z,,0,,,NaN,,,,,,false,,,,237430.09999999404,237429.89999999106,,237429.20000000298,,237442.861,8,400,,,
break_continue,html.Screen,4_33_2,2023-09-16T15:47:26.396Z,,0,,,NaN,,,,,,false,,,,237430.59999999404,237430.5,,237430.20000000298,,237442.861,8,400,,,
sequence,flow.Sequence,4_33,2023-09-16T15:47:26.397Z,,0,,,2655.2060000000056,completion,,,,,false,,,,237430.79999999702,237430.5,234758.628,234767.70000000298,234775.294,237442.861,8,400,,,
trial,html.Screen,4_34_0,2023-09-16T15:47:30.082Z,,0,1,,3672.738999994035,response,ISIC_0071012.JPG,7,ISIC_4231346.JPG,ISIC_4231346.JPG,false,0,keypress(z),500,241116.09999999404,241115.59999999404,237426.195,237431,237442.861,241126.047,8,400,35,,ISIC_0071012.JPG
break,html.Screen,4_34_1,2023-09-16T15:47:30.083Z,,0,,,NaN,,,,,,false,,,,241117.29999999702,241117.09999999404,,241116.39999999106,,241126.047,8,400,,,
break_continue,html.Screen,4_34_2,2023-09-16T15:47:30.083Z,,0,,,NaN,,,,,,false,,,,241117.79999999702,241117.59999999404,,241117.5,,241126.047,8,400,,,
sequence,flow.Sequence,4_34,2023-09-16T15:47:30.084Z,,0,,,3674.738999994035,completion,,,,,false,,,,241117.89999999106,241117.59999999404,237426.195,237430.79999999702,237442.861,241126.047,8,400,,,
trial,html.Screen,4_35_0,2023-09-16T15:47:33.259Z,,0,1,,3167.153000002989,response,ISIC_8535134.JPG,8,ISIC_3180213.JPG,ISIC_8535134.JPG,false,1,keypress(m),500,244293.89999999106,244293.20000000298,241109.381,241118.09999999404,241126.047,244309.253,8,400,36,,ISIC_3180213.JPG
break,html.Screen,4_35_1,2023-09-16T15:47:33.261Z,,0,,,NaN,,,,,,false,,,,244295.29999999702,244295.09999999404,,244294.29999999702,,244309.253,8,400,,,
break_continue,html.Screen,4_35_2,2023-09-16T15:47:33.261Z,,0,,,NaN,,,,,,false,,,,244295.70000000298,244295.59999999404,,244295.39999999106,,244309.253,8,400,,,
sequence,flow.Sequence,4_35,2023-09-16T15:47:33.261Z,,0,,,3169.552999994048,completion,,,,,false,,,,244295.89999999106,244295.59999999404,241109.381,241118,241126.047,244309.253,8,400,,,
trial,html.Screen,4_36_0,2023-09-16T15:47:36.162Z,,0,1,,2887.4470000029833,response,ISIC_5897134.JPG,8,ISIC_0070435.JPG,ISIC_5897134.JPG,false,1,keypress(m),500,247197.09999999404,247196.70000000298,244292.587,244296,244309.253,247209.137,8,400,37,,ISIC_0070435.JPG
break,html.Screen,4_36_1,2023-09-16T15:47:36.163Z,,0,,,NaN,,,,,,false,,,,247198.20000000298,247198,,247197.29999999702,,247209.137,8,400,,,
break_continue,html.Screen,4_36_2,2023-09-16T15:47:36.164Z,,0,,,NaN,,,,,,false,,,,247198.5,247198.39999999106,,247198.29999999702,,247209.137,8,400,,,
sequence,flow.Sequence,4_36,2023-09-16T15:47:36.164Z,,0,,,2889.1469999910623,completion,,,,,false,,,,247198.70000000298,247198.39999999106,244292.587,244296,244309.253,247209.137,8,400,,,
trial,html.Screen,4_37_0,2023-09-16T15:47:38.724Z,,0,1,,2549.5630000029923,response,ISIC_5240387.JPG,7,ISIC_0032278.JPG,ISIC_0032278.JPG,false,0,keypress(z),500,249759.20000000298,249758.70000000298,247192.471,247198.70000000298,247209.137,249776.619,8,400,38,,ISIC_5240387.JPG
break,html.Screen,4_37_1,2023-09-16T15:47:38.726Z,,0,,,NaN,,,,,,false,,,,249760.5,249760.29999999702,,249759.5,,249776.619,8,400,,,
break_continue,html.Screen,4_37_2,2023-09-16T15:47:38.726Z,,0,,,NaN,,,,,,false,,,,249761,249760.79999999702,,249760.70000000298,,249776.619,8,400,,,
sequence,flow.Sequence,4_37,2023-09-16T15:47:38.726Z,,0,,,2551.662999997032,completion,,,,,false,,,,249761.09999999404,249760.79999999702,247192.471,247198.70000000298,247209.137,249776.619,8,400,,,
trial,html.Screen,4_38_0,2023-09-16T15:47:42.788Z,,0,1,,4045.6809999970137,response,ISIC_0027350.JPG,8,ISIC_9566964.JPG,ISIC_9566964.JPG,false,0,keypress(z),500,253822.79999999702,253822.29999999702,249759.953,249761.29999999702,249776.619,253826.457,8,400,39,,ISIC_0027350.JPG
break,html.Screen,4_38_1,2023-09-16T15:47:42.789Z,,0,,,NaN,,,,,,false,,,,253824,253823.70000000298,,253823,,253826.457,8,400,,,
break_continue,html.Screen,4_38_2,2023-09-16T15:47:42.789Z,,0,,,NaN,,,,,,false,,,,253824.39999999106,253824.29999999702,,253824.09999999404,,253826.457,8,400,,,
sequence,flow.Sequence,4_38,2023-09-16T15:47:42.790Z,,0,,,4047.6809999970137,completion,,,,,false,,,,253824.59999999404,253824.29999999702,249759.953,249761.20000000298,249776.619,253826.457,8,400,,,
trial,html.Screen,4_39_0,2023-09-16T15:47:45.320Z,,0,1,,2528.6429999940447,response,ISIC_6968422.JPG,5,ISIC_7498132.JPG,ISIC_7498132.JPG,false,0,keypress(z),500,256355.59999999404,256355.09999999404,253809.791,253824.79999999702,253826.457,256359.689,8,400,40,,ISIC_6968422.JPG
break,html.Screen,4_39_1,2023-09-16T15:47:45.322Z,,0,,,NaN,,,,,,false,,,,256356.79999999702,256356.59999999404,,256355.89999999106,,256359.689,8,400,,,
break_continue,html.Screen,4_39_2,2023-09-16T15:47:45.322Z,,0,,,NaN,,,,,,false,,,,256357.20000000298,256357.09999999404,,256357,,256359.689,8,400,,,
sequence,flow.Sequence,4_39,2023-09-16T15:47:45.322Z,,0,,,2530.6429999940447,completion,,,,,false,,,,256357.39999999106,256357.09999999404,253809.791,253824.70000000298,253826.457,256359.689,8,400,,,
trial,html.Screen,4_40_0,2023-09-16T15:47:47.806Z,,0,1,,2480.810999999987,response,ISIC_0000445.JPG,7,ISIC_1793821.JPG,ISIC_0000445.JPG,false,1,keypress(m),500,258840.89999999106,258840.5,256343.023,256357.59999999404,256359.689,258843.831,8,400,41,,ISIC_1793821.JPG
break,html.Screen,4_40_1,2023-09-16T15:47:47.807Z,,0,,,NaN,,,,,,false,,,,258842.29999999702,258842,,258841.29999999702,,258843.831,8,400,,,
break_continue,html.Screen,4_40_2,2023-09-16T15:47:47.807Z,,0,,,NaN,,,,,,false,,,,258842.70000000298,258842.59999999404,,258842.39999999106,,258843.831,8,400,,,
sequence,flow.Sequence,4_40,2023-09-16T15:47:47.808Z,,0,,,2482.9109999940265,completion,,,,,false,,,,258842.79999999702,258842.59999999404,256343.023,256357.5,256359.689,258843.831,8,400,,,
trial,html.Screen,4_41_0,2023-09-16T15:47:50.563Z,,0,1,,2753.968999997014,response,ISIC_5768602.JPG,8,ISIC_0046471.JPG,ISIC_5768602.JPG,false,1,keypress(m),500,261598.29999999702,261597.79999999702,258827.165,258843,258843.831,261610.387,8,400,42,,ISIC_0046471.JPG
break,html.Screen,4_41_1,2023-09-16T15:47:50.564Z,,0,,,NaN,,,,,,false,,,,261599.5,261599.39999999106,,261598.5,,261610.387,8,400,,,
break_continue,html.Screen,4_41_2,2023-09-16T15:47:50.565Z,,0,,,NaN,,,,,,false,,,,261600,261599.89999999106,,261599.79999999702,,261610.387,8,400,,,
sequence,flow.Sequence,4_41,2023-09-16T15:47:50.565Z,,0,,,2756.0689999910537,completion,,,,,false,,,,261600.20000000298,261599.89999999106,258827.165,258843,258843.831,261610.387,8,400,,,
trial,html.Screen,4_42_0,2023-09-16T15:47:52.970Z,,0,1,,2394.8130000029923,response,ISIC_0063715.JPG,7,ISIC_6507640.JPG,ISIC_6507640.JPG,false,0,keypress(z),500,264005.39999999106,264005.200000003,261593.721,261600.39999999106,261610.387,264010.291,8,400,43,,ISIC_0063715.JPG
break,html.Screen,4_42_1,2023-09-16T15:47:52.971Z,,0,,,NaN,,,,,,false,,,,264006.09999999404,264006,,264005.59999999404,,264010.291,8,400,,,
break_continue,html.Screen,4_42_2,2023-09-16T15:47:52.971Z,,0,,,NaN,,,,,,false,,,,264006.5,264006.39999999106,,264006.299999997,,264010.291,8,400,,,
sequence,flow.Sequence,4_42,2023-09-16T15:47:52.971Z,,0,,,2396.0129999910714,completion,,,,,false,,,,264006.5,264006.39999999106,261593.721,261600.20000000298,261610.387,264010.291,8,400,,,
trial,html.Screen,4_43_0,2023-09-16T15:47:56.332Z,,0,1,,3357.4090000029537,response,ISIC_9418196.JPG,5,ISIC_0066358.JPG,ISIC_9418196.JPG,false,1,keypress(m),500,267368.09999999404,267367.700000003,263993.625,264006.59999999404,264010.291,267376.823,8,400,44,,ISIC_0066358.JPG
break,html.Screen,4_43_1,2023-09-16T15:47:56.334Z,,0,,,NaN,,,,,,false,,,,267369.39999999106,267369.09999999404,,267368.5,,267376.823,8,400,,,
break_continue,html.Screen,4_43_2,2023-09-16T15:47:56.334Z,,0,,,NaN,,,,,,false,,,,267369.799999997,267369.700000003,,267369.5,,267376.823,8,400,,,
sequence,flow.Sequence,4_43,2023-09-16T15:47:56.334Z,,0,,,3359.4090000029537,completion,,,,,false,,,,267370,267369.700000003,263993.625,264006.59999999404,264010.291,267376.823,8,400,,,
trial,html.Screen,4_44_0,2023-09-16T15:47:59.364Z,,0,1,,3022.476999997045,response,ISIC_0011530.JPG,7,ISIC_0014190.JPG,ISIC_0014190.JPG,false,0,keypress(z),500,270399.799999997,270399.299999997,267360.157,267370.299999997,267376.823,270410.933,8,400,45,,ISIC_0011530.JPG
break,html.Screen,4_44_1,2023-09-16T15:47:59.365Z,,0,,,NaN,,,,,,false,,,,270401,270400.799999997,,270400.09999999404,,270410.933,8,400,,,
break_continue,html.Screen,4_44_2,2023-09-16T15:47:59.366Z,,0,,,NaN,,,,,,false,,,,270401.59999999404,270401.39999999106,,270401.200000003,,270410.933,8,400,,,
sequence,flow.Sequence,4_44,2023-09-16T15:47:59.366Z,,0,,,3024.5769999910844,completion,,,,,false,,,,270401.700000003,270401.39999999106,267360.157,267370.200000003,267376.823,270410.933,8,400,,,
trial,html.Screen,4_45_0,2023-09-16T15:48:03.001Z,,0,1,,3625.566999999981,response,ISIC_2415803.JPG,7,ISIC_0026868.JPG,ISIC_2415803.JPG,false,1,keypress(m),500,274036.799999997,274036.5,270394.267,270401.89999999106,270410.933,274044.121,8,400,46,,ISIC_0026868.JPG
break,html.Screen,4_45_1,2023-09-16T15:48:03.002Z,,0,,,NaN,,,,,,false,,,,274037.799999997,274037.700000003,,274037.09999999404,,274044.121,8,400,,,
break_continue,html.Screen,4_45_2,2023-09-16T15:48:03.002Z,,0,,,NaN,,,,,,false,,,,274038.200000003,274038.200000003,,274037.89999999106,,274044.121,8,400,,,
sequence,flow.Sequence,4_45,2023-09-16T15:48:03.002Z,,0,,,3627.267000002961,completion,,,,,false,,,,274038.39999999106,274038.200000003,270394.267,270401.799999997,270410.933,274044.121,8,400,,,
trial,html.Screen,4_46_0,2023-09-16T15:48:08.028Z,,0,1,,5019.379000000015,response,ISIC_9879693.JPG,8,ISIC_7814144.JPG,ISIC_7814144.JPG,false,0,keypress(z),500,279063.89999999106,279063.5,274027.455,274038.5,274044.121,279078.104,8,400,47,,ISIC_9879693.JPG
break,html.Screen,4_46_1,2023-09-16T15:48:08.029Z,,0,,,NaN,,,,,,false,,,,279065.299999997,279065,,279064.200000003,,279078.104,8,400,,,
break_continue,html.Screen,4_46_2,2023-09-16T15:48:08.029Z,,0,,,NaN,,,,,,false,,,,279065.700000003,279065.59999999404,,279065.39999999106,,279078.104,8,400,,,
sequence,flow.Sequence,4_46,2023-09-16T15:48:08.030Z,,0,,,5021.478999994055,completion,,,,,false,,,,279065.89999999106,279065.59999999404,274027.455,274038.5,274044.121,279078.104,8,400,,,
trial,html.Screen,4_47_0,2023-09-16T15:48:10.986Z,,0,1,,2943.9959999940475,response,ISIC_0034242.JPG,7,ISIC_2733056.JPG,ISIC_2733056.JPG,false,0,keypress(z),500,282022.700000003,282022.09999999404,279061.438,279066.09999999404,279078.104,282027.986,8,400,48,,ISIC_0034242.JPG
break,html.Screen,4_47_1,2023-09-16T15:48:10.987Z,,0,,,NaN,,,,,,false,,,,282023.89999999106,282023.700000003,,282022.89999999106,,282027.986,8,400,,,
break_continue,html.Screen,4_47_2,2023-09-16T15:48:10.988Z,,0,,,NaN,,,,,,false,,,,282024.299999997,282024.299999997,,282024,,282027.986,8,400,,,
sequence,flow.Sequence,4_47,2023-09-16T15:48:10.988Z,,0,,,2946.1959999970277,completion,,,,,false,,,,282024.5,282024.299999997,279061.438,279066,279078.104,282027.986,8,400,,,
trial,html.Screen,4_48_0,2023-09-16T15:48:16.337Z,,0,1,,5344.913999991084,response,ISIC_4559115.JPG,7,ISIC_4362713.JPG,ISIC_4362713.JPG,false,0,keypress(z),500,287373.5,287372.89999999106,282011.32,282024.59999999404,282027.986,287377.772,8,400,49,,ISIC_4559115.JPG
break,html.Screen,4_48_1,2023-09-16T15:48:16.338Z,,0,,,NaN,,,,,,false,,,,287374.700000003,287374.5,,287373.700000003,,287377.772,8,400,,,
break_continue,html.Screen,4_48_2,2023-09-16T15:48:16.338Z,,0,,,NaN,,,,,,false,,,,287375.200000003,287375.09999999404,,287374.89999999106,,287377.772,8,400,,,
sequence,flow.Sequence,4_48,2023-09-16T15:48:16.339Z,,0,,,5347.113999994064,completion,,,,,false,,,,287375.299999997,287375.09999999404,282011.32,282024.59999999404,282027.986,287377.772,8,400,,,
trial,html.Screen,4_49_0,2023-09-16T15:48:27.829Z,,0,1,,11517.275000000023,timeout,ISIC_0069698.JPG,5,ISIC_5140952.JPG,,false,,,500,298866,298865.39999999106,287361.106,287376.799999997,287377.772,298895.047,8,400,50,,
break,html.Screen,4_49_1,2023-09-16T15:48:37.843Z,,0,,,10000.496999999974,timeout,,,,,false,,,,308881.200000003,308878.878,298878.381,298866.200000003,298895.047,308895.544,8,400,,,
break_continue,html.Screen,4_49_2,2023-09-16T15:48:39.332Z,,0,,,1461.1560000029858,response,,,,,false,continue,keypress(Space),,310369.59999999404,310356.700000003,308878.878,308881.299999997,308895.544,310378.818,8,400,,,
sequence,flow.Sequence,4_49,2023-09-16T15:48:39.332Z,,0,,,22978.928000002983,completion,,,,,false,,,,310369.700000003,310356.700000003,287361.106,287376.700000003,287377.772,310378.818,8,400,,,
trial,html.Screen,4_50_0,2023-09-16T15:48:43.313Z,,0,2,,3971.1819999999716,response,ISIC_9154716.JPG,8,ISIC_0027556.JPG,ISIC_9154716.JPG,false,1,keypress(m),500,314350.700000003,314350,310362.152,310369.799999997,310378.818,314363.017,8,400,1,,ISIC_0027556.JPG
break,html.Screen,4_50_1,2023-09-16T15:48:43.314Z,,0,,,NaN,,,,,,false,,,,314352,314351.799999997,,314351,,314363.017,8,400,,,
break_continue,html.Screen,4_50_2,2023-09-16T15:48:43.314Z,,0,,,NaN,,,,,,false,,,,314352.5,314352.299999997,,314352.09999999404,,314363.017,8,400,,,
sequence,flow.Sequence,4_50,2023-09-16T15:48:43.314Z,,0,,,3973.4819999969914,completion,,,,,false,,,,314352.59999999404,314352.299999997,310362.152,310369.799999997,310378.818,314363.017,8,400,,,
trial,html.Screen,4_51_0,2023-09-16T15:48:45.942Z,,0,2,,2616.782999997027,response,ISIC_1113265.JPG,6,ISIC_2151178.JPG,ISIC_2151178.JPG,false,0,keypress(z),500,316980.299999997,316979.799999997,314346.351,314352.89999999106,314363.017,316996.245,8,400,2,,ISIC_1113265.JPG
break,html.Screen,4_51_1,2023-09-16T15:48:45.943Z,,0,,,NaN,,,,,,false,,,,316981.59999999404,316981.299999997,,316980.59999999404,,316996.245,8,400,,,
break_continue,html.Screen,4_51_2,2023-09-16T15:48:45.944Z,,0,,,NaN,,,,,,false,,,,316982.09999999404,316981.89999999106,,316981.700000003,,316996.245,8,400,,,
sequence,flow.Sequence,4_51,2023-09-16T15:48:45.944Z,,0,,,2618.8829999910668,completion,,,,,false,,,,316982.200000003,316981.89999999106,314346.351,314352.700000003,314363.017,316996.245,8,400,,,
trial,html.Screen,4_52_0,2023-09-16T15:48:48.912Z,,0,2,,2953.2550000000047,response,ISIC_2307760.JPG,5,ISIC_4298761.JPG,ISIC_2307760.JPG,false,1,keypress(m),500,319950.09999999404,319949.5,316979.579,316982.39999999106,316996.245,319962.793,8,400,3,,ISIC_4298761.JPG
break,html.Screen,4_52_1,2023-09-16T15:48:48.913Z,,0,,,NaN,,,,,,false,,,,319951.39999999106,319951.09999999404,,319950.39999999106,,319962.793,8,400,,,
break_continue,html.Screen,4_52_2,2023-09-16T15:48:48.913Z,,0,,,NaN,,,,,,false,,,,319951.799999997,319951.700000003,,319951.5,,319962.793,8,400,,,
sequence,flow.Sequence,4_52,2023-09-16T15:48:48.914Z,,0,,,2955.455000002985,completion,,,,,false,,,,319952.09999999404,319951.700000003,316979.579,316982.299999997,316996.245,319962.793,8,400,,,
trial,html.Screen,4_53_0,2023-09-16T15:48:52.453Z,,0,2,,3528.106999991054,response,ISIC_0033708.JPG,6,ISIC_2283509.JPG,ISIC_2283509.JPG,false,0,keypress(z),500,323491.299999997,323490.89999999106,319946.127,319952.299999997,319962.793,323496.931,8,400,4,,ISIC_0033708.JPG
break,html.Screen,4_53_1,2023-09-16T15:48:52.454Z,,0,,,NaN,,,,,,false,,,,323492.59999999404,323492.39999999106,,323491.700000003,,323496.931,8,400,,,
break_continue,html.Screen,4_53_2,2023-09-16T15:48:52.454Z,,0,,,NaN,,,,,,false,,,,323493,323492.89999999106,,323492.700000003,,323496.931,8,400,,,
sequence,flow.Sequence,4_53,2023-09-16T15:48:52.455Z,,0,,,3530.106999991054,completion,,,,,false,,,,323493.200000003,323492.89999999106,319946.127,319952.09999999404,319962.793,323496.931,8,400,,,
trial,html.Screen,4_54_0,2023-09-16T15:48:55.130Z,,0,2,,2671.5690000000177,response,ISIC_0057286.JPG,5,ISIC_0009905.JPG,ISIC_0009905.JPG,false,0,keypress(z),500,326169,326168.5,323480.265,323493.39999999106,323496.931,326180.157,8,400,5,,ISIC_0057286.JPG
break,html.Screen,4_54_1,2023-09-16T15:48:55.131Z,,0,,,NaN,,,,,,false,,,,326170.299999997,326170,,326169.299999997,,326180.157,8,400,,,
break_continue,html.Screen,4_54_2,2023-09-16T15:48:55.132Z,,0,,,NaN,,,,,,false,,,,326170.799999997,326170.59999999404,,326170.5,,326180.157,8,400,,,
sequence,flow.Sequence,4_54,2023-09-16T15:48:55.132Z,,0,,,2673.6689999940572,completion,,,,,false,,,,326170.89999999106,326170.59999999404,323480.265,323493.39999999106,323496.931,326180.157,8,400,,,
trial,html.Screen,4_55_0,2023-09-16T15:48:57.793Z,,0,2,,2651.8429999999935,response,ISIC_2341875.JPG,8,ISIC_1037945.JPG,ISIC_1037945.JPG,false,0,keypress(z),500,328832.39999999106,328832,326163.491,326171.09999999404,326180.157,328846.717,8,400,6,,ISIC_2341875.JPG
break,html.Screen,4_55_1,2023-09-16T15:48:57.794Z,,0,,,NaN,,,,,,false,,,,328833.39999999106,328833.200000003,,328832.700000003,,328846.717,8,400,,,
break_continue,html.Screen,4_55_2,2023-09-16T15:48:57.795Z,,0,,,NaN,,,,,,false,,,,328833.799999997,328833.59999999404,,328833.5,,328846.717,8,400,,,
sequence,flow.Sequence,4_55,2023-09-16T15:48:57.795Z,,0,,,2653.442999994033,completion,,,,,false,,,,328833.89999999106,328833.59999999404,326163.491,326171.09999999404,326180.157,328846.717,8,400,,,
trial,html.Screen,4_56_0,2023-09-16T15:49:02.405Z,,0,2,,4596.983000002976,response,ISIC_6948604.JPG,6,ISIC_3513367.JPG,ISIC_6948604.JPG,false,1,keypress(m),500,333444,333443.700000003,328830.051,328834,328846.717,333464.221,8,400,7,,ISIC_3513367.JPG
break,html.Screen,4_56_1,2023-09-16T15:49:02.406Z,,0,,,NaN,,,,,,false,,,,333445.39999999106,333445.09999999404,,333444.39999999106,,333464.221,8,400,,,
break_continue,html.Screen,4_56_2,2023-09-16T15:49:02.407Z,,0,,,NaN,,,,,,false,,,,333445.799999997,333445.700000003,,333445.5,,333464.221,8,400,,,
sequence,flow.Sequence,4_56,2023-09-16T15:49:02.407Z,,0,,,4598.983000002976,completion,,,,,false,,,,333446,333445.700000003,328830.051,328834,328846.717,333464.221,8,400,,,
trial,html.Screen,4_57_0,2023-09-16T15:49:06.008Z,,0,2,,3582.2789999999804,response,ISIC_0003111.JPG,8,ISIC_5644242.JPG,ISIC_0003111.JPG,false,1,keypress(m),500,337047,337046.5,333447.555,333447.5,333464.221,337064.077,8,400,8,,ISIC_5644242.JPG
break,html.Screen,4_57_1,2023-09-16T15:49:06.009Z,,0,,,NaN,,,,,,false,,,,337048.39999999106,337048,,337047.299999997,,337064.077,8,400,,,
break_continue,html.Screen,4_57_2,2023-09-16T15:49:06.009Z,,0,,,NaN,,,,,,false,,,,337048.700000003,337048.59999999404,,337048.5,,337064.077,8,400,,,
sequence,flow.Sequence,4_57,2023-09-16T15:49:06.010Z,,0,,,3584.37899999402,completion,,,,,false,,,,337048.89999999106,337048.59999999404,333447.555,333446.09999999404,333464.221,337064.077,8,400,,,
trial,html.Screen,4_58_0,2023-09-16T15:49:11.910Z,,0,2,,5885.522999994049,response,ISIC_0000056.JPG,8,ISIC_0028567.JPG,ISIC_0000056.JPG,false,1,keypress(m),500,342950.09999999404,342949.59999999404,337047.411,337049,337064.077,342963.841,8,400,9,,ISIC_0028567.JPG
break,html.Screen,4_58_1,2023-09-16T15:49:11.912Z,,0,,,NaN,,,,,,false,,,,342951.39999999106,342951.09999999404,,342950.39999999106,,342963.841,8,400,,,
break_continue,html.Screen,4_58_2,2023-09-16T15:49:11.912Z,,0,,,NaN,,,,,,false,,,,342951.799999997,342951.700000003,,342951.39999999106,,342963.841,8,400,,,
sequence,flow.Sequence,4_58,2023-09-16T15:49:11.912Z,,0,,,5887.62300000299,completion,,,,,false,,,,342952,342951.700000003,337047.411,337048.89999999106,337064.077,342963.841,8,400,,,
trial,html.Screen,4_59_0,2023-09-16T15:49:18.026Z,,0,2,,6101.458999997005,response,ISIC_5275138.JPG,8,ISIC_0009975.JPG,ISIC_5275138.JPG,false,1,keypress(m),500,349065.799999997,349065.299999997,342947.175,342952,342963.841,349081.201,8,400,10,,ISIC_0009975.JPG
break,html.Screen,4_59_1,2023-09-16T15:49:18.027Z,,0,,,NaN,,,,,,false,,,,349067.09999999404,349066.799999997,,349066.09999999404,,349081.201,8,400,,,
break_continue,html.Screen,4_59_2,2023-09-16T15:49:18.027Z,,0,,,NaN,,,,,,false,,,,349067.5,349067.39999999106,,349067.200000003,,349081.201,8,400,,,
sequence,flow.Sequence,4_59,2023-09-16T15:49:18.028Z,,0,,,6103.558999991044,completion,,,,,false,,,,349067.799999997,349067.39999999106,342947.175,342952,342963.841,349081.201,8,400,,,
trial,html.Screen,4_60_0,2023-09-16T15:49:26.034Z,,0,2,,7992.798999999999,response,ISIC_6697332.JPG,7,ISIC_0010382.JPG,ISIC_0010382.JPG,false,0,keypress(z),500,357074.5,357074,349064.535,349067.89999999106,349081.201,357082.033,8,400,11,,ISIC_6697332.JPG
break,html.Screen,4_60_1,2023-09-16T15:49:26.035Z,,0,,,NaN,,,,,,false,,,,357075.799999997,357075.5,,357074.700000003,,357082.033,8,400,,,
break_continue,html.Screen,4_60_2,2023-09-16T15:49:26.036Z,,0,,,NaN,,,,,,false,,,,357076.200000003,357076,,357075.89999999106,,357082.033,8,400,,,
sequence,flow.Sequence,4_60,2023-09-16T15:49:26.036Z,,0,,,7994.798999999999,completion,,,,,false,,,,357076.299999997,357076,349064.535,349067.89999999106,349081.201,357082.033,8,400,,,
trial,html.Screen,4_61_0,2023-09-16T15:49:30.523Z,,0,2,,4481.266999997024,response,ISIC_0046900.JPG,7,ISIC_0011030.JPG,ISIC_0011030.JPG,false,0,keypress(z),500,361563.799999997,361563.299999997,357065.367,357076.5,357082.033,361565.187,8,400,12,,ISIC_0046900.JPG
break,html.Screen,4_61_1,2023-09-16T15:49:30.524Z,,0,,,NaN,,,,,,false,,,,361565.09999999404,361564.89999999106,,361564.09999999404,,361565.187,8,400,,,
break_continue,html.Screen,4_61_2,2023-09-16T15:49:30.525Z,,0,,,NaN,,,,,,false,,,,361565.700000003,361565.5,,361565.200000003,,361565.187,8,400,,,
sequence,flow.Sequence,4_61,2023-09-16T15:49:30.525Z,,0,,,4483.467000000004,completion,,,,,false,,,,361565.89999999106,361565.5,357065.367,357076.39999999106,357082.033,361565.187,8,400,,,
trial,html.Screen,4_62_0,2023-09-16T15:49:37.298Z,,0,2,,6773.313000000024,response,ISIC_6988514.JPG,8,ISIC_7144739.JPG,ISIC_6988514.JPG,false,1,keypress(m),500,368339,368338.5,361548.521,361566,361565.187,368349.218,8,400,13,,ISIC_7144739.JPG
break,html.Screen,4_62_1,2023-09-16T15:49:37.299Z,,0,,,NaN,,,,,,false,,,,368340.299999997,368340,,368339.299999997,,368349.218,8,400,,,
break_continue,html.Screen,4_62_2,2023-09-16T15:49:37.300Z,,0,,,NaN,,,,,,false,,,,368340.700000003,368340.5,,368340.39999999106,,368349.218,8,400,,,
sequence,flow.Sequence,4_62,2023-09-16T15:49:37.300Z,,0,,,6775.313000000024,completion,,,,,false,,,,368340.89999999106,368340.5,361548.521,361566,361565.187,368349.218,8,400,,,
trial,html.Screen,4_63_0,2023-09-16T15:49:45.210Z,,0,2,,7901.581999997026,response,ISIC_4141315.JPG,7,ISIC_3338629.JPG,ISIC_4141315.JPG,false,1,keypress(m),500,376251.299999997,376250.799999997,368332.552,368341,368349.218,376265.568,8,400,14,,ISIC_3338629.JPG
break,html.Screen,4_63_1,2023-09-16T15:49:45.211Z,,0,,,NaN,,,,,,false,,,,376252.5,376252.299999997,,376251.5,,376265.568,8,400,,,
break_continue,html.Screen,4_63_2,2023-09-16T15:49:45.211Z,,0,,,NaN,,,,,,false,,,,376252.799999997,376252.700000003,,376252.5,,376265.568,8,400,,,
sequence,flow.Sequence,4_63,2023-09-16T15:49:45.212Z,,0,,,7903.482000002987,completion,,,,,false,,,,376252.89999999106,376252.700000003,368332.552,368340.89999999106,368349.218,376265.568,8,400,,,
trial,html.Screen,4_64_0,2023-09-16T15:49:50.176Z,,0,2,,4951.931999999972,response,ISIC_7010552.JPG,7,ISIC_0008816.JPG,ISIC_0008816.JPG,false,0,keypress(z),500,381218.09999999404,381217.5,376248.902,376253.09999999404,376265.568,381232.974,8,400,15,,ISIC_7010552.JPG
break,html.Screen,4_64_1,2023-09-16T15:49:50.178Z,,0,,,NaN,,,,,,false,,,,381219.39999999106,381219.09999999404,,381218.39999999106,,381232.974,8,400,,,
break_continue,html.Screen,4_64_2,2023-09-16T15:49:50.178Z,,0,,,NaN,,,,,,false,,,,381219.799999997,381219.700000003,,381219.5,,381232.974,8,400,,,
sequence,flow.Sequence,4_64,2023-09-16T15:49:50.178Z,,0,,,4954.132000002952,completion,,,,,false,,,,381220,381219.700000003,376248.902,376253,376265.568,381232.974,8,400,,,
trial,html.Screen,4_65_0,2023-09-16T15:49:53.735Z,,0,2,,3543.5260000000126,response,ISIC_0070342.JPG,8,ISIC_0031575.JPG,ISIC_0031575.JPG,false,0,keypress(z),500,384777.09999999404,384776.5,381216.308,381220.200000003,381232.974,384782.832,8,400,16,,ISIC_0070342.JPG
break,html.Screen,4_65_1,2023-09-16T15:49:53.736Z,,0,,,NaN,,,,,,false,,,,384778.299999997,384778,,384777.39999999106,,384782.832,8,400,,,
break_continue,html.Screen,4_65_2,2023-09-16T15:49:53.737Z,,0,,,NaN,,,,,,false,,,,384778.700000003,384778.700000003,,384778.5,,384782.832,8,400,,,
sequence,flow.Sequence,4_65,2023-09-16T15:49:53.737Z,,0,,,3545.726000002993,completion,,,,,false,,,,384779,384778.700000003,381216.308,381220.09999999404,381232.974,384782.832,8,400,,,
trial,html.Screen,4_66_0,2023-09-16T15:49:56.709Z,,0,2,,2967.7679999940447,response,ISIC_0012434.JPG,8,ISIC_5807608.JPG,ISIC_5807608.JPG,false,0,keypress(z),500,387751.09999999404,387750.59999999404,384766.166,384779.09999999404,384782.832,387766.953,8,400,17,,ISIC_0012434.JPG
break,html.Screen,4_66_1,2023-09-16T15:49:56.710Z,,0,,,NaN,,,,,,false,,,,387752.39999999106,387752.09999999404,,387751.39999999106,,387766.953,8,400,,,
break_continue,html.Screen,4_66_2,2023-09-16T15:49:56.711Z,,0,,,NaN,,,,,,false,,,,387752.89999999106,387752.799999997,,387752.5,,387766.953,8,400,,,
sequence,flow.Sequence,4_66,2023-09-16T15:49:56.711Z,,0,,,2969.967999997025,completion,,,,,false,,,,387753.09999999404,387752.799999997,384766.166,384779.09999999404,384782.832,387766.953,8,400,,,
trial,html.Screen,4_67_0,2023-09-16T15:49:59.309Z,,0,2,,2583.44699999108,response,ISIC_0057371.JPG,8,ISIC_4508511.JPG,ISIC_4508511.JPG,false,0,keypress(z),500,390350.89999999106,390350.39999999106,387750.287,387753.200000003,387766.953,390366.849,8,400,18,,ISIC_0057371.JPG
break,html.Screen,4_67_1,2023-09-16T15:49:59.310Z,,0,,,NaN,,,,,,false,,,,390352.09999999404,390351.89999999106,,390351.200000003,,390366.849,8,400,,,
break_continue,html.Screen,4_67_2,2023-09-16T15:49:59.310Z,,0,,,NaN,,,,,,false,,,,390352.5,390352.39999999106,,390352.200000003,,390366.849,8,400,,,
sequence,flow.Sequence,4_67,2023-09-16T15:49:59.311Z,,0,,,2585.44699999108,completion,,,,,false,,,,390352.799999997,390352.39999999106,387750.287,387753.09999999404,387766.953,390366.849,8,400,,,
trial,html.Screen,4_68_0,2023-09-16T15:50:02.482Z,,0,2,,3157.250999994052,response,ISIC_7349440.JPG,8,ISIC_0028070.JPG,ISIC_7349440.JPG,false,1,keypress(m),500,393524.59999999404,393524.09999999404,390350.183,390352.89999999106,390366.849,393533.389,8,400,19,,ISIC_0028070.JPG
break,html.Screen,4_68_1,2023-09-16T15:50:02.484Z,,0,,,NaN,,,,,,false,,,,393526.09999999404,393525.89999999106,,393524.799999997,,393533.389,8,400,,,
break_continue,html.Screen,4_68_2,2023-09-16T15:50:02.484Z,,0,,,NaN,,,,,,false,,,,393526.59999999404,393526.39999999106,,393526.200000003,,393533.389,8,400,,,
sequence,flow.Sequence,4_68,2023-09-16T15:50:02.484Z,,0,,,3159.550999991072,completion,,,,,false,,,,393526.700000003,393526.39999999106,390350.183,390352.89999999106,390366.849,393533.389,8,400,,,
trial,html.Screen,4_69_0,2023-09-16T15:50:05.291Z,,0,2,,2799.5109999910346,response,ISIC_2998367.JPG,8,ISIC_6737771.JPG,ISIC_6737771.JPG,false,0,keypress(z),500,396333.299999997,396332.89999999106,393516.723,393526.799999997,393533.389,396349.943,8,400,20,,ISIC_2998367.JPG
break,html.Screen,4_69_1,2023-09-16T15:50:05.292Z,,0,,,NaN,,,,,,false,,,,396334.59999999404,396334.39999999106,,396333.700000003,,396349.943,8,400,,,
break_continue,html.Screen,4_69_2,2023-09-16T15:50:05.293Z,,0,,,NaN,,,,,,false,,,,396335,396334.89999999106,,396334.700000003,,396349.943,8,400,,,
sequence,flow.Sequence,4_69,2023-09-16T15:50:05.293Z,,0,,,2801.5109999910346,completion,,,,,false,,,,396335.200000003,396334.89999999106,393516.723,393526.799999997,393533.389,396349.943,8,400,,,
trial,html.Screen,4_70_0,2023-09-16T15:50:11.533Z,,0,2,,6225.056999999972,response,ISIC_0069260.JPG,7,ISIC_0031034.JPG,ISIC_0031034.JPG,false,0,keypress(z),500,402575.5,402575,396333.277,396335.39999999106,396349.943,402583.893,8,400,21,,ISIC_0069260.JPG
break,html.Screen,4_70_1,2023-09-16T15:50:11.534Z,,0,,,NaN,,,,,,false,,,,402576.799999997,402576.5,,402575.799999997,,402583.893,8,400,,,
break_continue,html.Screen,4_70_2,2023-09-16T15:50:11.534Z,,0,,,NaN,,,,,,false,,,,402577.09999999404,402577,,402576.89999999106,,402583.893,8,400,,,
sequence,flow.Sequence,4_70,2023-09-16T15:50:11.535Z,,0,,,6227.056999999972,completion,,,,,false,,,,402577.39999999106,402577,396333.277,396335.299999997,396349.943,402583.893,8,400,,,
trial,html.Screen,4_71_0,2023-09-16T15:50:14.820Z,,0,2,,3278.3070000029984,response,ISIC_3608788.JPG,5,ISIC_2126084.JPG,ISIC_3608788.JPG,false,1,keypress(m),500,405862.700000003,405862.200000003,402567.227,402577.5,402583.893,405867.095,8,400,22,,ISIC_2126084.JPG
break,html.Screen,4_71_1,2023-09-16T15:50:14.821Z,,0,,,NaN,,,,,,false,,,,405864,405863.59999999404,,405863,,405867.095,8,400,,,
break_continue,html.Screen,4_71_2,2023-09-16T15:50:14.821Z,,0,,,NaN,,,,,,false,,,,405864.39999999106,405864.200000003,,405864.09999999404,,405867.095,8,400,,,
sequence,flow.Sequence,4_71,2023-09-16T15:50:14.822Z,,0,,,3280.3070000029984,completion,,,,,false,,,,405864.5,405864.200000003,402567.227,402577.39999999106,402583.893,405867.095,8,400,,,
trial,html.Screen,4_72_0,2023-09-16T15:50:17.467Z,,0,2,,2642.5049999940675,response,ISIC_0011176.JPG,8,ISIC_6683370.JPG,ISIC_6683370.JPG,false,0,keypress(z),500,408510.09999999404,408509.59999999404,405850.429,405864.59999999404,405867.095,408517.892,8,400,23,,ISIC_0011176.JPG
break,html.Screen,4_72_1,2023-09-16T15:50:17.468Z,,0,,,NaN,,,,,,false,,,,408511.5,408511.200000003,,408510.39999999106,,408517.892,8,400,,,
break_continue,html.Screen,4_72_2,2023-09-16T15:50:17.469Z,,0,,,NaN,,,,,,false,,,,408512,408511.799999997,,408511.59999999404,,408517.892,8,400,,,
sequence,flow.Sequence,4_72,2023-09-16T15:50:17.469Z,,0,,,2644.7049999970477,completion,,,,,false,,,,408512.200000003,408511.799999997,405850.429,405864.59999999404,405867.095,408517.892,8,400,,,
trial,html.Screen,4_73_0,2023-09-16T15:50:20.353Z,,0,2,,2878.207999994047,response,ISIC_0025035.JPG,8,ISIC_0034051.JPG,ISIC_0025035.JPG,false,1,keypress(m),500,411396.59999999404,411396.09999999404,408501.226,408512.299999997,408517.892,411401.11,8,400,24,,ISIC_0034051.JPG
break,html.Screen,4_73_1,2023-09-16T15:50:20.355Z,,0,,,NaN,,,,,,false,,,,411397.799999997,411397.5,,411396.799999997,,411401.11,8,400,,,
break_continue,html.Screen,4_73_2,2023-09-16T15:50:20.355Z,,0,,,NaN,,,,,,false,,,,411398.299999997,411398.09999999404,,411398,,411401.11,8,400,,,
sequence,flow.Sequence,4_73,2023-09-16T15:50:20.355Z,,0,,,2880.207999994047,completion,,,,,false,,,,411398.5,411398.09999999404,408501.226,408512.299999997,408517.892,411401.11,8,400,,,
trial,html.Screen,4_74_0,2023-09-16T15:50:22.948Z,,0,2,,2589.390000000014,response,ISIC_0698821.JPG,9,ISIC_2612661.JPG,ISIC_2612661.JPG,false,0,keypress(z),500,413991,413990.5,411384.444,411398.59999999404,411401.11,414001.006,8,400,25,,ISIC_0698821.JPG
break,html.Screen,4_74_1,2023-09-16T15:50:22.949Z,,0,,,NaN,,,,,,false,,,,413992.299999997,413992,,413991.299999997,,414001.006,8,400,,,
break_continue,html.Screen,4_74_2,2023-09-16T15:50:22.949Z,,0,,,NaN,,,,,,false,,,,413992.700000003,413992.5,,413992.39999999106,,414001.006,8,400,,,
sequence,flow.Sequence,4_74,2023-09-16T15:50:22.949Z,,0,,,2591.390000000014,completion,,,,,false,,,,413992.799999997,413992.5,411384.444,411398.59999999404,411401.11,414001.006,8,400,,,
trial,html.Screen,4_75_0,2023-09-16T15:50:25.514Z,,0,2,,2556.0939999940456,response,ISIC_0025832.JPG,8,ISIC_0612080.JPG,ISIC_0612080.JPG,false,0,keypress(z),500,416557.59999999404,416557.09999999404,413984.34,413992.89999999106,414001.006,416567.57,8,400,26,,ISIC_0025832.JPG
break,html.Screen,4_75_1,2023-09-16T15:50:25.515Z,,0,,,NaN,,,,,,false,,,,416558.89999999106,416558.700000003,,416557.799999997,,416567.57,8,400,,,
break_continue,html.Screen,4_75_2,2023-09-16T15:50:25.516Z,,0,,,NaN,,,,,,false,,,,416559.299999997,416559.200000003,,416559,,416567.57,8,400,,,
sequence,flow.Sequence,4_75,2023-09-16T15:50:25.516Z,,0,,,2558.1940000029863,completion,,,,,false,,,,416559.59999999404,416559.200000003,413984.34,413992.799999997,414001.006,416567.57,8,400,,,
trial,html.Screen,4_76_0,2023-09-16T15:50:28.529Z,,0,2,,3005.0299999940326,response,ISIC_0073147.JPG,8,ISIC_0027696.JPG,ISIC_0073147.JPG,false,1,keypress(m),500,419573.200000003,419572.59999999404,416550.904,416559.700000003,416567.57,419585.046,8,400,27,,ISIC_0027696.JPG
break,html.Screen,4_76_1,2023-09-16T15:50:28.531Z,,0,,,NaN,,,,,,false,,,,419574.59999999404,419574.299999997,,419573.5,,419585.046,8,400,,,
break_continue,html.Screen,4_76_2,2023-09-16T15:50:28.531Z,,0,,,NaN,,,,,,false,,,,419575,419574.89999999106,,419574.700000003,,419585.046,8,400,,,
sequence,flow.Sequence,4_76,2023-09-16T15:50:28.532Z,,0,,,3007.3299999910523,completion,,,,,false,,,,419575.200000003,419574.89999999106,416550.904,416559.59999999404,416567.57,419585.046,8,400,,,
trial,html.Screen,4_77_0,2023-09-16T15:50:30.869Z,,0,2,,2327.753999997047,response,ISIC_0065535.JPG,9,ISIC_0065918.JPG,ISIC_0065918.JPG,false,0,keypress(z),500,421913.200000003,421912.799999997,419568.38,419575.299999997,419585.046,421918.286,8,400,28,,ISIC_0065535.JPG
break,html.Screen,4_77_1,2023-09-16T15:50:30.871Z,,0,,,NaN,,,,,,false,,,,421914.59999999404,421914.299999997,,421913.59999999404,,421918.286,8,400,,,
break_continue,html.Screen,4_77_2,2023-09-16T15:50:30.871Z,,0,,,NaN,,,,,,false,,,,421915.09999999404,421914.89999999106,,421914.799999997,,421918.286,8,400,,,
sequence,flow.Sequence,4_77,2023-09-16T15:50:30.871Z,,0,,,2329.8539999910863,completion,,,,,false,,,,421915.299999997,421914.89999999106,419568.38,419575.299999997,419585.046,421918.286,8,400,,,
trial,html.Screen,4_78_0,2023-09-16T15:50:33.502Z,,0,2,,2627.1139999910374,response,ISIC_7429127.JPG,7,ISIC_9947624.JPG,ISIC_9947624.JPG,false,0,keypress(z),500,424545.89999999106,424545.39999999106,421901.62,421915.39999999106,421918.286,424551.514,8,400,29,,ISIC_7429127.JPG
break,html.Screen,4_78_1,2023-09-16T15:50:33.503Z,,0,,,NaN,,,,,,false,,,,424547.200000003,424547,,424546.200000003,,424551.514,8,400,,,
break_continue,html.Screen,4_78_2,2023-09-16T15:50:33.504Z,,0,,,NaN,,,,,,false,,,,424547.59999999404,424547.5,,424547.39999999106,,424551.514,8,400,,,
sequence,flow.Sequence,4_78,2023-09-16T15:50:33.504Z,,0,,,2629.213999999978,completion,,,,,false,,,,424547.799999997,424547.5,421901.62,421915.39999999106,421918.286,424551.514,8,400,,,
trial,html.Screen,4_79_0,2023-09-16T15:50:37.285Z,,0,2,,3777.085999994015,response,ISIC_3067885.JPG,8,ISIC_1287370.JPG,ISIC_3067885.JPG,false,1,keypress(m),500,428329.09999999404,428328.59999999404,424534.848,424548,424551.514,428335.619,8,400,30,,ISIC_1287370.JPG
break,html.Screen,4_79_1,2023-09-16T15:50:37.286Z,,0,,,NaN,,,,,,false,,,,428330.5,428330.200000003,,428329.39999999106,,428335.619,8,400,,,
break_continue,html.Screen,4_79_2,2023-09-16T15:50:37.287Z,,0,,,NaN,,,,,,false,,,,428330.799999997,428330.799999997,,428330.59999999404,,428335.619,8,400,,,
sequence,flow.Sequence,4_79,2023-09-16T15:50:37.287Z,,0,,,3779.285999996995,completion,,,,,false,,,,428331,428330.799999997,424534.848,424548,424551.514,428335.619,8,400,,,
trial,html.Screen,4_80_0,2023-09-16T15:50:40.890Z,,0,2,,3598.4809999940335,response,ISIC_5913155.JPG,9,ISIC_2266011.JPG,ISIC_5913155.JPG,false,1,keypress(m),500,431934.5,431934.09999999404,428318.953,428331.09999999404,428335.619,431935.475,8,400,31,,ISIC_2266011.JPG
break,html.Screen,4_80_1,2023-09-16T15:50:40.892Z,,0,,,NaN,,,,,,false,,,,431935.799999997,431935.59999999404,,431934.799999997,,431935.475,8,400,,,
break_continue,html.Screen,4_80_2,2023-09-16T15:50:40.892Z,,0,,,NaN,,,,,,false,,,,431936.200000003,431936.09999999404,,431935.89999999106,,431935.475,8,400,,,
sequence,flow.Sequence,4_80,2023-09-16T15:50:40.892Z,,0,,,3600.4809999940335,completion,,,,,false,,,,431936.39999999106,431936.09999999404,428318.953,428331.09999999404,428335.619,431935.475,8,400,,,
trial,html.Screen,4_81_0,2023-09-16T15:50:45.018Z,,0,2,,4126.924999991083,response,ISIC_0011289.JPG,6,ISIC_0011483.JPG,ISIC_0011483.JPG,false,0,keypress(z),500,436063,436062.39999999106,431918.809,431936.5,431935.475,436068.643,8,400,32,,ISIC_0011289.JPG
break,html.Screen,4_81_1,2023-09-16T15:50:45.020Z,,0,,,NaN,,,,,,false,,,,436064.200000003,436064,,436063.299999997,,436068.643,8,400,,,
break_continue,html.Screen,4_81_2,2023-09-16T15:50:45.020Z,,0,,,NaN,,,,,,false,,,,436064.700000003,436064.59999999404,,436064.299999997,,436068.643,8,400,,,
sequence,flow.Sequence,4_81,2023-09-16T15:50:45.020Z,,0,,,4129.124999994063,completion,,,,,false,,,,436064.89999999106,436064.59999999404,431918.809,431936.5,431935.475,436068.643,8,400,,,
trial,html.Screen,4_82_0,2023-09-16T15:50:48.801Z,,0,2,,3776.5570000029984,response,ISIC_0741694.JPG,7,ISIC_6809191.JPG,ISIC_0741694.JPG,false,1,keypress(m),500,439845.700000003,439845.200000003,436051.977,436065,436068.643,439852.749,8,400,33,,ISIC_6809191.JPG
break,html.Screen,4_82_1,2023-09-16T15:50:48.802Z,,0,,,NaN,,,,,,false,,,,439847,439846.799999997,,439846,,439852.749,8,400,,,
break_continue,html.Screen,4_82_2,2023-09-16T15:50:48.803Z,,0,,,NaN,,,,,,false,,,,439847.5,439847.299999997,,439847.09999999404,,439852.749,8,400,,,
sequence,flow.Sequence,4_82,2023-09-16T15:50:48.803Z,,0,,,3778.656999997038,completion,,,,,false,,,,439847.59999999404,439847.299999997,436051.977,436064.89999999106,436068.643,439852.749,8,400,,,
trial,html.Screen,4_83_0,2023-09-16T15:50:52.024Z,,0,2,,3215.850999994029,response,ISIC_0029244.JPG,7,ISIC_0061479.JPG,ISIC_0061479.JPG,false,0,keypress(z),500,443069.09999999404,443068.59999999404,439836.083,439847.700000003,439852.749,443085.953,8,400,34,,ISIC_0029244.JPG
break,html.Screen,4_83_1,2023-09-16T15:50:52.026Z,,0,,,NaN,,,,,,false,,,,443070.59999999404,443070.200000003,,443069.39999999106,,443085.953,8,400,,,
break_continue,html.Screen,4_83_2,2023-09-16T15:50:52.026Z,,0,,,NaN,,,,,,false,,,,443071,443070.799999997,,443070.59999999404,,443085.953,8,400,,,
sequence,flow.Sequence,4_83,2023-09-16T15:50:52.026Z,,0,,,3218.050999997009,completion,,,,,false,,,,443071.09999999404,443070.799999997,439836.083,439847.700000003,439852.749,443085.953,8,400,,,
trial,html.Screen,4_84_0,2023-09-16T15:50:55.293Z,,0,2,,3251.44699999108,response,ISIC_4350093.JPG,8,ISIC_0054341.JPG,ISIC_4350093.JPG,false,1,keypress(m),500,446337.89999999106,446337.39999999106,443069.287,443071.299999997,443085.953,446352.489,8,400,35,,ISIC_0054341.JPG
break,html.Screen,4_84_1,2023-09-16T15:50:55.294Z,,0,,,NaN,,,,,,false,,,,446339.299999997,446339,,446338.299999997,,446352.489,8,400,,,
break_continue,html.Screen,4_84_2,2023-09-16T15:50:55.295Z,,0,,,NaN,,,,,,false,,,,446339.700000003,446339.5,,446339.5,,446352.489,8,400,,,
sequence,flow.Sequence,4_84,2023-09-16T15:50:55.295Z,,0,,,3253.5470000000205,completion,,,,,false,,,,446339.89999999106,446339.5,443069.287,443071.200000003,443085.953,446352.489,8,400,,,
trial,html.Screen,4_85_0,2023-09-16T15:50:57.876Z,,0,2,,2568.0109999999986,response,ISIC_0746397.JPG,8,ISIC_2851852.JPG,ISIC_2851852.JPG,false,0,keypress(z),500,448920.89999999106,448920.5,446335.823,446340,446352.489,448936.626,8,400,36,,ISIC_0746397.JPG
break,html.Screen,4_85_1,2023-09-16T15:50:57.877Z,,0,,,NaN,,,,,,false,,,,448922.09999999404,448921.89999999106,,448921.200000003,,448936.626,8,400,,,
break_continue,html.Screen,4_85_2,2023-09-16T15:50:57.877Z,,0,,,NaN,,,,,,false,,,,448922.59999999404,448922.39999999106,,448922.299999997,,448936.626,8,400,,,
sequence,flow.Sequence,4_85,2023-09-16T15:50:57.878Z,,0,,,2569.910999991058,completion,,,,,false,,,,448922.799999997,448922.39999999106,446335.823,446340,446352.489,448936.626,8,400,,,
trial,html.Screen,4_86_0,2023-09-16T15:50:59.947Z,,0,2,,2055.1739999970305,response,ISIC_2008230.JPG,8,ISIC_8865595.JPG,ISIC_8865595.JPG,false,0,keypress(z),500,450992.299999997,450991.799999997,448919.96,448922.89999999106,448936.626,451003.21,8,400,37,,ISIC_2008230.JPG
break,html.Screen,4_86_1,2023-09-16T15:50:59.948Z,,0,,,NaN,,,,,,false,,,,450993.5,450993.299999997,,450992.5,,451003.21,8,400,,,
break_continue,html.Screen,4_86_2,2023-09-16T15:50:59.949Z,,0,,,NaN,,,,,,false,,,,450994,450993.89999999106,,450993.59999999404,,451003.21,8,400,,,
sequence,flow.Sequence,4_86,2023-09-16T15:50:59.949Z,,0,,,2057.27399999107,completion,,,,,false,,,,450994.09999999404,450993.89999999106,448919.96,448922.89999999106,448936.626,451003.21,8,400,,,
trial,html.Screen,4_87_0,2023-09-16T15:51:03.346Z,,0,2,,3387.9900000029593,response,ISIC_5063476.JPG,8,ISIC_6523459.JPG,ISIC_6523459.JPG,false,0,keypress(z),500,454391.799999997,454391.200000003,450986.544,450994.39999999106,451003.21,454403.074,8,400,38,,ISIC_5063476.JPG
break,html.Screen,4_87_1,2023-09-16T15:51:03.348Z,,0,,,NaN,,,,,,false,,,,454393.09999999404,454392.89999999106,,454392,,454403.074,8,400,,,
break_continue,html.Screen,4_87_2,2023-09-16T15:51:03.348Z,,0,,,NaN,,,,,,false,,,,454393.5,454393.5,,454393.299999997,,454403.074,8,400,,,
sequence,flow.Sequence,4_87,2023-09-16T15:51:03.348Z,,0,,,3390.289999999979,completion,,,,,false,,,,454393.700000003,454393.5,450986.544,450994.299999997,451003.21,454403.074,8,400,,,
trial,html.Screen,4_88_0,2023-09-16T15:51:06.897Z,,0,2,,3539.325999991037,response,ISIC_0063601.JPG,9,ISIC_0010915.JPG,ISIC_0010915.JPG,false,0,keypress(z),500,457942.89999999106,457942.39999999106,454386.408,454393.89999999106,454403.074,457952.932,8,400,39,,ISIC_0063601.JPG
break,html.Screen,4_88_1,2023-09-16T15:51:06.898Z,,0,,,NaN,,,,,,false,,,,457944,457943.799999997,,457943.09999999404,,457952.932,8,400,,,
break_continue,html.Screen,4_88_2,2023-09-16T15:51:06.899Z,,0,,,NaN,,,,,,false,,,,457944.5,457944.39999999106,,457944.200000003,,457952.932,8,400,,,
sequence,flow.Sequence,4_88,2023-09-16T15:51:06.899Z,,0,,,3541.325999991037,completion,,,,,false,,,,457944.700000003,457944.39999999106,454386.408,454393.89999999106,454403.074,457952.932,8,400,,,
trial,html.Screen,4_89_0,2023-09-16T15:51:09.656Z,,0,2,,2748.7680000030086,response,ISIC_0071594.JPG,8,ISIC_2642873.JPG,ISIC_2642873.JPG,false,0,keypress(z),500,460702.200000003,460701.700000003,457936.266,457944.799999997,457952.932,460703.692,8,400,40,,ISIC_0071594.JPG
break,html.Screen,4_89_1,2023-09-16T15:51:09.658Z,,0,,,NaN,,,,,,false,,,,460703.5,460703.200000003,,460702.5,,460703.692,8,400,,,
break_continue,html.Screen,4_89_2,2023-09-16T15:51:09.658Z,,0,,,NaN,,,,,,false,,,,460704,460703.799999997,,460703.59999999404,,460703.692,8,400,,,
sequence,flow.Sequence,4_89,2023-09-16T15:51:09.658Z,,0,,,2750.867999997048,completion,,,,,false,,,,460704.09999999404,460703.799999997,457936.266,457944.799999997,457952.932,460703.692,8,400,,,
trial,html.Screen,4_90_0,2023-09-16T15:51:12.728Z,,0,2,,3070.107999997039,response,ISIC_0059368.JPG,8,ISIC_0011665.JPG,ISIC_0059368.JPG,false,1,keypress(m),500,463774.299999997,463773.799999997,460687.026,460704.299999997,460703.692,463786.902,8,400,41,,ISIC_0011665.JPG
break,html.Screen,4_90_1,2023-09-16T15:51:12.730Z,,0,,,NaN,,,,,,false,,,,463775.59999999404,463775.39999999106,,463774.59999999404,,463786.902,8,400,,,
break_continue,html.Screen,4_90_2,2023-09-16T15:51:12.730Z,,0,,,NaN,,,,,,false,,,,463776.200000003,463776.09999999404,,463775.799999997,,463786.902,8,400,,,
sequence,flow.Sequence,4_90,2023-09-16T15:51:12.730Z,,0,,,3072.4079999940586,completion,,,,,false,,,,463776.299999997,463776.09999999404,460687.026,460704.299999997,460703.692,463786.902,8,400,,,
trial,html.Screen,4_91_0,2023-09-16T15:51:15.773Z,,0,2,,3031.9979999910574,response,ISIC_0054527.JPG,6,ISIC_6684042.JPG,ISIC_0054527.JPG,false,1,keypress(m),500,466819.5,466818.89999999106,463770.236,463776.5,463786.902,466836.78,8,400,42,,ISIC_6684042.JPG
break,html.Screen,4_91_1,2023-09-16T15:51:15.775Z,,0,,,NaN,,,,,,false,,,,466820.700000003,466820.39999999106,,466819.700000003,,466836.78,8,400,,,
break_continue,html.Screen,4_91_2,2023-09-16T15:51:15.775Z,,0,,,NaN,,,,,,false,,,,466821.200000003,466821,,466820.700000003,,466836.78,8,400,,,
sequence,flow.Sequence,4_91,2023-09-16T15:51:15.775Z,,0,,,3034.097999999998,completion,,,,,false,,,,466821.299999997,466821,463770.236,463776.5,463786.902,466836.78,8,400,,,
trial,html.Screen,4_92_0,2023-09-16T15:51:18.705Z,,0,2,,2914.4200000029523,response,ISIC_0010663.JPG,8,ISIC_0000040.JPG,ISIC_0000040.JPG,false,0,keypress(z),500,469751.700000003,469751.200000003,466820.114,466821.5,466836.78,469754.334,8,400,43,,ISIC_0010663.JPG
break,html.Screen,4_92_1,2023-09-16T15:51:18.707Z,,0,,,NaN,,,,,,false,,,,469753.200000003,469752.799999997,,469752,,469754.334,8,400,,,
break_continue,html.Screen,4_92_2,2023-09-16T15:51:18.707Z,,0,,,NaN,,,,,,false,,,,469753.59999999404,469753.5,,469753.299999997,,469754.334,8,400,,,
sequence,flow.Sequence,4_92,2023-09-16T15:51:18.707Z,,0,,,2916.719999999972,completion,,,,,false,,,,469753.799999997,469753.5,466820.114,466821.5,466836.78,469754.334,8,400,,,
trial,html.Screen,4_93_0,2023-09-16T15:51:21.590Z,,0,2,,2881.866000003007,response,ISIC_0054021.JPG,6,ISIC_3305153.JPG,ISIC_3305153.JPG,false,0,keypress(z),500,472636.59999999404,472636.200000003,469737.668,469753.89999999106,469754.334,472654.218,8,400,44,,ISIC_0054021.JPG
break,html.Screen,4_93_1,2023-09-16T15:51:21.592Z,,0,,,NaN,,,,,,false,,,,472638,472637.799999997,,472637,,472654.218,8,400,,,
break_continue,html.Screen,4_93_2,2023-09-16T15:51:21.592Z,,0,,,NaN,,,,,,false,,,,472638.39999999106,472638.299999997,,472638.09999999404,,472654.218,8,400,,,
sequence,flow.Sequence,4_93,2023-09-16T15:51:21.592Z,,0,,,2883.9659999970463,completion,,,,,false,,,,472638.59999999404,472638.299999997,469737.668,469753.89999999106,469754.334,472654.218,8,400,,,
trial,html.Screen,4_94_0,2023-09-16T15:51:24.349Z,,0,2,,2740.881999994046,response,ISIC_9870885.JPG,8,ISIC_3578186.JPG,ISIC_3578186.JPG,false,0,keypress(z),500,475395.59999999404,475395.09999999404,472637.552,472638.700000003,472654.218,475404.108,8,400,45,,ISIC_9870885.JPG
break,html.Screen,4_94_1,2023-09-16T15:51:24.350Z,,0,,,NaN,,,,,,false,,,,475396.89999999106,475396.59999999404,,475396,,475404.108,8,400,,,
break_continue,html.Screen,4_94_2,2023-09-16T15:51:24.351Z,,0,,,NaN,,,,,,false,,,,475397.299999997,475397.09999999404,,475397,,475404.108,8,400,,,
sequence,flow.Sequence,4_94,2023-09-16T15:51:24.351Z,,0,,,2742.881999994046,completion,,,,,false,,,,475397.5,475397.09999999404,472637.552,472638.700000003,472654.218,475404.108,8,400,,,
trial,html.Screen,4_95_0,2023-09-16T15:51:27.285Z,,0,2,,2926.8919999999925,response,ISIC_0029481.JPG,6,ISIC_0028655.JPG,ISIC_0029481.JPG,false,1,keypress(m),500,478331.299999997,478331,475387.442,475397.700000003,475404.108,478337.324,8,400,46,,ISIC_0028655.JPG
break,html.Screen,4_95_1,2023-09-16T15:51:27.286Z,,0,,,NaN,,,,,,false,,,,478332.700000003,478332.39999999106,,478331.59999999404,,478337.324,8,400,,,
break_continue,html.Screen,4_95_2,2023-09-16T15:51:27.286Z,,0,,,NaN,,,,,,false,,,,478333.200000003,478333,,478332.799999997,,478337.324,8,400,,,
sequence,flow.Sequence,4_95,2023-09-16T15:51:27.287Z,,0,,,2928.8919999999925,completion,,,,,false,,,,478333.299999997,478333,475387.442,475397.59999999404,475404.108,478337.324,8,400,,,
trial,html.Screen,4_96_0,2023-09-16T15:51:30.015Z,,0,2,,2724.4759999969974,response,ISIC_2126035.JPG,5,ISIC_0059786.JPG,ISIC_0059786.JPG,false,0,keypress(z),500,481062.299999997,481061.799999997,478320.658,478333.5,478337.324,481071.42,8,400,47,,ISIC_2126035.JPG
break,html.Screen,4_96_1,2023-09-16T15:51:30.017Z,,0,,,NaN,,,,,,false,,,,481063.5,481063.299999997,,481062.5,,481071.42,8,400,,,
break_continue,html.Screen,4_96_2,2023-09-16T15:51:30.017Z,,0,,,NaN,,,,,,false,,,,481063.89999999106,481063.799999997,,481063.700000003,,481071.42,8,400,,,
sequence,flow.Sequence,4_96,2023-09-16T15:51:30.017Z,,0,,,2726.4759999969974,completion,,,,,false,,,,481064.200000003,481063.799999997,478320.658,478333.39999999106,478337.324,481071.42,8,400,,,
trial,html.Screen,4_97_0,2023-09-16T15:51:32.792Z,,0,2,,2767.4799999910756,response,ISIC_0025531.JPG,7,ISIC_4237064.JPG,ISIC_0025531.JPG,false,1,keypress(m),500,483839.299999997,483838.89999999106,481054.754,481064.299999997,481071.42,483854.642,8,400,48,,ISIC_4237064.JPG
break,html.Screen,4_97_1,2023-09-16T15:51:32.794Z,,0,,,NaN,,,,,,false,,,,483840.59999999404,483840.39999999106,,483839.700000003,,483854.642,8,400,,,
break_continue,html.Screen,4_97_2,2023-09-16T15:51:32.794Z,,0,,,NaN,,,,,,false,,,,483841,483840.89999999106,,483840.799999997,,483854.642,8,400,,,
sequence,flow.Sequence,4_97,2023-09-16T15:51:32.794Z,,0,,,2769.4799999910756,completion,,,,,false,,,,483841.299999997,483840.89999999106,481054.754,481064.200000003,481071.42,483854.642,8,400,,,
trial,html.Screen,4_98_0,2023-09-16T15:51:36.813Z,,0,2,,4005.457999994047,response,ISIC_9989617.JPG,5,ISIC_0069204.JPG,ISIC_9989617.JPG,false,1,keypress(m),500,487860.700000003,487860.09999999404,483837.976,483841.39999999106,483854.642,487871.148,8,400,49,,ISIC_0069204.JPG
break,html.Screen,4_98_1,2023-09-16T15:51:36.815Z,,0,,,NaN,,,,,,false,,,,487861.89999999106,487861.5,,487860.89999999106,,487871.148,8,400,,,
break_continue,html.Screen,4_98_2,2023-09-16T15:51:36.815Z,,0,,,NaN,,,,,,false,,,,487862.299999997,487862.200000003,,487862,,487871.148,8,400,,,
sequence,flow.Sequence,4_98,2023-09-16T15:51:36.815Z,,0,,,4007.5580000029877,completion,,,,,false,,,,487862.5,487862.200000003,483837.976,483841.299999997,483854.642,487871.148,8,400,,,
trial,html.Screen,4_99_0,2023-09-16T15:51:39.570Z,,0,2,,2745.251999991073,response,ISIC_1797795.JPG,8,ISIC_5904116.JPG,ISIC_5904116.JPG,false,0,keypress(z),500,490617,490616.39999999106,487854.482,487862.59999999404,487871.148,490621.965,8,400,50,,ISIC_1797795.JPG
break,html.Screen,4_99_1,2023-09-16T15:51:49.561Z,,0,,,10000.496999999974,timeout,,,,,false,,,,500608.799999997,500605.796,490605.299,490617.299999997,490621.965,500622.462,8,400,,,
break_continue,html.Screen,4_99_2,2023-09-16T15:52:04.585Z,,0,,,14993.33799999702,response,,,,,false,continue,keypress(Space),,515633.299999997,515615.799999997,500605.796,500609,500622.462,515638.528,8,400,,,
sequence,flow.Sequence,4_99,2023-09-16T15:52:04.585Z,,0,,,27744.651999997033,completion,,,,,false,,,,515633.5,515615.799999997,487854.482,487862.59999999404,487871.148,515638.528,8,400,,,
trial,html.Screen,4_100_0,2023-09-16T15:52:09.423Z,,0,3,,4832.771999997029,response,ISIC_0065469.JPG,8,ISIC_0032550.JPG,ISIC_0032550.JPG,false,0,keypress(z),500,520471.799999997,520471.299999997,515621.862,515633.59999999404,515638.528,520473.111,8,400,1,,ISIC_0065469.JPG
break,html.Screen,4_100_1,2023-09-16T15:52:09.424Z,,0,,,NaN,,,,,,false,,,,520473.09999999404,520472.799999997,,520472.09999999404,,520473.111,8,400,,,
break_continue,html.Screen,4_100_2,2023-09-16T15:52:09.425Z,,0,,,NaN,,,,,,false,,,,520473.5,520473.5,,520473.299999997,,520473.111,8,400,,,
sequence,flow.Sequence,4_100,2023-09-16T15:52:09.425Z,,0,,,4834.972000000009,completion,,,,,false,,,,520473.799999997,520473.5,515621.862,515633.59999999404,515638.528,520473.111,8,400,,,
trial,html.Screen,4_101_0,2023-09-16T15:52:14.038Z,,0,3,,4613.389000000025,response,ISIC_6548734.JPG,7,ISIC_0055241.JPG,ISIC_6548734.JPG,false,1,keypress(m),500,525087,525086.5,520456.445,520473.89999999106,520473.111,525089.593,8,400,2,,ISIC_0055241.JPG
break,html.Screen,4_101_1,2023-09-16T15:52:14.039Z,,0,,,NaN,,,,,,false,,,,525088.3999999911,525088.099999994,,525087.299999997,,525089.593,8,400,,,
break_continue,html.Screen,4_101_2,2023-09-16T15:52:14.040Z,,0,,,NaN,,,,,,false,,,,525088.799999997,525088.700000003,,525088.5,,525089.593,8,400,,,
sequence,flow.Sequence,4_101,2023-09-16T15:52:14.040Z,,0,,,4615.589000003005,completion,,,,,false,,,,525089,525088.700000003,520456.445,520473.799999997,520473.111,525089.593,8,400,,,
trial,html.Screen,4_102_0,2023-09-16T15:52:17.285Z,,0,3,,3243.9070000000065,response,ISIC_2894223.JPG,8,ISIC_0065823.JPG,ISIC_2894223.JPG,false,1,keypress(m),500,528334,528333.5,525072.927,525089.099999994,525089.593,528340.4,8,400,3,,ISIC_0065823.JPG
break,html.Screen,4_102_1,2023-09-16T15:52:17.286Z,,0,,,NaN,,,,,,false,,,,528335.200000003,528334.8999999911,,528334.299999997,,528340.4,8,400,,,
break_continue,html.Screen,4_102_2,2023-09-16T15:52:17.286Z,,0,,,NaN,,,,,,false,,,,528335.700000003,528335.599999994,,528335.299999997,,528340.4,8,400,,,
sequence,flow.Sequence,4_102,2023-09-16T15:52:17.287Z,,0,,,3246.006999994046,completion,,,,,false,,,,528335.8999999911,528335.599999994,525072.927,525089,525089.593,528340.4,8,400,,,
trial,html.Screen,4_103_0,2023-09-16T15:52:20.537Z,,0,3,,3245.6999999940163,response,ISIC_2558816.JPG,6,ISIC_8993666.JPG,ISIC_8993666.JPG,false,0,keypress(z),500,531586.5,531586.099999994,528323.734,528336,528340.4,531590.27,8,400,4,,ISIC_2558816.JPG
break,html.Screen,4_103_1,2023-09-16T15:52:20.538Z,,0,,,NaN,,,,,,false,,,,531587.8999999911,531587.599999994,,531586.799999997,,531590.27,8,400,,,
break_continue,html.Screen,4_103_2,2023-09-16T15:52:20.539Z,,0,,,NaN,,,,,,false,,,,531588.299999997,531588.200000003,,531588,,531590.27,8,400,,,
sequence,flow.Sequence,4_103,2023-09-16T15:52:20.539Z,,0,,,3247.800000002957,completion,,,,,false,,,,531588.5,531588.200000003,528323.734,528336,528340.4,531590.27,8,400,,,
trial,html.Screen,4_104_0,2023-09-16T15:52:29.696Z,,0,3,,9154.930000002962,response,ISIC_0062234.JPG,7,ISIC_0028081.JPG,ISIC_0028081.JPG,false,0,keypress(z),500,540745.599999994,540745.200000003,531573.604,531588.700000003,531590.27,540757.649,8,400,5,,ISIC_0062234.JPG
break,html.Screen,4_104_1,2023-09-16T15:52:29.697Z,,0,,,NaN,,,,,,false,,,,540746.8999999911,540746.700000003,,540745.8999999911,,540757.649,8,400,,,
break_continue,html.Screen,4_104_2,2023-09-16T15:52:29.697Z,,0,,,NaN,,,,,,false,,,,540747.3999999911,540747.299999997,,540747.099999994,,540757.649,8,400,,,
sequence,flow.Sequence,4_104,2023-09-16T15:52:29.698Z,,0,,,9157.029999997001,completion,,,,,false,,,,540747.5,540747.299999997,531573.604,531588.700000003,531590.27,540757.649,8,400,,,
trial,html.Screen,4_105_0,2023-09-16T15:52:36.758Z,,0,3,,7050.2509999910835,response,ISIC_4371210.JPG,5,ISIC_4344870.JPG,ISIC_4371210.JPG,false,1,keypress(m),500,547808.299999997,547807.8999999911,540740.983,540747.700000003,540757.649,547824.033,8,400,6,,ISIC_4344870.JPG
break,html.Screen,4_105_1,2023-09-16T15:52:36.759Z,,0,,,NaN,,,,,,false,,,,547809.599999994,547809.3999999911,,547808.599999994,,547824.033,8,400,,,
break_continue,html.Screen,4_105_2,2023-09-16T15:52:36.760Z,,0,,,NaN,,,,,,false,,,,547810.099999994,547810,,547809.799999997,,547824.033,8,400,,,
sequence,flow.Sequence,4_105,2023-09-16T15:52:36.760Z,,0,,,7052.351000000024,completion,,,,,false,,,,547810.299999997,547810,540740.983,540747.700000003,540757.649,547824.033,8,400,,,
trial,html.Screen,4_106_0,2023-09-16T15:52:40.060Z,,0,3,,3285.966999999946,response,ISIC_6918995.JPG,8,ISIC_2724278.JPG,ISIC_6918995.JPG,false,1,keypress(m),500,551110.599999994,551110,547807.367,547810.3999999911,547824.033,551124.839,8,400,7,,ISIC_2724278.JPG
break,html.Screen,4_106_1,2023-09-16T15:52:40.061Z,,0,,,NaN,,,,,,false,,,,551111.8999999911,551111.599999994,,551110.8999999911,,551124.839,8,400,,,
break_continue,html.Screen,4_106_2,2023-09-16T15:52:40.062Z,,0,,,NaN,,,,,,false,,,,551112.3999999911,551112.299999997,,551112,,551124.839,8,400,,,
sequence,flow.Sequence,4_106,2023-09-16T15:52:40.062Z,,0,,,3288.2669999969658,completion,,,,,false,,,,551112.5,551112.299999997,547807.367,547810.3999999911,547824.033,551124.839,8,400,,,
trial,html.Screen,4_107_0,2023-09-16T15:52:42.210Z,,0,3,,2135.560999991023,response,ISIC_7582818.JPG,8,ISIC_0054355.JPG,ISIC_0054355.JPG,false,0,keypress(z),500,553260.8999999911,553260.3999999911,551108.173,551112.599999994,551124.839,553274.753,8,400,8,,ISIC_7582818.JPG
break,html.Screen,4_107_1,2023-09-16T15:52:42.212Z,,0,,,NaN,,,,,,false,,,,553262.200000003,553261.8999999911,,553261.200000003,,553274.753,8,400,,,
break_continue,html.Screen,4_107_2,2023-09-16T15:52:42.212Z,,0,,,NaN,,,,,,false,,,,553262.599999994,553262.5,,553262.299999997,,553274.753,8,400,,,
sequence,flow.Sequence,4_107,2023-09-16T15:52:42.212Z,,0,,,2137.6609999999637,completion,,,,,false,,,,553262.799999997,553262.5,551108.173,551112.599999994,551124.839,553274.753,8,400,,,
trial,html.Screen,4_108_0,2023-09-16T15:52:46.819Z,,0,3,,4594.246999999974,response,ISIC_6657600.JPG,7,ISIC_4141315.JPG,ISIC_4141315.JPG,false,0,keypress(z),500,557869.599999994,557869,553258.087,553262.8999999911,553274.753,557874.569,8,400,9,,ISIC_6657600.JPG
break,html.Screen,4_108_1,2023-09-16T15:52:46.820Z,,0,,,NaN,,,,,,false,,,,557870.8999999911,557870.700000003,,557869.799999997,,557874.569,8,400,,,
break_continue,html.Screen,4_108_2,2023-09-16T15:52:46.821Z,,0,,,NaN,,,,,,false,,,,557871.3999999911,557871.200000003,,557871.099999994,,557874.569,8,400,,,
sequence,flow.Sequence,4_108,2023-09-16T15:52:46.821Z,,0,,,4596.447000002954,completion,,,,,false,,,,557871.599999994,557871.200000003,553258.087,553262.799999997,553274.753,557874.569,8,400,,,
trial,html.Screen,4_109_0,2023-09-16T15:52:49.963Z,,0,3,,3138.530999994022,response,ISIC_1330008.JPG,6,ISIC_0072569.JPG,ISIC_0072569.JPG,false,0,keypress(z),500,561013.599999994,561013.099999994,557857.903,557871.700000003,557874.569,561042.026,8,400,10,,ISIC_1330008.JPG
break,html.Screen,4_109_1,2023-09-16T15:52:49.964Z,,0,,,NaN,,,,,,false,,,,561014.8999999911,561014.700000003,,561014,,561042.026,8,400,,,
break_continue,html.Screen,4_109_2,2023-09-16T15:52:49.964Z,,0,,,NaN,,,,,,false,,,,561015.299999997,561015.299999997,,561015,,561042.026,8,400,,,
sequence,flow.Sequence,4_109,2023-09-16T15:52:49.964Z,,0,,,3140.730999997002,completion,,,,,false,,,,561015.5,561015.299999997,557857.903,557871.700000003,557874.569,561042.026,8,400,,,
trial,html.Screen,4_110_0,2023-09-16T15:52:53.058Z,,0,3,,3066.174000003026,response,ISIC_0071740.JPG,8,ISIC_0025589.JPG,ISIC_0071740.JPG,false,1,keypress(m),500,564108.700000003,564108.200000003,561025.36,561015.700000003,561042.026,564125.236,8,400,11,,ISIC_0025589.JPG
break,html.Screen,4_110_1,2023-09-16T15:52:53.059Z,,0,,,NaN,,,,,,false,,,,564110,564109.700000003,,564109,,564125.236,8,400,,,
break_continue,html.Screen,4_110_2,2023-09-16T15:52:53.059Z,,0,,,NaN,,,,,,false,,,,564110.299999997,564110.200000003,,564110.099999994,,564125.236,8,400,,,
sequence,flow.Sequence,4_110,2023-09-16T15:52:53.059Z,,0,,,3068.174000003026,completion,,,,,false,,,,564110.599999994,564110.200000003,561025.36,561015.599999994,561042.026,564125.236,8,400,,,
trial,html.Screen,4_111_0,2023-09-16T15:52:56.299Z,,0,3,,3224.163999991026,response,ISIC_0032133.JPG,8,ISIC_0068381.JPG,ISIC_0032133.JPG,false,1,keypress(m),500,567349.799999997,567349.3999999911,564108.57,564110.700000003,564125.236,567358.44,8,400,12,,ISIC_0068381.JPG
break,html.Screen,4_111_1,2023-09-16T15:52:56.300Z,,0,,,NaN,,,,,,false,,,,567351.099999994,567350.799999997,,567350.200000003,,567358.44,8,400,,,
break_continue,html.Screen,4_111_2,2023-09-16T15:52:56.300Z,,0,,,NaN,,,,,,false,,,,567351.5,567351.3999999911,,567351.299999997,,567358.44,8,400,,,
sequence,flow.Sequence,4_111,2023-09-16T15:52:56.300Z,,0,,,3226.163999991026,completion,,,,,false,,,,567351.700000003,567351.3999999911,564108.57,564110.700000003,564125.236,567358.44,8,400,,,
trial,html.Screen,4_112_0,2023-09-16T15:52:59.707Z,,0,3,,3399.260000003036,response,ISIC_5754233.JPG,8,ISIC_0011521.JPG,ISIC_0011521.JPG,false,0,keypress(z),500,570758.200000003,570757.700000003,567341.774,567351.799999997,567358.44,570759.32,8,400,13,,ISIC_5754233.JPG
break,html.Screen,4_112_1,2023-09-16T15:52:59.708Z,,0,,,NaN,,,,,,false,,,,570759.5,570759.200000003,,570758.5,,570759.32,8,400,,,
break_continue,html.Screen,4_112_2,2023-09-16T15:52:59.708Z,,0,,,NaN,,,,,,false,,,,570760,570759.8999999911,,570759.599999994,,570759.32,8,400,,,
sequence,flow.Sequence,4_112,2023-09-16T15:52:59.709Z,,0,,,3401.459999991115,completion,,,,,false,,,,570760.200000003,570759.8999999911,567341.774,567351.799999997,567358.44,570759.32,8,400,,,
trial,html.Screen,4_113_0,2023-09-16T15:53:04.002Z,,0,3,,4294.0799999911105,response,ISIC_1714941.JPG,7,ISIC_4148086.JPG,ISIC_1714941.JPG,false,1,keypress(m),500,575053.8999999911,575053.3999999911,570742.654,570760.299999997,570759.32,575059.148,8,400,14,,ISIC_4148086.JPG
break,html.Screen,4_113_1,2023-09-16T15:53:04.004Z,,0,,,NaN,,,,,,false,,,,575055.200000003,575055,,575054.200000003,,575059.148,8,400,,,
break_continue,html.Screen,4_113_2,2023-09-16T15:53:04.004Z,,0,,,NaN,,,,,,false,,,,575055.700000003,575055.5,,575055.3999999911,,575059.148,8,400,,,
sequence,flow.Sequence,4_113,2023-09-16T15:53:04.004Z,,0,,,4296.180000000051,completion,,,,,false,,,,575055.8999999911,575055.5,570742.654,570760.200000003,570759.32,575059.148,8,400,,,
trial,html.Screen,4_114_0,2023-09-16T15:53:07.881Z,,0,3,,3873.2519999910146,response,ISIC_0026596.JPG,8,ISIC_4350093.JPG,ISIC_4350093.JPG,false,0,keypress(z),500,578932.8999999911,578932.3999999911,575042.482,575056,575059.148,578942.326,8,400,15,,ISIC_0026596.JPG
break,html.Screen,4_114_1,2023-09-16T15:53:07.882Z,,0,,,NaN,,,,,,false,,,,578934.099999994,578933.8999999911,,578933.200000003,,578942.326,8,400,,,
break_continue,html.Screen,4_114_2,2023-09-16T15:53:07.883Z,,0,,,NaN,,,,,,false,,,,578934.599999994,578934.3999999911,,578934.200000003,,578942.326,8,400,,,
sequence,flow.Sequence,4_114,2023-09-16T15:53:07.883Z,,0,,,3875.2519999910146,completion,,,,,false,,,,578934.799999997,578934.3999999911,575042.482,575056,575059.148,578942.326,8,400,,,
trial,html.Screen,4_115_0,2023-09-16T15:53:19.378Z,,0,3,,11517.118000000017,timeout,ISIC_5046082.JPG,7,ISIC_0067427.JPG,,false,,,500,590430.3999999911,590429.8999999911,578925.66,578934.799999997,578942.326,590459.444,8,400,16,,
break,html.Screen,4_115_1,2023-09-16T15:53:19.379Z,,0,,,NaN,,,,,,false,,,,590431.700000003,590431.3999999911,,590430.599999994,,590459.444,8,400,,,
break_continue,html.Screen,4_115_2,2023-09-16T15:53:19.379Z,,0,,,NaN,,,,,,false,,,,590432,590432,,590431.799999997,,590459.444,8,400,,,
sequence,flow.Sequence,4_115,2023-09-16T15:53:19.380Z,,0,,,11489.673999999999,completion,,,,,false,,,,590432.200000003,590432,578925.66,578934.799999997,578942.326,590459.444,8,400,,,
trial,html.Screen,4_116_0,2023-09-16T15:53:23.011Z,,0,3,,3603.655999994022,response,ISIC_0032070.JPG,8,ISIC_3856233.JPG,ISIC_0032070.JPG,false,1,keypress(m),500,594063.599999994,594063.099999994,590442.778,590432.299999997,590459.444,594076.862,8,400,17,,ISIC_3856233.JPG
break,html.Screen,4_116_1,2023-09-16T15:53:23.012Z,,0,,,NaN,,,,,,false,,,,594064.8999999911,594064.700000003,,594063.8999999911,,594076.862,8,400,,,
break_continue,html.Screen,4_116_2,2023-09-16T15:53:23.013Z,,0,,,NaN,,,,,,false,,,,594065.299999997,594065.200000003,,594065.099999994,,594076.862,8,400,,,
sequence,flow.Sequence,4_116,2023-09-16T15:53:23.013Z,,0,,,3605.7560000029625,completion,,,,,false,,,,594065.5,594065.200000003,590442.778,590432.299999997,590459.444,594076.862,8,400,,,
trial,html.Screen,4_117_0,2023-09-16T15:53:25.259Z,,0,3,,2234.437999997055,response,ISIC_0064125.JPG,8,ISIC_2614347.JPG,ISIC_0064125.JPG,false,1,keypress(m),500,596311.799999997,596311.299999997,594060.196,594065.700000003,594076.862,596326.772,8,400,18,,ISIC_2614347.JPG
break,html.Screen,4_117_1,2023-09-16T15:53:25.260Z,,0,,,NaN,,,,,,false,,,,596313,596312.700000003,,596312,,596326.772,8,400,,,
break_continue,html.Screen,4_117_2,2023-09-16T15:53:25.261Z,,0,,,NaN,,,,,,false,,,,596313.3999999911,596313.299999997,,596313.099999994,,596326.772,8,400,,,
sequence,flow.Sequence,4_117,2023-09-16T15:53:25.261Z,,0,,,2236.437999997055,completion,,,,,false,,,,596313.5,596313.299999997,594060.196,594065.700000003,594076.862,596326.772,8,400,,,
trial,html.Screen,4_118_0,2023-09-16T15:53:29.791Z,,0,3,,4516.728000000003,response,ISIC_3159924.JPG,7,ISIC_2750230.JPG,ISIC_3159924.JPG,false,1,keypress(m),500,600844,600843.5,596310.106,596313.799999997,596326.772,600859.924,8,400,19,,ISIC_2750230.JPG
break,html.Screen,4_118_1,2023-09-16T15:53:29.792Z,,0,,,NaN,,,,,,false,,,,600845.299999997,600845,,600844.299999997,,600859.924,8,400,,,
break_continue,html.Screen,4_118_2,2023-09-16T15:53:29.793Z,,0,,,NaN,,,,,,false,,,,600845.700000003,600845.599999994,,600845.5,,600859.924,8,400,,,
sequence,flow.Sequence,4_118,2023-09-16T15:53:29.793Z,,0,,,4518.827999994042,completion,,,,,false,,,,600846,600845.599999994,596310.106,596313.700000003,596326.772,600859.924,8,400,,,
trial,html.Screen,4_119_0,2023-09-16T15:53:32.582Z,,0,3,,2774.6759999940405,response,ISIC_8590883.JPG,6,ISIC_9152603.JPG,ISIC_8590883.JPG,false,1,keypress(m),500,603635.099999994,603634.599999994,600843.258,600846.099999994,600859.924,603644.073,8,400,20,,ISIC_9152603.JPG
break,html.Screen,4_119_1,2023-09-16T15:53:32.583Z,,0,,,NaN,,,,,,false,,,,603636.3999999911,603636.099999994,,603635.3999999911,,603644.073,8,400,,,
break_continue,html.Screen,4_119_2,2023-09-16T15:53:32.584Z,,0,,,NaN,,,,,,false,,,,603636.8999999911,603636.700000003,,603636.599999994,,603644.073,8,400,,,
sequence,flow.Sequence,4_119,2023-09-16T15:53:32.584Z,,0,,,2776.776000002981,completion,,,,,false,,,,603637,603636.700000003,600843.258,600846,600859.924,603644.073,8,400,,,
trial,html.Screen,4_120_0,2023-09-16T15:53:37.901Z,,0,3,,5309.726999997045,response,ISIC_0033923.JPG,8,ISIC_0067667.JPG,ISIC_0067667.JPG,false,0,keypress(z),500,608954.299999997,608953.799999997,603627.407,603637.099999994,603644.073,608960.527,8,400,21,,ISIC_0033923.JPG
break,html.Screen,4_120_1,2023-09-16T15:53:37.902Z,,0,,,NaN,,,,,,false,,,,608955.799999997,608955.5,,608954.700000003,,608960.527,8,400,,,
break_continue,html.Screen,4_120_2,2023-09-16T15:53:37.903Z,,0,,,NaN,,,,,,false,,,,608956.200000003,608956,,608955.8999999911,,608960.527,8,400,,,
sequence,flow.Sequence,4_120,2023-09-16T15:53:37.903Z,,0,,,5311.927000000025,completion,,,,,false,,,,608956.3999999911,608956,603627.407,603637.099999994,603644.073,608960.527,8,400,,,
trial,html.Screen,4_121_0,2023-09-16T15:53:40.851Z,,0,3,,2943.972999999998,response,ISIC_3246746.JPG,8,ISIC_0010521.JPG,ISIC_3246746.JPG,false,1,keypress(m),500,611905.099999994,611904.5,608943.861,608956.5,608960.527,611911.301,8,400,22,,ISIC_0010521.JPG
break,html.Screen,4_121_1,2023-09-16T15:53:40.853Z,,0,,,NaN,,,,,,false,,,,611906.299999997,611906.099999994,,611905.299999997,,611911.301,8,400,,,
break_continue,html.Screen,4_121_2,2023-09-16T15:53:40.854Z,,0,,,NaN,,,,,,false,,,,611908.200000003,611906.599999994,,611906.3999999911,,611911.301,8,400,,,
sequence,flow.Sequence,4_121,2023-09-16T15:53:40.855Z,,0,,,2946.0729999940377,completion,,,,,false,,,,611908.299999997,611906.599999994,608943.861,608956.3999999911,608960.527,611911.301,8,400,,,
trial,html.Screen,4_122_0,2023-09-16T15:53:43.740Z,,0,3,,2881.8990000030026,response,ISIC_0027170.JPG,9,ISIC_6970607.JPG,ISIC_6970607.JPG,false,0,keypress(z),500,614793.700000003,614793.200000003,611894.635,611908.5,611911.301,614811.185,8,400,23,,ISIC_0027170.JPG
break,html.Screen,4_122_1,2023-09-16T15:53:43.741Z,,0,,,NaN,,,,,,false,,,,614794.8999999911,614794.700000003,,614794,,614811.185,8,400,,,
break_continue,html.Screen,4_122_2,2023-09-16T15:53:43.742Z,,0,,,NaN,,,,,,false,,,,614795.299999997,614795.200000003,,614795,,614811.185,8,400,,,
sequence,flow.Sequence,4_122,2023-09-16T15:53:43.742Z,,0,,,2883.8990000030026,completion,,,,,false,,,,614795.599999994,614795.200000003,611894.635,611908.3999999911,611911.301,614811.185,8,400,,,
trial,html.Screen,4_123_0,2023-09-16T15:53:46.376Z,,0,3,,2617.814999999944,response,ISIC_9961652.JPG,8,ISIC_0031146.JPG,ISIC_9961652.JPG,false,1,keypress(m),500,617429.5,617429,614794.519,614795.799999997,614811.185,617444.413,8,400,24,,ISIC_0031146.JPG
break,html.Screen,4_123_1,2023-09-16T15:53:46.377Z,,0,,,NaN,,,,,,false,,,,617430.700000003,617430.5,,617429.799999997,,617444.413,8,400,,,
break_continue,html.Screen,4_123_2,2023-09-16T15:53:46.377Z,,0,,,NaN,,,,,,false,,,,617431.299999997,617431.200000003,,617430.8999999911,,617444.413,8,400,,,
sequence,flow.Sequence,4_123,2023-09-16T15:53:46.378Z,,0,,,2620.0150000029244,completion,,,,,false,,,,617431.3999999911,617431.200000003,614794.519,614795.700000003,614811.185,617444.413,8,400,,,
trial,html.Screen,4_124_0,2023-09-16T15:53:51.613Z,,0,3,,5222.087000000058,response,ISIC_0011789.JPG,7,ISIC_0063369.JPG,ISIC_0063369.JPG,false,0,keypress(z),500,622667,622666.5,617427.747,617431.599999994,617444.413,622678.488,8,400,25,,ISIC_0011789.JPG
break,html.Screen,4_124_1,2023-09-16T15:53:51.614Z,,0,,,NaN,,,,,,false,,,,622668.299999997,622668.099999994,,622667.200000003,,622678.488,8,400,,,
break_continue,html.Screen,4_124_2,2023-09-16T15:53:51.615Z,,0,,,NaN,,,,,,false,,,,622668.799999997,622668.599999994,,622668.5,,622678.488,8,400,,,
sequence,flow.Sequence,4_124,2023-09-16T15:53:51.615Z,,0,,,5224.186999994097,completion,,,,,false,,,,622668.8999999911,622668.599999994,617427.747,617431.599999994,617444.413,622678.488,8,400,,,
trial,html.Screen,4_125_0,2023-09-16T15:53:54.340Z,,0,3,,2715.911999991047,response,ISIC_5568525.JPG,7,ISIC_0058040.JPG,ISIC_5568525.JPG,false,1,keypress(m),500,625394.799999997,625394.3999999911,622661.822,622669.099999994,622678.488,625411.712,8,400,26,,ISIC_0058040.JPG
break,html.Screen,4_125_1,2023-09-16T15:53:54.341Z,,0,,,NaN,,,,,,false,,,,625395.799999997,625395.599999994,,625395,,625411.712,8,400,,,
break_continue,html.Screen,4_125_2,2023-09-16T15:53:54.342Z,,0,,,NaN,,,,,,false,,,,625396.099999994,625396,,625395.8999999911,,625411.712,8,400,,,
sequence,flow.Sequence,4_125,2023-09-16T15:53:54.342Z,,0,,,2717.511999999988,completion,,,,,false,,,,625396.200000003,625396,622661.822,622669,622678.488,625411.712,8,400,,,
trial,html.Screen,4_126_0,2023-09-16T15:53:57.067Z,,0,3,,2709.1879999910016,response,ISIC_0070419.JPG,8,ISIC_0028898.JPG,ISIC_0070419.JPG,false,1,keypress(m),500,628121.3999999911,628120.8999999911,625395.046,625396.299999997,625411.712,628128.27,8,400,27,,ISIC_0028898.JPG
break,html.Screen,4_126_1,2023-09-16T15:53:57.068Z,,0,,,NaN,,,,,,false,,,,628122.599999994,628122.3999999911,,628121.700000003,,628128.27,8,400,,,
break_continue,html.Screen,4_126_2,2023-09-16T15:53:57.068Z,,0,,,NaN,,,,,,false,,,,628123,628122.8999999911,,628122.799999997,,628128.27,8,400,,,
sequence,flow.Sequence,4_126,2023-09-16T15:53:57.069Z,,0,,,2711.1879999910016,completion,,,,,false,,,,628123.099999994,628122.8999999911,625395.046,625396.299999997,625411.712,628128.27,8,400,,,
