sender,sender_type,sender_id,timestamp,meta,,blockNo,condition,duration,ended_on,img_left,img_reveal,img_right,loser,practice,response,response_action,selection_duration,time_commit,time_end,time_render,time_run,time_show,time_switch,total_blocks,total_trials,trialNo,url,winner
informed_consent,html.Screen,0,2023-09-12T20:38:20.625Z,"{""labjs_version"":""20.2.4"",""labjs_build"":{""flavor"":""production"",""commit"":""f5b4a49f956347addd546a832a3327688c2c0fef""},""location"":""https://run.pavlovia.org/MurrayBennett/melanoma-2afc/?participant=62014&platform=sona"",""userAgent"":""Mozilla/5.0 (Windows NT 10.0; Win64; x64) AppleWebKit/537.36 (KHTML, like Gecko) Chrome/116.0.0.0 Safari/537.36"",""platform"":""Win32"",""language"":""en-US"",""locale"":""en-US"",""timeZone"":""America/Chicago"",""timezoneOffset"":300,""screen_width"":1536,""screen_height"":864,""scroll_width"":1536,""scroll_height"":691,""window_innerWidth"":1536,""window_innerHeight"":739,""devicePixelRatio"":1.25}",,,,4325.359999904633,response,,,,,,consent,click button,,6410.199999809265,6408.099999904633,2066.166,2074.4000000953674,2082.74,6424.51,,,,"{""participant"":""62014"",""platform"":""sona""}",
Welcome,html.Screen,1,2023-09-12T20:38:24.133Z,,,,colourful,3492.7899997138975,response,,,,,,continue,click button,,9918.400000095367,9917.299999713898,6408.001,6410.5,6424.51,9924.294,,,,,
trial,html.Screen,2_0_0,2023-09-12T20:38:31.224Z,,0,0,,7084.505999713898,response,ISIC_0063388.JPG,,ISIC_0025593.JPG,ISIC_0063388.JPG,true,1,keypress(m),500,17009.099999904633,17008.799999713898,9907.774,9918.599999904633,9924.294,17023.642,1,6,1,,ISIC_0025593.JPG
sequence,flow.Sequence,2_0,2023-09-12T20:38:31.224Z,,0,,,7084.505999713898,completion,,,,,true,,,,17009.5,17008.799999713898,9907.774,9918.599999904633,9924.294,17023.642,1,6,,,
trial,html.Screen,2_1_0,2023-09-12T20:38:36.330Z,,0,0,,5091.057999809265,response,ISIC_0028178.JPG,,ISIC_1309015.JPG,ISIC_1309015.JPG,true,0,keypress(z),500,22115,22114.699999809265,17007.445,17009.599999904633,17023.642,22123.862,1,6,2,,ISIC_0028178.JPG
sequence,flow.Sequence,2_1,2023-09-12T20:38:36.330Z,,0,,,5091.057999809265,completion,,,,,true,,,,22115.199999809265,22114.699999809265,17007.445,17009.599999904633,17023.642,22123.862,1,6,,,
trial,html.Screen,2_2_0,2023-09-12T20:38:45.154Z,,0,0,,8815.538000095366,response,ISIC_3314853.JPG,,ISIC_0031128.JPG,ISIC_0031128.JPG,true,0,keypress(z),500,30939.699999809265,30939.400000095367,22107.726,22115.400000095367,22123.862,30957.122,1,6,3,,ISIC_3314853.JPG
sequence,flow.Sequence,2_2,2023-09-12T20:38:45.155Z,,0,,,8815.538000095366,completion,,,,,true,,,,30940,30939.400000095367,22107.726,22115.299999713898,22123.862,30957.122,1,6,,,
trial,html.Screen,2_3_0,2023-09-12T20:38:50.149Z,,0,0,,4976.378000000001,response,ISIC_8980141.JPG,,ISIC_0031612.JPG,ISIC_0031612.JPG,true,0,keypress(z),500,35934,35933.5,30939.17,30940.199999809265,30957.122,35953.665,1,6,4,,ISIC_8980141.JPG
sequence,flow.Sequence,2_3,2023-09-12T20:38:50.149Z,,0,,,4976.378000000001,completion,,,,,true,,,,35934.40000009537,35933.5,30939.17,30940.099999904633,30957.122,35953.665,1,6,,,
trial,html.Screen,2_4_0,2023-09-12T20:38:54.314Z,,0,0,,4144.934999904632,response,ISIC_1197737.JPG,,ISIC_9721604.JPG,ISIC_9721604.JPG,true,0,keypress(z),500,40098.90000009537,40098.59999990463,35930.543,35934.59999990463,35953.665,40108.008,1,6,5,,ISIC_1197737.JPG
sequence,flow.Sequence,2_4,2023-09-12T20:38:54.314Z,,0,,,4144.934999904632,completion,,,,,true,,,,40099.2999997139,40098.59999990463,35930.543,35934.59999990463,35953.665,40108.008,1,6,,,
trial,html.Screen,2_5_0,2023-09-12T20:38:58.141Z,,0,0,,3817.791999713896,response,ISIC_0010681.JPG,,ISIC_0025346.JPG,ISIC_0010681.JPG,true,1,keypress(m),500,43926.09999990463,43925.7999997139,40091.524,40099.40000009537,40108.008,43938.645,1,6,6,,ISIC_0025346.JPG
sequence,flow.Sequence,2_5,2023-09-12T20:38:58.141Z,,0,,,3817.791999713896,completion,,,,,true,,,,43926.40000009537,43925.7999997139,40091.524,40099.40000009537,40108.008,43938.645,1,6,,,
loop,flow.Loop,2,2023-09-12T20:38:58.141Z,,,,,34001.505999713896,completion,,,,,true,,,,43926.699999809265,43925.7999997139,9907.774,9918.599999904633,9924.294,43938.645,1,6,,,
exp_instructions,html.Screen,3,2023-09-12T20:39:01.996Z,,,,,3841.855000000003,response,,,,,,continue,keypress(Space),,47781.40000009537,47780.5,43922.423,43926.7999997139,43938.645,47799.368,,,,,
trial,html.Screen,4_0_0,2023-09-12T20:39:11.535Z,,0,1,,9520.532000095365,response,ISIC_5438156.JPG,4,ISIC_0009230.JPG,ISIC_0009230.JPG,false,0,keypress(z),500,57320.09999990463,57319.90000009537,47772.519,47781.59999990463,47799.368,57331.197,8,400,1,,ISIC_5438156.JPG
break,html.Screen,4_0_1,2023-09-12T20:39:11.536Z,,0,,,NaN,,,,,,false,,,,57321.09999990463,57320.90000009537,,57320.2999997139,,57331.197,8,400,,,
break_continue,html.Screen,4_0_2,2023-09-12T20:39:11.536Z,,0,,,NaN,,,,,,false,,,,57321.5,57321.40000009537,,57321.2999997139,,57331.197,8,400,,,
sequence,flow.Sequence,4_0,2023-09-12T20:39:11.536Z,,0,,,9522.032000095365,completion,,,,,false,,,,57321.699999809265,57321.40000009537,47772.519,47781.59999990463,47799.368,57331.197,8,400,,,
trial,html.Screen,4_1_0,2023-09-12T20:39:15.827Z,,0,1,,4281.303,response,ISIC_0010500.JPG,5,ISIC_0032928.JPG,ISIC_0010500.JPG,false,1,keypress(m),500,61612.699999809265,61612.5,57315.186,57321.7999997139,57331.197,61619.529,8,400,2,,ISIC_0032928.JPG
break,html.Screen,4_1_1,2023-09-12T20:39:15.828Z,,0,,,NaN,,,,,,false,,,,61613.5,61613.2999997139,,61613,,61619.529,8,400,,,
break_continue,html.Screen,4_1_2,2023-09-12T20:39:15.829Z,,0,,,NaN,,,,,,false,,,,61613.7999997139,61613.699999809265,,61613.59999990463,,61619.529,8,400,,,
sequence,flow.Sequence,4_1,2023-09-12T20:39:15.829Z,,0,,,4282.502999809265,completion,,,,,false,,,,61613.90000009537,61613.699999809265,57315.186,57321.7999997139,57331.197,61619.529,8,400,,,
trial,html.Screen,4_2_0,2023-09-12T20:39:19.593Z,,0,1,,3758.5709999046303,response,ISIC_0034222.JPG,6,ISIC_0026094.JPG,ISIC_0026094.JPG,false,0,keypress(z),500,65378.2999997139,65378.09999990463,61602.197,61614,61619.529,65394.365,8,400,3,,ISIC_0034222.JPG
break,html.Screen,4_2_1,2023-09-12T20:39:19.594Z,,0,,,NaN,,,,,,false,,,,65378.90000009537,65378.7999997139,,65378.40000009537,,65394.365,8,400,,,
break_continue,html.Screen,4_2_2,2023-09-12T20:39:19.594Z,,0,,,NaN,,,,,,false,,,,65379.2999997139,65379.2999997139,,65379.09999990463,,65394.365,8,400,,,
sequence,flow.Sequence,4_2,2023-09-12T20:39:19.594Z,,0,,,3759.7709997138954,completion,,,,,false,,,,65379.5,65379.2999997139,61602.197,61614,61619.529,65394.365,8,400,,,
trial,html.Screen,4_3_0,2023-09-12T20:39:23.970Z,,0,1,,4360.834999809267,response,ISIC_5167209.JPG,6,ISIC_1495793.JPG,ISIC_1495793.JPG,false,0,keypress(Z),500,69755.5,69755.19999980927,65378.327,65379.59999990463,65394.365,69771.557,8,400,4,,ISIC_5167209.JPG
break,html.Screen,4_3_1,2023-09-12T20:39:23.971Z,,0,,,NaN,,,,,,false,,,,69756.19999980927,69756.09999990463,,69755.69999980927,,69771.557,8,400,,,
break_continue,html.Screen,4_3_2,2023-09-12T20:39:23.971Z,,0,,,NaN,,,,,,false,,,,69756.40000009537,69756.40000009537,,69756.2999997139,,69771.557,8,400,,,
sequence,flow.Sequence,4_3,2023-09-12T20:39:23.971Z,,0,,,4362.0350000953695,completion,,,,,false,,,,69756.59999990463,69756.40000009537,65378.327,65379.5,65394.365,69771.557,8,400,,,
trial,html.Screen,4_4_0,2023-09-12T20:39:35.473Z,,0,1,,11518.660999999993,timeout,ISIC_1402840.JPG,6,ISIC_0066740.JPG,,false,,,500,81257.90000009537,81257.59999990463,69753.724,69756.69999980927,69771.557,81290.218,8,400,5,,
break,html.Screen,4_4_1,2023-09-12T20:39:35.473Z,,0,,,NaN,,,,,,false,,,,81258.40000009537,81258.19999980927,,81258.09999990463,,81290.218,8,400,,,
break_continue,html.Screen,4_4_2,2023-09-12T20:39:35.473Z,,0,,,NaN,,,,,,false,,,,81258.69999980927,81258.69999980927,,81258.59999990463,,81290.218,8,400,,,
sequence,flow.Sequence,4_4,2023-09-12T20:39:35.474Z,,0,,,11487.142999809264,completion,,,,,false,,,,81258.90000009537,81258.69999980927,69753.724,69756.69999980927,69771.557,81290.218,8,400,,,
trial,html.Screen,4_5_0,2023-09-12T20:39:45.012Z,,0,1,,9506.581999713904,response,ISIC_0070412.JPG,6,ISIC_0066379.JPG,ISIC_0066379.JPG,false,0,keypress(Z),500,90797,90796.7999997139,81273.529,81259,81290.218,90808.03,8,400,6,,ISIC_0070412.JPG
break,html.Screen,4_5_1,2023-09-12T20:39:45.012Z,,0,,,NaN,,,,,,false,,,,90797.69999980927,90797.5,,90797.19999980927,,90808.03,8,400,,,
break_continue,html.Screen,4_5_2,2023-09-12T20:39:45.013Z,,0,,,NaN,,,,,,false,,,,90798,90797.90000009537,,90797.7999997139,,90808.03,8,400,,,
sequence,flow.Sequence,4_5,2023-09-12T20:39:45.013Z,,0,,,9507.682000095374,completion,,,,,false,,,,90798.09999990463,90797.90000009537,81273.529,81259,81290.218,90808.03,8,400,,,
trial,html.Screen,4_6_0,2023-09-12T20:39:49.286Z,,0,1,,4263.269999713899,response,ISIC_5994286.JPG,4,ISIC_0014428.JPG,ISIC_0014428.JPG,false,0,keypress(Z),500,95071.40000009537,95071.2999997139,90790.775,90798.19999980927,90808.03,95082.981,8,400,7,,ISIC_5994286.JPG
break,html.Screen,4_6_1,2023-09-12T20:39:49.286Z,,0,,,NaN,,,,,,false,,,,95071.69999980927,95071.59999990463,,95071.5,,95082.981,8,400,,,
break_continue,html.Screen,4_6_2,2023-09-12T20:39:49.287Z,,0,,,NaN,,,,,,false,,,,95071.7999997139,95071.7999997139,,95071.7999997139,,95082.981,8,400,,,
sequence,flow.Sequence,4_6,2023-09-12T20:39:49.287Z,,0,,,4263.769999713899,completion,,,,,false,,,,95071.90000009537,95071.7999997139,90790.775,90798.19999980927,90808.03,95082.981,8,400,,,
trial,html.Screen,4_7_0,2023-09-12T20:39:56.057Z,,0,1,,6758.818999713898,response,ISIC_0046615.JPG,6,ISIC_0030122.JPG,ISIC_0046615.JPG,false,1,keypress(m),500,101842,101841.7999997139,95067.112,95072,95082.981,101851.272,8,400,8,,ISIC_0030122.JPG
break,html.Screen,4_7_1,2023-09-12T20:39:56.057Z,,0,,,NaN,,,,,,false,,,,101842.69999980927,101842.5,,101842.19999980927,,101851.272,8,400,,,
break_continue,html.Screen,4_7_2,2023-09-12T20:39:56.058Z,,0,,,NaN,,,,,,false,,,,101843,101842.90000009537,,101842.7999997139,,101851.272,8,400,,,
sequence,flow.Sequence,4_7,2023-09-12T20:39:56.058Z,,0,,,6759.919000095368,completion,,,,,false,,,,101843.09999990463,101842.90000009537,95067.112,95072,95082.981,101851.272,8,400,,,
trial,html.Screen,4_8_0,2023-09-12T20:39:59.164Z,,0,1,,3097.728000000003,response,ISIC_2532039.JPG,5,ISIC_9384835.JPG,ISIC_2532039.JPG,false,1,keypress(m),500,104949.19999980927,104949,101833.377,101843.19999980927,101851.272,104966.278,8,400,9,,ISIC_9384835.JPG
break,html.Screen,4_8_1,2023-09-12T20:39:59.165Z,,0,,,NaN,,,,,,false,,,,104949.90000009537,104949.69999980927,,104949.40000009537,,104966.278,8,400,,,
break_continue,html.Screen,4_8_2,2023-09-12T20:39:59.165Z,,0,,,NaN,,,,,,false,,,,104950.09999990463,104950,,104949.90000009537,,104966.278,8,400,,,
sequence,flow.Sequence,4_8,2023-09-12T20:39:59.165Z,,0,,,3098.728000000003,completion,,,,,false,,,,104950.2999997139,104950,101833.377,101843.09999990463,101851.272,104966.278,8,400,,,
trial,html.Screen,4_9_0,2023-09-12T20:40:02.562Z,,0,1,,3380.4219998092594,response,ISIC_0015631.JPG,5,ISIC_0011695.JPG,ISIC_0011695.JPG,false,0,keypress(z),500,108347,108346.69999980927,104949.563,104950.2999997139,104966.278,108361.784,8,400,10,,ISIC_0015631.JPG
break,html.Screen,4_9_1,2023-09-12T20:40:02.562Z,,0,,,NaN,,,,,,false,,,,108347.59999990463,108347.40000009537,,108347.09999990463,,108361.784,8,400,,,
break_continue,html.Screen,4_9_2,2023-09-12T20:40:02.563Z,,0,,,NaN,,,,,,false,,,,108347.90000009537,108347.69999980927,,108347.59999990463,,108361.784,8,400,,,
sequence,flow.Sequence,4_9,2023-09-12T20:40:02.563Z,,0,,,3381.4219998092594,completion,,,,,false,,,,108347.90000009537,108347.69999980927,104949.563,104950.2999997139,104966.278,108361.784,8,400,,,
trial,html.Screen,4_10_0,2023-09-12T20:40:05.876Z,,0,1,,3299.7160000000003,response,ISIC_0011388.JPG,5,ISIC_0098784.JPG,ISIC_0098784.JPG,false,0,keypress(z),500,111661.69999980927,111661.5,108347.018,108348.09999990463,108361.784,111670.416,8,400,11,,ISIC_0011388.JPG
break,html.Screen,4_10_1,2023-09-12T20:40:05.877Z,,0,,,NaN,,,,,,false,,,,111662.2999997139,111662.19999980927,,111661.90000009537,,111670.416,8,400,,,
break_continue,html.Screen,4_10_2,2023-09-12T20:40:05.877Z,,0,,,NaN,,,,,,false,,,,111662.59999990463,111662.59999990463,,111662.40000009537,,111670.416,8,400,,,
sequence,flow.Sequence,4_10,2023-09-12T20:40:05.877Z,,0,,,3300.815999904633,completion,,,,,false,,,,111662.69999980927,111662.59999990463,108347.018,108348.09999990463,108361.784,111670.416,8,400,,,
trial,html.Screen,4_11_0,2023-09-12T20:40:09.596Z,,0,1,,3711.183999904635,response,ISIC_0231745.JPG,5,ISIC_5108076.JPG,ISIC_0231745.JPG,false,1,keypress(m),500,115381.7999997139,115381.59999990463,111653.644,111662.90000009537,111670.416,115395.101,8,400,12,,ISIC_5108076.JPG
break,html.Screen,4_11_1,2023-09-12T20:40:09.597Z,,0,,,NaN,,,,,,false,,,,115382.40000009537,115382.19999980927,,115381.90000009537,,115395.101,8,400,,,
break_continue,html.Screen,4_11_2,2023-09-12T20:40:09.597Z,,0,,,NaN,,,,,,false,,,,115382.69999980927,115382.69999980927,,115382.59999990463,,115395.101,8,400,,,
sequence,flow.Sequence,4_11,2023-09-12T20:40:09.598Z,,0,,,3712.2839998092677,completion,,,,,false,,,,115382.90000009537,115382.69999980927,111653.644,111662.90000009537,111670.416,115395.101,8,400,,,
trial,html.Screen,4_12_0,2023-09-12T20:40:12.743Z,,0,1,,3132.4989999046375,response,ISIC_0046526.JPG,5,ISIC_2457024.JPG,ISIC_2457024.JPG,false,0,keypress(z),500,118527.90000009537,118527.59999990463,115368.701,115382.90000009537,115395.101,118538.724,8,400,13,,ISIC_0046526.JPG
break,html.Screen,4_12_1,2023-09-12T20:40:12.743Z,,0,,,NaN,,,,,,false,,,,118528.40000009537,118528.2999997139,,118528,,118538.724,8,400,,,
break_continue,html.Screen,4_12_2,2023-09-12T20:40:12.743Z,,0,,,NaN,,,,,,false,,,,118528.7999997139,118528.69999980927,,118528.59999990463,,118538.724,8,400,,,
sequence,flow.Sequence,4_12,2023-09-12T20:40:12.744Z,,0,,,3133.59899980927,completion,,,,,false,,,,118528.7999997139,118528.69999980927,115368.701,115382.90000009537,115395.101,118538.724,8,400,,,
trial,html.Screen,4_13_0,2023-09-12T20:40:15.456Z,,0,1,,2701.8759999046306,response,ISIC_2799447.JPG,6,ISIC_0033512.JPG,ISIC_2799447.JPG,false,1,keypress(m),500,121240.69999980927,121240.59999990463,118513.918,118529,118538.724,121257.489,8,400,14,,ISIC_0033512.JPG
break,html.Screen,4_13_1,2023-09-12T20:40:15.456Z,,0,,,NaN,,,,,,false,,,,121241.40000009537,121241.2999997139,,121241,,121257.489,8,400,,,
break_continue,html.Screen,4_13_2,2023-09-12T20:40:15.457Z,,0,,,NaN,,,,,,false,,,,121241.69999980927,121241.59999990463,,121241.5,,121257.489,8,400,,,
sequence,flow.Sequence,4_13,2023-09-12T20:40:15.457Z,,0,,,2702.8759999046306,completion,,,,,false,,,,121241.7999997139,121241.59999990463,118513.918,118529,118538.724,121257.489,8,400,,,
trial,html.Screen,4_14_0,2023-09-12T20:40:18.163Z,,0,1,,2690.610999904631,response,ISIC_0058206.JPG,5,ISIC_0034263.JPG,ISIC_0058206.JPG,false,1,keypress(m),500,123948.2999997139,123948.09999990463,121225.556,121241.90000009537,121257.489,123958.593,8,400,15,,ISIC_0034263.JPG
break,html.Screen,4_14_1,2023-09-12T20:40:18.164Z,,0,,,NaN,,,,,,false,,,,123948.90000009537,123948.7999997139,,123948.5,,123958.593,8,400,,,
break_continue,html.Screen,4_14_2,2023-09-12T20:40:18.164Z,,0,,,NaN,,,,,,false,,,,123949.19999980927,123949.09999990463,,123949,,123958.593,8,400,,,
sequence,flow.Sequence,4_14,2023-09-12T20:40:18.164Z,,0,,,2691.610999904631,completion,,,,,false,,,,123949.40000009537,123949.09999990463,121225.556,121241.90000009537,121257.489,123958.593,8,400,,,
trial,html.Screen,4_15_0,2023-09-12T20:40:21.181Z,,0,1,,3007.506999904639,response,ISIC_7066723.JPG,5,ISIC_9626777.JPG,ISIC_9626777.JPG,false,0,keypress(z),500,126966.2999997139,126966.09999990463,123941.837,123949.5,123958.593,126983.004,8,400,16,,ISIC_7066723.JPG
break,html.Screen,4_15_1,2023-09-12T20:40:21.182Z,,0,,,NaN,,,,,,false,,,,126967,126966.90000009537,,126966.59999990463,,126983.004,8,400,,,
break_continue,html.Screen,4_15_2,2023-09-12T20:40:21.182Z,,0,,,NaN,,,,,,false,,,,126967.2999997139,126967.2999997139,,126967.09999990463,,126983.004,8,400,,,
sequence,flow.Sequence,4_15,2023-09-12T20:40:21.182Z,,0,,,3008.706999713904,completion,,,,,false,,,,126967.5,126967.2999997139,123941.837,123949.5,123958.593,126983.004,8,400,,,
trial,html.Screen,4_16_0,2023-09-12T20:40:24.016Z,,0,1,,2817.795999713897,response,ISIC_4568084.JPG,5,ISIC_0054651.JPG,ISIC_4568084.JPG,false,1,keypress(m),500,129801,129800.7999997139,126964.504,126967.59999990463,126983.004,129811.243,8,400,17,,ISIC_0054651.JPG
break,html.Screen,4_16_1,2023-09-12T20:40:24.016Z,,0,,,NaN,,,,,,false,,,,129801.59999990463,129801.5,,129801.19999980927,,129811.243,8,400,,,
break_continue,html.Screen,4_16_2,2023-09-12T20:40:24.017Z,,0,,,NaN,,,,,,false,,,,129802,129801.7999997139,,129801.7999997139,,129811.243,8,400,,,
sequence,flow.Sequence,4_16,2023-09-12T20:40:24.017Z,,0,,,2818.795999713897,completion,,,,,false,,,,129802.09999990463,129801.7999997139,126964.504,126967.5,126983.004,129811.243,8,400,,,
trial,html.Screen,4_17_0,2023-09-12T20:40:28.307Z,,0,1,,4281.0569997138955,response,ISIC_7672106.JPG,5,ISIC_0647224.JPG,ISIC_0647224.JPG,false,0,keypress(z),500,134092.5,134092.2999997139,129793.961,129802.09999990463,129811.243,134109.002,8,400,18,,ISIC_7672106.JPG
break,html.Screen,4_17_1,2023-09-12T20:40:28.308Z,,0,,,NaN,,,,,,false,,,,134093,134092.90000009537,,134092.59999990463,,134109.002,8,400,,,
break_continue,html.Screen,4_17_2,2023-09-12T20:40:28.308Z,,0,,,NaN,,,,,,false,,,,134093.40000009537,134093.2999997139,,134093.19999980927,,134109.002,8,400,,,
sequence,flow.Sequence,4_17,2023-09-12T20:40:28.308Z,,0,,,4282.0569997138955,completion,,,,,false,,,,134093.59999990463,134093.2999997139,129793.961,129802.09999990463,129811.243,134109.002,8,400,,,
trial,html.Screen,4_18_0,2023-09-12T20:40:31.497Z,,0,1,,3172.79799971389,response,ISIC_0064073.JPG,6,ISIC_0207349.JPG,ISIC_0207349.JPG,false,0,keypress(z),500,137282,137281.7999997139,134092.823,134093.59999990463,134109.002,137301.087,8,400,19,,ISIC_0064073.JPG
break,html.Screen,4_18_1,2023-09-12T20:40:31.497Z,,0,,,NaN,,,,,,false,,,,137282.59999990463,137282.5,,137282.19999980927,,137301.087,8,400,,,
break_continue,html.Screen,4_18_2,2023-09-12T20:40:31.498Z,,0,,,NaN,,,,,,false,,,,137282.90000009537,137282.90000009537,,137282.69999980927,,137301.087,8,400,,,
sequence,flow.Sequence,4_18,2023-09-12T20:40:31.498Z,,0,,,3173.8980000953597,completion,,,,,false,,,,137283.09999990463,137282.90000009537,134092.823,134093.59999990463,134109.002,137301.087,8,400,,,
trial,html.Screen,4_19_0,2023-09-12T20:40:34.590Z,,0,1,,3074.1129998092656,response,ISIC_0063241.JPG,6,ISIC_6945634.JPG,ISIC_6945634.JPG,false,0,keypress(z),500,140375.40000009537,140375.19999980927,137276.458,137283.09999990463,137301.087,140392.924,8,400,20,,ISIC_0063241.JPG
break,html.Screen,4_19_1,2023-09-12T20:40:34.591Z,,0,,,NaN,,,,,,false,,,,140376,140375.90000009537,,140375.5,,140392.924,8,400,,,
break_continue,html.Screen,4_19_2,2023-09-12T20:40:34.591Z,,0,,,NaN,,,,,,false,,,,140376.2999997139,140376.19999980927,,140376.09999990463,,140392.924,8,400,,,
sequence,flow.Sequence,4_19,2023-09-12T20:40:34.591Z,,0,,,3075.1129998092656,completion,,,,,false,,,,140376.40000009537,140376.19999980927,137276.458,137283.09999990463,137301.087,140392.924,8,400,,,
trial,html.Screen,4_20_0,2023-09-12T20:40:38.050Z,,0,1,,3441.576000000001,response,ISIC_0067205.JPG,5,ISIC_0027306.JPG,ISIC_0067205.JPG,false,1,keypress(m),500,143834.7999997139,143834.5,140374.513,140376.59999990463,140392.924,143853.8,8,400,21,,ISIC_0027306.JPG
break,html.Screen,4_20_1,2023-09-12T20:40:38.050Z,,0,,,NaN,,,,,,false,,,,143835.5,143835.2999997139,,143835,,143853.8,8,400,,,
break_continue,html.Screen,4_20_2,2023-09-12T20:40:38.051Z,,0,,,NaN,,,,,,false,,,,143835.69999980927,143835.59999990463,,143835.59999990463,,143853.8,8,400,,,
sequence,flow.Sequence,4_20,2023-09-12T20:40:38.051Z,,0,,,3442.6759999046335,completion,,,,,false,,,,143835.7999997139,143835.59999990463,140374.513,140376.5,140392.924,143853.8,8,400,,,
trial,html.Screen,4_21_0,2023-09-12T20:40:41.861Z,,0,1,,3791.7000000000116,response,ISIC_4530249.JPG,6,ISIC_0011686.JPG,ISIC_0011686.JPG,false,0,keypress(z),500,147645.69999980927,147645.5,143833.678,143835.90000009537,143853.8,147649.185,8,400,22,,ISIC_4530249.JPG
break,html.Screen,4_21_1,2023-09-12T20:40:41.861Z,,0,,,NaN,,,,,,false,,,,147646.2999997139,147646.19999980927,,147645.90000009537,,147649.185,8,400,,,
break_continue,html.Screen,4_21_2,2023-09-12T20:40:41.861Z,,0,,,NaN,,,,,,false,,,,147646.69999980927,147646.5,,147646.5,,147649.185,8,400,,,
sequence,flow.Sequence,4_21,2023-09-12T20:40:41.862Z,,0,,,3792.7000000000116,completion,,,,,false,,,,147646.90000009537,147646.5,143833.678,143835.90000009537,143853.8,147649.185,8,400,,,
trial,html.Screen,4_22_0,2023-09-12T20:40:44.503Z,,0,1,,2639.1149997139,response,ISIC_6285925.JPG,5,ISIC_0033129.JPG,ISIC_6285925.JPG,false,1,keypress(m),500,150288.5,150288.2999997139,147634.225,147647,147649.185,150307.546,8,400,23,,ISIC_0033129.JPG
break,html.Screen,4_22_1,2023-09-12T20:40:44.504Z,,0,,,NaN,,,,,,false,,,,150289.09999990463,150289,,150288.69999980927,,150307.546,8,400,,,
break_continue,html.Screen,4_22_2,2023-09-12T20:40:44.504Z,,0,,,NaN,,,,,,false,,,,150289.5,150289.2999997139,,150289.2999997139,,150307.546,8,400,,,
sequence,flow.Sequence,4_22,2023-09-12T20:40:44.504Z,,0,,,2640.1149997139,completion,,,,,false,,,,150289.59999990463,150289.2999997139,147634.225,147647,147649.185,150307.546,8,400,,,
trial,html.Screen,4_23_0,2023-09-12T20:40:47.114Z,,0,1,,2591.7539997138956,response,ISIC_4509925.JPG,5,ISIC_3073634.JPG,ISIC_3073634.JPG,false,0,keypress(z),500,152899.5,152899.2999997139,150290.874,150289.69999980927,150307.546,152918.019,8,400,24,,ISIC_4509925.JPG
break,html.Screen,4_23_1,2023-09-12T20:40:47.115Z,,0,,,NaN,,,,,,false,,,,152900.09999990463,152900,,152899.69999980927,,152918.019,8,400,,,
break_continue,html.Screen,4_23_2,2023-09-12T20:40:47.115Z,,0,,,NaN,,,,,,false,,,,152900.40000009537,152900.2999997139,,152900.19999980927,,152918.019,8,400,,,
sequence,flow.Sequence,4_23,2023-09-12T20:40:47.115Z,,0,,,2592.7539997138956,completion,,,,,false,,,,152900.5,152900.2999997139,150290.874,150289.69999980927,150307.546,152918.019,8,400,,,
trial,html.Screen,4_24_0,2023-09-12T20:40:49.901Z,,0,1,,2768.180999809265,response,ISIC_4951035.JPG,5,ISIC_0067458.JPG,ISIC_4951035.JPG,false,1,keypress(m),500,155686.40000009537,155686.19999980927,152897.254,152900.59999990463,152918.019,155695.191,8,400,25,,ISIC_0067458.JPG
break,html.Screen,4_24_1,2023-09-12T20:40:49.902Z,,0,,,NaN,,,,,,false,,,,155687,155686.90000009537,,155686.59999990463,,155695.191,8,400,,,
break_continue,html.Screen,4_24_2,2023-09-12T20:40:49.902Z,,0,,,NaN,,,,,,false,,,,155687.19999980927,155687.09999990463,,155687.09999990463,,155695.191,8,400,,,
sequence,flow.Sequence,4_24,2023-09-12T20:40:49.902Z,,0,,,2769.0809999046323,completion,,,,,false,,,,155687.40000009537,155687.09999990463,152897.254,152900.59999990463,152918.019,155695.191,8,400,,,
trial,html.Screen,4_25_0,2023-09-12T20:40:52.512Z,,0,1,,2602.0089998092735,response,ISIC_0060032.JPG,5,ISIC_0064478.JPG,ISIC_0064478.JPG,false,0,keypress(z),500,158297.40000009537,158297.19999980927,155678.444,155687.5,155695.191,158316.428,8,400,26,,ISIC_0060032.JPG
break,html.Screen,4_25_1,2023-09-12T20:40:52.513Z,,0,,,NaN,,,,,,false,,,,158298,158297.7999997139,,158297.5,,158316.428,8,400,,,
break_continue,html.Screen,4_25_2,2023-09-12T20:40:52.513Z,,0,,,NaN,,,,,,false,,,,158298.19999980927,158298.19999980927,,158298.09999990463,,158316.428,8,400,,,
sequence,flow.Sequence,4_25,2023-09-12T20:40:52.513Z,,0,,,2603.0089998092735,completion,,,,,false,,,,158298.40000009537,158298.19999980927,155678.444,155687.40000009537,155695.191,158316.428,8,400,,,
trial,html.Screen,4_26_0,2023-09-12T20:40:55.142Z,,0,1,,2610.8719997138833,response,ISIC_0064875.JPG,4,ISIC_0054317.JPG,ISIC_0064875.JPG,false,1,keypress(m),500,160927.40000009537,160927.2999997139,158283.513,158298.5,158316.428,160946.033,8,400,27,,ISIC_0054317.JPG
break,html.Screen,4_26_1,2023-09-12T20:40:55.143Z,,0,,,NaN,,,,,,false,,,,160928,160928,,160927.59999990463,,160946.033,8,400,,,
break_continue,html.Screen,4_26_2,2023-09-12T20:40:55.143Z,,0,,,NaN,,,,,,false,,,,160928.2999997139,160928.19999980927,,160928.19999980927,,160946.033,8,400,,,
sequence,flow.Sequence,4_26,2023-09-12T20:40:55.143Z,,0,,,2611.7719998092507,completion,,,,,false,,,,160928.40000009537,160928.19999980927,158283.513,158298.5,158316.428,160946.033,8,400,,,
trial,html.Screen,4_27_0,2023-09-12T20:40:57.900Z,,0,1,,2738.967000000004,response,ISIC_6996553.JPG,5,ISIC_5491641.JPG,ISIC_5491641.JPG,false,0,keypress(z),500,163685.19999980927,163685,160921.171,160928.59999990463,160946.033,163697.144,8,400,28,,ISIC_6996553.JPG
break,html.Screen,4_27_1,2023-09-12T20:40:57.901Z,,0,,,NaN,,,,,,false,,,,163685.7999997139,163685.59999990463,,163685.2999997139,,163697.144,8,400,,,
break_continue,html.Screen,4_27_2,2023-09-12T20:40:57.901Z,,0,,,NaN,,,,,,false,,,,163686.09999990463,163686,,163685.90000009537,,163697.144,8,400,,,
sequence,flow.Sequence,4_27,2023-09-12T20:40:57.901Z,,0,,,2739.967000000004,completion,,,,,false,,,,163686.19999980927,163686,160921.171,160928.5,160946.033,163697.144,8,400,,,
trial,html.Screen,4_28_0,2023-09-12T20:41:01.139Z,,0,1,,3227.055999809265,response,ISIC_0060452.JPG,4,ISIC_0071289.JPG,ISIC_0060452.JPG,false,1,keypress(m),500,166924.40000009537,166924.19999980927,163678.479,163686.2999997139,163697.144,166934.449,8,400,29,,ISIC_0071289.JPG
break,html.Screen,4_28_1,2023-09-12T20:41:01.140Z,,0,,,NaN,,,,,,false,,,,166925,166924.90000009537,,166924.59999990463,,166934.449,8,400,,,
break_continue,html.Screen,4_28_2,2023-09-12T20:41:01.140Z,,0,,,NaN,,,,,,false,,,,166925.2999997139,166925.19999980927,,166925.19999980927,,166934.449,8,400,,,
sequence,flow.Sequence,4_28,2023-09-12T20:41:01.140Z,,0,,,3228.055999809265,completion,,,,,false,,,,166925.5,166925.19999980927,163678.479,163686.2999997139,163697.144,166934.449,8,400,,,
trial,html.Screen,4_29_0,2023-09-12T20:41:03.926Z,,0,1,,2776.3509997139045,response,ISIC_1166522.JPG,4,ISIC_9301005.JPG,ISIC_1166522.JPG,false,1,keypress(m),500,169711.09999990463,169710.7999997139,166916.645,166925.5,166934.449,169717.164,8,400,30,,ISIC_9301005.JPG
break,html.Screen,4_29_1,2023-09-12T20:41:03.926Z,,0,,,NaN,,,,,,false,,,,169711.40000009537,169711.40000009537,,169711.2999997139,,169717.164,8,400,,,
break_continue,html.Screen,4_29_2,2023-09-12T20:41:03.926Z,,0,,,NaN,,,,,,false,,,,169711.59999990463,169711.5,,169711.5,,169717.164,8,400,,,
sequence,flow.Sequence,4_29,2023-09-12T20:41:03.926Z,,0,,,2777.0510000000068,completion,,,,,false,,,,169711.59999990463,169711.5,166916.645,166925.5,166934.449,169717.164,8,400,,,
trial,html.Screen,4_30_0,2023-09-12T20:41:07.015Z,,0,1,,3083.0359998092754,response,ISIC_0069204.JPG,5,ISIC_8094432.JPG,ISIC_8094432.JPG,false,0,keypress(z),500,172800.2999997139,172800.19999980927,169700.923,169711.59999990463,169717.164,172813.355,8,400,31,,ISIC_0069204.JPG
break,html.Screen,4_30_1,2023-09-12T20:41:07.016Z,,0,,,NaN,,,,,,false,,,,172801,172800.7999997139,,172800.59999990463,,172813.355,8,400,,,
break_continue,html.Screen,4_30_2,2023-09-12T20:41:07.016Z,,0,,,NaN,,,,,,false,,,,172801.2999997139,172801.09999990463,,172801,,172813.355,8,400,,,
sequence,flow.Sequence,4_30,2023-09-12T20:41:07.016Z,,0,,,3083.935999904643,completion,,,,,false,,,,172801.40000009537,172801.09999990463,169700.923,169711.59999990463,169717.164,172813.355,8,400,,,
trial,html.Screen,4_31_0,2023-09-12T20:41:11.131Z,,0,1,,4102.545000095357,response,ISIC_7413786.JPG,5,ISIC_4463086.JPG,ISIC_4463086.JPG,false,0,keypress(z),500,176916.19999980927,176915.90000009537,172795.314,172801.5,172813.355,176943.128,8,400,32,,ISIC_7413786.JPG
break,html.Screen,4_31_1,2023-09-12T20:41:11.132Z,,0,,,NaN,,,,,,false,,,,176916.90000009537,176916.69999980927,,176916.2999997139,,176943.128,8,400,,,
break_continue,html.Screen,4_31_2,2023-09-12T20:41:11.132Z,,0,,,NaN,,,,,,false,,,,176917.09999990463,176917.09999990463,,176916.90000009537,,176943.128,8,400,,,
sequence,flow.Sequence,4_31,2023-09-12T20:41:11.132Z,,0,,,4103.744999904622,completion,,,,,false,,,,176917.19999980927,176917.09999990463,172795.314,172801.5,172813.355,176943.128,8,400,,,
trial,html.Screen,4_32_0,2023-09-12T20:41:14.849Z,,0,1,,3690.9719999046356,response,ISIC_3074949.JPG,4,ISIC_3000569.JPG,ISIC_3074949.JPG,false,1,keypress(m),500,180634.2999997139,180634.09999990463,176926.341,176917.40000009537,176943.128,180651.444,8,400,33,,ISIC_3000569.JPG
break,html.Screen,4_32_1,2023-09-12T20:41:14.850Z,,0,,,NaN,,,,,,false,,,,180634.90000009537,180634.7999997139,,180634.5,,180651.444,8,400,,,
break_continue,html.Screen,4_32_2,2023-09-12T20:41:14.850Z,,0,,,NaN,,,,,,false,,,,180635.19999980927,180635.09999990463,,180635,,180651.444,8,400,,,
sequence,flow.Sequence,4_32,2023-09-12T20:41:14.850Z,,0,,,3691.9719999046356,completion,,,,,false,,,,180635.40000009537,180635.09999990463,176926.341,176917.2999997139,176943.128,180651.444,8,400,,,
trial,html.Screen,4_33_0,2023-09-12T20:41:17.428Z,,0,1,,2561.0560000000114,response,ISIC_0025035.JPG,4,ISIC_3019509.JPG,ISIC_0025035.JPG,false,1,keypress(m),500,183212.69999980927,183212.5,180634.233,180635.5,180651.444,183230.666,8,400,34,,ISIC_3019509.JPG
break,html.Screen,4_33_1,2023-09-12T20:41:17.428Z,,0,,,NaN,,,,,,false,,,,183213.2999997139,183213.19999980927,,183212.90000009537,,183230.666,8,400,,,
break_continue,html.Screen,4_33_2,2023-09-12T20:41:17.428Z,,0,,,NaN,,,,,,false,,,,183213.5,183213.5,,183213.40000009537,,183230.666,8,400,,,
sequence,flow.Sequence,4_33,2023-09-12T20:41:17.429Z,,0,,,2562.0560000000114,completion,,,,,false,,,,183213.7999997139,183213.5,180634.233,180635.40000009537,180651.444,183230.666,8,400,,,
trial,html.Screen,4_34_0,2023-09-12T20:41:19.960Z,,0,1,,2514.6339997139003,response,ISIC_3650533.JPG,5,ISIC_0064376.JPG,ISIC_3650533.JPG,false,1,keypress(m),500,185745.5,185745.2999997139,183208.335,183213.90000009537,183230.666,185761.633,8,400,35,,ISIC_0064376.JPG
break,html.Screen,4_34_1,2023-09-12T20:41:19.961Z,,0,,,NaN,,,,,,false,,,,185746.09999990463,185746,,185745.69999980927,,185761.633,8,400,,,
break_continue,html.Screen,4_34_2,2023-09-12T20:41:19.961Z,,0,,,NaN,,,,,,false,,,,185746.40000009537,185746.40000009537,,185746.2999997139,,185761.633,8,400,,,
sequence,flow.Sequence,4_34,2023-09-12T20:41:19.961Z,,0,,,2515.73400009537,completion,,,,,false,,,,185746.59999990463,185746.40000009537,183208.335,183213.90000009537,183230.666,185761.633,8,400,,,
trial,html.Screen,4_35_0,2023-09-12T20:41:22.620Z,,0,1,,2643.0669998092635,response,ISIC_8384985.JPG,6,ISIC_4570724.JPG,ISIC_4570724.JPG,false,0,keypress(z),500,188405,188404.69999980927,185743.742,185746.7999997139,185761.633,188407.358,8,400,36,,ISIC_8384985.JPG
break,html.Screen,4_35_1,2023-09-12T20:41:22.620Z,,0,,,NaN,,,,,,false,,,,188405.59999990463,188405.5,,188405.19999980927,,188407.358,8,400,,,
break_continue,html.Screen,4_35_2,2023-09-12T20:41:22.621Z,,0,,,NaN,,,,,,false,,,,188405.90000009537,188405.7999997139,,188405.69999980927,,188407.358,8,400,,,
sequence,flow.Sequence,4_35,2023-09-12T20:41:22.621Z,,0,,,2644.166999713896,completion,,,,,false,,,,188406,188405.7999997139,185743.742,185746.69999980927,185761.633,188407.358,8,400,,,
trial,html.Screen,4_36_0,2023-09-12T20:41:25.167Z,,0,1,,2545.04200009536,response,ISIC_4814912.JPG,6,ISIC_0010653.JPG,ISIC_4814912.JPG,false,1,keypress(m),500,190952.59999990463,190952.40000009537,188391.526,188406.19999980927,188407.358,190971.515,8,400,37,,ISIC_0010653.JPG
break,html.Screen,4_36_1,2023-09-12T20:41:25.168Z,,0,,,NaN,,,,,,false,,,,190953.19999980927,190953.09999990463,,190952.7999997139,,190971.515,8,400,,,
break_continue,html.Screen,4_36_2,2023-09-12T20:41:25.168Z,,0,,,NaN,,,,,,false,,,,190953.5,190953.40000009537,,190953.2999997139,,190971.515,8,400,,,
sequence,flow.Sequence,4_36,2023-09-12T20:41:25.168Z,,0,,,2546.04200009536,completion,,,,,false,,,,190953.59999990463,190953.40000009537,188391.526,188406.09999990463,188407.358,190971.515,8,400,,,
trial,html.Screen,4_37_0,2023-09-12T20:41:27.747Z,,0,1,,2560.2849997138837,response,ISIC_2415803.JPG,4,ISIC_0062026.JPG,ISIC_2415803.JPG,false,1,keypress(m),500,193532,193531.7999997139,190948.723,190953.69999980927,190971.515,193551.58,8,400,38,,ISIC_0062026.JPG
break,html.Screen,4_37_1,2023-09-12T20:41:27.747Z,,0,,,NaN,,,,,,false,,,,193532.59999990463,193532.5,,193532.19999980927,,193551.58,8,400,,,
break_continue,html.Screen,4_37_2,2023-09-12T20:41:27.748Z,,0,,,NaN,,,,,,false,,,,193533,193532.7999997139,,193532.7999997139,,193551.58,8,400,,,
sequence,flow.Sequence,4_37,2023-09-12T20:41:27.748Z,,0,,,2561.2849997138837,completion,,,,,false,,,,193533,193532.7999997139,190948.723,190953.69999980927,190971.515,193551.58,8,400,,,
trial,html.Screen,4_38_0,2023-09-12T20:41:30.508Z,,0,1,,2741.2199997139105,response,ISIC_9134453.JPG,4,ISIC_3624318.JPG,ISIC_3624318.JPG,false,0,keypress(z),500,196293.09999990463,196292.7999997139,193528.602,193533.19999980927,193551.58,196305.498,8,400,39,,ISIC_9134453.JPG
break,html.Screen,4_38_1,2023-09-12T20:41:30.508Z,,0,,,NaN,,,,,,false,,,,196293.59999990463,196293.5,,196293.19999980927,,196305.498,8,400,,,
break_continue,html.Screen,4_38_2,2023-09-12T20:41:30.509Z,,0,,,NaN,,,,,,false,,,,196294,196293.90000009537,,196293.69999980927,,196305.498,8,400,,,
sequence,flow.Sequence,4_38,2023-09-12T20:41:30.509Z,,0,,,2742.3200000953802,completion,,,,,false,,,,196294,196293.90000009537,193528.602,193533.19999980927,193551.58,196305.498,8,400,,,
trial,html.Screen,4_39_0,2023-09-12T20:41:33.887Z,,0,1,,3366.402000095375,response,ISIC_0010081.JPG,5,ISIC_5659295.JPG,ISIC_5659295.JPG,false,0,keypress(z),500,199672.19999980927,199671.90000009537,196287.639,196294.09999990463,196305.498,199680.926,8,400,40,,ISIC_0010081.JPG
break,html.Screen,4_39_1,2023-09-12T20:41:33.888Z,,0,,,NaN,,,,,,false,,,,199672.7999997139,199672.59999990463,,199672.40000009537,,199680.926,8,400,,,
break_continue,html.Screen,4_39_2,2023-09-12T20:41:33.888Z,,0,,,NaN,,,,,,false,,,,199673.09999990463,199673,,199672.90000009537,,199680.926,8,400,,,
sequence,flow.Sequence,4_39,2023-09-12T20:41:33.888Z,,0,,,3367.5020000000077,completion,,,,,false,,,,199673.19999980927,199673,196287.639,196294.09999990463,196305.498,199680.926,8,400,,,
trial,html.Screen,4_40_0,2023-09-12T20:41:36.853Z,,0,1,,2956.7739998092584,response,ISIC_0069891.JPG,4,ISIC_6954782.JPG,ISIC_0069891.JPG,false,1,keypress(m),500,202637.90000009537,202637.69999980927,199664.487,199673.40000009537,199680.926,202654.88,8,400,41,,ISIC_6954782.JPG
break,html.Screen,4_40_1,2023-09-12T20:41:36.853Z,,0,,,NaN,,,,,,false,,,,202638.5,202638.2999997139,,202638.09999990463,,202654.88,8,400,,,
break_continue,html.Screen,4_40_2,2023-09-12T20:41:36.854Z,,0,,,NaN,,,,,,false,,,,202638.7999997139,202638.69999980927,,202638.59999990463,,202654.88,8,400,,,
sequence,flow.Sequence,4_40,2023-09-12T20:41:36.854Z,,0,,,2957.7739998092584,completion,,,,,false,,,,202639,202638.69999980927,199664.487,199673.40000009537,199680.926,202654.88,8,400,,,
trial,html.Screen,4_41_0,2023-09-12T20:41:40.391Z,,0,1,,3521.520000095363,response,ISIC_0015129.JPG,5,ISIC_0025877.JPG,ISIC_0015129.JPG,false,1,keypress(m),500,206176.69999980927,206176.40000009537,202637.111,202639.09999990463,202654.88,206202.799,8,400,42,,ISIC_0025877.JPG
break,html.Screen,4_41_1,2023-09-12T20:41:40.392Z,,0,,,NaN,,,,,,false,,,,206177.19999980927,206177.09999990463,,206176.90000009537,,206202.799,8,400,,,
break_continue,html.Screen,4_41_2,2023-09-12T20:41:40.392Z,,0,,,NaN,,,,,,false,,,,206177.5,206177.40000009537,,206177.2999997139,,206202.799,8,400,,,
sequence,flow.Sequence,4_41,2023-09-12T20:41:40.392Z,,0,,,3522.520000095363,completion,,,,,false,,,,206177.59999990463,206177.40000009537,202637.111,202639,202654.88,206202.799,8,400,,,
trial,html.Screen,4_42_0,2023-09-12T20:41:44.431Z,,0,1,,4012.8009999046335,response,ISIC_7973601.JPG,5,ISIC_0061562.JPG,ISIC_7973601.JPG,false,1,keypress(m),500,210215.7999997139,210215.59999990463,206186.443,206177.69999980927,206202.799,210234.487,8,400,43,,ISIC_0061562.JPG
break,html.Screen,4_42_1,2023-09-12T20:41:44.431Z,,0,,,NaN,,,,,,false,,,,210216,210216,,210215.7999997139,,210234.487,8,400,,,
break_continue,html.Screen,4_42_2,2023-09-12T20:41:44.431Z,,0,,,NaN,,,,,,false,,,,210216.19999980927,210216.09999990463,,210216.09999990463,,210234.487,8,400,,,
sequence,flow.Sequence,4_42,2023-09-12T20:41:44.431Z,,0,,,4013.3009999046335,completion,,,,,false,,,,210216.19999980927,210216.09999990463,206186.443,206177.69999980927,206202.799,210234.487,8,400,,,
trial,html.Screen,4_43_0,2023-09-12T20:41:47.152Z,,0,1,,2702.312999713904,response,ISIC_0030957.JPG,6,ISIC_0071576.JPG,ISIC_0071576.JPG,false,0,keypress(z),500,212937.09999990463,212936.7999997139,210200.919,210216.2999997139,210234.487,212956.669,8,400,44,,ISIC_0030957.JPG
break,html.Screen,4_43_1,2023-09-12T20:41:47.153Z,,0,,,NaN,,,,,,false,,,,212937.7999997139,212937.59999990463,,212937.2999997139,,212956.669,8,400,,,
break_continue,html.Screen,4_43_2,2023-09-12T20:41:47.153Z,,0,,,NaN,,,,,,false,,,,212938,212937.90000009537,,212937.7999997139,,212956.669,8,400,,,
sequence,flow.Sequence,4_43,2023-09-12T20:41:47.153Z,,0,,,2703.4130000953737,completion,,,,,false,,,,212938.09999990463,212937.90000009537,210200.919,210216.2999997139,210234.487,212956.669,8,400,,,
trial,html.Screen,4_44_0,2023-09-12T20:41:50.131Z,,0,1,,2959.5309998092707,response,ISIC_0010596.JPG,5,ISIC_6052437.JPG,ISIC_6052437.JPG,false,0,keypress(z),500,215916.2999997139,215916.19999980927,212926.796,212938.2999997139,212956.669,215935.246,8,400,45,,ISIC_0010596.JPG
break,html.Screen,4_44_1,2023-09-12T20:41:50.132Z,,0,,,NaN,,,,,,false,,,,215917.09999990463,215916.90000009537,,215916.59999990463,,215935.246,8,400,,,
break_continue,html.Screen,4_44_2,2023-09-12T20:41:50.132Z,,0,,,NaN,,,,,,false,,,,215917.2999997139,215917.19999980927,,215917.09999990463,,215935.246,8,400,,,
sequence,flow.Sequence,4_44,2023-09-12T20:41:50.132Z,,0,,,2960.5309998092707,completion,,,,,false,,,,215917.5,215917.19999980927,212926.796,212938.2999997139,212956.669,215935.246,8,400,,,
trial,html.Screen,4_45_0,2023-09-12T20:41:52.877Z,,0,1,,2726.6540000953537,response,ISIC_0000475.JPG,5,ISIC_0030077.JPG,ISIC_0000475.JPG,false,1,keypress(m),500,218662.09999990463,218661.90000009537,215912.726,215917.59999990463,215935.246,218680.804,8,400,46,,ISIC_0030077.JPG
break,html.Screen,4_45_1,2023-09-12T20:41:52.878Z,,0,,,NaN,,,,,,false,,,,218662.69999980927,218662.5,,218662.2999997139,,218680.804,8,400,,,
break_continue,html.Screen,4_45_2,2023-09-12T20:41:52.878Z,,0,,,NaN,,,,,,false,,,,218663.09999990463,218662.90000009537,,218662.7999997139,,218680.804,8,400,,,
sequence,flow.Sequence,4_45,2023-09-12T20:41:52.878Z,,0,,,2727.6540000953537,completion,,,,,false,,,,218663.19999980927,218662.90000009537,215912.726,215917.5,215935.246,218680.804,8,400,,,
trial,html.Screen,4_46_0,2023-09-12T20:41:56.978Z,,0,1,,4082.0960000953637,response,ISIC_9732721.JPG,5,ISIC_9126343.JPG,ISIC_9126343.JPG,false,0,keypress(z),500,222763.09999990463,222762.90000009537,218649.537,218663.2999997139,218680.804,222773.748,8,400,47,,ISIC_9732721.JPG
break,html.Screen,4_46_1,2023-09-12T20:41:56.979Z,,0,,,NaN,,,,,,false,,,,222763.69999980927,222763.59999990463,,222763.2999997139,,222773.748,8,400,,,
break_continue,html.Screen,4_46_2,2023-09-12T20:41:56.979Z,,0,,,NaN,,,,,,false,,,,222764.09999990463,222764,,222763.7999997139,,222773.748,8,400,,,
sequence,flow.Sequence,4_46,2023-09-12T20:41:56.979Z,,0,,,4083.1959999999963,completion,,,,,false,,,,222764.19999980927,222764,218649.537,218663.19999980927,218680.804,222773.748,8,400,,,
trial,html.Screen,4_47_0,2023-09-12T20:42:00.506Z,,0,1,,3517.3519999046403,response,ISIC_8207162.JPG,5,ISIC_0005655.JPG,ISIC_0005655.JPG,false,0,keypress(z),500,226291.2999997139,226291.09999990463,222755.333,222764.2999997139,222773.748,226296.041,8,400,48,,ISIC_8207162.JPG
break,html.Screen,4_47_1,2023-09-12T20:42:00.507Z,,0,,,NaN,,,,,,false,,,,226292,226291.7999997139,,226291.5,,226296.041,8,400,,,
break_continue,html.Screen,4_47_2,2023-09-12T20:42:00.507Z,,0,,,NaN,,,,,,false,,,,226292.2999997139,226292.19999980927,,226292.09999990463,,226296.041,8,400,,,
sequence,flow.Sequence,4_47,2023-09-12T20:42:00.507Z,,0,,,3518.451999809273,completion,,,,,false,,,,226292.40000009537,226292.19999980927,222755.333,222764.2999997139,222773.748,226296.041,8,400,,,
trial,html.Screen,4_48_0,2023-09-12T20:42:03.235Z,,0,1,,2723.4590000000026,response,ISIC_0034233.JPG,5,ISIC_0033362.JPG,ISIC_0033362.JPG,false,0,keypress(z),500,229019.7999997139,229019.5,226278.473,226292.5,226296.041,229024.309,8,400,49,,ISIC_0034233.JPG
break,html.Screen,4_48_1,2023-09-12T20:42:03.235Z,,0,,,NaN,,,,,,false,,,,229020.40000009537,229020.19999980927,,229019.90000009537,,229024.309,8,400,,,
break_continue,html.Screen,4_48_2,2023-09-12T20:42:03.235Z,,0,,,NaN,,,,,,false,,,,229020.59999990463,229020.59999990463,,229020.40000009537,,229024.309,8,400,,,
sequence,flow.Sequence,4_48,2023-09-12T20:42:03.236Z,,0,,,2724.558999904635,completion,,,,,false,,,,229020.69999980927,229020.59999990463,226278.473,226292.5,226296.041,229024.309,8,400,,,
trial,html.Screen,4_49_0,2023-09-12T20:42:07.051Z,,0,1,,3811.4909997138893,response,ISIC_1097830.JPG,5,ISIC_0061647.JPG,ISIC_1097830.JPG,false,1,keypress(m),500,232836.09999990463,232835.7999997139,229008.05,229020.90000009537,229024.309,232840.813,8,400,50,,ISIC_0061647.JPG
break,html.Screen,4_49_1,2023-09-12T20:42:17.039Z,,0,,,9999.964999999997,timeout,,,,,false,,,,242825.40000009537,242824.35,232824.149,232836.19999980927,232840.813,242840.778,8,400,,,
break_continue,html.Screen,4_49_2,2023-09-12T20:42:18.066Z,,0,,,1005.1220000953763,response,,,,,false,continue,keypress(Space),,243852.2999997139,243845.90000009537,242824.35,242825.5,242840.778,243857.245,8,400,,,
sequence,flow.Sequence,4_49,2023-09-12T20:42:18.066Z,,0,,,14821.591000095359,completion,,,,,false,,,,243852.40000009537,243845.90000009537,229008.05,229020.90000009537,229024.309,243857.245,8,400,,,
trial,html.Screen,4_50_0,2023-09-12T20:42:20.771Z,,0,2,,2699.655000095372,response,ISIC_0010308.JPG,5,ISIC_0009879.JPG,ISIC_0009879.JPG,false,0,keypress(z),500,246557.09999990463,246556.90000009537,243840.694,243852.40000009537,243857.245,246570.942,8,400,1,,ISIC_0010308.JPG
break,html.Screen,4_50_1,2023-09-12T20:42:20.771Z,,0,,,NaN,,,,,,false,,,,246557.2999997139,246557.2999997139,,246557.09999990463,,246570.942,8,400,,,
break_continue,html.Screen,4_50_2,2023-09-12T20:42:20.771Z,,0,,,NaN,,,,,,false,,,,246557.40000009537,246557.40000009537,,246557.2999997139,,246570.942,8,400,,,
sequence,flow.Sequence,4_50,2023-09-12T20:42:20.771Z,,0,,,2700.155000095372,completion,,,,,false,,,,246557.5,246557.40000009537,243840.694,243852.40000009537,243857.245,246570.942,8,400,,,
trial,html.Screen,4_51_0,2023-09-12T20:42:23.593Z,,0,2,,2807.4580000953574,response,ISIC_9197665.JPG,5,ISIC_2394780.JPG,ISIC_2394780.JPG,false,0,keypress(z),500,249378.69999980927,249378.40000009537,246554.295,246557.5,246570.942,249394.749,8,400,2,,ISIC_9197665.JPG
break,html.Screen,4_51_1,2023-09-12T20:42:23.593Z,,0,,,NaN,,,,,,false,,,,249379.40000009537,249379.2999997139,,249378.7999997139,,249394.749,8,400,,,
break_continue,html.Screen,4_51_2,2023-09-12T20:42:23.594Z,,0,,,NaN,,,,,,false,,,,249379.69999980927,249379.59999990463,,249379.5,,249394.749,8,400,,,
sequence,flow.Sequence,4_51,2023-09-12T20:42:23.594Z,,0,,,2808.6579999046226,completion,,,,,false,,,,249379.7999997139,249379.59999990463,246554.295,246557.5,246570.942,249394.749,8,400,,,
trial,html.Screen,4_52_0,2023-09-12T20:42:26.174Z,,0,2,,2564.6510000953567,response,ISIC_3495799.JPG,6,ISIC_4568425.JPG,ISIC_3495799.JPG,false,1,keypress(m),500,251959.59999990463,251959.40000009537,249377.979,249379.90000009537,249394.749,251975.642,8,400,3,,ISIC_4568425.JPG
break,html.Screen,4_52_1,2023-09-12T20:42:26.174Z,,0,,,NaN,,,,,,false,,,,251960.40000009537,251960.19999980927,,251959.90000009537,,251975.642,8,400,,,
break_continue,html.Screen,4_52_2,2023-09-12T20:42:26.175Z,,0,,,NaN,,,,,,false,,,,251961.09999990463,251960.90000009537,,251960.69999980927,,251975.642,8,400,,,
sequence,flow.Sequence,4_52,2023-09-12T20:42:26.175Z,,0,,,2566.1510000953567,completion,,,,,false,,,,251961.5,251960.90000009537,249377.979,249379.90000009537,249394.749,251975.642,8,400,,,
trial,html.Screen,4_53_0,2023-09-12T20:42:28.803Z,,0,2,,2613.45799990464,response,ISIC_5527224.JPG,4,ISIC_4853597.JPG,ISIC_4853597.JPG,false,0,keypress(z),500,254589.40000009537,254589.09999990463,251959.176,251961.69999980927,251975.642,254600.714,8,400,4,,ISIC_5527224.JPG
break,html.Screen,4_53_1,2023-09-12T20:42:28.804Z,,0,,,NaN,,,,,,false,,,,254590,254589.90000009537,,254589.5,,254600.714,8,400,,,
break_continue,html.Screen,4_53_2,2023-09-12T20:42:28.804Z,,0,,,NaN,,,,,,false,,,,254590.40000009537,254590.19999980927,,254590.19999980927,,254600.714,8,400,,,
sequence,flow.Sequence,4_53,2023-09-12T20:42:28.805Z,,0,,,2614.5579998092726,completion,,,,,false,,,,254590.5,254590.19999980927,251959.176,251961.59999990463,251975.642,254600.714,8,400,,,
trial,html.Screen,4_54_0,2023-09-12T20:42:31.207Z,,0,2,,2391.68600009536,response,ISIC_0010873.JPG,5,ISIC_9895436.JPG,ISIC_0010873.JPG,false,1,keypress(m),500,256992.59999990463,256992.40000009537,254583.906,254590.59999990463,254600.714,257000.616,8,400,5,,ISIC_9895436.JPG
break,html.Screen,4_54_1,2023-09-12T20:42:31.207Z,,0,,,NaN,,,,,,false,,,,256993.2999997139,256993.09999990463,,256992.7999997139,,257000.616,8,400,,,
break_continue,html.Screen,4_54_2,2023-09-12T20:42:31.208Z,,0,,,NaN,,,,,,false,,,,256993.59999990463,256993.5,,256993.40000009537,,257000.616,8,400,,,
sequence,flow.Sequence,4_54,2023-09-12T20:42:31.208Z,,0,,,2392.785999999993,completion,,,,,false,,,,256993.7999997139,256993.5,254583.906,254590.59999990463,254600.714,257000.616,8,400,,,
trial,html.Screen,4_55_0,2023-09-12T20:42:33.851Z,,0,2,,2635.7840000953584,response,ISIC_6093728.JPG,6,ISIC_0013365.JPG,ISIC_0013365.JPG,false,0,keypress(z),500,259636.59999990463,259636.40000009537,256992.666,256993.90000009537,257000.616,259655.522,8,400,6,,ISIC_6093728.JPG
break,html.Screen,4_55_1,2023-09-12T20:42:33.851Z,,0,,,NaN,,,,,,false,,,,259637.2999997139,259637.09999990463,,259636.7999997139,,259655.522,8,400,,,
break_continue,html.Screen,4_55_2,2023-09-12T20:42:33.852Z,,0,,,NaN,,,,,,false,,,,259637.59999990463,259637.5,,259637.40000009537,,259655.522,8,400,,,
sequence,flow.Sequence,4_55,2023-09-12T20:42:33.852Z,,0,,,2636.883999999991,completion,,,,,false,,,,259637.69999980927,259637.5,256992.666,256993.7999997139,257000.616,259655.522,8,400,,,
trial,html.Screen,4_56_0,2023-09-12T20:42:37.234Z,,0,2,,3363.87800009537,response,ISIC_0439726.JPG,6,ISIC_0062440.JPG,ISIC_0062440.JPG,false,0,keypress(z),500,263019.59999990463,263019.40000009537,259637.001,259637.7999997139,259655.522,263028.338,8,400,7,,ISIC_0439726.JPG
break,html.Screen,4_56_1,2023-09-12T20:42:37.234Z,,0,,,NaN,,,,,,false,,,,263020.5,263020.2999997139,,263019.90000009537,,263028.338,8,400,,,
break_continue,html.Screen,4_56_2,2023-09-12T20:42:37.235Z,,0,,,NaN,,,,,,false,,,,263020.7999997139,263020.69999980927,,263020.59999990463,,263028.338,8,400,,,
sequence,flow.Sequence,4_56,2023-09-12T20:42:37.235Z,,0,,,3365.177999809268,completion,,,,,false,,,,263021,263020.69999980927,259637.001,259637.7999997139,259655.522,263028.338,8,400,,,
trial,html.Screen,4_57_0,2023-09-12T20:42:40.155Z,,0,2,,2912.162000000011,response,ISIC_9574101.JPG,5,ISIC_0046340.JPG,ISIC_9574101.JPG,false,1,keypress(m),500,265940.69999980927,265940.5,263020.116,263021.19999980927,263028.338,265945.07,8,400,8,,ISIC_0046340.JPG
break,html.Screen,4_57_1,2023-09-12T20:42:40.155Z,,0,,,NaN,,,,,,false,,,,265941.40000009537,265941.19999980927,,265940.90000009537,,265945.07,8,400,,,
break_continue,html.Screen,4_57_2,2023-09-12T20:42:40.156Z,,0,,,NaN,,,,,,false,,,,265941.7999997139,265941.69999980927,,265941.5,,265945.07,8,400,,,
sequence,flow.Sequence,4_57,2023-09-12T20:42:40.156Z,,0,,,2913.3619998092763,completion,,,,,false,,,,265942,265941.69999980927,263020.116,263021.09999990463,263028.338,265945.07,8,400,,,
trial,html.Screen,4_58_0,2023-09-12T20:42:42.846Z,,0,2,,2686.429999999993,response,ISIC_0062241.JPG,5,ISIC_5839679.JPG,ISIC_5839679.JPG,false,0,keypress(z),500,268631.69999980927,268631.5,265928.288,265942.09999990463,265945.07,268642.083,8,400,9,,ISIC_0062241.JPG
break,html.Screen,4_58_1,2023-09-12T20:42:42.846Z,,0,,,NaN,,,,,,false,,,,268632.40000009537,268632.19999980927,,268631.90000009537,,268642.083,8,400,,,
break_continue,html.Screen,4_58_2,2023-09-12T20:42:42.847Z,,0,,,NaN,,,,,,false,,,,268632.69999980927,268632.59999990463,,268632.5,,268642.083,8,400,,,
sequence,flow.Sequence,4_58,2023-09-12T20:42:42.847Z,,0,,,2687.5299999046256,completion,,,,,false,,,,268632.90000009537,268632.59999990463,265928.288,265942,265945.07,268642.083,8,400,,,
trial,html.Screen,4_59_0,2023-09-12T20:42:46.369Z,,0,2,,3512.7169997139135,response,ISIC_0001148.JPG,4,ISIC_0025658.JPG,ISIC_0001148.JPG,false,1,keypress(m),500,272155,272154.7999997139,268626.013,268633,268642.083,272160.976,8,400,10,,ISIC_0025658.JPG
break,html.Screen,4_59_1,2023-09-12T20:42:46.370Z,,0,,,NaN,,,,,,false,,,,272155.59999990463,272155.40000009537,,272155.19999980927,,272160.976,8,400,,,
break_continue,html.Screen,4_59_2,2023-09-12T20:42:46.370Z,,0,,,NaN,,,,,,false,,,,272155.90000009537,272155.7999997139,,272155.69999980927,,272160.976,8,400,,,
sequence,flow.Sequence,4_59,2023-09-12T20:42:46.370Z,,0,,,3513.7169997139135,completion,,,,,false,,,,272156.09999990463,272155.7999997139,268626.013,268632.90000009537,268642.083,272160.976,8,400,,,
trial,html.Screen,4_60_0,2023-09-12T20:42:49.092Z,,0,2,,2717.1239999046084,response,ISIC_0029189.JPG,5,ISIC_2482061.JPG,ISIC_2482061.JPG,false,0,keypress(z),500,274878.40000009537,274878.09999990463,272144.244,272156.2999997139,272160.976,274886.182,8,400,11,,ISIC_0029189.JPG
break,html.Screen,4_60_1,2023-09-12T20:42:49.093Z,,0,,,NaN,,,,,,false,,,,274879,274878.90000009537,,274878.59999990463,,274886.182,8,400,,,
break_continue,html.Screen,4_60_2,2023-09-12T20:42:49.093Z,,0,,,NaN,,,,,,false,,,,274879.19999980927,274879.09999990463,,274879.09999990463,,274886.182,8,400,,,
sequence,flow.Sequence,4_60,2023-09-12T20:42:49.093Z,,0,,,2718.1239999046084,completion,,,,,false,,,,274879.40000009537,274879.09999990463,272144.244,272156.19999980927,272160.976,274886.182,8,400,,,
trial,html.Screen,4_61_0,2023-09-12T20:42:53.486Z,,0,2,,4385.917999904661,response,ISIC_7235371.JPG,5,ISIC_0073119.JPG,ISIC_7235371.JPG,false,1,keypress(m),500,279272.2999997139,279272.09999990463,274877.851,274879.5,274886.182,279286.068,8,400,12,,ISIC_0073119.JPG
break,html.Screen,4_61_1,2023-09-12T20:42:53.487Z,,0,,,NaN,,,,,,false,,,,279273,279272.90000009537,,279272.5,,279286.068,8,400,,,
break_continue,html.Screen,4_61_2,2023-09-12T20:42:53.487Z,,0,,,NaN,,,,,,false,,,,279273.2999997139,279273.2999997139,,279273.19999980927,,279286.068,8,400,,,
sequence,flow.Sequence,4_61,2023-09-12T20:42:53.488Z,,0,,,4387.117999713926,completion,,,,,false,,,,279273.59999990463,279273.2999997139,274877.851,274879.40000009537,274886.182,279286.068,8,400,,,
trial,html.Screen,4_62_0,2023-09-12T20:42:57.476Z,,0,2,,3975.531999904604,response,ISIC_6544382.JPG,5,ISIC_7844825.JPG,ISIC_7844825.JPG,false,0,keypress(z),500,283261.90000009537,283261.59999990463,279269.339,279273.59999990463,279286.068,283280.736,8,400,13,,ISIC_6544382.JPG
break,html.Screen,4_62_1,2023-09-12T20:42:57.477Z,,0,,,NaN,,,,,,false,,,,283262.5,283262.40000009537,,283262,,283280.736,8,400,,,
break_continue,html.Screen,4_62_2,2023-09-12T20:42:57.477Z,,0,,,NaN,,,,,,false,,,,283262.90000009537,283262.69999980927,,283262.69999980927,,283280.736,8,400,,,
sequence,flow.Sequence,4_62,2023-09-12T20:42:57.477Z,,0,,,3976.6319998092367,completion,,,,,false,,,,283263.09999990463,283262.69999980927,279269.339,279273.59999990463,279286.068,283280.736,8,400,,,
trial,html.Screen,4_63_0,2023-09-12T20:43:02.663Z,,0,2,,5167.764000000025,response,ISIC_2384274.JPG,4,ISIC_0024285.JPG,ISIC_2384274.JPG,false,1,keypress(m),500,288448.69999980927,288448.5,283247.128,283263.19999980927,283280.736,288463.399,8,400,14,,ISIC_0024285.JPG
break,html.Screen,4_63_1,2023-09-12T20:43:02.663Z,,0,,,NaN,,,,,,false,,,,288449.40000009537,288449.19999980927,,288448.90000009537,,288463.399,8,400,,,
break_continue,html.Screen,4_63_2,2023-09-12T20:43:02.664Z,,0,,,NaN,,,,,,false,,,,288449.69999980927,288449.5,,288449.40000009537,,288463.399,8,400,,,
sequence,flow.Sequence,4_63,2023-09-12T20:43:02.664Z,,0,,,5168.764000000025,completion,,,,,false,,,,288449.90000009537,288449.5,283247.128,283263.09999990463,283280.736,288463.399,8,400,,,
trial,html.Screen,4_64_0,2023-09-12T20:43:06.060Z,,0,2,,3382.5010000953916,response,ISIC_1883330.JPG,5,ISIC_8615491.JPG,ISIC_1883330.JPG,false,1,keypress(m),500,291846,291845.90000009537,288446.201,288450,288463.399,291858.686,8,400,15,,ISIC_8615491.JPG
break,html.Screen,4_64_1,2023-09-12T20:43:06.061Z,,0,,,NaN,,,,,,false,,,,291846.69999980927,291846.59999990463,,291846.19999980927,,291858.686,8,400,,,
break_continue,html.Screen,4_64_2,2023-09-12T20:43:06.061Z,,0,,,NaN,,,,,,false,,,,291847,291846.90000009537,,291846.7999997139,,291858.686,8,400,,,
sequence,flow.Sequence,4_64,2023-09-12T20:43:06.061Z,,0,,,3383.5010000953916,completion,,,,,false,,,,291847.09999990463,291846.90000009537,288446.201,288450,288463.399,291858.686,8,400,,,
trial,html.Screen,4_65_0,2023-09-12T20:43:08.966Z,,0,2,,2893.2140000953805,response,ISIC_0007749.JPG,5,ISIC_0274382.JPG,ISIC_0007749.JPG,false,1,keypress(m),500,294752.19999980927,294751.90000009537,291841.733,291847.2999997139,291858.686,294766.185,8,400,16,,ISIC_0274382.JPG
break,html.Screen,4_65_1,2023-09-12T20:43:08.967Z,,0,,,NaN,,,,,,false,,,,294752.90000009537,294752.69999980927,,294752.40000009537,,294766.185,8,400,,,
break_continue,html.Screen,4_65_2,2023-09-12T20:43:08.967Z,,0,,,NaN,,,,,,false,,,,294753.19999980927,294753.09999990463,,294753,,294766.185,8,400,,,
sequence,flow.Sequence,4_65,2023-09-12T20:43:08.967Z,,0,,,2894.4139999046456,completion,,,,,false,,,,294753.40000009537,294753.09999990463,291841.733,291847.19999980927,291858.686,294766.185,8,400,,,
trial,html.Screen,4_66_0,2023-09-12T20:43:11.593Z,,0,2,,2612.7150000953698,response,ISIC_0025138.JPG,5,ISIC_5581936.JPG,ISIC_5581936.JPG,false,0,keypress(z),500,297379.09999990463,297378.90000009537,294749.536,294753.5,294766.185,297395.949,8,400,17,,ISIC_0025138.JPG
break,html.Screen,4_66_1,2023-09-12T20:43:11.594Z,,0,,,NaN,,,,,,false,,,,297379.69999980927,297379.59999990463,,297379.19999980927,,297395.949,8,400,,,
break_continue,html.Screen,4_66_2,2023-09-12T20:43:11.594Z,,0,,,NaN,,,,,,false,,,,297380.09999990463,297380,,297379.7999997139,,297395.949,8,400,,,
sequence,flow.Sequence,4_66,2023-09-12T20:43:11.594Z,,0,,,2613.8150000000023,completion,,,,,false,,,,297380.2999997139,297380,294749.536,294753.5,294766.185,297395.949,8,400,,,
trial,html.Screen,4_67_0,2023-09-12T20:43:14.306Z,,0,2,,2696.15099990461,response,ISIC_0000413.JPG,5,ISIC_2479134.JPG,ISIC_2479134.JPG,false,0,keypress(z),500,300092.2999997139,300092.09999990463,297379.039,297380.40000009537,297395.949,300104.078,8,400,18,,ISIC_0000413.JPG
break,html.Screen,4_67_1,2023-09-12T20:43:14.307Z,,0,,,NaN,,,,,,false,,,,300093,300092.7999997139,,300092.5,,300104.078,8,400,,,
break_continue,html.Screen,4_67_2,2023-09-12T20:43:14.307Z,,0,,,NaN,,,,,,false,,,,300093.2999997139,300093.19999980927,,300093.09999990463,,300104.078,8,400,,,
sequence,flow.Sequence,4_67,2023-09-12T20:43:14.307Z,,0,,,2697.250999809243,completion,,,,,false,,,,300093.5,300093.19999980927,297379.039,297380.2999997139,297395.949,300104.078,8,400,,,
trial,html.Screen,4_68_0,2023-09-12T20:43:17.352Z,,0,2,,3033.1219998092856,response,ISIC_1379405.JPG,5,ISIC_8414396.JPG,ISIC_1379405.JPG,false,1,keypress(m),500,303137.5,303137.19999980927,300086.896,300093.59999990463,300104.078,303141.21,8,400,19,,ISIC_8414396.JPG
break,html.Screen,4_68_1,2023-09-12T20:43:17.353Z,,0,,,NaN,,,,,,false,,,,303138.09999990463,303137.90000009537,,303137.69999980927,,303141.21,8,400,,,
break_continue,html.Screen,4_68_2,2023-09-12T20:43:17.353Z,,0,,,NaN,,,,,,false,,,,303138.5,303138.40000009537,,303138.19999980927,,303141.21,8,400,,,
sequence,flow.Sequence,4_68,2023-09-12T20:43:17.353Z,,0,,,3034.322000095388,completion,,,,,false,,,,303138.69999980927,303138.40000009537,300086.896,300093.59999990463,300104.078,303141.21,8,400,,,
trial,html.Screen,4_69_0,2023-09-12T20:43:20.028Z,,0,2,,2672.0899997138768,response,ISIC_0801281.JPG,5,ISIC_0064932.JPG,ISIC_0064932.JPG,false,0,keypress(z),500,305813.5,305813.2999997139,303124.447,303138.7999997139,303141.21,305824.63,8,400,20,,ISIC_0801281.JPG
break,html.Screen,4_69_1,2023-09-12T20:43:20.029Z,,0,,,NaN,,,,,,false,,,,305814.19999980927,305814,,305813.69999980927,,305824.63,8,400,,,
break_continue,html.Screen,4_69_2,2023-09-12T20:43:20.029Z,,0,,,NaN,,,,,,false,,,,305814.5,305814.2999997139,,305814.19999980927,,305824.63,8,400,,,
sequence,flow.Sequence,4_69,2023-09-12T20:43:20.029Z,,0,,,2673.0899997138768,completion,,,,,false,,,,305814.5,305814.2999997139,303124.447,303138.7999997139,303141.21,305824.63,8,400,,,
trial,html.Screen,4_70_0,2023-09-12T20:43:22.706Z,,0,2,,2666.270000095363,response,ISIC_0071951.JPG,5,ISIC_0009882.JPG,ISIC_0009882.JPG,false,0,keypress(z),500,308491.09999990463,308490.90000009537,305807.775,305814.69999980927,305824.63,308507.709,8,400,21,,ISIC_0071951.JPG
break,html.Screen,4_70_1,2023-09-12T20:43:22.707Z,,0,,,NaN,,,,,,false,,,,308491.69999980927,308491.59999990463,,308491.19999980927,,308507.709,8,400,,,
break_continue,html.Screen,4_70_2,2023-09-12T20:43:22.707Z,,0,,,NaN,,,,,,false,,,,308492,308491.90000009537,,308491.7999997139,,308507.709,8,400,,,
sequence,flow.Sequence,4_70,2023-09-12T20:43:22.707Z,,0,,,2667.270000095363,completion,,,,,false,,,,308492.09999990463,308491.90000009537,305807.775,305814.69999980927,305824.63,308507.709,8,400,,,
trial,html.Screen,4_71_0,2023-09-12T20:43:25.189Z,,0,2,,2465.9909998092917,response,ISIC_7168122.JPG,4,ISIC_0010866.JPG,ISIC_7168122.JPG,false,1,keypress(m),500,310974,310973.69999980927,308491.071,308492.2999997139,308507.709,310986.615,8,400,22,,ISIC_0010866.JPG
break,html.Screen,4_71_1,2023-09-12T20:43:25.189Z,,0,,,NaN,,,,,,false,,,,310974.59999990463,310974.5,,310974.09999990463,,310986.615,8,400,,,
break_continue,html.Screen,4_71_2,2023-09-12T20:43:25.190Z,,0,,,NaN,,,,,,false,,,,310975,310974.90000009537,,310974.69999980927,,310986.615,8,400,,,
sequence,flow.Sequence,4_71,2023-09-12T20:43:25.190Z,,0,,,2467.191000095394,completion,,,,,false,,,,310975.09999990463,310974.90000009537,308491.071,308492.19999980927,308507.709,310986.615,8,400,,,
trial,html.Screen,4_72_0,2023-09-12T20:43:27.944Z,,0,2,,2742.484999904642,response,ISIC_0060999.JPG,6,ISIC_3352962.JPG,ISIC_3352962.JPG,false,0,keypress(z),500,313729.40000009537,313729.09999990463,310969.48,310975.2999997139,310986.615,313735.846,8,400,23,,ISIC_0060999.JPG
break,html.Screen,4_72_1,2023-09-12T20:43:27.945Z,,0,,,NaN,,,,,,false,,,,313730,313729.90000009537,,313729.59999990463,,313735.846,8,400,,,
break_continue,html.Screen,4_72_2,2023-09-12T20:43:27.945Z,,0,,,NaN,,,,,,false,,,,313730.40000009537,313730.19999980927,,313730.09999990463,,313735.846,8,400,,,
sequence,flow.Sequence,4_72,2023-09-12T20:43:27.945Z,,0,,,2743.5849998092744,completion,,,,,false,,,,313730.5,313730.19999980927,310969.48,310975.19999980927,310986.615,313735.846,8,400,,,
trial,html.Screen,4_73_0,2023-09-12T20:43:31.035Z,,0,2,,3084.253999904613,response,ISIC_0071857.JPG,4,ISIC_8869929.JPG,ISIC_8869929.JPG,false,0,keypress(z),500,316820.40000009537,316820.09999990463,313727.528,313730.59999990463,313735.846,316839.133,8,400,24,,ISIC_0071857.JPG
break,html.Screen,4_73_1,2023-09-12T20:43:31.036Z,,0,,,NaN,,,,,,false,,,,316821.09999990463,316820.90000009537,,316820.59999990463,,316839.133,8,400,,,
break_continue,html.Screen,4_73_2,2023-09-12T20:43:31.036Z,,0,,,NaN,,,,,,false,,,,316821.2999997139,316821.2999997139,,316821.19999980927,,316839.133,8,400,,,
sequence,flow.Sequence,4_73,2023-09-12T20:43:31.036Z,,0,,,3085.453999713878,completion,,,,,false,,,,316821.5,316821.2999997139,313727.528,313730.5,313735.846,316839.133,8,400,,,
trial,html.Screen,4_74_0,2023-09-12T20:43:33.969Z,,0,2,,2914.96699990466,response,ISIC_7565128.JPG,5,ISIC_4128342.JPG,ISIC_7565128.JPG,false,1,keypress(m),500,319754.19999980927,319754.09999990463,316820.139,316821.69999980927,316839.133,319761.258,8,400,25,,ISIC_4128342.JPG
break,html.Screen,4_74_1,2023-09-12T20:43:33.970Z,,0,,,NaN,,,,,,false,,,,319755,319754.7999997139,,319754.40000009537,,319761.258,8,400,,,
break_continue,html.Screen,4_74_2,2023-09-12T20:43:33.970Z,,0,,,NaN,,,,,,false,,,,319755.2999997139,319755.19999980927,,319755,,319761.258,8,400,,,
sequence,flow.Sequence,4_74,2023-09-12T20:43:33.970Z,,0,,,2916.0669998092926,completion,,,,,false,,,,319755.40000009537,319755.19999980927,316820.139,316821.59999990463,316839.133,319761.258,8,400,,,
trial,html.Screen,4_75_0,2023-09-12T20:43:37.227Z,,0,2,,3250.84199990466,response,ISIC_3913709.JPG,5,ISIC_0679494.JPG,ISIC_3913709.JPG,false,1,keypress(m),500,323012.2999997139,323012.09999990463,319744.516,319755.5,319761.258,323029.039,8,400,26,,ISIC_0679494.JPG
break,html.Screen,4_75_1,2023-09-12T20:43:37.228Z,,0,,,NaN,,,,,,false,,,,323013.09999990463,323012.90000009537,,323012.59999990463,,323029.039,8,400,,,
break_continue,html.Screen,4_75_2,2023-09-12T20:43:37.228Z,,0,,,NaN,,,,,,false,,,,323013.2999997139,323013.2999997139,,323013.19999980927,,323029.039,8,400,,,
sequence,flow.Sequence,4_75,2023-09-12T20:43:37.228Z,,0,,,3252.041999713925,completion,,,,,false,,,,323013.40000009537,323013.2999997139,319744.516,319755.40000009537,319761.258,323029.039,8,400,,,
trial,html.Screen,4_76_0,2023-09-12T20:43:40.287Z,,0,2,,3042.9610000000102,response,ISIC_0067905.JPG,5,ISIC_4853597.JPG,ISIC_4853597.JPG,false,0,keypress(z),500,326072.19999980927,326072,323011.992,323013.59999990463,323029.039,326078.03,8,400,27,,ISIC_0067905.JPG
break,html.Screen,4_76_1,2023-09-12T20:43:40.288Z,,0,,,NaN,,,,,,false,,,,326073,326072.7999997139,,326072.40000009537,,326078.03,8,400,,,
break_continue,html.Screen,4_76_2,2023-09-12T20:43:40.288Z,,0,,,NaN,,,,,,false,,,,326073.2999997139,326073.19999980927,,326073.09999990463,,326078.03,8,400,,,
sequence,flow.Sequence,4_76,2023-09-12T20:43:40.288Z,,0,,,3044.1609998092754,completion,,,,,false,,,,326073.40000009537,326073.19999980927,323011.992,323013.59999990463,323029.039,326078.03,8,400,,,
trial,html.Screen,4_77_0,2023-09-12T20:43:43.144Z,,0,2,,2851.3700000953395,response,ISIC_9972518.JPG,5,ISIC_3251773.JPG,ISIC_9972518.JPG,false,1,keypress(m),500,328929.59999990463,328929.40000009537,326061.458,326073.5,326078.03,328938.169,8,400,28,,ISIC_3251773.JPG
break,html.Screen,4_77_1,2023-09-12T20:43:43.145Z,,0,,,NaN,,,,,,false,,,,328930.2999997139,328930.09999990463,,328929.7999997139,,328938.169,8,400,,,
break_continue,html.Screen,4_77_2,2023-09-12T20:43:43.146Z,,0,,,NaN,,,,,,false,,,,328930.69999980927,328930.59999990463,,328930.40000009537,,328938.169,8,400,,,
sequence,flow.Sequence,4_77,2023-09-12T20:43:43.146Z,,0,,,2852.5699999046046,completion,,,,,false,,,,328930.90000009537,328930.59999990463,326061.458,326073.40000009537,326078.03,328938.169,8,400,,,
trial,html.Screen,4_78_0,2023-09-12T20:43:46.257Z,,0,2,,3103.6309997139033,response,ISIC_4686317.JPG,5,ISIC_0025965.JPG,ISIC_0025965.JPG,false,0,keypress(z),500,332042.09999990463,332041.7999997139,328929.804,328931,328938.169,332045.726,8,400,29,,ISIC_4686317.JPG
break,html.Screen,4_78_1,2023-09-12T20:43:46.258Z,,0,,,NaN,,,,,,false,,,,332042.7999997139,332042.59999990463,,332042.2999997139,,332045.726,8,400,,,
break_continue,html.Screen,4_78_2,2023-09-12T20:43:46.258Z,,0,,,NaN,,,,,,false,,,,332043.09999990463,332043,,332042.90000009537,,332045.726,8,400,,,
sequence,flow.Sequence,4_78,2023-09-12T20:43:46.258Z,,0,,,3104.8310000000056,completion,,,,,false,,,,332043.19999980927,332043,328929.804,328930.90000009537,328938.169,332045.726,8,400,,,
trial,html.Screen,4_79_0,2023-09-12T20:43:50.164Z,,0,2,,3903.174000095343,response,ISIC_1146341.JPG,4,ISIC_0030974.JPG,ISIC_0030974.JPG,false,0,keypress(z),500,335949.09999990463,335948.90000009537,332029.071,332043.40000009537,332045.726,335966.179,8,400,30,,ISIC_1146341.JPG
break,html.Screen,4_79_1,2023-09-12T20:43:50.165Z,,0,,,NaN,,,,,,false,,,,335949.69999980927,335949.59999990463,,335949.2999997139,,335966.179,8,400,,,
break_continue,html.Screen,4_79_2,2023-09-12T20:43:50.165Z,,0,,,NaN,,,,,,false,,,,335950.09999990463,335949.90000009537,,335949.90000009537,,335966.179,8,400,,,
sequence,flow.Sequence,4_79,2023-09-12T20:43:50.165Z,,0,,,3904.174000095343,completion,,,,,false,,,,335950.19999980927,335949.90000009537,332029.071,332043.40000009537,332045.726,335966.179,8,400,,,
trial,html.Screen,4_80_0,2023-09-12T20:43:53.886Z,,0,2,,3704.2210000953637,response,ISIC_0013672.JPG,4,ISIC_4750271.JPG,ISIC_4750271.JPG,false,0,keypress(z),500,339670.7999997139,339670.40000009537,335949.484,335950.2999997139,335966.179,339673.316,8,400,31,,ISIC_0013672.JPG
break,html.Screen,4_80_1,2023-09-12T20:43:53.886Z,,0,,,NaN,,,,,,false,,,,339671.40000009537,339671.2999997139,,339670.90000009537,,339673.316,8,400,,,
break_continue,html.Screen,4_80_2,2023-09-12T20:43:53.887Z,,0,,,NaN,,,,,,false,,,,339671.69999980927,339671.59999990463,,339671.5,,339673.316,8,400,,,
sequence,flow.Sequence,4_80,2023-09-12T20:43:53.887Z,,0,,,3705.420999904629,completion,,,,,false,,,,339671.7999997139,339671.59999990463,335949.484,335950.2999997139,335966.179,339673.316,8,400,,,
trial,html.Screen,4_81_0,2023-09-12T20:43:56.629Z,,0,2,,2740.6840000000084,response,ISIC_0067808.JPG,5,ISIC_9187876.JPG,ISIC_9187876.JPG,false,0,keypress(z),500,342414.19999980927,342414,339656.746,339671.90000009537,339673.316,342433.217,8,400,32,,ISIC_0067808.JPG
break,html.Screen,4_81_1,2023-09-12T20:43:56.630Z,,0,,,NaN,,,,,,false,,,,342414.90000009537,342414.69999980927,,342414.40000009537,,342433.217,8,400,,,
break_continue,html.Screen,4_81_2,2023-09-12T20:43:56.630Z,,0,,,NaN,,,,,,false,,,,342415.19999980927,342415.09999990463,,342415,,342433.217,8,400,,,
sequence,flow.Sequence,4_81,2023-09-12T20:43:56.630Z,,0,,,2741.783999904641,completion,,,,,false,,,,342415.40000009537,342415.09999990463,339656.746,339671.90000009537,339673.316,342433.217,8,400,,,
trial,html.Screen,4_82_0,2023-09-12T20:43:59.451Z,,0,2,,2802.3829999046284,response,ISIC_0234248.JPG,5,ISIC_0069475.JPG,ISIC_0234248.JPG,false,1,keypress(m),500,345235.7999997139,345235.59999990463,342407.162,342415.5,342433.217,345239.048,8,400,33,,ISIC_0069475.JPG
break,html.Screen,4_82_1,2023-09-12T20:43:59.451Z,,0,,,NaN,,,,,,false,,,,345236.5,345236.40000009537,,345236,,345239.048,8,400,,,
break_continue,html.Screen,4_82_2,2023-09-12T20:43:59.452Z,,0,,,NaN,,,,,,false,,,,345236.7999997139,345236.69999980927,,345236.69999980927,,345239.048,8,400,,,
sequence,flow.Sequence,4_82,2023-09-12T20:43:59.452Z,,0,,,2803.482999809261,completion,,,,,false,,,,345236.90000009537,345236.69999980927,342407.162,342415.40000009537,342433.217,345239.048,8,400,,,
trial,html.Screen,4_83_0,2023-09-12T20:44:02.222Z,,0,2,,2768.051999904623,response,ISIC_0011665.JPG,6,ISIC_0911264.JPG,ISIC_0911264.JPG,false,0,keypress(z),500,348007.40000009537,348007.09999990463,345222.364,345237.09999990463,345239.048,348022.386,8,400,34,,ISIC_0011665.JPG
break,html.Screen,4_83_1,2023-09-12T20:44:02.223Z,,0,,,NaN,,,,,,false,,,,348008,348007.7999997139,,348007.59999990463,,348022.386,8,400,,,
break_continue,html.Screen,4_83_2,2023-09-12T20:44:02.223Z,,0,,,NaN,,,,,,false,,,,348008.40000009537,348008.19999980927,,348008.09999990463,,348022.386,8,400,,,
sequence,flow.Sequence,4_83,2023-09-12T20:44:02.223Z,,0,,,2769.1519998092554,completion,,,,,false,,,,348008.59999990463,348008.19999980927,345222.364,345237.09999990463,345239.048,348022.386,8,400,,,
trial,html.Screen,4_84_0,2023-09-12T20:44:04.962Z,,0,2,,2724.213999904634,response,ISIC_0061848.JPG,6,ISIC_0053541.JPG,ISIC_0053541.JPG,false,0,keypress(z),500,350746.7999997139,350746.59999990463,348005.63,348008.59999990463,348022.386,350765.561,8,400,35,,ISIC_0061848.JPG
break,html.Screen,4_84_1,2023-09-12T20:44:04.962Z,,0,,,NaN,,,,,,false,,,,350747.5,350747.2999997139,,350747,,350765.561,8,400,,,
break_continue,html.Screen,4_84_2,2023-09-12T20:44:04.963Z,,0,,,NaN,,,,,,false,,,,350747.7999997139,350747.69999980927,,350747.5,,350765.561,8,400,,,
sequence,flow.Sequence,4_84,2023-09-12T20:44:04.963Z,,0,,,2725.3139998092665,completion,,,,,false,,,,350747.90000009537,350747.69999980927,348005.63,348008.59999990463,348022.386,350765.561,8,400,,,
trial,html.Screen,4_85_0,2023-09-12T20:44:07.787Z,,0,2,,2805.939000000013,response,ISIC_6469202.JPG,6,ISIC_7208412.JPG,ISIC_7208412.JPG,false,0,keypress(z),500,353571.69999980927,353571.5,350736.467,350748.09999990463,350765.561,353587.56,8,400,36,,ISIC_6469202.JPG
break,html.Screen,4_85_1,2023-09-12T20:44:07.787Z,,0,,,NaN,,,,,,false,,,,353572.5,353572.2999997139,,353571.90000009537,,353587.56,8,400,,,
break_continue,html.Screen,4_85_2,2023-09-12T20:44:07.788Z,,0,,,NaN,,,,,,false,,,,353572.90000009537,353572.69999980927,,353572.59999990463,,353587.56,8,400,,,
sequence,flow.Sequence,4_85,2023-09-12T20:44:07.788Z,,0,,,2807.138999809278,completion,,,,,false,,,,353573,353572.69999980927,350736.467,350748,350765.561,353587.56,8,400,,,
trial,html.Screen,4_86_0,2023-09-12T20:44:10.493Z,,0,2,,2690.8400000953698,response,ISIC_9881460.JPG,4,ISIC_0006321.JPG,ISIC_0006321.JPG,false,0,keypress(z),500,356278.59999990463,356278.40000009537,353570.622,353573.09999990463,353587.56,356288.253,8,400,37,,ISIC_9881460.JPG
break,html.Screen,4_86_1,2023-09-12T20:44:10.494Z,,0,,,NaN,,,,,,false,,,,356279.40000009537,356279.19999980927,,356278.90000009537,,356288.253,8,400,,,
break_continue,html.Screen,4_86_2,2023-09-12T20:44:10.494Z,,0,,,NaN,,,,,,false,,,,356279.69999980927,356279.5,,356279.5,,356288.253,8,400,,,
sequence,flow.Sequence,4_86,2023-09-12T20:44:10.495Z,,0,,,2691.9400000000023,completion,,,,,false,,,,356279.7999997139,356279.5,353570.622,353573.09999990463,353587.56,356288.253,8,400,,,
trial,html.Screen,4_87_0,2023-09-12T20:44:13.441Z,,0,2,,2937.946999809239,response,ISIC_4568425.JPG,6,ISIC_0026394.JPG,ISIC_0026394.JPG,false,0,keypress(z),500,359226.5,359226.19999980927,356271.447,356279.90000009537,356288.253,359246.285,8,400,38,,ISIC_4568425.JPG
break,html.Screen,4_87_1,2023-09-12T20:44:13.442Z,,0,,,NaN,,,,,,false,,,,359227.19999980927,359227,,359226.69999980927,,359246.285,8,400,,,
break_continue,html.Screen,4_87_2,2023-09-12T20:44:13.442Z,,0,,,NaN,,,,,,false,,,,359227.40000009537,359227.2999997139,,359227.19999980927,,359246.285,8,400,,,
sequence,flow.Sequence,4_87,2023-09-12T20:44:13.442Z,,0,,,2939.0469997138716,completion,,,,,false,,,,359227.5,359227.2999997139,356271.447,356279.90000009537,356288.253,359246.285,8,400,,,
trial,html.Screen,4_88_0,2023-09-12T20:44:16.196Z,,0,2,,2735.115000095393,response,ISIC_2922104.JPG,4,ISIC_0011501.JPG,ISIC_2922104.JPG,false,1,keypress(m),500,361981.59999990463,361981.40000009537,359220.057,359227.59999990463,359246.285,361990.753,8,400,39,,ISIC_0011501.JPG
break,html.Screen,4_88_1,2023-09-12T20:44:16.197Z,,0,,,NaN,,,,,,false,,,,361982.2999997139,361982.19999980927,,361981.7999997139,,361990.753,8,400,,,
break_continue,html.Screen,4_88_2,2023-09-12T20:44:16.197Z,,0,,,NaN,,,,,,false,,,,361982.59999990463,361982.5,,361982.40000009537,,361990.753,8,400,,,
sequence,flow.Sequence,4_88,2023-09-12T20:44:16.198Z,,0,,,2736.2150000000256,completion,,,,,false,,,,361982.69999980927,361982.5,359220.057,359227.59999990463,359246.285,361990.753,8,400,,,
trial,html.Screen,4_89_0,2023-09-12T20:44:18.983Z,,0,2,,2777.6470000953414,response,ISIC_0033812.JPG,5,ISIC_1638357.JPG,ISIC_1638357.JPG,false,0,keypress(z),500,364768.59999990463,364768.40000009537,361973.992,361982.90000009537,361990.753,364788.41,8,400,40,,ISIC_0033812.JPG
break,html.Screen,4_89_1,2023-09-12T20:44:18.984Z,,0,,,NaN,,,,,,false,,,,364769.2999997139,364769.09999990463,,364768.7999997139,,364788.41,8,400,,,
break_continue,html.Screen,4_89_2,2023-09-12T20:44:18.984Z,,0,,,NaN,,,,,,false,,,,364769.59999990463,364769.5,,364769.40000009537,,364788.41,8,400,,,
sequence,flow.Sequence,4_89,2023-09-12T20:44:18.985Z,,0,,,2778.746999999974,completion,,,,,false,,,,364769.90000009537,364769.5,361973.992,361982.7999997139,361990.753,364788.41,8,400,,,
trial,html.Screen,4_90_0,2023-09-12T20:44:21.850Z,,0,2,,2846.8899997139233,response,ISIC_7677876.JPG,5,ISIC_0030663.JPG,ISIC_0030663.JPG,false,0,keypress(z),500,367635.5,367635.2999997139,364753.901,364769.90000009537,364788.41,367647.073,8,400,41,,ISIC_7677876.JPG
break,html.Screen,4_90_1,2023-09-12T20:44:21.851Z,,0,,,NaN,,,,,,false,,,,367636.19999980927,367636,,367635.69999980927,,367647.073,8,400,,,
break_continue,html.Screen,4_90_2,2023-09-12T20:44:21.851Z,,0,,,NaN,,,,,,false,,,,367636.5,367636.40000009537,,367636.2999997139,,367647.073,8,400,,,
sequence,flow.Sequence,4_90,2023-09-12T20:44:21.851Z,,0,,,2847.990000095393,completion,,,,,false,,,,367636.59999990463,367636.40000009537,364753.901,364769.90000009537,364788.41,367647.073,8,400,,,
trial,html.Screen,4_91_0,2023-09-12T20:44:26.909Z,,0,2,,5047.12699980929,response,ISIC_0012810.JPG,5,ISIC_4114269.JPG,ISIC_4114269.JPG,false,0,keypress(z),500,372694.40000009537,372694.19999980927,367630.383,367636.69999980927,367647.073,372709.648,8,400,42,,ISIC_0012810.JPG
break,html.Screen,4_91_1,2023-09-12T20:44:26.910Z,,0,,,NaN,,,,,,false,,,,372695.09999990463,372694.90000009537,,372694.59999990463,,372709.648,8,400,,,
break_continue,html.Screen,4_91_2,2023-09-12T20:44:26.910Z,,0,,,NaN,,,,,,false,,,,372695.40000009537,372695.19999980927,,372695.19999980927,,372709.648,8,400,,,
sequence,flow.Sequence,4_91,2023-09-12T20:44:26.910Z,,0,,,5048.12699980929,completion,,,,,false,,,,372695.5,372695.19999980927,367630.383,367636.69999980927,367647.073,372709.648,8,400,,,
trial,html.Screen,4_92_0,2023-09-12T20:44:30.086Z,,0,2,,3161.252000095381,response,ISIC_0654846.JPG,6,ISIC_8635889.JPG,ISIC_0654846.JPG,false,1,keypress(m),500,375871.09999990463,375870.90000009537,372693.161,372695.59999990463,372709.648,375886.737,8,400,43,,ISIC_8635889.JPG
break,html.Screen,4_92_1,2023-09-12T20:44:30.087Z,,0,,,NaN,,,,,,false,,,,375871.7999997139,375871.59999990463,,375871.2999997139,,375886.737,8,400,,,
break_continue,html.Screen,4_92_2,2023-09-12T20:44:30.087Z,,0,,,NaN,,,,,,false,,,,375872.09999990463,375872,,375871.90000009537,,375886.737,8,400,,,
sequence,flow.Sequence,4_92,2023-09-12T20:44:30.087Z,,0,,,3162.3520000000135,completion,,,,,false,,,,375872.2999997139,375872,372693.161,372695.5,372709.648,375886.737,8,400,,,
trial,html.Screen,4_93_0,2023-09-12T20:44:32.841Z,,0,2,,2739.6630000953446,response,ISIC_6882080.JPG,4,ISIC_0033756.JPG,ISIC_0033756.JPG,false,0,keypress(z),500,378626.59999990463,378626.40000009537,375869.677,375872.40000009537,375886.737,378638.55,8,400,44,,ISIC_6882080.JPG
break,html.Screen,4_93_1,2023-09-12T20:44:32.842Z,,0,,,NaN,,,,,,false,,,,378627.2999997139,378627.09999990463,,378626.7999997139,,378638.55,8,400,,,
break_continue,html.Screen,4_93_2,2023-09-12T20:44:32.842Z,,0,,,NaN,,,,,,false,,,,378627.5,378627.40000009537,,378627.40000009537,,378638.55,8,400,,,
sequence,flow.Sequence,4_93,2023-09-12T20:44:32.842Z,,0,,,2740.6630000953446,completion,,,,,false,,,,378627.59999990463,378627.40000009537,375869.677,375872.2999997139,375886.737,378638.55,8,400,,,
trial,html.Screen,4_94_0,2023-09-12T20:44:35.439Z,,0,2,,2585.7499997139093,response,ISIC_3770380.JPG,6,ISIC_3069695.JPG,ISIC_3770380.JPG,false,1,keypress(m),500,381224.69999980927,381224.2999997139,378621.644,378627.69999980927,378638.55,381237.657,8,400,45,,ISIC_3069695.JPG
break,html.Screen,4_94_1,2023-09-12T20:44:35.440Z,,0,,,NaN,,,,,,false,,,,381225.59999990463,381225.40000009537,,381224.90000009537,,381237.657,8,400,,,
break_continue,html.Screen,4_94_2,2023-09-12T20:44:35.441Z,,0,,,NaN,,,,,,false,,,,381225.90000009537,381225.7999997139,,381225.69999980927,,381237.657,8,400,,,
sequence,flow.Sequence,4_94,2023-09-12T20:44:35.441Z,,0,,,2587.2499997139093,completion,,,,,false,,,,381226,381225.7999997139,378621.644,378627.69999980927,378638.55,381237.657,8,400,,,
trial,html.Screen,4_95_0,2023-09-12T20:44:38.082Z,,0,2,,2629.642999713891,response,ISIC_7025208.JPG,5,ISIC_0062734.JPG,ISIC_7025208.JPG,false,1,keypress(m),500,383867.5,383867.2999997139,381220.939,381226.09999990463,381237.657,383869.683,8,400,46,,ISIC_0062734.JPG
break,html.Screen,4_95_1,2023-09-12T20:44:38.083Z,,0,,,NaN,,,,,,false,,,,383868.09999990463,383868,,383867.69999980927,,383869.683,8,400,,,
break_continue,html.Screen,4_95_2,2023-09-12T20:44:38.083Z,,0,,,NaN,,,,,,false,,,,383868.5,383868.2999997139,,383868.19999980927,,383869.683,8,400,,,
sequence,flow.Sequence,4_95,2023-09-12T20:44:38.083Z,,0,,,2630.642999713891,completion,,,,,false,,,,383868.59999990463,383868.2999997139,381220.939,381226,381237.657,383869.683,8,400,,,
trial,html.Screen,4_96_0,2023-09-12T20:44:40.646Z,,0,2,,2560.9169999046135,response,ISIC_6062536.JPG,4,ISIC_5360921.JPG,ISIC_5360921.JPG,false,0,keypress(z),500,386430.69999980927,386430.59999990463,383853.176,383868.69999980927,383869.683,386449.08,8,400,47,,ISIC_6062536.JPG
break,html.Screen,4_96_1,2023-09-12T20:44:40.646Z,,0,,,NaN,,,,,,false,,,,386431.19999980927,386431,,386430.7999997139,,386449.08,8,400,,,
break_continue,html.Screen,4_96_2,2023-09-12T20:44:40.646Z,,0,,,NaN,,,,,,false,,,,386431.2999997139,386431.19999980927,,386431.19999980927,,386449.08,8,400,,,
sequence,flow.Sequence,4_96,2023-09-12T20:44:40.646Z,,0,,,2561.516999809246,completion,,,,,false,,,,386431.40000009537,386431.19999980927,383853.176,383868.69999980927,383869.683,386449.08,8,400,,,
trial,html.Screen,4_97_0,2023-09-12T20:44:43.304Z,,0,2,,2639.7199997138814,response,ISIC_0030435.JPG,4,ISIC_0034311.JPG,ISIC_0030435.JPG,false,1,keypress(m),500,389089,389088.7999997139,386431.248,386431.5,386449.08,389095.74,8,400,48,,ISIC_0034311.JPG
break,html.Screen,4_97_1,2023-09-12T20:44:43.305Z,,0,,,NaN,,,,,,false,,,,389089.69999980927,389089.59999990463,,389089.19999980927,,389095.74,8,400,,,
break_continue,html.Screen,4_97_2,2023-09-12T20:44:43.305Z,,0,,,NaN,,,,,,false,,,,389090.09999990463,389090,,389089.7999997139,,389095.74,8,400,,,
sequence,flow.Sequence,4_97,2023-09-12T20:44:43.305Z,,0,,,2640.9199999999837,completion,,,,,false,,,,389090.19999980927,389090,386431.248,386431.40000009537,386449.08,389095.74,8,400,,,
trial,html.Screen,4_98_0,2023-09-12T20:44:46.129Z,,0,2,,2817.859999904642,response,ISIC_4093484.JPG,4,ISIC_6855540.JPG,ISIC_6855540.JPG,false,0,keypress(z),500,391913.90000009537,391913.59999990463,389079.141,389090.2999997139,389095.74,391922.039,8,400,49,,ISIC_4093484.JPG
break,html.Screen,4_98_1,2023-09-12T20:44:46.129Z,,0,,,NaN,,,,,,false,,,,391914.59999990463,391914.40000009537,,391914.09999990463,,391922.039,8,400,,,
break_continue,html.Screen,4_98_2,2023-09-12T20:44:46.130Z,,0,,,NaN,,,,,,false,,,,391914.90000009537,391914.7999997139,,391914.69999980927,,391922.039,8,400,,,
sequence,flow.Sequence,4_98,2023-09-12T20:44:46.130Z,,0,,,2819.059999713907,completion,,,,,false,,,,391915.09999990463,391914.7999997139,389079.141,389090.19999980927,389095.74,391922.039,8,400,,,
trial,html.Screen,4_99_0,2023-09-12T20:44:49.290Z,,0,2,,3152.560999904643,response,ISIC_0055169.JPG,5,ISIC_0010934.JPG,ISIC_0010934.JPG,false,0,keypress(z),500,395074.69999980927,395074.59999990463,391913.559,391915.09999990463,391922.039,395090.243,8,400,50,,ISIC_0055169.JPG
break,html.Screen,4_99_1,2023-09-12T20:44:59.289Z,,0,,,9999.657000000007,timeout,,,,,false,,,,405074.40000009537,405073.554,395073.58,395075,395090.243,405089.9,8,400,,,
break_continue,html.Screen,4_99_2,2023-09-12T20:45:00.055Z,,0,,,743.5999999999767,response,,,,,false,continue,keypress(Space),,405840.09999990463,405833.5,405073.554,405074.59999990463,405089.9,405849.434,8,400,,,
sequence,flow.Sequence,4_99,2023-09-12T20:45:00.055Z,,0,,,13911.46100000001,completion,,,,,false,,,,405840.19999980927,405833.5,391913.559,391915.09999990463,391922.039,405849.434,8,400,,,
trial,html.Screen,4_100_0,2023-09-12T20:45:10.792Z,,0,3,,10727.36599971389,response,ISIC_5791954.JPG,6,ISIC_8027899.JPG,ISIC_5791954.JPG,false,1,keypress(m),500,416577,416576.7999997139,405839.77,405840.19999980927,405849.434,416591.33,8,400,1,,ISIC_8027899.JPG
break,html.Screen,4_100_1,2023-09-12T20:45:10.792Z,,0,,,NaN,,,,,,false,,,,416577.69999980927,416577.5,,416577.19999980927,,416591.33,8,400,,,
break_continue,html.Screen,4_100_2,2023-09-12T20:45:10.793Z,,0,,,NaN,,,,,,false,,,,416577.90000009537,416577.7999997139,,416577.7999997139,,416591.33,8,400,,,
sequence,flow.Sequence,4_100,2023-09-12T20:45:10.793Z,,0,,,10728.36599971389,completion,,,,,false,,,,416578.09999990463,416577.7999997139,405839.77,405840.19999980927,405849.434,416591.33,8,400,,,
trial,html.Screen,4_101_0,2023-09-12T20:45:14.539Z,,0,3,,3732.4699997138814,response,ISIC_6228963.JPG,5,ISIC_9562442.JPG,ISIC_9562442.JPG,false,0,keypress(z),500,420324,420323.7999997139,416574.677,416578.19999980927,416591.33,420342.999,8,400,2,,ISIC_6228963.JPG
break,html.Screen,4_101_1,2023-09-12T20:45:14.539Z,,0,,,NaN,,,,,,false,,,,420324.69999980927,420324.5,,420324.19999980927,,420342.999,8,400,,,
break_continue,html.Screen,4_101_2,2023-09-12T20:45:14.540Z,,0,,,NaN,,,,,,false,,,,420325,420324.7999997139,,420324.69999980927,,420342.999,8,400,,,
sequence,flow.Sequence,4_101,2023-09-12T20:45:14.540Z,,0,,,3733.4699997138814,completion,,,,,false,,,,420325.09999990463,420324.7999997139,416574.677,416578.19999980927,416591.33,420342.999,8,400,,,
trial,html.Screen,4_102_0,2023-09-12T20:45:17.456Z,,0,3,,2898.300999713887,response,ISIC_0028489.JPG,4,ISIC_3273370.JPG,ISIC_3273370.JPG,false,0,keypress(z),500,423241.5,423241.2999997139,420309.008,420325.09999990463,420342.999,423248.167,8,400,3,,ISIC_0028489.JPG
break,html.Screen,4_102_1,2023-09-12T20:45:17.457Z,,0,,,NaN,,,,,,false,,,,423242.19999980927,423242,,423241.69999980927,,423248.167,8,400,,,
break_continue,html.Screen,4_102_2,2023-09-12T20:45:17.457Z,,0,,,NaN,,,,,,false,,,,423242.40000009537,423242.40000009537,,423242.2999997139,,423248.167,8,400,,,
sequence,flow.Sequence,4_102,2023-09-12T20:45:17.457Z,,0,,,2899.4010000953567,completion,,,,,false,,,,423242.59999990463,423242.40000009537,420309.008,420325.09999990463,420342.999,423248.167,8,400,,,
trial,html.Screen,4_103_0,2023-09-12T20:45:20.775Z,,0,3,,3311.7330000953516,response,ISIC_0222299.JPG,4,ISIC_0003664.JPG,ISIC_0003664.JPG,false,0,keypress(z),500,426560.19999980927,426559.90000009537,423231.58,423242.69999980927,423248.167,426576.283,8,400,4,,ISIC_0222299.JPG
break,html.Screen,4_103_1,2023-09-12T20:45:20.776Z,,0,,,NaN,,,,,,false,,,,426560.7999997139,426560.59999990463,,426560.40000009537,,426576.283,8,400,,,
break_continue,html.Screen,4_103_2,2023-09-12T20:45:20.776Z,,0,,,NaN,,,,,,false,,,,426561.09999990463,426561,,426561,,426576.283,8,400,,,
sequence,flow.Sequence,4_103,2023-09-12T20:45:20.776Z,,0,,,3312.832999999984,completion,,,,,false,,,,426561.2999997139,426561,423231.58,423242.69999980927,423248.167,426576.283,8,400,,,
trial,html.Screen,4_104_0,2023-09-12T20:45:23.785Z,,0,3,,2994.016999713902,response,ISIC_0030435.JPG,4,ISIC_2679689.JPG,ISIC_0030435.JPG,false,1,keypress(m),500,429570.5,429570.2999997139,426559.61,426561.40000009537,426576.283,429583.97,8,400,5,,ISIC_2679689.JPG
break,html.Screen,4_104_1,2023-09-12T20:45:23.786Z,,0,,,NaN,,,,,,false,,,,429571.19999980927,429571,,429570.59999990463,,429583.97,8,400,,,
break_continue,html.Screen,4_104_2,2023-09-12T20:45:23.786Z,,0,,,NaN,,,,,,false,,,,429571.5,429571.2999997139,,429571.2999997139,,429583.97,8,400,,,
sequence,flow.Sequence,4_104,2023-09-12T20:45:23.786Z,,0,,,2995.016999713902,completion,,,,,false,,,,429571.59999990463,429571.2999997139,426559.61,426561.40000009537,426576.283,429583.97,8,400,,,
trial,html.Screen,4_105_0,2023-09-12T20:45:26.668Z,,0,3,,2869.1299999046605,response,ISIC_2376758.JPG,5,ISIC_0028755.JPG,ISIC_2376758.JPG,false,1,keypress(m),500,432453.2999997139,432453.09999990463,429567.195,429571.7999997139,429583.97,432467.188,8,400,6,,ISIC_0028755.JPG
break,html.Screen,4_105_1,2023-09-12T20:45:26.669Z,,0,,,NaN,,,,,,false,,,,432454,432453.7999997139,,432453.5,,432467.188,8,400,,,
break_continue,html.Screen,4_105_2,2023-09-12T20:45:26.669Z,,0,,,NaN,,,,,,false,,,,432454.2999997139,432454.19999980927,,432454.09999990463,,432467.188,8,400,,,
sequence,flow.Sequence,4_105,2023-09-12T20:45:26.669Z,,0,,,2870.229999809293,completion,,,,,false,,,,432454.40000009537,432454.19999980927,429567.195,429571.59999990463,429583.97,432467.188,8,400,,,
trial,html.Screen,4_106_0,2023-09-12T20:45:29.535Z,,0,3,,2852.5119998092414,response,ISIC_0065200.JPG,5,ISIC_1979534.JPG,ISIC_0065200.JPG,false,1,keypress(m),500,435319.90000009537,435319.69999980927,432450.382,432454.5,432467.188,435325.306,8,400,7,,ISIC_1979534.JPG
break,html.Screen,4_106_1,2023-09-12T20:45:29.535Z,,0,,,NaN,,,,,,false,,,,435320.59999990463,435320.5,,435320.09999990463,,435325.306,8,400,,,
break_continue,html.Screen,4_106_2,2023-09-12T20:45:29.536Z,,0,,,NaN,,,,,,false,,,,435320.90000009537,435320.7999997139,,435320.7999997139,,435325.306,8,400,,,
sequence,flow.Sequence,4_106,2023-09-12T20:45:29.536Z,,0,,,2853.611999713874,completion,,,,,false,,,,435321,435320.7999997139,432450.382,432454.5,432467.188,435325.306,8,400,,,
trial,html.Screen,4_107_0,2023-09-12T20:45:32.392Z,,0,3,,2851.2939999046503,response,ISIC_0013691.JPG,5,ISIC_0012883.JPG,ISIC_0012883.JPG,false,0,keypress(z),500,438176.7999997139,438176.59999990463,435308.699,435321.19999980927,435325.306,438193.935,8,400,8,,ISIC_0013691.JPG
break,html.Screen,4_107_1,2023-09-12T20:45:32.392Z,,0,,,NaN,,,,,,false,,,,438177.59999990463,438177.40000009537,,438177,,438193.935,8,400,,,
break_continue,html.Screen,4_107_2,2023-09-12T20:45:32.393Z,,0,,,NaN,,,,,,false,,,,438177.7999997139,438177.7999997139,,438177.59999990463,,438193.935,8,400,,,
sequence,flow.Sequence,4_107,2023-09-12T20:45:32.393Z,,0,,,2852.4939997139154,completion,,,,,false,,,,438178,438177.7999997139,435308.699,435321.19999980927,435325.306,438193.935,8,400,,,
trial,html.Screen,4_108_0,2023-09-12T20:45:35.171Z,,0,3,,2761.7649998092675,response,ISIC_0024441.JPG,5,ISIC_0060829.JPG,ISIC_0024441.JPG,false,1,keypress(m),500,440956,440955.69999980927,438177.183,438178.09999990463,438193.935,440971.706,8,400,9,,ISIC_0060829.JPG
break,html.Screen,4_108_1,2023-09-12T20:45:35.171Z,,0,,,NaN,,,,,,false,,,,440956.69999980927,440956.40000009537,,440956.19999980927,,440971.706,8,400,,,
break_continue,html.Screen,4_108_2,2023-09-12T20:45:35.172Z,,0,,,NaN,,,,,,false,,,,440956.90000009537,440956.90000009537,,440956.7999997139,,440971.706,8,400,,,
sequence,flow.Sequence,4_108,2023-09-12T20:45:35.172Z,,0,,,2762.9650000953698,completion,,,,,false,,,,440957,440956.90000009537,438177.183,438178,438193.935,440971.706,8,400,,,
trial,html.Screen,4_109_0,2023-09-12T20:45:38.487Z,,0,3,,3299.893999904627,response,ISIC_0067577.JPG,5,ISIC_0065283.JPG,ISIC_0065283.JPG,false,0,keypress(z),500,444271.7999997139,444271.59999990463,440954.951,440957.19999980927,440971.706,444284.94,8,400,10,,ISIC_0067577.JPG
break,html.Screen,4_109_1,2023-09-12T20:45:38.487Z,,0,,,NaN,,,,,,false,,,,444272.59999990463,444272.40000009537,,444272,,444284.94,8,400,,,
break_continue,html.Screen,4_109_2,2023-09-12T20:45:38.488Z,,0,,,NaN,,,,,,false,,,,444272.7999997139,444272.7999997139,,444272.69999980927,,444284.94,8,400,,,
sequence,flow.Sequence,4_109,2023-09-12T20:45:38.488Z,,0,,,3301.093999713892,completion,,,,,false,,,,444273,444272.7999997139,440954.951,440957.19999980927,440971.706,444284.94,8,400,,,
trial,html.Screen,4_110_0,2023-09-12T20:45:41.261Z,,0,3,,2761.0599999999977,response,ISIC_2108849.JPG,5,ISIC_0000144.JPG,ISIC_2108849.JPG,false,1,keypress(m),500,447046.19999980927,447046,444268.243,444273.09999990463,444284.94,447053.982,8,400,11,,ISIC_0000144.JPG
break,html.Screen,4_110_1,2023-09-12T20:45:41.262Z,,0,,,NaN,,,,,,false,,,,447047,447046.69999980927,,447046.5,,447053.982,8,400,,,
break_continue,html.Screen,4_110_2,2023-09-12T20:45:41.262Z,,0,,,NaN,,,,,,false,,,,447047.19999980927,447047.19999980927,,447047.09999990463,,447053.982,8,400,,,
sequence,flow.Sequence,4_110,2023-09-12T20:45:41.262Z,,0,,,2762.259999809263,completion,,,,,false,,,,447047.40000009537,447047.19999980927,444268.243,444273,444284.94,447053.982,8,400,,,
trial,html.Screen,4_111_0,2023-09-12T20:45:43.797Z,,0,3,,2528.017999999982,response,ISIC_3198731.JPG,5,ISIC_0030820.JPG,ISIC_3198731.JPG,false,1,keypress(m),500,449582.19999980927,449582,447045.713,447047.5,447053.982,449592.321,8,400,12,,ISIC_0030820.JPG
break,html.Screen,4_111_1,2023-09-12T20:45:43.798Z,,0,,,NaN,,,,,,false,,,,449582.7999997139,449582.69999980927,,449582.40000009537,,449592.321,8,400,,,
break_continue,html.Screen,4_111_2,2023-09-12T20:45:43.798Z,,0,,,NaN,,,,,,false,,,,449583.19999980927,449583.09999990463,,449583,,449592.321,8,400,,,
sequence,flow.Sequence,4_111,2023-09-12T20:45:43.798Z,,0,,,2529.1179999046144,completion,,,,,false,,,,449583.40000009537,449583.09999990463,447045.713,447047.40000009537,447053.982,449592.321,8,400,,,
trial,html.Screen,4_112_0,2023-09-12T20:45:46.695Z,,0,3,,2888.1790000000037,response,ISIC_0002811.JPG,5,ISIC_1048913.JPG,ISIC_0002811.JPG,false,1,keypress(m),500,452480.69999980927,452480.5,449575.671,449583.5,449592.321,452489.963,8,400,13,,ISIC_1048913.JPG
break,html.Screen,4_112_1,2023-09-12T20:45:46.696Z,,0,,,NaN,,,,,,false,,,,452481.2999997139,452481.19999980927,,452480.7999997139,,452489.963,8,400,,,
break_continue,html.Screen,4_112_2,2023-09-12T20:45:46.696Z,,0,,,NaN,,,,,,false,,,,452481.69999980927,452481.59999990463,,452481.5,,452489.963,8,400,,,
sequence,flow.Sequence,4_112,2023-09-12T20:45:46.697Z,,0,,,2889.2789999046363,completion,,,,,false,,,,452481.7999997139,452481.59999990463,449575.671,449583.5,449592.321,452489.963,8,400,,,
trial,html.Screen,4_113_0,2023-09-12T20:45:49.280Z,,0,3,,2574.6369999046437,response,ISIC_8863344.JPG,5,ISIC_3444719.JPG,ISIC_8863344.JPG,false,1,keypress(m),500,455064.90000009537,455064.59999990463,452473.255,452481.90000009537,452489.963,455071.328,8,400,14,,ISIC_3444719.JPG
break,html.Screen,4_113_1,2023-09-12T20:45:49.280Z,,0,,,NaN,,,,,,false,,,,455065.5,455065.2999997139,,455065,,455071.328,8,400,,,
break_continue,html.Screen,4_113_2,2023-09-12T20:45:49.281Z,,0,,,NaN,,,,,,false,,,,455065.7999997139,455065.69999980927,,455065.59999990463,,455071.328,8,400,,,
sequence,flow.Sequence,4_113,2023-09-12T20:45:49.281Z,,0,,,2575.7369998092763,completion,,,,,false,,,,455065.90000009537,455065.69999980927,452473.255,452481.90000009537,452489.963,455071.328,8,400,,,
trial,html.Screen,4_114_0,2023-09-12T20:45:53.031Z,,0,3,,3744.8719998092856,response,ISIC_1961064.JPG,6,ISIC_2489504.JPG,ISIC_2489504.JPG,false,0,keypress(z),500,458816.40000009537,458816.19999980927,455054.812,455066.09999990463,455071.328,458829.781,8,400,15,,ISIC_1961064.JPG
break,html.Screen,4_114_1,2023-09-12T20:45:53.032Z,,0,,,NaN,,,,,,false,,,,458817,458816.90000009537,,458816.59999990463,,458829.781,8,400,,,
break_continue,html.Screen,4_114_2,2023-09-12T20:45:53.032Z,,0,,,NaN,,,,,,false,,,,458817.40000009537,458817.2999997139,,458817.19999980927,,458829.781,8,400,,,
sequence,flow.Sequence,4_114,2023-09-12T20:45:53.032Z,,0,,,3745.971999713918,completion,,,,,false,,,,458817.40000009537,458817.2999997139,455054.812,455066,455071.328,458829.781,8,400,,,
trial,html.Screen,4_115_0,2023-09-12T20:45:57.488Z,,0,3,,4443.5189997138805,response,ISIC_8563961.JPG,5,ISIC_0033729.JPG,ISIC_0033729.JPG,false,0,keypress(z),500,463273.5,463273.2999997139,458813.098,458817.59999990463,458829.781,463281.929,8,400,16,,ISIC_8563961.JPG
break,html.Screen,4_115_1,2023-09-12T20:45:57.489Z,,0,,,NaN,,,,,,false,,,,463274.19999980927,463274,,463273.69999980927,,463281.929,8,400,,,
break_continue,html.Screen,4_115_2,2023-09-12T20:45:57.489Z,,0,,,NaN,,,,,,false,,,,463274.5,463274.2999997139,,463274.2999997139,,463281.929,8,400,,,
sequence,flow.Sequence,4_115,2023-09-12T20:45:57.489Z,,0,,,4444.5189997138805,completion,,,,,false,,,,463274.59999990463,463274.2999997139,458813.098,458817.59999990463,458829.781,463281.929,8,400,,,
trial,html.Screen,4_116_0,2023-09-12T20:46:00.771Z,,0,3,,3274.5709999999963,response,ISIC_0026086.JPG,5,ISIC_7128007.JPG,ISIC_7128007.JPG,false,0,keypress(z),500,466556.69999980927,466556.5,463273.77,463274.69999980927,463281.929,466575.47,8,400,17,,ISIC_0026086.JPG
break,html.Screen,4_116_1,2023-09-12T20:46:00.772Z,,0,,,NaN,,,,,,false,,,,466557.40000009537,466557.19999980927,,466556.90000009537,,466575.47,8,400,,,
break_continue,html.Screen,4_116_2,2023-09-12T20:46:00.772Z,,0,,,NaN,,,,,,false,,,,466557.69999980927,466557.69999980927,,466557.5,,466575.47,8,400,,,
sequence,flow.Sequence,4_116,2023-09-12T20:46:00.773Z,,0,,,3275.7709998092614,completion,,,,,false,,,,466557.7999997139,466557.69999980927,463273.77,463274.69999980927,463281.929,466575.47,8,400,,,
trial,html.Screen,4_117_0,2023-09-12T20:46:04.262Z,,0,3,,3471.4300000953954,response,ISIC_1331993.JPG,5,ISIC_0010278.JPG,ISIC_1331993.JPG,false,1,keypress(m),500,470047.09999990463,470046.90000009537,466547.49,466557.90000009537,466575.47,470065.782,8,400,18,,ISIC_0010278.JPG
break,html.Screen,4_117_1,2023-09-12T20:46:04.262Z,,0,,,NaN,,,,,,false,,,,470047.69999980927,470047.59999990463,,470047.2999997139,,470065.782,8,400,,,
break_continue,html.Screen,4_117_2,2023-09-12T20:46:04.263Z,,0,,,NaN,,,,,,false,,,,470048.09999990463,470047.90000009537,,470047.7999997139,,470065.782,8,400,,,
sequence,flow.Sequence,4_117,2023-09-12T20:46:04.263Z,,0,,,3472.4300000953954,completion,,,,,false,,,,470048.19999980927,470047.90000009537,466547.49,466557.90000009537,466575.47,470065.782,8,400,,,
trial,html.Screen,4_118_0,2023-09-12T20:46:08.495Z,,0,3,,4214.417999809259,response,ISIC_1023354.JPG,4,ISIC_0028248.JPG,ISIC_0028248.JPG,false,0,keypress(z),500,474280.40000009537,474280.19999980927,470031.743,470048.40000009537,470065.782,474287.739,8,400,19,,ISIC_1023354.JPG
break,html.Screen,4_118_1,2023-09-12T20:46:08.496Z,,0,,,NaN,,,,,,false,,,,474281.19999980927,474280.90000009537,,474280.59999990463,,474287.739,8,400,,,
break_continue,html.Screen,4_118_2,2023-09-12T20:46:08.496Z,,0,,,NaN,,,,,,false,,,,474281.5,474281.5,,474281.2999997139,,474287.739,8,400,,,
sequence,flow.Sequence,4_118,2023-09-12T20:46:08.496Z,,0,,,4215.7179999999935,completion,,,,,false,,,,474281.69999980927,474281.5,470031.743,470048.40000009537,470065.782,474287.739,8,400,,,
trial,html.Screen,4_119_0,2023-09-12T20:46:15.442Z,,0,3,,6939.760999999999,response,ISIC_0054925.JPG,5,ISIC_6657600.JPG,ISIC_6657600.JPG,false,0,keypress(z),500,481227.69999980927,481227.5,474271.058,474281.90000009537,474287.739,481242.039,8,400,20,,ISIC_0054925.JPG
break,html.Screen,4_119_1,2023-09-12T20:46:15.443Z,,0,,,NaN,,,,,,false,,,,481228.2999997139,481228.19999980927,,481227.90000009537,,481242.039,8,400,,,
break_continue,html.Screen,4_119_2,2023-09-12T20:46:15.443Z,,0,,,NaN,,,,,,false,,,,481228.59999990463,481228.5,,481228.5,,481242.039,8,400,,,
sequence,flow.Sequence,4_119,2023-09-12T20:46:15.443Z,,0,,,6940.760999999999,completion,,,,,false,,,,481228.69999980927,481228.5,474271.058,474281.7999997139,474287.739,481242.039,8,400,,,
trial,html.Screen,4_120_0,2023-09-12T20:46:19.845Z,,0,3,,4387.861000095378,response,ISIC_3060248.JPG,5,ISIC_0071806.JPG,ISIC_3060248.JPG,false,1,keypress(m),500,485630.09999990463,485629.90000009537,481225.537,481228.7999997139,481242.039,485643.402,8,400,21,,ISIC_0071806.JPG
break,html.Screen,4_120_1,2023-09-12T20:46:19.846Z,,0,,,NaN,,,,,,false,,,,485630.90000009537,485630.69999980927,,485630.2999997139,,485643.402,8,400,,,
break_continue,html.Screen,4_120_2,2023-09-12T20:46:19.846Z,,0,,,NaN,,,,,,false,,,,485631.19999980927,485631,,485631,,485643.402,8,400,,,
sequence,flow.Sequence,4_120,2023-09-12T20:46:19.846Z,,0,,,4388.96100000001,completion,,,,,false,,,,485631.2999997139,485631,481225.537,481228.7999997139,481242.039,485643.402,8,400,,,
trial,html.Screen,4_121_0,2023-09-12T20:46:22.872Z,,0,3,,3013.897999713896,response,ISIC_1369967.JPG,4,ISIC_9141065.JPG,ISIC_9141065.JPG,false,0,keypress(z),500,488657.5,488657.2999997139,485626.629,485631.40000009537,485643.402,488669.341,8,400,22,,ISIC_1369967.JPG
break,html.Screen,4_121_1,2023-09-12T20:46:22.873Z,,0,,,NaN,,,,,,false,,,,488658.19999980927,488658,,488657.69999980927,,488669.341,8,400,,,
break_continue,html.Screen,4_121_2,2023-09-12T20:46:22.873Z,,0,,,NaN,,,,,,false,,,,488658.5,488658.40000009537,,488658.19999980927,,488669.341,8,400,,,
sequence,flow.Sequence,4_121,2023-09-12T20:46:22.873Z,,0,,,3014.9980000953656,completion,,,,,false,,,,488658.59999990463,488658.40000009537,485626.629,485631.40000009537,485643.402,488669.341,8,400,,,
trial,html.Screen,4_122_0,2023-09-12T20:46:25.585Z,,0,3,,2700.158999999985,response,ISIC_0062389.JPG,5,ISIC_0010862.JPG,ISIC_0062389.JPG,false,1,keypress(m),500,491369.69999980927,491369.5,488652.6,488658.69999980927,488669.341,491373.677,8,400,23,,ISIC_0010862.JPG
break,html.Screen,4_122_1,2023-09-12T20:46:25.585Z,,0,,,NaN,,,,,,false,,,,491370.2999997139,491370.19999980927,,491369.90000009537,,491373.677,8,400,,,
break_continue,html.Screen,4_122_2,2023-09-12T20:46:25.586Z,,0,,,NaN,,,,,,false,,,,491370.69999980927,491370.59999990463,,491370.40000009537,,491373.677,8,400,,,
sequence,flow.Sequence,4_122,2023-09-12T20:46:25.586Z,,0,,,2701.2589999046177,completion,,,,,false,,,,491370.7999997139,491370.59999990463,488652.6,488658.59999990463,488669.341,491373.677,8,400,,,
trial,html.Screen,4_123_0,2023-09-12T20:46:28.295Z,,0,3,,2706.7230000953423,response,ISIC_2196127.JPG,5,ISIC_0057164.JPG,ISIC_2196127.JPG,false,1,keypress(m),500,494080.69999980927,494080.40000009537,491365.577,491370.90000009537,491373.677,494090.244,8,400,24,,ISIC_0057164.JPG
break,html.Screen,4_123_1,2023-09-12T20:46:28.296Z,,0,,,NaN,,,,,,false,,,,494081.19999980927,494081.19999980927,,494080.7999997139,,494090.244,8,400,,,
break_continue,html.Screen,4_123_2,2023-09-12T20:46:28.296Z,,0,,,NaN,,,,,,false,,,,494081.59999990463,494081.5,,494081.40000009537,,494090.244,8,400,,,
sequence,flow.Sequence,4_123,2023-09-12T20:46:28.297Z,,0,,,2707.822999999975,completion,,,,,false,,,,494081.69999980927,494081.5,491365.577,491370.90000009537,491373.677,494090.244,8,400,,,
trial,html.Screen,4_124_0,2023-09-12T20:46:30.991Z,,0,3,,2685.5559997138917,response,ISIC_6839272.JPG,5,ISIC_4148086.JPG,ISIC_4148086.JPG,false,0,keypress(z),500,496776,496775.7999997139,494073.559,494081.7999997139,494090.244,496792.489,8,400,25,,ISIC_6839272.JPG
break,html.Screen,4_124_1,2023-09-12T20:46:30.991Z,,0,,,NaN,,,,,,false,,,,496776.59999990463,496776.5,,496776.19999980927,,496792.489,8,400,,,
break_continue,html.Screen,4_124_2,2023-09-12T20:46:30.992Z,,0,,,NaN,,,,,,false,,,,496776.90000009537,496776.90000009537,,496776.7999997139,,496792.489,8,400,,,
sequence,flow.Sequence,4_124,2023-09-12T20:46:30.992Z,,0,,,2686.6560000953614,completion,,,,,false,,,,496777.09999990463,496776.90000009537,494073.559,494081.7999997139,494090.244,496792.489,8,400,,,
trial,html.Screen,4_125_0,2023-09-12T20:46:34.066Z,,0,3,,3058.7109998092637,response,ISIC_0014211.JPG,4,ISIC_0028477.JPG,ISIC_0028477.JPG,false,0,keypress(z),500,499851.40000009537,499851.19999980927,496775.601,496777.19999980927,496792.489,499861.467,8,400,26,,ISIC_0014211.JPG
break,html.Screen,4_125_1,2023-09-12T20:46:34.067Z,,0,,,NaN,,,,,,false,,,,499852,499851.7999997139,,499851.5,,499861.467,8,400,,,
