sender,sender_type,sender_id,timestamp,meta,,blockNo,condition,duration,ended_on,img_left,img_reveal,img_right,loser,practice,response,response_action,selection_duration,time_commit,time_end,time_render,time_run,time_show,time_switch,total_blocks,total_trials,trialNo,url,winner
informed_consent,html.Screen,0,2023-09-17T05:06:06.871Z,"{""labjs_version"":""20.2.4"",""labjs_build"":{""flavor"":""production"",""commit"":""f5b4a49f956347addd546a832a3327688c2c0fef""},""location"":""https://run.pavlovia.org/MurrayBennett/melanoma-2afc/?participant=67155&platform=sona"",""userAgent"":""Mozilla/5.0 (Macintosh; Intel Mac OS X 10_15_7) AppleWebKit/537.36 (KHTML, like Gecko) Chrome/116.0.0.0 Safari/537.36"",""platform"":""MacIntel"",""language"":""en-US"",""locale"":""en-US"",""timeZone"":""America/Chicago"",""timezoneOffset"":300,""screen_width"":1440,""screen_height"":900,""scroll_width"":1399,""scroll_height"":668,""window_innerWidth"":1399,""window_innerHeight"":716,""devicePixelRatio"":1}",,,,138033.4389999999,response,,,,,,consent,click button,,140593,140579.3999999999,2529.294,2538,2545.961,140622.324,,,,"{""participant"":""67155"",""platform"":""sona""}",
Welcome,html.Screen,1,2023-09-17T05:06:37.987Z,,,,symmetry,31066.97599999982,response,,,,,,continue,click button,,171710.59999999963,171689.2999999998,140588.99,140593.3999999999,140622.324,171724.403,,,,,
trial,html.Screen,2_0_0,2023-09-17T05:06:43.338Z,,0,0,,5337.097000000009,response,ISIC_6997061.JPG,,ISIC_0069348.JPG,ISIC_0069348.JPG,true,0,keypress(z),500,177061.7999999998,177061.5,171707.736,171711,171724.403,177074.51,1,6,1,,ISIC_6997061.JPG
sequence,flow.Sequence,2_0,2023-09-17T05:06:43.339Z,,0,,,5337.097000000009,completion,,,,,true,,,,177062.3999999999,177061.5,171707.736,171711,171724.403,177074.51,1,6,,,
trial,html.Screen,2_1_0,2023-09-17T05:06:46.446Z,,0,0,,3095.1899999997113,response,ISIC_0009529.JPG,,ISIC_0057368.JPG,ISIC_0057368.JPG,true,0,keypress(z),500,180170,180169.69999999972,177057.843,177062.59999999963,177074.51,180175.053,1,6,2,,ISIC_0009529.JPG
sequence,flow.Sequence,2_1,2023-09-17T05:06:46.447Z,,0,,,3095.1899999997113,completion,,,,,true,,,,180170.3999999999,180169.69999999972,177057.843,177062.5,177074.51,180175.053,1,6,,,
trial,html.Screen,2_2_0,2023-09-17T05:06:51.843Z,,0,0,,5391.146999999706,response,ISIC_9758671.JPG,,ISIC_0064954.JPG,ISIC_9758671.JPG,true,1,keypress(m),500,185566.5,185566.19999999972,180158.386,180170.59999999963,180175.053,185575.161,1,6,3,,ISIC_0064954.JPG
sequence,flow.Sequence,2_2,2023-09-17T05:06:51.843Z,,0,,,5391.146999999706,completion,,,,,true,,,,185566.8999999999,185566.19999999972,180158.386,180170.59999999963,180175.053,185575.161,1,6,,,
trial,html.Screen,2_3_0,2023-09-17T05:06:56.079Z,,0,0,,4227.938999999635,response,ISIC_0005785.JPG,,ISIC_0000080.JPG,ISIC_0005785.JPG,true,1,keypress(m),500,189803.3999999999,189803.09999999963,185558.494,185567.09999999963,185575.161,189808.579,1,6,4,,ISIC_0000080.JPG
sequence,flow.Sequence,2_3,2023-09-17T05:06:56.080Z,,0,,,4227.938999999635,completion,,,,,true,,,,189803.7999999998,189803.09999999963,185558.494,185567.09999999963,185575.161,189808.579,1,6,,,
trial,html.Screen,2_4_0,2023-09-17T05:06:59.090Z,,0,0,,3005.720999999816,response,ISIC_7944028.JPG,,ISIC_5390060.JPG,ISIC_5390060.JPG,true,0,keypress(z),500,192814.69999999972,192814.2999999998,189791.912,189804.19999999972,189808.579,192825.786,1,6,5,,ISIC_7944028.JPG
sequence,flow.Sequence,2_4,2023-09-17T05:06:59.091Z,,0,,,3005.720999999816,completion,,,,,true,,,,192815.09999999963,192814.2999999998,189791.912,189804.09999999963,189808.579,192825.786,1,6,,,
trial,html.Screen,2_5_0,2023-09-17T05:07:02.198Z,,0,0,,3096.013999999821,response,ISIC_0010188.JPG,,ISIC_0794216.JPG,ISIC_0010188.JPG,true,1,keypress(m),500,195922.09999999963,195921.7999999998,192809.119,192815.2999999998,192825.786,195925.848,1,6,6,,ISIC_0794216.JPG
sequence,flow.Sequence,2_5,2023-09-17T05:07:02.198Z,,0,,,3096.013999999821,completion,,,,,true,,,,195922.5,195921.7999999998,192809.119,192815.09999999963,192825.786,195925.848,1,6,,,
loop,flow.Loop,2,2023-09-17T05:07:02.198Z,,,,,24197.396999999823,completion,,,,,true,,,,195922.7999999998,195921.7999999998,171707.736,171710.8999999999,171724.403,195925.848,1,6,,,
exp_instructions,html.Screen,3,2023-09-17T05:07:03.753Z,,,,,1543.8519999997225,response,,,,,,continue,keypress(Space),,197477.19999999972,197469.69999999972,195909.181,195923,195925.848,197492.546,,,,,
trial,html.Screen,4_0_0,2023-09-17T05:07:08.749Z,,0,1,,4981.253999999812,response,ISIC_0058035.JPG,7,ISIC_0058024.JPG,ISIC_0058024.JPG,false,0,keypress(z),500,202474.09999999963,202473.7999999998,197475.879,197477.59999999963,197492.546,202493.224,8,400,1,,ISIC_0058035.JPG
break,html.Screen,4_0_1,2023-09-17T05:07:08.751Z,,0,,,NaN,,,,,,false,,,,202475.3999999999,202475,,202474.2999999998,,202493.224,8,400,,,
break_continue,html.Screen,4_0_2,2023-09-17T05:07:08.752Z,,0,,,NaN,,,,,,false,,,,202476.5,202476.09999999963,,202475.69999999972,,202493.224,8,400,,,
sequence,flow.Sequence,4_0,2023-09-17T05:07:08.752Z,,0,,,4983.553999999625,completion,,,,,false,,,,202476.7999999998,202476.09999999963,197475.879,197477.5,197492.546,202493.224,8,400,,,
trial,html.Screen,4_1_0,2023-09-17T05:07:13.364Z,,0,1,,4595.475999999733,response,ISIC_0060508.JPG,6,ISIC_8147189.JPG,ISIC_0060508.JPG,false,1,keypress(m),500,207088.8999999999,207088.69999999972,202476.557,202477,202493.224,207093.316,8,400,2,,ISIC_8147189.JPG
break,html.Screen,4_1_1,2023-09-17T05:07:13.365Z,,0,,,NaN,,,,,,false,,,,207090.09999999963,207089.69999999972,,207089.19999999972,,207093.316,8,400,,,
break_continue,html.Screen,4_1_2,2023-09-17T05:07:13.366Z,,0,,,NaN,,,,,,false,,,,207090.69999999972,207090.5,,207090.19999999972,,207093.316,8,400,,,
sequence,flow.Sequence,4_1,2023-09-17T05:07:13.366Z,,0,,,4597.276000000013,completion,,,,,false,,,,207090.7999999998,207090.5,202476.557,202477,202493.224,207093.316,8,400,,,
trial,html.Screen,4_2_0,2023-09-17T05:07:16.265Z,,0,1,,2896.1840000000084,response,ISIC_6735970.JPG,8,ISIC_7642142.JPG,ISIC_7642142.JPG,false,0,keypress(z),500,209989.7999999998,209989.5,207076.649,207091.09999999963,207093.316,209993.374,8,400,3,,ISIC_6735970.JPG
break,html.Screen,4_2_1,2023-09-17T05:07:16.266Z,,0,,,NaN,,,,,,false,,,,209990.7999999998,209990.5,,209990,,209993.374,8,400,,,
break_continue,html.Screen,4_2_2,2023-09-17T05:07:16.266Z,,0,,,NaN,,,,,,false,,,,209991.3999999999,209991.2999999998,,209991,,209993.374,8,400,,,
sequence,flow.Sequence,4_2,2023-09-17T05:07:16.266Z,,0,,,2897.983999999822,completion,,,,,false,,,,209991.69999999972,209991.2999999998,207076.649,207091,207093.316,209993.374,8,400,,,
trial,html.Screen,4_3_0,2023-09-17T05:07:19.590Z,,0,1,,3322.025999999896,response,ISIC_0010231.JPG,8,ISIC_5336548.JPG,ISIC_0010231.JPG,false,1,keypress(m),500,213315.69999999972,213315.3999999999,209976.707,209991.7999999998,209993.374,213327.266,8,400,4,,ISIC_5336548.JPG
break,html.Screen,4_3_1,2023-09-17T05:07:19.591Z,,0,,,NaN,,,,,,false,,,,213316.69999999972,213316.3999999999,,213315.8999999999,,213327.266,8,400,,,
break_continue,html.Screen,4_3_2,2023-09-17T05:07:19.592Z,,0,,,NaN,,,,,,false,,,,213317.19999999972,213317.09999999963,,213316.7999999998,,213327.266,8,400,,,
sequence,flow.Sequence,4_3,2023-09-17T05:07:19.592Z,,0,,,3323.7259999996168,completion,,,,,false,,,,213317.3999999999,213317.09999999963,209976.707,209991.7999999998,209993.374,213327.266,8,400,,,
trial,html.Screen,4_4_0,2023-09-17T05:07:25.979Z,,0,1,,6377.5339999998105,response,ISIC_0070585.JPG,6,ISIC_0013639.JPG,ISIC_0013639.JPG,false,0,keypress(z),500,219705,219704.7999999998,213310.599,213317.59999999963,213327.266,219710.727,8,400,5,,ISIC_0070585.JPG
break,html.Screen,4_4_1,2023-09-17T05:07:25.980Z,,0,,,NaN,,,,,,false,,,,219706,219705.69999999972,,219705.19999999972,,219710.727,8,400,,,
break_continue,html.Screen,4_4_2,2023-09-17T05:07:25.981Z,,0,,,NaN,,,,,,false,,,,219706.5,219706.3999999999,,219706.19999999972,,219710.727,8,400,,,
sequence,flow.Sequence,4_4,2023-09-17T05:07:25.981Z,,0,,,6379.133999999904,completion,,,,,false,,,,219706.69999999972,219706.3999999999,213310.599,213317.5,213327.266,219710.727,8,400,,,
trial,html.Screen,4_5_0,2023-09-17T05:07:32.353Z,,0,1,,6367.972999999707,response,ISIC_0006850.JPG,6,ISIC_0026407.JPG,ISIC_0026407.JPG,false,0,keypress(z),500,226078.8999999999,226078.69999999972,219694.06,219706.8999999999,219710.727,226094.702,8,400,6,,ISIC_0006850.JPG
break,html.Screen,4_5_1,2023-09-17T05:07:32.354Z,,0,,,NaN,,,,,,false,,,,226080,226079.69999999972,,226079.19999999972,,226094.702,8,400,,,
break_continue,html.Screen,4_5_2,2023-09-17T05:07:32.354Z,,0,,,NaN,,,,,,false,,,,226080.59999999963,226080.3999999999,,226080.09999999963,,226094.702,8,400,,,
sequence,flow.Sequence,4_5,2023-09-17T05:07:32.355Z,,0,,,6369.672999999893,completion,,,,,false,,,,226080.7999999998,226080.3999999999,219694.06,219706.7999999998,219710.727,226094.702,8,400,,,
trial,html.Screen,4_6_0,2023-09-17T05:07:36.038Z,,0,1,,3669.5979999998235,response,ISIC_9069800.JPG,6,ISIC_8127578.JPG,ISIC_9069800.JPG,false,1,keypress(m),500,229764.5,229764.2999999998,226078.035,226080.8999999999,226094.702,229778.109,8,400,7,,ISIC_8127578.JPG
break,html.Screen,4_6_1,2023-09-17T05:07:36.039Z,,0,,,NaN,,,,,,false,,,,229765.3999999999,229765.09999999963,,229764.69999999972,,229778.109,8,400,,,
break_continue,html.Screen,4_6_2,2023-09-17T05:07:36.040Z,,0,,,NaN,,,,,,false,,,,229766.09999999963,229765.7999999998,,229765.59999999963,,229778.109,8,400,,,
sequence,flow.Sequence,4_6,2023-09-17T05:07:36.040Z,,0,,,3671.0979999998235,completion,,,,,false,,,,229766.2999999998,229765.7999999998,226078.035,226080.8999999999,226094.702,229778.109,8,400,,,
trial,html.Screen,4_7_0,2023-09-17T05:07:39.342Z,,0,1,,3289.79099999991,response,ISIC_0027391.JPG,7,ISIC_0063568.JPG,ISIC_0027391.JPG,false,1,keypress(m),500,233068.09999999963,233067.8999999999,229761.442,229766.3999999999,229778.109,233078.175,8,400,8,,ISIC_0063568.JPG
break,html.Screen,4_7_1,2023-09-17T05:07:39.343Z,,0,,,NaN,,,,,,false,,,,233069.09999999963,233068.8999999999,,233068.3999999999,,233078.175,8,400,,,
break_continue,html.Screen,4_7_2,2023-09-17T05:07:39.343Z,,0,,,NaN,,,,,,false,,,,233069.69999999972,233069.59999999963,,233069.2999999998,,233078.175,8,400,,,
sequence,flow.Sequence,4_7,2023-09-17T05:07:39.343Z,,0,,,3291.4909999996307,completion,,,,,false,,,,233069.8999999999,233069.59999999963,229761.442,229766.3999999999,229778.109,233078.175,8,400,,,
trial,html.Screen,4_8_0,2023-09-17T05:07:43.948Z,,0,1,,4596.424999999639,response,ISIC_1080647.JPG,7,ISIC_0060148.JPG,ISIC_0060148.JPG,false,0,keypress(z),500,237674.8999999999,237674.59999999963,233061.508,233070.09999999963,233078.175,237678.785,8,400,9,,ISIC_1080647.JPG
break,html.Screen,4_8_1,2023-09-17T05:07:43.949Z,,0,,,NaN,,,,,,false,,,,237676,237675.69999999972,,237675.09999999963,,237678.785,8,400,,,
break_continue,html.Screen,4_8_2,2023-09-17T05:07:43.950Z,,0,,,NaN,,,,,,false,,,,237676.59999999963,237676.3999999999,,237676.09999999963,,237678.785,8,400,,,
sequence,flow.Sequence,4_8,2023-09-17T05:07:43.950Z,,0,,,4598.2249999999185,completion,,,,,false,,,,237676.8999999999,237676.3999999999,233061.508,233070,233078.175,237678.785,8,400,,,
trial,html.Screen,4_9_0,2023-09-17T05:07:52.157Z,,0,1,,8205.114999999903,response,ISIC_0010108.JPG,8,ISIC_0010271.JPG,ISIC_0010108.JPG,false,1,keypress(m),500,245884.19999999972,245883.8999999999,237662.118,237677.09999999963,237678.785,245896.152,8,400,10,,ISIC_0010271.JPG
break,html.Screen,4_9_1,2023-09-17T05:07:52.158Z,,0,,,NaN,,,,,,false,,,,245885.2999999998,245884.8999999999,,245884.3999999999,,245896.152,8,400,,,
break_continue,html.Screen,4_9_2,2023-09-17T05:07:52.159Z,,0,,,NaN,,,,,,false,,,,245885.7999999998,245885.59999999963,,245885.2999999998,,245896.152,8,400,,,
sequence,flow.Sequence,4_9,2023-09-17T05:07:52.159Z,,0,,,8206.814999999624,completion,,,,,false,,,,245886,245885.59999999963,237662.118,237677,237678.785,245896.152,8,400,,,
trial,html.Screen,4_10_0,2023-09-17T05:07:55.572Z,,0,1,,3402.4479999996256,response,ISIC_0068166.JPG,8,ISIC_5282642.JPG,ISIC_5282642.JPG,false,0,keypress(z),500,249298.8999999999,249298.59999999963,245879.485,245886.09999999963,245896.152,249312.887,8,400,11,,ISIC_0068166.JPG
break,html.Screen,4_10_1,2023-09-17T05:07:55.573Z,,0,,,NaN,,,,,,false,,,,249299.7999999998,249299.59999999963,,249299.09999999963,,249312.887,8,400,,,
break_continue,html.Screen,4_10_2,2023-09-17T05:07:55.573Z,,0,,,NaN,,,,,,false,,,,249300.3999999999,249300.2999999998,,249300,,249312.887,8,400,,,
sequence,flow.Sequence,4_10,2023-09-17T05:07:55.573Z,,0,,,3404.147999999812,completion,,,,,false,,,,249300.69999999972,249300.2999999998,245879.485,245886.09999999963,245896.152,249312.887,8,400,,,
trial,html.Screen,4_11_0,2023-09-17T05:07:58.827Z,,0,1,,3241.7129999996396,response,ISIC_0511526.JPG,8,ISIC_9417004.JPG,ISIC_0511526.JPG,false,1,keypress(m),500,252554.8999999999,252554.59999999963,249296.22,249300.7999999998,249312.887,252562.952,8,400,12,,ISIC_9417004.JPG
break,html.Screen,4_11_1,2023-09-17T05:07:58.828Z,,0,,,NaN,,,,,,false,,,,252555.8999999999,252555.59999999963,,252555.09999999963,,252562.952,8,400,,,
break_continue,html.Screen,4_11_2,2023-09-17T05:07:58.829Z,,0,,,NaN,,,,,,false,,,,252556.5,252556.2999999998,,252556,,252562.952,8,400,,,
sequence,flow.Sequence,4_11,2023-09-17T05:07:58.829Z,,0,,,3243.412999999826,completion,,,,,false,,,,252556.59999999963,252556.2999999998,249296.22,249300.69999999972,249312.887,252562.952,8,400,,,
trial,html.Screen,4_12_0,2023-09-17T05:08:01.777Z,,0,1,,2941.1479999996372,response,ISIC_0975874.JPG,6,ISIC_0069093.JPG,ISIC_0069093.JPG,false,0,keypress(z),500,255504.3999999999,255504.09999999963,252546.285,252556.8999999999,252562.952,255513.011,8,400,13,,ISIC_0975874.JPG
break,html.Screen,4_12_1,2023-09-17T05:08:01.778Z,,0,,,NaN,,,,,,false,,,,255505.3999999999,255505.19999999972,,255504.59999999963,,255513.011,8,400,,,
break_continue,html.Screen,4_12_2,2023-09-17T05:08:01.778Z,,0,,,NaN,,,,,,false,,,,255505.8999999999,255505.7999999998,,255505.5,,255513.011,8,400,,,
sequence,flow.Sequence,4_12,2023-09-17T05:08:01.779Z,,0,,,2942.8479999998235,completion,,,,,false,,,,255506.19999999972,255505.7999999998,252546.285,252556.7999999998,252562.952,255513.011,8,400,,,
trial,html.Screen,4_13_0,2023-09-17T05:08:05.492Z,,0,1,,3706.9890000000014,response,ISIC_0030501.JPG,6,ISIC_0030300.JPG,ISIC_0030300.JPG,false,0,keypress(z),500,259220.19999999972,259220,255496.344,255506.2999999998,255513.011,259246.9,8,400,14,,ISIC_0030501.JPG
break,html.Screen,4_13_1,2023-09-17T05:08:05.493Z,,0,,,NaN,,,,,,false,,,,259221.09999999963,259220.8999999999,,259220.3999999999,,259246.9,8,400,,,
break_continue,html.Screen,4_13_2,2023-09-17T05:08:05.494Z,,0,,,NaN,,,,,,false,,,,259221.69999999972,259221.59999999963,,259221.2999999998,,259246.9,8,400,,,
sequence,flow.Sequence,4_13,2023-09-17T05:08:05.494Z,,0,,,3708.588999999629,completion,,,,,false,,,,259221.8999999999,259221.59999999963,255496.344,255506.2999999998,255513.011,259246.9,8,400,,,
trial,html.Screen,4_14_0,2023-09-17T05:08:08.329Z,,0,1,,2810.3999999998196,response,ISIC_8502341.JPG,5,ISIC_0015390.JPG,ISIC_0015390.JPG,false,0,keypress(z),500,262057.5,262057.2999999998,259230.233,259222.09999999963,259246.9,262063.623,8,400,15,,ISIC_8502341.JPG
break,html.Screen,4_14_1,2023-09-17T05:08:08.330Z,,0,,,NaN,,,,,,false,,,,262058.5,262058.19999999972,,262057.69999999972,,262063.623,8,400,,,
break_continue,html.Screen,4_14_2,2023-09-17T05:08:08.331Z,,0,,,NaN,,,,,,false,,,,262059,262058.7999999998,,262058.69999999972,,262063.623,8,400,,,
sequence,flow.Sequence,4_14,2023-09-17T05:08:08.331Z,,0,,,2811.8999999998196,completion,,,,,false,,,,262059.2999999998,262058.7999999998,259230.233,259222.09999999963,259246.9,262063.623,8,400,,,
trial,html.Screen,4_15_0,2023-09-17T05:08:11.248Z,,0,1,,2912.1769999998214,response,ISIC_0010067.JPG,7,ISIC_0014931.JPG,ISIC_0010067.JPG,false,1,keypress(m),500,264976,264975.7999999998,262046.956,262059.3999999999,262063.623,264980.348,8,400,16,,ISIC_0014931.JPG
break,html.Screen,4_15_1,2023-09-17T05:08:11.249Z,,0,,,NaN,,,,,,false,,,,264977.0999999996,264976.7999999998,,264976.2999999998,,264980.348,8,400,,,
break_continue,html.Screen,4_15_2,2023-09-17T05:08:11.250Z,,0,,,NaN,,,,,,false,,,,264977.6999999997,264977.5999999996,,264977.2999999998,,264980.348,8,400,,,
sequence,flow.Sequence,4_15,2023-09-17T05:08:11.250Z,,0,,,2913.976999999635,completion,,,,,false,,,,264977.8999999999,264977.5999999996,262046.956,262059.3999999999,262063.623,264980.348,8,400,,,
trial,html.Screen,4_16_0,2023-09-17T05:08:15.116Z,,0,1,,3863.2519999996293,response,ISIC_1696845.JPG,8,ISIC_8382969.JPG,ISIC_8382969.JPG,false,0,keypress(z),500,268843.8999999999,268843.5999999996,264963.681,264978.0999999996,264980.348,268847.589,8,400,17,,ISIC_1696845.JPG
break,html.Screen,4_16_1,2023-09-17T05:08:15.117Z,,0,,,NaN,,,,,,false,,,,268844.8999999999,268844.6999999997,,268844.0999999996,,268847.589,8,400,,,
break_continue,html.Screen,4_16_2,2023-09-17T05:08:15.117Z,,0,,,NaN,,,,,,false,,,,268845.3999999999,268845.3999999999,,268845.0999999996,,268847.589,8,400,,,
sequence,flow.Sequence,4_16,2023-09-17T05:08:15.117Z,,0,,,3865.0519999999087,completion,,,,,false,,,,268845.6999999997,268845.3999999999,264963.681,264978,264980.348,268847.589,8,400,,,
trial,html.Screen,4_17_0,2023-09-17T05:08:22.555Z,,0,1,,7436.1109999997425,response,ISIC_0029744.JPG,7,ISIC_0003068.JPG,ISIC_0003068.JPG,false,0,keypress(z),500,276284,276283.6999999997,268830.922,268845.8999999999,268847.589,276297.738,8,400,18,,ISIC_0029744.JPG
break,html.Screen,4_17_1,2023-09-17T05:08:22.556Z,,0,,,NaN,,,,,,false,,,,276285,276284.6999999997,,276284.1999999997,,276297.738,8,400,,,
break_continue,html.Screen,4_17_2,2023-09-17T05:08:22.557Z,,0,,,NaN,,,,,,false,,,,276285.3999999999,276285.2999999998,,276285.0999999996,,276297.738,8,400,,,
sequence,flow.Sequence,4_17,2023-09-17T05:08:22.557Z,,0,,,7437.710999999836,completion,,,,,false,,,,276285.6999999997,276285.2999999998,268830.922,268845.8999999999,268847.589,276297.738,8,400,,,
trial,html.Screen,4_18_0,2023-09-17T05:08:25.682Z,,0,1,,3112.8619999996154,response,ISIC_6592334.JPG,8,ISIC_1690909.JPG,ISIC_1690909.JPG,false,0,keypress(z),500,279410.8999999999,279410.5999999996,276281.071,276285.8999999999,276297.738,279414.956,8,400,19,,ISIC_6592334.JPG
break,html.Screen,4_18_1,2023-09-17T05:08:25.683Z,,0,,,NaN,,,,,,false,,,,279412,279411.6999999997,,279411.1999999997,,279414.956,8,400,,,
break_continue,html.Screen,4_18_2,2023-09-17T05:08:25.684Z,,0,,,NaN,,,,,,false,,,,279412.5,279412.2999999998,,279412.0999999996,,279414.956,8,400,,,
sequence,flow.Sequence,4_18,2023-09-17T05:08:25.684Z,,0,,,3114.5619999998016,completion,,,,,false,,,,279412.7999999998,279412.2999999998,276281.071,276285.7999999998,276297.738,279414.956,8,400,,,
trial,html.Screen,4_19_0,2023-09-17T05:08:29.194Z,,0,1,,3508.0439999999944,response,ISIC_0059485.JPG,4,ISIC_0066378.JPG,ISIC_0066378.JPG,false,0,keypress(z),500,282923.2999999998,282923,279398.289,279412.8999999999,279414.956,282948.36,8,400,20,,ISIC_0059485.JPG
break,html.Screen,4_19_1,2023-09-17T05:08:29.195Z,,0,,,NaN,,,,,,false,,,,282924.3999999999,282924.0999999996,,282923.5999999996,,282948.36,8,400,,,
break_continue,html.Screen,4_19_2,2023-09-17T05:08:29.196Z,,0,,,NaN,,,,,,false,,,,282924.8999999999,282924.7999999998,,282924.5999999996,,282948.36,8,400,,,
sequence,flow.Sequence,4_19,2023-09-17T05:08:29.196Z,,0,,,3509.843999999808,completion,,,,,false,,,,282925.0999999996,282924.7999999998,279398.289,279412.7999999998,279414.956,282948.36,8,400,,,
trial,html.Screen,4_20_0,2023-09-17T05:08:33.424Z,,0,1,,4204.640000000014,response,ISIC_0026344.JPG,8,ISIC_0014144.JPG,ISIC_0014144.JPG,false,0,keypress(z),500,287153.1999999997,287153,282915.026,282925.2999999998,282948.36,287165.601,8,400,21,,ISIC_0026344.JPG
break,html.Screen,4_20_1,2023-09-17T05:08:33.425Z,,0,,,NaN,,,,,,false,,,,287154.3999999999,287154,,287153.5999999996,,287165.601,8,400,,,
break_continue,html.Screen,4_20_2,2023-09-17T05:08:33.426Z,,0,,,NaN,,,,,,false,,,,287155,287154.8999999999,,287154.5999999996,,287165.601,8,400,,,
sequence,flow.Sequence,4_20,2023-09-17T05:08:33.426Z,,0,,,4206.539999999921,completion,,,,,false,,,,287155.2999999998,287154.8999999999,282915.026,282925.2999999998,282948.36,287165.601,8,400,,,
trial,html.Screen,4_21_0,2023-09-17T05:08:37.058Z,,0,1,,3621.2989999998827,response,ISIC_6330529.JPG,6,ISIC_3649113.JPG,ISIC_3649113.JPG,false,0,keypress(z),500,290787,290786.8999999999,287148.934,287155.5,287165.601,290799.007,8,400,22,,ISIC_6330529.JPG
break,html.Screen,4_21_1,2023-09-17T05:08:37.059Z,,0,,,NaN,,,,,,false,,,,290788.0999999996,290787.7999999998,,290787.2999999998,,290799.007,8,400,,,
break_continue,html.Screen,4_21_2,2023-09-17T05:08:37.059Z,,0,,,NaN,,,,,,false,,,,290788.5999999996,290788.3999999999,,290788.1999999997,,290799.007,8,400,,,
sequence,flow.Sequence,4_21,2023-09-17T05:08:37.059Z,,0,,,3622.7989999998827,completion,,,,,false,,,,290788.7999999998,290788.3999999999,287148.934,287155.3999999999,287165.601,290799.007,8,400,,,
trial,html.Screen,4_22_0,2023-09-17T05:08:40.424Z,,0,1,,3354.1929999997374,response,ISIC_6381785.JPG,7,ISIC_0027764.JPG,ISIC_6381785.JPG,false,1,keypress(m),500,294153.3999999999,294153.1999999997,290782.34,290789,290799.007,294165.741,8,400,23,,ISIC_0027764.JPG
break,html.Screen,4_22_1,2023-09-17T05:08:40.425Z,,0,,,NaN,,,,,,false,,,,294154.2999999998,294154.0999999996,,294153.5999999996,,294165.741,8,400,,,
break_continue,html.Screen,4_22_2,2023-09-17T05:08:40.425Z,,0,,,NaN,,,,,,false,,,,294154.7999999998,294154.6999999997,,294154.5,,294165.741,8,400,,,
sequence,flow.Sequence,4_22,2023-09-17T05:08:40.425Z,,0,,,3355.6929999997374,completion,,,,,false,,,,294155.0999999996,294154.6999999997,290782.34,290788.8999999999,290799.007,294165.741,8,400,,,
trial,html.Screen,4_23_0,2023-09-17T05:08:46.657Z,,0,1,,6220.658999999927,response,ISIC_9130157.JPG,7,ISIC_0002549.JPG,ISIC_0002549.JPG,false,0,keypress(z),500,300386.6999999997,300386.3999999999,294149.074,294155.1999999997,294165.741,300399.692,8,400,24,,ISIC_9130157.JPG
break,html.Screen,4_23_1,2023-09-17T05:08:46.658Z,,0,,,NaN,,,,,,false,,,,300387.5999999996,300387.3999999999,,300386.8999999999,,300399.692,8,400,,,
break_continue,html.Screen,4_23_2,2023-09-17T05:08:46.658Z,,0,,,NaN,,,,,,false,,,,300388.2999999998,300388.0999999996,,300387.8999999999,,300399.692,8,400,,,
sequence,flow.Sequence,4_23,2023-09-17T05:08:46.658Z,,0,,,6222.3589999996475,completion,,,,,false,,,,300388.5,300388.0999999996,294149.074,294155.1999999997,294165.741,300399.692,8,400,,,
trial,html.Screen,4_24_0,2023-09-17T05:08:50.130Z,,0,1,,3460.0079999997397,response,ISIC_4401524.JPG,9,ISIC_8893501.JPG,ISIC_8893501.JPG,false,0,keypress(z),500,303859.8999999999,303859.6999999997,300383.025,300388.5999999996,300399.692,303866.428,8,400,25,,ISIC_4401524.JPG
break,html.Screen,4_24_1,2023-09-17T05:08:50.131Z,,0,,,NaN,,,,,,false,,,,303861,303860.6999999997,,303860.1999999997,,303866.428,8,400,,,
break_continue,html.Screen,4_24_2,2023-09-17T05:08:50.131Z,,0,,,NaN,,,,,,false,,,,303861.5,303861.2999999998,,303861.0999999996,,303866.428,8,400,,,
sequence,flow.Sequence,4_24,2023-09-17T05:08:50.131Z,,0,,,3461.607999999833,completion,,,,,false,,,,303861.6999999997,303861.2999999998,300383.025,300388.5999999996,300399.692,303866.428,8,400,,,
trial,html.Screen,4_25_0,2023-09-17T05:08:53.015Z,,0,1,,2878.4719999998924,response,ISIC_0064761.JPG,5,ISIC_0010397.JPG,ISIC_0064761.JPG,false,1,keypress(m),500,306745.0999999996,306744.8999999999,303849.761,303861.8999999999,303866.428,306749.819,8,400,26,,ISIC_0010397.JPG
break,html.Screen,4_25_1,2023-09-17T05:08:53.016Z,,0,,,NaN,,,,,,false,,,,306746.0999999996,306745.7999999998,,306745.3999999999,,306749.819,8,400,,,
break_continue,html.Screen,4_25_2,2023-09-17T05:08:53.016Z,,0,,,NaN,,,,,,false,,,,306746.6999999997,306746.5999999996,,306746.2999999998,,306749.819,8,400,,,
sequence,flow.Sequence,4_25,2023-09-17T05:08:53.017Z,,0,,,2880.171999999613,completion,,,,,false,,,,306747,306746.5999999996,303849.761,303861.7999999998,303866.428,306749.819,8,400,,,
trial,html.Screen,4_26_0,2023-09-17T05:08:56.124Z,,0,1,,3104.580999999889,response,ISIC_0003438.JPG,6,ISIC_0054329.JPG,ISIC_0054329.JPG,false,0,keypress(z),500,309854.6999999997,309854.3999999999,306733.152,306747.0999999996,306749.819,309867.058,8,400,27,,ISIC_0003438.JPG
break,html.Screen,4_26_1,2023-09-17T05:08:56.125Z,,0,,,NaN,,,,,,false,,,,309855.6999999997,309855.3999999999,,309854.8999999999,,309867.058,8,400,,,
break_continue,html.Screen,4_26_2,2023-09-17T05:08:56.126Z,,0,,,NaN,,,,,,false,,,,309856.0999999996,309856,,309855.7999999998,,309867.058,8,400,,,
sequence,flow.Sequence,4_26,2023-09-17T05:08:56.126Z,,0,,,3106.1809999999823,completion,,,,,false,,,,309856.3999999999,309856,306733.152,306747.0999999996,306749.819,309867.058,8,400,,,
trial,html.Screen,4_27_0,2023-09-17T05:08:59.411Z,,0,1,,3274.941999999981,response,ISIC_7141153.JPG,8,ISIC_0013342.JPG,ISIC_7141153.JPG,false,1,keypress(m),500,313142.0999999996,313142,309850.391,309856.5999999996,309867.058,313150.457,8,400,28,,ISIC_0013342.JPG
break,html.Screen,4_27_1,2023-09-17T05:08:59.412Z,,0,,,NaN,,,,,,false,,,,313143.0999999996,313142.7999999998,,313142.3999999999,,313150.457,8,400,,,
break_continue,html.Screen,4_27_2,2023-09-17T05:08:59.413Z,,0,,,NaN,,,,,,false,,,,313143.5999999996,313143.5,,313143.2999999998,,313150.457,8,400,,,
sequence,flow.Sequence,4_27,2023-09-17T05:08:59.413Z,,0,,,3276.441999999981,completion,,,,,false,,,,313143.7999999998,313143.5,309850.391,309856.5,309867.058,313150.457,8,400,,,
trial,html.Screen,4_28_0,2023-09-17T05:09:02.475Z,,0,1,,3054.7429999997257,response,ISIC_4320200.JPG,6,ISIC_0011135.JPG,ISIC_0011135.JPG,false,0,keypress(z),500,316205.3999999999,316205.1999999997,313133.79,313144,313150.457,316217.185,8,400,29,,ISIC_4320200.JPG
break,html.Screen,4_28_1,2023-09-17T05:09:02.476Z,,0,,,NaN,,,,,,false,,,,316206.3999999999,316206.0999999996,,316205.5999999996,,316217.185,8,400,,,
break_continue,html.Screen,4_28_2,2023-09-17T05:09:02.476Z,,0,,,NaN,,,,,,false,,,,316207,316206.7999999998,,316206.5999999996,,316217.185,8,400,,,
sequence,flow.Sequence,4_28,2023-09-17T05:09:02.476Z,,0,,,3056.342999999819,completion,,,,,false,,,,316207.0999999996,316206.7999999998,313133.79,313143.8999999999,313150.457,316217.185,8,400,,,
trial,html.Screen,4_29_0,2023-09-17T05:09:05.497Z,,0,1,,3010.8150000000023,response,ISIC_0778327.JPG,8,ISIC_0010772.JPG,ISIC_0010772.JPG,false,0,keypress(z),500,319228.2999999998,319228,316200.518,316207.3999999999,316217.185,319234.433,8,400,30,,ISIC_0778327.JPG
break,html.Screen,4_29_1,2023-09-17T05:09:05.498Z,,0,,,NaN,,,,,,false,,,,319229.3999999999,319229.0999999996,,319228.5999999996,,319234.433,8,400,,,
break_continue,html.Screen,4_29_2,2023-09-17T05:09:05.499Z,,0,,,NaN,,,,,,false,,,,319230,319229.8999999999,,319229.5999999996,,319234.433,8,400,,,
sequence,flow.Sequence,4_29,2023-09-17T05:09:05.499Z,,0,,,3012.714999999909,completion,,,,,false,,,,319230.1999999997,319229.8999999999,316200.518,316207.2999999998,316217.185,319234.433,8,400,,,
trial,html.Screen,4_30_0,2023-09-17T05:09:10.240Z,,0,1,,4736.466999999888,response,ISIC_7242542.JPG,6,ISIC_0059411.JPG,ISIC_0059411.JPG,false,0,keypress(z),500,323971.1999999997,323970.8999999999,319217.766,319230.3999999999,319234.433,323984.528,8,400,31,,ISIC_7242542.JPG
break,html.Screen,4_30_1,2023-09-17T05:09:10.241Z,,0,,,NaN,,,,,,false,,,,323972.0999999996,323971.8999999999,,323971.3999999999,,323984.528,8,400,,,
break_continue,html.Screen,4_30_2,2023-09-17T05:09:10.241Z,,0,,,NaN,,,,,,false,,,,323972.6999999997,323972.5,,323972.2999999998,,323984.528,8,400,,,
sequence,flow.Sequence,4_30,2023-09-17T05:09:10.242Z,,0,,,4738.066999999981,completion,,,,,false,,,,323972.7999999998,323972.5,319217.766,319230.2999999998,319234.433,323984.528,8,400,,,
trial,html.Screen,4_31_0,2023-09-17T05:09:14.150Z,,0,1,,3896.1719999997295,response,ISIC_9116323.JPG,5,ISIC_3985782.JPG,ISIC_3985782.JPG,false,0,keypress(z),500,327881.0999999996,327880.6999999997,323967.861,323973.0999999996,323984.528,327884.606,8,400,32,,ISIC_9116323.JPG
break,html.Screen,4_31_1,2023-09-17T05:09:14.151Z,,0,,,NaN,,,,,,false,,,,327882,327881.6999999997,,327881.2999999998,,327884.606,8,400,,,
break_continue,html.Screen,4_31_2,2023-09-17T05:09:14.151Z,,0,,,NaN,,,,,,false,,,,327882.5999999996,327882.3999999999,,327882.1999999997,,327884.606,8,400,,,
sequence,flow.Sequence,4_31,2023-09-17T05:09:14.151Z,,0,,,3897.8719999999157,completion,,,,,false,,,,327882.7999999998,327882.3999999999,323967.861,323972.8999999999,323984.528,327884.606,8,400,,,
trial,html.Screen,4_32_0,2023-09-17T05:09:18.363Z,,0,1,,4209.893999999971,response,ISIC_3179296.JPG,6,ISIC_9927221.JPG,ISIC_3179296.JPG,false,1,keypress(m),500,332094.7999999998,332094.5,327867.939,327883,327884.606,332101.839,8,400,33,,ISIC_9927221.JPG
break,html.Screen,4_32_1,2023-09-17T05:09:18.364Z,,0,,,NaN,,,,,,false,,,,332095.6999999997,332095.3999999999,,332095,,332101.839,8,400,,,
break_continue,html.Screen,4_32_2,2023-09-17T05:09:18.365Z,,0,,,NaN,,,,,,false,,,,332096.2999999998,332096.0999999996,,332095.8999999999,,332101.839,8,400,,,
sequence,flow.Sequence,4_32,2023-09-17T05:09:18.365Z,,0,,,4211.493999999599,completion,,,,,false,,,,332096.5,332096.0999999996,327867.939,327882.8999999999,327884.606,332101.839,8,400,,,
trial,html.Screen,4_33_0,2023-09-17T05:09:23.199Z,,0,1,,4828.8609999997425,response,ISIC_0070137.JPG,6,ISIC_0033317.JPG,ISIC_0033317.JPG,false,0,keypress(z),500,336930.8999999999,336930.6999999997,332085.172,332096.6999999997,332101.839,336935.269,8,400,34,,ISIC_0070137.JPG
break,html.Screen,4_33_1,2023-09-17T05:09:23.200Z,,0,,,NaN,,,,,,false,,,,336932,336931.6999999997,,336931.1999999997,,336935.269,8,400,,,
break_continue,html.Screen,4_33_2,2023-09-17T05:09:23.202Z,,0,,,NaN,,,,,,false,,,,336933.6999999997,336932.3999999999,,336932.0999999996,,336935.269,8,400,,,
sequence,flow.Sequence,4_33,2023-09-17T05:09:23.202Z,,0,,,4830.560999999929,completion,,,,,false,,,,336934,336932.3999999999,332085.172,332096.5999999996,332101.839,336935.269,8,400,,,
trial,html.Screen,4_34_0,2023-09-17T05:09:26.789Z,,0,1,,3585.4309999997495,response,ISIC_0011132.JPG,5,ISIC_4474170.JPG,ISIC_0011132.JPG,false,1,keypress(m),500,340520.8999999999,340520.6999999997,336918.602,336934.1999999997,336935.269,340535.869,8,400,35,,ISIC_4474170.JPG
break,html.Screen,4_34_1,2023-09-17T05:09:26.790Z,,0,,,NaN,,,,,,false,,,,340521.8999999999,340521.5999999996,,340521.1999999997,,340535.869,8,400,,,
break_continue,html.Screen,4_34_2,2023-09-17T05:09:26.790Z,,0,,,NaN,,,,,,false,,,,340522.3999999999,340522.2999999998,,340522.0999999996,,340535.869,8,400,,,
sequence,flow.Sequence,4_34,2023-09-17T05:09:26.791Z,,0,,,3587.0309999998426,completion,,,,,false,,,,340522.6999999997,340522.2999999998,336918.602,336934.1999999997,336935.269,340535.869,8,400,,,
trial,html.Screen,4_35_0,2023-09-17T05:09:31.418Z,,0,1,,4614.630999999994,response,ISIC_1334038.JPG,7,ISIC_0027302.JPG,ISIC_1334038.JPG,false,1,keypress(m),500,345150.7999999998,345150.5,340519.202,340522.8999999999,340535.869,345152.628,8,400,36,,ISIC_0027302.JPG
break,html.Screen,4_35_1,2023-09-17T05:09:31.419Z,,0,,,NaN,,,,,,false,,,,345151.7999999998,345151.5,,345151.0999999996,,345152.628,8,400,,,
break_continue,html.Screen,4_35_2,2023-09-17T05:09:31.420Z,,0,,,NaN,,,,,,false,,,,345152.2999999998,345152.1999999997,,345151.8999999999,,345152.628,8,400,,,
sequence,flow.Sequence,4_35,2023-09-17T05:09:31.420Z,,0,,,4616.330999999715,completion,,,,,false,,,,345152.5,345152.1999999997,340519.202,340522.7999999998,340535.869,345152.628,8,400,,,
trial,html.Screen,4_36_0,2023-09-17T05:09:35.394Z,,0,1,,3973.5719999996945,response,ISIC_3372067.JPG,6,ISIC_0450295.JPG,ISIC_0450295.JPG,false,0,keypress(z),500,349126.3999999999,349126.1999999997,345135.961,345152.6999999997,345152.628,349136.041,8,400,37,,ISIC_3372067.JPG
break,html.Screen,4_36_1,2023-09-17T05:09:35.395Z,,0,,,NaN,,,,,,false,,,,349127.3999999999,349127.0999999996,,349126.6999999997,,349136.041,8,400,,,
break_continue,html.Screen,4_36_2,2023-09-17T05:09:35.395Z,,0,,,NaN,,,,,,false,,,,349127.8999999999,349127.7999999998,,349127.5,,349136.041,8,400,,,
sequence,flow.Sequence,4_36,2023-09-17T05:09:35.396Z,,0,,,3975.1719999997877,completion,,,,,false,,,,349128.0999999996,349127.7999999998,345135.961,345152.5999999996,345152.628,349136.041,8,400,,,
trial,html.Screen,4_37_0,2023-09-17T05:09:38.616Z,,0,1,,3212.058999999601,response,ISIC_4153234.JPG,7,ISIC_0000411.JPG,ISIC_0000411.JPG,false,0,keypress(z),500,352348.3999999999,352348.0999999996,349119.374,349128.1999999997,349136.041,352353.253,8,400,38,,ISIC_4153234.JPG
break,html.Screen,4_37_1,2023-09-17T05:09:38.617Z,,0,,,NaN,,,,,,false,,,,352349.3999999999,352349.0999999996,,352348.5999999996,,352353.253,8,400,,,
break_continue,html.Screen,4_37_2,2023-09-17T05:09:38.617Z,,0,,,NaN,,,,,,false,,,,352349.8999999999,352349.7999999998,,352349.5999999996,,352353.253,8,400,,,
sequence,flow.Sequence,4_37,2023-09-17T05:09:38.617Z,,0,,,3213.758999999787,completion,,,,,false,,,,352350.1999999997,352349.7999999998,349119.374,349128.1999999997,349136.041,352353.253,8,400,,,
trial,html.Screen,4_38_0,2023-09-17T05:09:43.775Z,,0,1,,5154.246999999974,response,ISIC_0024268.JPG,7,ISIC_2166957.JPG,ISIC_2166957.JPG,false,0,keypress(z),500,357507.6999999997,357507.5,352336.586,352350.2999999998,352353.253,357520.023,8,400,39,,ISIC_0024268.JPG
break,html.Screen,4_38_1,2023-09-17T05:09:43.776Z,,0,,,NaN,,,,,,false,,,,357508.6999999997,357508.3999999999,,357508,,357520.023,8,400,,,
break_continue,html.Screen,4_38_2,2023-09-17T05:09:43.776Z,,0,,,NaN,,,,,,false,,,,357509.1999999997,357509.0999999996,,357508.7999999998,,357520.023,8,400,,,
sequence,flow.Sequence,4_38,2023-09-17T05:09:43.776Z,,0,,,5155.846999999601,completion,,,,,false,,,,357509.5,357509.0999999996,352336.586,352350.2999999998,352353.253,357520.023,8,400,,,
trial,html.Screen,4_39_0,2023-09-17T05:09:49.605Z,,0,1,,5817.676999999734,response,ISIC_0030434.JPG,8,ISIC_8397011.JPG,ISIC_8397011.JPG,false,0,keypress(z),500,363337.8999999999,363337.6999999997,357503.356,357509.5999999996,357520.023,363354.045,8,400,40,,ISIC_0030434.JPG
break,html.Screen,4_39_1,2023-09-17T05:09:49.606Z,,0,,,NaN,,,,,,false,,,,363338.8999999999,363338.5999999996,,363338.0999999996,,363354.045,8,400,,,
break_continue,html.Screen,4_39_2,2023-09-17T05:09:49.606Z,,0,,,NaN,,,,,,false,,,,363339.3999999999,363339.2999999998,,363339,,363354.045,8,400,,,
sequence,flow.Sequence,4_39,2023-09-17T05:09:49.606Z,,0,,,5819.276999999827,completion,,,,,false,,,,363339.5999999996,363339.2999999998,357503.356,357509.5999999996,357520.023,363354.045,8,400,,,
trial,html.Screen,4_40_0,2023-09-17T05:09:53.673Z,,0,1,,4052.154999999737,response,ISIC_7605678.JPG,6,ISIC_0026586.JPG,ISIC_7605678.JPG,false,1,keypress(m),500,367406.5,367406.1999999997,363337.378,363339.7999999998,363354.045,367420.793,8,400,41,,ISIC_0026586.JPG
break,html.Screen,4_40_1,2023-09-17T05:09:53.674Z,,0,,,NaN,,,,,,false,,,,367407.5,367407.1999999997,,367406.7999999998,,367420.793,8,400,,,
break_continue,html.Screen,4_40_2,2023-09-17T05:09:53.675Z,,0,,,NaN,,,,,,false,,,,367408.0999999996,367407.8999999999,,367407.6999999997,,367420.793,8,400,,,
sequence,flow.Sequence,4_40,2023-09-17T05:09:53.675Z,,0,,,4053.854999999923,completion,,,,,false,,,,367408.2999999998,367407.8999999999,363337.378,363339.6999999997,363354.045,367420.793,8,400,,,
trial,html.Screen,4_41_0,2023-09-17T05:09:56.710Z,,0,1,,3022.1069999999017,response,ISIC_0781315.JPG,7,ISIC_0012740.JPG,ISIC_0781315.JPG,false,1,keypress(m),500,370443.1999999997,370442.8999999999,367404.126,367408.5,367420.793,370454.187,8,400,42,,ISIC_0012740.JPG
break,html.Screen,4_41_1,2023-09-17T05:09:56.710Z,,0,,,NaN,,,,,,false,,,,370444.1999999997,370443.8999999999,,370443.3999999999,,370454.187,8,400,,,
break_continue,html.Screen,4_41_2,2023-09-17T05:09:56.711Z,,0,,,NaN,,,,,,false,,,,370444.6999999997,370444.5,,370444.2999999998,,370454.187,8,400,,,
sequence,flow.Sequence,4_41,2023-09-17T05:09:56.711Z,,0,,,3023.706999999995,completion,,,,,false,,,,370444.8999999999,370444.5,367404.126,367408.3999999999,367420.793,370454.187,8,400,,,
trial,html.Screen,4_42_0,2023-09-17T05:09:59.578Z,,0,1,,2857.3130000000237,response,ISIC_0069093.JPG,6,ISIC_0055282.JPG,ISIC_0055282.JPG,false,0,keypress(z),500,373311.7999999998,373311.5,370437.52,370445.0999999996,370454.187,373338.082,8,400,43,,ISIC_0069093.JPG
break,html.Screen,4_42_1,2023-09-17T05:09:59.579Z,,0,,,NaN,,,,,,false,,,,373312.6999999997,373312.3999999999,,373312.0999999996,,373338.082,8,400,,,
break_continue,html.Screen,4_42_2,2023-09-17T05:09:59.579Z,,0,,,NaN,,,,,,false,,,,373313.1999999997,373313.0999999996,,373312.7999999998,,373338.082,8,400,,,
sequence,flow.Sequence,4_42,2023-09-17T05:09:59.580Z,,0,,,2858.912999999651,completion,,,,,false,,,,373313.5,373313.0999999996,370437.52,370445,370454.187,373338.082,8,400,,,
trial,html.Screen,4_43_0,2023-09-17T05:10:03.189Z,,0,1,,3584.918000000005,response,ISIC_0027155.JPG,6,ISIC_0028024.JPG,ISIC_0027155.JPG,false,1,keypress(m),500,376923.2999999998,376923,373321.415,373313.5999999996,373338.082,376938.154,8,400,44,,ISIC_0028024.JPG
break,html.Screen,4_43_1,2023-09-17T05:10:03.190Z,,0,,,NaN,,,,,,false,,,,376924.2999999998,376924,,376923.5,,376938.154,8,400,,,
break_continue,html.Screen,4_43_2,2023-09-17T05:10:03.191Z,,0,,,NaN,,,,,,false,,,,376924.7999999998,376924.5999999996,,376924.3999999999,,376938.154,8,400,,,
sequence,flow.Sequence,4_43,2023-09-17T05:10:03.191Z,,0,,,3586.5179999996326,completion,,,,,false,,,,376924.8999999999,376924.5999999996,373321.415,373313.5,373338.082,376938.154,8,400,,,
trial,html.Screen,4_44_0,2023-09-17T05:10:06.025Z,,0,1,,2820.6459999998333,response,ISIC_9332795.JPG,4,ISIC_0054377.JPG,ISIC_0054377.JPG,false,0,keypress(z),500,379759.0999999996,379758.7999999998,376921.487,376925.1999999997,376938.154,379771.544,8,400,45,,ISIC_9332795.JPG
break,html.Screen,4_44_1,2023-09-17T05:10:06.026Z,,0,,,NaN,,,,,,false,,,,379760,379759.7999999998,,379759.2999999998,,379771.544,8,400,,,
break_continue,html.Screen,4_44_2,2023-09-17T05:10:06.026Z,,0,,,NaN,,,,,,false,,,,379760.5,379760.3999999999,,379760.1999999997,,379771.544,8,400,,,
sequence,flow.Sequence,4_44,2023-09-17T05:10:06.027Z,,0,,,2822.2459999999264,completion,,,,,false,,,,379760.6999999997,379760.3999999999,376921.487,376925.0999999996,376938.154,379771.544,8,400,,,
trial,html.Screen,4_45_0,2023-09-17T05:10:08.757Z,,0,1,,2719.8559999999125,response,ISIC_0695029.JPG,7,ISIC_0013817.JPG,ISIC_0695029.JPG,false,1,keypress(m),500,382491.5999999996,382491.3999999999,379754.877,379760.7999999998,379771.544,382504.932,8,400,46,,ISIC_0013817.JPG
break,html.Screen,4_45_1,2023-09-17T05:10:08.758Z,,0,,,NaN,,,,,,false,,,,382492.5999999996,382492.1999999997,,382491.7999999998,,382504.932,8,400,,,
break_continue,html.Screen,4_45_2,2023-09-17T05:10:08.759Z,,0,,,NaN,,,,,,false,,,,382493.0999999996,382492.8999999999,,382492.6999999997,,382504.932,8,400,,,
sequence,flow.Sequence,4_45,2023-09-17T05:10:08.759Z,,0,,,2721.3559999999125,completion,,,,,false,,,,382493.2999999998,382492.8999999999,379754.877,379760.7999999998,379771.544,382504.932,8,400,,,
trial,html.Screen,4_46_0,2023-09-17T05:10:13.578Z,,0,1,,4807.267999999749,response,ISIC_2394780.JPG,8,ISIC_1937197.JPG,ISIC_1937197.JPG,false,0,keypress(z),500,387312.5,387312.1999999997,382488.265,382493.5,382504.932,387322.186,8,400,47,,ISIC_2394780.JPG
break,html.Screen,4_46_1,2023-09-17T05:10:13.579Z,,0,,,NaN,,,,,,false,,,,387313.3999999999,387313.1999999997,,387312.6999999997,,387322.186,8,400,,,
break_continue,html.Screen,4_46_2,2023-09-17T05:10:13.579Z,,0,,,NaN,,,,,,false,,,,387314,387313.7999999998,,387313.5999999996,,387322.186,8,400,,,
sequence,flow.Sequence,4_46,2023-09-17T05:10:13.580Z,,0,,,4808.867999999842,completion,,,,,false,,,,387314.1999999997,387313.7999999998,382488.265,382493.3999999999,382504.932,387322.186,8,400,,,
trial,html.Screen,4_47_0,2023-09-17T05:10:17.872Z,,0,1,,4284.814000000013,response,ISIC_7380353.JPG,5,ISIC_0059866.JPG,ISIC_0059866.JPG,false,0,keypress(z),500,391607.1999999997,391607,387305.519,387314.2999999998,387322.186,391622.272,8,400,48,,ISIC_7380353.JPG
break,html.Screen,4_47_1,2023-09-17T05:10:17.873Z,,0,,,NaN,,,,,,false,,,,391608.1999999997,391607.8999999999,,391607.3999999999,,391622.272,8,400,,,
break_continue,html.Screen,4_47_2,2023-09-17T05:10:17.874Z,,0,,,NaN,,,,,,false,,,,391608.7999999998,391608.5,,391608.3999999999,,391622.272,8,400,,,
sequence,flow.Sequence,4_47,2023-09-17T05:10:17.874Z,,0,,,4286.314000000013,completion,,,,,false,,,,391608.8999999999,391608.5,387305.519,387314.2999999998,387322.186,391622.272,8,400,,,
trial,html.Screen,4_48_0,2023-09-17T05:10:21.239Z,,0,1,,3351.0279999998165,response,ISIC_0620587.JPG,6,ISIC_0028472.JPG,ISIC_0620587.JPG,false,1,keypress(m),500,394973.5999999996,394973.2999999998,391605.605,391609.0999999996,391622.272,394989.542,8,400,49,,ISIC_0028472.JPG
break,html.Screen,4_48_1,2023-09-17T05:10:21.240Z,,0,,,NaN,,,,,,false,,,,394974.5,394974.2999999998,,394973.7999999998,,394989.542,8,400,,,
break_continue,html.Screen,4_48_2,2023-09-17T05:10:21.240Z,,0,,,NaN,,,,,,false,,,,394975.0999999996,394974.8999999999,,394974.6999999997,,394989.542,8,400,,,
sequence,flow.Sequence,4_48,2023-09-17T05:10:21.240Z,,0,,,3352.6279999999097,completion,,,,,false,,,,394975.2999999998,394974.8999999999,391605.605,391609,391622.272,394989.542,8,400,,,
trial,html.Screen,4_49_0,2023-09-17T05:10:26.058Z,,0,1,,4803.357999999891,response,ISIC_0033405.JPG,8,ISIC_0010767.JPG,ISIC_0010767.JPG,false,0,keypress(z),500,399793.1999999997,399792.8999999999,394972.875,394975.5,394989.542,399806.305,8,400,50,,ISIC_0033405.JPG
break,html.Screen,4_49_1,2023-09-17T05:10:36.059Z,,0,,,10000.676000000036,timeout,,,,,false,,,,409795.0999999996,409790.314,399789.638,399793.3999999999,399806.305,409806.981,8,400,,,
break_continue,html.Screen,4_49_2,2023-09-17T05:10:37.189Z,,0,,,1100.2189999996917,response,,,,,false,continue,keypress(Space),,410924.8999999999,410907.1999999997,409790.314,409795.3999999999,409806.981,410940.337,8,400,,,
sequence,flow.Sequence,4_49,2023-09-17T05:10:37.189Z,,0,,,15917.657999999705,completion,,,,,false,,,,410925.0999999996,410907.1999999997,394972.875,394975.5,394989.542,410940.337,8,400,,,
trial,html.Screen,4_50_0,2023-09-17T05:10:40.219Z,,0,2,,3014.262999999628,response,ISIC_0029910.JPG,8,ISIC_7945429.JPG,ISIC_7945429.JPG,false,0,keypress(z),500,413954.8999999999,413954.5999999996,410923.67,410925.1999999997,410940.337,413957.064,8,400,1,,ISIC_0029910.JPG
break,html.Screen,4_50_1,2023-09-17T05:10:40.220Z,,0,,,NaN,,,,,,false,,,,413955.8999999999,413955.5999999996,,413955,,413957.064,8,400,,,
break_continue,html.Screen,4_50_2,2023-09-17T05:10:40.220Z,,0,,,NaN,,,,,,false,,,,413956.3999999999,413956.2999999998,,413956,,413957.064,8,400,,,
sequence,flow.Sequence,4_50,2023-09-17T05:10:40.221Z,,0,,,3015.962999999814,completion,,,,,false,,,,413956.5999999996,413956.2999999998,410923.67,410925.1999999997,410940.337,413957.064,8,400,,,
trial,html.Screen,4_51_0,2023-09-17T05:10:44.175Z,,0,2,,3954.0359999996144,response,ISIC_0011398.JPG,6,ISIC_0068116.JPG,ISIC_0068116.JPG,false,0,keypress(z),500,417911.3999999999,417911.0999999996,413940.397,413956.7999999998,413957.064,417924.307,8,400,2,,ISIC_0011398.JPG
break,html.Screen,4_51_1,2023-09-17T05:10:44.176Z,,0,,,NaN,,,,,,false,,,,417912.2999999998,417912,,417911.5999999996,,417924.307,8,400,,,
break_continue,html.Screen,4_51_2,2023-09-17T05:10:44.177Z,,0,,,NaN,,,,,,false,,,,417912.8999999999,417912.6999999997,,417912.5,,417924.307,8,400,,,
sequence,flow.Sequence,4_51,2023-09-17T05:10:44.177Z,,0,,,3955.6359999997076,completion,,,,,false,,,,417913.0999999996,417912.6999999997,413940.397,413956.6999999997,413957.064,417924.307,8,400,,,
trial,html.Screen,4_52_0,2023-09-17T05:10:47.558Z,,0,2,,3369.5929999999353,response,ISIC_0065590.JPG,6,ISIC_0032604.JPG,ISIC_0065590.JPG,false,1,keypress(m),500,421294.0999999996,421293.8999999999,417907.64,417913.2999999998,417924.307,421307.708,8,400,3,,ISIC_0032604.JPG
break,html.Screen,4_52_1,2023-09-17T05:10:47.559Z,,0,,,NaN,,,,,,false,,,,421295.1999999997,421294.7999999998,,421294.3999999999,,421307.708,8,400,,,
break_continue,html.Screen,4_52_2,2023-09-17T05:10:47.559Z,,0,,,NaN,,,,,,false,,,,421295.6999999997,421295.5,,421295.2999999998,,421307.708,8,400,,,
sequence,flow.Sequence,4_52,2023-09-17T05:10:47.560Z,,0,,,3371.1930000000284,completion,,,,,false,,,,421296,421295.5,417907.64,417913.1999999997,417924.307,421307.708,8,400,,,
trial,html.Screen,4_53_0,2023-09-17T05:10:52.045Z,,0,2,,4473.292000000016,response,ISIC_0028554.JPG,6,ISIC_5393367.JPG,ISIC_0028554.JPG,false,1,keypress(m),500,425781.3999999999,425781,421291.041,421296.1999999997,421307.708,425791.621,8,400,4,,ISIC_5393367.JPG
break,html.Screen,4_53_1,2023-09-17T05:10:52.046Z,,0,,,NaN,,,,,,false,,,,425782.1999999997,425782,,425781.5,,425791.621,8,400,,,
break_continue,html.Screen,4_53_2,2023-09-17T05:10:52.046Z,,0,,,NaN,,,,,,false,,,,425782.7999999998,425782.5999999996,,425782.3999999999,,425791.621,8,400,,,
sequence,flow.Sequence,4_53,2023-09-17T05:10:52.046Z,,0,,,4474.891999999643,completion,,,,,false,,,,425783,425782.5999999996,421291.041,421296.1999999997,421307.708,425791.621,8,400,,,
trial,html.Screen,4_54_0,2023-09-17T05:10:55.131Z,,0,2,,3075.978999999643,response,ISIC_0069668.JPG,7,ISIC_0025020.JPG,ISIC_0069668.JPG,false,1,keypress(m),500,428867.8999999999,428867.5999999996,425774.954,425783.1999999997,425791.621,428875.016,8,400,5,,ISIC_0025020.JPG
break,html.Screen,4_54_1,2023-09-17T05:10:55.132Z,,0,,,NaN,,,,,,false,,,,428868.8999999999,428868.5999999996,,428868.1999999997,,428875.016,8,400,,,
break_continue,html.Screen,4_54_2,2023-09-17T05:10:55.133Z,,0,,,NaN,,,,,,false,,,,428869.2999999998,428869.1999999997,,428869,,428875.016,8,400,,,
sequence,flow.Sequence,4_54,2023-09-17T05:10:55.133Z,,0,,,3077.578999999736,completion,,,,,false,,,,428869.5999999996,428869.1999999997,425774.954,425783.0999999996,425791.621,428875.016,8,400,,,
trial,html.Screen,4_55_0,2023-09-17T05:10:58.322Z,,0,2,,3183.2839999998105,response,ISIC_0062713.JPG,8,ISIC_9048507.JPG,ISIC_0062713.JPG,false,1,keypress(m),500,432058.3999999999,432058.2999999998,428858.349,428869.7999999998,428875.016,432075.08,8,400,6,,ISIC_9048507.JPG
break,html.Screen,4_55_1,2023-09-17T05:10:58.322Z,,0,,,NaN,,,,,,false,,,,432059.1999999997,432059.0999999996,,432058.5999999996,,432075.08,8,400,,,
break_continue,html.Screen,4_55_2,2023-09-17T05:10:58.323Z,,0,,,NaN,,,,,,false,,,,432059.6999999997,432059.5999999996,,432059.3999999999,,432075.08,8,400,,,
sequence,flow.Sequence,4_55,2023-09-17T05:10:58.323Z,,0,,,3184.583999999624,completion,,,,,false,,,,432059.8999999999,432059.5999999996,428858.349,428869.6999999997,428875.016,432075.08,8,400,,,
trial,html.Screen,4_56_0,2023-09-17T05:11:01.495Z,,0,2,,3157.019999999611,response,ISIC_0706692.JPG,4,ISIC_1977265.JPG,ISIC_1977265.JPG,false,0,keypress(z),500,435232.3999999999,435232.0999999996,432058.413,432060.3999999999,432075.08,435241.81,8,400,7,,ISIC_0706692.JPG
break,html.Screen,4_56_1,2023-09-17T05:11:01.496Z,,0,,,NaN,,,,,,false,,,,435233.1999999997,435232.8999999999,,435232.5,,435241.81,8,400,,,
break_continue,html.Screen,4_56_2,2023-09-17T05:11:01.497Z,,0,,,NaN,,,,,,false,,,,435233.7999999998,435233.6999999997,,435233.3999999999,,435241.81,8,400,,,
sequence,flow.Sequence,4_56,2023-09-17T05:11:01.497Z,,0,,,3158.6199999997043,completion,,,,,false,,,,435234,435233.6999999997,432058.413,432060.1999999997,432075.08,435241.81,8,400,,,
trial,html.Screen,4_57_0,2023-09-17T05:11:04.717Z,,0,2,,3212.089999999909,response,ISIC_4654443.JPG,5,ISIC_2555494.JPG,ISIC_2555494.JPG,false,0,keypress(z),500,438454.1999999997,438453.8999999999,435225.143,435234.1999999997,435241.81,438459.031,8,400,8,,ISIC_4654443.JPG
break,html.Screen,4_57_1,2023-09-17T05:11:04.718Z,,0,,,NaN,,,,,,false,,,,438455.0999999996,438454.7999999998,,438454.3999999999,,438459.031,8,400,,,
break_continue,html.Screen,4_57_2,2023-09-17T05:11:04.718Z,,0,,,NaN,,,,,,false,,,,438455.6999999997,438455.5,,438455.2999999998,,438459.031,8,400,,,
sequence,flow.Sequence,4_57,2023-09-17T05:11:04.719Z,,0,,,3213.6900000000023,completion,,,,,false,,,,438455.7999999998,438455.5,435225.143,435234.0999999996,435241.81,438459.031,8,400,,,
trial,html.Screen,4_58_0,2023-09-17T05:11:08.276Z,,0,2,,3553.7689999997965,response,ISIC_2316159.JPG,6,ISIC_4348994.JPG,ISIC_2316159.JPG,false,1,keypress(m),500,442013,442012.7999999998,438442.364,438456,438459.031,442025.769,8,400,9,,ISIC_4348994.JPG
break,html.Screen,4_58_1,2023-09-17T05:11:08.276Z,,0,,,NaN,,,,,,false,,,,442013.8999999999,442013.5999999996,,442013.1999999997,,442025.769,8,400,,,
break_continue,html.Screen,4_58_2,2023-09-17T05:11:08.277Z,,0,,,NaN,,,,,,false,,,,442014.3999999999,442014.1999999997,,442014,,442025.769,8,400,,,
sequence,flow.Sequence,4_58,2023-09-17T05:11:08.277Z,,0,,,3555.1689999997034,completion,,,,,false,,,,442014.5999999996,442014.1999999997,438442.364,438456,438459.031,442025.769,8,400,,,
trial,html.Screen,4_59_0,2023-09-17T05:11:11.945Z,,0,2,,3656.231000000029,response,ISIC_5258657.JPG,6,ISIC_0031202.JPG,ISIC_0031202.JPG,false,0,keypress(z),500,445683.0999999996,445682,442009.102,442014.6999999997,442025.769,445692.509,8,400,10,,ISIC_5258657.JPG
break,html.Screen,4_59_1,2023-09-17T05:11:11.946Z,,0,,,NaN,,,,,,false,,,,445684,445683.7999999998,,445683.3999999999,,445692.509,8,400,,,
break_continue,html.Screen,4_59_2,2023-09-17T05:11:11.947Z,,0,,,NaN,,,,,,false,,,,445684.5,445684.2999999998,,445684.0999999996,,445692.509,8,400,,,
sequence,flow.Sequence,4_59,2023-09-17T05:11:11.947Z,,0,,,3658.5309999998426,completion,,,,,false,,,,445684.6999999997,445684.2999999998,442009.102,442014.6999999997,442025.769,445692.509,8,400,,,
trial,html.Screen,4_60_0,2023-09-17T05:11:15.409Z,,0,2,,3453.6909999997006,response,ISIC_2547431.JPG,8,ISIC_0009958.JPG,ISIC_0009958.JPG,false,0,keypress(z),500,449146.3999999999,449146.1999999997,445675.842,445684.7999999998,445692.509,449159.723,8,400,11,,ISIC_2547431.JPG
break,html.Screen,4_60_1,2023-09-17T05:11:15.410Z,,0,,,NaN,,,,,,false,,,,449147.2999999998,449147.0999999996,,449146.5999999996,,449159.723,8,400,,,
break_continue,html.Screen,4_60_2,2023-09-17T05:11:15.410Z,,0,,,NaN,,,,,,false,,,,449147.7999999998,449147.6999999997,,449147.3999999999,,449159.723,8,400,,,
sequence,flow.Sequence,4_60,2023-09-17T05:11:15.410Z,,0,,,3455.1909999997006,completion,,,,,false,,,,449148,449147.6999999997,445675.842,445684.7999999998,445692.509,449159.723,8,400,,,
trial,html.Screen,4_61_0,2023-09-17T05:11:18.904Z,,0,2,,3481.8769999996293,response,ISIC_0000078.JPG,6,ISIC_0033519.JPG,ISIC_0000078.JPG,false,1,keypress(m),500,452641.7999999998,452641.5999999996,449143.056,449148.2999999998,449159.723,452643.126,8,400,12,,ISIC_0033519.JPG
break,html.Screen,4_61_1,2023-09-17T05:11:18.905Z,,0,,,NaN,,,,,,false,,,,452642.6999999997,452642.5,,452642,,452643.126,8,400,,,
break_continue,html.Screen,4_61_2,2023-09-17T05:11:18.905Z,,0,,,NaN,,,,,,false,,,,452643.3999999999,452643.1999999997,,452643,,452643.126,8,400,,,
sequence,flow.Sequence,4_61,2023-09-17T05:11:18.906Z,,0,,,3483.4769999997225,completion,,,,,false,,,,452643.5,452643.1999999997,449143.056,449148.1999999997,449159.723,452643.126,8,400,,,
trial,html.Screen,4_62_0,2023-09-17T05:11:22.191Z,,0,2,,3285.8740000000107,response,ISIC_0034166.JPG,5,ISIC_1115013.JPG,ISIC_0034166.JPG,false,1,keypress(m),500,455929.2999999998,455929,452626.459,452643.6999999997,452643.126,455943.192,8,400,13,,ISIC_1115013.JPG
break,html.Screen,4_62_1,2023-09-17T05:11:22.192Z,,0,,,NaN,,,,,,false,,,,455930.1999999997,455929.8999999999,,455929.5,,455943.192,8,400,,,
break_continue,html.Screen,4_62_2,2023-09-17T05:11:22.193Z,,0,,,NaN,,,,,,false,,,,455930.6999999997,455930.5,,455930.1999999997,,455943.192,8,400,,,
sequence,flow.Sequence,4_62,2023-09-17T05:11:22.193Z,,0,,,3287.3740000000107,completion,,,,,false,,,,455930.7999999998,455930.5,452626.459,452643.6999999997,452643.126,455943.192,8,400,,,
trial,html.Screen,4_63_0,2023-09-17T05:11:25.603Z,,0,2,,3397.4079999996466,response,ISIC_0057759.JPG,9,ISIC_8655206.JPG,ISIC_0057759.JPG,false,1,keypress(m),500,459340.8999999999,459340.5999999996,455926.525,455931,455943.192,459343.746,8,400,14,,ISIC_8655206.JPG
break,html.Screen,4_63_1,2023-09-17T05:11:25.604Z,,0,,,NaN,,,,,,false,,,,459341.7999999998,459341.5999999996,,459341.0999999996,,459343.746,8,400,,,
break_continue,html.Screen,4_63_2,2023-09-17T05:11:25.604Z,,0,,,NaN,,,,,,false,,,,459342.3999999999,459342.1999999997,,459342,,459343.746,8,400,,,
sequence,flow.Sequence,4_63,2023-09-17T05:11:25.604Z,,0,,,3399.0079999997397,completion,,,,,false,,,,459342.5999999996,459342.1999999997,455926.525,455931,455943.192,459343.746,8,400,,,
trial,html.Screen,4_64_0,2023-09-17T05:11:29.074Z,,0,2,,3468.2540000000154,response,ISIC_0029914.JPG,5,ISIC_0003046.JPG,ISIC_0029914.JPG,false,1,keypress(m),500,462812.1999999997,462812,459327.079,459342.6999999997,459343.746,462827.149,8,400,15,,ISIC_0003046.JPG
break,html.Screen,4_64_1,2023-09-17T05:11:29.075Z,,0,,,NaN,,,,,,false,,,,462813.1999999997,462813,,462812.5,,462827.149,8,400,,,
break_continue,html.Screen,4_64_2,2023-09-17T05:11:29.075Z,,0,,,NaN,,,,,,false,,,,462813.7999999998,462813.6999999997,,462813.3999999999,,462827.149,8,400,,,
sequence,flow.Sequence,4_64,2023-09-17T05:11:29.075Z,,0,,,3469.953999999736,completion,,,,,false,,,,462814,462813.6999999997,459327.079,459342.6999999997,459343.746,462827.149,8,400,,,
trial,html.Screen,4_65_0,2023-09-17T05:11:32.455Z,,0,2,,3365.9509999996517,response,ISIC_9881460.JPG,7,ISIC_0026008.JPG,ISIC_0026008.JPG,false,0,keypress(z),500,466193.2999999998,466193.0999999996,462810.482,462814.0999999996,462827.149,466210.55,8,400,16,,ISIC_9881460.JPG
break,html.Screen,4_65_1,2023-09-17T05:11:32.456Z,,0,,,NaN,,,,,,false,,,,466194.2999999998,466194,,466193.5,,466210.55,8,400,,,
break_continue,html.Screen,4_65_2,2023-09-17T05:11:32.456Z,,0,,,NaN,,,,,,false,,,,466194.7999999998,466194.6999999997,,466194.3999999999,,466210.55,8,400,,,
sequence,flow.Sequence,4_65,2023-09-17T05:11:32.456Z,,0,,,3367.550999999745,completion,,,,,false,,,,466195.0999999996,466194.6999999997,462810.482,462814.0999999996,462827.149,466210.55,8,400,,,
trial,html.Screen,4_66_0,2023-09-17T05:11:35.401Z,,0,2,,2928.7499999998254,response,ISIC_0010664.JPG,9,ISIC_0273046.JPG,ISIC_0010664.JPG,false,1,keypress(m),500,469139.5999999996,469139.2999999998,466193.883,466195.2999999998,466210.55,469144.43,8,400,17,,ISIC_0273046.JPG
break,html.Screen,4_66_1,2023-09-17T05:11:35.402Z,,0,,,NaN,,,,,,false,,,,469140.5999999996,469140.2999999998,,469139.7999999998,,469144.43,8,400,,,
break_continue,html.Screen,4_66_2,2023-09-17T05:11:35.402Z,,0,,,NaN,,,,,,false,,,,469141.0999999996,469141,,469140.6999999997,,469144.43,8,400,,,
sequence,flow.Sequence,4_66,2023-09-17T05:11:35.402Z,,0,,,2930.4500000000116,completion,,,,,false,,,,469141.2999999998,469141,466193.883,466195.0999999996,466210.55,469144.43,8,400,,,
trial,html.Screen,4_67_0,2023-09-17T05:11:38.334Z,,0,2,,2928.2699999997276,response,ISIC_5486725.JPG,9,ISIC_2621288.JPG,ISIC_5486725.JPG,false,1,keypress(m),500,472072.8999999999,472072.6999999997,469127.763,469141.5,469144.43,472077.822,8,400,18,,ISIC_2621288.JPG
break,html.Screen,4_67_1,2023-09-17T05:11:38.335Z,,0,,,NaN,,,,,,false,,,,472073.8999999999,472073.5999999996,,472073.0999999996,,472077.822,8,400,,,
break_continue,html.Screen,4_67_2,2023-09-17T05:11:38.335Z,,0,,,NaN,,,,,,false,,,,472074.3999999999,472074.2999999998,,472074.0999999996,,472077.822,8,400,,,
sequence,flow.Sequence,4_67,2023-09-17T05:11:38.336Z,,0,,,2929.8699999998207,completion,,,,,false,,,,472074.6999999997,472074.2999999998,469127.763,469141.3999999999,469144.43,472077.822,8,400,,,
trial,html.Screen,4_68_0,2023-09-17T05:11:41.490Z,,0,2,,3150.977999999828,response,ISIC_0033273.JPG,8,ISIC_4718313.JPG,ISIC_0033273.JPG,false,1,keypress(m),500,475229.0999999996,475228.7999999998,472061.155,472074.7999999998,472077.822,475244.552,8,400,19,,ISIC_4718313.JPG
break,html.Screen,4_68_1,2023-09-17T05:11:41.491Z,,0,,,NaN,,,,,,false,,,,475230.0999999996,475229.7999999998,,475229.2999999998,,475244.552,8,400,,,
break_continue,html.Screen,4_68_2,2023-09-17T05:11:41.491Z,,0,,,NaN,,,,,,false,,,,475230.5999999996,475230.5,,475230.1999999997,,475244.552,8,400,,,
sequence,flow.Sequence,4_68,2023-09-17T05:11:41.492Z,,0,,,3152.6780000000144,completion,,,,,false,,,,475230.7999999998,475230.5,472061.155,472074.6999999997,472077.822,475244.552,8,400,,,
trial,html.Screen,4_69_0,2023-09-17T05:11:45.697Z,,0,2,,4191.947999999975,response,ISIC_0030943.JPG,8,ISIC_6001716.JPG,ISIC_0030943.JPG,false,1,keypress(m),500,479436.6999999997,479436.5,475227.885,475231,475244.552,479445.112,8,400,20,,ISIC_6001716.JPG
break,html.Screen,4_69_1,2023-09-17T05:11:45.698Z,,0,,,NaN,,,,,,false,,,,479437.6999999997,479437.3999999999,,479436.8999999999,,479445.112,8,400,,,
break_continue,html.Screen,4_69_2,2023-09-17T05:11:45.699Z,,0,,,NaN,,,,,,false,,,,479438.1999999997,479438.0999999996,,479437.7999999998,,479445.112,8,400,,,
sequence,flow.Sequence,4_69,2023-09-17T05:11:45.699Z,,0,,,4193.547999999602,completion,,,,,false,,,,479438.3999999999,479438.0999999996,475227.885,475231,475244.552,479445.112,8,400,,,
trial,html.Screen,4_70_0,2023-09-17T05:11:48.871Z,,0,2,,3165.587999999698,response,ISIC_0025579.JPG,7,ISIC_5877211.JPG,ISIC_5877211.JPG,false,0,keypress(z),500,482610.8999999999,482610.6999999997,479428.445,479438.5999999996,479445.112,482611.842,8,400,21,,ISIC_0025579.JPG
break,html.Screen,4_70_1,2023-09-17T05:11:48.872Z,,0,,,NaN,,,,,,false,,,,482611.8999999999,482611.5999999996,,482611.0999999996,,482611.842,8,400,,,
break_continue,html.Screen,4_70_2,2023-09-17T05:11:48.873Z,,0,,,NaN,,,,,,false,,,,482612.3999999999,482612.2999999998,,482612.0999999996,,482611.842,8,400,,,
sequence,flow.Sequence,4_70,2023-09-17T05:11:48.873Z,,0,,,3167.187999999791,completion,,,,,false,,,,482612.5999999996,482612.2999999998,479428.445,479438.5999999996,479445.112,482611.842,8,400,,,
trial,html.Screen,4_71_0,2023-09-17T05:11:53.163Z,,0,2,,4290.757999999623,response,ISIC_0011501.JPG,8,ISIC_9910791.JPG,ISIC_9910791.JPG,false,0,keypress(z),500,486902.7999999998,486902.5999999996,482595.175,482612.6999999997,482611.842,486912.41,8,400,22,,ISIC_0011501.JPG
break,html.Screen,4_71_1,2023-09-17T05:11:53.164Z,,0,,,NaN,,,,,,false,,,,486903.7999999998,486903.5,,486903.0999999996,,486912.41,8,400,,,
break_continue,html.Screen,4_71_2,2023-09-17T05:11:53.164Z,,0,,,NaN,,,,,,false,,,,486904.1999999997,486904.0999999996,,486903.8999999999,,486912.41,8,400,,,
sequence,flow.Sequence,4_71,2023-09-17T05:11:53.165Z,,0,,,4292.257999999623,completion,,,,,false,,,,486904.5,486904.0999999996,482595.175,482612.6999999997,482611.842,486912.41,8,400,,,
trial,html.Screen,4_72_0,2023-09-17T05:11:56.018Z,,0,2,,2844.8899999998393,response,ISIC_5507066.JPG,6,ISIC_0014222.JPG,ISIC_0014222.JPG,false,0,keypress(z),500,489757.5,489757.2999999998,486895.743,486904.5999999996,486912.41,489762.467,8,400,23,,ISIC_5507066.JPG
break,html.Screen,4_72_1,2023-09-17T05:11:56.019Z,,0,,,NaN,,,,,,false,,,,489758.5,489758.1999999997,,489757.7999999998,,489762.467,8,400,,,
break_continue,html.Screen,4_72_2,2023-09-17T05:11:56.019Z,,0,,,NaN,,,,,,false,,,,489759.2999999998,489759.0999999996,,489758.6999999997,,489762.467,8,400,,,
sequence,flow.Sequence,4_72,2023-09-17T05:11:56.020Z,,0,,,2846.689999999653,completion,,,,,false,,,,489759.5,489759.0999999996,486895.743,486904.5999999996,486912.41,489762.467,8,400,,,
trial,html.Screen,4_73_0,2023-09-17T05:11:59.529Z,,0,2,,3506.4329999999027,response,ISIC_6767569.JPG,8,ISIC_0068460.JPG,ISIC_0068460.JPG,false,0,keypress(z),500,493269.0999999996,493268.8999999999,489745.8,489759.5999999996,489762.467,493279.204,8,400,24,,ISIC_6767569.JPG
break,html.Screen,4_73_1,2023-09-17T05:11:59.530Z,,0,,,NaN,,,,,,false,,,,493270.1999999997,493269.8999999999,,493269.2999999998,,493279.204,8,400,,,
break_continue,html.Screen,4_73_2,2023-09-17T05:11:59.531Z,,0,,,NaN,,,,,,false,,,,493270.6999999997,493270.5999999996,,493270.2999999998,,493279.204,8,400,,,
sequence,flow.Sequence,4_73,2023-09-17T05:11:59.531Z,,0,,,3508.1329999996233,completion,,,,,false,,,,493270.8999999999,493270.5999999996,489745.8,489759.5999999996,489762.467,493279.204,8,400,,,
trial,html.Screen,4_74_0,2023-09-17T05:12:02.624Z,,0,2,,3084.69599999988,response,ISIC_0248628.JPG,8,ISIC_0070463.JPG,ISIC_0248628.JPG,false,1,keypress(m),500,496364.0999999996,496363.8999999999,493262.537,493271,493279.204,496379.266,8,400,25,,ISIC_0070463.JPG
break,html.Screen,4_74_1,2023-09-17T05:12:02.625Z,,0,,,NaN,,,,,,false,,,,496365.0999999996,496364.8999999999,,496364.2999999998,,496379.266,8,400,,,
break_continue,html.Screen,4_74_2,2023-09-17T05:12:02.625Z,,0,,,NaN,,,,,,false,,,,496365.6999999997,496365.5,,496365.2999999998,,496379.266,8,400,,,
sequence,flow.Sequence,4_74,2023-09-17T05:12:02.626Z,,0,,,3086.295999999973,completion,,,,,false,,,,496365.8999999999,496365.5,493262.537,493271,493279.204,496379.266,8,400,,,
trial,html.Screen,4_75_0,2023-09-17T05:12:09.527Z,,0,2,,6888.5339999998105,response,ISIC_0028415.JPG,5,ISIC_0055435.JPG,ISIC_0055435.JPG,false,0,keypress(z),500,503268.0999999996,503267.7999999998,496362.599,496366.0999999996,496379.266,503296.561,8,400,26,,ISIC_0028415.JPG
break,html.Screen,4_75_1,2023-09-17T05:12:09.528Z,,0,,,NaN,,,,,,false,,,,503269.0999999996,503268.7999999998,,503268.3999999999,,503296.561,8,400,,,
break_continue,html.Screen,4_75_2,2023-09-17T05:12:09.529Z,,0,,,NaN,,,,,,false,,,,503269.6999999997,503269.5,,503269.1999999997,,503296.561,8,400,,,
sequence,flow.Sequence,4_75,2023-09-17T05:12:09.529Z,,0,,,6890.233999999997,completion,,,,,false,,,,503269.7999999998,503269.5,496362.599,496366,496379.266,503296.561,8,400,,,
trial,html.Screen,4_76_0,2023-09-17T05:12:13.646Z,,0,2,,4089.6389999997336,response,ISIC_0894785.JPG,5,ISIC_9406755.JPG,ISIC_9406755.JPG,false,0,keypress(z),500,507386.3999999999,507386.1999999997,503279.894,503270,503296.561,507397.125,8,400,27,,ISIC_0894785.JPG
break,html.Screen,4_76_1,2023-09-17T05:12:13.647Z,,0,,,NaN,,,,,,false,,,,507387.3999999999,507387.0999999996,,507386.5999999996,,507397.125,8,400,,,
break_continue,html.Screen,4_76_2,2023-09-17T05:12:13.647Z,,0,,,NaN,,,,,,false,,,,507388,507387.7999999998,,507387.5999999996,,507397.125,8,400,,,
sequence,flow.Sequence,4_76,2023-09-17T05:12:13.647Z,,0,,,4091.238999999827,completion,,,,,false,,,,507388.1999999997,507387.7999999998,503279.894,503270,503296.561,507397.125,8,400,,,
trial,html.Screen,4_77_0,2023-09-17T05:12:17.694Z,,0,2,,4037.4749999996275,response,ISIC_5673859.JPG,9,ISIC_3474472.JPG,ISIC_3474472.JPG,false,0,keypress(z),500,511434.8999999999,511434.5999999996,507380.458,507388.3999999999,507397.125,511447.206,8,400,28,,ISIC_5673859.JPG
break,html.Screen,4_77_1,2023-09-17T05:12:17.695Z,,0,,,NaN,,,,,,false,,,,511435.8999999999,511435.5999999996,,511435.0999999996,,511447.206,8,400,,,
break_continue,html.Screen,4_77_2,2023-09-17T05:12:17.695Z,,0,,,NaN,,,,,,false,,,,511436.3999999999,511436.1999999997,,511436.0999999996,,511447.206,8,400,,,
sequence,flow.Sequence,4_77,2023-09-17T05:12:17.696Z,,0,,,4039.0749999997206,completion,,,,,false,,,,511436.5999999996,511436.1999999997,507380.458,507388.2999999998,507397.125,511447.206,8,400,,,
trial,html.Screen,4_78_0,2023-09-17T05:12:20.390Z,,0,2,,2683.493999999715,response,ISIC_7236842.JPG,6,ISIC_0597218.JPG,ISIC_7236842.JPG,false,1,keypress(m),500,514131,514130.6999999997,511430.539,511436.7999999998,511447.206,514147.26,8,400,29,,ISIC_0597218.JPG
break,html.Screen,4_78_1,2023-09-17T05:12:20.391Z,,0,,,NaN,,,,,,false,,,,514131.8999999999,514131.5999999996,,514131.1999999997,,514147.26,8,400,,,
break_continue,html.Screen,4_78_2,2023-09-17T05:12:20.391Z,,0,,,NaN,,,,,,false,,,,514132.5,514132.2999999998,,514132.0999999996,,514147.26,8,400,,,
sequence,flow.Sequence,4_78,2023-09-17T05:12:20.392Z,,0,,,2685.093999999808,completion,,,,,false,,,,514132.6999999997,514132.2999999998,511430.539,511436.7999999998,511447.206,514147.26,8,400,,,
trial,html.Screen,4_79_0,2023-09-17T05:12:23.978Z,,0,2,,3572.1399999998976,response,ISIC_0028986.JPG,9,ISIC_2234076.JPG,ISIC_2234076.JPG,false,0,keypress(z),500,517719.5999999996,517719.3999999999,514130.593,514132.8999999999,514147.26,517731.156,8,400,30,,ISIC_0028986.JPG
break,html.Screen,4_79_1,2023-09-17T05:12:23.979Z,,0,,,NaN,,,,,,false,,,,517720.6999999997,517720.3999999999,,517719.8999999999,,517731.156,8,400,,,
break_continue,html.Screen,4_79_2,2023-09-17T05:12:23.980Z,,0,,,NaN,,,,,,false,,,,517721.2999999998,517721.0999999996,,517720.8999999999,,517731.156,8,400,,,
sequence,flow.Sequence,4_79,2023-09-17T05:12:23.980Z,,0,,,3573.839999999618,completion,,,,,false,,,,517721.5999999996,517721.0999999996,514130.593,514132.7999999998,514147.26,517731.156,8,400,,,
trial,html.Screen,4_80_0,2023-09-17T05:12:28.177Z,,0,2,,4187.043999999703,response,ISIC_0174983.JPG,8,ISIC_7903838.JPG,ISIC_0174983.JPG,false,1,keypress(m),500,521918.5,521918.1999999997,517714.489,517721.6999999997,517731.156,521931.24,8,400,31,,ISIC_7903838.JPG
break,html.Screen,4_80_1,2023-09-17T05:12:28.178Z,,0,,,NaN,,,,,,false,,,,521919.5,521919.1999999997,,521918.6999999997,,521931.24,8,400,,,
break_continue,html.Screen,4_80_2,2023-09-17T05:12:28.178Z,,0,,,NaN,,,,,,false,,,,521920,521919.7999999998,,521919.5999999996,,521931.24,8,400,,,
sequence,flow.Sequence,4_80,2023-09-17T05:12:28.179Z,,0,,,4188.6439999997965,completion,,,,,false,,,,521920.0999999996,521919.7999999998,517714.489,517721.6999999997,517731.156,521931.24,8,400,,,
trial,html.Screen,4_81_0,2023-09-17T05:12:31.335Z,,0,2,,3144.95999999973,response,ISIC_6618652.JPG,6,ISIC_3073339.JPG,ISIC_6618652.JPG,false,1,keypress(m),500,525076.3999999999,525076.1999999997,521914.573,521920.3999999999,521931.24,525081.303,8,400,32,,ISIC_3073339.JPG
break,html.Screen,4_81_1,2023-09-17T05:12:31.336Z,,0,,,NaN,,,,,,false,,,,525077.3999999999,525077.0999999996,,525076.6999999997,,525081.303,8,400,,,
break_continue,html.Screen,4_81_2,2023-09-17T05:12:31.336Z,,0,,,NaN,,,,,,false,,,,525077.8999999999,525077.7999999998,,525077.5,,525081.303,8,400,,,
sequence,flow.Sequence,4_81,2023-09-17T05:12:31.336Z,,0,,,3146.559999999823,completion,,,,,false,,,,525078.0999999996,525077.7999999998,521914.573,521920.2999999998,521931.24,525081.303,8,400,,,
trial,html.Screen,4_82_0,2023-09-17T05:12:35.101Z,,0,2,,3760.9969999998575,response,ISIC_2784686.JPG,7,ISIC_4746361.JPG,ISIC_4746361.JPG,false,0,keypress(z),500,528842.5999999996,528842.2999999998,525064.636,525078.3999999999,525081.303,528848.535,8,400,33,,ISIC_2784686.JPG
break,html.Screen,4_82_1,2023-09-17T05:12:35.102Z,,0,,,NaN,,,,,,false,,,,528843.5,528843.2999999998,,528842.7999999998,,528848.535,8,400,,,
break_continue,html.Screen,4_82_2,2023-09-17T05:12:35.102Z,,0,,,NaN,,,,,,false,,,,528844.0999999996,528843.8999999999,,528843.6999999997,,528848.535,8,400,,,
sequence,flow.Sequence,4_82,2023-09-17T05:12:35.102Z,,0,,,3762.5969999999506,completion,,,,,false,,,,528844.2999999998,528843.8999999999,525064.636,525078.1999999997,525081.303,528848.535,8,400,,,
trial,html.Screen,4_83_0,2023-09-17T05:12:38.654Z,,0,2,,3547.764999999781,response,ISIC_9764024.JPG,8,ISIC_4930632.JPG,ISIC_4930632.JPG,false,0,keypress(z),500,532396.5,532396.2999999998,528831.868,528844.3999999999,528848.535,532398.606,8,400,34,,ISIC_9764024.JPG
break,html.Screen,4_83_1,2023-09-17T05:12:38.655Z,,0,,,NaN,,,,,,false,,,,532397.5999999996,532397.2999999998,,532396.7999999998,,532398.606,8,400,,,
break_continue,html.Screen,4_83_2,2023-09-17T05:12:38.656Z,,0,,,NaN,,,,,,false,,,,532398.0999999996,532398,,532397.6999999997,,532398.606,8,400,,,
sequence,flow.Sequence,4_83,2023-09-17T05:12:38.656Z,,0,,,3549.4649999999674,completion,,,,,false,,,,532398.3999999999,532398,528831.868,528844.3999999999,528848.535,532398.606,8,400,,,
trial,html.Screen,4_84_0,2023-09-17T05:12:50.142Z,,0,2,,11517.425999999978,timeout,ISIC_9896801.JPG,7,ISIC_0010618.JPG,,false,,,500,543884.7999999998,543884.5999999996,532381.939,532398.5,532398.606,543916.032,8,400,35,,
break,html.Screen,4_84_1,2023-09-17T05:12:50.143Z,,0,,,NaN,,,,,,false,,,,543885.6999999997,543885.3999999999,,543885.0999999996,,543916.032,8,400,,,
break_continue,html.Screen,4_84_2,2023-09-17T05:12:50.144Z,,0,,,NaN,,,,,,false,,,,543886.1999999997,543886.0999999996,,543885.8999999999,,543916.032,8,400,,,
sequence,flow.Sequence,4_84,2023-09-17T05:12:50.144Z,,0,,,11487.493999999599,completion,,,,,false,,,,543886.5,543886.0999999996,532381.939,532398.3999999999,532398.606,543916.032,8,400,,,
trial,html.Screen,4_85_0,2023-09-17T05:12:53.374Z,,0,2,,3200.3679999999003,response,ISIC_0945844.JPG,6,ISIC_0006730.JPG,ISIC_0006730.JPG,false,0,keypress(z),500,547116.6999999997,547116.3999999999,543899.365,543886.5999999996,543916.032,547132.763,8,400,36,,ISIC_0945844.JPG
break,html.Screen,4_85_1,2023-09-17T05:12:53.375Z,,0,,,NaN,,,,,,false,,,,547117.5999999996,547117.3999999999,,547117,,547132.763,8,400,,,
break_continue,html.Screen,4_85_2,2023-09-17T05:12:53.375Z,,0,,,NaN,,,,,,false,,,,547118.1999999997,547118,,547117.8999999999,,547132.763,8,400,,,
sequence,flow.Sequence,4_85,2023-09-17T05:12:53.376Z,,0,,,3201.9679999999935,completion,,,,,false,,,,547118.3999999999,547118,543899.365,543886.5999999996,543916.032,547132.763,8,400,,,
trial,html.Screen,4_86_0,2023-09-17T05:12:56.081Z,,0,2,,2691.0369999997783,response,ISIC_0034107.JPG,8,ISIC_3072311.JPG,ISIC_3072311.JPG,false,0,keypress(z),500,549824.0999999996,549823.7999999998,547116.096,547118.5999999996,547132.763,549833.321,8,400,37,,ISIC_0034107.JPG
break,html.Screen,4_86_1,2023-09-17T05:12:56.082Z,,0,,,NaN,,,,,,false,,,,549825,549824.6999999997,,549824.1999999997,,549833.321,8,400,,,
break_continue,html.Screen,4_86_2,2023-09-17T05:12:56.082Z,,0,,,NaN,,,,,,false,,,,549825.5,549825.3999999999,,549825.0999999996,,549833.321,8,400,,,
sequence,flow.Sequence,4_86,2023-09-17T05:12:56.083Z,,0,,,2692.6369999998715,completion,,,,,false,,,,549825.6999999997,549825.3999999999,547116.096,547118.5,547132.763,549833.321,8,400,,,
trial,html.Screen,4_87_0,2023-09-17T05:12:58.829Z,,0,2,,2738.6790000000037,response,ISIC_3928910.JPG,5,ISIC_6352730.JPG,ISIC_3928910.JPG,false,1,keypress(m),500,552572.2999999998,552572,549816.654,549825.8999999999,549833.321,552583.376,8,400,38,,ISIC_6352730.JPG
break,html.Screen,4_87_1,2023-09-17T05:12:58.830Z,,0,,,NaN,,,,,,false,,,,552573.1999999997,552572.8999999999,,552572.5,,552583.376,8,400,,,
break_continue,html.Screen,4_87_2,2023-09-17T05:12:58.831Z,,0,,,NaN,,,,,,false,,,,552573.6999999997,552573.5999999996,,552573.2999999998,,552583.376,8,400,,,
sequence,flow.Sequence,4_87,2023-09-17T05:12:58.831Z,,0,,,2740.278999999631,completion,,,,,false,,,,552573.8999999999,552573.5999999996,549816.654,549825.7999999998,549833.321,552583.376,8,400,,,
trial,html.Screen,4_88_0,2023-09-17T05:13:01.809Z,,0,2,,2969.0239999998594,response,ISIC_6498634.JPG,8,ISIC_0316668.JPG,ISIC_6498634.JPG,false,1,keypress(m),500,555552.6999999997,555552.3999999999,552566.709,552574.0999999996,552583.376,555566.769,8,400,39,,ISIC_0316668.JPG
break,html.Screen,4_88_1,2023-09-17T05:13:01.810Z,,0,,,NaN,,,,,,false,,,,555553.5999999996,555553.2999999998,,555552.8999999999,,555566.769,8,400,,,
break_continue,html.Screen,4_88_2,2023-09-17T05:13:01.811Z,,0,,,NaN,,,,,,false,,,,555554.1999999997,555554,,555553.7999999998,,555566.769,8,400,,,
sequence,flow.Sequence,4_88,2023-09-17T05:13:01.811Z,,0,,,2970.6239999999525,completion,,,,,false,,,,555554.5,555554,552566.709,552574,552583.376,555566.769,8,400,,,
trial,html.Screen,4_89_0,2023-09-17T05:13:04.519Z,,0,2,,2695.8309999996563,response,ISIC_0014428.JPG,7,ISIC_1507583.JPG,ISIC_1507583.JPG,false,0,keypress(z),500,558262.7999999998,558262.5999999996,555550.102,555554.5999999996,555566.769,558266.823,8,400,40,,ISIC_0014428.JPG
break,html.Screen,4_89_1,2023-09-17T05:13:04.520Z,,0,,,NaN,,,,,,false,,,,558263.7999999998,558263.5,,558263.0999999996,,558266.823,8,400,,,
break_continue,html.Screen,4_89_2,2023-09-17T05:13:04.521Z,,0,,,NaN,,,,,,false,,,,558264.2999999998,558264.1999999997,,558264,,558266.823,8,400,,,
sequence,flow.Sequence,4_89,2023-09-17T05:13:04.521Z,,0,,,2697.4309999997495,completion,,,,,false,,,,558264.5999999996,558264.1999999997,555550.102,555554.5999999996,555566.769,558266.823,8,400,,,
trial,html.Screen,4_90_0,2023-09-17T05:13:07.235Z,,0,2,,2711.7769999996526,response,ISIC_9950866.JPG,4,ISIC_8752021.JPG,ISIC_8752021.JPG,false,0,keypress(z),500,560978.7999999998,560978.5999999996,558250.156,558264.7999999998,558266.823,560984.036,8,400,41,,ISIC_9950866.JPG
break,html.Screen,4_90_1,2023-09-17T05:13:07.236Z,,0,,,NaN,,,,,,false,,,,560979.8999999999,560979.5999999996,,560979.0999999996,,560984.036,8,400,,,
break_continue,html.Screen,4_90_2,2023-09-17T05:13:07.237Z,,0,,,NaN,,,,,,false,,,,560980.3999999999,560980.1999999997,,560980,,560984.036,8,400,,,
sequence,flow.Sequence,4_90,2023-09-17T05:13:07.237Z,,0,,,2713.3769999997457,completion,,,,,false,,,,560980.5,560980.1999999997,558250.156,558264.6999999997,558266.823,560984.036,8,400,,,
trial,html.Screen,4_91_0,2023-09-17T05:13:10.266Z,,0,2,,3025.4640000000363,response,ISIC_0056127.JPG,7,ISIC_1499915.JPG,ISIC_0056127.JPG,false,1,keypress(m),500,564009.6999999997,564009.5,560967.369,560980.7999999998,560984.036,564017.43,8,400,42,,ISIC_1499915.JPG
break,html.Screen,4_91_1,2023-09-17T05:13:10.267Z,,0,,,NaN,,,,,,false,,,,564010.6999999997,564010.5,,564010,,564017.43,8,400,,,
break_continue,html.Screen,4_91_2,2023-09-17T05:13:10.268Z,,0,,,NaN,,,,,,false,,,,564011.2999999998,564011.1999999997,,564010.8999999999,,564017.43,8,400,,,
sequence,flow.Sequence,4_91,2023-09-17T05:13:10.268Z,,0,,,3027.163999999757,completion,,,,,false,,,,564011.5,564011.1999999997,560967.369,560980.6999999997,560984.036,564017.43,8,400,,,
trial,html.Screen,4_92_0,2023-09-17T05:13:13.889Z,,0,2,,3615.069999999949,response,ISIC_0059170.JPG,7,ISIC_0063742.JPG,ISIC_0063742.JPG,false,0,keypress(z),500,567632.7999999998,567632.5,564000.763,564011.6999999997,564017.43,567634.169,8,400,43,,ISIC_0059170.JPG
break,html.Screen,4_92_1,2023-09-17T05:13:13.890Z,,0,,,NaN,,,,,,false,,,,567633.8999999999,567633.5999999996,,567633,,567634.169,8,400,,,
break_continue,html.Screen,4_92_2,2023-09-17T05:13:13.890Z,,0,,,NaN,,,,,,false,,,,567634.5,567634.2999999998,,567634.0999999996,,567634.169,8,400,,,
sequence,flow.Sequence,4_92,2023-09-17T05:13:13.891Z,,0,,,3616.8699999997625,completion,,,,,false,,,,567634.7999999998,567634.2999999998,564000.763,564011.5999999996,564017.43,567634.169,8,400,,,
trial,html.Screen,4_93_0,2023-09-17T05:13:17.848Z,,0,2,,3957.430999999633,response,ISIC_0025448.JPG,5,ISIC_0753491.JPG,ISIC_0025448.JPG,false,1,keypress(m),500,571591.8999999999,571591.5999999996,567617.502,567634.8999999999,567634.169,571601.444,8,400,44,,ISIC_0753491.JPG
break,html.Screen,4_93_1,2023-09-17T05:13:17.849Z,,0,,,NaN,,,,,,false,,,,571592.8999999999,571592.5999999996,,571592.0999999996,,571601.444,8,400,,,
break_continue,html.Screen,4_93_2,2023-09-17T05:13:17.849Z,,0,,,NaN,,,,,,false,,,,571593.3999999999,571593.1999999997,,571593,,571601.444,8,400,,,
sequence,flow.Sequence,4_93,2023-09-17T05:13:17.849Z,,0,,,3959.030999999726,completion,,,,,false,,,,571593.5,571593.1999999997,567617.502,567634.7999999998,567634.169,571601.444,8,400,,,
trial,html.Screen,4_94_0,2023-09-17T05:13:21.037Z,,0,2,,3179.855999999796,response,ISIC_3586824.JPG,8,ISIC_6531118.JPG,ISIC_3586824.JPG,false,1,keypress(m),500,574781.5999999996,574781.2999999998,571584.777,571593.7999999998,571601.444,574784.841,8,400,45,,ISIC_6531118.JPG
break,html.Screen,4_94_1,2023-09-17T05:13:21.038Z,,0,,,NaN,,,,,,false,,,,574782.5999999996,574782.2999999998,,574781.7999999998,,574784.841,8,400,,,
break_continue,html.Screen,4_94_2,2023-09-17T05:13:21.039Z,,0,,,NaN,,,,,,false,,,,574783.0999999996,574783,,574782.7999999998,,574784.841,8,400,,,
sequence,flow.Sequence,4_94,2023-09-17T05:13:21.039Z,,0,,,3181.5559999999823,completion,,,,,false,,,,574783.3999999999,574783,571584.777,571593.6999999997,571601.444,574784.841,8,400,,,
trial,html.Screen,4_95_0,2023-09-17T05:13:24.098Z,,0,2,,3057.3589999997057,response,ISIC_0069167.JPG,8,ISIC_8690631.JPG,ISIC_0069167.JPG,false,1,keypress(m),500,577842.3999999999,577842.1999999997,574768.174,574783.5,574784.841,577851.569,8,400,46,,ISIC_8690631.JPG
break,html.Screen,4_95_1,2023-09-17T05:13:24.099Z,,0,,,NaN,,,,,,false,,,,577843.5,577843.1999999997,,577842.6999999997,,577851.569,8,400,,,
break_continue,html.Screen,4_95_2,2023-09-17T05:13:24.099Z,,0,,,NaN,,,,,,false,,,,577844,577843.7999999998,,577843.5999999996,,577851.569,8,400,,,
sequence,flow.Sequence,4_95,2023-09-17T05:13:24.100Z,,0,,,3058.958999999799,completion,,,,,false,,,,577844.1999999997,577843.7999999998,574768.174,574783.5,574784.841,577851.569,8,400,,,
trial,html.Screen,4_96_0,2023-09-17T05:13:27.893Z,,0,2,,3785.9309999999823,response,ISIC_4672131.JPG,7,ISIC_0003046.JPG,ISIC_4672131.JPG,false,1,keypress(m),500,581637.7999999998,581637.5,577834.902,577844.2999999998,577851.569,581652.134,8,400,47,,ISIC_0003046.JPG
break,html.Screen,4_96_1,2023-09-17T05:13:27.894Z,,0,,,NaN,,,,,,false,,,,581638.6999999997,581638.5,,581638,,581652.134,8,400,,,
break_continue,html.Screen,4_96_2,2023-09-17T05:13:27.895Z,,0,,,NaN,,,,,,false,,,,581639.1999999997,581639.0999999996,,581638.8999999999,,581652.134,8,400,,,
sequence,flow.Sequence,4_96,2023-09-17T05:13:27.895Z,,0,,,3787.53099999961,completion,,,,,false,,,,581639.5,581639.0999999996,577834.902,577844.2999999998,577851.569,581652.134,8,400,,,
trial,html.Screen,4_97_0,2023-09-17T05:13:30.858Z,,0,2,,2950.366000000038,response,ISIC_0057032.JPG,8,ISIC_5610222.JPG,ISIC_5610222.JPG,false,0,keypress(z),500,584602.7999999998,584602.5,581635.467,581639.5999999996,581652.134,584618.86,8,400,48,,ISIC_0057032.JPG
break,html.Screen,4_97_1,2023-09-17T05:13:30.859Z,,0,,,NaN,,,,,,false,,,,584603.6999999997,584603.3999999999,,584603,,584618.86,8,400,,,
break_continue,html.Screen,4_97_2,2023-09-17T05:13:30.859Z,,0,,,NaN,,,,,,false,,,,584604.1999999997,584604,,584603.7999999998,,584618.86,8,400,,,
sequence,flow.Sequence,4_97,2023-09-17T05:13:30.860Z,,0,,,2951.866000000038,completion,,,,,false,,,,584604.3999999999,584604,581635.467,581639.5999999996,581652.134,584618.86,8,400,,,
trial,html.Screen,4_98_0,2023-09-17T05:13:33.582Z,,0,2,,2708.3399999997346,response,ISIC_0011448.JPG,9,ISIC_0011035.JPG,ISIC_0011035.JPG,false,0,keypress(z),500,587327.5,587327.1999999997,584602.193,584604.5999999996,584618.86,587335.581,8,400,49,,ISIC_0011448.JPG
break,html.Screen,4_98_1,2023-09-17T05:13:33.583Z,,0,,,NaN,,,,,,false,,,,587328.3999999999,587328.0999999996,,587327.5999999996,,587335.581,8,400,,,
break_continue,html.Screen,4_98_2,2023-09-17T05:13:33.584Z,,0,,,NaN,,,,,,false,,,,587328.8999999999,587328.7999999998,,587328.5,,587335.581,8,400,,,
sequence,flow.Sequence,4_98,2023-09-17T05:13:33.584Z,,0,,,2709.9399999998277,completion,,,,,false,,,,587329.0999999996,587328.7999999998,584602.193,584604.5999999996,584618.86,587335.581,8,400,,,
trial,html.Screen,4_99_0,2023-09-17T05:13:36.805Z,,0,2,,3214.3189999999013,response,ISIC_0069379.JPG,8,ISIC_0030552.JPG,ISIC_0030552.JPG,false,0,keypress(z),500,590550.1999999997,590549.8999999999,587318.914,587329.2999999998,587335.581,590552.312,8,400,50,,ISIC_0069379.JPG
break,html.Screen,4_99_1,2023-09-17T05:13:46.792Z,,0,,,10000.675999999978,timeout,,,,,false,,,,600538.0999999996,600536.321,590535.645,590550.3999999999,590552.312,600552.988,8,400,,,
break_continue,html.Screen,4_99_2,2023-09-17T05:13:49.063Z,,0,,,2234.4119999998948,response,,,,,false,continue,keypress(Space),,602809.2999999998,602787.3999999999,600536.321,600538.2999999998,600552.988,602819.7,8,400,,,
sequence,flow.Sequence,4_99,2023-09-17T05:13:49.064Z,,0,,,15451.818999999901,completion,,,,,false,,,,602809.5,602787.3999999999,587318.914,587329.2999999998,587335.581,602819.7,8,400,,,
trial,html.Screen,4_100_0,2023-09-17T05:13:52.898Z,,0,3,,3824.3000000000466,response,ISIC_0472513.JPG,8,ISIC_8960223.JPG,ISIC_8960223.JPG,false,0,keypress(z),500,606644.2999999998,606644,602803.033,602809.5999999996,602819.7,606653.662,8,400,1,,ISIC_0472513.JPG
break,html.Screen,4_100_1,2023-09-17T05:13:52.899Z,,0,,,NaN,,,,,,false,,,,606645.2999999998,606645,,606644.5,,606653.662,8,400,,,
break_continue,html.Screen,4_100_2,2023-09-17T05:13:52.900Z,,0,,,NaN,,,,,,false,,,,606645.7999999998,606645.5999999996,,606645.3999999999,,606653.662,8,400,,,
sequence,flow.Sequence,4_100,2023-09-17T05:13:52.900Z,,0,,,3825.899999999674,completion,,,,,false,,,,606645.8999999999,606645.5999999996,602803.033,602809.5999999996,602819.7,606653.662,8,400,,,
trial,html.Screen,4_101_0,2023-09-17T05:13:56.704Z,,0,3,,3796.7379999998957,response,ISIC_8666446.JPG,7,ISIC_0009642.JPG,ISIC_8666446.JPG,false,1,keypress(m),500,610450.6999999997,610450.3999999999,606636.995,606646.0999999996,606653.662,610453.738,8,400,2,,ISIC_0009642.JPG
break,html.Screen,4_101_1,2023-09-17T05:13:56.706Z,,0,,,NaN,,,,,,false,,,,610451.6999999997,610451.5,,610451,,610453.738,8,400,,,
break_continue,html.Screen,4_101_2,2023-09-17T05:13:56.706Z,,0,,,NaN,,,,,,false,,,,610452.2999999998,610452.0999999996,,610451.8999999999,,610453.738,8,400,,,
sequence,flow.Sequence,4_101,2023-09-17T05:13:56.706Z,,0,,,3798.4379999996163,completion,,,,,false,,,,610452.5,610452.0999999996,606636.995,606646.0999999996,606653.662,610453.738,8,400,,,
trial,html.Screen,4_102_0,2023-09-17T05:14:00.963Z,,0,3,,4255.761999999988,response,ISIC_0032913.JPG,6,ISIC_7077047.JPG,ISIC_7077047.JPG,false,0,keypress(z),500,614709.5999999996,614709.5,610437.071,610452.6999999997,610453.738,614721.031,8,400,3,,ISIC_0032913.JPG
break,html.Screen,4_102_1,2023-09-17T05:14:00.964Z,,0,,,NaN,,,,,,false,,,,614710.5999999996,614710.3999999999,,614709.8999999999,,614721.031,8,400,,,
break_continue,html.Screen,4_102_2,2023-09-17T05:14:00.965Z,,0,,,NaN,,,,,,false,,,,614711.0999999996,614711,,614710.7999999998,,614721.031,8,400,,,
sequence,flow.Sequence,4_102,2023-09-17T05:14:00.965Z,,0,,,4257.261999999988,completion,,,,,false,,,,614711.3999999999,614711,610437.071,610452.5999999996,610453.738,614721.031,8,400,,,
trial,html.Screen,4_103_0,2023-09-17T05:14:05.178Z,,0,3,,4203.469000000041,response,ISIC_2953279.JPG,8,ISIC_0066001.JPG,ISIC_0066001.JPG,false,0,keypress(z),500,618924.7999999998,618924.5,614704.364,614711.5999999996,614721.031,618937.782,8,400,4,,ISIC_2953279.JPG
break,html.Screen,4_103_1,2023-09-17T05:14:05.179Z,,0,,,NaN,,,,,,false,,,,618925.6999999997,618925.3999999999,,618925,,618937.782,8,400,,,
break_continue,html.Screen,4_103_2,2023-09-17T05:14:05.180Z,,0,,,NaN,,,,,,false,,,,618926.1999999997,618926.0999999996,,618925.8999999999,,618937.782,8,400,,,
sequence,flow.Sequence,4_103,2023-09-17T05:14:05.180Z,,0,,,4205.068999999668,completion,,,,,false,,,,618926.5,618926.0999999996,614704.364,614711.5,614721.031,618937.782,8,400,,,
trial,html.Screen,4_104_0,2023-09-17T05:14:09.955Z,,0,3,,4632.517999999807,response,ISIC_7575957.JPG,5,ISIC_4978697.JPG,ISIC_7575957.JPG,false,1,keypress(m),500,623570.5,623570.2999999998,618921.115,618926.5999999996,618937.782,623587.875,8,400,5,,ISIC_4978697.JPG
break,html.Screen,4_104_1,2023-09-17T05:14:09.955Z,,0,,,NaN,,,,,,false,,,,623571.1999999997,623571,,623570.5999999996,,623587.875,8,400,,,
break_continue,html.Screen,4_104_2,2023-09-17T05:14:09.956Z,,0,,,NaN,,,,,,false,,,,623571.5,623571.3999999999,,623571.2999999998,,623587.875,8,400,,,
sequence,flow.Sequence,4_104,2023-09-17T05:14:09.956Z,,0,,,4633.6179999999,completion,,,,,false,,,,623571.5999999996,623571.3999999999,618921.115,618926.5999999996,618937.782,623587.875,8,400,,,
trial,html.Screen,4_105_0,2023-09-17T05:14:13.836Z,,0,3,,3863.2249999996275,response,ISIC_0066470.JPG,7,ISIC_0070160.JPG,ISIC_0070160.JPG,false,0,keypress(z),500,627451.3999999999,627451.0999999996,623571.208,623571.7999999998,623587.875,627455.11,8,400,6,,ISIC_0066470.JPG
break,html.Screen,4_105_1,2023-09-17T05:14:13.837Z,,0,,,NaN,,,,,,false,,,,627452.5,627452.0999999996,,627451.5999999996,,627455.11,8,400,,,
break_continue,html.Screen,4_105_2,2023-09-17T05:14:13.837Z,,0,,,NaN,,,,,,false,,,,627453,627452.7999999998,,627452.5,,627455.11,8,400,,,
sequence,flow.Sequence,4_105,2023-09-17T05:14:13.837Z,,0,,,3864.9249999998137,completion,,,,,false,,,,627453.1999999997,627452.7999999998,623571.208,623571.7999999998,623587.875,627455.11,8,400,,,
trial,html.Screen,4_106_0,2023-09-17T05:14:17.233Z,,0,3,,3393.1899999998277,response,ISIC_8427534.JPG,8,ISIC_0011344.JPG,ISIC_0011344.JPG,false,0,keypress(z),500,630848.5999999996,630848.2999999998,627438.443,627453.2999999998,627455.11,630855.178,8,400,7,,ISIC_8427534.JPG
break,html.Screen,4_106_1,2023-09-17T05:14:17.234Z,,0,,,NaN,,,,,,false,,,,630849.5,630849.2999999998,,630848.7999999998,,630855.178,8,400,,,
break_continue,html.Screen,4_106_2,2023-09-17T05:14:17.234Z,,0,,,NaN,,,,,,false,,,,630850.0999999996,630849.8999999999,,630849.6999999997,,630855.178,8,400,,,
sequence,flow.Sequence,4_106,2023-09-17T05:14:17.235Z,,0,,,3394.789999999921,completion,,,,,false,,,,630850.2999999998,630849.8999999999,627438.443,627453.2999999998,627455.11,630855.178,8,400,,,
trial,html.Screen,4_107_0,2023-09-17T05:14:20.583Z,,0,3,,3343.2219999999506,response,ISIC_0066399.JPG,7,ISIC_5287679.JPG,ISIC_0066399.JPG,false,1,keypress(m),500,634198.5999999996,634198.3999999999,630838.511,630850.5,630855.178,634205.245,8,400,8,,ISIC_5287679.JPG
break,html.Screen,4_107_1,2023-09-17T05:14:20.584Z,,0,,,NaN,,,,,,false,,,,634199.5999999996,634199.3999999999,,634198.8999999999,,634205.245,8,400,,,
break_continue,html.Screen,4_107_2,2023-09-17T05:14:20.585Z,,0,,,NaN,,,,,,false,,,,634200.0999999996,634200,,634199.6999999997,,634205.245,8,400,,,
sequence,flow.Sequence,4_107,2023-09-17T05:14:20.585Z,,0,,,3344.8220000000438,completion,,,,,false,,,,634200.2999999998,634200,630838.511,630850.3999999999,630855.178,634205.245,8,400,,,
trial,html.Screen,4_108_0,2023-09-17T05:14:23.323Z,,0,3,,2733.1549999999115,response,ISIC_0345607.JPG,6,ISIC_0010754.JPG,ISIC_0010754.JPG,false,0,keypress(z),500,636938.5,636938.3999999999,634188.578,634200.3999999999,634205.245,636955.806,8,400,9,,ISIC_0345607.JPG
break,html.Screen,4_108_1,2023-09-17T05:14:23.324Z,,0,,,NaN,,,,,,false,,,,636939.5,636939.1999999997,,636938.7999999998,,636955.806,8,400,,,
break_continue,html.Screen,4_108_2,2023-09-17T05:14:23.325Z,,0,,,NaN,,,,,,false,,,,636940,636939.7999999998,,636939.6999999997,,636955.806,8,400,,,
sequence,flow.Sequence,4_108,2023-09-17T05:14:23.325Z,,0,,,2734.5549999998184,completion,,,,,false,,,,636940.1999999997,636939.7999999998,634188.578,634200.3999999999,634205.245,636955.806,8,400,,,
trial,html.Screen,4_109_0,2023-09-17T05:14:26.111Z,,0,3,,2770.293999999645,response,ISIC_0011092.JPG,6,ISIC_0054459.JPG,ISIC_0054459.JPG,false,0,keypress(z),500,639726.3999999999,639726.0999999996,636939.139,636940.2999999998,636955.806,639739.195,8,400,10,,ISIC_0011092.JPG
break,html.Screen,4_109_1,2023-09-17T05:14:26.112Z,,0,,,NaN,,,,,,false,,,,639727.2999999998,639727,,639726.6999999997,,639739.195,8,400,,,
break_continue,html.Screen,4_109_2,2023-09-17T05:14:26.112Z,,0,,,NaN,,,,,,false,,,,639727.7999999998,639727.6999999997,,639727.5,,639739.195,8,400,,,
sequence,flow.Sequence,4_109,2023-09-17T05:14:26.113Z,,0,,,2771.8939999997383,completion,,,,,false,,,,639728,639727.6999999997,636939.139,636940.2999999998,636955.806,639739.195,8,400,,,
trial,html.Screen,4_110_0,2023-09-17T05:14:28.820Z,,0,3,,2695.805000000051,response,ISIC_0056979.JPG,5,ISIC_3926019.JPG,ISIC_0056979.JPG,false,1,keypress(m),500,642435.2999999998,642435,639722.528,639728.1999999997,639739.195,642439.249,8,400,11,,ISIC_3926019.JPG
break,html.Screen,4_110_1,2023-09-17T05:14:28.821Z,,0,,,NaN,,,,,,false,,,,642436.2999999998,642436,,642435.5,,642439.249,8,400,,,
break_continue,html.Screen,4_110_2,2023-09-17T05:14:28.821Z,,0,,,NaN,,,,,,false,,,,642436.7999999998,642436.5999999996,,642436.5,,642439.249,8,400,,,
sequence,flow.Sequence,4_110,2023-09-17T05:14:28.822Z,,0,,,2697.4049999996787,completion,,,,,false,,,,642437,642436.5999999996,639722.528,639728.1999999997,639739.195,642439.249,8,400,,,
trial,html.Screen,4_111_0,2023-09-17T05:14:31.973Z,,0,3,,3149.0509999998612,response,ISIC_4976189.JPG,7,ISIC_0071434.JPG,ISIC_0071434.JPG,false,0,keypress(z),500,645588.5999999996,645588.2999999998,642422.582,642437.1999999997,642439.249,645606.471,8,400,12,,ISIC_4976189.JPG
break,html.Screen,4_111_1,2023-09-17T05:14:31.974Z,,0,,,NaN,,,,,,false,,,,645589.5,645589.1999999997,,645588.6999999997,,645606.471,8,400,,,
break_continue,html.Screen,4_111_2,2023-09-17T05:14:31.975Z,,0,,,NaN,,,,,,false,,,,645590.0999999996,645590,,645589.6999999997,,645606.471,8,400,,,
sequence,flow.Sequence,4_111,2023-09-17T05:14:31.975Z,,0,,,3150.7510000000475,completion,,,,,false,,,,645590.2999999998,645590,642422.582,642437.0999999996,642439.249,645606.471,8,400,,,
trial,html.Screen,4_112_0,2023-09-17T05:14:35.526Z,,0,3,,3533.9289999998873,response,ISIC_0046659.JPG,6,ISIC_3635014.JPG,ISIC_3635014.JPG,false,0,keypress(z),500,649140.6999999997,649140.3999999999,645589.312,645590.5,645606.471,649156.542,8,400,13,,ISIC_0046659.JPG
break,html.Screen,4_112_1,2023-09-17T05:14:35.527Z,,0,,,NaN,,,,,,false,,,,649141.5999999996,649141.2999999998,,649140.7999999998,,649156.542,8,400,,,
break_continue,html.Screen,4_112_2,2023-09-17T05:14:35.527Z,,0,,,NaN,,,,,,false,,,,649142.0999999996,649141.8999999999,,649141.7999999998,,649156.542,8,400,,,
sequence,flow.Sequence,4_112,2023-09-17T05:14:35.527Z,,0,,,3535.4289999998873,completion,,,,,false,,,,649142.2999999998,649141.8999999999,645589.312,645590.3999999999,645606.471,649156.542,8,400,,,
trial,html.Screen,4_113_0,2023-09-17T05:14:38.581Z,,0,3,,3039.6579999997048,response,ISIC_0014703.JPG,7,ISIC_0372902.JPG,ISIC_0014703.JPG,false,1,keypress(m),500,652196.3999999999,652196.1999999997,649139.875,649142.3999999999,649156.542,652206.603,8,400,14,,ISIC_0372902.JPG
break,html.Screen,4_113_1,2023-09-17T05:14:38.582Z,,0,,,NaN,,,,,,false,,,,652197.2999999998,652197.0999999996,,652196.6999999997,,652206.603,8,400,,,
break_continue,html.Screen,4_113_2,2023-09-17T05:14:38.583Z,,0,,,NaN,,,,,,false,,,,652197.8999999999,652197.7999999998,,652197.5,,652206.603,8,400,,,
sequence,flow.Sequence,4_113,2023-09-17T05:14:38.583Z,,0,,,3041.257999999798,completion,,,,,false,,,,652198.0999999996,652197.7999999998,649139.875,649142.3999999999,649156.542,652206.603,8,400,,,
trial,html.Screen,4_114_0,2023-09-17T05:14:41.354Z,,0,3,,2761.696999999811,response,ISIC_3401777.JPG,8,ISIC_8147189.JPG,ISIC_8147189.JPG,false,0,keypress(z),500,654968.5999999996,654968.2999999998,652189.936,652198.2999999998,652206.603,654973.325,8,400,15,,ISIC_3401777.JPG
break,html.Screen,4_114_1,2023-09-17T05:14:41.355Z,,0,,,NaN,,,,,,false,,,,654969.5999999996,654969.2999999998,,654968.7999999998,,654973.325,8,400,,,
break_continue,html.Screen,4_114_2,2023-09-17T05:14:41.355Z,,0,,,NaN,,,,,,false,,,,654970.0999999996,654970,,654969.6999999997,,654973.325,8,400,,,
sequence,flow.Sequence,4_114,2023-09-17T05:14:41.355Z,,0,,,2763.396999999997,completion,,,,,false,,,,654970.2999999998,654970,652189.936,652198.1999999997,652206.603,654973.325,8,400,,,
trial,html.Screen,4_115_0,2023-09-17T05:14:44.161Z,,0,3,,2801.9749999998603,response,ISIC_7297078.JPG,7,ISIC_1740912.JPG,ISIC_1740912.JPG,false,0,keypress(z),500,657775.5,657775.2999999998,654956.658,654970.5,654973.325,657790.524,8,400,16,,ISIC_7297078.JPG
break,html.Screen,4_115_1,2023-09-17T05:14:44.162Z,,0,,,NaN,,,,,,false,,,,657776.5,657776.1999999997,,657775.6999999997,,657790.524,8,400,,,
break_continue,html.Screen,4_115_2,2023-09-17T05:14:44.162Z,,0,,,NaN,,,,,,false,,,,657776.8999999999,657776.7999999998,,657776.5999999996,,657790.524,8,400,,,
sequence,flow.Sequence,4_115,2023-09-17T05:14:44.162Z,,0,,,2803.4749999998603,completion,,,,,false,,,,657777.0999999996,657776.7999999998,654956.658,654970.3999999999,654973.325,657790.524,8,400,,,
trial,html.Screen,4_116_0,2023-09-17T05:14:48.262Z,,0,3,,4086.275999999838,response,ISIC_8359258.JPG,9,ISIC_9745562.JPG,ISIC_9745562.JPG,false,0,keypress(z),500,661877,661876.7999999998,657773.857,657777.2999999998,657790.524,661890.606,8,400,17,,ISIC_8359258.JPG
break,html.Screen,4_116_1,2023-09-17T05:14:48.263Z,,0,,,NaN,,,,,,false,,,,661878,661877.6999999997,,661877.2999999998,,661890.606,8,400,,,
break_continue,html.Screen,4_116_2,2023-09-17T05:14:48.264Z,,0,,,NaN,,,,,,false,,,,661878.5,661878.3999999999,,661878.0999999996,,661890.606,8,400,,,
sequence,flow.Sequence,4_116,2023-09-17T05:14:48.264Z,,0,,,4087.875999999931,completion,,,,,false,,,,661878.6999999997,661878.3999999999,657773.857,657777.2999999998,657790.524,661890.606,8,400,,,
trial,html.Screen,4_117_0,2023-09-17T05:14:51.866Z,,0,3,,3589.9939999995986,response,ISIC_4471367.JPG,7,ISIC_8799674.JPG,ISIC_4471367.JPG,false,1,keypress(m),500,665480.8999999999,665480.5999999996,661873.939,661878.7999999998,661890.606,665490.678,8,400,18,,ISIC_8799674.JPG
break,html.Screen,4_117_1,2023-09-17T05:14:51.867Z,,0,,,NaN,,,,,,false,,,,665481.7999999998,665481.5,,665481.0999999996,,665490.678,8,400,,,
break_continue,html.Screen,4_117_2,2023-09-17T05:14:51.868Z,,0,,,NaN,,,,,,false,,,,665482.2999999998,665482.0999999996,,665482,,665490.678,8,400,,,
sequence,flow.Sequence,4_117,2023-09-17T05:14:51.868Z,,0,,,3591.4939999995986,completion,,,,,false,,,,665482.5,665482.0999999996,661873.939,661878.7999999998,661890.606,665490.678,8,400,,,
trial,html.Screen,4_118_0,2023-09-17T05:14:55.600Z,,0,3,,3723.4219999996712,response,ISIC_4168757.JPG,8,ISIC_2355513.JPG,ISIC_2355513.JPG,false,0,keypress(z),500,669214.3999999999,669214.0999999996,665474.011,665482.6999999997,665490.678,669224.603,8,400,19,,ISIC_4168757.JPG
break,html.Screen,4_118_1,2023-09-17T05:14:55.601Z,,0,,,NaN,,,,,,false,,,,669215.3999999999,669215.0999999996,,669214.5999999996,,669224.603,8,400,,,
break_continue,html.Screen,4_118_2,2023-09-17T05:14:55.601Z,,0,,,NaN,,,,,,false,,,,669215.7999999998,669215.6999999997,,669215.5,,669224.603,8,400,,,
sequence,flow.Sequence,4_118,2023-09-17T05:14:55.602Z,,0,,,3725.0219999997644,completion,,,,,false,,,,669216.0999999996,669215.6999999997,665474.011,665482.6999999997,665490.678,669224.603,8,400,,,
trial,html.Screen,4_119_0,2023-09-17T05:14:58.775Z,,0,3,,3164.796999999904,response,ISIC_0024527.JPG,6,ISIC_9300579.JPG,ISIC_0024527.JPG,false,1,keypress(m),500,672389.6999999997,672389.3999999999,669207.936,669216.1999999997,669224.603,672391.333,8,400,20,,ISIC_9300579.JPG
break,html.Screen,4_119_1,2023-09-17T05:14:58.776Z,,0,,,NaN,,,,,,false,,,,672390.5999999996,672390.3999999999,,672390,,672391.333,8,400,,,
break_continue,html.Screen,4_119_2,2023-09-17T05:14:58.777Z,,0,,,NaN,,,,,,false,,,,672391.1999999997,672391,,672390.7999999998,,672391.333,8,400,,,
sequence,flow.Sequence,4_119,2023-09-17T05:14:58.777Z,,0,,,3166.396999999997,completion,,,,,false,,,,672391.3999999999,672391,669207.936,669216.1999999997,669224.603,672391.333,8,400,,,
trial,html.Screen,4_120_0,2023-09-17T05:15:04.086Z,,0,3,,5308.667000000016,response,ISIC_0030695.JPG,5,ISIC_0591226.JPG,ISIC_0030695.JPG,false,1,keypress(m),500,677700.1999999997,677700,672374.666,672391.5,672391.333,677708.614,8,400,21,,ISIC_0591226.JPG
break,html.Screen,4_120_1,2023-09-17T05:15:04.087Z,,0,,,NaN,,,,,,false,,,,677701.0999999996,677700.7999999998,,677700.3999999999,,677708.614,8,400,,,
break_continue,html.Screen,4_120_2,2023-09-17T05:15:04.087Z,,0,,,NaN,,,,,,false,,,,677701.5999999996,677701.5,,677701.1999999997,,677708.614,8,400,,,
sequence,flow.Sequence,4_120,2023-09-17T05:15:04.088Z,,0,,,5310.167000000016,completion,,,,,false,,,,677701.7999999998,677701.5,672374.666,672391.5,672391.333,677708.614,8,400,,,
trial,html.Screen,4_121_0,2023-09-17T05:15:07.156Z,,0,3,,3060.7859999999637,response,ISIC_8863344.JPG,7,ISIC_0013497.JPG,ISIC_0013497.JPG,false,0,keypress(z),500,680769.6999999997,680769.3999999999,677691.947,677702,677708.614,680775.342,8,400,22,,ISIC_8863344.JPG
break,html.Screen,4_121_1,2023-09-17T05:15:07.156Z,,0,,,NaN,,,,,,false,,,,680770.2999999998,680770.0999999996,,680769.7999999998,,680775.342,8,400,,,
break_continue,html.Screen,4_121_2,2023-09-17T05:15:07.157Z,,0,,,NaN,,,,,,false,,,,680770.5999999996,680770.5,,680770.3999999999,,680775.342,8,400,,,
sequence,flow.Sequence,4_121,2023-09-17T05:15:07.157Z,,0,,,3061.886000000057,completion,,,,,false,,,,680770.7999999998,680770.5,677691.947,677702,677708.614,680775.342,8,400,,,
trial,html.Screen,4_122_0,2023-09-17T05:15:09.869Z,,0,3,,2707.3579999997746,response,ISIC_0000585.JPG,8,ISIC_0070679.JPG,ISIC_0070679.JPG,false,0,keypress(z),500,683483,683482.6999999997,680758.675,680770.8999999999,680775.342,683492.063,8,400,23,,ISIC_0000585.JPG
break,html.Screen,4_122_1,2023-09-17T05:15:09.870Z,,0,,,NaN,,,,,,false,,,,683483.8999999999,683483.5999999996,,683483.1999999997,,683492.063,8,400,,,
break_continue,html.Screen,4_122_2,2023-09-17T05:15:09.870Z,,0,,,NaN,,,,,,false,,,,683484.3999999999,683484.1999999997,,683484,,683492.063,8,400,,,
sequence,flow.Sequence,4_122,2023-09-17T05:15:09.871Z,,0,,,2708.8579999997746,completion,,,,,false,,,,683484.5999999996,683484.1999999997,680758.675,680770.8999999999,680775.342,683492.063,8,400,,,
trial,html.Screen,4_123_0,2023-09-17T05:15:13.777Z,,0,3,,3898.736999999848,response,ISIC_0026369.JPG,7,ISIC_4201891.JPG,ISIC_0026369.JPG,false,1,keypress(m),500,687391.0999999996,687390.7999999998,683475.396,683484.7999999998,683492.063,687392.141,8,400,24,,ISIC_4201891.JPG
break,html.Screen,4_123_1,2023-09-17T05:15:13.778Z,,0,,,NaN,,,,,,false,,,,687392,687391.7999999998,,687391.2999999998,,687392.141,8,400,,,
break_continue,html.Screen,4_123_2,2023-09-17T05:15:13.779Z,,0,,,NaN,,,,,,false,,,,687392.5999999996,687392.5,,687392.1999999997,,687392.141,8,400,,,
sequence,flow.Sequence,4_123,2023-09-17T05:15:13.779Z,,0,,,3900.4370000000345,completion,,,,,false,,,,687392.7999999998,687392.5,683475.396,683484.6999999997,683492.063,687392.141,8,400,,,
trial,html.Screen,4_124_0,2023-09-17T05:15:17.390Z,,0,3,,3611.1589999998687,response,ISIC_2376016.JPG,5,ISIC_0016082.JPG,ISIC_2376016.JPG,false,1,keypress(m),500,691003.5999999996,691003.2999999998,687375.474,687393,687392.141,691009.363,8,400,25,,ISIC_0016082.JPG
break,html.Screen,4_124_1,2023-09-17T05:15:17.391Z,,0,,,NaN,,,,,,false,,,,691004.5,691004.1999999997,,691003.7999999998,,691009.363,8,400,,,
break_continue,html.Screen,4_124_2,2023-09-17T05:15:17.391Z,,0,,,NaN,,,,,,false,,,,691005,691004.8999999999,,691004.6999999997,,691009.363,8,400,,,
sequence,flow.Sequence,4_124,2023-09-17T05:15:17.391Z,,0,,,3612.758999999962,completion,,,,,false,,,,691005.1999999997,691004.8999999999,687375.474,687393,687392.141,691009.363,8,400,,,
trial,html.Screen,4_125_0,2023-09-17T05:15:20.301Z,,0,3,,2904.9369999998016,response,ISIC_0026103.JPG,9,ISIC_0070822.JPG,ISIC_0070822.JPG,false,0,keypress(z),500,693914.5,693914.2999999998,690992.696,691005.5,691009.363,693926.088,8,400,26,,ISIC_0026103.JPG
break,html.Screen,4_125_1,2023-09-17T05:15:20.302Z,,0,,,NaN,,,,,,false,,,,693915.5,693915.2999999998,,693914.7999999998,,693926.088,8,400,,,
break_continue,html.Screen,4_125_2,2023-09-17T05:15:20.302Z,,0,,,NaN,,,,,,false,,,,693916,693915.8999999999,,693915.6999999997,,693926.088,8,400,,,
sequence,flow.Sequence,4_125,2023-09-17T05:15:20.303Z,,0,,,2906.5369999998948,completion,,,,,false,,,,693916.1999999997,693915.8999999999,690992.696,691005.3999999999,691009.363,693926.088,8,400,,,
trial,html.Screen,4_126_0,2023-09-17T05:15:23.070Z,,0,3,,2757.211999999825,response,ISIC_0010011.JPG,7,ISIC_2051278.JPG,ISIC_2051278.JPG,false,0,keypress(z),500,696683.5,696683.2999999998,693909.421,693916.3999999999,693926.088,696692.81,8,400,27,,ISIC_0010011.JPG
