sender,sender_type,sender_id,timestamp,meta,,blockNo,condition,duration,ended_on,img_left,img_reveal,img_right,loser,practice,response,response_action,selection_duration,time_commit,time_end,time_render,time_run,time_show,time_switch,total_blocks,total_trials,trialNo,url,winner
informed_consent,html.Screen,0,2023-11-02T19:01:21.780Z,"{""labjs_version"":""20.2.4"",""labjs_build"":{""flavor"":""production"",""commit"":""f5b4a49f956347addd546a832a3327688c2c0fef""},""location"":""https://run.pavlovia.org/MurrayBennett/melanoma-2afc/?participant=66956&platform=sona"",""userAgent"":""Mozilla/5.0 (Macintosh; Intel Mac OS X 10_15_7) AppleWebKit/537.36 (KHTML, like Gecko) Chrome/118.0.0.0 Safari/537.36"",""platform"":""MacIntel"",""language"":""en-US"",""locale"":""en-US"",""timeZone"":""America/Chicago"",""timezoneOffset"":300,""screen_width"":1800,""screen_height"":1169,""scroll_width"":1800,""scroll_height"":961,""window_innerWidth"":1800,""window_innerHeight"":1009,""devicePixelRatio"":2}",,,,11721613.737,response,,,,,,consent,click button,,11723438,11723436,1697.268,1820.5,1822.263,11723445.349,,,,"{""participant"":""66956"",""platform"":""sona""}",
Welcome,html.Screen,1,2023-11-03T15:11:59.144Z,,,,colourful,14337971.850999989,response,,,,,,continue,click button,,26061426.399999976,26061417.199999988,11723428.683,11723438.399999976,11723445.349,26061425.468,,,,,
trial,html.Screen,2_0_0,2023-11-03T15:12:05.473Z,,0,0,,6327.231999989599,response,ISIC_0025593.JPG,,ISIC_0063388.JPG,ISIC_0063388.JPG,true,0,keypress(Z),500,26067755.699999988,26067752.699999988,26061417.135,26061427.199999988,26061425.468,26067763.067,1,6,1,,ISIC_0025593.JPG
sequence,flow.Sequence,2_0,2023-11-03T15:12:05.473Z,,0,,,6327.231999989599,completion,,,,,true,,,,26067756.299999982,26067752.699999988,26061417.135,26061427.199999988,26061425.468,26067763.067,1,6,,,
trial,html.Screen,2_1_0,2023-11-03T15:12:16.976Z,,0,0,,11508.370999999344,timeout,ISIC_1309015.JPG,,ISIC_0028178.JPG,,true,,,500,26079260.099999994,26079259.899999976,26067754.734,26067756.5,26067763.067,26079271.438,1,6,2,,
sequence,flow.Sequence,2_1,2023-11-03T15:12:16.976Z,,0,,,11496.83299997449,completion,,,,,true,,,,26079260.299999982,26079259.899999976,26067754.734,26067756.5,26067763.067,26079271.438,1,6,,,
trial,html.Screen,2_2_0,2023-11-03T15:12:21.924Z,,0,0,,4936.461999975145,response,ISIC_0031128.JPG,,ISIC_3314853.JPG,ISIC_3314853.JPG,true,0,keypress(Z),500,26084208.199999988,26084207.899999976,26079263.105,26079260.399999976,26079271.438,26084212.907,1,6,3,,ISIC_0031128.JPG
sequence,flow.Sequence,2_2,2023-11-03T15:12:21.924Z,,0,,,4936.461999975145,completion,,,,,true,,,,26084208.5,26084207.899999976,26079263.105,26079260.399999976,26079271.438,26084212.907,1,6,,,
trial,html.Screen,2_3_0,2023-11-03T15:12:24.584Z,,0,0,,2655.3929999805987,response,ISIC_0031612.JPG,,ISIC_8980141.JPG,ISIC_8980141.JPG,true,0,keypress(Z),500,26086868.799999982,26086868.299999982,26084204.574,26084208.599999994,26084212.907,26086871.134,1,6,4,,ISIC_0031612.JPG
sequence,flow.Sequence,2_3,2023-11-03T15:12:24.585Z,,0,,,2655.3929999805987,completion,,,,,true,,,,26086869.299999982,26086868.299999982,26084204.574,26084208.599999994,26084212.907,26086871.134,1,6,,,
trial,html.Screen,2_4_0,2023-11-03T15:12:27.710Z,,0,0,,3122.965999994427,response,ISIC_1197737.JPG,,ISIC_9721604.JPG,ISIC_9721604.JPG,true,0,keypress(Z),500,26089994.799999982,26089994.099999994,26086862.801,26086869.5,26086871.134,26090000.527,1,6,5,,ISIC_1197737.JPG
sequence,flow.Sequence,2_4,2023-11-03T15:12:27.710Z,,0,,,3122.965999994427,completion,,,,,true,,,,26089995.199999988,26089994.099999994,26086862.801,26086869.5,26086871.134,26090000.527,1,6,,,
trial,html.Screen,2_5_0,2023-11-03T15:12:31.507Z,,0,0,,3790.9730000011623,response,ISIC_0010681.JPG,,ISIC_0025346.JPG,ISIC_0025346.JPG,true,0,keypress(Z),500,26093791.899999976,26093791.5,26089992.194,26089995.5,26090000.527,26093800.375,1,6,6,,ISIC_0010681.JPG
sequence,flow.Sequence,2_5,2023-11-03T15:12:31.507Z,,0,,,3790.9730000011623,completion,,,,,true,,,,26093792.299999982,26093791.5,26089992.194,26089995.399999976,26090000.527,26093800.375,1,6,,,
loop,flow.Loop,2,2023-11-03T15:12:31.508Z,,,,,32366.03200000152,completion,,,,,true,,,,26093792.699999988,26093791.5,26061417.135,26061427.099999994,26061425.468,26093800.375,1,6,,,
exp_instructions,html.Screen,3,2023-11-03T15:12:43.907Z,,,,,12386.824999988079,response,,,,,,continue,keypress(Space),,26106192,26106187.199999988,26093792.042,26093792.799999982,26093800.375,26106200.227,,,,,
trial,html.Screen,4_0_0,2023-11-03T15:12:46.973Z,,0,1,,3057.8729999922216,response,ISIC_0033278.JPG,7,ISIC_0030211.JPG,ISIC_0033278.JPG,false,1,keypress(m),500,26109258.599999994,26109258.099999994,26106191.894,26106192.599999994,26106200.227,26109267.129,8,400,1,,ISIC_0030211.JPG
break,html.Screen,4_0_1,2023-11-03T15:12:46.975Z,,0,,,NaN,,,,,,false,,,,26109260,26109259.699999988,,26109258.799999982,,26109267.129,8,400,,,
break_continue,html.Screen,4_0_2,2023-11-03T15:12:46.975Z,,0,,,NaN,,,,,,false,,,,26109260.5,26109260.399999976,,26109260.199999988,,26109267.129,8,400,,,
sequence,flow.Sequence,4_0,2023-11-03T15:12:46.975Z,,0,,,3060.17299997434,completion,,,,,false,,,,26109260.699999988,26109260.399999976,26106191.894,26106192.5,26106200.227,26109267.129,8,400,,,
trial,html.Screen,4_1_0,2023-11-03T15:12:50.120Z,,0,1,,3137.970999993384,response,ISIC_6065301.JPG,8,ISIC_8843901.JPG,ISIC_6065301.JPG,false,1,keypress(m),500,26112405.5,26112405.099999994,26109258.796,26109260.799999982,26109267.129,26112408.67,8,400,2,,ISIC_8843901.JPG
break,html.Screen,4_1_1,2023-11-03T15:12:50.121Z,,0,,,NaN,,,,,,false,,,,26112406.5,26112406.299999982,,26112405.899999976,,26112408.67,8,400,,,
break_continue,html.Screen,4_1_2,2023-11-03T15:12:50.122Z,,0,,,NaN,,,,,,false,,,,26112406.799999982,26112406.699999988,,26112406.699999988,,26112408.67,8,400,,,
sequence,flow.Sequence,4_1,2023-11-03T15:12:50.122Z,,0,,,3139.5709999874234,completion,,,,,false,,,,26112407,26112406.699999988,26109258.796,26109260.799999982,26109267.129,26112408.67,8,400,,,
trial,html.Screen,4_2_0,2023-11-03T15:12:53.615Z,,0,1,,3491.029999986291,response,ISIC_0066952.JPG,8,ISIC_0056119.JPG,ISIC_0066952.JPG,false,1,keypress(m),500,26115900.099999994,26115899.699999988,26112400.337,26112407.099999994,26112408.67,26115908.53,8,400,3,,ISIC_0056119.JPG
break,html.Screen,4_2_1,2023-11-03T15:12:53.616Z,,0,,,NaN,,,,,,false,,,,26115901.099999994,26115901,,26115900.5,,26115908.53,8,400,,,
break_continue,html.Screen,4_2_2,2023-11-03T15:12:53.616Z,,0,,,NaN,,,,,,false,,,,26115901.599999994,26115901.399999976,,26115901.299999982,,26115908.53,8,400,,,
sequence,flow.Sequence,4_2,2023-11-03T15:12:53.616Z,,0,,,3492.72999997437,completion,,,,,false,,,,26115901.799999982,26115901.399999976,26112400.337,26112407.099999994,26112408.67,26115908.53,8,400,,,
trial,html.Screen,4_3_0,2023-11-03T15:12:56.485Z,,0,1,,2861.369999974966,response,ISIC_6037869.JPG,8,ISIC_0024900.JPG,ISIC_0024900.JPG,false,0,keypress(z),500,26118770.399999976,26118769.899999976,26115900.197,26115901.799999982,26115908.53,26118775.436,8,400,4,,ISIC_6037869.JPG
break,html.Screen,4_3_1,2023-11-03T15:12:56.486Z,,0,,,NaN,,,,,,false,,,,26118771.299999982,26118771.099999994,,26118770.599999994,,26118775.436,8,400,,,
break_continue,html.Screen,4_3_2,2023-11-03T15:12:56.486Z,,0,,,NaN,,,,,,false,,,,26118771.799999982,26118771.599999994,,26118771.399999976,,26118775.436,8,400,,,
sequence,flow.Sequence,4_3,2023-11-03T15:12:56.486Z,,0,,,2863.0699999928474,completion,,,,,false,,,,26118771.899999976,26118771.599999994,26115900.197,26115901.799999982,26115908.53,26118775.436,8,400,,,
trial,html.Screen,4_4_0,2023-11-03T15:12:59.404Z,,0,1,,2914.0639999993145,response,ISIC_7997132.JPG,6,ISIC_7563744.JPG,ISIC_7563744.JPG,false,0,keypress(z),500,26121689.899999976,26121689.5,26118767.103,26118772.099999994,26118775.436,26121691.986,8,400,5,,ISIC_7997132.JPG
break,html.Screen,4_4_1,2023-11-03T15:12:59.406Z,,0,,,NaN,,,,,,false,,,,26121691,26121690.799999982,,26121690.299999982,,26121691.986,8,400,,,
break_continue,html.Screen,4_4_2,2023-11-03T15:12:59.406Z,,0,,,NaN,,,,,,false,,,,26121691.399999976,26121691.299999982,,26121691.199999988,,26121691.986,8,400,,,
sequence,flow.Sequence,4_4,2023-11-03T15:12:59.406Z,,0,,,2915.863999981433,completion,,,,,false,,,,26121691.599999994,26121691.299999982,26118767.103,26118772,26118775.436,26121691.986,8,400,,,
trial,html.Screen,4_5_0,2023-11-03T15:13:02.277Z,,0,1,,2870.0139999985695,response,ISIC_5566396.JPG,9,ISIC_3046905.JPG,ISIC_3046905.JPG,false,0,keypress(z),500,26124562.5,26124562,26121683.653,26121691.799999982,26121691.986,26124566.871,8,400,6,,ISIC_5566396.JPG
break,html.Screen,4_5_1,2023-11-03T15:13:02.278Z,,0,,,NaN,,,,,,false,,,,26124563.5,26124563.299999982,,26124562.799999982,,26124566.871,8,400,,,
break_continue,html.Screen,4_5_2,2023-11-03T15:13:02.278Z,,0,,,NaN,,,,,,false,,,,26124563.799999982,26124563.699999988,,26124563.599999994,,26124566.871,8,400,,,
sequence,flow.Sequence,4_5,2023-11-03T15:13:02.279Z,,0,,,2871.7139999866486,completion,,,,,false,,,,26124564,26124563.699999988,26121683.653,26121691.699999988,26121691.986,26124566.871,8,400,,,
trial,html.Screen,4_6_0,2023-11-03T15:13:04.929Z,,0,1,,2646.9289999827743,response,ISIC_9829805.JPG,7,ISIC_3067885.JPG,ISIC_9829805.JPG,false,1,keypress(m),500,26127214.099999994,26127213.799999982,26124558.538,26124564.199999988,26124566.871,26127216.765,8,400,7,,ISIC_3067885.JPG
break,html.Screen,4_6_1,2023-11-03T15:13:04.930Z,,0,,,NaN,,,,,,false,,,,26127215.099999994,26127214.899999976,,26127214.399999976,,26127216.765,8,400,,,
break_continue,html.Screen,4_6_2,2023-11-03T15:13:04.930Z,,0,,,NaN,,,,,,false,,,,26127215.399999976,26127215.299999982,,26127215.199999988,,26127216.765,8,400,,,
sequence,flow.Sequence,4_6,2023-11-03T15:13:04.930Z,,0,,,2648.4289999827743,completion,,,,,false,,,,26127215.599999994,26127215.299999982,26124558.538,26124564.099999994,26124566.871,26127216.765,8,400,,,
trial,html.Screen,4_7_0,2023-11-03T15:13:07.846Z,,0,1,,2914.8349999934435,response,ISIC_0058607.JPG,6,ISIC_0031958.JPG,ISIC_0031958.JPG,false,0,keypress(z),500,26130131.899999976,26130131.599999994,26127208.432,26127215.699999988,26127216.765,26130137.857,8,400,8,,ISIC_0058607.JPG
break,html.Screen,4_7_1,2023-11-03T15:13:07.847Z,,0,,,NaN,,,,,,false,,,,26130132.199999988,26130132.199999988,,26130132,,26130137.857,8,400,,,
break_continue,html.Screen,4_7_2,2023-11-03T15:13:07.847Z,,0,,,NaN,,,,,,false,,,,26130132.299999982,26130132.299999982,,26130132.199999988,,26130137.857,8,400,,,
sequence,flow.Sequence,4_7,2023-11-03T15:13:07.847Z,,0,,,2915.5349999815226,completion,,,,,false,,,,26130132.399999976,26130132.299999982,26127208.432,26127215.699999988,26127216.765,26130137.857,8,400,,,
trial,html.Screen,4_8_0,2023-11-03T15:13:10.427Z,,0,1,,2574.642999999225,response,ISIC_4548632.JPG,6,ISIC_0068015.JPG,ISIC_4548632.JPG,false,1,keypress(m),500,26132712.899999976,26132712.5,26130129.524,26130132.5,26130137.857,26132721.087,8,400,9,,ISIC_0068015.JPG
break,html.Screen,4_8_1,2023-11-03T15:13:10.428Z,,0,,,NaN,,,,,,false,,,,26132714,26132713.699999988,,26132713.199999988,,26132721.087,8,400,,,
break_continue,html.Screen,4_8_2,2023-11-03T15:13:10.429Z,,0,,,NaN,,,,,,false,,,,26132714.299999982,26132714.199999988,,26132714.099999994,,26132721.087,8,400,,,
sequence,flow.Sequence,4_8,2023-11-03T15:13:10.429Z,,0,,,2576.342999987304,completion,,,,,false,,,,26132714.5,26132714.199999988,26130129.524,26130132.5,26130137.857,26132721.087,8,400,,,
trial,html.Screen,4_9_0,2023-11-03T15:13:12.979Z,,0,1,,2543.412999998778,response,ISIC_0033103.JPG,7,ISIC_0060773.JPG,ISIC_0033103.JPG,false,1,keypress(m),500,26135264.899999976,26135264.5,26132712.754,26132714.699999988,26132721.087,26135270.985,8,400,10,,ISIC_0060773.JPG
break,html.Screen,4_9_1,2023-11-03T15:13:12.980Z,,0,,,NaN,,,,,,false,,,,26135265.799999982,26135265.599999994,,26135265.099999994,,26135270.985,8,400,,,
break_continue,html.Screen,4_9_2,2023-11-03T15:13:12.981Z,,0,,,NaN,,,,,,false,,,,26135266.199999988,26135266.099999994,,26135266,,26135270.985,8,400,,,
sequence,flow.Sequence,4_9,2023-11-03T15:13:12.981Z,,0,,,2545.0129999928176,completion,,,,,false,,,,26135266.399999976,26135266.099999994,26132712.754,26132714.5,26132721.087,26135270.985,8,400,,,
trial,html.Screen,4_10_0,2023-11-03T15:13:15.832Z,,0,1,,2846.515000000596,response,ISIC_0063958.JPG,8,ISIC_1450548.JPG,ISIC_1450548.JPG,false,0,keypress(z),500,26138117.899999976,26138117.5,26135262.652,26135266.399999976,26135270.985,26138120.871,8,400,11,,ISIC_0063958.JPG
break,html.Screen,4_10_1,2023-11-03T15:13:15.833Z,,0,,,NaN,,,,,,false,,,,26138118.699999988,26138118.5,,26138118.099999994,,26138120.871,8,400,,,
break_continue,html.Screen,4_10_2,2023-11-03T15:13:15.834Z,,0,,,NaN,,,,,,false,,,,26138119.099999994,26138119,,26138118.799999982,,26138120.871,8,400,,,
sequence,flow.Sequence,4_10,2023-11-03T15:13:15.834Z,,0,,,2848.015000000596,completion,,,,,false,,,,26138119.199999988,26138119,26135262.652,26135266.399999976,26135270.985,26138120.871,8,400,,,
trial,html.Screen,4_11_0,2023-11-03T15:13:18.366Z,,0,1,,2530.9289999827743,response,ISIC_6673506.JPG,8,ISIC_0060946.JPG,ISIC_6673506.JPG,false,1,keypress(m),500,26140652,26140651.799999982,26138112.538,26138119.5,26138120.871,26140654.481,8,400,12,,ISIC_0060946.JPG
break,html.Screen,4_11_1,2023-11-03T15:13:18.367Z,,0,,,NaN,,,,,,false,,,,26140652.199999988,26140652.199999988,,26140652,,26140654.481,8,400,,,
break_continue,html.Screen,4_11_2,2023-11-03T15:13:18.367Z,,0,,,NaN,,,,,,false,,,,26140652.299999982,26140652.199999988,,26140652.199999988,,26140654.481,8,400,,,
sequence,flow.Sequence,4_11,2023-11-03T15:13:18.367Z,,0,,,2531.3289999887347,completion,,,,,false,,,,26140652.299999982,26140652.199999988,26138112.538,26138119.399999976,26138120.871,26140654.481,8,400,,,
trial,html.Screen,4_12_0,2023-11-03T15:13:20.997Z,,0,1,,2627.7189999893308,response,ISIC_0065889.JPG,7,ISIC_0348633.JPG,ISIC_0348633.JPG,false,0,keypress(z),500,26143282.599999994,26143282.199999988,26140646.148,26140652.299999982,26140654.481,26143287.709,8,400,13,,ISIC_0065889.JPG
break,html.Screen,4_12_1,2023-11-03T15:13:20.998Z,,0,,,NaN,,,,,,false,,,,26143283.5,26143283.299999982,,26143282.799999982,,26143287.709,8,400,,,
break_continue,html.Screen,4_12_2,2023-11-03T15:13:20.998Z,,0,,,NaN,,,,,,false,,,,26143283.899999976,26143283.799999982,,26143283.5,,26143287.709,8,400,,,
sequence,flow.Sequence,4_12,2023-11-03T15:13:20.998Z,,0,,,2629.3189999833703,completion,,,,,false,,,,26143284.099999994,26143283.799999982,26140646.148,26140652.299999982,26140654.481,26143287.709,8,400,,,
trial,html.Screen,4_13_0,2023-11-03T15:13:23.995Z,,0,1,,2992.590999983251,response,ISIC_5237059.JPG,9,ISIC_8922355.JPG,ISIC_5237059.JPG,false,1,keypress(m),500,26146280.699999988,26146280.299999982,26143279.376,26143284.099999994,26143287.709,26146287.589,8,400,14,,ISIC_8922355.JPG
break,html.Screen,4_13_1,2023-11-03T15:13:23.996Z,,0,,,NaN,,,,,,false,,,,26146281.699999988,26146281.599999994,,26146281.099999994,,26146287.589,8,400,,,
break_continue,html.Screen,4_13_2,2023-11-03T15:13:23.997Z,,0,,,NaN,,,,,,false,,,,26146282.099999994,26146282,,26146281.899999976,,26146287.589,8,400,,,
sequence,flow.Sequence,4_13,2023-11-03T15:13:23.997Z,,0,,,2994.2910000011325,completion,,,,,false,,,,26146282.199999988,26146282,26143279.376,26143284.099999994,26143287.709,26146287.589,8,400,,,
trial,html.Screen,4_14_0,2023-11-03T15:13:27.857Z,,0,1,,3855.01099999249,response,ISIC_0009622.JPG,8,ISIC_0046537.JPG,ISIC_0046537.JPG,false,0,keypress(z),500,26150143,26150142.599999994,26146279.256,26146282.399999976,26146287.589,26150150.299,8,400,15,,ISIC_0009622.JPG
break,html.Screen,4_14_1,2023-11-03T15:13:27.858Z,,0,,,NaN,,,,,,false,,,,26150144,26150143.799999982,,26150143.299999982,,26150150.299,8,400,,,
break_continue,html.Screen,4_14_2,2023-11-03T15:13:27.859Z,,0,,,NaN,,,,,,false,,,,26150144.299999982,26150144.199999988,,26150144.099999994,,26150150.299,8,400,,,
sequence,flow.Sequence,4_14,2023-11-03T15:13:27.859Z,,0,,,3856.6109999865294,completion,,,,,false,,,,26150144.399999976,26150144.199999988,26146279.256,26146282.299999982,26146287.589,26150150.299,8,400,,,
trial,html.Screen,4_15_0,2023-11-03T15:13:30.584Z,,0,1,,2719.2010000012815,response,ISIC_0014844.JPG,7,ISIC_7693611.JPG,ISIC_7693611.JPG,false,0,keypress(z),500,26152870,26152869.5,26150141.966,26150144.599999994,26150150.299,26152875.19,8,400,16,,ISIC_0014844.JPG
break,html.Screen,4_15_1,2023-11-03T15:13:30.585Z,,0,,,NaN,,,,,,false,,,,26152870.899999976,26152870.699999988,,26152870.199999988,,26152875.19,8,400,,,
break_continue,html.Screen,4_15_2,2023-11-03T15:13:30.586Z,,0,,,NaN,,,,,,false,,,,26152871.199999988,26152871.199999988,,26152871,,26152875.19,8,400,,,
sequence,flow.Sequence,4_15,2023-11-03T15:13:30.586Z,,0,,,2720.9009999893606,completion,,,,,false,,,,26152871.399999976,26152871.199999988,26150141.966,26150144.599999994,26150150.299,26152875.19,8,400,,,
trial,html.Screen,4_16_0,2023-11-03T15:13:34.064Z,,0,1,,3473.6099999807775,response,ISIC_0027882.JPG,7,ISIC_2535541.JPG,ISIC_0027882.JPG,false,1,keypress(m),500,26156349.199999988,26156348.799999982,26152866.857,26152871.5,26152875.19,26156350.051,8,400,17,,ISIC_2535541.JPG
break,html.Screen,4_16_1,2023-11-03T15:13:34.064Z,,0,,,NaN,,,,,,false,,,,26156350.099999994,26156349.899999976,,26156349.5,,26156350.051,8,400,,,
break_continue,html.Screen,4_16_2,2023-11-03T15:13:34.065Z,,0,,,NaN,,,,,,false,,,,26156350.399999976,26156350.299999982,,26156350.199999988,,26156350.051,8,400,,,
sequence,flow.Sequence,4_16,2023-11-03T15:13:34.065Z,,0,,,3475.1099999807775,completion,,,,,false,,,,26156350.599999994,26156350.299999982,26152866.857,26152871.399999976,26152875.19,26156350.051,8,400,,,
trial,html.Screen,4_17_0,2023-11-03T15:13:36.582Z,,0,1,,2516.848999977112,response,ISIC_0294687.JPG,7,ISIC_4927943.JPG,ISIC_4927943.JPG,false,0,keypress(z),500,26158867.299999982,26158866.899999976,26156341.718,26156350.699999988,26156350.051,26158874.95,8,400,18,,ISIC_0294687.JPG
break,html.Screen,4_17_1,2023-11-03T15:13:36.583Z,,0,,,NaN,,,,,,false,,,,26158868.299999982,26158868.099999994,,26158867.5,,26158874.95,8,400,,,
break_continue,html.Screen,4_17_2,2023-11-03T15:13:36.583Z,,0,,,NaN,,,,,,false,,,,26158868.599999994,26158868.5,,26158868.399999976,,26158874.95,8,400,,,
sequence,flow.Sequence,4_17,2023-11-03T15:13:36.583Z,,0,,,2518.4490000009537,completion,,,,,false,,,,26158868.799999982,26158868.5,26156341.718,26156350.699999988,26156350.051,26158874.95,8,400,,,
trial,html.Screen,4_18_0,2023-11-03T15:13:39.292Z,,0,1,,2702.1499999947846,response,ISIC_9727132.JPG,8,ISIC_9008026.JPG,ISIC_9727132.JPG,false,1,keypress(m),500,26161577.5,26161577.099999994,26158866.617,26158868.899999976,26158874.95,26161583.53,8,400,19,,ISIC_9008026.JPG
break,html.Screen,4_18_1,2023-11-03T15:13:39.293Z,,0,,,NaN,,,,,,false,,,,26161578.399999976,26161578.199999988,,26161577.699999988,,26161583.53,8,400,,,
break_continue,html.Screen,4_18_2,2023-11-03T15:13:39.293Z,,0,,,NaN,,,,,,false,,,,26161578.799999982,26161578.699999988,,26161578.5,,26161583.53,8,400,,,
sequence,flow.Sequence,4_18,2023-11-03T15:13:39.293Z,,0,,,2703.749999988824,completion,,,,,false,,,,26161579,26161578.699999988,26158866.617,26158868.799999982,26158874.95,26161583.53,8,400,,,
trial,html.Screen,4_19_0,2023-11-03T15:13:43.249Z,,0,1,,3950.7699999809265,response,ISIC_8127578.JPG,9,ISIC_0025595.JPG,ISIC_0025595.JPG,false,0,keypress(z),500,26165534.599999994,26165534.299999982,26161575.197,26161579,26161583.53,26165541.705,8,400,20,,ISIC_8127578.JPG
break,html.Screen,4_19_1,2023-11-03T15:13:43.249Z,,0,,,NaN,,,,,,false,,,,26165534.899999976,26165534.799999982,,26165534.699999988,,26165541.705,8,400,,,
break_continue,html.Screen,4_19_2,2023-11-03T15:13:43.249Z,,0,,,NaN,,,,,,false,,,,26165535.099999994,26165535.099999994,,26165535,,26165541.705,8,400,,,
sequence,flow.Sequence,4_19,2023-11-03T15:13:43.250Z,,0,,,3951.5699999928474,completion,,,,,false,,,,26165535.099999994,26165535.099999994,26161575.197,26161579,26161583.53,26165541.705,8,400,,,
trial,html.Screen,4_20_0,2023-11-03T15:13:45.767Z,,0,1,,2509.994999989867,response,ISIC_0072422.JPG,9,ISIC_0683389.JPG,ISIC_0072422.JPG,false,1,keypress(m),500,26168052.099999994,26168051.699999988,26165533.372,26165535.199999988,26165541.705,26168058.271,8,400,21,,ISIC_0683389.JPG
break,html.Screen,4_20_1,2023-11-03T15:13:45.767Z,,0,,,NaN,,,,,,false,,,,26168053.099999994,26168052.899999976,,26168052.399999976,,26168058.271,8,400,,,
break_continue,html.Screen,4_20_2,2023-11-03T15:13:45.768Z,,0,,,NaN,,,,,,false,,,,26168053.399999976,26168053.399999976,,26168053.299999982,,26168058.271,8,400,,,
sequence,flow.Sequence,4_20,2023-11-03T15:13:45.768Z,,0,,,2511.6949999779463,completion,,,,,false,,,,26168053.599999994,26168053.399999976,26165533.372,26165535.199999988,26165541.705,26168058.271,8,400,,,
trial,html.Screen,4_21_0,2023-11-03T15:13:48.687Z,,0,1,,2913.4289999864995,response,ISIC_0058071.JPG,7,ISIC_0244240.JPG,ISIC_0244240.JPG,false,0,keypress(z),500,26170972.099999994,26170971.699999988,26168049.938,26168053.699999988,26168058.271,26170975.188,8,400,22,,ISIC_0058071.JPG
break,html.Screen,4_21_1,2023-11-03T15:13:48.687Z,,0,,,NaN,,,,,,false,,,,26170973,26170972.799999982,,26170972.399999976,,26170975.188,8,400,,,
break_continue,html.Screen,4_21_2,2023-11-03T15:13:48.688Z,,0,,,NaN,,,,,,false,,,,26170973.399999976,26170973.299999982,,26170973.199999988,,26170975.188,8,400,,,
sequence,flow.Sequence,4_21,2023-11-03T15:13:48.688Z,,0,,,2915.028999980539,completion,,,,,false,,,,26170973.599999994,26170973.299999982,26168049.938,26168053.599999994,26168058.271,26170975.188,8,400,,,
trial,html.Screen,4_22_0,2023-11-03T15:13:51.156Z,,0,1,,2465.711999975145,response,ISIC_0059866.JPG,8,ISIC_0024961.JPG,ISIC_0059866.JPG,false,1,keypress(m),500,26173441.199999988,26173440.899999976,26170966.855,26170973.799999982,26170975.188,26173450.089,8,400,23,,ISIC_0024961.JPG
break,html.Screen,4_22_1,2023-11-03T15:13:51.156Z,,0,,,NaN,,,,,,false,,,,26173441.699999988,26173441.599999994,,26173441.299999982,,26173450.089,8,400,,,
break_continue,html.Screen,4_22_2,2023-11-03T15:13:51.156Z,,0,,,NaN,,,,,,false,,,,26173441.899999976,26173441.799999982,,26173441.699999988,,26173450.089,8,400,,,
sequence,flow.Sequence,4_22,2023-11-03T15:13:51.156Z,,0,,,2466.6119999811053,completion,,,,,false,,,,26173442,26173441.799999982,26170966.855,26170973.699999988,26170975.188,26173450.089,8,400,,,
trial,html.Screen,4_23_0,2023-11-03T15:13:53.708Z,,0,1,,2542.9109999984503,response,ISIC_0025571.JPG,7,ISIC_0061880.JPG,ISIC_0061880.JPG,false,0,keypress(z),500,26175993.5,26175993,26173441.756,26173442,26173450.089,26175999.987,8,400,24,,ISIC_0025571.JPG
break,html.Screen,4_23_1,2023-11-03T15:13:53.709Z,,0,,,NaN,,,,,,false,,,,26175994.399999976,26175994.199999988,,26175993.699999988,,26175999.987,8,400,,,
break_continue,html.Screen,4_23_2,2023-11-03T15:13:53.709Z,,0,,,NaN,,,,,,false,,,,26175994.799999982,26175994.599999994,,26175994.5,,26175999.987,8,400,,,
sequence,flow.Sequence,4_23,2023-11-03T15:13:53.709Z,,0,,,2544.51099999249,completion,,,,,false,,,,26175994.799999982,26175994.599999994,26173441.756,26173442,26173450.089,26175999.987,8,400,,,
trial,html.Screen,4_24_0,2023-11-03T15:13:56.547Z,,0,1,,2831.812999982387,response,ISIC_0068447.JPG,8,ISIC_0000482.JPG,ISIC_0068447.JPG,false,1,keypress(m),500,26178832.199999988,26178831.799999982,26175991.654,26175995,26175999.987,26178841.54,8,400,25,,ISIC_0000482.JPG
break,html.Screen,4_24_1,2023-11-03T15:13:56.548Z,,0,,,NaN,,,,,,false,,,,26178833.299999982,26178833.099999994,,26178832.599999994,,26178841.54,8,400,,,
break_continue,html.Screen,4_24_2,2023-11-03T15:13:56.548Z,,0,,,NaN,,,,,,false,,,,26178833.599999994,26178833.399999976,,26178833.399999976,,26178841.54,8,400,,,
sequence,flow.Sequence,4_24,2023-11-03T15:13:56.548Z,,0,,,2833.4129999764264,completion,,,,,false,,,,26178833.699999988,26178833.399999976,26175991.654,26175994.899999976,26175999.987,26178841.54,8,400,,,
trial,html.Screen,4_25_0,2023-11-03T15:13:59.417Z,,0,1,,2860.7599999830127,response,ISIC_9801917.JPG,7,ISIC_0010782.JPG,ISIC_9801917.JPG,false,1,keypress(m),500,26181702.699999988,26181702.299999982,26178833.207,26178833.899999976,26178841.54,26181708.449,8,400,26,,ISIC_0010782.JPG
break,html.Screen,4_25_1,2023-11-03T15:13:59.418Z,,0,,,NaN,,,,,,false,,,,26181703.699999988,26181703.399999976,,26181703,,26181708.449,8,400,,,
break_continue,html.Screen,4_25_2,2023-11-03T15:13:59.418Z,,0,,,NaN,,,,,,false,,,,26181704,26181703.899999976,,26181703.799999982,,26181708.449,8,400,,,
sequence,flow.Sequence,4_25,2023-11-03T15:13:59.419Z,,0,,,2862.359999977052,completion,,,,,false,,,,26181704.199999988,26181703.899999976,26178833.207,26178833.799999982,26178841.54,26181708.449,8,400,,,
trial,html.Screen,4_26_0,2023-11-03T15:14:02.479Z,,0,1,,3055.5509999990463,response,ISIC_4672131.JPG,6,ISIC_8389650.JPG,ISIC_8389650.JPG,false,0,keypress(z),500,26184764.5,26184764,26181700.116,26181704.299999982,26181708.449,26184766.66,8,400,27,,ISIC_4672131.JPG
break,html.Screen,4_26_1,2023-11-03T15:14:02.480Z,,0,,,NaN,,,,,,false,,,,26184765.399999976,26184765.099999994,,26184764.699999988,,26184766.66,8,400,,,
break_continue,html.Screen,4_26_2,2023-11-03T15:14:02.480Z,,0,,,NaN,,,,,,false,,,,26184765.799999982,26184765.599999994,,26184765.5,,26184766.66,8,400,,,
sequence,flow.Sequence,4_26,2023-11-03T15:14:02.480Z,,0,,,3057.150999993086,completion,,,,,false,,,,26184766,26184765.599999994,26181700.116,26181704.199999988,26181708.449,26184766.66,8,400,,,
trial,html.Screen,4_27_0,2023-11-03T15:14:06.068Z,,0,1,,3586.839999999851,response,ISIC_0004686.JPG,7,ISIC_6284312.JPG,ISIC_0004686.JPG,false,1,keypress(m),500,26188353.899999976,26188353.5,26184758.327,26184766.099999994,26184766.66,26188358.183,8,400,28,,ISIC_6284312.JPG
break,html.Screen,4_27_1,2023-11-03T15:14:06.069Z,,0,,,NaN,,,,,,false,,,,26188354.799999982,26188354.699999988,,26188354.199999988,,26188358.183,8,400,,,
break_continue,html.Screen,4_27_2,2023-11-03T15:14:06.070Z,,0,,,NaN,,,,,,false,,,,26188355.199999988,26188355.199999988,,26188355,,26188358.183,8,400,,,
sequence,flow.Sequence,4_27,2023-11-03T15:14:06.070Z,,0,,,3588.53999998793,completion,,,,,false,,,,26188355.399999976,26188355.199999988,26184758.327,26184766.099999994,26184766.66,26188358.183,8,400,,,
trial,html.Screen,4_28_0,2023-11-03T15:14:08.639Z,,0,1,,2566.6169999837875,response,ISIC_0010773.JPG,8,ISIC_5611104.JPG,ISIC_5611104.JPG,false,0,keypress(z),500,26190925.199999988,26190924.799999982,26188349.85,26188355.5,26188358.183,26190933.08,8,400,29,,ISIC_0010773.JPG
break,html.Screen,4_28_1,2023-11-03T15:14:08.640Z,,0,,,NaN,,,,,,false,,,,26190926.199999988,26190925.899999976,,26190925.5,,26190933.08,8,400,,,
break_continue,html.Screen,4_28_2,2023-11-03T15:14:08.641Z,,0,,,NaN,,,,,,false,,,,26190926.5,26190926.299999982,,26190926.199999988,,26190933.08,8,400,,,
sequence,flow.Sequence,4_28,2023-11-03T15:14:08.641Z,,0,,,2568.1169999837875,completion,,,,,false,,,,26190926.599999994,26190926.299999982,26188349.85,26188355.5,26188358.183,26190933.08,8,400,,,
trial,html.Screen,4_29_0,2023-11-03T15:14:11.190Z,,0,1,,2541.7199999839067,response,ISIC_8942967.JPG,7,ISIC_0062301.JPG,ISIC_0062301.JPG,false,0,keypress(z),500,26193475.199999988,26193474.799999982,26190924.747,26190926.799999982,26190933.08,26193483.329,8,400,30,,ISIC_8942967.JPG
break,html.Screen,4_29_1,2023-11-03T15:14:11.190Z,,0,,,NaN,,,,,,false,,,,26193476.099999994,26193476,,26193475.5,,26193483.329,8,400,,,
break_continue,html.Screen,4_29_2,2023-11-03T15:14:11.191Z,,0,,,NaN,,,,,,false,,,,26193476.5,26193476.399999976,,26193476.299999982,,26193483.329,8,400,,,
sequence,flow.Sequence,4_29,2023-11-03T15:14:11.191Z,,0,,,2543.3199999779463,completion,,,,,false,,,,26193476.699999988,26193476.399999976,26190924.747,26190926.699999988,26190933.08,26193483.329,8,400,,,
trial,html.Screen,4_30_0,2023-11-03T15:14:14.907Z,,0,1,,3709.1710000000894,response,ISIC_0591011.JPG,8,ISIC_0025219.JPG,ISIC_0591011.JPG,false,1,keypress(m),500,26197193,26197192.5,26193474.996,26193476.799999982,26193483.329,26197199.847,8,400,31,,ISIC_0025219.JPG
break,html.Screen,4_30_1,2023-11-03T15:14:14.908Z,,0,,,NaN,,,,,,false,,,,26197194,26197193.699999988,,26197193.199999988,,26197199.847,8,400,,,
break_continue,html.Screen,4_30_2,2023-11-03T15:14:14.909Z,,0,,,NaN,,,,,,false,,,,26197194.299999982,26197194.099999994,,26197194.099999994,,26197199.847,8,400,,,
sequence,flow.Sequence,4_30,2023-11-03T15:14:14.909Z,,0,,,3710.770999994129,completion,,,,,false,,,,26197194.5,26197194.099999994,26193474.996,26193476.699999988,26193483.329,26197199.847,8,400,,,
trial,html.Screen,4_31_0,2023-11-03T15:14:17.682Z,,0,1,,2767.6530000008643,response,ISIC_1616031.JPG,9,ISIC_8479104.JPG,ISIC_1616031.JPG,false,1,keypress(m),500,26199968,26199967.5,26197191.514,26197194.599999994,26197199.847,26199974.736,8,400,32,,ISIC_8479104.JPG
break,html.Screen,4_31_1,2023-11-03T15:14:17.683Z,,0,,,NaN,,,,,,false,,,,26199968.899999976,26199968.699999988,,26199968.199999988,,26199974.736,8,400,,,
break_continue,html.Screen,4_31_2,2023-11-03T15:14:17.684Z,,0,,,NaN,,,,,,false,,,,26199969.299999982,26199969.099999994,,26199969,,26199974.736,8,400,,,
sequence,flow.Sequence,4_31,2023-11-03T15:14:17.684Z,,0,,,2769.252999994904,completion,,,,,false,,,,26199969.299999982,26199969.099999994,26197191.514,26197194.5,26197199.847,26199974.736,8,400,,,
trial,html.Screen,4_32_0,2023-11-03T15:14:20.823Z,,0,1,,3133.7639999985695,response,ISIC_2776906.JPG,8,ISIC_0015193.JPG,ISIC_2776906.JPG,false,1,keypress(m),500,26203109,26203108.5,26199966.403,26199969.599999994,26199974.736,26203116.625,8,400,33,,ISIC_0015193.JPG
break,html.Screen,4_32_1,2023-11-03T15:14:20.824Z,,0,,,NaN,,,,,,false,,,,26203110,26203109.699999988,,26203109.199999988,,26203116.625,8,400,,,
break_continue,html.Screen,4_32_2,2023-11-03T15:14:20.825Z,,0,,,NaN,,,,,,false,,,,26203110.299999982,26203110.199999988,,26203110,,26203116.625,8,400,,,
sequence,flow.Sequence,4_32,2023-11-03T15:14:20.825Z,,0,,,3135.4639999866486,completion,,,,,false,,,,26203110.399999976,26203110.199999988,26199966.403,26199969.5,26199974.736,26203116.625,8,400,,,
trial,html.Screen,4_33_0,2023-11-03T15:14:23.439Z,,0,1,,2607.4749999940395,response,ISIC_0027214.JPG,7,ISIC_6557642.JPG,ISIC_6557642.JPG,false,0,keypress(z),500,26205724.599999994,26205724.099999994,26203108.292,26203110.5,26203116.625,26205733.187,8,400,34,,ISIC_0027214.JPG
break,html.Screen,4_33_1,2023-11-03T15:14:23.440Z,,0,,,NaN,,,,,,false,,,,26205725.5,26205725.399999976,,26205724.799999982,,26205733.187,8,400,,,
break_continue,html.Screen,4_33_2,2023-11-03T15:14:23.440Z,,0,,,NaN,,,,,,false,,,,26205726,26205725.899999976,,26205725.699999988,,26205733.187,8,400,,,
sequence,flow.Sequence,4_33,2023-11-03T15:14:23.440Z,,0,,,2609.274999976158,completion,,,,,false,,,,26205726.099999994,26205725.899999976,26203108.292,26203110.5,26203116.625,26205733.187,8,400,,,
trial,html.Screen,4_34_0,2023-11-03T15:14:26.298Z,,0,1,,2850.412999995053,response,ISIC_6721869.JPG,8,ISIC_0034075.JPG,ISIC_0034075.JPG,false,0,keypress(z),500,26208584.099999994,26208583.599999994,26205724.854,26205726.199999988,26205733.187,26208591.406,8,400,35,,ISIC_6721869.JPG
break,html.Screen,4_34_1,2023-11-03T15:14:26.299Z,,0,,,NaN,,,,,,false,,,,26208585.099999994,26208584.799999982,,26208584.399999976,,26208591.406,8,400,,,
break_continue,html.Screen,4_34_2,2023-11-03T15:14:26.300Z,,0,,,NaN,,,,,,false,,,,26208585.399999976,26208585.299999982,,26208585.299999982,,26208591.406,8,400,,,
sequence,flow.Sequence,4_34,2023-11-03T15:14:26.300Z,,0,,,2852.112999983132,completion,,,,,false,,,,26208585.699999988,26208585.299999982,26205724.854,26205726.199999988,26205733.187,26208591.406,8,400,,,
trial,html.Screen,4_35_0,2023-11-03T15:14:28.929Z,,0,1,,2623.2939999885857,response,ISIC_0000279.JPG,7,ISIC_9358630.JPG,ISIC_9358630.JPG,false,0,keypress(z),500,26211215.099999994,26211214.699999988,26208583.073,26208585.799999982,26208591.406,26211216.301,8,400,36,,ISIC_0000279.JPG
break,html.Screen,4_35_1,2023-11-03T15:14:28.930Z,,0,,,NaN,,,,,,false,,,,26211216.099999994,26211215.899999976,,26211215.399999976,,26211216.301,8,400,,,
break_continue,html.Screen,4_35_2,2023-11-03T15:14:28.931Z,,0,,,NaN,,,,,,false,,,,26211216.5,26211216.299999982,,26211216.199999988,,26211216.301,8,400,,,
sequence,flow.Sequence,4_35,2023-11-03T15:14:28.931Z,,0,,,2624.8939999826252,completion,,,,,false,,,,26211216.599999994,26211216.299999982,26208583.073,26208585.699999988,26208591.406,26211216.301,8,400,,,
trial,html.Screen,4_36_0,2023-11-03T15:14:32.776Z,,0,1,,3844.6990000009537,response,ISIC_4526581.JPG,7,ISIC_0072559.JPG,ISIC_4526581.JPG,false,1,keypress(m),500,26215061.5,26215061,26211207.968,26211216.699999988,26211216.301,26215066.501,8,400,37,,ISIC_0072559.JPG
break,html.Screen,4_36_1,2023-11-03T15:14:32.777Z,,0,,,NaN,,,,,,false,,,,26215062.399999976,26215062.299999982,,26215061.799999982,,26215066.501,8,400,,,
break_continue,html.Screen,4_36_2,2023-11-03T15:14:32.777Z,,0,,,NaN,,,,,,false,,,,26215062.699999988,26215062.599999994,,26215062.5,,26215066.501,8,400,,,
sequence,flow.Sequence,4_36,2023-11-03T15:14:32.777Z,,0,,,3846.298999994993,completion,,,,,false,,,,26215062.899999976,26215062.599999994,26211207.968,26211216.699999988,26211216.301,26215066.501,8,400,,,
trial,html.Screen,4_37_0,2023-11-03T15:14:36.093Z,,0,1,,3311.4990000016987,response,ISIC_9169586.JPG,8,ISIC_1399572.JPG,ISIC_1399572.JPG,false,0,keypress(z),500,26218378.5,26218378,26215058.168,26215063,26215066.501,26218383.035,8,400,38,,ISIC_9169586.JPG
break,html.Screen,4_37_1,2023-11-03T15:14:36.094Z,,0,,,NaN,,,,,,false,,,,26218379.5,26218379.199999988,,26218378.799999982,,26218383.035,8,400,,,
break_continue,html.Screen,4_37_2,2023-11-03T15:14:36.094Z,,0,,,NaN,,,,,,false,,,,26218379.899999976,26218379.699999988,,26218379.599999994,,26218383.035,8,400,,,
sequence,flow.Sequence,4_37,2023-11-03T15:14:36.094Z,,0,,,3313.198999989778,completion,,,,,false,,,,26218380.099999994,26218379.699999988,26215058.168,26215063,26215066.501,26218383.035,8,400,,,
trial,html.Screen,4_38_0,2023-11-03T15:14:39.059Z,,0,1,,2961.7649999819696,response,ISIC_0033229.JPG,8,ISIC_6148533.JPG,ISIC_0033229.JPG,false,1,keypress(m),500,26221345.199999988,26221344.799999982,26218374.702,26218380.199999988,26218383.035,26221349.583,8,400,39,,ISIC_6148533.JPG
break,html.Screen,4_38_1,2023-11-03T15:14:39.060Z,,0,,,NaN,,,,,,false,,,,26221346.199999988,26221346,,26221345.5,,26221349.583,8,400,,,
break_continue,html.Screen,4_38_2,2023-11-03T15:14:39.061Z,,0,,,NaN,,,,,,false,,,,26221346.5,26221346.399999976,,26221346.299999982,,26221349.583,8,400,,,
sequence,flow.Sequence,4_38,2023-11-03T15:14:39.061Z,,0,,,2963.364999976009,completion,,,,,false,,,,26221346.699999988,26221346.399999976,26218374.702,26218380.099999994,26218383.035,26221349.583,8,400,,,
trial,html.Screen,4_39_0,2023-11-03T15:14:41.162Z,,0,1,,2097.816999975592,response,ISIC_8030914.JPG,5,ISIC_6813359.JPG,ISIC_6813359.JPG,false,0,keypress(z),500,26223447.799999982,26223447.399999976,26221341.25,26221346.899999976,26221349.583,26223449.85,8,400,40,,ISIC_8030914.JPG
break,html.Screen,4_39_1,2023-11-03T15:14:41.164Z,,0,,,NaN,,,,,,false,,,,26223449.599999994,26223448.5,,26223448.099999994,,26223449.85,8,400,,,
break_continue,html.Screen,4_39_2,2023-11-03T15:14:41.164Z,,0,,,NaN,,,,,,false,,,,26223449.899999976,26223449.799999982,,26223449.599999994,,26223449.85,8,400,,,
sequence,flow.Sequence,4_39,2023-11-03T15:14:41.164Z,,0,,,2100.2169999815524,completion,,,,,false,,,,26223449.899999976,26223449.799999982,26221341.25,26221346.799999982,26221349.583,26223449.85,8,400,,,
trial,html.Screen,4_40_0,2023-11-03T15:14:43.684Z,,0,1,,2519.349999986589,response,ISIC_6778515.JPG,5,ISIC_0054317.JPG,ISIC_6778515.JPG,false,1,keypress(m),500,26225969.699999988,26225969.199999988,26223441.517,26223450,26223449.85,26225974.749,8,400,41,,ISIC_0054317.JPG
break,html.Screen,4_40_1,2023-11-03T15:14:43.685Z,,0,,,NaN,,,,,,false,,,,26225970.599999994,26225970.299999982,,26225969.899999976,,26225974.749,8,400,,,
break_continue,html.Screen,4_40_2,2023-11-03T15:14:43.685Z,,0,,,NaN,,,,,,false,,,,26225970.899999976,26225970.699999988,,26225970.599999994,,26225974.749,8,400,,,
sequence,flow.Sequence,4_40,2023-11-03T15:14:43.685Z,,0,,,2520.849999986589,completion,,,,,false,,,,26225971,26225970.699999988,26223441.517,26223450,26223449.85,26225974.749,8,400,,,
trial,html.Screen,4_41_0,2023-11-03T15:14:46.251Z,,0,1,,2561.4509999863803,response,ISIC_8655206.JPG,8,ISIC_0011780.JPG,ISIC_8655206.JPG,false,1,keypress(m),500,26228536.699999988,26228536.199999988,26225966.416,26225971.099999994,26225974.749,26228541.313,8,400,42,,ISIC_0011780.JPG
break,html.Screen,4_41_1,2023-11-03T15:14:46.252Z,,0,,,NaN,,,,,,false,,,,26228537.5,26228537.299999982,,26228536.799999982,,26228541.313,8,400,,,
break_continue,html.Screen,4_41_2,2023-11-03T15:14:46.252Z,,0,,,NaN,,,,,,false,,,,26228537.899999976,26228537.699999988,,26228537.599999994,,26228541.313,8,400,,,
sequence,flow.Sequence,4_41,2023-11-03T15:14:46.252Z,,0,,,2562.9509999863803,completion,,,,,false,,,,26228538,26228537.699999988,26225966.416,26225971.099999994,26225974.749,26228541.313,8,400,,,
trial,html.Screen,4_42_0,2023-11-03T15:14:49.105Z,,0,1,,2849.386999987066,response,ISIC_2631789.JPG,6,ISIC_0011863.JPG,ISIC_2631789.JPG,false,1,keypress(m),500,26231391.099999994,26231390.699999988,26228532.98,26228538.099999994,26228541.313,26231399.532,8,400,43,,ISIC_0011863.JPG
break,html.Screen,4_42_1,2023-11-03T15:14:49.106Z,,0,,,NaN,,,,,,false,,,,26231392.099999994,26231391.899999976,,26231391.399999976,,26231399.532,8,400,,,
break_continue,html.Screen,4_42_2,2023-11-03T15:14:49.107Z,,0,,,NaN,,,,,,false,,,,26231392.299999982,26231392.299999982,,26231392.099999994,,26231399.532,8,400,,,
sequence,flow.Sequence,4_42,2023-11-03T15:14:49.107Z,,0,,,2850.9869999811053,completion,,,,,false,,,,26231392.599999994,26231392.299999982,26228532.98,26228538,26228541.313,26231399.532,8,400,,,
trial,html.Screen,4_43_0,2023-11-03T15:14:52.234Z,,0,1,,3120.367999974638,response,ISIC_0015411.JPG,6,ISIC_8995044.JPG,ISIC_8995044.JPG,false,0,keypress(z),500,26234520.299999982,26234519.899999976,26231391.199,26231392.699999988,26231399.532,26234524.752,8,400,44,,ISIC_0015411.JPG
break,html.Screen,4_43_1,2023-11-03T15:14:52.235Z,,0,,,NaN,,,,,,false,,,,26234521.299999982,26234521,,26234520.599999994,,26234524.752,8,400,,,
break_continue,html.Screen,4_43_2,2023-11-03T15:14:52.236Z,,0,,,NaN,,,,,,false,,,,26234521.599999994,26234521.5,,26234521.399999976,,26234524.752,8,400,,,
sequence,flow.Sequence,4_43,2023-11-03T15:14:52.236Z,,0,,,3121.96799999848,completion,,,,,false,,,,26234521.799999982,26234521.5,26231391.199,26231392.599999994,26231399.532,26234524.752,8,400,,,
trial,html.Screen,4_44_0,2023-11-03T15:14:54.753Z,,0,1,,2513.247999999672,response,ISIC_2421696.JPG,7,ISIC_0028136.JPG,ISIC_2421696.JPG,false,1,keypress(m),500,26237038.399999976,26237038,26234516.419,26234521.799999982,26234524.752,26237041.318,8,400,45,,ISIC_0028136.JPG
break,html.Screen,4_44_1,2023-11-03T15:14:54.754Z,,0,,,NaN,,,,,,false,,,,26237039.399999976,26237039.199999988,,26237038.699999988,,26237041.318,8,400,,,
break_continue,html.Screen,4_44_2,2023-11-03T15:14:54.754Z,,0,,,NaN,,,,,,false,,,,26237039.699999988,26237039.599999994,,26237039.5,,26237041.318,8,400,,,
sequence,flow.Sequence,4_44,2023-11-03T15:14:54.754Z,,0,,,2514.8479999937117,completion,,,,,false,,,,26237039.899999976,26237039.599999994,26234516.419,26234521.799999982,26234524.752,26237041.318,8,400,,,
trial,html.Screen,4_45_0,2023-11-03T15:14:57.194Z,,0,1,,2437.7819999940693,response,ISIC_7618133.JPG,6,ISIC_0063493.JPG,ISIC_7618133.JPG,false,1,keypress(m),500,26239479.599999994,26239479.099999994,26237032.985,26237040,26237041.318,26239482.887,8,400,46,,ISIC_0063493.JPG
break,html.Screen,4_45_1,2023-11-03T15:14:57.195Z,,0,,,NaN,,,,,,false,,,,26239480.5,26239480.299999982,,26239479.799999982,,26239482.887,8,400,,,
break_continue,html.Screen,4_45_2,2023-11-03T15:14:57.195Z,,0,,,NaN,,,,,,false,,,,26239480.799999982,26239480.699999988,,26239480.599999994,,26239482.887,8,400,,,
sequence,flow.Sequence,4_45,2023-11-03T15:14:57.195Z,,0,,,2439.381999988109,completion,,,,,false,,,,26239480.899999976,26239480.699999988,26237032.985,26237040,26237041.318,26239482.887,8,400,,,
trial,html.Screen,4_46_0,2023-11-03T15:15:00.466Z,,0,1,,3268.712999995798,response,ISIC_0028567.JPG,6,ISIC_0067808.JPG,ISIC_0028567.JPG,false,1,keypress(m),500,26242752,26242751.599999994,26239474.554,26239481.099999994,26239482.887,26242758.128,8,400,47,,ISIC_0067808.JPG
break,html.Screen,4_46_1,2023-11-03T15:15:00.467Z,,0,,,NaN,,,,,,false,,,,26242753,26242752.799999982,,26242752.299999982,,26242758.128,8,400,,,
break_continue,html.Screen,4_46_2,2023-11-03T15:15:00.468Z,,0,,,NaN,,,,,,false,,,,26242753.299999982,26242753.199999988,,26242753.199999988,,26242758.128,8,400,,,
sequence,flow.Sequence,4_46,2023-11-03T15:15:00.468Z,,0,,,3270.3129999898374,completion,,,,,false,,,,26242753.5,26242753.199999988,26239474.554,26239481,26239482.887,26242758.128,8,400,,,
trial,html.Screen,4_47_0,2023-11-03T15:15:03.482Z,,0,1,,3009.57199998945,response,ISIC_1470250.JPG,7,ISIC_0025900.JPG,ISIC_0025900.JPG,false,0,keypress(z),500,26245768.199999988,26245767.699999988,26242749.795,26242753.599999994,26242758.128,26245774.674,8,400,48,,ISIC_1470250.JPG
break,html.Screen,4_47_1,2023-11-03T15:15:03.483Z,,0,,,NaN,,,,,,false,,,,26245769.099999994,26245768.899999976,,26245768.299999982,,26245774.674,8,400,,,
break_continue,html.Screen,4_47_2,2023-11-03T15:15:03.484Z,,0,,,NaN,,,,,,false,,,,26245769.5,26245769.299999982,,26245769.199999988,,26245774.674,8,400,,,
sequence,flow.Sequence,4_47,2023-11-03T15:15:03.484Z,,0,,,3011.1719999834895,completion,,,,,false,,,,26245769.599999994,26245769.299999982,26242749.795,26242753.599999994,26242758.128,26245774.674,8,400,,,
trial,html.Screen,4_48_0,2023-11-03T15:15:06.208Z,,0,1,,2718.8260000012815,response,ISIC_9103090.JPG,8,ISIC_8165906.JPG,ISIC_9103090.JPG,false,1,keypress(m),500,26248493.599999994,26248493.5,26245766.341,26245769.699999988,26245774.674,26248499.565,8,400,49,,ISIC_8165906.JPG
break,html.Screen,4_48_1,2023-11-03T15:15:06.208Z,,0,,,NaN,,,,,,false,,,,26248493.899999976,26248493.899999976,,26248493.699999988,,26248499.565,8,400,,,
break_continue,html.Screen,4_48_2,2023-11-03T15:15:06.208Z,,0,,,NaN,,,,,,false,,,,26248494,26248494,,26248493.899999976,,26248499.565,8,400,,,
sequence,flow.Sequence,4_48,2023-11-03T15:15:06.208Z,,0,,,2719.3260000012815,completion,,,,,false,,,,26248494,26248494,26245766.341,26245769.699999988,26245774.674,26248499.565,8,400,,,
trial,html.Screen,4_49_0,2023-11-03T15:15:08.852Z,,0,1,,2637.5349999926984,response,ISIC_4529363.JPG,8,ISIC_8176449.JPG,ISIC_4529363.JPG,false,1,keypress(m),500,26251137.599999994,26251137.099999994,26248491.232,26248494.099999994,26248499.565,26251141.126,8,400,50,,ISIC_8176449.JPG
break,html.Screen,4_49_1,2023-11-03T15:15:18.851Z,,0,,,9999.952000003308,timeout,,,,,false,,,,26261137.099999994,26261132.745,26251132.793,26251137.799999982,26251141.126,26261141.078,8,400,,,
break_continue,html.Screen,4_49_2,2023-11-03T15:15:20.098Z,,0,,,1233.4219999983907,response,,,,,false,continue,keypress(Space),,26262384.099999994,26262374.5,26261132.745,26261137.199999988,26261141.078,26262391.028,8,400,,,
sequence,flow.Sequence,4_49,2023-11-03T15:15:20.098Z,,0,,,13874.934999998659,completion,,,,,false,,,,26262384.299999982,26262374.5,26248491.232,26248494.099999994,26248499.565,26262391.028,8,400,,,
trial,html.Screen,4_50_0,2023-11-03T15:15:22.635Z,,0,2,,2529.871999975294,response,ISIC_5377237.JPG,8,ISIC_0011797.JPG,ISIC_5377237.JPG,false,1,keypress(m),500,26264921.299999982,26264920.899999976,26262382.695,26262384.399999976,26262391.028,26264924.617,8,400,1,,ISIC_0011797.JPG
break,html.Screen,4_50_1,2023-11-03T15:15:22.636Z,,0,,,NaN,,,,,,false,,,,26264922.299999982,26264922.099999994,,26264921.599999994,,26264924.617,8,400,,,
break_continue,html.Screen,4_50_2,2023-11-03T15:15:22.637Z,,0,,,NaN,,,,,,false,,,,26264922.699999988,26264922.5,,26264922.399999976,,26264924.617,8,400,,,
sequence,flow.Sequence,4_50,2023-11-03T15:15:22.637Z,,0,,,2531.4719999991357,completion,,,,,false,,,,26264922.799999982,26264922.5,26262382.695,26262384.399999976,26262391.028,26264924.617,8,400,,,
trial,html.Screen,4_51_0,2023-11-03T15:15:25.618Z,,0,2,,2978.482999995351,response,ISIC_0033463.JPG,8,ISIC_0031931.JPG,ISIC_0033463.JPG,false,1,keypress(m),500,26267903.399999976,26267903.099999994,26264916.284,26264922.899999976,26264924.617,26267907.831,8,400,2,,ISIC_0031931.JPG
break,html.Screen,4_51_1,2023-11-03T15:15:25.618Z,,0,,,NaN,,,,,,false,,,,26267904.399999976,26267904.199999988,,26267903.799999982,,26267907.831,8,400,,,
break_continue,html.Screen,4_51_2,2023-11-03T15:15:25.619Z,,0,,,NaN,,,,,,false,,,,26267904.799999982,26267904.599999994,,26267904.5,,26267907.831,8,400,,,
sequence,flow.Sequence,4_51,2023-11-03T15:15:25.619Z,,0,,,2979.982999995351,completion,,,,,false,,,,26267904.899999976,26267904.599999994,26264916.284,26264922.799999982,26264924.617,26267907.831,8,400,,,
trial,html.Screen,4_52_0,2023-11-03T15:15:28.088Z,,0,2,,2465.3689999878407,response,ISIC_0064879.JPG,7,ISIC_9175856.JPG,ISIC_0064879.JPG,false,1,keypress(m),500,26270373.699999988,26270373.199999988,26267899.498,26267905.099999994,26267907.831,26270382.732,8,400,3,,ISIC_9175856.JPG
break,html.Screen,4_52_1,2023-11-03T15:15:28.089Z,,0,,,NaN,,,,,,false,,,,26270374.599999994,26270374.5,,26270373.899999976,,26270382.732,8,400,,,
break_continue,html.Screen,4_52_2,2023-11-03T15:15:28.089Z,,0,,,NaN,,,,,,false,,,,26270375,26270374.799999982,,26270374.699999988,,26270382.732,8,400,,,
sequence,flow.Sequence,4_52,2023-11-03T15:15:28.089Z,,0,,,2466.96899998188,completion,,,,,false,,,,26270375.099999994,26270374.799999982,26267899.498,26267905,26267907.831,26270382.732,8,400,,,
trial,html.Screen,4_53_0,2023-11-03T15:15:30.429Z,,0,2,,2332.467999987304,response,ISIC_0033901.JPG,8,ISIC_0014867.JPG,ISIC_0014867.JPG,false,0,keypress(z),500,26272715.299999982,26272715.199999988,26270374.399,26270375.199999988,26270382.732,26272715.972,8,400,4,,ISIC_0033901.JPG
break,html.Screen,4_53_1,2023-11-03T15:15:30.430Z,,0,,,NaN,,,,,,false,,,,26272715.699999988,26272715.599999994,,26272715.399999976,,26272715.972,8,400,,,
break_continue,html.Screen,4_53_2,2023-11-03T15:15:30.430Z,,0,,,NaN,,,,,,false,,,,26272715.799999982,26272715.799999982,,26272715.699999988,,26272715.972,8,400,,,
sequence,flow.Sequence,4_53,2023-11-03T15:15:30.430Z,,0,,,2333.0679999813437,completion,,,,,false,,,,26272715.899999976,26272715.799999982,26270374.399,26270375.199999988,26270382.732,26272715.972,8,400,,,
trial,html.Screen,4_54_0,2023-11-03T15:15:33.475Z,,0,2,,3044.9279999770224,response,ISIC_9397126.JPG,8,ISIC_3666219.JPG,ISIC_3666219.JPG,false,0,keypress(z),500,26275761.299999982,26275760.899999976,26272707.639,26272715.899999976,26272715.972,26275766.2,8,400,5,,ISIC_9397126.JPG
break,html.Screen,4_54_1,2023-11-03T15:15:33.476Z,,0,,,NaN,,,,,,false,,,,26275762.299999982,26275762.099999994,,26275761.599999994,,26275766.2,8,400,,,
break_continue,html.Screen,4_54_2,2023-11-03T15:15:33.477Z,,0,,,NaN,,,,,,false,,,,26275762.699999988,26275762.599999994,,26275762.399999976,,26275766.2,8,400,,,
sequence,flow.Sequence,4_54,2023-11-03T15:15:33.477Z,,0,,,3046.627999994904,completion,,,,,false,,,,26275762.799999982,26275762.599999994,26272707.639,26272715.899999976,26272715.972,26275766.2,8,400,,,
trial,html.Screen,4_55_0,2023-11-03T15:15:36.218Z,,0,2,,2736.999999988824,response,ISIC_0030194.JPG,7,ISIC_0067160.JPG,ISIC_0067160.JPG,false,0,keypress(z),500,26278503.699999988,26278503.199999988,26275757.867,26275762.899999976,26275766.2,26278507.757,8,400,6,,ISIC_0030194.JPG
break,html.Screen,4_55_1,2023-11-03T15:15:36.219Z,,0,,,NaN,,,,,,false,,,,26278504.699999988,26278504.5,,26278504,,26278507.757,8,400,,,
break_continue,html.Screen,4_55_2,2023-11-03T15:15:36.219Z,,0,,,NaN,,,,,,false,,,,26278505,26278504.899999976,,26278504.699999988,,26278507.757,8,400,,,
sequence,flow.Sequence,4_55,2023-11-03T15:15:36.219Z,,0,,,2738.699999976903,completion,,,,,false,,,,26278505.099999994,26278504.899999976,26275757.867,26275762.899999976,26275766.2,26278507.757,8,400,,,
trial,html.Screen,4_56_0,2023-11-03T15:15:40.318Z,,0,2,,4096.542999982834,response,ISIC_0032603.JPG,7,ISIC_4590810.JPG,ISIC_4590810.JPG,false,0,keypress(z),500,26282604.5,26282604.299999982,26278499.424,26278505.199999988,26278507.757,26282615.926,8,400,7,,ISIC_0032603.JPG
break,html.Screen,4_56_1,2023-11-03T15:15:40.319Z,,0,,,NaN,,,,,,false,,,,26282604.599999994,26282604.599999994,,26282604.5,,26282615.926,8,400,,,
break_continue,html.Screen,4_56_2,2023-11-03T15:15:40.319Z,,0,,,NaN,,,,,,false,,,,26282604.699999988,26282604.699999988,,26282604.699999988,,26282615.926,8,400,,,
sequence,flow.Sequence,4_56,2023-11-03T15:15:40.319Z,,0,,,4096.942999988794,completion,,,,,false,,,,26282604.699999988,26282604.699999988,26278499.424,26278505.199999988,26278507.757,26282615.926,8,400,,,
trial,html.Screen,4_57_0,2023-11-03T15:15:42.872Z,,0,2,,2541.473999977112,response,ISIC_0069330.JPG,8,ISIC_0065521.JPG,ISIC_0069330.JPG,false,1,keypress(m),500,26285157.699999988,26285157.399999976,26282607.593,26282604.699999988,26282615.926,26285166.196,8,400,8,,ISIC_0065521.JPG
break,html.Screen,4_57_1,2023-11-03T15:15:42.873Z,,0,,,NaN,,,,,,false,,,,26285158.799999982,26285158.5,,26285158,,26285166.196,8,400,,,
break_continue,html.Screen,4_57_2,2023-11-03T15:15:42.873Z,,0,,,NaN,,,,,,false,,,,26285159.099999994,26285159,,26285158.899999976,,26285166.196,8,400,,,
sequence,flow.Sequence,4_57,2023-11-03T15:15:42.873Z,,0,,,2543.0740000009537,completion,,,,,false,,,,26285159.199999988,26285159,26282607.593,26282604.699999988,26282615.926,26285166.196,8,400,,,
trial,html.Screen,4_58_0,2023-11-03T15:15:45.538Z,,0,2,,2656.9039999954402,response,ISIC_2772616.JPG,8,ISIC_0004686.JPG,ISIC_0004686.JPG,false,0,keypress(z),500,26287823.5,26287823.099999994,26285157.863,26285159.299999982,26285166.196,26287832.756,8,400,9,,ISIC_2772616.JPG
break,html.Screen,4_58_1,2023-11-03T15:15:45.539Z,,0,,,NaN,,,,,,false,,,,26287824.5,26287824.299999982,,26287823.799999982,,26287832.756,8,400,,,
break_continue,html.Screen,4_58_2,2023-11-03T15:15:45.539Z,,0,,,NaN,,,,,,false,,,,26287824.799999982,26287824.699999988,,26287824.599999994,,26287832.756,8,400,,,
sequence,flow.Sequence,4_58,2023-11-03T15:15:45.539Z,,0,,,2658.50399998948,completion,,,,,false,,,,26287825,26287824.699999988,26285157.863,26285159.199999988,26285166.196,26287832.756,8,400,,,
trial,html.Screen,4_59_0,2023-11-03T15:15:48.253Z,,0,2,,2705.6439999751747,response,ISIC_0054988.JPG,8,ISIC_4462476.JPG,ISIC_4462476.JPG,false,0,keypress(z),500,26290538.799999982,26290538.399999976,26287824.423,26287825.099999994,26287832.756,26290540.981,8,400,10,,ISIC_0054988.JPG
break,html.Screen,4_59_1,2023-11-03T15:15:48.254Z,,0,,,NaN,,,,,,false,,,,26290539.799999982,26290539.599999994,,26290539.099999994,,26290540.981,8,400,,,
break_continue,html.Screen,4_59_2,2023-11-03T15:15:48.254Z,,0,,,NaN,,,,,,false,,,,26290540.099999994,26290540,,26290539.899999976,,26290540.981,8,400,,,
sequence,flow.Sequence,4_59,2023-11-03T15:15:48.254Z,,0,,,2707.2439999990165,completion,,,,,false,,,,26290540.399999976,26290540,26287824.423,26287825.099999994,26287832.756,26290540.981,8,400,,,
trial,html.Screen,4_60_0,2023-11-03T15:15:50.993Z,,0,2,,2738.0190000012517,response,ISIC_6132976.JPG,7,ISIC_0064559.JPG,ISIC_0064559.JPG,false,0,keypress(z),500,26293279.399999976,26293279,26290532.648,26290540.5,26290540.981,26293282.538,8,400,11,,ISIC_6132976.JPG
break,html.Screen,4_60_1,2023-11-03T15:15:50.994Z,,0,,,NaN,,,,,,false,,,,26293280.399999976,26293280.199999988,,26293279.699999988,,26293282.538,8,400,,,
break_continue,html.Screen,4_60_2,2023-11-03T15:15:50.995Z,,0,,,NaN,,,,,,false,,,,26293280.699999988,26293280.599999994,,26293280.5,,26293282.538,8,400,,,
sequence,flow.Sequence,4_60,2023-11-03T15:15:50.995Z,,0,,,2739.6189999952912,completion,,,,,false,,,,26293280.899999976,26293280.599999994,26290532.648,26290540.5,26290540.981,26293282.538,8,400,,,
trial,html.Screen,4_61_0,2023-11-03T15:15:53.628Z,,0,2,,2631.161999989301,response,ISIC_4153542.JPG,7,ISIC_8140072.JPG,ISIC_4153542.JPG,false,1,keypress(m),500,26295913.899999976,26295913.699999988,26293274.205,26293280.899999976,26293282.538,26295916.135,8,400,12,,ISIC_8140072.JPG
break,html.Screen,4_61_1,2023-11-03T15:15:53.628Z,,0,,,NaN,,,,,,false,,,,26295914.399999976,26295914.199999988,,26295914.099999994,,26295916.135,8,400,,,
break_continue,html.Screen,4_61_2,2023-11-03T15:15:53.628Z,,0,,,NaN,,,,,,false,,,,26295914.5,26295914.399999976,,26295914.399999976,,26295916.135,8,400,,,
sequence,flow.Sequence,4_61,2023-11-03T15:15:53.629Z,,0,,,2631.86199997738,completion,,,,,false,,,,26295914.599999994,26295914.399999976,26293274.205,26293280.899999976,26293282.538,26295916.135,8,400,,,
trial,html.Screen,4_62_0,2023-11-03T15:15:56.374Z,,0,2,,2743.764999974519,response,ISIC_1328488.JPG,8,ISIC_5362869.JPG,ISIC_1328488.JPG,false,1,keypress(m),500,26298660.399999976,26298659.899999976,26295907.802,26295914.599999994,26295916.135,26298666.025,8,400,13,,ISIC_5362869.JPG
break,html.Screen,4_62_1,2023-11-03T15:15:56.375Z,,0,,,NaN,,,,,,false,,,,26298661.299999982,26298661,,26298660.599999994,,26298666.025,8,400,,,
break_continue,html.Screen,4_62_2,2023-11-03T15:15:56.376Z,,0,,,NaN,,,,,,false,,,,26298661.599999994,26298661.5,,26298661.399999976,,26298666.025,8,400,,,
sequence,flow.Sequence,4_62,2023-11-03T15:15:56.376Z,,0,,,2745.364999998361,completion,,,,,false,,,,26298661.799999982,26298661.5,26295907.802,26295914.599999994,26295916.135,26298666.025,8,400,,,
trial,html.Screen,4_63_0,2023-11-03T15:15:59.072Z,,0,2,,2691.674999989569,response,ISIC_0024792.JPG,6,ISIC_7287303.JPG,ISIC_7287303.JPG,false,0,keypress(z),500,26301358.099999994,26301357.699999988,26298657.692,26298661.899999976,26298666.025,26301365.917,8,400,14,,ISIC_0024792.JPG
break,html.Screen,4_63_1,2023-11-03T15:15:59.073Z,,0,,,NaN,,,,,,false,,,,26301358.899999976,26301358.699999988,,26301358.299999982,,26301365.917,8,400,,,
break_continue,html.Screen,4_63_2,2023-11-03T15:15:59.073Z,,0,,,NaN,,,,,,false,,,,26301359.299999982,26301359.099999994,,26301359,,26301365.917,8,400,,,
sequence,flow.Sequence,4_63,2023-11-03T15:15:59.073Z,,0,,,2693.0749999955297,completion,,,,,false,,,,26301359.299999982,26301359.099999994,26298657.692,26298661.899999976,26298666.025,26301365.917,8,400,,,
trial,html.Screen,4_64_0,2023-11-03T15:16:02.056Z,,0,2,,2975.5830000005662,response,ISIC_0059808.JPG,8,ISIC_7923008.JPG,ISIC_7923008.JPG,false,0,keypress(z),500,26304341.599999994,26304341.5,26301357.584,26301359.399999976,26301365.917,26304349.131,8,400,15,,ISIC_0059808.JPG
break,html.Screen,4_64_1,2023-11-03T15:16:02.056Z,,0,,,NaN,,,,,,false,,,,26304342,26304341.899999976,,26304341.799999982,,26304349.131,8,400,,,
break_continue,html.Screen,4_64_2,2023-11-03T15:16:02.056Z,,0,,,NaN,,,,,,false,,,,26304342.199999988,26304342.099999994,,26304342.099999994,,26304349.131,8,400,,,
sequence,flow.Sequence,4_64,2023-11-03T15:16:02.056Z,,0,,,2976.182999994606,completion,,,,,false,,,,26304342.199999988,26304342.099999994,26301357.584,26301359.399999976,26301365.917,26304349.131,8,400,,,
trial,html.Screen,4_65_0,2023-11-03T15:16:04.747Z,,0,2,,2683.5689999870956,response,ISIC_0072030.JPG,5,ISIC_6754835.JPG,ISIC_6754835.JPG,false,0,keypress(z),500,26307032.899999976,26307032.699999988,26304340.798,26304342.299999982,26304349.131,26307041.042,8,400,16,,ISIC_0072030.JPG
break,html.Screen,4_65_1,2023-11-03T15:16:04.747Z,,0,,,NaN,,,,,,false,,,,26307033.299999982,26307033.199999988,,26307033,,26307041.042,8,400,,,
break_continue,html.Screen,4_65_2,2023-11-03T15:16:04.747Z,,0,,,NaN,,,,,,false,,,,26307033.399999976,26307033.399999976,,26307033.299999982,,26307041.042,8,400,,,
sequence,flow.Sequence,4_65,2023-11-03T15:16:04.747Z,,0,,,2684.2689999751747,completion,,,,,false,,,,26307033.399999976,26307033.399999976,26304340.798,26304342.299999982,26304349.131,26307041.042,8,400,,,
trial,html.Screen,4_66_0,2023-11-03T15:16:08.179Z,,0,2,,3424.1579999886453,response,ISIC_3952030.JPG,5,ISIC_0062025.JPG,ISIC_3952030.JPG,false,1,keypress(m),500,26310465.5,26310465.199999988,26307032.709,26307033.399999976,26307041.042,26310474.238,8,400,17,,ISIC_0062025.JPG
break,html.Screen,4_66_1,2023-11-03T15:16:08.180Z,,0,,,NaN,,,,,,false,,,,26310465.899999976,26310465.799999982,,26310465.599999994,,26310474.238,8,400,,,
break_continue,html.Screen,4_66_2,2023-11-03T15:16:08.180Z,,0,,,NaN,,,,,,false,,,,26310466,26310466,,26310465.899999976,,26310474.238,8,400,,,
sequence,flow.Sequence,4_66,2023-11-03T15:16:08.180Z,,0,,,3424.9580000005662,completion,,,,,false,,,,26310466.099999994,26310466,26307032.709,26307033.399999976,26307041.042,26310474.238,8,400,,,
trial,html.Screen,4_67_0,2023-11-03T15:16:10.391Z,,0,2,,2202.5619999803603,response,ISIC_4808298.JPG,9,ISIC_9486917.JPG,ISIC_4808298.JPG,false,1,keypress(m),500,26312677.199999988,26312676.799999982,26310465.905,26310466.099999994,26310474.238,26312682.483,8,400,18,,ISIC_9486917.JPG
break,html.Screen,4_67_1,2023-11-03T15:16:10.392Z,,0,,,NaN,,,,,,false,,,,26312678.199999988,26312678,,26312677.5,,26312682.483,8,400,,,
break_continue,html.Screen,4_67_2,2023-11-03T15:16:10.392Z,,0,,,NaN,,,,,,false,,,,26312678.5,26312678.5,,26312678.299999982,,26312682.483,8,400,,,
sequence,flow.Sequence,4_67,2023-11-03T15:16:10.393Z,,0,,,2204.2619999982417,completion,,,,,false,,,,26312678.699999988,26312678.5,26310465.905,26310466.099999994,26310474.238,26312682.483,8,400,,,
trial,html.Screen,4_68_0,2023-11-03T15:16:12.961Z,,0,2,,2563.916999977082,response,ISIC_0028949.JPG,7,ISIC_5530598.JPG,ISIC_5530598.JPG,false,0,keypress(z),500,26315246.799999982,26315246.399999976,26312674.15,26312678.799999982,26312682.483,26315249.407,8,400,19,,ISIC_0028949.JPG
break,html.Screen,4_68_1,2023-11-03T15:16:12.962Z,,0,,,NaN,,,,,,false,,,,26315247.799999982,26315247.599999994,,26315247.099999994,,26315249.407,8,400,,,
break_continue,html.Screen,4_68_2,2023-11-03T15:16:12.962Z,,0,,,NaN,,,,,,false,,,,26315248.099999994,26315248,,26315247.899999976,,26315249.407,8,400,,,
sequence,flow.Sequence,4_68,2023-11-03T15:16:12.962Z,,0,,,2565.517000000924,completion,,,,,false,,,,26315248.199999988,26315248,26312674.15,26312678.799999982,26312682.483,26315249.407,8,400,,,
trial,html.Screen,4_69_0,2023-11-03T15:16:15.803Z,,0,2,,2839.292999986559,response,ISIC_4536407.JPG,8,ISIC_9826778.JPG,ISIC_9826778.JPG,false,0,keypress(z),500,26318089.099999994,26318088.699999988,26315241.074,26315248.399999976,26315249.407,26318090.96,8,400,20,,ISIC_4536407.JPG
break,html.Screen,4_69_1,2023-11-03T15:16:15.804Z,,0,,,NaN,,,,,,false,,,,26318090.099999994,26318089.899999976,,26318089.399999976,,26318090.96,8,400,,,
break_continue,html.Screen,4_69_2,2023-11-03T15:16:15.804Z,,0,,,NaN,,,,,,false,,,,26318090.399999976,26318090.299999982,,26318090.199999988,,26318090.96,8,400,,,
sequence,flow.Sequence,4_69,2023-11-03T15:16:15.805Z,,0,,,2840.8929999805987,completion,,,,,false,,,,26318090.599999994,26318090.299999982,26315241.074,26315248.399999976,26315249.407,26318090.96,8,400,,,
trial,html.Screen,4_70_0,2023-11-03T15:16:18.785Z,,0,2,,2979.939999975264,response,ISIC_7865214.JPG,8,ISIC_0063070.JPG,ISIC_7865214.JPG,false,1,keypress(m),500,26321071.099999994,26321070.899999976,26318082.627,26318090.799999982,26318090.96,26321074.174,8,400,21,,ISIC_0063070.JPG
break,html.Screen,4_70_1,2023-11-03T15:16:18.785Z,,0,,,NaN,,,,,,false,,,,26321071.399999976,26321071.299999982,,26321071.199999988,,26321074.174,8,400,,,
break_continue,html.Screen,4_70_2,2023-11-03T15:16:18.785Z,,0,,,NaN,,,,,,false,,,,26321071.5,26321071.399999976,,26321071.399999976,,26321074.174,8,400,,,
sequence,flow.Sequence,4_70,2023-11-03T15:16:18.785Z,,0,,,2980.439999975264,completion,,,,,false,,,,26321071.5,26321071.399999976,26318082.627,26318090.599999994,26318090.96,26321074.174,8,400,,,
trial,html.Screen,4_71_0,2023-11-03T15:16:22.388Z,,0,2,,3599.425999995321,response,ISIC_9471156.JPG,4,ISIC_2299862.JPG,ISIC_2299862.JPG,false,0,keypress(z),500,26324674.099999994,26324673.599999994,26321065.841,26321071.5,26321074.174,26324682.363,8,400,22,,ISIC_9471156.JPG
break,html.Screen,4_71_1,2023-11-03T15:16:22.389Z,,0,,,NaN,,,,,,false,,,,26324675,26324674.799999982,,26324674.399999976,,26324682.363,8,400,,,
break_continue,html.Screen,4_71_2,2023-11-03T15:16:22.389Z,,0,,,NaN,,,,,,false,,,,26324675.299999982,26324675.299999982,,26324675.099999994,,26324682.363,8,400,,,
sequence,flow.Sequence,4_71,2023-11-03T15:16:22.389Z,,0,,,3601.1259999834,completion,,,,,false,,,,26324675.5,26324675.299999982,26321065.841,26321071.5,26321074.174,26324682.363,8,400,,,
trial,html.Screen,4_72_0,2023-11-03T15:16:25.400Z,,0,2,,3003.4369999803603,response,ISIC_3649632.JPG,7,ISIC_0074311.JPG,ISIC_3649632.JPG,false,1,keypress(m),500,26327686.199999988,26327685.799999982,26324674.03,26324675.599999994,26324682.363,26327695.099,8,400,23,,ISIC_0074311.JPG
break,html.Screen,4_72_1,2023-11-03T15:16:25.401Z,,0,,,NaN,,,,,,false,,,,26327687.099999994,26327686.899999976,,26327686.399999976,,26327695.099,8,400,,,
break_continue,html.Screen,4_72_2,2023-11-03T15:16:25.401Z,,0,,,NaN,,,,,,false,,,,26327687.5,26327687.399999976,,26327687.299999982,,26327695.099,8,400,,,
sequence,flow.Sequence,4_72,2023-11-03T15:16:25.402Z,,0,,,3005.0369999744,completion,,,,,false,,,,26327687.699999988,26327687.399999976,26324674.03,26324675.599999994,26324682.363,26327695.099,8,400,,,
trial,html.Screen,4_73_0,2023-11-03T15:16:28.338Z,,0,2,,2928.9010000005364,response,ISIC_0070961.JPG,8,ISIC_7682938.JPG,ISIC_0070961.JPG,false,1,keypress(m),500,26330624.399999976,26330624,26327686.766,26327687.799999982,26327695.099,26330628.315,8,400,24,,ISIC_7682938.JPG
break,html.Screen,4_73_1,2023-11-03T15:16:28.339Z,,0,,,NaN,,,,,,false,,,,26330625.399999976,26330625.199999988,,26330624.699999988,,26330628.315,8,400,,,
break_continue,html.Screen,4_73_2,2023-11-03T15:16:28.340Z,,0,,,NaN,,,,,,false,,,,26330625.699999988,26330625.599999994,,26330625.5,,26330628.315,8,400,,,
sequence,flow.Sequence,4_73,2023-11-03T15:16:28.340Z,,0,,,2930.500999994576,completion,,,,,false,,,,26330625.899999976,26330625.599999994,26327686.766,26327687.799999982,26327695.099,26330628.315,8,400,,,
trial,html.Screen,4_74_0,2023-11-03T15:16:30.872Z,,0,2,,2529.9849999807775,response,ISIC_5897799.JPG,5,ISIC_0016123.JPG,ISIC_5897799.JPG,false,1,keypress(m),500,26333158.5,26333158.299999982,26330619.982,26330626,26330628.315,26333161.547,8,400,25,,ISIC_0016123.JPG
break,html.Screen,4_74_1,2023-11-03T15:16:30.873Z,,0,,,NaN,,,,,,false,,,,26333158.899999976,26333158.799999982,,26333158.599999994,,26333161.547,8,400,,,
break_continue,html.Screen,4_74_2,2023-11-03T15:16:30.873Z,,0,,,NaN,,,,,,false,,,,26333158.899999976,26333158.899999976,,26333158.899999976,,26333161.547,8,400,,,
sequence,flow.Sequence,4_74,2023-11-03T15:16:30.873Z,,0,,,2530.584999974817,completion,,,,,false,,,,26333159,26333158.899999976,26330619.982,26330625.899999976,26330628.315,26333161.547,8,400,,,
trial,html.Screen,4_75_0,2023-11-03T15:16:33.565Z,,0,2,,2689.252999983728,response,ISIC_0058998.JPG,5,ISIC_0029942.JPG,ISIC_0029942.JPG,false,0,keypress(z),500,26335851.299999982,26335850.799999982,26333153.214,26333159,26333161.547,26335853.458,8,400,26,,ISIC_0058998.JPG
break,html.Screen,4_75_1,2023-11-03T15:16:33.566Z,,0,,,NaN,,,,,,false,,,,26335852.199999988,26335852,,26335851.5,,26335853.458,8,400,,,
break_continue,html.Screen,4_75_2,2023-11-03T15:16:33.566Z,,0,,,NaN,,,,,,false,,,,26335852.599999994,26335852.399999976,,26335852.299999982,,26335853.458,8,400,,,
sequence,flow.Sequence,4_75,2023-11-03T15:16:33.567Z,,0,,,2690.8529999777675,completion,,,,,false,,,,26335852.699999988,26335852.399999976,26333153.214,26333159,26333161.547,26335853.458,8,400,,,
trial,html.Screen,4_76_0,2023-11-03T15:16:36.371Z,,0,2,,2803.241999987513,response,ISIC_0027951.JPG,8,ISIC_0010011.JPG,ISIC_0010011.JPG,false,0,keypress(z),500,26338657.099999994,26338656.699999988,26335845.125,26335852.799999982,26335853.458,26338661.679,8,400,27,,ISIC_0027951.JPG
break,html.Screen,4_76_1,2023-11-03T15:16:36.372Z,,0,,,NaN,,,,,,false,,,,26338658.199999988,26338657.899999976,,26338657.399999976,,26338661.679,8,400,,,
break_continue,html.Screen,4_76_2,2023-11-03T15:16:36.372Z,,0,,,NaN,,,,,,false,,,,26338658.5,26338658.399999976,,26338658.199999988,,26338661.679,8,400,,,
sequence,flow.Sequence,4_76,2023-11-03T15:16:36.373Z,,0,,,2804.941999975592,completion,,,,,false,,,,26338658.599999994,26338658.399999976,26335845.125,26335852.799999982,26335853.458,26338661.679,8,400,,,
trial,html.Screen,4_77_0,2023-11-03T15:16:39.640Z,,0,2,,3264.2209999747574,response,ISIC_0005762.JPG,8,ISIC_4033676.JPG,ISIC_0005762.JPG,false,1,keypress(m),500,26341926.399999976,26341925.899999976,26338653.346,26338658.699999988,26338661.679,26341928.215,8,400,28,,ISIC_4033676.JPG
break,html.Screen,4_77_1,2023-11-03T15:16:39.641Z,,0,,,NaN,,,,,,false,,,,26341927.299999982,26341927.099999994,,26341926.599999994,,26341928.215,8,400,,,
break_continue,html.Screen,4_77_2,2023-11-03T15:16:39.641Z,,0,,,NaN,,,,,,false,,,,26341927.599999994,26341927.599999994,,26341927.399999976,,26341928.215,8,400,,,
sequence,flow.Sequence,4_77,2023-11-03T15:16:39.642Z,,0,,,3265.920999992639,completion,,,,,false,,,,26341927.799999982,26341927.599999994,26338653.346,26338658.699999988,26338661.679,26341928.215,8,400,,,
trial,html.Screen,4_78_0,2023-11-03T15:16:42.335Z,,0,2,,2692.684999976307,response,ISIC_5216586.JPG,8,ISIC_7833008.JPG,ISIC_7833008.JPG,false,0,keypress(z),500,26344621.299999982,26344620.899999976,26341919.882,26341927.899999976,26341928.215,26344628.107,8,400,29,,ISIC_5216586.JPG
break,html.Screen,4_78_1,2023-11-03T15:16:42.336Z,,0,,,NaN,,,,,,false,,,,26344622.299999982,26344622,,26344621.599999994,,26344628.107,8,400,,,
break_continue,html.Screen,4_78_2,2023-11-03T15:16:42.336Z,,0,,,NaN,,,,,,false,,,,26344622.599999994,26344622.5,,26344622.399999976,,26344628.107,8,400,,,
sequence,flow.Sequence,4_78,2023-11-03T15:16:42.337Z,,0,,,2694.285000000149,completion,,,,,false,,,,26344622.799999982,26344622.5,26341919.882,26341927.899999976,26341928.215,26344628.107,8,400,,,
trial,html.Screen,4_79_0,2023-11-03T15:16:45.162Z,,0,2,,2819.6929999813437,response,ISIC_3888713.JPG,7,ISIC_1838888.JPG,ISIC_1838888.JPG,false,0,keypress(z),500,26347448.299999982,26347447.799999982,26344619.774,26344622.899999976,26344628.107,26347457.519,8,400,30,,ISIC_3888713.JPG
break,html.Screen,4_79_1,2023-11-03T15:16:45.163Z,,0,,,NaN,,,,,,false,,,,26347449.199999988,26347449,,26347448.5,,26347457.519,8,400,,,
break_continue,html.Screen,4_79_2,2023-11-03T15:16:45.163Z,,0,,,NaN,,,,,,false,,,,26347449.5,26347449.399999976,,26347449.299999982,,26347457.519,8,400,,,
sequence,flow.Sequence,4_79,2023-11-03T15:16:45.164Z,,0,,,2821.2929999753833,completion,,,,,false,,,,26347449.599999994,26347449.399999976,26344619.774,26344622.899999976,26344628.107,26347457.519,8,400,,,
trial,html.Screen,4_80_0,2023-11-03T15:16:47.807Z,,0,2,,2634.8809999749064,response,ISIC_9439034.JPG,5,ISIC_7945429.JPG,ISIC_7945429.JPG,false,0,keypress(z),500,26350092.799999982,26350092.399999976,26347449.186,26347449.799999982,26347457.519,26350099.08,8,400,31,,ISIC_9439034.JPG
break,html.Screen,4_80_1,2023-11-03T15:16:47.807Z,,0,,,NaN,,,,,,false,,,,26350093.5,26350093.399999976,,26350093,,26350099.08,8,400,,,
break_continue,html.Screen,4_80_2,2023-11-03T15:16:47.808Z,,0,,,NaN,,,,,,false,,,,26350093.799999982,26350093.699999988,,26350093.599999994,,26350099.08,8,400,,,
sequence,flow.Sequence,4_80,2023-11-03T15:16:47.808Z,,0,,,2636.1809999868274,completion,,,,,false,,,,26350093.899999976,26350093.699999988,26347449.186,26347449.799999982,26347457.519,26350099.08,8,400,,,
trial,html.Screen,4_81_0,2023-11-03T15:16:50.489Z,,0,2,,2675.8199999779463,response,ISIC_0056655.JPG,9,ISIC_0001112.JPG,ISIC_0056655.JPG,false,1,keypress(m),500,26352775.299999982,26352774.899999976,26350090.747,26350093.899999976,26350099.08,26352782.306,8,400,32,,ISIC_0001112.JPG
break,html.Screen,4_81_1,2023-11-03T15:16:50.490Z,,0,,,NaN,,,,,,false,,,,26352776.399999976,26352776.199999988,,26352775.599999994,,26352782.306,8,400,,,
break_continue,html.Screen,4_81_2,2023-11-03T15:16:50.491Z,,0,,,NaN,,,,,,false,,,,26352776.699999988,26352776.599999994,,26352776.5,,26352782.306,8,400,,,
sequence,flow.Sequence,4_81,2023-11-03T15:16:50.491Z,,0,,,2677.5199999958277,completion,,,,,false,,,,26352776.899999976,26352776.599999994,26350090.747,26350093.899999976,26350099.08,26352782.306,8,400,,,
trial,html.Screen,4_82_0,2023-11-03T15:16:53.264Z,,0,2,,2767.5939999744296,response,ISIC_0032540.JPG,7,ISIC_8120622.JPG,ISIC_8120622.JPG,false,0,keypress(z),500,26355550.299999982,26355549.899999976,26352773.973,26352777,26352782.306,26355557.195,8,400,33,,ISIC_0032540.JPG
break,html.Screen,4_82_1,2023-11-03T15:16:53.265Z,,0,,,NaN,,,,,,false,,,,26355551.299999982,26355551.099999994,,26355550.599999994,,26355557.195,8,400,,,
break_continue,html.Screen,4_82_2,2023-11-03T15:16:53.266Z,,0,,,NaN,,,,,,false,,,,26355551.699999988,26355551.599999994,,26355551.399999976,,26355557.195,8,400,,,
sequence,flow.Sequence,4_82,2023-11-03T15:16:53.266Z,,0,,,2769.293999992311,completion,,,,,false,,,,26355551.899999976,26355551.599999994,26352773.973,26352777,26352782.306,26355557.195,8,400,,,
trial,html.Screen,4_83_0,2023-11-03T15:16:56.102Z,,0,2,,2831.004999987781,response,ISIC_6628544.JPG,5,ISIC_9499787.JPG,ISIC_6628544.JPG,false,1,keypress(m),500,26358388.599999994,26358388.199999988,26355548.862,26355552,26355557.195,26358390.792,8,400,34,,ISIC_9499787.JPG
break,html.Screen,4_83_1,2023-11-03T15:16:56.103Z,,0,,,NaN,,,,,,false,,,,26358389.599999994,26358389.299999982,,26358388.899999976,,26358390.792,8,400,,,
break_continue,html.Screen,4_83_2,2023-11-03T15:16:56.104Z,,0,,,NaN,,,,,,false,,,,26358389.899999976,26358389.799999982,,26358389.699999988,,26358390.792,8,400,,,
sequence,flow.Sequence,4_83,2023-11-03T15:16:56.104Z,,0,,,2832.6049999818206,completion,,,,,false,,,,26358390.099999994,26358389.799999982,26355548.862,26355551.899999976,26355557.195,26358390.792,8,400,,,
trial,html.Screen,4_84_0,2023-11-03T15:16:59.553Z,,0,2,,3448.4079999886453,response,ISIC_9260499.JPG,7,ISIC_6570611.JPG,ISIC_9260499.JPG,false,1,keypress(m),500,26361839.699999988,26361839.199999988,26358382.459,26358390.199999988,26358390.792,26361840.654,8,400,35,,ISIC_6570611.JPG
break,html.Screen,4_84_1,2023-11-03T15:16:59.554Z,,0,,,NaN,,,,,,false,,,,26361840.599999994,26361840.399999976,,26361840,,26361840.654,8,400,,,
break_continue,html.Screen,4_84_2,2023-11-03T15:16:59.555Z,,0,,,NaN,,,,,,false,,,,26361841,26361840.799999982,,26361840.699999988,,26361840.654,8,400,,,
sequence,flow.Sequence,4_84,2023-11-03T15:16:59.555Z,,0,,,3450.007999982685,completion,,,,,false,,,,26361841.199999988,26361840.799999982,26358382.459,26358390.199999988,26358390.792,26361840.654,8,400,,,
trial,html.Screen,4_85_0,2023-11-03T15:17:02.103Z,,0,2,,2548.445999994874,response,ISIC_0072101.JPG,8,ISIC_8708106.JPG,ISIC_8708106.JPG,false,0,keypress(z),500,26364389.5,26364389.099999994,26361832.321,26361841.399999976,26361840.654,26364390.552,8,400,36,,ISIC_0072101.JPG
break,html.Screen,4_85_1,2023-11-03T15:17:02.104Z,,0,,,NaN,,,,,,false,,,,26364390.399999976,26364390.199999988,,26364389.799999982,,26364390.552,8,400,,,
break_continue,html.Screen,4_85_2,2023-11-03T15:17:02.105Z,,0,,,NaN,,,,,,false,,,,26364390.799999982,26364390.599999994,,26364390.5,,26364390.552,8,400,,,
sequence,flow.Sequence,4_85,2023-11-03T15:17:02.105Z,,0,,,2549.945999994874,completion,,,,,false,,,,26364390.899999976,26364390.599999994,26361832.321,26361841.299999982,26361840.654,26364390.552,8,400,,,
trial,html.Screen,4_86_0,2023-11-03T15:17:05.022Z,,0,2,,2917.3479999750853,response,ISIC_0056603.JPG,7,ISIC_0026407.JPG,ISIC_0026407.JPG,false,0,keypress(z),500,26367308.399999976,26367307.899999976,26364382.219,26364391.099999994,26364390.552,26367315.789,8,400,37,,ISIC_0056603.JPG
break,html.Screen,4_86_1,2023-11-03T15:17:05.023Z,,0,,,NaN,,,,,,false,,,,26367309.5,26367309.199999988,,26367308.599999994,,26367315.789,8,400,,,
break_continue,html.Screen,4_86_2,2023-11-03T15:17:05.024Z,,0,,,NaN,,,,,,false,,,,26367309.699999988,26367309.599999994,,26367309.5,,26367315.789,8,400,,,
sequence,flow.Sequence,4_86,2023-11-03T15:17:05.024Z,,0,,,2919.0479999929667,completion,,,,,false,,,,26367310,26367309.599999994,26364382.219,26364391,26364390.552,26367315.789,8,400,,,
trial,html.Screen,4_87_0,2023-11-03T15:17:08.021Z,,0,2,,2991.2109999991953,response,ISIC_0627979.JPG,8,ISIC_1532684.JPG,ISIC_0627979.JPG,false,1,keypress(m),500,26370307.5,26370307,26367307.456,26367310,26367315.789,26370315.669,8,400,38,,ISIC_1532684.JPG
break,html.Screen,4_87_1,2023-11-03T15:17:08.022Z,,0,,,NaN,,,,,,false,,,,26370308.5,26370308.299999982,,26370307.699999988,,26370315.669,8,400,,,
break_continue,html.Screen,4_87_2,2023-11-03T15:17:08.023Z,,0,,,NaN,,,,,,false,,,,26370308.899999976,26370308.699999988,,26370308.599999994,,26370315.669,8,400,,,
sequence,flow.Sequence,4_87,2023-11-03T15:17:08.023Z,,0,,,2992.9109999872744,completion,,,,,false,,,,26370309,26370308.699999988,26367307.456,26367310,26367315.789,26370315.669,8,400,,,
trial,html.Screen,4_88_0,2023-11-03T15:17:10.986Z,,0,2,,2956.0309999883175,response,ISIC_8622365.JPG,6,ISIC_0028528.JPG,ISIC_8622365.JPG,false,1,keypress(m),500,26373272.099999994,26373271.699999988,26370307.336,26370309.099999994,26370315.669,26373273.884,8,400,39,,ISIC_0028528.JPG
break,html.Screen,4_88_1,2023-11-03T15:17:10.987Z,,0,,,NaN,,,,,,false,,,,26373273,26373272.799999982,,26373272.299999982,,26373273.884,8,400,,,
break_continue,html.Screen,4_88_2,2023-11-03T15:17:10.987Z,,0,,,NaN,,,,,,false,,,,26373273.299999982,26373273.299999982,,26373273.099999994,,26373273.884,8,400,,,
sequence,flow.Sequence,4_88,2023-11-03T15:17:10.987Z,,0,,,2957.630999982357,completion,,,,,false,,,,26373273.5,26373273.299999982,26370307.336,26370309.099999994,26370315.669,26373273.884,8,400,,,
trial,html.Screen,4_89_0,2023-11-03T15:17:13.617Z,,0,2,,2628.8159999884665,response,ISIC_1375476.JPG,8,ISIC_0072773.JPG,ISIC_0072773.JPG,false,0,keypress(z),500,26375903.199999988,26375902.699999988,26373265.551,26373273.599999994,26373273.884,26375907.112,8,400,40,,ISIC_1375476.JPG
break,html.Screen,4_89_1,2023-11-03T15:17:13.618Z,,0,,,NaN,,,,,,false,,,,26375904.199999988,26375904,,26375903.5,,26375907.112,8,400,,,
break_continue,html.Screen,4_89_2,2023-11-03T15:17:13.618Z,,0,,,NaN,,,,,,false,,,,26375904.599999994,26375904.399999976,,26375904.299999982,,26375907.112,8,400,,,
sequence,flow.Sequence,4_89,2023-11-03T15:17:13.618Z,,0,,,2630.5159999765456,completion,,,,,false,,,,26375904.699999988,26375904.399999976,26373265.551,26373273.5,26373273.884,26375907.112,8,400,,,
trial,html.Screen,4_90_0,2023-11-03T15:17:16.439Z,,0,2,,2817.5879999883473,response,ISIC_0031931.JPG,8,ISIC_0911448.JPG,ISIC_0911448.JPG,false,0,keypress(z),500,26378725.199999988,26378724.699999988,26375898.779,26375904.799999982,26375907.112,26378732.343,8,400,41,,ISIC_0031931.JPG
break,html.Screen,4_90_1,2023-11-03T15:17:16.440Z,,0,,,NaN,,,,,,false,,,,26378726.199999988,26378726,,26378725.5,,26378732.343,8,400,,,
break_continue,html.Screen,4_90_2,2023-11-03T15:17:16.440Z,,0,,,NaN,,,,,,false,,,,26378726.599999994,26378726.399999976,,26378726.399999976,,26378732.343,8,400,,,
sequence,flow.Sequence,4_90,2023-11-03T15:17:16.440Z,,0,,,2819.2879999764264,completion,,,,,false,,,,26378726.699999988,26378726.399999976,26375898.779,26375904.699999988,26375907.112,26378732.343,8,400,,,
trial,html.Screen,4_91_0,2023-11-03T15:17:19.229Z,,0,2,,2782.556999977678,response,ISIC_9543945.JPG,6,ISIC_0010014.JPG,ISIC_0010014.JPG,false,0,keypress(z),500,26381515.399999976,26381514.899999976,26378724.01,26378726.899999976,26378732.343,26381523.898,8,400,42,,ISIC_9543945.JPG
break,html.Screen,4_91_1,2023-11-03T15:17:19.230Z,,0,,,NaN,,,,,,false,,,,26381516.399999976,26381516.199999988,,26381515.699999988,,26381523.898,8,400,,,
break_continue,html.Screen,4_91_2,2023-11-03T15:17:19.231Z,,0,,,NaN,,,,,,false,,,,26381516.799999982,26381516.599999994,,26381516.5,,26381523.898,8,400,,,
sequence,flow.Sequence,4_91,2023-11-03T15:17:19.231Z,,0,,,2784.2569999955595,completion,,,,,false,,,,26381516.899999976,26381516.599999994,26378724.01,26378726.799999982,26378732.343,26381523.898,8,400,,,
trial,html.Screen,4_92_0,2023-11-03T15:17:21.784Z,,0,2,,2545.4019999839365,response,ISIC_5011583.JPG,7,ISIC_0027238.JPG,ISIC_5011583.JPG,false,1,keypress(m),500,26384069.799999982,26384069.299999982,26381515.565,26381517.099999994,26381523.898,26384073.796,8,400,43,,ISIC_0027238.JPG
break,html.Screen,4_92_1,2023-11-03T15:17:21.785Z,,0,,,NaN,,,,,,false,,,,26384070.799999982,26384070.599999994,,26384070.099999994,,26384073.796,8,400,,,
break_continue,html.Screen,4_92_2,2023-11-03T15:17:21.785Z,,0,,,NaN,,,,,,false,,,,26384071.199999988,26384071,,26384071,,26384073.796,8,400,,,
sequence,flow.Sequence,4_92,2023-11-03T15:17:21.785Z,,0,,,2547.102000001818,completion,,,,,false,,,,26384071.299999982,26384071,26381515.565,26381517,26381523.898,26384073.796,8,400,,,
trial,html.Screen,4_93_0,2023-11-03T15:17:24.462Z,,0,2,,2673.80399999395,response,ISIC_0068895.JPG,7,ISIC_0011256.JPG,ISIC_0011256.JPG,false,0,keypress(z),500,26386748.099999994,26386747.599999994,26384065.463,26384071.399999976,26384073.796,26386757.022,8,400,44,,ISIC_0068895.JPG
break,html.Screen,4_93_1,2023-11-03T15:17:24.463Z,,0,,,NaN,,,,,,false,,,,26386749,26386748.799999982,,26386748.299999982,,26386757.022,8,400,,,
break_continue,html.Screen,4_93_2,2023-11-03T15:17:24.463Z,,0,,,NaN,,,,,,false,,,,26386749.399999976,26386749.199999988,,26386749.199999988,,26386757.022,8,400,,,
sequence,flow.Sequence,4_93,2023-11-03T15:17:24.463Z,,0,,,2675.4039999879897,completion,,,,,false,,,,26386749.5,26386749.199999988,26384065.463,26384071.399999976,26384073.796,26386757.022,8,400,,,
trial,html.Screen,4_94_0,2023-11-03T15:17:26.820Z,,0,2,,2348.978000000119,response,ISIC_8892663.JPG,8,ISIC_1328804.JPG,ISIC_8892663.JPG,false,1,keypress(m),500,26389106.399999976,26389106,26386748.689,26386749.599999994,26386757.022,26389107.306,8,400,45,,ISIC_1328804.JPG
break,html.Screen,4_94_1,2023-11-03T15:17:26.821Z,,0,,,NaN,,,,,,false,,,,26389107.299999982,26389107.099999994,,26389106.599999994,,26389107.306,8,400,,,
break_continue,html.Screen,4_94_2,2023-11-03T15:17:26.821Z,,0,,,NaN,,,,,,false,,,,26389107.699999988,26389107.5,,26389107.399999976,,26389107.306,8,400,,,
sequence,flow.Sequence,4_94,2023-11-03T15:17:26.822Z,,0,,,2350.478000000119,completion,,,,,false,,,,26389107.799999982,26389107.5,26386748.689,26386749.599999994,26386757.022,26389107.306,8,400,,,
trial,html.Screen,4_95_0,2023-11-03T15:17:29.259Z,,0,2,,2437.6939999982715,response,ISIC_8172822.JPG,8,ISIC_0370008.JPG,ISIC_0370008.JPG,false,0,keypress(z),500,26391545.399999976,26391545,26389098.973,26389108,26389107.306,26391548.875,8,400,46,,ISIC_8172822.JPG
break,html.Screen,4_95_1,2023-11-03T15:17:29.260Z,,0,,,NaN,,,,,,false,,,,26391546.299999982,26391546.099999994,,26391545.599999994,,26391548.875,8,400,,,
break_continue,html.Screen,4_95_2,2023-11-03T15:17:29.260Z,,0,,,NaN,,,,,,false,,,,26391546.799999982,26391546.599999994,,26391546.399999976,,26391548.875,8,400,,,
sequence,flow.Sequence,4_95,2023-11-03T15:17:29.261Z,,0,,,2439.293999992311,completion,,,,,false,,,,26391546.799999982,26391546.599999994,26389098.973,26389107.899999976,26389107.306,26391548.875,8,400,,,
trial,html.Screen,4_96_0,2023-11-03T15:17:31.890Z,,0,2,,2626.524999976158,response,ISIC_0027696.JPG,5,ISIC_0030392.JPG,ISIC_0030392.JPG,false,0,keypress(z),500,26394175.799999982,26394175.399999976,26391540.542,26391547,26391548.875,26394182.103,8,400,47,,ISIC_0027696.JPG
break,html.Screen,4_96_1,2023-11-03T15:17:31.890Z,,0,,,NaN,,,,,,false,,,,26394176.799999982,26394176.599999994,,26394176.099999994,,26394182.103,8,400,,,
break_continue,html.Screen,4_96_2,2023-11-03T15:17:31.891Z,,0,,,NaN,,,,,,false,,,,26394177.099999994,26394177,,26394176.799999982,,26394182.103,8,400,,,
sequence,flow.Sequence,4_96,2023-11-03T15:17:31.891Z,,0,,,2628.125,completion,,,,,false,,,,26394177.299999982,26394177,26391540.542,26391547,26391548.875,26394182.103,8,400,,,
trial,html.Screen,4_97_0,2023-11-03T15:17:34.781Z,,0,2,,2884.4969999939203,response,ISIC_5393367.JPG,8,ISIC_4801737.JPG,ISIC_5393367.JPG,false,1,keypress(m),500,26397066.899999976,26397066.599999994,26394173.77,26394177.299999982,26394182.103,26397073.654,8,400,48,,ISIC_4801737.JPG
break,html.Screen,4_97_1,2023-11-03T15:17:34.782Z,,0,,,NaN,,,,,,false,,,,26397067.899999976,26397067.699999988,,26397067.199999988,,26397073.654,8,400,,,
break_continue,html.Screen,4_97_2,2023-11-03T15:17:34.782Z,,0,,,NaN,,,,,,false,,,,26397068.199999988,26397068.099999994,,26397067.899999976,,26397073.654,8,400,,,
sequence,flow.Sequence,4_97,2023-11-03T15:17:34.782Z,,0,,,2885.9969999939203,completion,,,,,false,,,,26397068.299999982,26397068.099999994,26394173.77,26394177.299999982,26394182.103,26397073.654,8,400,,,
trial,html.Screen,4_98_0,2023-11-03T15:17:37.571Z,,0,2,,2783.0459999889135,response,ISIC_0026613.JPG,9,ISIC_0026531.JPG,ISIC_0026613.JPG,false,1,keypress(m),500,26399857,26399856.699999988,26397065.321,26397068.5,26397073.654,26399861.399,8,400,49,,ISIC_0026531.JPG
break,html.Screen,4_98_1,2023-11-03T15:17:37.572Z,,0,,,NaN,,,,,,false,,,,26399858,26399857.799999982,,26399857.299999982,,26399861.399,8,400,,,
break_continue,html.Screen,4_98_2,2023-11-03T15:17:37.572Z,,0,,,NaN,,,,,,false,,,,26399858.399999976,26399858.199999988,,26399858.099999994,,26399861.399,8,400,,,
sequence,flow.Sequence,4_98,2023-11-03T15:17:37.572Z,,0,,,2784.5459999889135,completion,,,,,false,,,,26399858.599999994,26399858.199999988,26397065.321,26397068.399999976,26397073.654,26399861.399,8,400,,,
trial,html.Screen,4_99_0,2023-11-03T15:17:40.170Z,,0,2,,2594.700999993831,response,ISIC_6507492.JPG,8,ISIC_0059264.JPG,ISIC_6507492.JPG,false,1,keypress(m),500,26402456.5,26402456.099999994,26399853.066,26399858.799999982,26399861.399,26402461.295,8,400,50,,ISIC_0059264.JPG
break,html.Screen,4_99_1,2023-11-03T15:17:50.170Z,,0,,,9999.944999996573,timeout,,,,,false,,,,26412455.799999982,26412452.907,26402452.962,26402456.799999982,26402461.295,26412461.24,8,400,,,
break_continue,html.Screen,4_99_2,2023-11-03T15:17:51.104Z,,0,,,912.8599999956787,response,,,,,false,continue,keypress(Space),,26413390.099999994,26413374.099999994,26412452.907,26412456,26412461.24,26413394.536,8,400,,,
sequence,flow.Sequence,4_99,2023-11-03T15:17:51.104Z,,0,,,13512.700999993831,completion,,,,,false,,,,26413390.199999988,26413374.099999994,26399853.066,26399858.699999988,26399861.399,26413394.536,8,400,,,
trial,html.Screen,4_100_0,2023-11-03T15:17:56.424Z,,0,3,,5315.663999989629,response,ISIC_2177748.JPG,8,ISIC_3880324.JPG,ISIC_3880324.JPG,false,0,keypress(z),500,26418710.599999994,26418710.199999988,26413386.203,26413390.299999982,26413394.536,26418719.672,8,400,1,,ISIC_2177748.JPG
break,html.Screen,4_100_1,2023-11-03T15:17:56.425Z,,0,,,NaN,,,,,,false,,,,26418711.699999988,26418711.399999976,,26418710.899999976,,26418719.672,8,400,,,
break_continue,html.Screen,4_100_2,2023-11-03T15:17:56.426Z,,0,,,NaN,,,,,,false,,,,26418712,26418711.899999976,,26418711.799999982,,26418719.672,8,400,,,
sequence,flow.Sequence,4_100,2023-11-03T15:17:56.426Z,,0,,,5317.363999977708,completion,,,,,false,,,,26418712.199999988,26418711.899999976,26413386.203,26413390.299999982,26413394.536,26418719.672,8,400,,,
trial,html.Screen,4_101_0,2023-11-03T15:17:59.742Z,,0,3,,3308.127999983728,response,ISIC_6451703.JPG,7,ISIC_2054180.JPG,ISIC_6451703.JPG,false,1,keypress(m),500,26422028,26422027.799999982,26418711.339,26418712.299999982,26418719.672,26422036.206,8,400,2,,ISIC_2054180.JPG
break,html.Screen,4_101_1,2023-11-03T15:17:59.742Z,,0,,,NaN,,,,,,false,,,,26422028.299999982,26422028.299999982,,26422028.099999994,,26422036.206,8,400,,,
break_continue,html.Screen,4_101_2,2023-11-03T15:17:59.742Z,,0,,,NaN,,,,,,false,,,,26422028.399999976,26422028.399999976,,26422028.399999976,,26422036.206,8,400,,,
sequence,flow.Sequence,4_101,2023-11-03T15:17:59.742Z,,0,,,3308.7279999777675,completion,,,,,false,,,,26422028.5,26422028.399999976,26418711.339,26418712.299999982,26418719.672,26422036.206,8,400,,,
trial,html.Screen,4_102_0,2023-11-03T15:18:02.354Z,,0,3,,2603.893999993801,response,ISIC_0071988.JPG,8,ISIC_9865097.JPG,ISIC_9865097.JPG,false,0,keypress(z),500,26424640.599999994,26424640.099999994,26422027.873,26422028.599999994,26422036.206,26424644.435,8,400,3,,ISIC_0071988.JPG
break,html.Screen,4_102_1,2023-11-03T15:18:02.355Z,,0,,,NaN,,,,,,false,,,,26424641.5,26424641.299999982,,26424640.799999982,,26424644.435,8,400,,,
break_continue,html.Screen,4_102_2,2023-11-03T15:18:02.355Z,,0,,,NaN,,,,,,false,,,,26424641.799999982,26424641.699999988,,26424641.599999994,,26424644.435,8,400,,,
sequence,flow.Sequence,4_102,2023-11-03T15:18:02.356Z,,0,,,2605.4939999878407,completion,,,,,false,,,,26424642.099999994,26424641.699999988,26422027.873,26422028.599999994,26422036.206,26424644.435,8,400,,,
trial,html.Screen,4_103_0,2023-11-03T15:18:05.050Z,,0,3,,2691.1649999953806,response,ISIC_0064633.JPG,5,ISIC_0056921.JPG,ISIC_0064633.JPG,false,1,keypress(m),500,26427336,26427335.599999994,26424636.102,26424642.199999988,26424644.435,26427344.327,8,400,4,,ISIC_0056921.JPG
break,html.Screen,4_103_1,2023-11-03T15:18:05.051Z,,0,,,NaN,,,,,,false,,,,26427337.099999994,26427336.799999982,,26427336.299999982,,26427344.327,8,400,,,
break_continue,html.Screen,4_103_2,2023-11-03T15:18:05.051Z,,0,,,NaN,,,,,,false,,,,26427337.5,26427337.299999982,,26427337.099999994,,26427344.327,8,400,,,
sequence,flow.Sequence,4_103,2023-11-03T15:18:05.051Z,,0,,,2692.8649999834597,completion,,,,,false,,,,26427337.5,26427337.299999982,26424636.102,26424642.099999994,26424644.435,26427344.327,8,400,,,
trial,html.Screen,4_104_0,2023-11-03T15:18:07.653Z,,0,3,,2595.0729999765754,response,ISIC_4474170.JPG,8,ISIC_0002295.JPG,ISIC_4474170.JPG,false,1,keypress(m),500,26429939.799999982,26429939.399999976,26427335.994,26427337.699999988,26427344.327,26429948.739,8,400,5,,ISIC_0002295.JPG
break,html.Screen,4_104_1,2023-11-03T15:18:07.654Z,,0,,,NaN,,,,,,false,,,,26429940.799999982,26429940.599999994,,26429940.099999994,,26429948.739,8,400,,,
break_continue,html.Screen,4_104_2,2023-11-03T15:18:07.655Z,,0,,,NaN,,,,,,false,,,,26429941.199999988,26429941,,26429940.799999982,,26429948.739,8,400,,,
sequence,flow.Sequence,4_104,2023-11-03T15:18:07.655Z,,0,,,2596.6730000004172,completion,,,,,false,,,,26429941.299999982,26429941,26427335.994,26427337.599999994,26427344.327,26429948.739,8,400,,,
trial,html.Screen,4_105_0,2023-11-03T15:18:09.753Z,,0,3,,2090.7609999999404,response,ISIC_0012538.JPG,7,ISIC_1616031.JPG,ISIC_1616031.JPG,false,0,keypress(z),500,26432039.799999982,26432039.5,26429940.406,26429941.299999982,26429948.739,26432048.655,8,400,6,,ISIC_0012538.JPG
break,html.Screen,4_105_1,2023-11-03T15:18:09.754Z,,0,,,NaN,,,,,,false,,,,26432040.699999988,26432040.5,,26432040.099999994,,26432048.655,8,400,,,
break_continue,html.Screen,4_105_2,2023-11-03T15:18:09.755Z,,0,,,NaN,,,,,,false,,,,26432041.099999994,26432041,,26432040.899999976,,26432048.655,8,400,,,
sequence,flow.Sequence,4_105,2023-11-03T15:18:09.755Z,,0,,,2092.2609999999404,completion,,,,,false,,,,26432041.199999988,26432041,26429940.406,26429941.299999982,26429948.739,26432048.655,8,400,,,
trial,html.Screen,4_106_0,2023-11-03T15:18:13.235Z,,0,3,,3472.6449999809265,response,ISIC_0070951.JPG,8,ISIC_5300774.JPG,ISIC_0070951.JPG,false,1,keypress(m),500,26435521.799999982,26435521.299999982,26432040.322,26432041.399999976,26432048.655,26435523.516,8,400,7,,ISIC_5300774.JPG
break,html.Screen,4_106_1,2023-11-03T15:18:13.236Z,,0,,,NaN,,,,,,false,,,,26435522.699999988,26435522.5,,26435522.099999994,,26435523.516,8,400,,,
break_continue,html.Screen,4_106_2,2023-11-03T15:18:13.237Z,,0,,,NaN,,,,,,false,,,,26435523.099999994,26435523,,26435522.899999976,,26435523.516,8,400,,,
sequence,flow.Sequence,4_106,2023-11-03T15:18:13.237Z,,0,,,3474.344999998808,completion,,,,,false,,,,26435523.199999988,26435523,26432040.322,26432041.299999982,26432048.655,26435523.516,8,400,,,
trial,html.Screen,4_107_0,2023-11-03T15:18:16.029Z,,0,3,,2791.4840000011027,response,ISIC_0059840.JPG,7,ISIC_0015412.JPG,ISIC_0059840.JPG,false,1,keypress(m),500,26438315.399999976,26438315,26435515.183,26435523.399999976,26435523.516,26438323.404,8,400,8,,ISIC_0015412.JPG
break,html.Screen,4_107_1,2023-11-03T15:18:16.030Z,,0,,,NaN,,,,,,false,,,,26438316.5,26438316.299999982,,26438315.699999988,,26438323.404,8,400,,,
break_continue,html.Screen,4_107_2,2023-11-03T15:18:16.030Z,,0,,,NaN,,,,,,false,,,,26438316.899999976,26438316.699999988,,26438316.599999994,,26438323.404,8,400,,,
sequence,flow.Sequence,4_107,2023-11-03T15:18:16.031Z,,0,,,2793.1839999891818,completion,,,,,false,,,,26438317,26438316.699999988,26435515.183,26435523.299999982,26435523.516,26438323.404,8,400,,,
trial,html.Screen,4_108_0,2023-11-03T15:18:19.640Z,,0,3,,3602.2959999889135,response,ISIC_0002119.JPG,5,ISIC_7145788.JPG,ISIC_0002119.JPG,false,1,keypress(m),500,26441926.099999994,26441925.699999988,26438315.071,26438317.199999988,26438323.404,26441940.305,8,400,9,,ISIC_7145788.JPG
break,html.Screen,4_108_1,2023-11-03T15:18:19.640Z,,0,,,NaN,,,,,,false,,,,26441926.899999976,26441926.599999994,,26441926.299999982,,26441940.305,8,400,,,
break_continue,html.Screen,4_108_2,2023-11-03T15:18:19.641Z,,0,,,NaN,,,,,,false,,,,26441927.099999994,26441927,,26441926.899999976,,26441940.305,8,400,,,
sequence,flow.Sequence,4_108,2023-11-03T15:18:19.641Z,,0,,,3603.5960000008345,completion,,,,,false,,,,26441927.199999988,26441927,26438315.071,26438317.099999994,26438323.404,26441940.305,8,400,,,
trial,html.Screen,4_109_0,2023-11-03T15:18:22.414Z,,0,3,,2759.4949999824166,response,ISIC_2746860.JPG,8,ISIC_2758999.JPG,ISIC_2758999.JPG,false,0,keypress(z),500,26444700.399999976,26444699.799999982,26441931.972,26441927.299999982,26441940.305,26444706.861,8,400,10,,ISIC_2746860.JPG
break,html.Screen,4_109_1,2023-11-03T15:18:22.415Z,,0,,,NaN,,,,,,false,,,,26444701.399999976,26444701.199999988,,26444700.799999982,,26444706.861,8,400,,,
break_continue,html.Screen,4_109_2,2023-11-03T15:18:22.415Z,,0,,,NaN,,,,,,false,,,,26444701.799999982,26444701.699999988,,26444701.599999994,,26444706.861,8,400,,,
sequence,flow.Sequence,4_109,2023-11-03T15:18:22.416Z,,0,,,2761.394999988377,completion,,,,,false,,,,26444702,26444701.699999988,26441931.972,26441927.299999982,26441940.305,26444706.861,8,400,,,
trial,html.Screen,4_110_0,2023-11-03T15:18:25.111Z,,0,3,,2690.438999980688,response,ISIC_0007619.JPG,9,ISIC_0033071.JPG,ISIC_0007619.JPG,false,1,keypress(m),500,26447397.699999988,26447397.299999982,26444698.528,26444702.099999994,26444706.861,26447406.753,8,400,11,,ISIC_0033071.JPG
break,html.Screen,4_110_1,2023-11-03T15:18:25.112Z,,0,,,NaN,,,,,,false,,,,26447398.699999988,26447398.5,,26447398.099999994,,26447406.753,8,400,,,
break_continue,html.Screen,4_110_2,2023-11-03T15:18:25.113Z,,0,,,NaN,,,,,,false,,,,26447399.099999994,26447399,,26447398.899999976,,26447406.753,8,400,,,
sequence,flow.Sequence,4_110,2023-11-03T15:18:25.113Z,,0,,,2692.1389999985695,completion,,,,,false,,,,26447399.299999982,26447399,26444698.528,26444702,26444706.861,26447406.753,8,400,,,
trial,html.Screen,4_111_0,2023-11-03T15:18:28.061Z,,0,3,,2940.44699998945,response,ISIC_0031224.JPG,8,ISIC_5783440.JPG,ISIC_5783440.JPG,false,0,keypress(z),500,26450347.599999994,26450347.199999988,26447398.42,26447399.299999982,26447406.753,26450348.664,8,400,12,,ISIC_0031224.JPG
break,html.Screen,4_111_1,2023-11-03T15:18:28.062Z,,0,,,NaN,,,,,,false,,,,26450348.5,26450348.299999982,,26450347.799999982,,26450348.664,8,400,,,
break_continue,html.Screen,4_111_2,2023-11-03T15:18:28.062Z,,0,,,NaN,,,,,,false,,,,26450348.799999982,26450348.699999988,,26450348.599999994,,26450348.664,8,400,,,
sequence,flow.Sequence,4_111,2023-11-03T15:18:28.062Z,,0,,,2941.94699998945,completion,,,,,false,,,,26450348.899999976,26450348.699999988,26447398.42,26447399.299999982,26447406.753,26450348.664,8,400,,,
trial,html.Screen,4_112_0,2023-11-03T15:18:31.332Z,,0,3,,3269.135999981314,response,ISIC_0428257.JPG,6,ISIC_0028317.JPG,ISIC_0428257.JPG,false,1,keypress(m),500,26453618.299999982,26453617.799999982,26450340.331,26450349,26450348.664,26453623.533,8,400,13,,ISIC_0028317.JPG
break,html.Screen,4_112_1,2023-11-03T15:18:31.333Z,,0,,,NaN,,,,,,false,,,,26453619.199999988,26453619,,26453618.599999994,,26453623.533,8,400,,,
break_continue,html.Screen,4_112_2,2023-11-03T15:18:31.333Z,,0,,,NaN,,,,,,false,,,,26453619.5,26453619.399999976,,26453619.299999982,,26453623.533,8,400,,,
sequence,flow.Sequence,4_112,2023-11-03T15:18:31.333Z,,0,,,3270.7359999753535,completion,,,,,false,,,,26453619.699999988,26453619.399999976,26450340.331,26450349,26450348.664,26453623.533,8,400,,,
trial,html.Screen,4_113_0,2023-11-03T15:18:34.060Z,,0,3,,2722.467000000179,response,ISIC_0062364.JPG,9,ISIC_3306135.JPG,ISIC_3306135.JPG,false,0,keypress(z),500,26456346.399999976,26456346,26453615.2,26453619.799999982,26453623.533,26456348.424,8,400,14,,ISIC_0062364.JPG
break,html.Screen,4_113_1,2023-11-03T15:18:34.061Z,,0,,,NaN,,,,,,false,,,,26456347.399999976,26456347.199999988,,26456346.699999988,,26456348.424,8,400,,,
break_continue,html.Screen,4_113_2,2023-11-03T15:18:34.061Z,,0,,,NaN,,,,,,false,,,,26456347.699999988,26456347.599999994,,26456347.599999994,,26456348.424,8,400,,,
sequence,flow.Sequence,4_113,2023-11-03T15:18:34.061Z,,0,,,2724.0669999942183,completion,,,,,false,,,,26456348,26456347.599999994,26453615.2,26453619.799999982,26453623.533,26456348.424,8,400,,,
trial,html.Screen,4_114_0,2023-11-03T15:18:36.659Z,,0,3,,2596.675999995321,response,ISIC_0012512.JPG,8,ISIC_0058585.JPG,ISIC_0058585.JPG,false,0,keypress(z),500,26458945.599999994,26458945.099999994,26456340.091,26456348,26456348.424,26458948.32,8,400,15,,ISIC_0012512.JPG
break,html.Screen,4_114_1,2023-11-03T15:18:36.661Z,,0,,,NaN,,,,,,false,,,,26458947.199999988,26458946.799999982,,26458945.799999982,,26458948.32,8,400,,,
break_continue,html.Screen,4_114_2,2023-11-03T15:18:36.661Z,,0,,,NaN,,,,,,false,,,,26458947.5,26458947.399999976,,26458947.199999988,,26458948.32,8,400,,,
sequence,flow.Sequence,4_114,2023-11-03T15:18:36.661Z,,0,,,2598.9759999774396,completion,,,,,false,,,,26458947.699999988,26458947.399999976,26456340.091,26456348,26456348.424,26458948.32,8,400,,,
trial,html.Screen,4_115_0,2023-11-03T15:18:40.347Z,,0,3,,3684.379999987781,response,ISIC_0032828.JPG,7,ISIC_9302863.JPG,ISIC_0032828.JPG,false,1,keypress(m),500,26462633.199999988,26462632.699999988,26458939.987,26458947.799999982,26458948.32,26462640.188,8,400,16,,ISIC_9302863.JPG
break,html.Screen,4_115_1,2023-11-03T15:18:40.348Z,,0,,,NaN,,,,,,false,,,,26462634.299999982,26462634,,26462633.599999994,,26462640.188,8,400,,,
break_continue,html.Screen,4_115_2,2023-11-03T15:18:40.348Z,,0,,,NaN,,,,,,false,,,,26462634.599999994,26462634.399999976,,26462634.299999982,,26462640.188,8,400,,,
sequence,flow.Sequence,4_115,2023-11-03T15:18:40.348Z,,0,,,3686.07999997586,completion,,,,,false,,,,26462634.699999988,26462634.399999976,26458939.987,26458947.699999988,26458948.32,26462640.188,8,400,,,
trial,html.Screen,4_116_0,2023-11-03T15:18:43.088Z,,0,3,,2733.8119999989867,response,ISIC_6284012.JPG,8,ISIC_3506204.JPG,ISIC_3506204.JPG,false,0,keypress(z),500,26465374.399999976,26465374,26462631.855,26462634.899999976,26462640.188,26465381.745,8,400,17,,ISIC_6284012.JPG
break,html.Screen,4_116_1,2023-11-03T15:18:43.089Z,,0,,,NaN,,,,,,false,,,,26465375.5,26465375.199999988,,26465374.699999988,,26465381.745,8,400,,,
break_continue,html.Screen,4_116_2,2023-11-03T15:18:43.089Z,,0,,,NaN,,,,,,false,,,,26465375.799999982,26465375.599999994,,26465375.5,,26465381.745,8,400,,,
sequence,flow.Sequence,4_116,2023-11-03T15:18:43.089Z,,0,,,2735.4119999930263,completion,,,,,false,,,,26465376,26465375.599999994,26462631.855,26462634.799999982,26462640.188,26465381.745,8,400,,,
trial,html.Screen,4_117_0,2023-11-03T15:18:45.978Z,,0,3,,2882.754999998957,response,ISIC_4128129.JPG,6,ISIC_0429825.JPG,ISIC_0429825.JPG,false,0,keypress(z),500,26468265,26468264.5,26465373.412,26465376,26465381.745,26468273.296,8,400,18,,ISIC_4128129.JPG
break,html.Screen,4_117_1,2023-11-03T15:18:45.979Z,,0,,,NaN,,,,,,false,,,,26468266,26468265.699999988,,26468265.199999988,,26468273.296,8,400,,,
break_continue,html.Screen,4_117_2,2023-11-03T15:18:45.980Z,,0,,,NaN,,,,,,false,,,,26468266.5,26468266.299999982,,26468266.099999994,,26468273.296,8,400,,,
sequence,flow.Sequence,4_117,2023-11-03T15:18:45.980Z,,0,,,2884.5549999810755,completion,,,,,false,,,,26468266.699999988,26468266.299999982,26465373.412,26465376,26465381.745,26468273.296,8,400,,,
trial,html.Screen,4_118_0,2023-11-03T15:18:48.625Z,,0,3,,2637.503999982029,response,ISIC_0262770.JPG,8,ISIC_7534592.JPG,ISIC_7534592.JPG,false,0,keypress(z),500,26470911.199999988,26470910.799999982,26468264.963,26468266.899999976,26468273.296,26470915.214,8,400,19,,ISIC_0262770.JPG
break,html.Screen,4_118_1,2023-11-03T15:18:48.626Z,,0,,,NaN,,,,,,false,,,,26470912.199999988,26470912,,26470911.5,,26470915.214,8,400,,,
break_continue,html.Screen,4_118_2,2023-11-03T15:18:48.626Z,,0,,,NaN,,,,,,false,,,,26470912.599999994,26470912.5,,26470912.299999982,,26470915.214,8,400,,,
sequence,flow.Sequence,4_118,2023-11-03T15:18:48.626Z,,0,,,2639.2039999999106,completion,,,,,false,,,,26470912.699999988,26470912.5,26468264.963,26468266.799999982,26468273.296,26470915.214,8,400,,,
trial,html.Screen,4_119_0,2023-11-03T15:18:51.242Z,,0,3,,2612.585999980569,response,ISIC_0899961.JPG,7,ISIC_0011531.JPG,ISIC_0899961.JPG,false,1,keypress(m),500,26473528.199999988,26473527.799999982,26470906.881,26470912.799999982,26470915.214,26473531.776,8,400,20,,ISIC_0011531.JPG
break,html.Screen,4_119_1,2023-11-03T15:18:51.243Z,,0,,,NaN,,,,,,false,,,,26473529.199999988,26473529.099999994,,26473528.599999994,,26473531.776,8,400,,,
break_continue,html.Screen,4_119_2,2023-11-03T15:18:51.243Z,,0,,,NaN,,,,,,false,,,,26473529.599999994,26473529.5,,26473529.399999976,,26473531.776,8,400,,,
sequence,flow.Sequence,4_119,2023-11-03T15:18:51.243Z,,0,,,2614.2859999984503,completion,,,,,false,,,,26473529.799999982,26473529.5,26470906.881,26470912.799999982,26470915.214,26473531.776,8,400,,,
trial,html.Screen,4_120_0,2023-11-03T15:18:55.040Z,,0,3,,3794.6239999756217,response,ISIC_0003345.JPG,8,ISIC_7276156.JPG,ISIC_0003345.JPG,false,1,keypress(m),500,26477326.799999982,26477326.399999976,26473523.443,26473529.799999982,26473531.776,26477331.624,8,400,21,,ISIC_7276156.JPG
break,html.Screen,4_120_1,2023-11-03T15:18:55.041Z,,0,,,NaN,,,,,,false,,,,26477327.799999982,26477327.599999994,,26477327.099999994,,26477331.624,8,400,,,
break_continue,html.Screen,4_120_2,2023-11-03T15:18:55.042Z,,0,,,NaN,,,,,,false,,,,26477328.199999988,26477328.099999994,,26477328,,26477331.624,8,400,,,
sequence,flow.Sequence,4_120,2023-11-03T15:18:55.042Z,,0,,,3796.323999993503,completion,,,,,false,,,,26477328.399999976,26477328.099999994,26473523.443,26473529.799999982,26473531.776,26477331.624,8,400,,,
trial,html.Screen,4_121_0,2023-11-03T15:18:57.771Z,,0,3,,2725.17599998042,response,ISIC_1850196.JPG,7,ISIC_0057949.JPG,ISIC_1850196.JPG,false,1,keypress(m),500,26480057.099999994,26480056.799999982,26477323.291,26477328.5,26477331.624,26480064.848,8,400,22,,ISIC_0057949.JPG
break,html.Screen,4_121_1,2023-11-03T15:18:57.771Z,,0,,,NaN,,,,,,false,,,,26480057.899999976,26480057.799999982,,26480057.399999976,,26480064.848,8,400,,,
