sender,sender_type,sender_id,timestamp,meta,,blockNo,condition,duration,ended_on,img_left,img_reveal,img_right,loser,practice,response,response_action,selection_duration,time_commit,time_end,time_render,time_run,time_show,time_switch,total_blocks,total_trials,trialNo,url,winner
informed_consent,html.Screen,0,2023-09-16T02:04:39.580Z,"{""labjs_version"":""20.2.4"",""labjs_build"":{""flavor"":""production"",""commit"":""f5b4a49f956347addd546a832a3327688c2c0fef""},""location"":""https://run.pavlovia.org/MurrayBennett/melanoma-2afc/?participant=67296&platform=sona"",""userAgent"":""Mozilla/5.0 (Windows NT 10.0; Win64; x64) AppleWebKit/537.36 (KHTML, like Gecko) Chrome/116.0.0.0 Safari/537.36 Edg/116.0.1938.76"",""platform"":""Win32"",""language"":""en-US"",""locale"":""en-US"",""timeZone"":""America/Chicago"",""timezoneOffset"":300,""screen_width"":1366,""screen_height"":768,""scroll_width"":1358,""scroll_height"":598,""window_innerWidth"":1358,""window_innerHeight"":646,""devicePixelRatio"":1}",,,,268567.19399997615,response,,,,,,consent,click button,,283811.89999997616,283806.89999997616,14807.276,15230.300000011921,15239.706,283825.804,,,,"{""participant"":""67296"",""platform"":""sona""}",
Welcome,html.Screen,1,2023-09-16T02:05:59.318Z,,,,regular,79715.09599997615,response,,,,,,continue,click button,,363542.59999996424,363540.89999997616,283809.75,283812.39999997616,283825.804,363551.162,,,,,
trial,html.Screen,2_0_0,2023-09-16T02:06:10.814Z,,0,0,,11520.21100000001,timeout,ISIC_4679428.JPG,,ISIC_0061792.JPG,,true,,,500,375039.3000000119,375038.89999997616,363535.268,363543,363551.162,375071.373,1,6,1,,
sequence,flow.Sequence,2_0,2023-09-16T02:06:10.815Z,,0,,,11487.737999976147,completion,,,,,true,,,,375039.6999999881,375038.89999997616,363535.268,363543,363551.162,375071.373,1,6,,,
trial,html.Screen,2_1_0,2023-09-16T02:06:16.735Z,,0,0,,5888.626999999979,response,ISIC_0776486.JPG,,ISIC_5199497.JPG,ISIC_0776486.JPG,true,1,keypress(m),500,380960.1999999881,380960,375054.784,375039.8000000119,375071.373,380964.498,1,6,2,,ISIC_5199497.JPG
sequence,flow.Sequence,2_1,2023-09-16T02:06:16.736Z,,0,,,5888.626999999979,completion,,,,,true,,,,380960.6999999881,380960,375054.784,375039.8000000119,375071.373,380964.498,1,6,,,
trial,html.Screen,2_2_0,2023-09-16T02:06:20.318Z,,0,0,,3578.4019999761367,response,ISIC_8575776.JPG,,ISIC_2556187.JPG,ISIC_2556187.JPG,true,0,keypress(z),500,384543.1999999881,384542.89999997616,380948.084,380960.8000000119,380964.498,384560.925,1,6,3,,ISIC_8575776.JPG
sequence,flow.Sequence,2_2,2023-09-16T02:06:20.319Z,,0,,,3578.4019999761367,completion,,,,,true,,,,384543.59999996424,384542.89999997616,380948.084,380960.8000000119,380964.498,384560.925,1,6,,,
trial,html.Screen,2_3_0,2023-09-16T02:06:23.885Z,,0,0,,3548.5750000000116,response,ISIC_9238366.JPG,,ISIC_8141769.JPG,ISIC_8141769.JPG,true,0,keypress(z),500,388109.8000000119,388109.5,384544.416,384543.8000000119,384560.925,388123.062,1,6,4,,ISIC_9238366.JPG
sequence,flow.Sequence,2_3,2023-09-16T02:06:23.885Z,,0,,,3548.5750000000116,completion,,,,,true,,,,388110.3000000119,388109.5,384544.416,384543.8000000119,384560.925,388123.062,1,6,,,
trial,html.Screen,2_4_0,2023-09-16T02:06:27.504Z,,0,0,,3605.4380000000237,response,ISIC_8949026.JPG,,ISIC_9959593.JPG,ISIC_9959593.JPG,true,0,keypress(z),500,391728.8000000119,391728.5,388106.831,388110.5,388123.062,391735.552,1,6,5,,ISIC_8949026.JPG
sequence,flow.Sequence,2_4,2023-09-16T02:06:27.504Z,,0,,,3605.4380000000237,completion,,,,,true,,,,391729.1999999881,391728.5,388106.831,388110.5,388123.062,391735.552,1,6,,,
trial,html.Screen,2_5_0,2023-09-16T02:06:31.395Z,,0,0,,3884.347999976133,response,ISIC_0010479.JPG,,ISIC_0460240.JPG,ISIC_0010479.JPG,true,1,keypress(m),500,395620.09999996424,395619.89999997616,391719.782,391729.5,391735.552,395631.05,1,6,6,,ISIC_0460240.JPG
sequence,flow.Sequence,2_5,2023-09-16T02:06:31.396Z,,0,,,3884.347999976133,completion,,,,,true,,,,395620.5,395619.89999997616,391719.782,391729.39999997616,391735.552,395631.05,1,6,,,
loop,flow.Loop,2,2023-09-16T02:06:31.396Z,,,,,32068.737999976147,completion,,,,,true,,,,395620.6999999881,395619.89999997616,363535.268,363542.89999997616,363551.162,395631.05,1,6,,,
exp_instructions,html.Screen,3,2023-09-16T02:07:11.025Z,,,,,39618.04999996425,response,,,,,,continue,keypress(Space),,435250.09999996424,435249.09999996424,395614.682,395620.89999997616,395631.05,435276.694,,,,,
trial,html.Screen,4_0_0,2023-09-16T02:07:15.353Z,,0,1,,4301.606000011903,response,ISIC_0423483.JPG,11,ISIC_2214766.JPG,ISIC_0423483.JPG,false,1,keypress(m),500,439578.5,439578.3000000119,435239.078,435250.39999997616,435276.694,439580.761,8,400,1,,ISIC_2214766.JPG
break,html.Screen,4_0_1,2023-09-16T02:07:15.355Z,,0,,,NaN,,,,,,false,,,,439579.59999996424,439579.1999999881,,439578.6999999881,,439580.761,8,400,,,
break_continue,html.Screen,4_0_2,2023-09-16T02:07:15.355Z,,0,,,NaN,,,,,,false,,,,439580.09999996424,439579.89999997616,,439579.8000000119,,439580.761,8,400,,,
sequence,flow.Sequence,4_0,2023-09-16T02:07:15.355Z,,0,,,4303.20599997614,completion,,,,,false,,,,439580.3000000119,439579.89999997616,435239.078,435250.39999997616,435276.694,439580.761,8,400,,,
trial,html.Screen,4_1_0,2023-09-16T02:07:19.450Z,,0,1,,4093.9389999880805,response,ISIC_0064034.JPG,9,ISIC_7545432.JPG,ISIC_7545432.JPG,false,0,keypress(z),500,443675.09999996424,443674.6999999881,439565.749,439580.39999997616,439580.761,443709.497,8,400,2,,ISIC_0064034.JPG
break,html.Screen,4_1_1,2023-09-16T02:07:19.451Z,,0,,,NaN,,,,,,false,,,,443675.89999997616,443675.5,,443675.1999999881,,443709.497,8,400,,,
break_continue,html.Screen,4_1_2,2023-09-16T02:07:19.451Z,,0,,,NaN,,,,,,false,,,,443676.39999997616,443676.1999999881,,443676.09999996424,,443709.497,8,400,,,
sequence,flow.Sequence,4_1,2023-09-16T02:07:19.452Z,,0,,,4095.4389999880805,completion,,,,,false,,,,443676.59999996424,443676.1999999881,439565.749,439580.39999997616,439580.761,443709.497,8,400,,,
trial,html.Screen,4_2_0,2023-09-16T02:07:22.846Z,,0,1,,3361.303000011947,response,ISIC_0072828.JPG,12,ISIC_1377409.JPG,ISIC_0072828.JPG,false,1,keypress(m),500,447071.09999996424,447070.8000000119,443693.069,443676.6999999881,443709.497,447089.068,8,400,3,,ISIC_1377409.JPG
break,html.Screen,4_2_1,2023-09-16T02:07:22.847Z,,0,,,NaN,,,,,,false,,,,447071.89999997616,447071.5,,447071.1999999881,,447089.068,8,400,,,
break_continue,html.Screen,4_2_2,2023-09-16T02:07:22.847Z,,0,,,NaN,,,,,,false,,,,447072.1999999881,447072.09999996424,,447072,,447089.068,8,400,,,
sequence,flow.Sequence,4_2,2023-09-16T02:07:22.847Z,,0,,,3362.6029999642633,completion,,,,,false,,,,447072.5,447072.09999996424,443693.069,443676.59999996424,443709.497,447089.068,8,400,,,
trial,html.Screen,4_3_0,2023-09-16T02:07:26.275Z,,0,1,,3411.2320000118925,response,ISIC_2438917.JPG,0,ISIC_0032134.JPG,ISIC_0032134.JPG,false,0,keypress(z),500,450500.5,450500.3000000119,447056.158,447072.5,447089.068,450518.656,8,400,4,,ISIC_2438917.JPG
break,html.Screen,4_3_1,2023-09-16T02:07:26.276Z,,0,,,NaN,,,,,,false,,,,450501.3000000119,450501,,450500.59999996424,,450518.656,8,400,,,
break_continue,html.Screen,4_3_2,2023-09-16T02:07:26.277Z,,0,,,NaN,,,,,,false,,,,450501.8000000119,450501.59999996424,,450501.5,,450518.656,8,400,,,
sequence,flow.Sequence,4_3,2023-09-16T02:07:26.277Z,,0,,,3412.531999964209,completion,,,,,false,,,,450501.89999997616,450501.59999996424,447056.158,447072.5,447089.068,450518.656,8,400,,,
trial,html.Screen,4_4_0,2023-09-16T02:07:29.722Z,,0,1,,3428.1440000119037,response,ISIC_0067054.JPG,11,ISIC_0060893.JPG,ISIC_0060893.JPG,false,0,keypress(z),500,453947.1999999881,453946.8000000119,450485.16,450502,450518.656,453981.046,8,400,5,,ISIC_0067054.JPG
break,html.Screen,4_4_1,2023-09-16T02:07:29.723Z,,0,,,NaN,,,,,,false,,,,453947.89999997616,453947.59999996424,,453947.3000000119,,453981.046,8,400,,,
break_continue,html.Screen,4_4_2,2023-09-16T02:07:29.723Z,,0,,,NaN,,,,,,false,,,,453948.39999997616,453948.3000000119,,453948.09999996424,,453981.046,8,400,,,
sequence,flow.Sequence,4_4,2023-09-16T02:07:29.724Z,,0,,,3429.6440000119037,completion,,,,,false,,,,453948.59999996424,453948.3000000119,450485.16,450501.89999997616,450518.656,453981.046,8,400,,,
trial,html.Screen,4_5_0,2023-09-16T02:07:32.952Z,,0,1,,3195.754000011948,response,ISIC_0887792.JPG,16,ISIC_0057692.JPG,ISIC_0057692.JPG,false,0,keypress(z),500,457177,457176.8000000119,453964.362,453948.6999999881,453981.046,457194.125,8,400,6,,ISIC_0887792.JPG
break,html.Screen,4_5_1,2023-09-16T02:07:32.953Z,,0,,,NaN,,,,,,false,,,,457177.89999997616,457177.5,,457177.1999999881,,457194.125,8,400,,,
break_continue,html.Screen,4_5_2,2023-09-16T02:07:32.953Z,,0,,,NaN,,,,,,false,,,,457178.1999999881,457178.09999996424,,457178,,457194.125,8,400,,,
sequence,flow.Sequence,4_5,2023-09-16T02:07:32.953Z,,0,,,3197.053999964264,completion,,,,,false,,,,457178.5,457178.09999996424,453964.362,453948.59999996424,453981.046,457194.125,8,400,,,
trial,html.Screen,4_6_0,2023-09-16T02:07:36.385Z,,0,1,,3416.074999988079,response,ISIC_6370977.JPG,9,ISIC_6498634.JPG,ISIC_6498634.JPG,false,0,keypress(z),500,460610.39999997616,460610.1999999881,457177.701,457178.59999996424,457194.125,460623.653,8,400,7,,ISIC_6370977.JPG
break,html.Screen,4_6_1,2023-09-16T02:07:36.386Z,,0,,,NaN,,,,,,false,,,,460611.3000000119,460611,,460610.59999996424,,460623.653,8,400,,,
break_continue,html.Screen,4_6_2,2023-09-16T02:07:36.387Z,,0,,,NaN,,,,,,false,,,,460611.8000000119,460611.59999996424,,460611.39999997616,,460623.653,8,400,,,
sequence,flow.Sequence,4_6,2023-09-16T02:07:36.387Z,,0,,,3417.474999964237,completion,,,,,false,,,,460611.89999997616,460611.59999996424,457177.701,457178.59999996424,457194.125,460623.653,8,400,,,
trial,html.Screen,4_7_0,2023-09-16T02:07:40.727Z,,0,1,,4327.847000000009,response,ISIC_6310591.JPG,11,ISIC_0012904.JPG,ISIC_0012904.JPG,false,0,keypress(z),500,464951.8000000119,464951.5,460607.145,460612.09999996424,460623.653,464968.755,8,400,8,,ISIC_6310591.JPG
break,html.Screen,4_7_1,2023-09-16T02:07:40.728Z,,0,,,NaN,,,,,,false,,,,464952.59999996424,464952.1999999881,,464951.89999997616,,464968.755,8,400,,,
break_continue,html.Screen,4_7_2,2023-09-16T02:07:40.728Z,,0,,,NaN,,,,,,false,,,,464952.89999997616,464952.8000000119,,464952.6999999881,,464968.755,8,400,,,
sequence,flow.Sequence,4_7,2023-09-16T02:07:40.728Z,,0,,,4329.14700001193,completion,,,,,false,,,,464953.09999996424,464952.8000000119,460607.145,460612,460623.653,464968.755,8,400,,,
trial,html.Screen,4_8_0,2023-09-16T02:07:43.739Z,,0,1,,2995.1449999761535,response,ISIC_0013165.JPG,13,ISIC_0998962.JPG,ISIC_0013165.JPG,false,1,keypress(m),500,467964.1999999881,467963.89999997616,464951.931,464953.09999996424,464968.755,467998.359,8,400,9,,ISIC_0998962.JPG
break,html.Screen,4_8_1,2023-09-16T02:07:43.740Z,,0,,,NaN,,,,,,false,,,,467965.1999999881,467964.89999997616,,467964.5,,467998.359,8,400,,,
break_continue,html.Screen,4_8_2,2023-09-16T02:07:43.741Z,,0,,,NaN,,,,,,false,,,,467965.6999999881,467965.59999996424,,467965.39999997616,,467998.359,8,400,,,
sequence,flow.Sequence,4_8,2023-09-16T02:07:43.741Z,,0,,,2996.8449999642326,completion,,,,,false,,,,467965.89999997616,467965.59999996424,464951.931,464953.09999996424,464968.755,467998.359,8,400,,,
trial,html.Screen,4_9_0,2023-09-16T02:07:49.945Z,,0,1,,6171.641000000003,response,ISIC_0182020.JPG,12,ISIC_0029205.JPG,ISIC_0029205.JPG,false,0,keypress(z),500,474170.3000000119,474170,467981.702,467966,467998.359,474174.472,8,400,10,,ISIC_0182020.JPG
break,html.Screen,4_9_1,2023-09-16T02:07:49.946Z,,0,,,NaN,,,,,,false,,,,474171.09999996424,474170.8000000119,,474170.5,,474174.472,8,400,,,
break_continue,html.Screen,4_9_2,2023-09-16T02:07:49.947Z,,0,,,NaN,,,,,,false,,,,474171.59999996424,474171.39999997616,,474171.3000000119,,474174.472,8,400,,,
sequence,flow.Sequence,4_9,2023-09-16T02:07:49.947Z,,0,,,6173.040999976161,completion,,,,,false,,,,474171.8000000119,474171.39999997616,467981.702,467966,467998.359,474174.472,8,400,,,
trial,html.Screen,4_10_0,2023-09-16T02:07:55.487Z,,0,1,,5537.627999964228,response,ISIC_9826778.JPG,13,ISIC_7980387.JPG,ISIC_7980387.JPG,false,0,keypress(z),500,479712.39999997616,479712.09999996424,474158.406,474171.89999997616,474174.472,479718.062,8,400,11,,ISIC_9826778.JPG
break,html.Screen,4_10_1,2023-09-16T02:07:55.488Z,,0,,,NaN,,,,,,false,,,,479713.09999996424,479712.89999997616,,479712.59999996424,,479718.062,8,400,,,
break_continue,html.Screen,4_10_2,2023-09-16T02:07:55.489Z,,0,,,NaN,,,,,,false,,,,479713.59999996424,479713.5,,479713.3000000119,,479718.062,8,400,,,
sequence,flow.Sequence,4_10,2023-09-16T02:07:55.489Z,,0,,,5539.027999999991,completion,,,,,false,,,,479713.8000000119,479713.5,474158.406,474171.8000000119,474174.472,479718.062,8,400,,,
trial,html.Screen,4_11_0,2023-09-16T02:07:59.974Z,,0,1,,4480.738000011945,response,ISIC_0012883.JPG,1,ISIC_0025184.JPG,ISIC_0025184.JPG,false,0,keypress(z),500,484199.09999996424,484198.8000000119,479702.315,479713.89999997616,479718.062,484230.628,8,400,12,,ISIC_0012883.JPG
break,html.Screen,4_11_1,2023-09-16T02:07:59.975Z,,0,,,NaN,,,,,,false,,,,484199.89999997616,484199.59999996424,,484199.3000000119,,484230.628,8,400,,,
break_continue,html.Screen,4_11_2,2023-09-16T02:07:59.975Z,,0,,,NaN,,,,,,false,,,,484200.3000000119,484200.1999999881,,484200.09999996424,,484230.628,8,400,,,
sequence,flow.Sequence,4_11,2023-09-16T02:07:59.975Z,,0,,,4482.137999988103,completion,,,,,false,,,,484200.5,484200.1999999881,479702.315,479713.8000000119,479718.062,484230.628,8,400,,,
trial,html.Screen,4_12_0,2023-09-16T02:08:08.561Z,,0,1,,8555.571999988053,response,ISIC_0011709.JPG,7,ISIC_8492957.JPG,ISIC_8492957.JPG,false,0,keypress(z),500,492786.5,492786.1999999881,484213.4,484200.59999996424,484230.628,492819.825,8,400,13,,ISIC_0011709.JPG
break,html.Screen,4_12_1,2023-09-16T02:08:08.562Z,,0,,,NaN,,,,,,false,,,,492787.3000000119,492787,,492786.59999996424,,492819.825,8,400,,,
break_continue,html.Screen,4_12_2,2023-09-16T02:08:08.563Z,,0,,,NaN,,,,,,false,,,,492787.8000000119,492787.6999999881,,492787.39999997616,,492819.825,8,400,,,
sequence,flow.Sequence,4_12,2023-09-16T02:08:08.563Z,,0,,,8557.071999988053,completion,,,,,false,,,,492788.09999996424,492787.6999999881,484213.4,484200.5,484230.628,492819.825,8,400,,,
trial,html.Screen,4_13_0,2023-09-16T02:08:13.359Z,,0,1,,4763.874999988067,response,ISIC_0033384.JPG,12,ISIC_0069743.JPG,ISIC_0033384.JPG,false,1,keypress(m),500,497583.89999997616,497583.6999999881,492803.152,492788.09999996424,492819.825,497598.047,8,400,14,,ISIC_0069743.JPG
break,html.Screen,4_13_1,2023-09-16T02:08:13.360Z,,0,,,NaN,,,,,,false,,,,497584.6999999881,497584.5,,497584.1999999881,,497598.047,8,400,,,
break_continue,html.Screen,4_13_2,2023-09-16T02:08:13.360Z,,0,,,NaN,,,,,,false,,,,497585.1999999881,497585.09999996424,,497584.89999997616,,497598.047,8,400,,,
sequence,flow.Sequence,4_13,2023-09-16T02:08:13.360Z,,0,,,4765.274999964226,completion,,,,,false,,,,497585.39999997616,497585.09999996424,492803.152,492788.09999996424,492819.825,497598.047,8,400,,,
trial,html.Screen,4_14_0,2023-09-16T02:08:18.623Z,,0,1,,5249.9529999999795,response,ISIC_8957571.JPG,24,ISIC_5527447.JPG,ISIC_8957571.JPG,false,1,keypress(m),500,502848.1999999881,502848,497571.828,497585.39999997616,497598.047,502875.409,8,400,15,,ISIC_5527447.JPG
break,html.Screen,4_14_1,2023-09-16T02:08:18.624Z,,0,,,NaN,,,,,,false,,,,502849,502848.8000000119,,502848.39999997616,,502875.409,8,400,,,
break_continue,html.Screen,4_14_2,2023-09-16T02:08:18.624Z,,0,,,NaN,,,,,,false,,,,502849.39999997616,502849.39999997616,,502849.09999996424,,502875.409,8,400,,,
sequence,flow.Sequence,4_14,2023-09-16T02:08:18.625Z,,0,,,5251.352999976138,completion,,,,,false,,,,502849.5,502849.39999997616,497571.828,497585.39999997616,497598.047,502875.409,8,400,,,
trial,html.Screen,4_15_0,2023-09-16T02:08:24.163Z,,0,1,,5512.190999964252,response,ISIC_0067621.JPG,15,ISIC_0032046.JPG,ISIC_0032046.JPG,false,0,keypress(z),500,508387.8000000119,508387.59999996424,502858.715,502849.59999996424,502875.409,508402.073,8,400,16,,ISIC_0067621.JPG
break,html.Screen,4_15_1,2023-09-16T02:08:24.164Z,,0,,,NaN,,,,,,false,,,,508388.59999996424,508388.3000000119,,508388,,508402.073,8,400,,,
break_continue,html.Screen,4_15_2,2023-09-16T02:08:24.164Z,,0,,,NaN,,,,,,false,,,,508389.09999996424,508389,,508388.8000000119,,508402.073,8,400,,,
sequence,flow.Sequence,4_15,2023-09-16T02:08:24.164Z,,0,,,5513.591000000015,completion,,,,,false,,,,508389.3000000119,508389,502858.715,502849.59999996424,502875.409,508402.073,8,400,,,
trial,html.Screen,4_16_0,2023-09-16T02:08:27.745Z,,0,1,,3567.3269999761833,response,ISIC_0055086.JPG,10,ISIC_9476244.JPG,ISIC_0055086.JPG,false,1,keypress(m),500,511969.8000000119,511969.39999997616,508385.877,508389.5,508402.073,511981.388,8,400,17,,ISIC_9476244.JPG
break,html.Screen,4_16_1,2023-09-16T02:08:27.746Z,,0,,,NaN,,,,,,false,,,,511970.5,511970.3000000119,,511969.89999997616,,511981.388,8,400,,,
break_continue,html.Screen,4_16_2,2023-09-16T02:08:27.746Z,,0,,,NaN,,,,,,false,,,,511971,511970.8000000119,,511970.6999999881,,511981.388,8,400,,,
sequence,flow.Sequence,4_16,2023-09-16T02:08:27.746Z,,0,,,3568.727000011946,completion,,,,,false,,,,511971.09999996424,511970.8000000119,508385.877,508389.39999997616,508402.073,511981.388,8,400,,,
trial,html.Screen,4_17_0,2023-09-16T02:08:31.918Z,,0,1,,4161.511999976181,response,ISIC_0009993.JPG,1,ISIC_7376906.JPG,ISIC_0009993.JPG,false,1,keypress(m),500,516143.09999996424,516142.89999997616,511965.26,511971.3000000119,511981.388,516159.796,8,400,18,,ISIC_7376906.JPG
break,html.Screen,4_17_1,2023-09-16T02:08:31.919Z,,0,,,NaN,,,,,,false,,,,516143.8000000119,516143.59999996424,,516143.3000000119,,516159.796,8,400,,,
break_continue,html.Screen,4_17_2,2023-09-16T02:08:31.919Z,,0,,,NaN,,,,,,false,,,,516144.1999999881,516144.09999996424,,516143.89999997616,,516159.796,8,400,,,
sequence,flow.Sequence,4_17,2023-09-16T02:08:31.919Z,,0,,,4162.71199996426,completion,,,,,false,,,,516144.5,516144.09999996424,511965.26,511971.1999999881,511981.388,516159.796,8,400,,,
trial,html.Screen,4_18_0,2023-09-16T02:08:35.955Z,,0,1,,4020.303999964264,response,ISIC_5343231.JPG,14,ISIC_5903193.JPG,ISIC_5343231.JPG,false,1,keypress(m),500,520180.39999997616,520180.09999996424,516143.299,516144.5,516159.796,520188.527,8,400,19,,ISIC_5903193.JPG
break,html.Screen,4_18_1,2023-09-16T02:08:35.956Z,,0,,,NaN,,,,,,false,,,,520181.09999996424,520180.8000000119,,520180.5,,520188.527,8,400,,,
break_continue,html.Screen,4_18_2,2023-09-16T02:08:35.957Z,,0,,,NaN,,,,,,false,,,,520181.5,520181.39999997616,,520181.3000000119,,520188.527,8,400,,,
sequence,flow.Sequence,4_18,2023-09-16T02:08:35.957Z,,0,,,4021.603999976185,completion,,,,,false,,,,520181.6999999881,520181.39999997616,516143.299,516144.5,516159.796,520188.527,8,400,,,
trial,html.Screen,4_19_0,2023-09-16T02:08:41.999Z,,0,1,,6035.372999976156,response,ISIC_0645454.JPG,26,ISIC_3025889.JPG,ISIC_0645454.JPG,false,1,keypress(m),500,526224.3000000119,526223.8999999762,520172.451,520181.8000000119,520188.527,526231.53,8,400,20,,ISIC_3025889.JPG
break,html.Screen,4_19_1,2023-09-16T02:08:42.000Z,,0,,,NaN,,,,,,false,,,,526225.0999999642,526224.8000000119,,526224.5,,526231.53,8,400,,,
break_continue,html.Screen,4_19_2,2023-09-16T02:08:42.001Z,,0,,,NaN,,,,,,false,,,,526225.6999999881,526225.3999999762,,526225.1999999881,,526231.53,8,400,,,
sequence,flow.Sequence,4_19,2023-09-16T02:08:42.001Z,,0,,,6036.872999976156,completion,,,,,false,,,,526225.8000000119,526225.3999999762,520172.451,520181.8000000119,520188.527,526231.53,8,400,,,
trial,html.Screen,4_20_0,2023-09-16T02:08:45.021Z,,0,1,,3014.5699999642093,response,ISIC_0015200.JPG,9,ISIC_7047780.JPG,ISIC_0015200.JPG,false,1,keypress(m),500,529246.3999999762,529246.0999999642,526215.208,526225.8999999762,526231.53,529261.8,8,400,21,,ISIC_7047780.JPG
break,html.Screen,4_20_1,2023-09-16T02:08:45.022Z,,0,,,NaN,,,,,,false,,,,529247.3000000119,529247,,529246.5999999642,,529261.8,8,400,,,
break_continue,html.Screen,4_20_2,2023-09-16T02:08:45.023Z,,0,,,NaN,,,,,,false,,,,529247.8000000119,529247.5999999642,,529247.5,,529261.8,8,400,,,
sequence,flow.Sequence,4_20,2023-09-16T02:08:45.023Z,,0,,,3016.0699999642093,completion,,,,,false,,,,529247.8999999762,529247.5999999642,526215.208,526225.8999999762,526231.53,529261.8,8,400,,,
trial,html.Screen,4_21_0,2023-09-16T02:08:50.563Z,,0,1,,5526.299999964191,response,ISIC_2612661.JPG,10,ISIC_1727826.JPG,ISIC_2612661.JPG,false,1,keypress(m),500,534788.3000000119,534788.0999999642,529245.489,529248,529261.8,534805.018,8,400,22,,ISIC_1727826.JPG
break,html.Screen,4_21_1,2023-09-16T02:08:50.564Z,,0,,,NaN,,,,,,false,,,,534789.0999999642,534788.8000000119,,534788.5,,534805.018,8,400,,,
break_continue,html.Screen,4_21_2,2023-09-16T02:08:50.564Z,,0,,,NaN,,,,,,false,,,,534789.3999999762,534789.3000000119,,534789.1999999881,,534805.018,8,400,,,
sequence,flow.Sequence,4_21,2023-09-16T02:08:50.565Z,,0,,,5527.500000011874,completion,,,,,false,,,,534789.5999999642,534789.3000000119,529245.489,529248,529261.8,534805.018,8,400,,,
trial,html.Screen,4_22_0,2023-09-16T02:08:53.928Z,,0,1,,3347.681999988039,response,ISIC_1736735.JPG,0,ISIC_0054988.JPG,ISIC_0054988.JPG,false,0,keypress(z),500,538153,538152.6999999881,534788.621,534789.8000000119,534805.018,538168.32,8,400,23,,ISIC_1736735.JPG
break,html.Screen,4_22_1,2023-09-16T02:08:53.929Z,,0,,,NaN,,,,,,false,,,,538153.8000000119,538153.5999999642,,538153.1999999881,,538168.32,8,400,,,
break_continue,html.Screen,4_22_2,2023-09-16T02:08:53.929Z,,0,,,NaN,,,,,,false,,,,538154.3000000119,538154.0999999642,,538153.8999999762,,538168.32,8,400,,,
sequence,flow.Sequence,4_22,2023-09-16T02:08:53.929Z,,0,,,3349.081999964197,completion,,,,,false,,,,538154.5,538154.0999999642,534788.621,534789.6999999881,534805.018,538168.32,8,400,,,
trial,html.Screen,4_23_0,2023-09-16T02:08:58.375Z,,0,1,,4431.579999976209,response,ISIC_0012865.JPG,3,ISIC_4796100.JPG,ISIC_4796100.JPG,false,0,keypress(z),500,542600.3000000119,542599.8999999762,538151.431,538154.5,538168.32,542612.96,8,400,24,,ISIC_0012865.JPG
break,html.Screen,4_23_1,2023-09-16T02:08:58.376Z,,0,,,NaN,,,,,,false,,,,542601,542600.8000000119,,542600.5,,542612.96,8,400,,,
break_continue,html.Screen,4_23_2,2023-09-16T02:08:58.377Z,,0,,,NaN,,,,,,false,,,,542601.5,542601.3999999762,,542601.1999999881,,542612.96,8,400,,,
sequence,flow.Sequence,4_23,2023-09-16T02:08:58.377Z,,0,,,4433.079999976209,completion,,,,,false,,,,542601.6999999881,542601.3999999762,538151.431,538154.5,538168.32,542612.96,8,400,,,
trial,html.Screen,4_24_0,2023-09-16T02:09:06.673Z,,0,1,,8284.639999964274,response,ISIC_0034199.JPG,15,ISIC_0046647.JPG,ISIC_0046647.JPG,false,0,keypress(z),500,550897.8999999762,550897.5999999642,542596.687,542601.8000000119,542612.96,550903.32,8,400,25,,ISIC_0034199.JPG
break,html.Screen,4_24_1,2023-09-16T02:09:06.674Z,,0,,,NaN,,,,,,false,,,,550898.6999999881,550898.3999999762,,550898.0999999642,,550903.32,8,400,,,
break_continue,html.Screen,4_24_2,2023-09-16T02:09:06.674Z,,0,,,NaN,,,,,,false,,,,550899.0999999642,550899,,550898.8000000119,,550903.32,8,400,,,
sequence,flow.Sequence,4_24,2023-09-16T02:09:06.674Z,,0,,,8286.040000000037,completion,,,,,false,,,,550899.3000000119,550899,542596.687,542601.8000000119,542612.96,550903.32,8,400,,,
trial,html.Screen,4_25_0,2023-09-16T02:09:10.118Z,,0,1,,3438.8799999881303,response,ISIC_1850196.JPG,14,ISIC_0065039.JPG,ISIC_1850196.JPG,false,1,keypress(m),500,554342.5,554342.1999999881,550888.063,550899.3999999762,550903.32,554349.337,8,400,26,,ISIC_0065039.JPG
break,html.Screen,4_25_1,2023-09-16T02:09:10.118Z,,0,,,NaN,,,,,,false,,,,554343.3000000119,554343,,554342.6999999881,,554349.337,8,400,,,
break_continue,html.Screen,4_25_2,2023-09-16T02:09:10.119Z,,0,,,NaN,,,,,,false,,,,554344,554343.8000000119,,554343.6999999881,,554349.337,8,400,,,
sequence,flow.Sequence,4_25,2023-09-16T02:09:10.119Z,,0,,,3440.480000011972,completion,,,,,false,,,,554344.3000000119,554343.8000000119,550888.063,550899.3999999762,550903.32,554349.337,8,400,,,
trial,html.Screen,4_26_0,2023-09-16T02:09:16.131Z,,0,1,,6006.2629999641795,response,ISIC_1543770.JPG,26,ISIC_0591011.JPG,ISIC_0591011.JPG,false,0,keypress(z),500,560355.8000000119,560355.5999999642,554333.232,554344.5,554349.337,560359.051,8,400,27,,ISIC_1543770.JPG
break,html.Screen,4_26_1,2023-09-16T02:09:16.132Z,,0,,,NaN,,,,,,false,,,,560356.6999999881,560356.3999999762,,560356.0999999642,,560359.051,8,400,,,
break_continue,html.Screen,4_26_2,2023-09-16T02:09:16.132Z,,0,,,NaN,,,,,,false,,,,560357.1999999881,560357,,560356.8000000119,,560359.051,8,400,,,
sequence,flow.Sequence,4_26,2023-09-16T02:09:16.132Z,,0,,,6007.662999999942,completion,,,,,false,,,,560357.3000000119,560357,554333.232,554344.5,554349.337,560359.051,8,400,,,
trial,html.Screen,4_27_0,2023-09-16T02:09:20.657Z,,0,1,,4522.949000000022,response,ISIC_0071135.JPG,12,ISIC_7755875.JPG,ISIC_0071135.JPG,false,1,keypress(m),500,564882.3000000119,564882,560343.266,560357.3999999762,560359.051,564887.21,8,400,28,,ISIC_7755875.JPG
break,html.Screen,4_27_1,2023-09-16T02:09:20.658Z,,0,,,NaN,,,,,,false,,,,564883.0999999642,564882.8999999762,,564882.5999999642,,564887.21,8,400,,,
break_continue,html.Screen,4_27_2,2023-09-16T02:09:20.659Z,,0,,,NaN,,,,,,false,,,,564883.5999999642,564883.3999999762,,564883.3000000119,,564887.21,8,400,,,
sequence,flow.Sequence,4_27,2023-09-16T02:09:20.659Z,,0,,,4524.3489999761805,completion,,,,,false,,,,564883.8000000119,564883.3999999762,560343.266,560357.3999999762,560359.051,564887.21,8,400,,,
trial,html.Screen,4_28_0,2023-09-16T02:09:24.369Z,,0,1,,3706.090000011958,response,ISIC_0010834.JPG,15,ISIC_0990298.JPG,ISIC_0990298.JPG,false,0,keypress(z),500,568593.5,568593.3000000119,564868.903,564883.8000000119,564887.21,568599.586,8,400,29,,ISIC_0010834.JPG
break,html.Screen,4_28_1,2023-09-16T02:09:24.369Z,,0,,,NaN,,,,,,false,,,,568594.3000000119,568594.0999999642,,568593.8000000119,,568599.586,8,400,,,
break_continue,html.Screen,4_28_2,2023-09-16T02:09:24.370Z,,0,,,NaN,,,,,,false,,,,568594.8999999762,568594.8000000119,,568594.5,,568599.586,8,400,,,
sequence,flow.Sequence,4_28,2023-09-16T02:09:24.370Z,,0,,,3707.590000011958,completion,,,,,false,,,,568595,568594.8000000119,564868.903,564883.8000000119,564887.21,568599.586,8,400,,,
trial,html.Screen,4_29_0,2023-09-16T02:09:28.290Z,,0,1,,3914.7140000119107,response,ISIC_0013842.JPG,3,ISIC_0011169.JPG,ISIC_0011169.JPG,false,0,keypress(z),500,572514.6999999881,572514.3000000119,568583.685,568595.1999999881,568599.586,572529.117,8,400,30,,ISIC_0013842.JPG
break,html.Screen,4_29_1,2023-09-16T02:09:28.291Z,,0,,,NaN,,,,,,false,,,,572515.5999999642,572515.3000000119,,572514.8999999762,,572529.117,8,400,,,
break_continue,html.Screen,4_29_2,2023-09-16T02:09:28.291Z,,0,,,NaN,,,,,,false,,,,572516.0999999642,572516,,572515.8999999762,,572529.117,8,400,,,
sequence,flow.Sequence,4_29,2023-09-16T02:09:28.291Z,,0,,,3916.4139999999898,completion,,,,,false,,,,572516.3000000119,572516,568583.685,568595.0999999642,568599.586,572529.117,8,400,,,
trial,html.Screen,4_30_0,2023-09-16T02:09:32.559Z,,0,1,,4254.08299998811,response,ISIC_0027971.JPG,8,ISIC_0011333.JPG,ISIC_0011333.JPG,false,0,keypress(z),500,576783.5999999642,576783.1999999881,572512.443,572516.3999999762,572529.117,576790.382,8,400,31,,ISIC_0027971.JPG
break,html.Screen,4_30_1,2023-09-16T02:09:32.560Z,,0,,,NaN,,,,,,false,,,,576784.3999999762,576784.0999999642,,576783.8000000119,,576790.382,8,400,,,
break_continue,html.Screen,4_30_2,2023-09-16T02:09:32.560Z,,0,,,NaN,,,,,,false,,,,576784.8999999762,576784.8000000119,,576784.5999999642,,576790.382,8,400,,,
sequence,flow.Sequence,4_30,2023-09-16T02:09:32.560Z,,0,,,4255.683000011952,completion,,,,,false,,,,576785,576784.8000000119,572512.443,572516.3000000119,572529.117,576790.382,8,400,,,
trial,html.Screen,4_31_0,2023-09-16T02:09:38.450Z,,0,1,,5884.618000000017,response,ISIC_0025544.JPG,10,ISIC_0012904.JPG,ISIC_0012904.JPG,false,0,keypress(z),500,582675.1999999881,582675,576773.881,576785.1999999881,576790.382,582683.576,8,400,32,,ISIC_0025544.JPG
break,html.Screen,4_31_1,2023-09-16T02:09:38.451Z,,0,,,NaN,,,,,,false,,,,582676,582675.6999999881,,582675.3999999762,,582683.576,8,400,,,
break_continue,html.Screen,4_31_2,2023-09-16T02:09:38.452Z,,0,,,NaN,,,,,,false,,,,582676.5999999642,582676.3000000119,,582676.0999999642,,582683.576,8,400,,,
sequence,flow.Sequence,4_31,2023-09-16T02:09:38.452Z,,0,,,5885.918000011938,completion,,,,,false,,,,582676.6999999881,582676.3000000119,576773.881,576785.0999999642,576790.382,582683.576,8,400,,,
trial,html.Screen,4_32_0,2023-09-16T02:09:44.832Z,,0,1,,6372.923999999999,response,ISIC_6917681.JPG,0,ISIC_0065133.JPG,ISIC_0065133.JPG,false,0,keypress(z),500,589056.8000000119,589056.5,582667.437,582676.8999999762,582683.576,589059.485,8,400,33,,ISIC_6917681.JPG
break,html.Screen,4_32_1,2023-09-16T02:09:44.833Z,,0,,,NaN,,,,,,false,,,,589057.5999999642,589057.3000000119,,589056.8999999762,,589059.485,8,400,,,
break_continue,html.Screen,4_32_2,2023-09-16T02:09:44.833Z,,0,,,NaN,,,,,,false,,,,589058.0999999642,589057.8999999762,,589057.8000000119,,589059.485,8,400,,,
sequence,flow.Sequence,4_32,2023-09-16T02:09:44.833Z,,0,,,6374.323999976157,completion,,,,,false,,,,589058.1999999881,589057.8999999762,582667.437,582676.8000000119,582683.576,589059.485,8,400,,,
trial,html.Screen,4_33_0,2023-09-16T02:09:53.215Z,,0,1,,8379.914999976172,response,ISIC_0031463.JPG,2,ISIC_0070009.JPG,ISIC_0070009.JPG,false,0,keypress(z),500,597439.6999999881,597439.3999999762,589043.541,589058.3999999762,589059.485,597449.927,8,400,34,,ISIC_0031463.JPG
break,html.Screen,4_33_1,2023-09-16T02:09:53.216Z,,0,,,NaN,,,,,,false,,,,597440.5,597440.0999999642,,597439.8999999762,,597449.927,8,400,,,
break_continue,html.Screen,4_33_2,2023-09-16T02:09:53.216Z,,0,,,NaN,,,,,,false,,,,597440.8999999762,597440.8000000119,,597440.5999999642,,597449.927,8,400,,,
sequence,flow.Sequence,4_33,2023-09-16T02:09:53.216Z,,0,,,8381.315000011935,completion,,,,,false,,,,597441.0999999642,597440.8000000119,589043.541,589058.3999999762,589059.485,597449.927,8,400,,,
trial,html.Screen,4_34_0,2023-09-16T02:10:00.272Z,,0,1,,7047.172999964212,response,ISIC_0014027.JPG,8,ISIC_0015129.JPG,ISIC_0015129.JPG,false,0,keypress(z),500,604497.3999999762,604497.0999999642,597434.389,597441.1999999881,597449.927,604508.72,8,400,35,,ISIC_0014027.JPG
break,html.Screen,4_34_1,2023-09-16T02:10:00.273Z,,0,,,NaN,,,,,,false,,,,604498.0999999642,604497.8999999762,,604497.5,,604508.72,8,400,,,
break_continue,html.Screen,4_34_2,2023-09-16T02:10:00.274Z,,0,,,NaN,,,,,,false,,,,604498.6999999881,604498.5,,604498.3000000119,,604508.72,8,400,,,
sequence,flow.Sequence,4_34,2023-09-16T02:10:00.274Z,,0,,,7048.572999999975,completion,,,,,false,,,,604498.8999999762,604498.5,597434.389,597441.1999999881,597449.927,604508.72,8,400,,,
trial,html.Screen,4_35_0,2023-09-16T02:10:07.841Z,,0,1,,7556.780000000028,response,ISIC_4949672.JPG,6,ISIC_6763221.JPG,ISIC_6763221.JPG,false,0,keypress(z),500,612065.8000000119,612065.5,604492.203,604499,604508.72,612083.408,8,400,36,,ISIC_4949672.JPG
break,html.Screen,4_35_1,2023-09-16T02:10:07.842Z,,0,,,NaN,,,,,,false,,,,612066.6999999881,612066.3999999762,,612066,,612083.408,8,400,,,
break_continue,html.Screen,4_35_2,2023-09-16T02:10:07.842Z,,0,,,NaN,,,,,,false,,,,612067.3000000119,612067,,612066.8000000119,,612083.408,8,400,,,
sequence,flow.Sequence,4_35,2023-09-16T02:10:07.843Z,,0,,,7558.280000000028,completion,,,,,false,,,,612067.3999999762,612067,604492.203,604498.8999999762,604508.72,612083.408,8,400,,,
trial,html.Screen,4_36_0,2023-09-16T02:10:13.171Z,,0,1,,5312.392000011867,response,ISIC_0066749.JPG,12,ISIC_0011779.JPG,ISIC_0066749.JPG,false,1,keypress(m),500,617396.0999999642,617395.8000000119,612050.715,612067.5999999642,612083.408,617410.63,8,400,37,,ISIC_0011779.JPG
break,html.Screen,4_36_1,2023-09-16T02:10:13.172Z,,0,,,NaN,,,,,,false,,,,617396.8999999762,617396.6999999881,,617396.3000000119,,617410.63,8,400,,,
break_continue,html.Screen,4_36_2,2023-09-16T02:10:13.173Z,,0,,,NaN,,,,,,false,,,,617397.3999999762,617397.3000000119,,617397.0999999642,,617410.63,8,400,,,
sequence,flow.Sequence,4_36,2023-09-16T02:10:13.173Z,,0,,,5313.892000011867,completion,,,,,false,,,,617397.5,617397.3000000119,612050.715,612067.5,612083.408,617410.63,8,400,,,
trial,html.Screen,4_37_0,2023-09-16T02:10:16.554Z,,0,1,,3367.9699999642326,response,ISIC_8566006.JPG,8,ISIC_0010817.JPG,ISIC_8566006.JPG,false,1,keypress(m),500,620778.8999999762,620778.5999999642,617394.354,617397.6999999881,617410.63,620790.14,8,400,38,,ISIC_0010817.JPG
break,html.Screen,4_37_1,2023-09-16T02:10:16.555Z,,0,,,NaN,,,,,,false,,,,620779.6999999881,620779.3999999762,,620779.1999999881,,620790.14,8,400,,,
break_continue,html.Screen,4_37_2,2023-09-16T02:10:16.555Z,,0,,,NaN,,,,,,false,,,,620780.3000000119,620780.0999999642,,620779.8999999762,,620790.14,8,400,,,
sequence,flow.Sequence,4_37,2023-09-16T02:10:16.555Z,,0,,,3369.4699999642326,completion,,,,,false,,,,620780.3999999762,620780.0999999642,617394.354,617397.5999999642,617410.63,620790.14,8,400,,,
trial,html.Screen,4_38_0,2023-09-16T02:10:24.221Z,,0,1,,7655.759999976144,response,ISIC_6507492.JPG,16,ISIC_0032561.JPG,ISIC_0032561.JPG,false,0,keypress(z),500,628446.3000000119,628445.8999999762,620773.648,620780.5,620790.14,628470.601,8,400,39,,ISIC_6507492.JPG
break,html.Screen,4_38_1,2023-09-16T02:10:24.222Z,,0,,,NaN,,,,,,false,,,,628447.0999999642,628446.8000000119,,628446.5,,628470.601,8,400,,,
break_continue,html.Screen,4_38_2,2023-09-16T02:10:24.223Z,,0,,,NaN,,,,,,false,,,,628447.5999999642,628447.3999999762,,628447.1999999881,,628470.601,8,400,,,
sequence,flow.Sequence,4_38,2023-09-16T02:10:24.223Z,,0,,,7657.259999976144,completion,,,,,false,,,,628447.8000000119,628447.3999999762,620773.648,620780.3999999762,620790.14,628470.601,8,400,,,
trial,html.Screen,4_39_0,2023-09-16T02:10:27.764Z,,0,1,,3517.598999988055,response,ISIC_3495799.JPG,2,ISIC_8527092.JPG,ISIC_8527092.JPG,false,0,keypress(z),500,631988.3999999762,631988.1999999881,628431.533,628447.8999999762,628470.601,631993.734,8,400,40,,ISIC_3495799.JPG
break,html.Screen,4_39_1,2023-09-16T02:10:27.764Z,,0,,,NaN,,,,,,false,,,,631989.3000000119,631989,,631988.6999999881,,631993.734,8,400,,,
break_continue,html.Screen,4_39_2,2023-09-16T02:10:27.765Z,,0,,,NaN,,,,,,false,,,,631989.8000000119,631989.5999999642,,631989.5,,631993.734,8,400,,,
sequence,flow.Sequence,4_39,2023-09-16T02:10:27.765Z,,0,,,3518.998999964213,completion,,,,,false,,,,631989.8999999762,631989.5999999642,628431.533,628447.8999999762,628470.601,631993.734,8,400,,,
trial,html.Screen,4_40_0,2023-09-16T02:10:32.441Z,,0,1,,4672.365999964182,response,ISIC_0058158.JPG,22,ISIC_2245069.JPG,ISIC_0058158.JPG,false,1,keypress(m),500,636666.3000000119,636666.0999999642,631977.37,631990.0999999642,631993.734,636671.765,8,400,41,,ISIC_2245069.JPG
break,html.Screen,4_40_1,2023-09-16T02:10:32.442Z,,0,,,NaN,,,,,,false,,,,636667.1999999881,636666.8999999762,,636666.5,,636671.765,8,400,,,
break_continue,html.Screen,4_40_2,2023-09-16T02:10:32.443Z,,0,,,NaN,,,,,,false,,,,636667.5999999642,636667.5,,636667.3000000119,,636671.765,8,400,,,
sequence,flow.Sequence,4_40,2023-09-16T02:10:32.443Z,,0,,,4673.765999999945,completion,,,,,false,,,,636667.8999999762,636667.5,631977.37,631990.0999999642,631993.734,636671.765,8,400,,,
trial,html.Screen,4_41_0,2023-09-16T02:10:37.675Z,,0,1,,5227.934999988065,response,ISIC_9810276.JPG,8,ISIC_3571523.JPG,ISIC_9810276.JPG,false,1,keypress(m),500,641900.1999999881,641899.6999999881,636655.693,636667.8999999762,636671.765,641915.824,8,400,42,,ISIC_3571523.JPG
break,html.Screen,4_41_1,2023-09-16T02:10:37.676Z,,0,,,NaN,,,,,,false,,,,641900.8999999762,641900.6999999881,,641900.3999999762,,641915.824,8,400,,,
break_continue,html.Screen,4_41_2,2023-09-16T02:10:37.676Z,,0,,,NaN,,,,,,false,,,,641901.1999999881,641901.0999999642,,641901,,641915.824,8,400,,,
sequence,flow.Sequence,4_41,2023-09-16T02:10:37.677Z,,0,,,5229.334999964223,completion,,,,,false,,,,641901.3999999762,641901.0999999642,636655.693,636667.8999999762,636671.765,641915.824,8,400,,,
trial,html.Screen,4_42_0,2023-09-16T02:10:41.642Z,,0,1,,3950.3759999880567,response,ISIC_0013411.JPG,8,ISIC_0561634.JPG,ISIC_0013411.JPG,false,1,keypress(m),500,645866.5,645866.1999999881,641899.46,641901.5,641915.824,645878.324,8,400,43,,ISIC_0561634.JPG
break,html.Screen,4_42_1,2023-09-16T02:10:41.642Z,,0,,,NaN,,,,,,false,,,,645867.3000000119,645867,,645866.6999999881,,645878.324,8,400,,,
break_continue,html.Screen,4_42_2,2023-09-16T02:10:41.643Z,,0,,,NaN,,,,,,false,,,,645867.6999999881,645867.5999999642,,645867.3999999762,,645878.324,8,400,,,
sequence,flow.Sequence,4_42,2023-09-16T02:10:41.643Z,,0,,,3951.775999964215,completion,,,,,false,,,,645867.8999999762,645867.5999999642,641899.46,641901.5,641915.824,645878.324,8,400,,,
trial,html.Screen,4_43_0,2023-09-16T02:10:44.675Z,,0,1,,3021.275999964215,response,ISIC_0032873.JPG,30,ISIC_0781315.JPG,ISIC_0032873.JPG,false,1,keypress(m),500,648899.8999999762,648899.5999999642,645861.256,645867.8999999762,645878.324,648907.679,8,400,44,,ISIC_0781315.JPG
break,html.Screen,4_43_1,2023-09-16T02:10:44.676Z,,0,,,NaN,,,,,,false,,,,648900.6999999881,648900.3999999762,,648900.0999999642,,648907.679,8,400,,,
break_continue,html.Screen,4_43_2,2023-09-16T02:10:44.676Z,,0,,,NaN,,,,,,false,,,,648901.0999999642,648901,,648900.8999999762,,648907.679,8,400,,,
sequence,flow.Sequence,4_43,2023-09-16T02:10:44.676Z,,0,,,3022.6759999999776,completion,,,,,false,,,,648901.3000000119,648901,645861.256,645867.8999999762,645878.324,648907.679,8,400,,,
trial,html.Screen,4_44_0,2023-09-16T02:10:48.738Z,,0,1,,4055.0209999880753,response,ISIC_0032472.JPG,11,ISIC_5098778.JPG,ISIC_5098778.JPG,false,0,keypress(z),500,652963,652962.6999999881,648890.9,648901.5,648907.679,652969.673,8,400,45,,ISIC_0032472.JPG
break,html.Screen,4_44_1,2023-09-16T02:10:48.739Z,,0,,,NaN,,,,,,false,,,,652963.8999999762,652963.6999999881,,652963.3000000119,,652969.673,8,400,,,
break_continue,html.Screen,4_44_2,2023-09-16T02:10:48.739Z,,0,,,NaN,,,,,,false,,,,652964.3999999762,652964.1999999881,,652964,,652969.673,8,400,,,
sequence,flow.Sequence,4_44,2023-09-16T02:10:48.740Z,,0,,,4056.5209999880753,completion,,,,,false,,,,652964.5999999642,652964.1999999881,648890.9,648901.3999999762,648907.679,652969.673,8,400,,,
trial,html.Screen,4_45_0,2023-09-16T02:10:52.228Z,,0,1,,3482.9269999642856,response,ISIC_8397011.JPG,13,ISIC_1144024.JPG,ISIC_1144024.JPG,false,0,keypress(z),500,656452.8999999762,656452.5999999642,652954.155,652964.5999999642,652969.673,656465.857,8,400,46,,ISIC_8397011.JPG
break,html.Screen,4_45_1,2023-09-16T02:10:52.229Z,,0,,,NaN,,,,,,false,,,,656453.6999999881,656453.3999999762,,656453.0999999642,,656465.857,8,400,,,
break_continue,html.Screen,4_45_2,2023-09-16T02:10:52.229Z,,0,,,NaN,,,,,,false,,,,656454.0999999642,656454,,656453.8000000119,,656465.857,8,400,,,
sequence,flow.Sequence,4_45,2023-09-16T02:10:52.229Z,,0,,,3484.3270000000484,completion,,,,,false,,,,656454.1999999881,656454,652954.155,652964.5999999642,652969.673,656465.857,8,400,,,
trial,html.Screen,4_46_0,2023-09-16T02:10:55.632Z,,0,1,,3390.542999976198,response,ISIC_6001936.JPG,3,ISIC_0011529.JPG,ISIC_0011529.JPG,false,0,keypress(z),500,659856.5999999642,659856.3999999762,656449.86,656454.3999999762,656465.857,659861.844,8,400,47,,ISIC_6001936.JPG
break,html.Screen,4_46_1,2023-09-16T02:10:55.632Z,,0,,,NaN,,,,,,false,,,,659857.3999999762,659857.0999999642,,659856.8000000119,,659861.844,8,400,,,
break_continue,html.Screen,4_46_2,2023-09-16T02:10:55.633Z,,0,,,NaN,,,,,,false,,,,659857.8000000119,659857.5999999642,,659857.5,,659861.844,8,400,,,
sequence,flow.Sequence,4_46,2023-09-16T02:10:55.633Z,,0,,,3391.7429999642773,completion,,,,,false,,,,659858,659857.5999999642,656449.86,656454.3999999762,656465.857,659861.844,8,400,,,
trial,html.Screen,4_47_0,2023-09-16T02:11:01.022Z,,0,1,,5384.95600001188,response,ISIC_8248922.JPG,1,ISIC_0360367.JPG,ISIC_0360367.JPG,false,0,keypress(z),500,665247.0999999642,665246.8000000119,659845.566,659858.0999999642,659861.844,665255.617,8,400,48,,ISIC_8248922.JPG
break,html.Screen,4_47_1,2023-09-16T02:11:01.023Z,,0,,,NaN,,,,,,false,,,,665248,665247.6999999881,,665247.3000000119,,665255.617,8,400,,,
break_continue,html.Screen,4_47_2,2023-09-16T02:11:01.024Z,,0,,,NaN,,,,,,false,,,,665248.5,665248.3999999762,,665248.1999999881,,665255.617,8,400,,,
sequence,flow.Sequence,4_47,2023-09-16T02:11:01.024Z,,0,,,5386.555999976117,completion,,,,,false,,,,665248.6999999881,665248.3999999762,659845.566,659858.0999999642,659861.844,665255.617,8,400,,,
trial,html.Screen,4_48_0,2023-09-16T02:11:07.378Z,,0,1,,6346.683000011952,response,ISIC_0027797.JPG,0,ISIC_6741865.JPG,ISIC_0027797.JPG,false,1,keypress(m),500,671602.6999999881,671602.3000000119,665239.488,665248.8000000119,665255.617,671615.087,8,400,49,,ISIC_6741865.JPG
break,html.Screen,4_48_1,2023-09-16T02:11:07.379Z,,0,,,NaN,,,,,,false,,,,671603.5,671603.3000000119,,671602.8999999762,,671615.087,8,400,,,
break_continue,html.Screen,4_48_2,2023-09-16T02:11:07.379Z,,0,,,NaN,,,,,,false,,,,671604,671603.8999999762,,671603.6999999881,,671615.087,8,400,,,
sequence,flow.Sequence,4_48,2023-09-16T02:11:07.379Z,,0,,,6348.282999976189,completion,,,,,false,,,,671604.1999999881,671603.8999999762,665239.488,665248.6999999881,665255.617,671615.087,8,400,,,
trial,html.Screen,4_49_0,2023-09-16T02:11:11.147Z,,0,1,,3756.4129999999423,response,ISIC_0012298.JPG,2,ISIC_0026996.JPG,ISIC_0012298.JPG,false,1,keypress(m),500,675371.6999999881,675371.5,671598.906,671604.3000000119,671615.087,675377.285,8,400,50,,ISIC_0026996.JPG
break,html.Screen,4_49_1,2023-09-16T02:11:21.143Z,,0,,,10005.699000000022,timeout,,,,,false,,,,685368.1999999881,685366.57,675361.122,675372,675377.285,685382.984,8,400,,,
break_continue,html.Screen,4_49_2,2023-09-16T02:11:23.447Z,,0,,,2277.015999999945,response,,,,,false,continue,keypress(Space),,687671.5999999642,687660,685366.57,685368.3000000119,685382.984,687679.969,8,400,,,
sequence,flow.Sequence,4_49,2023-09-16T02:11:23.447Z,,0,,,16044.912999999942,completion,,,,,false,,,,687671.8000000119,687660,671598.906,671604.3000000119,671615.087,687679.969,8,400,,,
trial,html.Screen,4_50_0,2023-09-16T02:11:28.194Z,,0,2,,4738.630999964196,response,ISIC_0055675.JPG,12,ISIC_0026559.JPG,ISIC_0055675.JPG,false,1,keypress(m),500,692418.8000000119,692418.5999999642,687663.481,687672,687679.969,692424.535,8,400,1,,ISIC_0026559.JPG
break,html.Screen,4_50_1,2023-09-16T02:11:28.195Z,,0,,,NaN,,,,,,false,,,,692419.5999999642,692419.3000000119,,692419.0999999642,,692424.535,8,400,,,
break_continue,html.Screen,4_50_2,2023-09-16T02:11:28.195Z,,0,,,NaN,,,,,,false,,,,692420.0999999642,692419.8999999762,,692419.8000000119,,692424.535,8,400,,,
sequence,flow.Sequence,4_50,2023-09-16T02:11:28.195Z,,0,,,4739.930999976117,completion,,,,,false,,,,692420.3000000119,692419.8999999762,687663.481,687671.8999999762,687679.969,692424.535,8,400,,,
trial,html.Screen,4_51_0,2023-09-16T02:11:34.794Z,,0,2,,6593.6649999880465,response,ISIC_5233226.JPG,11,ISIC_0033496.JPG,ISIC_0033496.JPG,false,0,keypress(z),500,699018.5,699018.1999999881,692408.363,692420.3999999762,692424.535,699034.373,8,400,2,,ISIC_5233226.JPG
break,html.Screen,4_51_1,2023-09-16T02:11:34.794Z,,0,,,NaN,,,,,,false,,,,699019.3000000119,699019,,699018.6999999881,,699034.373,8,400,,,
break_continue,html.Screen,4_51_2,2023-09-16T02:11:34.795Z,,0,,,NaN,,,,,,false,,,,699019.6999999881,699019.5999999642,,699019.3999999762,,699034.373,8,400,,,
sequence,flow.Sequence,4_51,2023-09-16T02:11:34.795Z,,0,,,6595.064999964205,completion,,,,,false,,,,699019.8999999762,699019.5999999642,692408.363,692420.3000000119,692424.535,699034.373,8,400,,,
trial,html.Screen,4_52_0,2023-09-16T02:11:37.949Z,,0,2,,3139.5269999761367,response,ISIC_0010308.JPG,10,ISIC_9618489.JPG,ISIC_0010308.JPG,false,1,keypress(m),500,702174.1999999881,702173.8999999762,699017.366,699020,699034.373,702179.999,8,400,3,,ISIC_9618489.JPG
break,html.Screen,4_52_1,2023-09-16T02:11:37.950Z,,0,,,NaN,,,,,,false,,,,702174.8999999762,702174.5999999642,,702174.3000000119,,702179.999,8,400,,,
break_continue,html.Screen,4_52_2,2023-09-16T02:11:37.951Z,,0,,,NaN,,,,,,false,,,,702175.5,702175.3000000119,,702175.0999999642,,702179.999,8,400,,,
sequence,flow.Sequence,4_52,2023-09-16T02:11:37.951Z,,0,,,3140.9270000118995,completion,,,,,false,,,,702175.5999999642,702175.3000000119,699017.366,699020,699034.373,702179.999,8,400,,,
trial,html.Screen,4_53_0,2023-09-16T02:11:42.332Z,,0,2,,4376.900999976206,response,ISIC_0028087.JPG,2,ISIC_0026853.JPG,ISIC_0026853.JPG,false,0,keypress(z),500,706557.1999999881,706556.8999999762,702163.682,702175.8000000119,702179.999,706575.462,8,400,4,,ISIC_0028087.JPG
break,html.Screen,4_53_1,2023-09-16T02:11:42.333Z,,0,,,NaN,,,,,,false,,,,706557.8999999762,706557.6999999881,,706557.5,,706575.462,8,400,,,
break_continue,html.Screen,4_53_2,2023-09-16T02:11:42.333Z,,0,,,NaN,,,,,,false,,,,706558.3000000119,706558.1999999881,,706558.0999999642,,706575.462,8,400,,,
sequence,flow.Sequence,4_53,2023-09-16T02:11:42.334Z,,0,,,4378.200999988127,completion,,,,,false,,,,706558.5,706558.1999999881,702163.682,702175.8000000119,702179.999,706575.462,8,400,,,
trial,html.Screen,4_54_0,2023-09-16T02:11:45.657Z,,0,2,,3305.9379999761004,response,ISIC_2197722.JPG,12,ISIC_9767255.JPG,ISIC_2197722.JPG,false,1,keypress(m),500,709881.5999999642,709881.3999999762,706542.159,706558.6999999881,706575.462,709887.885,8,400,5,,ISIC_9767255.JPG
break,html.Screen,4_54_1,2023-09-16T02:11:45.658Z,,0,,,NaN,,,,,,false,,,,709882.3999999762,709882.0999999642,,709881.8000000119,,709887.885,8,400,,,
break_continue,html.Screen,4_54_2,2023-09-16T02:11:45.658Z,,0,,,NaN,,,,,,false,,,,709882.8999999762,709882.6999999881,,709882.5,,709887.885,8,400,,,
sequence,flow.Sequence,4_54,2023-09-16T02:11:45.658Z,,0,,,3307.2379999880213,completion,,,,,false,,,,709883,709882.6999999881,706542.159,706558.6999999881,706575.462,709887.885,8,400,,,
trial,html.Screen,4_55_0,2023-09-16T02:11:52.907Z,,0,2,,7244.014999976149,response,ISIC_1258986.JPG,16,ISIC_0026371.JPG,ISIC_0026371.JPG,false,0,keypress(z),500,717132.1999999881,717131.8999999762,709871.547,709883.0999999642,709887.885,717147.127,8,400,6,,ISIC_1258986.JPG
break,html.Screen,4_55_1,2023-09-16T02:11:52.908Z,,0,,,NaN,,,,,,false,,,,717133,717132.8000000119,,717132.3999999762,,717147.127,8,400,,,
break_continue,html.Screen,4_55_2,2023-09-16T02:11:52.909Z,,0,,,NaN,,,,,,false,,,,717133.3999999762,717133.3000000119,,717133.0999999642,,717147.127,8,400,,,
sequence,flow.Sequence,4_55,2023-09-16T02:11:52.909Z,,0,,,7245.415000011912,completion,,,,,false,,,,717133.5999999642,717133.3000000119,709871.547,709883,709887.885,717147.127,8,400,,,
trial,html.Screen,4_56_0,2023-09-16T02:11:56.595Z,,0,2,,3672.6730000119423,response,ISIC_7663476.JPG,9,ISIC_1432058.JPG,ISIC_1432058.JPG,false,0,keypress(z),500,720820,720819.8000000119,717129.764,717133.8000000119,717147.127,720825.242,8,400,7,,ISIC_7663476.JPG
break,html.Screen,4_56_1,2023-09-16T02:11:56.596Z,,0,,,NaN,,,,,,false,,,,720820.6999999881,720820.5,,720820.1999999881,,720825.242,8,400,,,
break_continue,html.Screen,4_56_2,2023-09-16T02:11:56.596Z,,0,,,NaN,,,,,,false,,,,720821,720820.8999999762,,720820.8999999762,,720825.242,8,400,,,
sequence,flow.Sequence,4_56,2023-09-16T02:11:56.596Z,,0,,,3673.7729999761796,completion,,,,,false,,,,720821.1999999881,720820.8999999762,717129.764,717133.6999999881,717147.127,720825.242,8,400,,,
trial,html.Screen,4_57_0,2023-09-16T02:12:02.025Z,,0,2,,5423.95799998811,response,ISIC_1768733.JPG,2,ISIC_0033959.JPG,ISIC_1768733.JPG,false,1,keypress(m),500,726249.3999999762,726249.1999999881,720809.218,720821.3999999762,720825.242,726252.449,8,400,8,,ISIC_0033959.JPG
break,html.Screen,4_57_1,2023-09-16T02:12:02.025Z,,0,,,NaN,,,,,,false,,,,726250.1999999881,726249.8999999762,,726249.6999999881,,726252.449,8,400,,,
break_continue,html.Screen,4_57_2,2023-09-16T02:12:02.026Z,,0,,,NaN,,,,,,false,,,,726250.5999999642,726250.5,,726250.3999999762,,726252.449,8,400,,,
sequence,flow.Sequence,4_57,2023-09-16T02:12:02.026Z,,0,,,5425.258000000031,completion,,,,,false,,,,726250.8000000119,726250.5,720809.218,720821.3000000119,720825.242,726252.449,8,400,,,
trial,html.Screen,4_58_0,2023-09-16T02:12:05.228Z,,0,2,,3199.8510000118986,response,ISIC_0058376.JPG,13,ISIC_9764973.JPG,ISIC_0058376.JPG,false,1,keypress(m),500,729452.5,729452.3000000119,726236.043,726250.8999999762,726252.449,729465.836,8,400,9,,ISIC_9764973.JPG
break,html.Screen,4_58_1,2023-09-16T02:12:05.228Z,,0,,,NaN,,,,,,false,,,,729453.3000000119,729453,,729452.6999999881,,729465.836,8,400,,,
break_continue,html.Screen,4_58_2,2023-09-16T02:12:05.229Z,,0,,,NaN,,,,,,false,,,,729453.8000000119,729453.5999999642,,729453.3999999762,,729465.836,8,400,,,
sequence,flow.Sequence,4_58,2023-09-16T02:12:05.229Z,,0,,,3201.150999964215,completion,,,,,false,,,,729453.8999999762,729453.5999999642,726236.043,726250.8000000119,726252.449,729465.836,8,400,,,
trial,html.Screen,4_59_0,2023-09-16T02:12:08.599Z,,0,2,,3357.6639999999898,response,ISIC_0055136.JPG,0,ISIC_6882582.JPG,ISIC_0055136.JPG,false,1,keypress(m),500,732823.6999999881,732823.5,729448.898,729454,729465.836,732828.24,8,400,10,,ISIC_6882582.JPG
break,html.Screen,4_59_1,2023-09-16T02:12:08.600Z,,0,,,NaN,,,,,,false,,,,732824.5,732824.3000000119,,732823.8999999762,,732828.24,8,400,,,
break_continue,html.Screen,4_59_2,2023-09-16T02:12:08.600Z,,0,,,NaN,,,,,,false,,,,732824.8999999762,732824.8000000119,,732824.5999999642,,732828.24,8,400,,,
sequence,flow.Sequence,4_59,2023-09-16T02:12:08.600Z,,0,,,3358.9640000119107,completion,,,,,false,,,,732825.1999999881,732824.8000000119,729448.898,729454,729465.836,732828.24,8,400,,,
trial,html.Screen,4_60_0,2023-09-16T02:12:11.610Z,,0,2,,3006.6599999761675,response,ISIC_3688362.JPG,13,ISIC_0429825.JPG,ISIC_0429825.JPG,false,0,keypress(z),500,735835.1999999881,735834.8999999762,732811.979,732825.3000000119,732828.24,735841.525,8,400,11,,ISIC_3688362.JPG
break,html.Screen,4_60_1,2023-09-16T02:12:11.611Z,,0,,,NaN,,,,,,false,,,,735836,735835.5999999642,,735835.3000000119,,735841.525,8,400,,,
break_continue,html.Screen,4_60_2,2023-09-16T02:12:11.611Z,,0,,,NaN,,,,,,false,,,,735836.3999999762,735836.1999999881,,735836.0999999642,,735841.525,8,400,,,
sequence,flow.Sequence,4_60,2023-09-16T02:12:11.612Z,,0,,,3007.9599999880884,completion,,,,,false,,,,735836.5999999642,735836.1999999881,732811.979,732825.3000000119,732828.24,735841.525,8,400,,,
trial,html.Screen,4_61_0,2023-09-16T02:12:15.125Z,,0,2,,3508.074999964214,response,ISIC_2631789.JPG,16,ISIC_0028606.JPG,ISIC_0028606.JPG,false,0,keypress(z),500,739349.8999999762,739349.5999999642,735825.101,735836.6999999881,735841.525,739371.253,8,400,12,,ISIC_2631789.JPG
break,html.Screen,4_61_1,2023-09-16T02:12:15.125Z,,0,,,NaN,,,,,,false,,,,739350.5,739350.3000000119,,739350,,739371.253,8,400,,,
break_continue,html.Screen,4_61_2,2023-09-16T02:12:15.126Z,,0,,,NaN,,,,,,false,,,,739350.8999999762,739350.8000000119,,739350.6999999881,,739371.253,8,400,,,
sequence,flow.Sequence,4_61,2023-09-16T02:12:15.126Z,,0,,,3509.2750000118976,completion,,,,,false,,,,739351,739350.8000000119,735825.101,735836.5999999642,735841.525,739371.253,8,400,,,
trial,html.Screen,4_62_0,2023-09-16T02:12:18.607Z,,0,2,,3461.047000011895,response,ISIC_0032287.JPG,10,ISIC_0066355.JPG,ISIC_0066355.JPG,false,0,keypress(z),500,742832.5,742832.3000000119,739354.525,739351,739371.253,742850.511,8,400,13,,ISIC_0032287.JPG
break,html.Screen,4_62_1,2023-09-16T02:12:18.608Z,,0,,,NaN,,,,,,false,,,,742833.1999999881,742833,,742832.6999999881,,742850.511,8,400,,,
break_continue,html.Screen,4_62_2,2023-09-16T02:12:18.609Z,,0,,,NaN,,,,,,false,,,,742833.5999999642,742833.3999999762,,742833.3000000119,,742850.511,8,400,,,
sequence,flow.Sequence,4_62,2023-09-16T02:12:18.609Z,,0,,,3462.146999976132,completion,,,,,false,,,,742833.8000000119,742833.3999999762,739354.525,739351,739371.253,742850.511,8,400,,,
trial,html.Screen,4_63_0,2023-09-16T02:12:26.178Z,,0,2,,7552.388999976101,response,ISIC_6265473.JPG,0,ISIC_0244240.JPG,ISIC_6265473.JPG,false,1,keypress(m),500,750403.3000000119,750402.8999999762,742833.434,742833.8000000119,742850.511,750408.16,8,400,14,,ISIC_0244240.JPG
break,html.Screen,4_63_1,2023-09-16T02:12:26.179Z,,0,,,NaN,,,,,,false,,,,750404.0999999642,750403.6999999881,,750403.3999999762,,750408.16,8,400,,,
break_continue,html.Screen,4_63_2,2023-09-16T02:12:26.180Z,,0,,,NaN,,,,,,false,,,,750404.5999999642,750404.5,,750404.1999999881,,750408.16,8,400,,,
sequence,flow.Sequence,4_63,2023-09-16T02:12:26.180Z,,0,,,7553.988999999943,completion,,,,,false,,,,750404.6999999881,750404.5,742833.434,742833.8000000119,742850.511,750408.16,8,400,,,
trial,html.Screen,4_64_0,2023-09-16T02:12:29.502Z,,0,2,,3318.0399999880465,response,ISIC_5333058.JPG,2,ISIC_9895220.JPG,ISIC_5333058.JPG,false,1,keypress(m),500,753726.5999999642,753726.1999999881,750391.86,750404.8999999762,750408.16,753737.742,8,400,15,,ISIC_9895220.JPG
break,html.Screen,4_64_1,2023-09-16T02:12:29.502Z,,0,,,NaN,,,,,,false,,,,753727.3999999762,753727.0999999642,,753726.8999999762,,753737.742,8,400,,,
break_continue,html.Screen,4_64_2,2023-09-16T02:12:29.503Z,,0,,,NaN,,,,,,false,,,,753727.8999999762,753727.6999999881,,753727.5999999642,,753737.742,8,400,,,
sequence,flow.Sequence,4_64,2023-09-16T02:12:29.503Z,,0,,,3319.5399999880465,completion,,,,,false,,,,753728,753727.6999999881,750391.86,750404.8000000119,750408.16,753737.742,8,400,,,
trial,html.Screen,4_65_0,2023-09-16T02:12:33.419Z,,0,2,,3905.7580000000307,response,ISIC_0062196.JPG,0,ISIC_0259179.JPG,ISIC_0062196.JPG,false,1,keypress(m),500,757643.6999999881,757643.5,753721.093,753728.1999999881,753737.742,757649.863,8,400,16,,ISIC_0259179.JPG
break,html.Screen,4_65_1,2023-09-16T02:12:33.420Z,,0,,,NaN,,,,,,false,,,,757644.5,757644.3000000119,,757644,,757649.863,8,400,,,
break_continue,html.Screen,4_65_2,2023-09-16T02:12:33.420Z,,0,,,NaN,,,,,,false,,,,757645.0999999642,757644.8999999762,,757644.6999999881,,757649.863,8,400,,,
sequence,flow.Sequence,4_65,2023-09-16T02:12:33.420Z,,0,,,3907.157999976189,completion,,,,,false,,,,757645.1999999881,757644.8999999762,753721.093,753728.0999999642,753737.742,757649.863,8,400,,,
trial,html.Screen,4_66_0,2023-09-16T02:12:36.742Z,,0,2,,3317.036999976146,response,ISIC_0056796.JPG,5,ISIC_2134975.JPG,ISIC_0056796.JPG,false,1,keypress(m),500,760967.3000000119,760966.8999999762,757633.608,757645.1999999881,757649.863,760979.438,8,400,17,,ISIC_2134975.JPG
break,html.Screen,4_66_1,2023-09-16T02:12:36.743Z,,0,,,NaN,,,,,,false,,,,760968.0999999642,760967.6999999881,,760967.5,,760979.438,8,400,,,
break_continue,html.Screen,4_66_2,2023-09-16T02:12:36.743Z,,0,,,NaN,,,,,,false,,,,760968.5,760968.3000000119,,760968.1999999881,,760979.438,8,400,,,
sequence,flow.Sequence,4_66,2023-09-16T02:12:36.744Z,,0,,,3318.437000011909,completion,,,,,false,,,,760968.5999999642,760968.3000000119,757633.608,757645.1999999881,757649.863,760979.438,8,400,,,
trial,html.Screen,4_67_0,2023-09-16T02:12:40.215Z,,0,2,,3460.5620000000345,response,ISIC_0465385.JPG,12,ISIC_1102391.JPG,ISIC_0465385.JPG,false,1,keypress(m),500,764440.1999999881,764440,760963.074,760968.6999999881,760979.438,764462.676,8,400,18,,ISIC_1102391.JPG
break,html.Screen,4_67_1,2023-09-16T02:12:40.216Z,,0,,,NaN,,,,,,false,,,,764441,764440.6999999881,,764440.3999999762,,764462.676,8,400,,,
break_continue,html.Screen,4_67_2,2023-09-16T02:12:40.216Z,,0,,,NaN,,,,,,false,,,,764441.5,764441.3000000119,,764441.1999999881,,764462.676,8,400,,,
sequence,flow.Sequence,4_67,2023-09-16T02:12:40.217Z,,0,,,3461.8620000119554,completion,,,,,false,,,,764441.5999999642,764441.3000000119,760963.074,760968.6999999881,760979.438,764462.676,8,400,,,
trial,html.Screen,4_68_0,2023-09-16T02:12:43.040Z,,0,2,,2802.1240000119433,response,ISIC_6019374.JPG,2,ISIC_0060660.JPG,ISIC_0060660.JPG,false,0,keypress(z),500,767265,767264.8000000119,764425.937,764441.6999999881,764462.676,767272.222,8,400,19,,ISIC_6019374.JPG
break,html.Screen,4_68_1,2023-09-16T02:12:43.041Z,,0,,,NaN,,,,,,false,,,,767265.8000000119,767265.3999999762,,767265.1999999881,,767272.222,8,400,,,
break_continue,html.Screen,4_68_2,2023-09-16T02:12:43.041Z,,0,,,NaN,,,,,,false,,,,767266.0999999642,767266,,767265.8999999762,,767272.222,8,400,,,
sequence,flow.Sequence,4_68,2023-09-16T02:12:43.041Z,,0,,,2803.3240000000224,completion,,,,,false,,,,767266.3999999762,767266,764425.937,764441.6999999881,764462.676,767272.222,8,400,,,
trial,html.Screen,4_69_0,2023-09-16T02:12:46.745Z,,0,2,,3697.2780000000494,response,ISIC_5971574.JPG,15,ISIC_0030085.JPG,ISIC_0030085.JPG,false,0,keypress(z),500,770969.8000000119,770969.5,767255.824,767266.3999999762,767272.222,771001.313,8,400,20,,ISIC_5971574.JPG
break,html.Screen,4_69_1,2023-09-16T02:12:46.746Z,,0,,,NaN,,,,,,false,,,,770970.5,770970.3999999762,,770970,,771001.313,8,400,,,
break_continue,html.Screen,4_69_2,2023-09-16T02:12:46.746Z,,0,,,NaN,,,,,,false,,,,770970.8999999762,770970.6999999881,,770970.5999999642,,771001.313,8,400,,,
sequence,flow.Sequence,4_69,2023-09-16T02:12:46.746Z,,0,,,3698.4779999881284,completion,,,,,false,,,,770970.8999999762,770970.6999999881,767255.824,767266.3999999762,767272.222,771001.313,8,400,,,
trial,html.Screen,4_70_0,2023-09-16T02:12:54.957Z,,0,2,,8180.1870000000345,response,ISIC_0055361.JPG,4,ISIC_0067094.JPG,ISIC_0067094.JPG,false,0,keypress(z),500,779181.8000000119,779181.5,770984.632,770971.0999999642,771001.313,779191.9,8,400,21,,ISIC_0055361.JPG
break,html.Screen,4_70_1,2023-09-16T02:12:54.958Z,,0,,,NaN,,,,,,false,,,,779182.5999999642,779182.3000000119,,779182,,779191.9,8,400,,,
break_continue,html.Screen,4_70_2,2023-09-16T02:12:54.958Z,,0,,,NaN,,,,,,false,,,,779183.0999999642,779183,,779182.8000000119,,779191.9,8,400,,,
sequence,flow.Sequence,4_70,2023-09-16T02:12:54.958Z,,0,,,8181.6870000000345,completion,,,,,false,,,,779183.3000000119,779183,770984.632,770971.0999999642,771001.313,779191.9,8,400,,,
trial,html.Screen,4_71_0,2023-09-16T02:12:58.082Z,,0,2,,3114.999999976135,response,ISIC_1729351.JPG,14,ISIC_4307205.JPG,ISIC_1729351.JPG,false,1,keypress(m),500,782307.0999999642,782306.8999999762,779175.635,779183.3000000119,779191.9,782321.964,8,400,22,,ISIC_4307205.JPG
break,html.Screen,4_71_1,2023-09-16T02:12:58.083Z,,0,,,NaN,,,,,,false,,,,782308,782307.6999999881,,782307.3000000119,,782321.964,8,400,,,
break_continue,html.Screen,4_71_2,2023-09-16T02:12:58.083Z,,0,,,NaN,,,,,,false,,,,782308.3999999762,782308.3000000119,,782308.1999999881,,782321.964,8,400,,,
sequence,flow.Sequence,4_71,2023-09-16T02:12:58.084Z,,0,,,3116.4000000118976,completion,,,,,false,,,,782308.5999999642,782308.3000000119,779175.635,779183.3000000119,779191.9,782321.964,8,400,,,
trial,html.Screen,4_72_0,2023-09-16T02:13:04.248Z,,0,2,,6150.635999964201,response,ISIC_9756117.JPG,7,ISIC_2523776.JPG,ISIC_2523776.JPG,false,0,keypress(z),500,788472.8999999762,788472.5999999642,782305.474,782308.6999999881,782321.964,788481.153,8,400,23,,ISIC_9756117.JPG
break,html.Screen,4_72_1,2023-09-16T02:13:04.249Z,,0,,,NaN,,,,,,false,,,,788473.6999999881,788473.3999999762,,788473.0999999642,,788481.153,8,400,,,
break_continue,html.Screen,4_72_2,2023-09-16T02:13:04.249Z,,0,,,NaN,,,,,,false,,,,788474.1999999881,788474,,788473.8000000119,,788481.153,8,400,,,
sequence,flow.Sequence,4_72,2023-09-16T02:13:04.249Z,,0,,,6152.035999999964,completion,,,,,false,,,,788474.3000000119,788474,782305.474,782308.5999999642,782321.964,788481.153,8,400,,,
trial,html.Screen,4_73_0,2023-09-16T02:13:08.085Z,,0,2,,3828.246999976109,response,ISIC_0033323.JPG,12,ISIC_5434055.JPG,ISIC_0033323.JPG,false,1,keypress(m),500,792309.6999999881,792309.3999999762,788465.112,788474.3999999762,788481.153,792326.873,8,400,24,,ISIC_5434055.JPG
break,html.Screen,4_73_1,2023-09-16T02:13:08.086Z,,0,,,NaN,,,,,,false,,,,792310.5999999642,792310.3000000119,,792309.8999999762,,792326.873,8,400,,,
break_continue,html.Screen,4_73_2,2023-09-16T02:13:08.086Z,,0,,,NaN,,,,,,false,,,,792311,792310.8000000119,,792310.8000000119,,792326.873,8,400,,,
sequence,flow.Sequence,4_73,2023-09-16T02:13:08.086Z,,0,,,3829.6470000118716,completion,,,,,false,,,,792311.0999999642,792310.8000000119,788465.112,788474.3999999762,788481.153,792326.873,8,400,,,
trial,html.Screen,4_74_0,2023-09-16T02:13:11.518Z,,0,2,,3415.726999964216,response,ISIC_0013572.JPG,26,ISIC_1630301.JPG,ISIC_1630301.JPG,false,0,keypress(z),500,795742.8000000119,795742.5999999642,792310.16,792311.1999999881,792326.873,795756.773,8,400,25,,ISIC_0013572.JPG
break,html.Screen,4_74_1,2023-09-16T02:13:11.519Z,,0,,,NaN,,,,,,false,,,,795743.6999999881,795743.3999999762,,795743.0999999642,,795756.773,8,400,,,
break_continue,html.Screen,4_74_2,2023-09-16T02:13:11.519Z,,0,,,NaN,,,,,,false,,,,795744.0999999642,795744,,795743.8000000119,,795756.773,8,400,,,
sequence,flow.Sequence,4_74,2023-09-16T02:13:11.519Z,,0,,,3417.1269999999786,completion,,,,,false,,,,795744.3000000119,795744,792310.16,792311.1999999881,792326.873,795756.773,8,400,,,
trial,html.Screen,4_75_0,2023-09-16T02:13:14.463Z,,0,2,,2931.3269999641925,response,ISIC_7013005.JPG,7,ISIC_0000413.JPG,ISIC_0000413.JPG,false,0,keypress(z),500,798688.3000000119,798688.0999999642,795741.101,795744.5,795756.773,798703.281,8,400,26,,ISIC_7013005.JPG
break,html.Screen,4_75_1,2023-09-16T02:13:14.464Z,,0,,,NaN,,,,,,false,,,,798689.0999999642,798688.8999999762,,798688.5999999642,,798703.281,8,400,,,
break_continue,html.Screen,4_75_2,2023-09-16T02:13:14.465Z,,0,,,NaN,,,,,,false,,,,798689.6999999881,798689.5,,798689.3000000119,,798703.281,8,400,,,
sequence,flow.Sequence,4_75,2023-09-16T02:13:14.465Z,,0,,,2932.7269999999553,completion,,,,,false,,,,798689.8000000119,798689.5,795741.101,795744.3999999762,795756.773,798703.281,8,400,,,
trial,html.Screen,4_76_0,2023-09-16T02:13:18.216Z,,0,2,,3737.818999964278,response,ISIC_4448959.JPG,10,ISIC_7339533.JPG,ISIC_4448959.JPG,false,1,keypress(m),500,802441.3999999762,802441.0999999642,798686.387,798690,798703.281,802448.562,8,400,27,,ISIC_7339533.JPG
break,html.Screen,4_76_1,2023-09-16T02:13:18.217Z,,0,,,NaN,,,,,,false,,,,802442.1999999881,802442,,802441.5999999642,,802448.562,8,400,,,
break_continue,html.Screen,4_76_2,2023-09-16T02:13:18.218Z,,0,,,NaN,,,,,,false,,,,802442.8000000119,802442.6999999881,,802442.3999999762,,802448.562,8,400,,,
sequence,flow.Sequence,4_76,2023-09-16T02:13:18.218Z,,0,,,3739.41899998812,completion,,,,,false,,,,802443,802442.6999999881,798686.387,798690,798703.281,802448.562,8,400,,,
trial,html.Screen,4_77_0,2023-09-16T02:13:23.304Z,,0,2,,5079.9379999999655,response,ISIC_2741583.JPG,11,ISIC_9100283.JPG,ISIC_9100283.JPG,false,0,keypress(z),500,807528.8000000119,807528.5,802432.115,802443.0999999642,802448.562,807542.813,8,400,28,,ISIC_2741583.JPG
break,html.Screen,4_77_1,2023-09-16T02:13:23.305Z,,0,,,NaN,,,,,,false,,,,807529.6999999881,807529.3999999762,,807529,,807542.813,8,400,,,
break_continue,html.Screen,4_77_2,2023-09-16T02:13:23.305Z,,0,,,NaN,,,,,,false,,,,807530.0999999642,807529.8999999762,,807529.6999999881,,807542.813,8,400,,,
sequence,flow.Sequence,4_77,2023-09-16T02:13:23.305Z,,0,,,5081.337999976124,completion,,,,,false,,,,807530.3000000119,807529.8999999762,802432.115,802443,802448.562,807542.813,8,400,,,
trial,html.Screen,4_78_0,2023-09-16T02:13:28.540Z,,0,2,,5221.586999976193,response,ISIC_0027247.JPG,9,ISIC_0663588.JPG,ISIC_0663588.JPG,false,0,keypress(z),500,812764.6999999881,812764.3999999762,807526.28,807530.5,807542.813,812770.073,8,400,29,,ISIC_0027247.JPG
break,html.Screen,4_78_1,2023-09-16T02:13:28.541Z,,0,,,NaN,,,,,,false,,,,812765.5999999642,812765.3999999762,,812765,,812770.073,8,400,,,
break_continue,html.Screen,4_78_2,2023-09-16T02:13:28.541Z,,0,,,NaN,,,,,,false,,,,812766.1999999881,812766,,812765.8000000119,,812770.073,8,400,,,
sequence,flow.Sequence,4_78,2023-09-16T02:13:28.541Z,,0,,,5223.1870000000345,completion,,,,,false,,,,812766.3000000119,812766,807526.28,807530.5,807542.813,812770.073,8,400,,,
trial,html.Screen,4_79_0,2023-09-16T02:13:33.071Z,,0,2,,4525.927000000025,response,ISIC_0458561.JPG,12,ISIC_4136351.JPG,ISIC_0458561.JPG,false,1,keypress(m),500,817296.1999999881,817296,812754.442,812766.5,812770.073,817315.662,8,400,30,,ISIC_4136351.JPG
break,html.Screen,4_79_1,2023-09-16T02:13:33.072Z,,0,,,NaN,,,,,,false,,,,817296.8999999762,817296.5999999642,,817296.3000000119,,817315.662,8,400,,,
break_continue,html.Screen,4_79_2,2023-09-16T02:13:33.072Z,,0,,,NaN,,,,,,false,,,,817297.5,817297.3000000119,,817297.1999999881,,817315.662,8,400,,,
sequence,flow.Sequence,4_79,2023-09-16T02:13:33.073Z,,0,,,4527.227000011946,completion,,,,,false,,,,817297.5999999642,817297.3000000119,812754.442,812766.5,812770.073,817315.662,8,400,,,
trial,html.Screen,4_80_0,2023-09-16T02:13:37.716Z,,0,2,,4625.037999988068,response,ISIC_0025355.JPG,24,ISIC_4352700.JPG,ISIC_4352700.JPG,false,0,keypress(z),500,821941,821940.6999999881,817281.903,817297.8000000119,817315.662,821965.472,8,400,31,,ISIC_0025355.JPG
break,html.Screen,4_80_1,2023-09-16T02:13:37.717Z,,0,,,NaN,,,,,,false,,,,821941.8000000119,821941.5,,821941.1999999881,,821965.472,8,400,,,
break_continue,html.Screen,4_80_2,2023-09-16T02:13:37.717Z,,0,,,NaN,,,,,,false,,,,821942,821942,,821941.8000000119,,821965.472,8,400,,,
sequence,flow.Sequence,4_80,2023-09-16T02:13:37.717Z,,0,,,4626.337999999989,completion,,,,,false,,,,821942.1999999881,821942,817281.903,817297.6999999881,817315.662,821965.472,8,400,,,
trial,html.Screen,4_81_0,2023-09-16T02:13:41.693Z,,0,2,,3951.8280000119703,response,ISIC_0238824.JPG,8,ISIC_0068176.JPG,ISIC_0068176.JPG,false,0,keypress(z),500,825917.5999999642,825917.3000000119,821926.65,821942.3000000119,821965.472,825921.615,8,400,32,,ISIC_0238824.JPG
break,html.Screen,4_81_1,2023-09-16T02:13:41.694Z,,0,,,NaN,,,,,,false,,,,825918.5,825918.1999999881,,825917.8999999762,,825921.615,8,400,,,
break_continue,html.Screen,4_81_2,2023-09-16T02:13:41.694Z,,0,,,NaN,,,,,,false,,,,825919,825918.8999999762,,825918.6999999881,,825921.615,8,400,,,
sequence,flow.Sequence,4_81,2023-09-16T02:13:41.694Z,,0,,,3953.4279999762075,completion,,,,,false,,,,825919.0999999642,825918.8999999762,821926.65,821942.3000000119,821965.472,825921.615,8,400,,,
trial,html.Screen,4_82_0,2023-09-16T02:13:45.542Z,,0,2,,3844.6850000119302,response,ISIC_2562668.JPG,2,ISIC_5519357.JPG,ISIC_2562668.JPG,false,1,keypress(m),500,829766.5999999642,829766.3000000119,825905.42,825919.3000000119,825921.615,829784.032,8,400,33,,ISIC_5519357.JPG
break,html.Screen,4_82_1,2023-09-16T02:13:45.542Z,,0,,,NaN,,,,,,false,,,,829767.3999999762,829767.0999999642,,829766.8000000119,,829784.032,8,400,,,
break_continue,html.Screen,4_82_2,2023-09-16T02:13:45.543Z,,0,,,NaN,,,,,,false,,,,829767.6999999881,829767.5999999642,,829767.5,,829784.032,8,400,,,
sequence,flow.Sequence,4_82,2023-09-16T02:13:45.543Z,,0,,,3845.9849999642465,completion,,,,,false,,,,829768,829767.5999999642,825905.42,825919.3000000119,825921.615,829784.032,8,400,,,
trial,html.Screen,4_83_0,2023-09-16T02:13:48.827Z,,0,2,,3267.5679999642307,response,ISIC_0012701.JPG,6,ISIC_0058303.JPG,ISIC_0058303.JPG,false,0,keypress(z),500,833051.8999999762,833051.5999999642,829752.141,829768,829784.032,833063.552,8,400,34,,ISIC_0012701.JPG
break,html.Screen,4_83_1,2023-09-16T02:13:48.828Z,,0,,,NaN,,,,,,false,,,,833052.8000000119,833052.5,,833052.1999999881,,833063.552,8,400,,,
break_continue,html.Screen,4_83_2,2023-09-16T02:13:48.828Z,,0,,,NaN,,,,,,false,,,,833053.1999999881,833053.0999999642,,833052.8999999762,,833063.552,8,400,,,
sequence,flow.Sequence,4_83,2023-09-16T02:13:48.828Z,,0,,,3269.0679999642307,completion,,,,,false,,,,833053.3000000119,833053.0999999642,829752.141,829768,829784.032,833063.552,8,400,,,
trial,html.Screen,4_84_0,2023-09-16T02:13:55.472Z,,0,2,,6632.847999976133,response,ISIC_9544832.JPG,24,ISIC_0069595.JPG,ISIC_0069595.JPG,false,0,keypress(z),500,839696.5999999642,839696.3999999762,833047.111,833053.5,833063.552,839723.401,8,400,35,,ISIC_9544832.JPG
break,html.Screen,4_84_1,2023-09-16T02:13:55.472Z,,0,,,NaN,,,,,,false,,,,839697.1999999881,839697.0999999642,,839696.8000000119,,839723.401,8,400,,,
break_continue,html.Screen,4_84_2,2023-09-16T02:13:55.473Z,,0,,,NaN,,,,,,false,,,,839697.5999999642,839697.3999999762,,839697.3999999762,,839723.401,8,400,,,
sequence,flow.Sequence,4_84,2023-09-16T02:13:55.473Z,,0,,,6633.847999976133,completion,,,,,false,,,,839697.6999999881,839697.3999999762,833047.111,833053.3999999762,833063.552,839723.401,8,400,,,
trial,html.Screen,4_85_0,2023-09-16T02:13:59.340Z,,0,2,,3841.698999964283,response,ISIC_8108870.JPG,15,ISIC_0065204.JPG,ISIC_0065204.JPG,false,0,keypress(z),500,843565.3000000119,843565.0999999642,839706.05,839697.8000000119,839723.401,843568.036,8,400,36,,ISIC_8108870.JPG
break,html.Screen,4_85_1,2023-09-16T02:13:59.341Z,,0,,,NaN,,,,,,false,,,,843566.0999999642,843565.8999999762,,843565.5,,843568.036,8,400,,,
break_continue,html.Screen,4_85_2,2023-09-16T02:13:59.342Z,,0,,,NaN,,,,,,false,,,,843566.5,843566.3999999762,,843566.1999999881,,843568.036,8,400,,,
sequence,flow.Sequence,4_85,2023-09-16T02:13:59.342Z,,0,,,3842.998999976204,completion,,,,,false,,,,843566.6999999881,843566.3999999762,839706.05,839697.8000000119,839723.401,843568.036,8,400,,,
trial,html.Screen,4_86_0,2023-09-16T02:14:05.606Z,,0,2,,6263.0639999642735,response,ISIC_2494956.JPG,16,ISIC_9209245.JPG,ISIC_2494956.JPG,false,1,keypress(m),500,849831.3999999762,849831.0999999642,843551.869,843566.8000000119,843568.036,849844.348,8,400,37,,ISIC_9209245.JPG
break,html.Screen,4_86_1,2023-09-16T02:14:05.607Z,,0,,,NaN,,,,,,false,,,,849832.1999999881,849831.8999999762,,849831.5,,849844.348,8,400,,,
break_continue,html.Screen,4_86_2,2023-09-16T02:14:05.607Z,,0,,,NaN,,,,,,false,,,,849832.3999999762,849832.3999999762,,849832.3000000119,,849844.348,8,400,,,
sequence,flow.Sequence,4_86,2023-09-16T02:14:05.608Z,,0,,,6264.3639999761945,completion,,,,,false,,,,849832.6999999881,849832.3999999762,843551.869,843566.8000000119,843568.036,849844.348,8,400,,,
trial,html.Screen,4_87_0,2023-09-16T02:14:08.990Z,,0,2,,3370.652000000002,response,ISIC_0003793.JPG,7,ISIC_0027113.JPG,ISIC_0027113.JPG,false,0,keypress(z),500,853215.3000000119,853215,849827.734,849832.8000000119,849844.348,853223.694,8,400,38,,ISIC_0003793.JPG
break,html.Screen,4_87_1,2023-09-16T02:14:08.991Z,,0,,,NaN,,,,,,false,,,,853216.0999999642,853215.8999999762,,853215.5,,853223.694,8,400,,,
break_continue,html.Screen,4_87_2,2023-09-16T02:14:08.992Z,,0,,,NaN,,,,,,false,,,,853216.5999999642,853216.3999999762,,853216.1999999881,,853223.694,8,400,,,
sequence,flow.Sequence,4_87,2023-09-16T02:14:08.992Z,,0,,,3372.05199997616,completion,,,,,false,,,,853216.8000000119,853216.3999999762,849827.734,849832.6999999881,849844.348,853223.694,8,400,,,
trial,html.Screen,4_88_0,2023-09-16T02:14:12.613Z,,0,2,,3614.1060000119032,response,ISIC_0063053.JPG,14,ISIC_0000487.JPG,ISIC_0000487.JPG,false,0,keypress(z),500,856838.1999999881,856837.8000000119,853207.397,853216.8000000119,853223.694,856853.359,8,400,39,,ISIC_0063053.JPG
break,html.Screen,4_88_1,2023-09-16T02:14:12.614Z,,0,,,NaN,,,,,,false,,,,856838.8999999762,856838.6999999881,,856838.3000000119,,856853.359,8,400,,,
break_continue,html.Screen,4_88_2,2023-09-16T02:14:12.614Z,,0,,,NaN,,,,,,false,,,,856839.5,856839.3999999762,,856839.0999999642,,856853.359,8,400,,,
sequence,flow.Sequence,4_88,2023-09-16T02:14:12.615Z,,0,,,3615.7059999761404,completion,,,,,false,,,,856839.5999999642,856839.3999999762,853207.397,853216.8000000119,853223.694,856853.359,8,400,,,
trial,html.Screen,4_89_0,2023-09-16T02:14:16.151Z,,0,2,,3522.441000011866,response,ISIC_6739241.JPG,10,ISIC_4307626.JPG,ISIC_4307626.JPG,false,0,keypress(z),500,860376.1999999881,860375.8000000119,856836.779,856839.6999999881,856853.359,860382.085,8,400,40,,ISIC_6739241.JPG
break,html.Screen,4_89_1,2023-09-16T02:14:16.152Z,,0,,,NaN,,,,,,false,,,,860376.8999999762,860376.6999999881,,860376.3000000119,,860382.085,8,400,,,
break_continue,html.Screen,4_89_2,2023-09-16T02:14:16.152Z,,0,,,NaN,,,,,,false,,,,860377.3999999762,860377.1999999881,,860377.0999999642,,860382.085,8,400,,,
sequence,flow.Sequence,4_89,2023-09-16T02:14:16.153Z,,0,,,3523.840999988024,completion,,,,,false,,,,860377.5,860377.1999999881,856836.779,856839.6999999881,856853.359,860382.085,8,400,,,
trial,html.Screen,4_90_0,2023-09-16T02:14:21.300Z,,0,2,,5142.314999976195,response,ISIC_2858419.JPG,25,ISIC_7161651.JPG,ISIC_7161651.JPG,false,0,keypress(z),500,865524.6999999881,865524.3999999762,860366.034,860377.5999999642,860382.085,865548.366,8,400,41,,ISIC_2858419.JPG
break,html.Screen,4_90_1,2023-09-16T02:14:21.301Z,,0,,,NaN,,,,,,false,,,,865525.5,865525.1999999881,,865524.8999999762,,865548.366,8,400,,,
break_continue,html.Screen,4_90_2,2023-09-16T02:14:21.301Z,,0,,,NaN,,,,,,false,,,,865525.8999999762,865525.8000000119,,865525.5999999642,,865548.366,8,400,,,
sequence,flow.Sequence,4_90,2023-09-16T02:14:21.301Z,,0,,,5143.715000011958,completion,,,,,false,,,,865526.0999999642,865525.8000000119,860366.034,860377.5999999642,860382.085,865548.366,8,400,,,
trial,html.Screen,4_91_0,2023-09-16T02:14:24.442Z,,0,2,,3117.9340000118827,response,ISIC_0012756.JPG,1,ISIC_0005291.JPG,ISIC_0005291.JPG,false,0,keypress(z),500,868666.6999999881,868666.3000000119,865525.235,865526.3000000119,865548.366,868672.689,8,400,42,,ISIC_0012756.JPG
break,html.Screen,4_91_1,2023-09-16T02:14:24.442Z,,0,,,NaN,,,,,,false,,,,868667.3999999762,868667.1999999881,,868666.8000000119,,868672.689,8,400,,,
break_continue,html.Screen,4_91_2,2023-09-16T02:14:24.443Z,,0,,,NaN,,,,,,false,,,,868667.8999999762,868667.6999999881,,868667.5,,868672.689,8,400,,,
sequence,flow.Sequence,4_91,2023-09-16T02:14:24.443Z,,0,,,3119.333999988041,completion,,,,,false,,,,868668,868667.6999999881,865525.235,865526.1999999881,865548.366,868672.689,8,400,,,
trial,html.Screen,4_92_0,2023-09-16T02:14:29.239Z,,0,2,,4790.710999976145,response,ISIC_0033708.JPG,13,ISIC_1343302.JPG,ISIC_1343302.JPG,false,0,keypress(z),500,873463.5999999642,873463.3999999762,868656.335,868668.0999999642,868672.689,873467.133,8,400,43,,ISIC_0033708.JPG
break,html.Screen,4_92_1,2023-09-16T02:14:29.239Z,,0,,,NaN,,,,,,false,,,,873464.3999999762,873464.1999999881,,873463.8000000119,,873467.133,8,400,,,
break_continue,html.Screen,4_92_2,2023-09-16T02:14:29.240Z,,0,,,NaN,,,,,,false,,,,873464.8000000119,873464.6999999881,,873464.5,,873467.133,8,400,,,
sequence,flow.Sequence,4_92,2023-09-16T02:14:29.240Z,,0,,,4792.010999988066,completion,,,,,false,,,,873464.8999999762,873464.6999999881,868656.335,868668.0999999642,868672.689,873467.133,8,400,,,
trial,html.Screen,4_93_0,2023-09-16T02:14:33.358Z,,0,2,,4116.066999988048,response,ISIC_0011378.JPG,6,ISIC_6777714.JPG,ISIC_0011378.JPG,false,1,keypress(m),500,877583.5,877583.1999999881,873450.95,873465,873467.133,877595.795,8,400,44,,ISIC_6777714.JPG
break,html.Screen,4_93_1,2023-09-16T02:14:33.359Z,,0,,,NaN,,,,,,false,,,,877584.3000000119,877584,,877583.6999999881,,877595.795,8,400,,,
break_continue,html.Screen,4_93_2,2023-09-16T02:14:33.360Z,,0,,,NaN,,,,,,false,,,,877584.6999999881,877584.5,,877584.3999999762,,877595.795,8,400,,,
sequence,flow.Sequence,4_93,2023-09-16T02:14:33.360Z,,0,,,4117.366999999969,completion,,,,,false,,,,877584.8000000119,877584.5,873450.95,873465,873467.133,877595.795,8,400,,,
trial,html.Screen,4_94_0,2023-09-16T02:14:38.469Z,,0,2,,5098.104999976116,response,ISIC_0025165.JPG,15,ISIC_0030725.JPG,ISIC_0025165.JPG,false,1,keypress(m),500,882694.0999999642,882693.8999999762,877579.3,877584.8999999762,877595.795,882706.874,8,400,45,,ISIC_0030725.JPG
break,html.Screen,4_94_1,2023-09-16T02:14:38.470Z,,0,,,NaN,,,,,,false,,,,882694.8000000119,882694.5999999642,,882694.1999999881,,882706.874,8,400,,,
break_continue,html.Screen,4_94_2,2023-09-16T02:14:38.470Z,,0,,,NaN,,,,,,false,,,,882695.3000000119,882695.1999999881,,882695,,882706.874,8,400,,,
sequence,flow.Sequence,4_94,2023-09-16T02:14:38.470Z,,0,,,5099.404999988037,completion,,,,,false,,,,882695.3999999762,882695.1999999881,877579.3,877584.8999999762,877595.795,882706.874,8,400,,,
trial,html.Screen,4_95_0,2023-09-16T02:14:42.586Z,,0,2,,4103.926000011968,response,ISIC_0026009.JPG,2,ISIC_0069093.JPG,ISIC_0026009.JPG,false,1,keypress(m),500,886811.0999999642,886810.8000000119,882688.528,882695.5,882706.874,886818.598,8,400,46,,ISIC_0069093.JPG
break,html.Screen,4_95_1,2023-09-16T02:14:42.587Z,,0,,,NaN,,,,,,false,,,,886811.8999999762,886811.5,,886811.1999999881,,886818.598,8,400,,,
break_continue,html.Screen,4_95_2,2023-09-16T02:14:42.587Z,,0,,,NaN,,,,,,false,,,,886812.3999999762,886812.1999999881,,886812,,886818.598,8,400,,,
sequence,flow.Sequence,4_95,2023-09-16T02:14:42.587Z,,0,,,4105.325999988127,completion,,,,,false,,,,886812.5,886812.1999999881,882688.528,882695.5,882706.874,886818.598,8,400,,,
trial,html.Screen,4_96_0,2023-09-16T02:14:46.920Z,,0,2,,4326.501999964239,response,ISIC_0033304.JPG,30,ISIC_6284312.JPG,ISIC_6284312.JPG,false,0,keypress(z),500,891145.3000000119,891145.0999999642,886802.294,886812.5999999642,886818.598,891164.331,8,400,47,,ISIC_0033304.JPG
break,html.Screen,4_96_1,2023-09-16T02:14:46.921Z,,0,,,NaN,,,,,,false,,,,891146,891145.8000000119,,891145.3999999762,,891164.331,8,400,,,
break_continue,html.Screen,4_96_2,2023-09-16T02:14:46.922Z,,0,,,NaN,,,,,,false,,,,891146.5999999642,891146.3999999762,,891146.1999999881,,891164.331,8,400,,,
sequence,flow.Sequence,4_96,2023-09-16T02:14:46.922Z,,0,,,4327.80199997616,completion,,,,,false,,,,891146.8000000119,891146.3999999762,886802.294,886812.5999999642,886818.598,891164.331,8,400,,,
trial,html.Screen,4_97_0,2023-09-16T02:14:50.019Z,,0,2,,3078.9690000119153,response,ISIC_0056271.JPG,0,ISIC_0010760.JPG,ISIC_0056271.JPG,false,1,keypress(m),500,894243.6999999881,894243.3000000119,891130.77,891146.8999999762,891164.331,894260.449,8,400,48,,ISIC_0010760.JPG
break,html.Screen,4_97_1,2023-09-16T02:14:50.019Z,,0,,,NaN,,,,,,false,,,,894244.3000000119,894244.0999999642,,894243.8000000119,,894260.449,8,400,,,
break_continue,html.Screen,4_97_2,2023-09-16T02:14:50.020Z,,0,,,NaN,,,,,,false,,,,894244.8000000119,894244.5999999642,,894244.5,,894260.449,8,400,,,
sequence,flow.Sequence,4_97,2023-09-16T02:14:50.020Z,,0,,,3080.2689999642316,completion,,,,,false,,,,894245,894244.5999999642,891130.77,891146.8999999762,891164.331,894260.449,8,400,,,
trial,html.Screen,4_98_0,2023-09-16T02:14:54.277Z,,0,2,,4241.650999964215,response,ISIC_7558912.JPG,26,ISIC_0059773.JPG,ISIC_0059773.JPG,false,0,keypress(z),500,898502.1999999881,898502.0999999642,894243.695,894245.0999999642,894260.449,898505.168,8,400,49,,ISIC_7558912.JPG
break,html.Screen,4_98_1,2023-09-16T02:14:54.278Z,,0,,,NaN,,,,,,false,,,,898503,898502.8000000119,,898502.3999999762,,898505.168,8,400,,,
break_continue,html.Screen,4_98_2,2023-09-16T02:14:54.278Z,,0,,,NaN,,,,,,false,,,,898503.3999999762,898503.3000000119,,898503.0999999642,,898505.168,8,400,,,
sequence,flow.Sequence,4_98,2023-09-16T02:14:54.279Z,,0,,,4242.851000011899,completion,,,,,false,,,,898503.5999999642,898503.3000000119,894243.695,894245.0999999642,894260.449,898505.168,8,400,,,
trial,html.Screen,4_99_0,2023-09-16T02:14:57.624Z,,0,2,,3343.132000011974,response,ISIC_0053674.JPG,13,ISIC_0437978.JPG,ISIC_0053674.JPG,false,1,keypress(m),500,901848.5999999642,901848.3000000119,898487.388,898503.8000000119,898505.168,901851.336,8,400,50,,ISIC_0437978.JPG
break,html.Screen,4_99_1,2023-09-16T02:15:07.616Z,,0,,,10005.623000000021,timeout,,,,,false,,,,911841.3999999762,911840.314,901835.161,901848.6999999881,901851.336,911856.959,8,400,,,
break_continue,html.Screen,4_99_2,2023-09-16T02:15:09.807Z,,0,,,2154.1409999642055,response,,,,,false,continue,keypress(Space),,914032.1999999881,914011.0999999642,911840.314,911841.5,911856.959,914054.059,8,400,,,
sequence,flow.Sequence,4_99,2023-09-16T02:15:09.807Z,,0,,,15505.93199996429,completion,,,,,false,,,,914032.5,914011.0999999642,898487.388,898503.6999999881,898505.168,914054.059,8,400,,,
trial,html.Screen,4_100_0,2023-09-16T02:15:14.003Z,,0,3,,4173.540999964229,response,ISIC_0033885.JPG,14,ISIC_0028755.JPG,ISIC_0033885.JPG,false,1,keypress(m),500,918228,918227.5999999642,914021.05,914032.5999999642,914054.059,918232.587,8,400,1,,ISIC_0028755.JPG
break,html.Screen,4_100_1,2023-09-16T02:15:14.004Z,,0,,,NaN,,,,,,false,,,,918228.6999999881,918228.3999999762,,918228.0999999642,,918232.587,8,400,,,
break_continue,html.Screen,4_100_2,2023-09-16T02:15:14.004Z,,0,,,NaN,,,,,,false,,,,918229.1999999881,918229,,918228.8999999762,,918232.587,8,400,,,
sequence,flow.Sequence,4_100,2023-09-16T02:15:14.004Z,,0,,,4174.940999999992,completion,,,,,false,,,,918229.3000000119,918229,914021.05,914032.5,914054.059,918232.587,8,400,,,
trial,html.Screen,4_101_0,2023-09-16T02:15:17.009Z,,0,3,,3000.8129999761004,response,ISIC_0030462.JPG,16,ISIC_0012068.JPG,ISIC_0012068.JPG,false,0,keypress(z),500,921233.6999999881,921233.3999999762,918216.019,918229.5,918232.587,921246.042,8,400,2,,ISIC_0030462.JPG
break,html.Screen,4_101_1,2023-09-16T02:15:17.010Z,,0,,,NaN,,,,,,false,,,,921234.5,921234.0999999642,,921233.8000000119,,921246.042,8,400,,,
break_continue,html.Screen,4_101_2,2023-09-16T02:15:17.010Z,,0,,,NaN,,,,,,false,,,,921235,921234.8000000119,,921234.5999999642,,921246.042,8,400,,,
sequence,flow.Sequence,4_101,2023-09-16T02:15:17.010Z,,0,,,3002.213000011863,completion,,,,,false,,,,921235.0999999642,921234.8000000119,918216.019,918229.5,918232.587,921246.042,8,400,,,
trial,html.Screen,4_102_0,2023-09-16T02:15:20.258Z,,0,3,,3236.1579999880632,response,ISIC_2565154.JPG,8,ISIC_0010251.JPG,ISIC_0010251.JPG,false,0,keypress(z),500,924482.3999999762,924482.1999999881,921229.388,921235.1999999881,921246.042,924492.165,8,400,3,,ISIC_2565154.JPG
break,html.Screen,4_102_1,2023-09-16T02:15:20.258Z,,0,,,NaN,,,,,,false,,,,924483.3000000119,924483,,924482.6999999881,,924492.165,8,400,,,
break_continue,html.Screen,4_102_2,2023-09-16T02:15:20.259Z,,0,,,NaN,,,,,,false,,,,924483.6999999881,924483.5,,924483.3999999762,,924492.165,8,400,,,
sequence,flow.Sequence,4_102,2023-09-16T02:15:20.259Z,,0,,,3237.457999999984,completion,,,,,false,,,,924483.8000000119,924483.5,921229.388,921235.1999999881,921246.042,924492.165,8,400,,,
trial,html.Screen,4_103_0,2023-09-16T02:15:23.753Z,,0,3,,3485.734999976121,response,ISIC_0054317.JPG,3,ISIC_5360921.JPG,ISIC_0054317.JPG,false,1,keypress(m),500,927978.1999999881,927977.8999999762,924475.723,924483.8999999762,924492.165,927988.027,8,400,4,,ISIC_5360921.JPG
break,html.Screen,4_103_1,2023-09-16T02:15:23.754Z,,0,,,NaN,,,,,,false,,,,927979.0999999642,927978.8000000119,,927978.5,,927988.027,8,400,,,
break_continue,html.Screen,4_103_2,2023-09-16T02:15:23.755Z,,0,,,NaN,,,,,,false,,,,927979.5999999642,927979.3000000119,,927979.1999999881,,927988.027,8,400,,,
sequence,flow.Sequence,4_103,2023-09-16T02:15:23.755Z,,0,,,3487.1350000118837,completion,,,,,false,,,,927979.5999999642,927979.3000000119,924475.723,924483.8000000119,924492.165,927988.027,8,400,,,
trial,html.Screen,4_104_0,2023-09-16T02:15:27.532Z,,0,3,,3768.172999988077,response,ISIC_0029094.JPG,1,ISIC_9860895.JPG,ISIC_0029094.JPG,false,1,keypress(m),500,931756.5999999642,931756.1999999881,927971.478,927979.8000000119,927988.027,931767.152,8,400,5,,ISIC_9860895.JPG
break,html.Screen,4_104_1,2023-09-16T02:15:27.532Z,,0,,,NaN,,,,,,false,,,,931757.3999999762,931757.0999999642,,931756.8999999762,,931767.152,8,400,,,
break_continue,html.Screen,4_104_2,2023-09-16T02:15:27.533Z,,0,,,NaN,,,,,,false,,,,931757.8000000119,931757.6999999881,,931757.5,,931767.152,8,400,,,
sequence,flow.Sequence,4_104,2023-09-16T02:15:27.533Z,,0,,,3769.672999988077,completion,,,,,false,,,,931758,931757.6999999881,927971.478,927979.8000000119,927988.027,931767.152,8,400,,,
trial,html.Screen,4_105_0,2023-09-16T02:15:31.072Z,,0,3,,3529.347999999998,response,ISIC_0789732.JPG,12,ISIC_2431690.JPG,ISIC_2431690.JPG,false,0,keypress(z),500,935296.8000000119,935296.5,931750.539,931758.1999999881,931767.152,935313.414,8,400,6,,ISIC_0789732.JPG
break,html.Screen,4_105_1,2023-09-16T02:15:31.073Z,,0,,,NaN,,,,,,false,,,,935297.5999999642,935297.3000000119,,935297,,935313.414,8,400,,,
break_continue,html.Screen,4_105_2,2023-09-16T02:15:31.073Z,,0,,,NaN,,,,,,false,,,,935298.0999999642,935298,,935297.6999999881,,935313.414,8,400,,,
sequence,flow.Sequence,4_105,2023-09-16T02:15:31.073Z,,0,,,3530.847999999998,completion,,,,,false,,,,935298.3000000119,935298,931750.539,931758.0999999642,931767.152,935313.414,8,400,,,
trial,html.Screen,4_106_0,2023-09-16T02:15:35.658Z,,0,3,,4569.285999988089,response,ISIC_7732765.JPG,8,ISIC_0025327.JPG,ISIC_0025327.JPG,false,0,keypress(z),500,939882.8999999762,939882.6999999881,935296.69,935298.3999999762,935313.414,939891.316,8,400,7,,ISIC_7732765.JPG
break,html.Screen,4_106_1,2023-09-16T02:15:35.659Z,,0,,,NaN,,,,,,false,,,,939883.6999999881,939883.5,,939883.0999999642,,939891.316,8,400,,,
break_continue,html.Screen,4_106_2,2023-09-16T02:15:35.659Z,,0,,,NaN,,,,,,false,,,,939884.1999999881,939884.0999999642,,939883.8999999762,,939891.316,8,400,,,
sequence,flow.Sequence,4_106,2023-09-16T02:15:35.659Z,,0,,,4570.6859999642475,completion,,,,,false,,,,939884.3999999762,939884.0999999642,935296.69,935298.3999999762,935313.414,939891.316,8,400,,,
trial,html.Screen,4_107_0,2023-09-16T02:15:41.788Z,,0,3,,6121.0839999761665,response,ISIC_8222254.JPG,14,ISIC_0072507.JPG,ISIC_0072507.JPG,false,0,keypress(z),500,946012.6999999881,946012.3999999762,939874.876,939884.5,939891.316,946017.376,8,400,8,,ISIC_8222254.JPG
break,html.Screen,4_107_1,2023-09-16T02:15:41.789Z,,0,,,NaN,,,,,,false,,,,946013.5999999642,946013.3999999762,,946012.8999999762,,946017.376,8,400,,,
break_continue,html.Screen,4_107_2,2023-09-16T02:15:41.789Z,,0,,,NaN,,,,,,false,,,,946014,946013.8999999762,,946013.6999999881,,946017.376,8,400,,,
sequence,flow.Sequence,4_107,2023-09-16T02:15:41.789Z,,0,,,6122.5839999761665,completion,,,,,false,,,,946014.0999999642,946013.8999999762,939874.876,939884.5,939891.316,946017.376,8,400,,,
trial,html.Screen,4_108_0,2023-09-16T02:15:45.107Z,,0,3,,3313.9240000118734,response,ISIC_7935007.JPG,13,ISIC_6020636.JPG,ISIC_7935007.JPG,false,1,keypress(m),500,949331.5999999642,949331.3000000119,946001.28,946014.3000000119,946017.376,949347.515,8,400,9,,ISIC_6020636.JPG
break,html.Screen,4_108_1,2023-09-16T02:15:45.107Z,,0,,,NaN,,,,,,false,,,,949332.3999999762,949332.0999999642,,949331.8000000119,,949347.515,8,400,,,
break_continue,html.Screen,4_108_2,2023-09-16T02:15:45.108Z,,0,,,NaN,,,,,,false,,,,949332.8000000119,949332.5999999642,,949332.5,,949347.515,8,400,,,
sequence,flow.Sequence,4_108,2023-09-16T02:15:45.108Z,,0,,,3315.2239999641897,completion,,,,,false,,,,949333,949332.5999999642,946001.28,946014.1999999881,946017.376,949347.515,8,400,,,
trial,html.Screen,4_109_0,2023-09-16T02:15:50.918Z,,0,3,,5795.084999964223,response,ISIC_0014434.JPG,29,ISIC_0028029.JPG,ISIC_0028029.JPG,false,0,keypress(z),500,955142.8000000119,955142.5999999642,949330.905,949333,949347.515,955157.581,8,400,10,,ISIC_0014434.JPG
break,html.Screen,4_109_1,2023-09-16T02:15:50.919Z,,0,,,NaN,,,,,,false,,,,955143.6999999881,955143.3999999762,,955143.0999999642,,955157.581,8,400,,,
break_continue,html.Screen,4_109_2,2023-09-16T02:15:50.919Z,,0,,,NaN,,,,,,false,,,,955144,955143.8999999762,,955143.6999999881,,955157.581,8,400,,,
sequence,flow.Sequence,4_109,2023-09-16T02:15:50.919Z,,0,,,5796.384999976144,completion,,,,,false,,,,955144.1999999881,955143.8999999762,949330.905,949333,949347.515,955157.581,8,400,,,
trial,html.Screen,4_110_0,2023-09-16T02:15:55.950Z,,0,3,,5017.418999999994,response,ISIC_2203239.JPG,11,ISIC_0032357.JPG,ISIC_2203239.JPG,false,1,keypress(m),500,960175.3999999762,960175,955140.754,955144.3000000119,955157.581,960184.547,8,400,11,,ISIC_0032357.JPG
break,html.Screen,4_110_1,2023-09-16T02:15:55.951Z,,0,,,NaN,,,,,,false,,,,960176.0999999642,960175.8999999762,,960175.5,,960184.547,8,400,,,
break_continue,html.Screen,4_110_2,2023-09-16T02:15:55.952Z,,0,,,NaN,,,,,,false,,,,960176.5999999642,960176.3999999762,,960176.3000000119,,960184.547,8,400,,,
sequence,flow.Sequence,4_110,2023-09-16T02:15:55.952Z,,0,,,5018.818999976153,completion,,,,,false,,,,960176.6999999881,960176.3999999762,955140.754,955144.1999999881,955157.581,960184.547,8,400,,,
trial,html.Screen,4_111_0,2023-09-16T02:15:58.822Z,,0,3,,2862.1529999880586,response,ISIC_0032736.JPG,12,ISIC_0982855.JPG,ISIC_0032736.JPG,false,1,keypress(m),500,963047,963046.6999999881,960168.143,960176.8000000119,960184.547,963064.69,8,400,12,,ISIC_0982855.JPG
break,html.Screen,4_111_1,2023-09-16T02:15:58.823Z,,0,,,NaN,,,,,,false,,,,963047.8000000119,963047.3999999762,,963047.0999999642,,963064.69,8,400,,,
break_continue,html.Screen,4_111_2,2023-09-16T02:15:58.823Z,,0,,,NaN,,,,,,false,,,,963048.1999999881,963048.0999999642,,963047.8999999762,,963064.69,8,400,,,
sequence,flow.Sequence,4_111,2023-09-16T02:15:58.823Z,,0,,,2863.5529999642167,completion,,,,,false,,,,963048.3999999762,963048.0999999642,960168.143,960176.6999999881,960184.547,963064.69,8,400,,,
trial,html.Screen,4_112_0,2023-09-16T02:16:04.070Z,,0,3,,5229.610000011977,response,ISIC_8355344.JPG,10,ISIC_8812781.JPG,ISIC_8812781.JPG,false,0,keypress(z),500,968294.5999999642,968294.3000000119,963031.567,963048.5,963064.69,968309.48,8,400,13,,ISIC_8355344.JPG
break,html.Screen,4_112_1,2023-09-16T02:16:04.070Z,,0,,,NaN,,,,,,false,,,,968295.3999999762,968295.0999999642,,968294.8000000119,,968309.48,8,400,,,
break_continue,html.Screen,4_112_2,2023-09-16T02:16:04.071Z,,0,,,NaN,,,,,,false,,,,968296,968295.8000000119,,968295.5999999642,,968309.48,8,400,,,
sequence,flow.Sequence,4_112,2023-09-16T02:16:04.071Z,,0,,,5231.110000011977,completion,,,,,false,,,,968296,968295.8000000119,963031.567,963048.3999999762,963064.69,968309.48,8,400,,,
trial,html.Screen,4_113_0,2023-09-16T02:16:07.928Z,,0,3,,3843.2199999880977,response,ISIC_6250970.JPG,7,ISIC_0031598.JPG,ISIC_0031598.JPG,false,0,keypress(z),500,972153.0999999642,972152.6999999881,968292.32,968296.0999999642,968309.48,972171.034,8,400,14,,ISIC_6250970.JPG
break,html.Screen,4_113_1,2023-09-16T02:16:07.929Z,,0,,,NaN,,,,,,false,,,,972153.8999999762,972153.5999999642,,972153.3999999762,,972171.034,8,400,,,
break_continue,html.Screen,4_113_2,2023-09-16T02:16:07.930Z,,0,,,NaN,,,,,,false,,,,972154.5,972154.3999999762,,972154.1999999881,,972171.034,8,400,,,
sequence,flow.Sequence,4_113,2023-09-16T02:16:07.930Z,,0,,,3844.9199999761768,completion,,,,,false,,,,972154.6999999881,972154.3999999762,968292.32,968296.0999999642,968309.48,972171.034,8,400,,,
trial,html.Screen,4_114_0,2023-09-16T02:16:11.099Z,,0,3,,3152.966000000015,response,ISIC_9939963.JPG,26,ISIC_9227392.JPG,ISIC_9939963.JPG,false,1,keypress(m),500,975324.3000000119,975324,972138.032,972154.6999999881,972171.034,975333.905,8,400,15,,ISIC_9227392.JPG
break,html.Screen,4_114_1,2023-09-16T02:16:11.100Z,,0,,,NaN,,,,,,false,,,,975325.0999999642,975324.8000000119,,975324.3999999762,,975333.905,8,400,,,
break_continue,html.Screen,4_114_2,2023-09-16T02:16:11.101Z,,0,,,NaN,,,,,,false,,,,975325.5,975325.3999999762,,975325.1999999881,,975333.905,8,400,,,
sequence,flow.Sequence,4_114,2023-09-16T02:16:11.101Z,,0,,,3154.365999976173,completion,,,,,false,,,,975325.5999999642,975325.3999999762,972138.032,972154.6999999881,972171.034,975333.905,8,400,,,
trial,html.Screen,4_115_0,2023-09-16T02:16:14.392Z,,0,3,,3282.794999988051,response,ISIC_0294687.JPG,12,ISIC_0071111.JPG,ISIC_0071111.JPG,false,0,keypress(z),500,978617.0999999642,978616.6999999881,975317.555,975325.6999999881,975333.905,978630.557,8,400,16,,ISIC_0294687.JPG
break,html.Screen,4_115_1,2023-09-16T02:16:14.393Z,,0,,,NaN,,,,,,false,,,,978617.8000000119,978617.5,,978617.3000000119,,978630.557,8,400,,,
break_continue,html.Screen,4_115_2,2023-09-16T02:16:14.393Z,,0,,,NaN,,,,,,false,,,,978618.1999999881,978618,,978618,,978630.557,8,400,,,
sequence,flow.Sequence,4_115,2023-09-16T02:16:14.393Z,,0,,,3284.094999999972,completion,,,,,false,,,,978618.3999999762,978618,975317.555,975325.6999999881,975333.905,978630.557,8,400,,,
trial,html.Screen,4_116_0,2023-09-16T02:16:18.137Z,,0,3,,3730.94299999997,response,ISIC_0056603.JPG,9,ISIC_2377039.JPG,ISIC_0056603.JPG,false,1,keypress(m),500,982361.8000000119,982361.5,978613.955,978618.5,978630.557,982376.731,8,400,17,,ISIC_2377039.JPG
break,html.Screen,4_116_1,2023-09-16T02:16:18.138Z,,0,,,NaN,,,,,,false,,,,982362.5999999642,982362.3999999762,,982362.0999999642,,982376.731,8,400,,,
break_continue,html.Screen,4_116_2,2023-09-16T02:16:18.138Z,,0,,,NaN,,,,,,false,,,,982363,982362.8999999762,,982362.6999999881,,982376.731,8,400,,,
sequence,flow.Sequence,4_116,2023-09-16T02:16:18.138Z,,0,,,3732.3429999761283,completion,,,,,false,,,,982363.1999999881,982362.8999999762,978613.955,978618.5,978630.557,982376.731,8,400,,,
trial,html.Screen,4_117_0,2023-09-16T02:16:21.687Z,,0,3,,3534.569000011892,response,ISIC_0024323.JPG,9,ISIC_7336383.JPG,ISIC_0024323.JPG,false,1,keypress(m),500,985911.5999999642,985911.3000000119,982359.524,982363.3000000119,982376.731,985921.676,8,400,18,,ISIC_7336383.JPG
break,html.Screen,4_117_1,2023-09-16T02:16:21.687Z,,0,,,NaN,,,,,,false,,,,985912.3999999762,985912.0999999642,,985911.6999999881,,985921.676,8,400,,,
break_continue,html.Screen,4_117_2,2023-09-16T02:16:21.688Z,,0,,,NaN,,,,,,false,,,,985912.8999999762,985912.6999999881,,985912.5,,985921.676,8,400,,,
sequence,flow.Sequence,4_117,2023-09-16T02:16:21.688Z,,0,,,3535.96899998805,completion,,,,,false,,,,985913,985912.6999999881,982359.524,982363.3000000119,982376.731,985921.676,8,400,,,
trial,html.Screen,4_118_0,2023-09-16T02:16:26.364Z,,0,3,,4667.124000011943,response,ISIC_0069515.JPG,15,ISIC_8354042.JPG,ISIC_0069515.JPG,false,1,keypress(m),500,990589,990588.8000000119,985905.236,985913.1999999881,985921.676,990599.81,8,400,19,,ISIC_8354042.JPG
break,html.Screen,4_118_1,2023-09-16T02:16:26.365Z,,0,,,NaN,,,,,,false,,,,990589.8000000119,990589.5,,990589.1999999881,,990599.81,8,400,,,
break_continue,html.Screen,4_118_2,2023-09-16T02:16:26.365Z,,0,,,NaN,,,,,,false,,,,990590.0999999642,990590,,990589.8999999762,,990599.81,8,400,,,
sequence,flow.Sequence,4_118,2023-09-16T02:16:26.365Z,,0,,,4668.324000000022,completion,,,,,false,,,,990590.3000000119,990590,985905.236,985913.0999999642,985921.676,990599.81,8,400,,,
trial,html.Screen,4_119_0,2023-09-16T02:16:29.962Z,,0,3,,3587.2899999641813,response,ISIC_0519386.JPG,7,ISIC_0046429.JPG,ISIC_0046429.JPG,false,0,keypress(z),500,994187.5,994187.0999999642,990583.497,990590.3999999762,990599.81,994195.597,8,400,20,,ISIC_0519386.JPG
break,html.Screen,4_119_1,2023-09-16T02:16:29.963Z,,0,,,NaN,,,,,,false,,,,994188.1999999881,994188,,994187.5999999642,,994195.597,8,400,,,
break_continue,html.Screen,4_119_2,2023-09-16T02:16:29.964Z,,0,,,NaN,,,,,,false,,,,994188.6999999881,994188.5,,994188.3999999762,,994195.597,8,400,,,
sequence,flow.Sequence,4_119,2023-09-16T02:16:29.964Z,,0,,,3588.689999999944,completion,,,,,false,,,,994188.8000000119,994188.5,990583.497,990590.3999999762,990599.81,994195.597,8,400,,,
trial,html.Screen,4_120_0,2023-09-16T02:16:33.733Z,,0,3,,3762.2030000119703,response,ISIC_0024701.JPG,22,ISIC_0071809.JPG,ISIC_0024701.JPG,false,1,keypress(m),500,997958.0999999642,997957.8000000119,994180.035,994188.8999999762,994195.597,997975.015,8,400,21,,ISIC_0071809.JPG
break,html.Screen,4_120_1,2023-09-16T02:16:33.734Z,,0,,,NaN,,,,,,false,,,,997958.8999999762,997958.5999999642,,997958.3000000119,,997975.015,8,400,,,
break_continue,html.Screen,4_120_2,2023-09-16T02:16:33.734Z,,0,,,NaN,,,,,,false,,,,997959.3999999762,997959.3000000119,,997959.0999999642,,997975.015,8,400,,,
sequence,flow.Sequence,4_120,2023-09-16T02:16:33.735Z,,0,,,3763.7030000119703,completion,,,,,false,,,,997959.5,997959.3000000119,994180.035,994188.8999999762,994195.597,997975.015,8,400,,,
trial,html.Screen,4_121_0,2023-09-16T02:16:37.199Z,,0,3,,3448.484999999986,response,ISIC_8139762.JPG,6,ISIC_6717727.JPG,ISIC_6717727.JPG,false,0,keypress(z),500,1001423.8000000119,1001423.5,997958.446,997959.6999999881,997975.015,1001437.526,8,400,22,,ISIC_8139762.JPG
break,html.Screen,4_121_1,2023-09-16T02:16:37.200Z,,0,,,NaN,,,,,,false,,,,1001424.5999999642,1001424.3999999762,,1001424,,1001437.526,8,400,,,
break_continue,html.Screen,4_121_2,2023-09-16T02:16:37.200Z,,0,,,NaN,,,,,,false,,,,1001425.0999999642,1001424.8999999762,,1001424.6999999881,,1001437.526,8,400,,,
sequence,flow.Sequence,4_121,2023-09-16T02:16:37.200Z,,0,,,3449.884999976144,completion,,,,,false,,,,1001425.1999999881,1001424.8999999762,997958.446,997959.6999999881,997975.015,1001437.526,8,400,,,
trial,html.Screen,4_122_0,2023-09-16T02:16:40.854Z,,0,3,,3640.9740000000456,response,ISIC_9648812.JPG,2,ISIC_2161819.JPG,ISIC_9648812.JPG,false,1,keypress(m),500,1005078.8000000119,1005078.5,1001421.216,1001425.3000000119,1001437.526,1005083.11,8,400,23,,ISIC_2161819.JPG
break,html.Screen,4_122_1,2023-09-16T02:16:40.855Z,,0,,,NaN,,,,,,false,,,,1005079.5999999642,1005079.3000000119,,1005078.8999999762,,1005083.11,8,400,,,
break_continue,html.Screen,4_122_2,2023-09-16T02:16:40.855Z,,0,,,NaN,,,,,,false,,,,1005080,1005079.8999999762,,1005079.6999999881,,1005083.11,8,400,,,
sequence,flow.Sequence,4_122,2023-09-16T02:16:40.855Z,,0,,,3642.373999976204,completion,,,,,false,,,,1005080.1999999881,1005079.8999999762,1001421.216,1001425.3000000119,1001437.526,1005083.11,8,400,,,
trial,html.Screen,4_123_0,2023-09-16T02:16:45.377Z,,0,3,,4519.089999988093,response,ISIC_0024527.JPG,15,ISIC_0026595.JPG,ISIC_0026595.JPG,false,0,keypress(z),500,1009602.3999999762,1009602.1999999881,1005066.956,1005080.3000000119,1005083.11,1009611.205,8,400,24,,ISIC_0024527.JPG
break,html.Screen,4_123_1,2023-09-16T02:16:45.378Z,,0,,,NaN,,,,,,false,,,,1009603.1999999881,1009602.8000000119,,1009602.5,,1009611.205,8,400,,,
break_continue,html.Screen,4_123_2,2023-09-16T02:16:45.379Z,,0,,,NaN,,,,,,false,,,,1009603.5999999642,1009603.5,,1009603.1999999881,,1009611.205,8,400,,,
sequence,flow.Sequence,4_123,2023-09-16T02:16:45.379Z,,0,,,4520.390000000014,completion,,,,,false,,,,1009603.8000000119,1009603.5,1005066.956,1005080.3000000119,1005083.11,1009611.205,8,400,,,
trial,html.Screen,4_124_0,2023-09-16T02:16:48.971Z,,0,3,,3584.394999964279,response,ISIC_4734111.JPG,1,ISIC_0033454.JPG,ISIC_0033454.JPG,false,0,keypress(z),500,1013195.8999999762,1013195.5999999642,1009595.112,1009603.8000000119,1009611.205,1013207.184,8,400,25,,ISIC_4734111.JPG
break,html.Screen,4_124_1,2023-09-16T02:16:48.972Z,,0,,,NaN,,,,,,false,,,,1013196.5999999642,1013196.3000000119,,1013196,,1013207.184,8,400,,,
break_continue,html.Screen,4_124_2,2023-09-16T02:16:48.972Z,,0,,,NaN,,,,,,false,,,,1013197.0999999642,1013197,,1013196.6999999881,,1013207.184,8,400,,,
sequence,flow.Sequence,4_124,2023-09-16T02:16:48.972Z,,0,,,3585.795000000042,completion,,,,,false,,,,1013197.3000000119,1013197,1009595.112,1009603.8000000119,1009611.205,1013207.184,8,400,,,
trial,html.Screen,4_125_0,2023-09-16T02:16:52.130Z,,0,3,,3147.8159999999916,response,ISIC_2887355.JPG,27,ISIC_9302863.JPG,ISIC_9302863.JPG,false,0,keypress(z),500,1016355.3000000119,1016355,1013190.912,1013197.3999999762,1013207.184,1016370.742,8,400,26,,ISIC_2887355.JPG
break,html.Screen,4_125_1,2023-09-16T02:16:52.131Z,,0,,,NaN,,,,,,false,,,,1016356.0999999642,1016355.8000000119,,1016355.3999999762,,1016370.742,8,400,,,
break_continue,html.Screen,4_125_2,2023-09-16T02:16:52.132Z,,0,,,NaN,,,,,,false,,,,1016356.5999999642,1016356.3999999762,,1016356.1999999881,,1016370.742,8,400,,,
sequence,flow.Sequence,4_125,2023-09-16T02:16:52.132Z,,0,,,3149.2159999761498,completion,,,,,false,,,,1016356.6999999881,1016356.3999999762,1013190.912,1013197.3999999762,1013207.184,1016370.742,8,400,,,
