sender,sender_type,sender_id,timestamp,meta,,blockNo,condition,duration,ended_on,img_left,img_reveal,img_right,loser,practice,response,response_action,selection_duration,time_commit,time_end,time_render,time_run,time_show,time_switch,total_blocks,total_trials,trialNo,url,winner
informed_consent,html.Screen,0,2023-09-08T19:47:36.391Z,"{""labjs_version"":""20.2.4"",""labjs_build"":{""flavor"":""production"",""commit"":""f5b4a49f956347addd546a832a3327688c2c0fef""},""location"":""https://run.pavlovia.org/MurrayBennett/melanoma-2afc/?participant=58b2338a898c2e0001a5ca56&STUDY_ID=64f8c92207ba404bcb356c90&SESSION_ID=64fb7a0cb7736659fc971760&platform=prolific"",""userAgent"":""Mozilla/5.0 (X11; Ubuntu; Linux x86_64; rv:109.0) Gecko/20100101 Firefox/117.0"",""platform"":""Linux x86_64"",""language"":""en-US"",""locale"":""en-US"",""timeZone"":""Etc/GMT+7"",""timezoneOffset"":420,""screen_width"":1600,""screen_height"":900,""scroll_width"":1380,""scroll_height"":701,""window_innerWidth"":1380,""window_innerHeight"":749,""devicePixelRatio"":1}",,,,56850.5,response,,,,,,consent,click button,,67029,67019,8157.8,7180,10168.5,67053.12,,,,"{""participant"":""58b2338a898c2e0001a5ca56"",""STUDY_ID"":""64f8c92207ba404bcb356c90"",""SESSION_ID"":""64fb7a0cb7736659fc971760"",""platform"":""prolific""}",
Welcome,html.Screen,1,2023-09-08T19:48:22.847Z,,,,asymmetry,46418.880000000005,response,,,,,,continue,click button,,113484,113472,67021.3,67032,67053.12,113491.14,,,,,
trial,html.Screen,2_0_0,2023-09-08T19:48:30.512Z,,0,0,,7657.860000000001,response,ISIC_6997061.JPG,,ISIC_0069348.JPG,ISIC_6997061.JPG,true,1,keypress(m),500,121150,121149,113475.34,113487,113491.14,121179.2,1,6,1,,ISIC_0069348.JPG
sequence,flow.Sequence,2_0,2023-09-08T19:48:30.514Z,,0,,,7657.860000000001,completion,,,,,true,,,,121152,121149,113475.34,113487,113491.14,121179.2,1,6,,,
trial,html.Screen,2_1_0,2023-09-08T19:48:35.890Z,,0,0,,5347.800000000003,response,ISIC_0009529.JPG,,ISIC_0057368.JPG,ISIC_0009529.JPG,true,1,keypress(m),500,126529,126527,121163.06,121152,121179.2,126556.04,1,6,2,,ISIC_0057368.JPG
sequence,flow.Sequence,2_1,2023-09-08T19:48:35.891Z,,0,,,5347.800000000003,completion,,,,,true,,,,126530,126527,121163.06,121152,121179.2,126556.04,1,6,,,
trial,html.Screen,2_2_0,2023-09-08T19:48:40.226Z,,0,0,,4306.960000000006,response,ISIC_9758671.JPG,,ISIC_0064954.JPG,ISIC_0064954.JPG,true,0,keypress(z),500,130864,130863,126538.96,126530,126556.04,130868.14,1,6,3,,ISIC_9758671.JPG
sequence,flow.Sequence,2_2,2023-09-08T19:48:40.228Z,,0,,,4306.960000000006,completion,,,,,true,,,,130866,130863,126538.96,126530,126556.04,130868.14,1,6,,,
trial,html.Screen,2_3_0,2023-09-08T19:48:44.231Z,,0,0,,3999.8600000000006,response,ISIC_0000080.JPG,,ISIC_0005785.JPG,ISIC_0000080.JPG,true,1,keypress(m),500,134869,134868,130867.48,130867,130868.14,134871.62,1,6,4,,ISIC_0005785.JPG
sequence,flow.Sequence,2_3,2023-09-08T19:48:44.232Z,,0,,,3999.8600000000006,completion,,,,,true,,,,134870,134868,130867.48,130867,130868.14,134871.62,1,6,,,
trial,html.Screen,2_4_0,2023-09-08T19:48:47.897Z,,0,0,,3660.3800000000047,response,ISIC_7944028.JPG,,ISIC_5390060.JPG,ISIC_7944028.JPG,true,1,keypress(m),500,138535,138532,134871.18,134871,134871.62,138537.24,1,6,5,,ISIC_5390060.JPG
sequence,flow.Sequence,2_4,2023-09-08T19:48:47.898Z,,0,,,3660.3800000000047,completion,,,,,true,,,,138536,138532,134871.18,134871,134871.62,138537.24,1,6,,,
trial,html.Screen,2_5_0,2023-09-08T19:48:50.767Z,,0,0,,2866.7600000000093,response,ISIC_0794216.JPG,,ISIC_0010188.JPG,ISIC_0794216.JPG,true,1,keypress(m),500,141405,141404,138536.86,138537,138537.24,141407.98,1,6,6,,ISIC_0010188.JPG
sequence,flow.Sequence,2_5,2023-09-08T19:48:50.768Z,,0,,,2866.7600000000093,completion,,,,,true,,,,141406,141404,138536.86,138537,138537.24,141407.98,1,6,,,
loop,flow.Loop,2,2023-09-08T19:48:50.769Z,,,,,27912.86,completion,,,,,true,,,,141407,141404,113475.34,113487,113491.14,141407.98,1,6,,,
exp_instructions,html.Screen,3,2023-09-08T19:48:55.696Z,,,,,4923.0199999999895,response,,,,,,continue,keypress(Space),,146333,146331,141407.58,141408,141407.98,146335.24,,,,,
trial,html.Screen,4_0_0,2023-09-08T19:48:59.367Z,,0,1,,3668.7600000000093,response,ISIC_5364330.JPG,15,ISIC_0031800.JPG,ISIC_5364330.JPG,false,1,keypress(m),500,150005,150004,146334.9,146335,146335.24,150006.88,8,400,1,,ISIC_0031800.JPG
break,html.Screen,4_0_1,2023-09-08T19:48:59.371Z,,0,,,NaN,,,,,,false,,,,150009,150008,,150006,,150006.88,8,400,,,
break_continue,html.Screen,4_0_2,2023-09-08T19:48:59.374Z,,0,,,NaN,,,,,,false,,,,150012,150011,,150010,,150006.88,8,400,,,
sequence,flow.Sequence,4_0,2023-09-08T19:48:59.375Z,,0,,,3675.7600000000093,completion,,,,,false,,,,150013,150011,146334.9,146335,146335.24,150006.88,8,400,,,
trial,html.Screen,4_1_0,2023-09-08T19:49:02.529Z,,0,1,,3159.1199999999953,response,ISIC_8709211.JPG,7,ISIC_4804158.JPG,ISIC_4804158.JPG,false,0,keypress(z),500,153166,153166,150006.34,150013,150006.88,153167.84,8,400,2,,ISIC_8709211.JPG
break,html.Screen,4_1_1,2023-09-08T19:49:02.531Z,,0,,,NaN,,,,,,false,,,,153169,153168,,153167,,153167.84,8,400,,,
break_continue,html.Screen,4_1_2,2023-09-08T19:49:02.533Z,,0,,,NaN,,,,,,false,,,,153171,153170,,153169,,153167.84,8,400,,,
sequence,flow.Sequence,4_1,2023-09-08T19:49:02.534Z,,0,,,3163.1199999999953,completion,,,,,false,,,,153172,153170,150006.34,150013,150006.88,153167.84,8,400,,,
trial,html.Screen,4_2_0,2023-09-08T19:49:05.610Z,,0,1,,3078.1600000000035,response,ISIC_0024410.JPG,1,ISIC_0068886.JPG,ISIC_0024410.JPG,false,1,keypress(m),500,156248,156246,153167.42,153173,153167.84,156248.82,8,400,3,,ISIC_0068886.JPG
break,html.Screen,4_2_1,2023-09-08T19:49:05.612Z,,0,,,NaN,,,,,,false,,,,156251,156249,,156249,,156248.82,8,400,,,
break_continue,html.Screen,4_2_2,2023-09-08T19:49:05.615Z,,0,,,NaN,,,,,,false,,,,156253,156252,,156252,,156248.82,8,400,,,
sequence,flow.Sequence,4_2,2023-09-08T19:49:05.616Z,,0,,,3084.1600000000035,completion,,,,,false,,,,156255,156252,153167.42,153173,153167.84,156248.82,8,400,,,
trial,html.Screen,4_3_0,2023-09-08T19:49:08.940Z,,0,1,,3329.179999999993,response,ISIC_0011516.JPG,0,ISIC_8659639.JPG,ISIC_0011516.JPG,false,1,keypress(m),500,159578,159578,156248.44,156255,156248.82,159579.12,8,400,4,,ISIC_8659639.JPG
break,html.Screen,4_3_1,2023-09-08T19:49:08.943Z,,0,,,NaN,,,,,,false,,,,159581,159580,,159579,,159579.12,8,400,,,
break_continue,html.Screen,4_3_2,2023-09-08T19:49:08.944Z,,0,,,NaN,,,,,,false,,,,159582,159581,,159581,,159579.12,8,400,,,
sequence,flow.Sequence,4_3,2023-09-08T19:49:08.946Z,,0,,,3332.179999999993,completion,,,,,false,,,,159583,159581,156248.44,156255,156248.82,159579.12,8,400,,,
trial,html.Screen,4_4_0,2023-09-08T19:49:12.120Z,,0,1,,3177.8800000000047,response,ISIC_9572761.JPG,1,ISIC_8752021.JPG,ISIC_8752021.JPG,false,0,keypress(z),500,162758,162757,159578.82,159584,159579.12,162758.92,8,400,5,,ISIC_9572761.JPG
break,html.Screen,4_4_1,2023-09-08T19:49:12.122Z,,0,,,NaN,,,,,,false,,,,162760,162759,,162759,,162758.92,8,400,,,
break_continue,html.Screen,4_4_2,2023-09-08T19:49:12.124Z,,0,,,NaN,,,,,,false,,,,162762,162761,,162761,,162758.92,8,400,,,
sequence,flow.Sequence,4_4,2023-09-08T19:49:12.125Z,,0,,,3181.8800000000047,completion,,,,,false,,,,162762,162761,159578.82,159584,159579.12,162758.92,8,400,,,
trial,html.Screen,4_5_0,2023-09-08T19:49:15.707Z,,0,1,,3585.079999999987,response,ISIC_4921413.JPG,3,ISIC_4659355.JPG,ISIC_4921413.JPG,false,1,keypress(m),500,166344,166344,162758.54,162763,162758.92,166346.1,8,400,6,,ISIC_4659355.JPG
break,html.Screen,4_5_1,2023-09-08T19:49:15.710Z,,0,,,NaN,,,,,,false,,,,166347,166346,,166345,,166346.1,8,400,,,
break_continue,html.Screen,4_5_2,2023-09-08T19:49:15.711Z,,0,,,NaN,,,,,,false,,,,166348,166348,,166347,,166346.1,8,400,,,
sequence,flow.Sequence,4_5,2023-09-08T19:49:15.712Z,,0,,,3589.079999999987,completion,,,,,false,,,,166349,166348,162758.54,162763,162758.92,166346.1,8,400,,,
trial,html.Screen,4_6_0,2023-09-08T19:49:18.983Z,,0,1,,3273.899999999994,response,ISIC_0055311.JPG,4,ISIC_6463417.JPG,ISIC_6463417.JPG,false,0,keypress(z),500,169621,169620,166345.56,166349,166346.1,169621.86,8,400,7,,ISIC_0055311.JPG
break,html.Screen,4_6_1,2023-09-08T19:49:18.986Z,,0,,,NaN,,,,,,false,,,,169623,169622,,169622,,169621.86,8,400,,,
break_continue,html.Screen,4_6_2,2023-09-08T19:49:18.988Z,,0,,,NaN,,,,,,false,,,,169625,169624,,169624,,169621.86,8,400,,,
sequence,flow.Sequence,4_6,2023-09-08T19:49:18.988Z,,0,,,3277.899999999994,completion,,,,,false,,,,169626,169624,166345.56,166349,166346.1,169621.86,8,400,,,
trial,html.Screen,4_7_0,2023-09-08T19:49:22.639Z,,0,1,,3653.140000000014,response,ISIC_0054851.JPG,3,ISIC_8483458.JPG,ISIC_8483458.JPG,false,0,keypress(z),500,173276,173275,169621.46,169627,169621.86,173277.26,8,400,8,,ISIC_0054851.JPG
break,html.Screen,4_7_1,2023-09-08T19:49:22.641Z,,0,,,NaN,,,,,,false,,,,173278,173278,,173276,,173277.26,8,400,,,
break_continue,html.Screen,4_7_2,2023-09-08T19:49:22.642Z,,0,,,NaN,,,,,,false,,,,173280,173279,,173279,,173277.26,8,400,,,
sequence,flow.Sequence,4_7,2023-09-08T19:49:22.644Z,,0,,,3657.140000000014,completion,,,,,false,,,,173282,173279,169621.46,169626,169621.86,173277.26,8,400,,,
trial,html.Screen,4_8_0,2023-09-08T19:49:25.781Z,,0,1,,3140.7399999999907,response,ISIC_0963536.JPG,4,ISIC_6366417.JPG,ISIC_0963536.JPG,false,1,keypress(m),500,176419,176418,173276.76,173282,173277.26,176420.24,8,400,9,,ISIC_6366417.JPG
break,html.Screen,4_8_1,2023-09-08T19:49:25.784Z,,0,,,NaN,,,,,,false,,,,176421,176420,,176419,,176420.24,8,400,,,
break_continue,html.Screen,4_8_2,2023-09-08T19:49:25.786Z,,0,,,NaN,,,,,,false,,,,176424,176423,,176423,,176420.24,8,400,,,
sequence,flow.Sequence,4_8,2023-09-08T19:49:25.787Z,,0,,,3145.7399999999907,completion,,,,,false,,,,176425,176423,173276.76,173282,173277.26,176420.24,8,400,,,
trial,html.Screen,4_9_0,2023-09-08T19:49:29.155Z,,0,1,,3371.7600000000093,response,ISIC_0897248.JPG,5,ISIC_9933790.JPG,ISIC_9933790.JPG,false,0,keypress(z),500,179792,179792,176419.78,176426,176420.24,179793.5,8,400,10,,ISIC_0897248.JPG
break,html.Screen,4_9_1,2023-09-08T19:49:29.157Z,,0,,,NaN,,,,,,false,,,,179795,179794,,179793,,179793.5,8,400,,,
break_continue,html.Screen,4_9_2,2023-09-08T19:49:29.159Z,,0,,,NaN,,,,,,false,,,,179796,179795,,179795,,179793.5,8,400,,,
sequence,flow.Sequence,4_9,2023-09-08T19:49:29.159Z,,0,,,3374.7600000000093,completion,,,,,false,,,,179796,179795,176419.78,176426,176420.24,179793.5,8,400,,,
trial,html.Screen,4_10_0,2023-09-08T19:49:32.659Z,,0,1,,3502.5,response,ISIC_0653706.JPG,4,ISIC_0027276.JPG,ISIC_0653706.JPG,false,1,keypress(m),500,183297,183296,179793.1,179797,179793.5,183297.54,8,400,11,,ISIC_0027276.JPG
break,html.Screen,4_10_1,2023-09-08T19:49:32.661Z,,0,,,NaN,,,,,,false,,,,183299,183298,,183297,,183297.54,8,400,,,
break_continue,html.Screen,4_10_2,2023-09-08T19:49:32.663Z,,0,,,NaN,,,,,,false,,,,183300,183300,,183299,,183297.54,8,400,,,
sequence,flow.Sequence,4_10,2023-09-08T19:49:32.663Z,,0,,,3506.5,completion,,,,,false,,,,183302,183300,179793.1,179797,179793.5,183297.54,8,400,,,
trial,html.Screen,4_11_0,2023-09-08T19:49:35.627Z,,0,1,,2966.459999999992,response,ISIC_1797795.JPG,4,ISIC_9323095.JPG,ISIC_9323095.JPG,false,0,keypress(z),500,186265,186264,183297.12,183302,183297.54,186293.62,8,400,12,,ISIC_1797795.JPG
break,html.Screen,4_11_1,2023-09-08T19:49:35.630Z,,0,,,NaN,,,,,,false,,,,186267,186267,,186266,,186293.62,8,400,,,
break_continue,html.Screen,4_11_2,2023-09-08T19:49:35.631Z,,0,,,NaN,,,,,,false,,,,186269,186268,,186268,,186293.62,8,400,,,
sequence,flow.Sequence,4_11,2023-09-08T19:49:35.632Z,,0,,,2970.459999999992,completion,,,,,false,,,,186270,186268,183297.12,183302,183297.54,186293.62,8,400,,,
trial,html.Screen,4_12_0,2023-09-08T19:49:38.542Z,,0,1,,2884.3800000000047,response,ISIC_0011356.JPG,11,ISIC_2748873.JPG,ISIC_2748873.JPG,false,0,keypress(z),500,189179,189178,186277.38,186270,186293.62,189180,8,400,13,,ISIC_0011356.JPG
break,html.Screen,4_12_1,2023-09-08T19:49:38.544Z,,0,,,NaN,,,,,,false,,,,189181,189181,,189180,,189180,8,400,,,
break_continue,html.Screen,4_12_2,2023-09-08T19:49:38.545Z,,0,,,NaN,,,,,,false,,,,189183,189182,,189182,,189180,8,400,,,
sequence,flow.Sequence,4_12,2023-09-08T19:49:38.546Z,,0,,,2888.3800000000047,completion,,,,,false,,,,189184,189182,186277.38,186270,186293.62,189180,8,400,,,
trial,html.Screen,4_13_0,2023-09-08T19:49:42.459Z,,0,1,,3916,response,ISIC_9182492.JPG,0,ISIC_1120654.JPG,ISIC_1120654.JPG,false,0,keypress(z),500,193097,193096,189179.66,189185,189180,193098.48,8,400,14,,ISIC_9182492.JPG
break,html.Screen,4_13_1,2023-09-08T19:49:42.462Z,,0,,,NaN,,,,,,false,,,,193100,193099,,193098,,193098.48,8,400,,,
break_continue,html.Screen,4_13_2,2023-09-08T19:49:42.464Z,,0,,,NaN,,,,,,false,,,,193101,193101,,193100,,193098.48,8,400,,,
sequence,flow.Sequence,4_13,2023-09-08T19:49:42.464Z,,0,,,3921,completion,,,,,false,,,,193102,193101,189179.66,189185,189180,193098.48,8,400,,,
trial,html.Screen,4_14_0,2023-09-08T19:49:45.423Z,,0,1,,2961.5199999999895,response,ISIC_8995044.JPG,3,ISIC_0914251.JPG,ISIC_8995044.JPG,false,1,keypress(m),500,196061,196060,193097.92,193102,193098.48,196061.78,8,400,15,,ISIC_0914251.JPG
break,html.Screen,4_14_1,2023-09-08T19:49:45.425Z,,0,,,NaN,,,,,,false,,,,196063,196062,,196061,,196061.78,8,400,,,
break_continue,html.Screen,4_14_2,2023-09-08T19:49:45.426Z,,0,,,NaN,,,,,,false,,,,196064,196064,,196064,,196061.78,8,400,,,
sequence,flow.Sequence,4_14,2023-09-08T19:49:45.427Z,,0,,,2965.5199999999895,completion,,,,,false,,,,196065,196064,193097.92,193102,193098.48,196061.78,8,400,,,
trial,html.Screen,4_15_0,2023-09-08T19:49:48.372Z,,0,1,,2948.220000000001,response,ISIC_9084751.JPG,2,ISIC_0013492.JPG,ISIC_9084751.JPG,false,1,keypress(m),500,199010,199010,196061.4,196065,196061.78,199037.12,8,400,16,,ISIC_0013492.JPG
break,html.Screen,4_15_1,2023-09-08T19:49:48.375Z,,0,,,NaN,,,,,,false,,,,199013,199012,,199011,,199037.12,8,400,,,
break_continue,html.Screen,4_15_2,2023-09-08T19:49:48.376Z,,0,,,NaN,,,,,,false,,,,199014,199014,,199013,,199037.12,8,400,,,
sequence,flow.Sequence,4_15,2023-09-08T19:49:48.377Z,,0,,,2952.220000000001,completion,,,,,false,,,,199015,199014,196061.4,196065,196061.78,199037.12,8,400,,,
trial,html.Screen,4_16_0,2023-09-08T19:49:52.584Z,,0,1,,4183.880000000005,response,ISIC_9936773.JPG,4,ISIC_0071681.JPG,ISIC_9936773.JPG,false,1,keypress(m),500,203221,203221,199019.96,199015,199037.12,203222.34,8,400,17,,ISIC_0071681.JPG
break,html.Screen,4_16_1,2023-09-08T19:49:52.586Z,,0,,,NaN,,,,,,false,,,,203223,203223,,203222,,203222.34,8,400,,,
break_continue,html.Screen,4_16_2,2023-09-08T19:49:52.587Z,,0,,,NaN,,,,,,false,,,,203224,203224,,203224,,203222.34,8,400,,,
sequence,flow.Sequence,4_16,2023-09-08T19:49:52.588Z,,0,,,4186.880000000005,completion,,,,,false,,,,203225,203224,199019.96,199015,199037.12,203222.34,8,400,,,
trial,html.Screen,4_17_0,2023-09-08T19:49:59.431Z,,0,1,,6846.6600000000035,response,ISIC_0069996.JPG,14,ISIC_7953039.JPG,ISIC_0069996.JPG,false,1,keypress(m),500,210070,210069,203222.1,203226,203222.34,210070.8,8,400,18,,ISIC_7953039.JPG
break,html.Screen,4_17_1,2023-09-08T19:49:59.435Z,,0,,,NaN,,,,,,false,,,,210072,210072,,210071,,210070.8,8,400,,,
break_continue,html.Screen,4_17_2,2023-09-08T19:49:59.435Z,,0,,,NaN,,,,,,false,,,,210073,210073,,210073,,210070.8,8,400,,,
sequence,flow.Sequence,4_17,2023-09-08T19:49:59.436Z,,0,,,6850.6600000000035,completion,,,,,false,,,,210075,210073,203222.1,203225,203222.34,210070.8,8,400,,,
trial,html.Screen,4_18_0,2023-09-08T19:50:02.356Z,,0,1,,2923.2000000000116,response,ISIC_5067317.JPG,6,ISIC_0016081.JPG,ISIC_0016081.JPG,false,0,keypress(z),500,212995,212994,210070.32,210075,210070.8,212995.22,8,400,19,,ISIC_5067317.JPG
break,html.Screen,4_18_1,2023-09-08T19:50:02.358Z,,0,,,NaN,,,,,,false,,,,212996,212995,,212995,,212995.22,8,400,,,
break_continue,html.Screen,4_18_2,2023-09-08T19:50:02.359Z,,0,,,NaN,,,,,,false,,,,212998,212997,,212996,,212995.22,8,400,,,
sequence,flow.Sequence,4_18,2023-09-08T19:50:02.360Z,,0,,,2926.2000000000116,completion,,,,,false,,,,212998,212997,210070.32,210075,210070.8,212995.22,8,400,,,
trial,html.Screen,4_19_0,2023-09-08T19:50:07.627Z,,0,1,,5268.779999999999,response,ISIC_0028445.JPG,5,ISIC_0006331.JPG,ISIC_0028445.JPG,false,1,keypress(m),500,218265,218264,212994.84,212999,212995.22,218265.82,8,400,20,,ISIC_0006331.JPG
break,html.Screen,4_19_1,2023-09-08T19:50:07.630Z,,0,,,NaN,,,,,,false,,,,218267,218267,,218265,,218265.82,8,400,,,
break_continue,html.Screen,4_19_2,2023-09-08T19:50:07.630Z,,0,,,NaN,,,,,,false,,,,218268,218268,,218268,,218265.82,8,400,,,
sequence,flow.Sequence,4_19,2023-09-08T19:50:07.632Z,,0,,,5272.779999999999,completion,,,,,false,,,,218269,218268,212994.84,212999,212995.22,218265.82,8,400,,,
trial,html.Screen,4_20_0,2023-09-08T19:50:10.550Z,,0,1,,2921.179999999993,response,ISIC_8082988.JPG,10,ISIC_2457859.JPG,ISIC_8082988.JPG,false,1,keypress(m),500,221187,221187,218265.42,218270,218265.82,221189.14,8,400,21,,ISIC_2457859.JPG
break,html.Screen,4_20_1,2023-09-08T19:50:10.552Z,,0,,,NaN,,,,,,false,,,,221190,221189,,221188,,221189.14,8,400,,,
break_continue,html.Screen,4_20_2,2023-09-08T19:50:10.554Z,,0,,,NaN,,,,,,false,,,,221191,221191,,221191,,221189.14,8,400,,,
sequence,flow.Sequence,4_20,2023-09-08T19:50:10.555Z,,0,,,2925.179999999993,completion,,,,,false,,,,221193,221191,218265.42,218270,218265.82,221189.14,8,400,,,
trial,html.Screen,4_21_0,2023-09-08T19:50:17.205Z,,0,1,,6652.859999999986,response,ISIC_0066262.JPG,4,ISIC_0065728.JPG,ISIC_0065728.JPG,false,0,keypress(z),500,227842,227842,221188.26,221193,221189.14,227843,8,400,22,,ISIC_0066262.JPG
break,html.Screen,4_21_1,2023-09-08T19:50:17.206Z,,0,,,NaN,,,,,,false,,,,227844,227844,,227843,,227843,8,400,,,
break_continue,html.Screen,4_21_2,2023-09-08T19:50:17.209Z,,0,,,NaN,,,,,,false,,,,227846,227846,,227844,,227843,8,400,,,
sequence,flow.Sequence,4_21,2023-09-08T19:50:17.209Z,,0,,,6656.859999999986,completion,,,,,false,,,,227847,227846,221188.26,221193,221189.14,227843,8,400,,,
trial,html.Screen,4_22_0,2023-09-08T19:50:22.802Z,,0,1,,5596,response,ISIC_0067597.JPG,7,ISIC_0024266.JPG,ISIC_0067597.JPG,false,1,keypress(m),500,233440,233439,227842.56,227847,227843,233441.04,8,400,23,,ISIC_0024266.JPG
break,html.Screen,4_22_1,2023-09-08T19:50:22.805Z,,0,,,NaN,,,,,,false,,,,233442,233442,,233441,,233441.04,8,400,,,
break_continue,html.Screen,4_22_2,2023-09-08T19:50:22.806Z,,0,,,NaN,,,,,,false,,,,233444,233444,,233443,,233441.04,8,400,,,
sequence,flow.Sequence,4_22,2023-09-08T19:50:22.808Z,,0,,,5601,completion,,,,,false,,,,233445,233444,227842.56,227847,227843,233441.04,8,400,,,
trial,html.Screen,4_23_0,2023-09-08T19:50:25.980Z,,0,1,,3174.959999999992,response,ISIC_0012222.JPG,15,ISIC_0073015.JPG,ISIC_0073015.JPG,false,0,keypress(z),500,236617,236616,233440.68,233446,233441.04,236618.48,8,400,24,,ISIC_0012222.JPG
break,html.Screen,4_23_1,2023-09-08T19:50:25.982Z,,0,,,NaN,,,,,,false,,,,236619,236619,,236618,,236618.48,8,400,,,
break_continue,html.Screen,4_23_2,2023-09-08T19:50:25.984Z,,0,,,NaN,,,,,,false,,,,236621,236620,,236620,,236618.48,8,400,,,
sequence,flow.Sequence,4_23,2023-09-08T19:50:25.985Z,,0,,,3178.959999999992,completion,,,,,false,,,,236622,236620,233440.68,233446,233441.04,236618.48,8,400,,,
trial,html.Screen,4_24_0,2023-09-08T19:50:32.935Z,,0,1,,6952.5199999999895,response,ISIC_3232329.JPG,4,ISIC_8441905.JPG,ISIC_8441905.JPG,false,0,keypress(z),500,243572,243571,236617.98,236623,236618.48,243573.6,8,400,25,,ISIC_3232329.JPG
break,html.Screen,4_24_1,2023-09-08T19:50:32.937Z,,0,,,NaN,,,,,,false,,,,243575,243574,,243573,,243573.6,8,400,,,
break_continue,html.Screen,4_24_2,2023-09-08T19:50:32.938Z,,0,,,NaN,,,,,,false,,,,243577,243576,,243575,,243573.6,8,400,,,
sequence,flow.Sequence,4_24,2023-09-08T19:50:32.939Z,,0,,,6957.5199999999895,completion,,,,,false,,,,243577,243576,236617.98,236622,236618.48,243573.6,8,400,,,
trial,html.Screen,4_25_0,2023-09-08T19:50:36.236Z,,0,1,,3300.399999999994,response,ISIC_0953675.JPG,16,ISIC_0011972.JPG,ISIC_0953675.JPG,false,1,keypress(m),500,246875,246874,243573.06,243578,243573.6,246875.66,8,400,26,,ISIC_0011972.JPG
break,html.Screen,4_25_1,2023-09-08T19:50:36.239Z,,0,,,NaN,,,,,,false,,,,246877,246876,,246875,,246875.66,8,400,,,
break_continue,html.Screen,4_25_2,2023-09-08T19:50:36.241Z,,0,,,NaN,,,,,,false,,,,246878,246878,,246877,,246875.66,8,400,,,
sequence,flow.Sequence,4_25,2023-09-08T19:50:36.241Z,,0,,,3304.399999999994,completion,,,,,false,,,,246879,246878,243573.06,243578,243573.6,246875.66,8,400,,,
trial,html.Screen,4_26_0,2023-09-08T19:50:39.768Z,,0,1,,3530.3399999999965,response,ISIC_8907232.JPG,2,ISIC_3689759.JPG,ISIC_3689759.JPG,false,0,keypress(z),500,250406,250406,246875.22,246880,246875.66,250407.38,8,400,27,,ISIC_8907232.JPG
break,html.Screen,4_26_1,2023-09-08T19:50:39.771Z,,0,,,NaN,,,,,,false,,,,250409,250408,,250407,,250407.38,8,400,,,
break_continue,html.Screen,4_26_2,2023-09-08T19:50:39.773Z,,0,,,NaN,,,,,,false,,,,250411,250410,,250410,,250407.38,8,400,,,
sequence,flow.Sequence,4_26,2023-09-08T19:50:39.774Z,,0,,,3534.3399999999965,completion,,,,,false,,,,250411,250410,246875.22,246880,246875.66,250407.38,8,400,,,
trial,html.Screen,4_27_0,2023-09-08T19:50:43.107Z,,0,1,,3337.6199999999953,response,ISIC_0060219.JPG,0,ISIC_6093728.JPG,ISIC_6093728.JPG,false,0,keypress(z),500,253745,253745,250406.72,250412,250407.38,253746.46,8,400,28,,ISIC_0060219.JPG
break,html.Screen,4_27_1,2023-09-08T19:50:43.109Z,,0,,,NaN,,,,,,false,,,,253748,253747,,253746,,253746.46,8,400,,,
break_continue,html.Screen,4_27_2,2023-09-08T19:50:43.111Z,,0,,,NaN,,,,,,false,,,,253749,253748,,253748,,253746.46,8,400,,,
sequence,flow.Sequence,4_27,2023-09-08T19:50:43.112Z,,0,,,3340.6199999999953,completion,,,,,false,,,,253749,253748,250406.72,250412,250407.38,253746.46,8,400,,,
trial,html.Screen,4_28_0,2023-09-08T19:50:46.398Z,,0,1,,3289.540000000008,response,ISIC_3760796.JPG,3,ISIC_0011904.JPG,ISIC_0011904.JPG,false,0,keypress(z),500,257036,257036,253746.08,253750,253746.46,257037.42,8,400,29,,ISIC_3760796.JPG
break,html.Screen,4_28_1,2023-09-08T19:50:46.401Z,,0,,,NaN,,,,,,false,,,,257038,257038,,257037,,257037.42,8,400,,,
break_continue,html.Screen,4_28_2,2023-09-08T19:50:46.402Z,,0,,,NaN,,,,,,false,,,,257039,257039,,257039,,257037.42,8,400,,,
sequence,flow.Sequence,4_28,2023-09-08T19:50:46.402Z,,0,,,3292.540000000008,completion,,,,,false,,,,257040,257039,253746.08,253750,253746.46,257037.42,8,400,,,
trial,html.Screen,4_29_0,2023-09-08T19:50:49.629Z,,0,1,,3228.579999999987,response,ISIC_0069210.JPG,4,ISIC_5073160.JPG,ISIC_5073160.JPG,false,0,keypress(z),500,260266,260266,257037,257041,257037.42,260297.86,8,400,30,,ISIC_0069210.JPG
break,html.Screen,4_29_1,2023-09-08T19:50:49.631Z,,0,,,NaN,,,,,,false,,,,260269,260268,,260267,,260297.86,8,400,,,
break_continue,html.Screen,4_29_2,2023-09-08T19:50:49.632Z,,0,,,NaN,,,,,,false,,,,260270,260269,,260269,,260297.86,8,400,,,
sequence,flow.Sequence,4_29,2023-09-08T19:50:49.633Z,,0,,,3231.579999999987,completion,,,,,false,,,,260271,260269,257037,257040,257037.42,260297.86,8,400,,,
trial,html.Screen,4_30_0,2023-09-08T19:50:53.531Z,,0,1,,3870.140000000014,response,ISIC_0011483.JPG,12,ISIC_1177153.JPG,ISIC_0011483.JPG,false,1,keypress(m),500,264169,264168,260280.74,260271,260297.86,264169.9,8,400,31,,ISIC_1177153.JPG
break,html.Screen,4_30_1,2023-09-08T19:50:53.533Z,,0,,,NaN,,,,,,false,,,,264171,264171,,264170,,264169.9,8,400,,,
break_continue,html.Screen,4_30_2,2023-09-08T19:50:53.535Z,,0,,,NaN,,,,,,false,,,,264173,264172,,264171,,264169.9,8,400,,,
sequence,flow.Sequence,4_30,2023-09-08T19:50:53.535Z,,0,,,3874.140000000014,completion,,,,,false,,,,264174,264172,260280.74,260271,260297.86,264169.9,8,400,,,
trial,html.Screen,4_31_0,2023-09-08T19:50:57.298Z,,0,1,,3765.0999999999767,response,ISIC_0058837.JPG,3,ISIC_0033564.JPG,ISIC_0033564.JPG,false,0,keypress(z),500,267935,267935,264169.48,264175,264169.9,267937.06,8,400,32,,ISIC_0058837.JPG
break,html.Screen,4_31_1,2023-09-08T19:50:57.301Z,,0,,,NaN,,,,,,false,,,,267938,267937,,267937,,267937.06,8,400,,,
break_continue,html.Screen,4_31_2,2023-09-08T19:50:57.303Z,,0,,,NaN,,,,,,false,,,,267940,267939,,267939,,267937.06,8,400,,,
sequence,flow.Sequence,4_31,2023-09-08T19:50:57.303Z,,0,,,3769.0999999999767,completion,,,,,false,,,,267941,267939,264169.48,264174,264169.9,267937.06,8,400,,,
trial,html.Screen,4_32_0,2023-09-08T19:51:00.199Z,,0,1,,2897.9400000000023,response,ISIC_9574191.JPG,0,ISIC_6430210.JPG,ISIC_9574191.JPG,false,1,keypress(m),500,270837,270835,267936.66,267942,267937.06,270837.16,8,400,33,,ISIC_6430210.JPG
break,html.Screen,4_32_1,2023-09-08T19:51:00.201Z,,0,,,NaN,,,,,,false,,,,270838,270838,,270837,,270837.16,8,400,,,
break_continue,html.Screen,4_32_2,2023-09-08T19:51:00.202Z,,0,,,NaN,,,,,,false,,,,270839,270838,,270838,,270837.16,8,400,,,
sequence,flow.Sequence,4_32,2023-09-08T19:51:00.203Z,,0,,,2900.9400000000023,completion,,,,,false,,,,270841,270838,267936.66,267941,267937.06,270837.16,8,400,,,
trial,html.Screen,4_33_0,2023-09-08T19:51:03.603Z,,0,1,,3402.8400000000256,response,ISIC_0003168.JPG,13,ISIC_2231191.JPG,ISIC_0003168.JPG,false,1,keypress(m),500,274241,274240,270836.82,270841,270837.16,274242.28,8,400,34,,ISIC_2231191.JPG
break,html.Screen,4_33_1,2023-09-08T19:51:03.606Z,,0,,,NaN,,,,,,false,,,,274244,274243,,274242,,274242.28,8,400,,,
break_continue,html.Screen,4_33_2,2023-09-08T19:51:03.607Z,,0,,,NaN,,,,,,false,,,,274245,274244,,274244,,274242.28,8,400,,,
sequence,flow.Sequence,4_33,2023-09-08T19:51:03.608Z,,0,,,3406.8400000000256,completion,,,,,false,,,,274246,274244,270836.82,270841,270837.16,274242.28,8,400,,,
trial,html.Screen,4_34_0,2023-09-08T19:51:07.927Z,,0,1,,4321.719999999972,response,ISIC_0644590.JPG,4,ISIC_0016139.JPG,ISIC_0016139.JPG,false,0,keypress(z),500,278565,278564,274241.64,274246,274242.28,278566.04,8,400,35,,ISIC_0644590.JPG
break,html.Screen,4_34_1,2023-09-08T19:51:07.930Z,,0,,,NaN,,,,,,false,,,,278567,278566,,278565,,278566.04,8,400,,,
break_continue,html.Screen,4_34_2,2023-09-08T19:51:07.931Z,,0,,,NaN,,,,,,false,,,,278569,278568,,278568,,278566.04,8,400,,,
sequence,flow.Sequence,4_34,2023-09-08T19:51:07.933Z,,0,,,4325.719999999972,completion,,,,,false,,,,278570,278568,274241.64,274246,274242.28,278566.04,8,400,,,
trial,html.Screen,4_35_0,2023-09-08T19:51:11.349Z,,0,1,,3419.960000000021,response,ISIC_7901891.JPG,0,ISIC_0016082.JPG,ISIC_0016082.JPG,false,0,keypress(z),500,281986,281986,278565.62,278572,278566.04,281988.2,8,400,36,,ISIC_7901891.JPG
break,html.Screen,4_35_1,2023-09-08T19:51:11.351Z,,0,,,NaN,,,,,,false,,,,281989,281989,,281987,,281988.2,8,400,,,
break_continue,html.Screen,4_35_2,2023-09-08T19:51:11.353Z,,0,,,NaN,,,,,,false,,,,281991,281991,,281990,,281988.2,8,400,,,
sequence,flow.Sequence,4_35,2023-09-08T19:51:11.354Z,,0,,,3424.960000000021,completion,,,,,false,,,,281992,281991,278565.62,278571,278566.04,281988.2,8,400,,,
trial,html.Screen,4_36_0,2023-09-08T19:51:14.279Z,,0,1,,2927.7999999999884,response,ISIC_7268804.JPG,3,ISIC_0009927.JPG,ISIC_7268804.JPG,false,1,keypress(m),500,284916,284916,281987.8,281992,281988.2,284917.72,8,400,37,,ISIC_0009927.JPG
break,html.Screen,4_36_1,2023-09-08T19:51:14.282Z,,0,,,NaN,,,,,,false,,,,284919,284918,,284917,,284917.72,8,400,,,
break_continue,html.Screen,4_36_2,2023-09-08T19:51:14.283Z,,0,,,NaN,,,,,,false,,,,284920,284920,,284919,,284917.72,8,400,,,
sequence,flow.Sequence,4_36,2023-09-08T19:51:14.283Z,,0,,,2931.7999999999884,completion,,,,,false,,,,284921,284920,281987.8,281992,281988.2,284917.72,8,400,,,
trial,html.Screen,4_37_0,2023-09-08T19:51:18.351Z,,0,1,,4069.280000000028,response,ISIC_1768733.JPG,4,ISIC_0024961.JPG,ISIC_0024961.JPG,false,0,keypress(z),500,288989,288987,284917.22,284922,284917.72,288989.54,8,400,38,,ISIC_1768733.JPG
break,html.Screen,4_37_1,2023-09-08T19:51:18.353Z,,0,,,NaN,,,,,,false,,,,288991,288990,,288989,,288989.54,8,400,,,
break_continue,html.Screen,4_37_2,2023-09-08T19:51:18.354Z,,0,,,NaN,,,,,,false,,,,288993,288992,,288992,,288989.54,8,400,,,
sequence,flow.Sequence,4_37,2023-09-08T19:51:18.355Z,,0,,,4074.280000000028,completion,,,,,false,,,,288993,288992,284917.22,284922,284917.72,288989.54,8,400,,,
trial,html.Screen,4_38_0,2023-09-08T19:51:22.155Z,,0,1,,3802.460000000021,response,ISIC_2151727.JPG,1,ISIC_0013459.JPG,ISIC_2151727.JPG,false,1,keypress(m),500,292793,292792,288989.04,288994,288989.54,292793.4,8,400,39,,ISIC_0013459.JPG
break,html.Screen,4_38_1,2023-09-08T19:51:22.156Z,,0,,,NaN,,,,,,false,,,,292795,292794,,292793,,292793.4,8,400,,,
break_continue,html.Screen,4_38_2,2023-09-08T19:51:22.157Z,,0,,,NaN,,,,,,false,,,,292795,292795,,292795,,292793.4,8,400,,,
sequence,flow.Sequence,4_38,2023-09-08T19:51:22.158Z,,0,,,3805.460000000021,completion,,,,,false,,,,292796,292795,288989.04,288994,288989.54,292793.4,8,400,,,
trial,html.Screen,4_39_0,2023-09-08T19:51:24.976Z,,0,1,,2820.5999999999767,response,ISIC_0011863.JPG,0,ISIC_6119202.JPG,ISIC_6119202.JPG,false,0,keypress(z),500,295614,295614,292793.06,292797,292793.4,295615.6,8,400,40,,ISIC_0011863.JPG
break,html.Screen,4_39_1,2023-09-08T19:51:24.979Z,,0,,,NaN,,,,,,false,,,,295617,295616,,295615,,295615.6,8,400,,,
break_continue,html.Screen,4_39_2,2023-09-08T19:51:24.981Z,,0,,,NaN,,,,,,false,,,,295619,295618,,295618,,295615.6,8,400,,,
sequence,flow.Sequence,4_39,2023-09-08T19:51:24.981Z,,0,,,2824.5999999999767,completion,,,,,false,,,,295619,295618,292793.06,292796,292793.4,295615.6,8,400,,,
trial,html.Screen,4_40_0,2023-09-08T19:51:28.249Z,,0,1,,3270.4000000000233,response,ISIC_0058408.JPG,4,ISIC_5296963.JPG,ISIC_5296963.JPG,false,0,keypress(z),500,298887,298886,295614.74,295619,295615.6,298912.76,8,400,41,,ISIC_0058408.JPG
break,html.Screen,4_40_1,2023-09-08T19:51:28.251Z,,0,,,NaN,,,,,,false,,,,298889,298888,,298888,,298912.76,8,400,,,
break_continue,html.Screen,4_40_2,2023-09-08T19:51:28.252Z,,0,,,NaN,,,,,,false,,,,298890,298890,,298890,,298912.76,8,400,,,
sequence,flow.Sequence,4_40,2023-09-08T19:51:28.253Z,,0,,,3274.4000000000233,completion,,,,,false,,,,298891,298890,295614.74,295619,295615.6,298912.76,8,400,,,
trial,html.Screen,4_41_0,2023-09-08T19:51:31.453Z,,0,1,,3177.2399999999907,response,ISIC_9694911.JPG,4,ISIC_5747942.JPG,ISIC_5747942.JPG,false,0,keypress(z),500,302090,302090,298895.62,298891,298912.76,302091.82,8,400,42,,ISIC_9694911.JPG
break,html.Screen,4_41_1,2023-09-08T19:51:31.455Z,,0,,,NaN,,,,,,false,,,,302093,302093,,302091,,302091.82,8,400,,,
break_continue,html.Screen,4_41_2,2023-09-08T19:51:31.457Z,,0,,,NaN,,,,,,false,,,,302095,302094,,302094,,302091.82,8,400,,,
sequence,flow.Sequence,4_41,2023-09-08T19:51:31.458Z,,0,,,3181.2399999999907,completion,,,,,false,,,,302096,302094,298895.62,298891,298912.76,302091.82,8,400,,,
trial,html.Screen,4_42_0,2023-09-08T19:51:34.718Z,,0,1,,3262.179999999993,response,ISIC_0054350.JPG,7,ISIC_0066411.JPG,ISIC_0066411.JPG,false,0,keypress(z),500,305355,305354,302091.3,302097,302091.82,305356.74,8,400,43,,ISIC_0054350.JPG
break,html.Screen,4_42_1,2023-09-08T19:51:34.721Z,,0,,,NaN,,,,,,false,,,,305358,305357,,305356,,305356.74,8,400,,,
break_continue,html.Screen,4_42_2,2023-09-08T19:51:34.722Z,,0,,,NaN,,,,,,false,,,,305360,305359,,305359,,305356.74,8,400,,,
sequence,flow.Sequence,4_42,2023-09-08T19:51:34.723Z,,0,,,3267.179999999993,completion,,,,,false,,,,305361,305359,302091.3,302096,302091.82,305356.74,8,400,,,
trial,html.Screen,4_43_0,2023-09-08T19:51:37.979Z,,0,1,,3259.2600000000093,response,ISIC_4223155.JPG,1,ISIC_0011917.JPG,ISIC_4223155.JPG,false,1,keypress(m),500,308617,308616,305356.34,305362,305356.74,308618.62,8,400,44,,ISIC_0011917.JPG
break,html.Screen,4_43_1,2023-09-08T19:51:37.982Z,,0,,,NaN,,,,,,false,,,,308620,308619,,308618,,308618.62,8,400,,,
break_continue,html.Screen,4_43_2,2023-09-08T19:51:37.984Z,,0,,,NaN,,,,,,false,,,,308621,308620,,308620,,308618.62,8,400,,,
sequence,flow.Sequence,4_43,2023-09-08T19:51:37.985Z,,0,,,3263.2600000000093,completion,,,,,false,,,,308622,308620,305356.34,305361,305356.74,308618.62,8,400,,,
trial,html.Screen,4_44_0,2023-09-08T19:51:41.897Z,,0,1,,3915.3800000000047,response,ISIC_0008945.JPG,8,ISIC_9227392.JPG,ISIC_9227392.JPG,false,0,keypress(z),500,312535,312534,308618.04,308623,308618.62,312535.88,8,400,45,,ISIC_0008945.JPG
break,html.Screen,4_44_1,2023-09-08T19:51:41.900Z,,0,,,NaN,,,,,,false,,,,312538,312537,,312535,,312535.88,8,400,,,
break_continue,html.Screen,4_44_2,2023-09-08T19:51:41.901Z,,0,,,NaN,,,,,,false,,,,312539,312538,,312538,,312535.88,8,400,,,
sequence,flow.Sequence,4_44,2023-09-08T19:51:41.903Z,,0,,,3919.3800000000047,completion,,,,,false,,,,312540,312538,308618.04,308623,308618.62,312535.88,8,400,,,
trial,html.Screen,4_45_0,2023-09-08T19:51:44.919Z,,0,1,,3020.1199999999953,response,ISIC_0025955.JPG,11,ISIC_6401657.JPG,ISIC_0025955.JPG,false,1,keypress(m),500,315556,315556,312535.26,312541,312535.88,315558.2,8,400,46,,ISIC_6401657.JPG
break,html.Screen,4_45_1,2023-09-08T19:51:44.922Z,,0,,,NaN,,,,,,false,,,,315560,315559,,315557,,315558.2,8,400,,,
break_continue,html.Screen,4_45_2,2023-09-08T19:51:44.923Z,,0,,,NaN,,,,,,false,,,,315562,315561,,315560,,315558.2,8,400,,,
sequence,flow.Sequence,4_45,2023-09-08T19:51:44.924Z,,0,,,3025.1199999999953,completion,,,,,false,,,,315563,315561,312535.26,312540,312535.88,315558.2,8,400,,,
trial,html.Screen,4_46_0,2023-09-08T19:51:54.608Z,,0,1,,9686.799999999988,response,ISIC_0030119.JPG,3,ISIC_0065313.JPG,ISIC_0065313.JPG,false,0,keypress(z),500,325246,325245,315557.72,315563,315558.2,325246.82,8,400,47,,ISIC_0030119.JPG
break,html.Screen,4_46_1,2023-09-08T19:51:54.610Z,,0,,,NaN,,,,,,false,,,,325248,325247,,325247,,325246.82,8,400,,,
break_continue,html.Screen,4_46_2,2023-09-08T19:51:54.611Z,,0,,,NaN,,,,,,false,,,,325249,325249,,325249,,325246.82,8,400,,,
sequence,flow.Sequence,4_46,2023-09-08T19:51:54.612Z,,0,,,9690.799999999988,completion,,,,,false,,,,325249,325249,315557.72,315563,315558.2,325246.82,8,400,,,
trial,html.Screen,4_47_0,2023-09-08T19:51:57.496Z,,0,1,,2886.179999999993,response,ISIC_0046672.JPG,4,ISIC_2399613.JPG,ISIC_2399613.JPG,false,0,keypress(z),500,328134,328133,325246.44,325250,325246.82,328134.74,8,400,48,,ISIC_0046672.JPG
break,html.Screen,4_47_1,2023-09-08T19:51:57.498Z,,0,,,NaN,,,,,,false,,,,328136,328135,,328134,,328134.74,8,400,,,
break_continue,html.Screen,4_47_2,2023-09-08T19:51:57.499Z,,0,,,NaN,,,,,,false,,,,328137,328137,,328136,,328134.74,8,400,,,
sequence,flow.Sequence,4_47,2023-09-08T19:51:57.500Z,,0,,,2890.179999999993,completion,,,,,false,,,,328138,328137,325246.44,325250,325246.82,328134.74,8,400,,,
trial,html.Screen,4_48_0,2023-09-08T19:52:00.915Z,,0,1,,3417.2600000000093,response,ISIC_0066564.JPG,6,ISIC_8821700.JPG,ISIC_8821700.JPG,false,0,keypress(z),500,331552,331552,328134.32,328138,328134.74,331552.98,8,400,49,,ISIC_0066564.JPG
break,html.Screen,4_48_1,2023-09-08T19:52:00.916Z,,0,,,NaN,,,,,,false,,,,331554,331553,,331552,,331552.98,8,400,,,
break_continue,html.Screen,4_48_2,2023-09-08T19:52:00.917Z,,0,,,NaN,,,,,,false,,,,331554,331554,,331554,,331552.98,8,400,,,
sequence,flow.Sequence,4_48,2023-09-08T19:52:00.918Z,,0,,,3419.2600000000093,completion,,,,,false,,,,331555,331554,328134.32,328138,328134.74,331552.98,8,400,,,
trial,html.Screen,4_49_0,2023-09-08T19:52:03.953Z,,0,1,,3036.0200000000186,response,ISIC_0054651.JPG,7,ISIC_0000375.JPG,ISIC_0054651.JPG,false,1,keypress(m),500,334591,334589,331552.74,331555,331552.98,334591.74,8,400,50,,ISIC_0000375.JPG
break,html.Screen,4_49_1,2023-09-08T19:52:13.937Z,,0,,,9998.619999999995,timeout,,,,,false,,,,344575,344573.18,334591.2,334591,334591.74,344590.36,8,400,,,
break_continue,html.Screen,4_49_2,2023-09-08T19:52:16.773Z,,0,,,2803.640000000014,response,,,,,false,continue,keypress(Space),,347410,347394,344573.18,344576,344590.36,347411.62,8,400,,,
sequence,flow.Sequence,4_49,2023-09-08T19:52:16.774Z,,0,,,15841.020000000019,completion,,,,,false,,,,347411,347394,331552.74,331555,331552.98,347411.62,8,400,,,
trial,html.Screen,4_50_0,2023-09-08T19:52:20.646Z,,0,2,,3871.3800000000047,response,ISIC_6901969.JPG,3,ISIC_0072101.JPG,ISIC_0072101.JPG,false,0,keypress(z),500,351284,351283,347411.36,347411,347411.62,351285.78,8,400,1,,ISIC_6901969.JPG
break,html.Screen,4_50_1,2023-09-08T19:52:20.649Z,,0,,,NaN,,,,,,false,,,,351287,351286,,351285,,351285.78,8,400,,,
break_continue,html.Screen,4_50_2,2023-09-08T19:52:20.651Z,,0,,,NaN,,,,,,false,,,,351289,351288,,351287,,351285.78,8,400,,,
sequence,flow.Sequence,4_50,2023-09-08T19:52:20.652Z,,0,,,3876.3800000000047,completion,,,,,false,,,,351290,351288,347411.36,347411,347411.62,351285.78,8,400,,,
trial,html.Screen,4_51_0,2023-09-08T19:52:23.589Z,,0,2,,2939.219999999972,response,ISIC_0009950.JPG,5,ISIC_2178032.JPG,ISIC_0009950.JPG,false,1,keypress(m),500,354227,354225,351285.32,351291,351285.78,354227.4,8,400,2,,ISIC_2178032.JPG
break,html.Screen,4_51_1,2023-09-08T19:52:23.591Z,,0,,,NaN,,,,,,false,,,,354228,354228,,354227,,354227.4,8,400,,,
break_continue,html.Screen,4_51_2,2023-09-08T19:52:23.593Z,,0,,,NaN,,,,,,false,,,,354230,354230,,354230,,354227.4,8,400,,,
sequence,flow.Sequence,4_51,2023-09-08T19:52:23.594Z,,0,,,2944.219999999972,completion,,,,,false,,,,354231,354230,351285.32,351291,351285.78,354227.4,8,400,,,
trial,html.Screen,4_52_0,2023-09-08T19:52:27.525Z,,0,2,,3933.5999999999767,response,ISIC_0533930.JPG,9,ISIC_5388485.JPG,ISIC_0533930.JPG,false,1,keypress(m),500,358162,358161,354227.02,354232,354227.4,358163.38,8,400,3,,ISIC_5388485.JPG
break,html.Screen,4_52_1,2023-09-08T19:52:27.527Z,,0,,,NaN,,,,,,false,,,,358164,358164,,358162,,358163.38,8,400,,,
break_continue,html.Screen,4_52_2,2023-09-08T19:52:27.529Z,,0,,,NaN,,,,,,false,,,,358166,358166,,358166,,358163.38,8,400,,,
sequence,flow.Sequence,4_52,2023-09-08T19:52:27.529Z,,0,,,3938.5999999999767,completion,,,,,false,,,,358167,358166,354227.02,354232,354227.4,358163.38,8,400,,,
trial,html.Screen,4_53_0,2023-09-08T19:52:34.205Z,,0,2,,6677.619999999995,response,ISIC_0189336.JPG,3,ISIC_1919324.JPG,ISIC_1919324.JPG,false,0,keypress(z),500,364842,364841,358162.92,358167,358163.38,364843.26,8,400,4,,ISIC_0189336.JPG
break,html.Screen,4_53_1,2023-09-08T19:52:34.206Z,,0,,,NaN,,,,,,false,,,,364845,364844,,364843,,364843.26,8,400,,,
break_continue,html.Screen,4_53_2,2023-09-08T19:52:34.208Z,,0,,,NaN,,,,,,false,,,,364847,364846,,364846,,364843.26,8,400,,,
sequence,flow.Sequence,4_53,2023-09-08T19:52:34.210Z,,0,,,6682.619999999995,completion,,,,,false,,,,364848,364846,358162.92,358167,358163.38,364843.26,8,400,,,
trial,html.Screen,4_54_0,2023-09-08T19:52:37.043Z,,0,2,,2836.7399999999907,response,ISIC_0011343.JPG,7,ISIC_0030281.JPG,ISIC_0030281.JPG,false,0,keypress(z),500,367681,367680,364842.9,364848,364843.26,367681.96,8,400,5,,ISIC_0011343.JPG
break,html.Screen,4_54_1,2023-09-08T19:52:37.045Z,,0,,,NaN,,,,,,false,,,,367683,367682,,367681,,367681.96,8,400,,,
break_continue,html.Screen,4_54_2,2023-09-08T19:52:37.047Z,,0,,,NaN,,,,,,false,,,,367684,367683,,367683,,367681.96,8,400,,,
sequence,flow.Sequence,4_54,2023-09-08T19:52:37.047Z,,0,,,2839.7399999999907,completion,,,,,false,,,,367685,367683,364842.9,364848,364843.26,367681.96,8,400,,,
trial,html.Screen,4_55_0,2023-09-08T19:52:40.051Z,,0,2,,3006.039999999979,response,ISIC_0012706.JPG,1,ISIC_0054341.JPG,ISIC_0012706.JPG,false,1,keypress(m),500,370689,370688,367681.18,367685,367681.96,370689.62,8,400,6,,ISIC_0054341.JPG
break,html.Screen,4_55_1,2023-09-08T19:52:40.053Z,,0,,,NaN,,,,,,false,,,,370691,370690,,370689,,370689.62,8,400,,,
break_continue,html.Screen,4_55_2,2023-09-08T19:52:40.055Z,,0,,,NaN,,,,,,false,,,,370692,370692,,370691,,370689.62,8,400,,,
sequence,flow.Sequence,4_55,2023-09-08T19:52:40.056Z,,0,,,3010.039999999979,completion,,,,,false,,,,370693,370692,367681.18,367685,367681.96,370689.62,8,400,,,
trial,html.Screen,4_56_0,2023-09-08T19:52:45.765Z,,0,2,,5713.380000000005,response,ISIC_5955057.JPG,0,ISIC_0025472.JPG,ISIC_5955057.JPG,false,1,keypress(m),500,376403,376403,370689.26,370694,370689.62,376404.32,8,400,7,,ISIC_0025472.JPG
break,html.Screen,4_56_1,2023-09-08T19:52:45.768Z,,0,,,NaN,,,,,,false,,,,376405,376404,,376404,,376404.32,8,400,,,
break_continue,html.Screen,4_56_2,2023-09-08T19:52:45.769Z,,0,,,NaN,,,,,,false,,,,376407,376406,,376406,,376404.32,8,400,,,
sequence,flow.Sequence,4_56,2023-09-08T19:52:45.770Z,,0,,,5716.380000000005,completion,,,,,false,,,,376407,376406,370689.26,370693,370689.62,376404.32,8,400,,,
trial,html.Screen,4_57_0,2023-09-08T19:52:49.677Z,,0,2,,3910.679999999993,response,ISIC_0002118.JPG,3,ISIC_0028319.JPG,ISIC_0002118.JPG,false,1,keypress(m),500,380315,380315,376404.02,376408,376404.32,380315.96,8,400,8,,ISIC_0028319.JPG
break,html.Screen,4_57_1,2023-09-08T19:52:49.679Z,,0,,,NaN,,,,,,false,,,,380317,380316,,380316,,380315.96,8,400,,,
break_continue,html.Screen,4_57_2,2023-09-08T19:52:49.680Z,,0,,,NaN,,,,,,false,,,,380318,380318,,380318,,380315.96,8,400,,,
sequence,flow.Sequence,4_57,2023-09-08T19:52:49.681Z,,0,,,3913.679999999993,completion,,,,,false,,,,380319,380318,376404.02,376407,376404.32,380315.96,8,400,,,
trial,html.Screen,4_58_0,2023-09-08T19:52:52.760Z,,0,2,,3081.039999999979,response,ISIC_0027069.JPG,12,ISIC_0025409.JPG,ISIC_0025409.JPG,false,0,keypress(z),500,383397,383397,380315.56,380320,380315.96,383398.36,8,400,9,,ISIC_0027069.JPG
break,html.Screen,4_58_1,2023-09-08T19:52:52.762Z,,0,,,NaN,,,,,,false,,,,383399,383399,,383398,,383398.36,8,400,,,
break_continue,html.Screen,4_58_2,2023-09-08T19:52:52.763Z,,0,,,NaN,,,,,,false,,,,383401,383400,,383400,,383398.36,8,400,,,
sequence,flow.Sequence,4_58,2023-09-08T19:52:52.764Z,,0,,,3084.039999999979,completion,,,,,false,,,,383402,383400,380315.56,380319,380315.96,383398.36,8,400,,,
trial,html.Screen,4_59_0,2023-09-08T19:52:55.628Z,,0,2,,2866.640000000014,response,ISIC_9780632.JPG,0,ISIC_0069189.JPG,ISIC_9780632.JPG,false,1,keypress(m),500,386267,386265,383397.94,383403,383398.36,386294.08,8,400,10,,ISIC_0069189.JPG
break,html.Screen,4_59_1,2023-09-08T19:52:55.631Z,,0,,,NaN,,,,,,false,,,,386269,386268,,386267,,386294.08,8,400,,,
break_continue,html.Screen,4_59_2,2023-09-08T19:52:55.632Z,,0,,,NaN,,,,,,false,,,,386270,386270,,386270,,386294.08,8,400,,,
sequence,flow.Sequence,4_59,2023-09-08T19:52:55.634Z,,0,,,2871.640000000014,completion,,,,,false,,,,386271,386270,383397.94,383403,383398.36,386294.08,8,400,,,
trial,html.Screen,4_60_0,2023-09-08T19:52:58.749Z,,0,2,,3091.9199999999837,response,ISIC_6052860.JPG,8,ISIC_9140779.JPG,ISIC_6052860.JPG,false,1,keypress(m),500,389386,389386,386276.98,386272,386294.08,389387.78,8,400,11,,ISIC_9140779.JPG
break,html.Screen,4_60_1,2023-09-08T19:52:58.751Z,,0,,,NaN,,,,,,false,,,,389389,389388,,389387,,389387.78,8,400,,,
break_continue,html.Screen,4_60_2,2023-09-08T19:52:58.753Z,,0,,,NaN,,,,,,false,,,,389391,389390,,389390,,389387.78,8,400,,,
sequence,flow.Sequence,4_60,2023-09-08T19:52:58.754Z,,0,,,3095.9199999999837,completion,,,,,false,,,,389391,389390,386276.98,386271,386294.08,389387.78,8,400,,,
trial,html.Screen,4_61_0,2023-09-08T19:53:04.771Z,,0,2,,6020.219999999972,response,ISIC_4566439.JPG,14,ISIC_0374029.JPG,ISIC_4566439.JPG,false,1,keypress(m),500,395409,395408,389387.3,389392,389387.78,395410.34,8,400,12,,ISIC_0374029.JPG
break,html.Screen,4_61_1,2023-09-08T19:53:04.774Z,,0,,,NaN,,,,,,false,,,,395412,395411,,395410,,395410.34,8,400,,,
break_continue,html.Screen,4_61_2,2023-09-08T19:53:04.776Z,,0,,,NaN,,,,,,false,,,,395413,395412,,395412,,395410.34,8,400,,,
sequence,flow.Sequence,4_61,2023-09-08T19:53:04.777Z,,0,,,6024.219999999972,completion,,,,,false,,,,395414,395412,389387.3,389391,389387.78,395410.34,8,400,,,
trial,html.Screen,4_62_0,2023-09-08T19:53:07.830Z,,0,2,,3055.6599999999744,response,ISIC_7999342.JPG,2,ISIC_7966295.JPG,ISIC_7999342.JPG,false,1,keypress(m),500,398467,398466,395409.98,395415,395410.34,398468.52,8,400,13,,ISIC_7966295.JPG
break,html.Screen,4_62_1,2023-09-08T19:53:07.832Z,,0,,,NaN,,,,,,false,,,,398470,398468,,398468,,398468.52,8,400,,,
break_continue,html.Screen,4_62_2,2023-09-08T19:53:07.834Z,,0,,,NaN,,,,,,false,,,,398472,398471,,398471,,398468.52,8,400,,,
sequence,flow.Sequence,4_62,2023-09-08T19:53:07.834Z,,0,,,3060.6599999999744,completion,,,,,false,,,,398472,398471,395409.98,395415,395410.34,398468.52,8,400,,,
trial,html.Screen,4_63_0,2023-09-08T19:53:10.515Z,,0,2,,2682.4799999999814,response,ISIC_0015219.JPG,4,ISIC_9974299.JPG,ISIC_9974299.JPG,false,0,keypress(z),500,401152,401151,398467.94,398473,398468.52,401153.36,8,400,14,,ISIC_0015219.JPG
break,html.Screen,4_63_1,2023-09-08T19:53:10.517Z,,0,,,NaN,,,,,,false,,,,401155,401154,,401152,,401153.36,8,400,,,
break_continue,html.Screen,4_63_2,2023-09-08T19:53:10.518Z,,0,,,NaN,,,,,,false,,,,401156,401155,,401155,,401153.36,8,400,,,
sequence,flow.Sequence,4_63,2023-09-08T19:53:10.519Z,,0,,,2686.4799999999814,completion,,,,,false,,,,401157,401155,398467.94,398473,398468.52,401153.36,8,400,,,
trial,html.Screen,4_64_0,2023-09-08T19:53:13.281Z,,0,2,,2764.640000000014,response,ISIC_5288404.JPG,8,ISIC_0010514.JPG,ISIC_5288404.JPG,false,1,keypress(m),500,403919,403918,401152.68,401157,401153.36,403919.74,8,400,15,,ISIC_0010514.JPG
break,html.Screen,4_64_1,2023-09-08T19:53:13.283Z,,0,,,NaN,,,,,,false,,,,403921,403920,,403919,,403919.74,8,400,,,
break_continue,html.Screen,4_64_2,2023-09-08T19:53:13.284Z,,0,,,NaN,,,,,,false,,,,403922,403921,,403921,,403919.74,8,400,,,
sequence,flow.Sequence,4_64,2023-09-08T19:53:13.285Z,,0,,,2767.640000000014,completion,,,,,false,,,,403922,403921,401152.68,401157,401153.36,403919.74,8,400,,,
trial,html.Screen,4_65_0,2023-09-08T19:53:16.066Z,,0,2,,2783.2600000000093,response,ISIC_0028567.JPG,5,ISIC_0030795.JPG,ISIC_0030795.JPG,false,0,keypress(z),500,406704,406703,403919.28,403923,403919.74,406705.4,8,400,16,,ISIC_0028567.JPG
break,html.Screen,4_65_1,2023-09-08T19:53:16.069Z,,0,,,NaN,,,,,,false,,,,406706,406706,,406705,,406705.4,8,400,,,
break_continue,html.Screen,4_65_2,2023-09-08T19:53:16.070Z,,0,,,NaN,,,,,,false,,,,406708,406708,,406707,,406705.4,8,400,,,
sequence,flow.Sequence,4_65,2023-09-08T19:53:16.072Z,,0,,,2788.2600000000093,completion,,,,,false,,,,406709,406708,403919.28,403923,403919.74,406705.4,8,400,,,
trial,html.Screen,4_66_0,2023-09-08T19:53:19.375Z,,0,2,,3306.5999999999767,response,ISIC_6674797.JPG,12,ISIC_0010630.JPG,ISIC_6674797.JPG,false,1,keypress(m),500,410013,410012,406704.9,406710,406705.4,410013.6,8,400,17,,ISIC_0010630.JPG
break,html.Screen,4_66_1,2023-09-08T19:53:19.377Z,,0,,,NaN,,,,,,false,,,,410014,410014,,410013,,410013.6,8,400,,,
break_continue,html.Screen,4_66_2,2023-09-08T19:53:19.378Z,,0,,,NaN,,,,,,false,,,,410016,410015,,410015,,410013.6,8,400,,,
sequence,flow.Sequence,4_66,2023-09-08T19:53:19.379Z,,0,,,3309.5999999999767,completion,,,,,false,,,,410017,410015,406704.9,406710,406705.4,410013.6,8,400,,,
trial,html.Screen,4_67_0,2023-09-08T19:53:23.015Z,,0,2,,3639.4000000000233,response,ISIC_0064066.JPG,7,ISIC_3471815.JPG,ISIC_3471815.JPG,false,0,keypress(z),500,413653,413653,410013.16,410018,410013.6,413654.7,8,400,18,,ISIC_0064066.JPG
break,html.Screen,4_67_1,2023-09-08T19:53:23.018Z,,0,,,NaN,,,,,,false,,,,413656,413655,,413654,,413654.7,8,400,,,
break_continue,html.Screen,4_67_2,2023-09-08T19:53:23.020Z,,0,,,NaN,,,,,,false,,,,413658,413657,,413656,,413654.7,8,400,,,
sequence,flow.Sequence,4_67,2023-09-08T19:53:23.020Z,,0,,,3643.4000000000233,completion,,,,,false,,,,413658,413657,410013.16,410017,410013.6,413654.7,8,400,,,
trial,html.Screen,4_68_0,2023-09-08T19:53:26.511Z,,0,2,,3493.2999999999884,response,ISIC_0026690.JPG,1,ISIC_0602494.JPG,ISIC_0602494.JPG,false,0,keypress(z),500,417149,417148,413654.14,413659,413654.7,417150.62,8,400,19,,ISIC_0026690.JPG
break,html.Screen,4_68_1,2023-09-08T19:53:26.514Z,,0,,,NaN,,,,,,false,,,,417152,417150,,417150,,417150.62,8,400,,,
break_continue,html.Screen,4_68_2,2023-09-08T19:53:26.515Z,,0,,,NaN,,,,,,false,,,,417153,417153,,417153,,417150.62,8,400,,,
sequence,flow.Sequence,4_68,2023-09-08T19:53:26.516Z,,0,,,3498.2999999999884,completion,,,,,false,,,,417154,417153,413654.14,413659,413654.7,417150.62,8,400,,,
trial,html.Screen,4_69_0,2023-09-08T19:53:29.302Z,,0,2,,2788.3800000000047,response,ISIC_4384861.JPG,12,ISIC_0059093.JPG,ISIC_4384861.JPG,false,1,keypress(m),500,419940,419939,417149.76,417155,417150.62,419970.22,8,400,20,,ISIC_0059093.JPG
break,html.Screen,4_69_1,2023-09-08T19:53:29.305Z,,0,,,NaN,,,,,,false,,,,419942,419942,,419941,,419970.22,8,400,,,
break_continue,html.Screen,4_69_2,2023-09-08T19:53:29.306Z,,0,,,NaN,,,,,,false,,,,419944,419944,,419944,,419970.22,8,400,,,
sequence,flow.Sequence,4_69,2023-09-08T19:53:29.307Z,,0,,,2793.3800000000047,completion,,,,,false,,,,419945,419944,417149.76,417154,417150.62,419970.22,8,400,,,
trial,html.Screen,4_70_0,2023-09-08T19:53:34.111Z,,0,2,,4777.780000000028,response,ISIC_1790808.JPG,4,ISIC_0059041.JPG,ISIC_1790808.JPG,false,1,keypress(m),500,424749,424748,419953.1,419945,419970.22,424750.3,8,400,21,,ISIC_0059041.JPG
break,html.Screen,4_70_1,2023-09-08T19:53:34.114Z,,0,,,NaN,,,,,,false,,,,424751,424750,,424749,,424750.3,8,400,,,
break_continue,html.Screen,4_70_2,2023-09-08T19:53:34.115Z,,0,,,NaN,,,,,,false,,,,424753,424753,,424752,,424750.3,8,400,,,
sequence,flow.Sequence,4_70,2023-09-08T19:53:34.116Z,,0,,,4782.780000000028,completion,,,,,false,,,,424754,424753,419953.1,419945,419970.22,424750.3,8,400,,,
trial,html.Screen,4_71_0,2023-09-08T19:53:37.792Z,,0,2,,3678.7000000000116,response,ISIC_0068776.JPG,2,ISIC_0013497.JPG,ISIC_0068776.JPG,false,1,keypress(m),500,428430,428429,424750.08,424754,424750.3,428431.48,8,400,22,,ISIC_0013497.JPG
break,html.Screen,4_71_1,2023-09-08T19:53:37.795Z,,0,,,NaN,,,,,,false,,,,428433,428432,,428431,,428431.48,8,400,,,
break_continue,html.Screen,4_71_2,2023-09-08T19:53:37.796Z,,0,,,NaN,,,,,,false,,,,428434,428433,,428433,,428431.48,8,400,,,
sequence,flow.Sequence,4_71,2023-09-08T19:53:37.797Z,,0,,,3682.7000000000116,completion,,,,,false,,,,428434,428433,424750.08,424754,424750.3,428431.48,8,400,,,
trial,html.Screen,4_72_0,2023-09-08T19:53:41.371Z,,0,2,,3576.5200000000186,response,ISIC_5903193.JPG,11,ISIC_9417173.JPG,ISIC_5903193.JPG,false,1,keypress(m),500,432009,432008,428431.04,428435,428431.48,432009.2,8,400,23,,ISIC_9417173.JPG
break,html.Screen,4_72_1,2023-09-08T19:53:41.372Z,,0,,,NaN,,,,,,false,,,,432010,432009,,432009,,432009.2,8,400,,,
break_continue,html.Screen,4_72_2,2023-09-08T19:53:41.374Z,,0,,,NaN,,,,,,false,,,,432012,432011,,432011,,432009.2,8,400,,,
sequence,flow.Sequence,4_72,2023-09-08T19:53:41.375Z,,0,,,3579.5200000000186,completion,,,,,false,,,,432012,432011,428431.04,428435,428431.48,432009.2,8,400,,,
trial,html.Screen,4_73_0,2023-09-08T19:53:44.624Z,,0,2,,3252.7999999999884,response,ISIC_0026889.JPG,6,ISIC_0013492.JPG,ISIC_0026889.JPG,false,1,keypress(m),500,435262,435262,432008.9,432013,432009.2,435263.5,8,400,24,,ISIC_0013492.JPG
break,html.Screen,4_73_1,2023-09-08T19:53:44.626Z,,0,,,NaN,,,,,,false,,,,435265,435264,,435263,,435263.5,8,400,,,
break_continue,html.Screen,4_73_2,2023-09-08T19:53:44.628Z,,0,,,NaN,,,,,,false,,,,435266,435265,,435265,,435263.5,8,400,,,
sequence,flow.Sequence,4_73,2023-09-08T19:53:44.629Z,,0,,,3255.7999999999884,completion,,,,,false,,,,435267,435265,432008.9,432013,432009.2,435263.5,8,400,,,
trial,html.Screen,4_74_0,2023-09-08T19:53:47.593Z,,0,2,,2965.5,response,ISIC_9529971.JPG,2,ISIC_1453146.JPG,ISIC_1453146.JPG,false,0,keypress(z),500,438230,438229,435263,435267,435263.5,438231.66,8,400,25,,ISIC_9529971.JPG
break,html.Screen,4_74_1,2023-09-08T19:53:47.595Z,,0,,,NaN,,,,,,false,,,,438233,438232,,438231,,438231.66,8,400,,,
break_continue,html.Screen,4_74_2,2023-09-08T19:53:47.597Z,,0,,,NaN,,,,,,false,,,,438235,438234,,438234,,438231.66,8,400,,,
sequence,flow.Sequence,4_74,2023-09-08T19:53:47.598Z,,0,,,2970.5,completion,,,,,false,,,,438235,438234,435263,435267,435263.5,438231.66,8,400,,,
trial,html.Screen,4_75_0,2023-09-08T19:53:50.479Z,,0,2,,2884.3400000000256,response,ISIC_4129321.JPG,4,ISIC_0011696.JPG,ISIC_4129321.JPG,false,1,keypress(m),500,441116,441116,438231.12,438236,438231.66,441117.2,8,400,26,,ISIC_0011696.JPG
break,html.Screen,4_75_1,2023-09-08T19:53:50.481Z,,0,,,NaN,,,,,,false,,,,441118,441118,,441116,,441117.2,8,400,,,
break_continue,html.Screen,4_75_2,2023-09-08T19:53:50.482Z,,0,,,NaN,,,,,,false,,,,441121,441120,,441119,,441117.2,8,400,,,
sequence,flow.Sequence,4_75,2023-09-08T19:53:50.483Z,,0,,,2888.3400000000256,completion,,,,,false,,,,441121,441120,438231.12,438236,438231.66,441117.2,8,400,,,
trial,html.Screen,4_76_0,2023-09-08T19:53:54.123Z,,0,2,,3642.7999999999884,response,ISIC_0031501.JPG,15,ISIC_1110583.JPG,ISIC_1110583.JPG,false,0,keypress(z),500,444760,444760,441116.66,441122,441117.2,444761.82,8,400,27,,ISIC_0031501.JPG
break,html.Screen,4_76_1,2023-09-08T19:53:54.125Z,,0,,,NaN,,,,,,false,,,,444764,444762,,444761,,444761.82,8,400,,,
break_continue,html.Screen,4_76_2,2023-09-08T19:53:54.127Z,,0,,,NaN,,,,,,false,,,,444764,444764,,444764,,444761.82,8,400,,,
sequence,flow.Sequence,4_76,2023-09-08T19:53:54.128Z,,0,,,3646.7999999999884,completion,,,,,false,,,,444765,444764,441116.66,441121,441117.2,444761.82,8,400,,,
trial,html.Screen,4_77_0,2023-09-08T19:53:57.670Z,,0,2,,3544.179999999993,response,ISIC_0054892.JPG,2,ISIC_0063191.JPG,ISIC_0063191.JPG,false,0,keypress(z),500,448307,448306,444761.32,444766,444761.82,448308.5,8,400,28,,ISIC_0054892.JPG
break,html.Screen,4_77_1,2023-09-08T19:53:57.672Z,,0,,,NaN,,,,,,false,,,,448309,448309,,448308,,448308.5,8,400,,,
break_continue,html.Screen,4_77_2,2023-09-08T19:53:57.673Z,,0,,,NaN,,,,,,false,,,,448311,448311,,448310,,448308.5,8,400,,,
sequence,flow.Sequence,4_77,2023-09-08T19:53:57.675Z,,0,,,3549.179999999993,completion,,,,,false,,,,448313,448311,444761.32,444766,444761.82,448308.5,8,400,,,
trial,html.Screen,4_78_0,2023-09-08T19:54:02.143Z,,0,2,,4469.5,response,ISIC_0071367.JPG,15,ISIC_0032988.JPG,ISIC_0071367.JPG,false,1,keypress(m),500,452780,452778,448308.12,448314,448308.5,452781.06,8,400,29,,ISIC_0032988.JPG
break,html.Screen,4_78_1,2023-09-08T19:54:02.145Z,,0,,,NaN,,,,,,false,,,,452782,452781,,452780,,452781.06,8,400,,,
break_continue,html.Screen,4_78_2,2023-09-08T19:54:02.146Z,,0,,,NaN,,,,,,false,,,,452784,452783,,452783,,452781.06,8,400,,,
sequence,flow.Sequence,4_78,2023-09-08T19:54:02.147Z,,0,,,4474.5,completion,,,,,false,,,,452785,452783,448308.12,448314,448308.5,452781.06,8,400,,,
trial,html.Screen,4_79_0,2023-09-08T19:54:05.306Z,,0,2,,3162.9400000000023,response,ISIC_0073075.JPG,2,ISIC_0331124.JPG,ISIC_0073075.JPG,false,1,keypress(m),500,455944,455944,452780.58,452785,452781.06,455945.2,8,400,30,,ISIC_0331124.JPG
break,html.Screen,4_79_1,2023-09-08T19:54:05.309Z,,0,,,NaN,,,,,,false,,,,455946,455946,,455945,,455945.2,8,400,,,
break_continue,html.Screen,4_79_2,2023-09-08T19:54:05.310Z,,0,,,NaN,,,,,,false,,,,455948,455947,,455947,,455945.2,8,400,,,
sequence,flow.Sequence,4_79,2023-09-08T19:54:05.311Z,,0,,,3165.9400000000023,completion,,,,,false,,,,455949,455947,452780.58,452785,452781.06,455945.2,8,400,,,
trial,html.Screen,4_80_0,2023-09-08T19:54:08.719Z,,0,2,,3411.7999999999884,response,ISIC_0027693.JPG,5,ISIC_0032699.JPG,ISIC_0027693.JPG,false,1,keypress(m),500,459357,459357,455944.94,455949,455945.2,459358.24,8,400,31,,ISIC_0032699.JPG
break,html.Screen,4_80_1,2023-09-08T19:54:08.722Z,,0,,,NaN,,,,,,false,,,,459359,459359,,459358,,459358.24,8,400,,,
break_continue,html.Screen,4_80_2,2023-09-08T19:54:08.723Z,,0,,,NaN,,,,,,false,,,,459360,459360,,459359,,459358.24,8,400,,,
sequence,flow.Sequence,4_80,2023-09-08T19:54:08.723Z,,0,,,3414.7999999999884,completion,,,,,false,,,,459361,459360,455944.94,455949,455945.2,459358.24,8,400,,,
trial,html.Screen,4_81_0,2023-09-08T19:54:12.559Z,,0,2,,3837.7600000000093,response,ISIC_0027171.JPG,1,ISIC_2070595.JPG,ISIC_0027171.JPG,false,1,keypress(m),500,463197,463196,459357.82,459362,459358.24,463197.98,8,400,32,,ISIC_2070595.JPG
break,html.Screen,4_81_1,2023-09-08T19:54:12.562Z,,0,,,NaN,,,,,,false,,,,463199,463198,,463197,,463197.98,8,400,,,
break_continue,html.Screen,4_81_2,2023-09-08T19:54:12.563Z,,0,,,NaN,,,,,,false,,,,463200,463199,,463199,,463197.98,8,400,,,
sequence,flow.Sequence,4_81,2023-09-08T19:54:12.563Z,,0,,,3840.7600000000093,completion,,,,,false,,,,463201,463199,459357.82,459362,459358.24,463197.98,8,400,,,
trial,html.Screen,4_82_0,2023-09-08T19:54:16.182Z,,0,2,,3621.0200000000186,response,ISIC_0033916.JPG,2,ISIC_0067830.JPG,ISIC_0033916.JPG,false,1,keypress(m),500,466820,466819,463197.64,463201,463197.98,466820.58,8,400,33,,ISIC_0067830.JPG
break,html.Screen,4_82_1,2023-09-08T19:54:16.184Z,,0,,,NaN,,,,,,false,,,,466822,466821,,466820,,466820.58,8,400,,,
break_continue,html.Screen,4_82_2,2023-09-08T19:54:16.186Z,,0,,,NaN,,,,,,false,,,,466823,466822,,466822,,466820.58,8,400,,,
sequence,flow.Sequence,4_82,2023-09-08T19:54:16.186Z,,0,,,3624.0200000000186,completion,,,,,false,,,,466823,466822,463197.64,463201,463197.98,466820.58,8,400,,,
trial,html.Screen,4_83_0,2023-09-08T19:54:19.379Z,,0,2,,3195.4199999999837,response,ISIC_0000174.JPG,0,ISIC_0025611.JPG,ISIC_0025611.JPG,false,0,keypress(z),500,470017,470016,466820.16,466824,466820.58,470018.4,8,400,34,,ISIC_0000174.JPG
break,html.Screen,4_83_1,2023-09-08T19:54:19.381Z,,0,,,NaN,,,,,,false,,,,470020,470019,,470018,,470018.4,8,400,,,
break_continue,html.Screen,4_83_2,2023-09-08T19:54:19.383Z,,0,,,NaN,,,,,,false,,,,470021,470021,,470020,,470018.4,8,400,,,
sequence,flow.Sequence,4_83,2023-09-08T19:54:19.384Z,,0,,,3200.4199999999837,completion,,,,,false,,,,470022,470021,466820.16,466824,466820.58,470018.4,8,400,,,
trial,html.Screen,4_84_0,2023-09-08T19:54:23.740Z,,0,2,,4358.599999999977,response,ISIC_0010034.JPG,7,ISIC_0068633.JPG,ISIC_0010034.JPG,false,1,keypress(m),500,474378,474377,470017.9,470023,470018.4,474378.4,8,400,35,,ISIC_0068633.JPG
break,html.Screen,4_84_1,2023-09-08T19:54:23.742Z,,0,,,NaN,,,,,,false,,,,474379,474379,,474378,,474378.4,8,400,,,
break_continue,html.Screen,4_84_2,2023-09-08T19:54:23.744Z,,0,,,NaN,,,,,,false,,,,474381,474380,,474380,,474378.4,8,400,,,
sequence,flow.Sequence,4_84,2023-09-08T19:54:23.745Z,,0,,,4361.599999999977,completion,,,,,false,,,,474382,474380,470017.9,470022,470018.4,474378.4,8,400,,,
trial,html.Screen,4_85_0,2023-09-08T19:54:27.411Z,,0,2,,3668.5999999999767,response,ISIC_0032161.JPG,1,ISIC_0726170.JPG,ISIC_0726170.JPG,false,0,keypress(z),500,478048,478047,474377.92,474383,474378.4,478049,8,400,36,,ISIC_0032161.JPG
break,html.Screen,4_85_1,2023-09-08T19:54:27.413Z,,0,,,NaN,,,,,,false,,,,478050,478049,,478048,,478049,8,400,,,
break_continue,html.Screen,4_85_2,2023-09-08T19:54:27.414Z,,0,,,NaN,,,,,,false,,,,478051,478051,,478050,,478049,8,400,,,
sequence,flow.Sequence,4_85,2023-09-08T19:54:27.414Z,,0,,,3672.5999999999767,completion,,,,,false,,,,478052,478051,474377.92,474383,474378.4,478049,8,400,,,
trial,html.Screen,4_86_0,2023-09-08T19:54:31.112Z,,0,2,,3700,response,ISIC_4517738.JPG,3,ISIC_7775535.JPG,ISIC_7775535.JPG,false,0,keypress(z),500,481750,481749,478048.62,478053,478049,481751.2,8,400,37,,ISIC_4517738.JPG
break,html.Screen,4_86_1,2023-09-08T19:54:31.115Z,,0,,,NaN,,,,,,false,,,,481752,481752,,481751,,481751.2,8,400,,,
break_continue,html.Screen,4_86_2,2023-09-08T19:54:31.116Z,,0,,,NaN,,,,,,false,,,,481754,481754,,481753,,481751.2,8,400,,,
sequence,flow.Sequence,4_86,2023-09-08T19:54:31.117Z,,0,,,3705,completion,,,,,false,,,,481755,481754,478048.62,478052,478049,481751.2,8,400,,,
trial,html.Screen,4_87_0,2023-09-08T19:54:34.353Z,,0,2,,3239.7999999999884,response,ISIC_0024355.JPG,6,ISIC_4212044.JPG,ISIC_4212044.JPG,false,0,keypress(z),500,484991,484991,481750.8,481756,481751.2,484992.06,8,400,38,,ISIC_0024355.JPG
break,html.Screen,4_87_1,2023-09-08T19:54:34.356Z,,0,,,NaN,,,,,,false,,,,484993,484993,,484992,,484992.06,8,400,,,
break_continue,html.Screen,4_87_2,2023-09-08T19:54:34.358Z,,0,,,NaN,,,,,,false,,,,484995,484995,,484994,,484992.06,8,400,,,
sequence,flow.Sequence,4_87,2023-09-08T19:54:34.358Z,,0,,,3243.7999999999884,completion,,,,,false,,,,484995,484995,481750.8,481756,481751.2,484992.06,8,400,,,
trial,html.Screen,4_88_0,2023-09-08T19:54:37.368Z,,0,2,,3013.9400000000023,response,ISIC_0056819.JPG,6,ISIC_4163843.JPG,ISIC_4163843.JPG,false,0,keypress(z),500,488006,488006,484991.62,484996,484992.06,488021.88,8,400,39,,ISIC_0056819.JPG
break,html.Screen,4_88_1,2023-09-08T19:54:37.371Z,,0,,,NaN,,,,,,false,,,,488009,488008,,488007,,488021.88,8,400,,,
break_continue,html.Screen,4_88_2,2023-09-08T19:54:37.373Z,,0,,,NaN,,,,,,false,,,,488010,488010,,488009,,488021.88,8,400,,,
sequence,flow.Sequence,4_88,2023-09-08T19:54:37.374Z,,0,,,3017.9400000000023,completion,,,,,false,,,,488012,488010,484991.62,484995,484992.06,488021.88,8,400,,,
trial,html.Screen,4_89_0,2023-09-08T19:54:41.068Z,,0,2,,3684.1199999999953,response,ISIC_4241907.JPG,2,ISIC_7424320.JPG,ISIC_7424320.JPG,false,0,keypress(z),500,491706,491706,488005.68,488013,488021.88,491723.86,8,400,40,,ISIC_4241907.JPG
break,html.Screen,4_89_1,2023-09-08T19:54:41.071Z,,0,,,NaN,,,,,,false,,,,491709,491708,,491707,,491723.86,8,400,,,
break_continue,html.Screen,4_89_2,2023-09-08T19:54:41.072Z,,0,,,NaN,,,,,,false,,,,491710,491709,,491709,,491723.86,8,400,,,
sequence,flow.Sequence,4_89,2023-09-08T19:54:41.073Z,,0,,,3687.1199999999953,completion,,,,,false,,,,491711,491709,488005.68,488012,488021.88,491723.86,8,400,,,
trial,html.Screen,4_90_0,2023-09-08T19:54:43.954Z,,0,2,,2867.140000000014,response,ISIC_5108076.JPG,6,ISIC_0009984.JPG,ISIC_5108076.JPG,false,1,keypress(m),500,494591,494591,491707.76,491712,491723.86,494592.7,8,400,41,,ISIC_0009984.JPG
break,html.Screen,4_90_1,2023-09-08T19:54:43.956Z,,0,,,NaN,,,,,,false,,,,494594,494593,,494592,,494592.7,8,400,,,
break_continue,html.Screen,4_90_2,2023-09-08T19:54:43.957Z,,0,,,NaN,,,,,,false,,,,494595,494595,,494594,,494592.7,8,400,,,
sequence,flow.Sequence,4_90,2023-09-08T19:54:43.958Z,,0,,,2871.140000000014,completion,,,,,false,,,,494596,494595,491707.76,491711,491723.86,494592.7,8,400,,,
trial,html.Screen,4_91_0,2023-09-08T19:54:46.974Z,,0,2,,3019.2999999999884,response,ISIC_0055887.JPG,4,ISIC_0031926.JPG,ISIC_0055887.JPG,false,1,keypress(m),500,497613,497612,494592.3,494596,494592.7,497613.86,8,400,42,,ISIC_0031926.JPG
break,html.Screen,4_91_1,2023-09-08T19:54:46.977Z,,0,,,NaN,,,,,,false,,,,497615,497614,,497613,,497613.86,8,400,,,
break_continue,html.Screen,4_91_2,2023-09-08T19:54:46.979Z,,0,,,NaN,,,,,,false,,,,497617,497616,,497616,,497613.86,8,400,,,
sequence,flow.Sequence,4_91,2023-09-08T19:54:46.980Z,,0,,,3023.2999999999884,completion,,,,,false,,,,497617,497616,494592.3,494596,494592.7,497613.86,8,400,,,
trial,html.Screen,4_92_0,2023-09-08T19:54:50.175Z,,0,2,,3198.140000000014,response,ISIC_0000000.JPG,3,ISIC_0185547.JPG,ISIC_0000000.JPG,false,1,keypress(m),500,500812,500812,497613.4,497618,497613.86,500813.98,8,400,43,,ISIC_0185547.JPG
break,html.Screen,4_92_1,2023-09-08T19:54:50.177Z,,0,,,NaN,,,,,,false,,,,500816,500815,,500813,,500813.98,8,400,,,
break_continue,html.Screen,4_92_2,2023-09-08T19:54:50.180Z,,0,,,NaN,,,,,,false,,,,500818,500817,,500816,,500813.98,8,400,,,
sequence,flow.Sequence,4_92,2023-09-08T19:54:50.181Z,,0,,,3203.140000000014,completion,,,,,false,,,,500819,500817,497613.4,497618,497613.86,500813.98,8,400,,,
trial,html.Screen,4_93_0,2023-09-08T19:54:55.573Z,,0,2,,5397.020000000019,response,ISIC_0070017.JPG,5,ISIC_6220625.JPG,ISIC_0070017.JPG,false,1,keypress(m),500,506211,506211,500813.54,500820,500813.98,506212.32,8,400,44,,ISIC_6220625.JPG
break,html.Screen,4_93_1,2023-09-08T19:54:55.575Z,,0,,,NaN,,,,,,false,,,,506213,506213,,506212,,506212.32,8,400,,,
break_continue,html.Screen,4_93_2,2023-09-08T19:54:55.577Z,,0,,,NaN,,,,,,false,,,,506215,506214,,506214,,506212.32,8,400,,,
sequence,flow.Sequence,4_93,2023-09-08T19:54:55.578Z,,0,,,5400.020000000019,completion,,,,,false,,,,506216,506214,500813.54,500820,500813.98,506212.32,8,400,,,
trial,html.Screen,4_94_0,2023-09-08T19:55:00.189Z,,0,2,,4614.679999999993,response,ISIC_0069398.JPG,5,ISIC_0000163.JPG,ISIC_0069398.JPG,false,1,keypress(m),500,510828,510827,506211.76,506216,506212.32,510828.62,8,400,45,,ISIC_0000163.JPG
break,html.Screen,4_94_1,2023-09-08T19:55:00.192Z,,0,,,NaN,,,,,,false,,,,510830,510829,,510828,,510828.62,8,400,,,
break_continue,html.Screen,4_94_2,2023-09-08T19:55:00.193Z,,0,,,NaN,,,,,,false,,,,510831,510831,,510830,,510828.62,8,400,,,
sequence,flow.Sequence,4_94,2023-09-08T19:55:00.195Z,,0,,,4618.679999999993,completion,,,,,false,,,,510832,510831,506211.76,506216,506212.32,510828.62,8,400,,,
trial,html.Screen,4_95_0,2023-09-08T19:55:05.944Z,,0,2,,5751.380000000005,response,ISIC_6352730.JPG,1,ISIC_0065477.JPG,ISIC_6352730.JPG,false,1,keypress(m),500,516581,516580,510828.2,510833,510828.62,516582.38,8,400,46,,ISIC_0065477.JPG
break,html.Screen,4_95_1,2023-09-08T19:55:05.946Z,,0,,,NaN,,,,,,false,,,,516584,516583,,516581,,516582.38,8,400,,,
break_continue,html.Screen,4_95_2,2023-09-08T19:55:05.947Z,,0,,,NaN,,,,,,false,,,,516585,516584,,516584,,516582.38,8,400,,,
sequence,flow.Sequence,4_95,2023-09-08T19:55:05.947Z,,0,,,5755.380000000005,completion,,,,,false,,,,516586,516584,510828.2,510832,510828.62,516582.38,8,400,,,
trial,html.Screen,4_96_0,2023-09-08T19:55:10.473Z,,0,2,,4526.619999999995,response,ISIC_0068884.JPG,1,ISIC_9709101.JPG,ISIC_9709101.JPG,false,0,keypress(z),500,521110,521109,516581.94,516587,516582.38,521111.46,8,400,47,,ISIC_0068884.JPG
break,html.Screen,4_96_1,2023-09-08T19:55:10.475Z,,0,,,NaN,,,,,,false,,,,521113,521112,,521111,,521111.46,8,400,,,
break_continue,html.Screen,4_96_2,2023-09-08T19:55:10.476Z,,0,,,NaN,,,,,,false,,,,521114,521114,,521113,,521111.46,8,400,,,
sequence,flow.Sequence,4_96,2023-09-08T19:55:10.477Z,,0,,,4531.619999999995,completion,,,,,false,,,,521115,521114,516581.94,516586,516582.38,521111.46,8,400,,,
trial,html.Screen,4_97_0,2023-09-08T19:55:13.394Z,,0,2,,2919.539999999979,response,ISIC_2421696.JPG,3,ISIC_5581297.JPG,ISIC_2421696.JPG,false,1,keypress(m),500,524032,524031,521110.94,521115,521111.46,524033.28,8,400,48,,ISIC_5581297.JPG
break,html.Screen,4_97_1,2023-09-08T19:55:13.397Z,,0,,,NaN,,,,,,false,,,,524034,524033,,524032,,524033.28,8,400,,,
break_continue,html.Screen,4_97_2,2023-09-08T19:55:13.398Z,,0,,,NaN,,,,,,false,,,,524035,524035,,524034,,524033.28,8,400,,,
sequence,flow.Sequence,4_97,2023-09-08T19:55:13.399Z,,0,,,2923.539999999979,completion,,,,,false,,,,524036,524035,521110.94,521115,521111.46,524033.28,8,400,,,
trial,html.Screen,4_98_0,2023-09-08T19:55:18.393Z,,0,2,,4996.719999999972,response,ISIC_9944671.JPG,1,ISIC_5823859.JPG,ISIC_9944671.JPG,false,1,keypress(m),500,529031,529030,524032.4,524037,524033.28,529032.14,8,400,49,,ISIC_5823859.JPG
break,html.Screen,4_98_1,2023-09-08T19:55:18.396Z,,0,,,NaN,,,,,,false,,,,529033,529033,,529031,,529032.14,8,400,,,
break_continue,html.Screen,4_98_2,2023-09-08T19:55:18.398Z,,0,,,NaN,,,,,,false,,,,529035,529034,,529034,,529032.14,8,400,,,
sequence,flow.Sequence,4_98,2023-09-08T19:55:18.398Z,,0,,,5000.719999999972,completion,,,,,false,,,,529036,529034,524032.4,524036,524033.28,529032.14,8,400,,,
trial,html.Screen,4_99_0,2023-09-08T19:55:22.728Z,,0,2,,4332.859999999986,response,ISIC_8615491.JPG,2,ISIC_6710082.JPG,ISIC_6710082.JPG,false,0,keypress(z),500,533366,533365,529031.68,529036,529032.14,533367.2,8,400,50,,ISIC_8615491.JPG
break,html.Screen,4_99_1,2023-09-08T19:55:32.712Z,,0,,,9998.520000000019,timeout,,,,,false,,,,543350,543348.52,533366.74,533367,533367.2,543365.72,8,400,,,
break_continue,html.Screen,4_99_2,2023-09-08T19:56:01.590Z,,0,,,28833.280000000028,response,,,,,false,continue,keypress(Space),,572228,572199,543348.52,543350,543365.72,572233.06,8,400,,,
sequence,flow.Sequence,4_99,2023-09-08T19:56:01.591Z,,0,,,43166.859999999986,completion,,,,,false,,,,572228,572199,529031.68,529036,529032.14,572233.06,8,400,,,
trial,html.Screen,4_100_0,2023-09-08T19:56:04.676Z,,0,3,,3079.939999999944,response,ISIC_6535558.JPG,1,ISIC_0273046.JPG,ISIC_6535558.JPG,false,1,keypress(m),500,575314,575313,572216.9,572229,572233.06,575315.22,8,400,1,,ISIC_0273046.JPG
break,html.Screen,4_100_1,2023-09-08T19:56:04.679Z,,0,,,NaN,,,,,,false,,,,575316,575316,,575314,,575315.22,8,400,,,
break_continue,html.Screen,4_100_2,2023-09-08T19:56:04.681Z,,0,,,NaN,,,,,,false,,,,575318,575317,,575317,,575315.22,8,400,,,
sequence,flow.Sequence,4_100,2023-09-08T19:56:04.682Z,,0,,,3083.939999999944,completion,,,,,false,,,,575319,575317,572216.9,572228,572233.06,575315.22,8,400,,,
trial,html.Screen,4_101_0,2023-09-08T19:56:09.013Z,,0,3,,4334.780000000028,response,ISIC_8624186.JPG,13,ISIC_9330527.JPG,ISIC_8624186.JPG,false,1,keypress(m),500,579650,579650,575314.54,575320,575315.22,579651.82,8,400,2,,ISIC_9330527.JPG
break,html.Screen,4_101_1,2023-09-08T19:56:09.015Z,,0,,,NaN,,,,,,false,,,,579653,579652,,579651,,579651.82,8,400,,,
break_continue,html.Screen,4_101_2,2023-09-08T19:56:09.017Z,,0,,,NaN,,,,,,false,,,,579655,579654,,579654,,579651.82,8,400,,,
sequence,flow.Sequence,4_101,2023-09-08T19:56:09.018Z,,0,,,4338.780000000028,completion,,,,,false,,,,579655,579654,575314.54,575320,575315.22,579651.82,8,400,,,
trial,html.Screen,4_102_0,2023-09-08T19:56:14.326Z,,0,3,,5311.180000000051,response,ISIC_0053841.JPG,4,ISIC_1720840.JPG,ISIC_1720840.JPG,false,0,keypress(z),500,584964,584963,579651.32,579656,579651.82,584965.54,8,400,3,,ISIC_0053841.JPG
break,html.Screen,4_102_1,2023-09-08T19:56:14.329Z,,0,,,NaN,,,,,,false,,,,584967,584966,,584965,,584965.54,8,400,,,
break_continue,html.Screen,4_102_2,2023-09-08T19:56:14.331Z,,0,,,NaN,,,,,,false,,,,584968,584968,,584967,,584965.54,8,400,,,
sequence,flow.Sequence,4_102,2023-09-08T19:56:14.332Z,,0,,,5316.180000000051,completion,,,,,false,,,,584969,584968,579651.32,579656,579651.82,584965.54,8,400,,,
trial,html.Screen,4_103_0,2023-09-08T19:56:17.656Z,,0,3,,3328.4599999999627,response,ISIC_0009950.JPG,6,ISIC_4055361.JPG,ISIC_0009950.JPG,false,1,keypress(m),500,588294,588294,584965.06,584970,584965.54,588295.36,8,400,4,,ISIC_4055361.JPG
break,html.Screen,4_103_1,2023-09-08T19:56:17.659Z,,0,,,NaN,,,,,,false,,,,588297,588296,,588295,,588295.36,8,400,,,
break_continue,html.Screen,4_103_2,2023-09-08T19:56:17.660Z,,0,,,NaN,,,,,,false,,,,588298,588298,,588297,,588295.36,8,400,,,
sequence,flow.Sequence,4_103,2023-09-08T19:56:17.661Z,,0,,,3332.4599999999627,completion,,,,,false,,,,588300,588298,584965.06,584970,584965.54,588295.36,8,400,,,
trial,html.Screen,4_104_0,2023-09-08T19:56:20.496Z,,0,3,,2837.640000000014,response,ISIC_0062058.JPG,16,ISIC_0058877.JPG,ISIC_0058877.JPG,false,0,keypress(z),500,591134,591133,588294.92,588300,588295.36,591134.76,8,400,5,,ISIC_0062058.JPG
break,html.Screen,4_104_1,2023-09-08T19:56:20.498Z,,0,,,NaN,,,,,,false,,,,591136,591135,,591135,,591134.76,8,400,,,
break_continue,html.Screen,4_104_2,2023-09-08T19:56:20.499Z,,0,,,NaN,,,,,,false,,,,591137,591137,,591136,,591134.76,8,400,,,
sequence,flow.Sequence,4_104,2023-09-08T19:56:20.500Z,,0,,,2841.640000000014,completion,,,,,false,,,,591137,591137,588294.92,588300,588295.36,591134.76,8,400,,,
trial,html.Screen,4_105_0,2023-09-08T19:56:25.783Z,,0,3,,5286.239999999991,response,ISIC_8320640.JPG,11,ISIC_6780471.JPG,ISIC_8320640.JPG,false,1,keypress(m),500,596421,596421,591134.34,591138,591134.76,596422.36,8,400,6,,ISIC_6780471.JPG
break,html.Screen,4_105_1,2023-09-08T19:56:25.785Z,,0,,,NaN,,,,,,false,,,,596423,596423,,596422,,596422.36,8,400,,,
break_continue,html.Screen,4_105_2,2023-09-08T19:56:25.787Z,,0,,,NaN,,,,,,false,,,,596424,596424,,596423,,596422.36,8,400,,,
sequence,flow.Sequence,4_105,2023-09-08T19:56:25.788Z,,0,,,5289.239999999991,completion,,,,,false,,,,596425,596424,591134.34,591138,591134.76,596422.36,8,400,,,
trial,html.Screen,4_106_0,2023-09-08T19:56:29.435Z,,0,3,,3649.640000000014,response,ISIC_3888713.JPG,5,ISIC_8357679.JPG,ISIC_3888713.JPG,false,1,keypress(m),500,600072,600072,596421.96,596426,596422.36,600073.78,8,400,7,,ISIC_8357679.JPG
break,html.Screen,4_106_1,2023-09-08T19:56:29.438Z,,0,,,NaN,,,,,,false,,,,600075,600074,,600073,,600073.78,8,400,,,
break_continue,html.Screen,4_106_2,2023-09-08T19:56:29.439Z,,0,,,NaN,,,,,,false,,,,600077,600076,,600076,,600073.78,8,400,,,
sequence,flow.Sequence,4_106,2023-09-08T19:56:29.440Z,,0,,,3653.640000000014,completion,,,,,false,,,,600077,600076,596421.96,596426,596422.36,600073.78,8,400,,,
trial,html.Screen,4_107_0,2023-09-08T19:56:33.544Z,,0,3,,4108.219999999972,response,ISIC_7826557.JPG,3,ISIC_0071135.JPG,ISIC_7826557.JPG,false,1,keypress(m),500,604182,604182,600073.26,600078,600073.78,604183.76,8,400,8,,ISIC_0071135.JPG
break,html.Screen,4_107_1,2023-09-08T19:56:33.547Z,,0,,,NaN,,,,,,false,,,,604185,604184,,604183,,604183.76,8,400,,,
break_continue,html.Screen,4_107_2,2023-09-08T19:56:33.549Z,,0,,,NaN,,,,,,false,,,,604186,604186,,604185,,604183.76,8,400,,,
sequence,flow.Sequence,4_107,2023-09-08T19:56:33.549Z,,0,,,4112.219999999972,completion,,,,,false,,,,604187,604186,600073.26,600078,600073.78,604183.76,8,400,,,
trial,html.Screen,4_108_0,2023-09-08T19:56:36.911Z,,0,3,,3365.2399999999907,response,ISIC_8918703.JPG,6,ISIC_0059093.JPG,ISIC_8918703.JPG,false,1,keypress(m),500,607549,607549,604183.3,604188,604183.76,607550.16,8,400,9,,ISIC_0059093.JPG
break,html.Screen,4_108_1,2023-09-08T19:56:36.914Z,,0,,,NaN,,,,,,false,,,,607551,607551,,607550,,607550.16,8,400,,,
break_continue,html.Screen,4_108_2,2023-09-08T19:56:36.915Z,,0,,,NaN,,,,,,false,,,,607552,607552,,607552,,607550.16,8,400,,,
sequence,flow.Sequence,4_108,2023-09-08T19:56:36.916Z,,0,,,3368.2399999999907,completion,,,,,false,,,,607553,607552,604183.3,604188,604183.76,607550.16,8,400,,,
trial,html.Screen,4_109_0,2023-09-08T19:56:48.393Z,,0,3,,11511.659999999916,timeout,ISIC_3920274.JPG,12,ISIC_0878793.JPG,,false,,,500,619030,619030,607549.68,607554,607550.16,619061.82,8,400,10,,
break,html.Screen,4_109_1,2023-09-08T19:56:48.395Z,,0,,,NaN,,,,,,false,,,,619032,619031,,619031,,619061.82,8,400,,,
break_continue,html.Screen,4_109_2,2023-09-08T19:56:48.396Z,,0,,,NaN,,,,,,false,,,,619033,619033,,619032,,619061.82,8,400,,,
sequence,flow.Sequence,4_109,2023-09-08T19:56:48.397Z,,0,,,11482.839999999967,completion,,,,,false,,,,619034,619033,607549.68,607554,607550.16,619061.82,8,400,,,
trial,html.Screen,4_110_0,2023-09-08T19:56:53.892Z,,0,3,,5466.180000000051,response,ISIC_0054973.JPG,4,ISIC_3975743.JPG,ISIC_3975743.JPG,false,0,keypress(z),500,624529,624528,619044.68,619035,619061.82,624530.72,8,400,11,,ISIC_0054973.JPG
break,html.Screen,4_110_1,2023-09-08T19:56:53.894Z,,0,,,NaN,,,,,,false,,,,624531,624531,,624530,,624530.72,8,400,,,
break_continue,html.Screen,4_110_2,2023-09-08T19:56:53.895Z,,0,,,NaN,,,,,,false,,,,624534,624533,,624533,,624530.72,8,400,,,
sequence,flow.Sequence,4_110,2023-09-08T19:56:53.896Z,,0,,,5471.180000000051,completion,,,,,false,,,,624534,624533,619044.68,619034,619061.82,624530.72,8,400,,,
trial,html.Screen,4_111_0,2023-09-08T19:56:57.551Z,,0,3,,3657.280000000028,response,ISIC_5718805.JPG,5,ISIC_2614347.JPG,ISIC_5718805.JPG,false,1,keypress(m),500,628188,628188,624530.38,624534,624530.72,628210.36,8,400,12,,ISIC_2614347.JPG
break,html.Screen,4_111_1,2023-09-08T19:56:57.553Z,,0,,,NaN,,,,,,false,,,,628191,628190,,628189,,628210.36,8,400,,,
break_continue,html.Screen,4_111_2,2023-09-08T19:56:57.555Z,,0,,,NaN,,,,,,false,,,,628194,628192,,628192,,628210.36,8,400,,,
sequence,flow.Sequence,4_111,2023-09-08T19:56:57.556Z,,0,,,3661.280000000028,completion,,,,,false,,,,628195,628192,624530.38,624534,624530.72,628210.36,8,400,,,
trial,html.Screen,4_112_0,2023-09-08T19:57:01.422Z,,0,3,,3848.640000000014,response,ISIC_0026314.JPG,6,ISIC_2908315.JPG,ISIC_2908315.JPG,false,0,keypress(z),500,632060,632059,628188.78,628197,628210.36,632060.46,8,400,13,,ISIC_0026314.JPG
break,html.Screen,4_112_1,2023-09-08T19:57:01.424Z,,0,,,NaN,,,,,,false,,,,632062,632061,,632060,,632060.46,8,400,,,
break_continue,html.Screen,4_112_2,2023-09-08T19:57:01.425Z,,0,,,NaN,,,,,,false,,,,632063,632062,,632062,,632060.46,8,400,,,
sequence,flow.Sequence,4_112,2023-09-08T19:57:01.426Z,,0,,,3851.640000000014,completion,,,,,false,,,,632063,632062,628188.78,628195,628210.36,632060.46,8,400,,,
trial,html.Screen,4_113_0,2023-09-08T19:57:05.405Z,,0,3,,3980.5400000000373,response,ISIC_0062980.JPG,15,ISIC_7621412.JPG,ISIC_7621412.JPG,false,0,keypress(z),500,636042,636041,632060.08,632064,632060.46,636043.72,8,400,14,,ISIC_0062980.JPG
break,html.Screen,4_113_1,2023-09-08T19:57:05.407Z,,0,,,NaN,,,,,,false,,,,636045,636044,,636043,,636043.72,8,400,,,
break_continue,html.Screen,4_113_2,2023-09-08T19:57:05.409Z,,0,,,NaN,,,,,,false,,,,636046,636045,,636045,,636043.72,8,400,,,
sequence,flow.Sequence,4_113,2023-09-08T19:57:05.410Z,,0,,,3984.5400000000373,completion,,,,,false,,,,636047,636045,632060.08,632064,632060.46,636043.72,8,400,,,
trial,html.Screen,4_114_0,2023-09-08T19:57:09.417Z,,0,3,,4010.280000000028,response,ISIC_0028883.JPG,5,ISIC_4026540.JPG,ISIC_4026540.JPG,false,0,keypress(z),500,640055,640054,636043.18,636047,636043.72,640055.9,8,400,15,,ISIC_0028883.JPG
break,html.Screen,4_114_1,2023-09-08T19:57:09.420Z,,0,,,NaN,,,,,,false,,,,640058,640057,,640055,,640055.9,8,400,,,
break_continue,html.Screen,4_114_2,2023-09-08T19:57:09.421Z,,0,,,NaN,,,,,,false,,,,640059,640058,,640058,,640055.9,8,400,,,
sequence,flow.Sequence,4_114,2023-09-08T19:57:09.422Z,,0,,,4014.280000000028,completion,,,,,false,,,,640059,640058,636043.18,636047,636043.72,640055.9,8,400,,,
trial,html.Screen,4_115_0,2023-09-08T19:57:13.681Z,,0,3,,4263.099999999977,response,ISIC_6805527.JPG,1,ISIC_4964478.JPG,ISIC_6805527.JPG,false,1,keypress(m),500,644319,644319,640055.5,640060,640055.9,644320.3,8,400,16,,ISIC_4964478.JPG
break,html.Screen,4_115_1,2023-09-08T19:57:13.683Z,,0,,,NaN,,,,,,false,,,,644321,644321,,644320,,644320.3,8,400,,,
break_continue,html.Screen,4_115_2,2023-09-08T19:57:13.685Z,,0,,,NaN,,,,,,false,,,,644323,644323,,644322,,644320.3,8,400,,,
sequence,flow.Sequence,4_115,2023-09-08T19:57:13.686Z,,0,,,4267.099999999977,completion,,,,,false,,,,644323,644323,640055.5,640060,640055.9,644320.3,8,400,,,
trial,html.Screen,4_116_0,2023-09-08T19:57:18.776Z,,0,3,,5092.699999999953,response,ISIC_0918078.JPG,5,ISIC_0004996.JPG,ISIC_0918078.JPG,false,1,keypress(m),500,649414,649413,644319.86,644324,644320.3,649415.64,8,400,17,,ISIC_0004996.JPG
break,html.Screen,4_116_1,2023-09-08T19:57:18.779Z,,0,,,NaN,,,,,,false,,,,649416,649416,,649415,,649415.64,8,400,,,
break_continue,html.Screen,4_116_2,2023-09-08T19:57:18.780Z,,0,,,NaN,,,,,,false,,,,649419,649418,,649418,,649415.64,8,400,,,
sequence,flow.Sequence,4_116,2023-09-08T19:57:18.781Z,,0,,,5097.699999999953,completion,,,,,false,,,,649419,649418,644319.86,644324,644320.3,649415.64,8,400,,,
trial,html.Screen,4_117_0,2023-09-08T19:57:22.522Z,,0,3,,3744.359999999986,response,ISIC_0070254.JPG,5,ISIC_2366172.JPG,ISIC_0070254.JPG,false,1,keypress(m),500,653160,653160,649415.36,649419,649415.64,653161.66,8,400,18,,ISIC_2366172.JPG
break,html.Screen,4_117_1,2023-09-08T19:57:22.526Z,,0,,,NaN,,,,,,false,,,,653163,653162,,653161,,653161.66,8,400,,,
break_continue,html.Screen,4_117_2,2023-09-08T19:57:22.526Z,,0,,,NaN,,,,,,false,,,,653165,653164,,653164,,653161.66,8,400,,,
sequence,flow.Sequence,4_117,2023-09-08T19:57:22.527Z,,0,,,3748.359999999986,completion,,,,,false,,,,653165,653164,649415.36,649419,649415.64,653161.66,8,400,,,
trial,html.Screen,4_118_0,2023-09-08T19:57:26.524Z,,0,3,,3999.3399999999674,response,ISIC_0057594.JPG,5,ISIC_0025006.JPG,ISIC_0025006.JPG,false,0,keypress(z),500,657162,657161,653161.16,653165,653161.66,657163.12,8,400,19,,ISIC_0057594.JPG
break,html.Screen,4_118_1,2023-09-08T19:57:26.527Z,,0,,,NaN,,,,,,false,,,,657164,657163,,657162,,657163.12,8,400,,,
break_continue,html.Screen,4_118_2,2023-09-08T19:57:26.528Z,,0,,,NaN,,,,,,false,,,,657166,657166,,657164,,657163.12,8,400,,,
sequence,flow.Sequence,4_118,2023-09-08T19:57:26.529Z,,0,,,4004.3399999999674,completion,,,,,false,,,,657166,657166,653161.16,653165,653161.66,657163.12,8,400,,,
trial,html.Screen,4_119_0,2023-09-08T19:57:29.985Z,,0,3,,3458.8800000000047,response,ISIC_3664380.JPG,4,ISIC_0032509.JPG,ISIC_3664380.JPG,false,1,keypress(m),500,660622,660622,657162.82,657167,657163.12,660623.76,8,400,20,,ISIC_0032509.JPG
break,html.Screen,4_119_1,2023-09-08T19:57:29.987Z,,0,,,NaN,,,,,,false,,,,660625,660624,,660623,,660623.76,8,400,,,
break_continue,html.Screen,4_119_2,2023-09-08T19:57:29.988Z,,0,,,NaN,,,,,,false,,,,660626,660625,,660625,,660623.76,8,400,,,
sequence,flow.Sequence,4_119,2023-09-08T19:57:29.989Z,,0,,,3461.8800000000047,completion,,,,,false,,,,660627,660625,657162.82,657167,657163.12,660623.76,8,400,,,
trial,html.Screen,4_120_0,2023-09-08T19:57:33.077Z,,0,3,,3090.2399999999907,response,ISIC_0055438.JPG,4,ISIC_0031118.JPG,ISIC_0031118.JPG,false,0,keypress(z),500,663715,663714,660623.46,660628,660623.76,663717.28,8,400,21,,ISIC_0055438.JPG
break,html.Screen,4_120_1,2023-09-08T19:57:33.080Z,,0,,,NaN,,,,,,false,,,,663719,663718,,663717,,663717.28,8,400,,,
break_continue,html.Screen,4_120_2,2023-09-08T19:57:33.083Z,,0,,,NaN,,,,,,false,,,,663720,663720,,663719,,663717.28,8,400,,,
sequence,flow.Sequence,4_120,2023-09-08T19:57:33.083Z,,0,,,3096.2399999999907,completion,,,,,false,,,,663721,663720,660623.46,660628,660623.76,663717.28,8,400,,,
trial,html.Screen,4_121_0,2023-09-08T19:57:37.815Z,,0,3,,4735.719999999972,response,ISIC_0000550.JPG,12,ISIC_1566428.JPG,ISIC_0000550.JPG,false,1,keypress(m),500,668453,668453,663716.4,663722,663717.28,668454.22,8,400,22,,ISIC_1566428.JPG
break,html.Screen,4_121_1,2023-09-08T19:57:37.818Z,,0,,,NaN,,,,,,false,,,,668455,668455,,668454,,668454.22,8,400,,,
break_continue,html.Screen,4_121_2,2023-09-08T19:57:37.819Z,,0,,,NaN,,,,,,false,,,,668456,668456,,668455,,668454.22,8,400,,,
sequence,flow.Sequence,4_121,2023-09-08T19:57:37.819Z,,0,,,4738.719999999972,completion,,,,,false,,,,668457,668456,663716.4,663722,663717.28,668454.22,8,400,,,
trial,html.Screen,4_122_0,2023-09-08T19:57:41.663Z,,0,3,,3845.780000000028,response,ISIC_7724635.JPG,2,ISIC_0024688.JPG,ISIC_7724635.JPG,false,1,keypress(m),500,672301,672300,668453.82,668458,668454.22,672302.46,8,400,23,,ISIC_0024688.JPG
break,html.Screen,4_122_1,2023-09-08T19:57:41.665Z,,0,,,NaN,,,,,,false,,,,672304,672303,,672302,,672302.46,8,400,,,
break_continue,html.Screen,4_122_2,2023-09-08T19:57:41.668Z,,0,,,NaN,,,,,,false,,,,672305,672305,,672305,,672302.46,8,400,,,
sequence,flow.Sequence,4_122,2023-09-08T19:57:41.668Z,,0,,,3850.780000000028,completion,,,,,false,,,,672306,672305,668453.82,668458,668454.22,672302.46,8,400,,,
trial,html.Screen,4_123_0,2023-09-08T19:57:45.023Z,,0,3,,3356.5400000000373,response,ISIC_0027408.JPG,5,ISIC_0057059.JPG,ISIC_0027408.JPG,false,1,keypress(m),500,675660,675659,672302,672306,672302.46,675661.04,8,400,24,,ISIC_0057059.JPG
break,html.Screen,4_123_1,2023-09-08T19:57:45.024Z,,0,,,NaN,,,,,,false,,,,675662,675661,,675661,,675661.04,8,400,,,
break_continue,html.Screen,4_123_2,2023-09-08T19:57:45.025Z,,0,,,NaN,,,,,,false,,,,675664,675663,,675663,,675661.04,8,400,,,
sequence,flow.Sequence,4_123,2023-09-08T19:57:45.026Z,,0,,,3360.5400000000373,completion,,,,,false,,,,675664,675663,672302,672306,672302.46,675661.04,8,400,,,
trial,html.Screen,4_124_0,2023-09-08T19:57:47.953Z,,0,3,,2927.9599999999627,response,ISIC_0057495.JPG,3,ISIC_0061915.JPG,ISIC_0057495.JPG,false,1,keypress(m),500,678590,678589,675660.66,675665,675661.04,678591.42,8,400,25,,ISIC_0061915.JPG
break,html.Screen,4_124_1,2023-09-08T19:57:47.955Z,,0,,,NaN,,,,,,false,,,,678593,678592,,678591,,678591.42,8,400,,,
break_continue,html.Screen,4_124_2,2023-09-08T19:57:47.956Z,,0,,,NaN,,,,,,false,,,,678594,678593,,678593,,678591.42,8,400,,,
sequence,flow.Sequence,4_124,2023-09-08T19:57:47.957Z,,0,,,2931.9599999999627,completion,,,,,false,,,,678595,678593,675660.66,675665,675661.04,678591.42,8,400,,,
trial,html.Screen,4_125_0,2023-09-08T19:57:53.358Z,,0,3,,5404.579999999958,response,ISIC_0067727.JPG,1,ISIC_8835545.JPG,ISIC_0067727.JPG,false,1,keypress(m),500,683996,683996,678591.04,678596,678591.42,683997.38,8,400,26,,ISIC_8835545.JPG
break,html.Screen,4_125_1,2023-09-08T19:57:53.361Z,,0,,,NaN,,,,,,false,,,,683999,683998,,683997,,683997.38,8,400,,,
break_continue,html.Screen,4_125_2,2023-09-08T19:57:53.363Z,,0,,,NaN,,,,,,false,,,,684000,684000,,684000,,683997.38,8,400,,,
sequence,flow.Sequence,4_125,2023-09-08T19:57:53.363Z,,0,,,5408.579999999958,completion,,,,,false,,,,684002,684000,678591.04,678595,678591.42,683997.38,8,400,,,
trial,html.Screen,4_126_0,2023-09-08T19:57:57.950Z,,0,3,,4589.619999999995,response,ISIC_3767325.JPG,15,ISIC_0015245.JPG,ISIC_3767325.JPG,false,1,keypress(m),500,688588,688587,683996.9,684003,683997.38,688614.82,8,400,27,,ISIC_0015245.JPG
break,html.Screen,4_126_1,2023-09-08T19:57:57.953Z,,0,,,NaN,,,,,,false,,,,688591,688590,,688589,,688614.82,8,400,,,
break_continue,html.Screen,4_126_2,2023-09-08T19:57:57.954Z,,0,,,NaN,,,,,,false,,,,688592,688591,,688591,,688614.82,8,400,,,
sequence,flow.Sequence,4_126,2023-09-08T19:57:57.954Z,,0,,,4593.619999999995,completion,,,,,false,,,,688592,688591,683996.9,684002,683997.38,688614.82,8,400,,,
trial,html.Screen,4_127_0,2023-09-08T19:58:00.832Z,,0,3,,2854.180000000051,response,ISIC_0000144.JPG,5,ISIC_0028103.JPG,ISIC_0028103.JPG,false,0,keypress(z),500,691470,691469,688597.7,688593,688614.82,691471.7,8,400,28,,ISIC_0000144.JPG
break,html.Screen,4_127_1,2023-09-08T19:58:00.835Z,,0,,,NaN,,,,,,false,,,,691473,691472,,691471,,691471.7,8,400,,,
break_continue,html.Screen,4_127_2,2023-09-08T19:58:00.836Z,,0,,,NaN,,,,,,false,,,,691475,691473,,691473,,691471.7,8,400,,,
sequence,flow.Sequence,4_127,2023-09-08T19:58:00.837Z,,0,,,2858.180000000051,completion,,,,,false,,,,691476,691473,688597.7,688593,688614.82,691471.7,8,400,,,
trial,html.Screen,4_128_0,2023-09-08T19:58:04.011Z,,0,3,,3175.3000000000466,response,ISIC_6416533.JPG,1,ISIC_9699615.JPG,ISIC_9699615.JPG,false,0,keypress(z),500,694648,694647,691471.38,691476,691471.7,694648.96,8,400,29,,ISIC_6416533.JPG
break,html.Screen,4_128_1,2023-09-08T19:58:04.012Z,,0,,,NaN,,,,,,false,,,,694649,694649,,694648,,694648.96,8,400,,,
break_continue,html.Screen,4_128_2,2023-09-08T19:58:04.013Z,,0,,,NaN,,,,,,false,,,,694652,694651,,694651,,694648.96,8,400,,,
sequence,flow.Sequence,4_128,2023-09-08T19:58:04.014Z,,0,,,3179.3000000000466,completion,,,,,false,,,,694653,694651,691471.38,691476,691471.7,694648.96,8,400,,,
trial,html.Screen,4_129_0,2023-09-08T19:58:09.348Z,,0,3,,5335.040000000037,response,ISIC_4183816.JPG,3,ISIC_6445453.JPG,ISIC_6445453.JPG,false,0,keypress(z),500,699985,699984,694648.56,694653,694648.96,699986.52,8,400,30,,ISIC_4183816.JPG
break,html.Screen,4_129_1,2023-09-08T19:58:09.350Z,,0,,,NaN,,,,,,false,,,,699987,699987,,699986,,699986.52,8,400,,,
break_continue,html.Screen,4_129_2,2023-09-08T19:58:09.352Z,,0,,,NaN,,,,,,false,,,,699989,699989,,699988,,699986.52,8,400,,,
sequence,flow.Sequence,4_129,2023-09-08T19:58:09.353Z,,0,,,5340.040000000037,completion,,,,,false,,,,699991,699989,694648.56,694653,694648.96,699986.52,8,400,,,
trial,html.Screen,4_130_0,2023-09-08T19:58:12.856Z,,0,3,,3506.4799999999814,response,ISIC_0055169.JPG,2,ISIC_7562708.JPG,ISIC_7562708.JPG,false,0,keypress(z),500,703494,703493,699986.12,699992,699986.52,703494.62,8,400,31,,ISIC_0055169.JPG
break,html.Screen,4_130_1,2023-09-08T19:58:12.858Z,,0,,,NaN,,,,,,false,,,,703496,703495,,703494,,703494.62,8,400,,,
break_continue,html.Screen,4_130_2,2023-09-08T19:58:12.860Z,,0,,,NaN,,,,,,false,,,,703497,703497,,703496,,703494.62,8,400,,,
sequence,flow.Sequence,4_130,2023-09-08T19:58:12.860Z,,0,,,3510.4799999999814,completion,,,,,false,,,,703497,703497,699986.12,699992,699986.52,703494.62,8,400,,,
trial,html.Screen,4_131_0,2023-09-08T19:58:16.063Z,,0,3,,3204.3800000000047,response,ISIC_4136832.JPG,4,ISIC_9950866.JPG,ISIC_9950866.JPG,false,0,keypress(z),500,706700,706699,703494.16,703498,703494.62,706701.58,8,400,32,,ISIC_4136832.JPG
break,html.Screen,4_131_1,2023-09-08T19:58:16.065Z,,0,,,NaN,,,,,,false,,,,706702,706702,,706700,,706701.58,8,400,,,
break_continue,html.Screen,4_131_2,2023-09-08T19:58:16.067Z,,0,,,NaN,,,,,,false,,,,706705,706704,,706703,,706701.58,8,400,,,
sequence,flow.Sequence,4_131,2023-09-08T19:58:16.068Z,,0,,,3209.3800000000047,completion,,,,,false,,,,706706,706704,703494.16,703498,703494.62,706701.58,8,400,,,
trial,html.Screen,4_132_0,2023-09-08T19:58:21.180Z,,0,3,,5115.420000000042,response,ISIC_0056152.JPG,0,ISIC_2134975.JPG,ISIC_2134975.JPG,false,0,keypress(z),500,711817,711817,706701.08,706707,706701.58,711818.78,8,400,33,,ISIC_0056152.JPG
break,html.Screen,4_132_1,2023-09-08T19:58:21.182Z,,0,,,NaN,,,,,,false,,,,711820,711819,,711819,,711818.78,8,400,,,
break_continue,html.Screen,4_132_2,2023-09-08T19:58:21.183Z,,0,,,NaN,,,,,,false,,,,711821,711820,,711820,,711818.78,8,400,,,
sequence,flow.Sequence,4_132,2023-09-08T19:58:21.184Z,,0,,,5118.420000000042,completion,,,,,false,,,,711821,711820,706701.08,706707,706701.58,711818.78,8,400,,,
trial,html.Screen,4_133_0,2023-09-08T19:58:24.865Z,,0,3,,3684.219999999972,response,ISIC_0000513.JPG,9,ISIC_0016114.JPG,ISIC_0000513.JPG,false,1,keypress(m),500,715503,715503,711818.4,711822,711818.78,715504.54,8,400,34,,ISIC_0016114.JPG
break,html.Screen,4_133_1,2023-09-08T19:58:24.868Z,,0,,,NaN,,,,,,false,,,,715506,715505,,715504,,715504.54,8,400,,,
break_continue,html.Screen,4_133_2,2023-09-08T19:58:24.869Z,,0,,,NaN,,,,,,false,,,,715507,715506,,715506,,715504.54,8,400,,,
sequence,flow.Sequence,4_133,2023-09-08T19:58:24.871Z,,0,,,3687.219999999972,completion,,,,,false,,,,715508,715506,711818.4,711822,711818.78,715504.54,8,400,,,
trial,html.Screen,4_134_0,2023-09-08T19:58:27.674Z,,0,3,,2806.4599999999627,response,ISIC_2809019.JPG,3,ISIC_0033265.JPG,ISIC_2809019.JPG,false,1,keypress(m),500,718311,718311,715504.22,715509,715504.54,718312.56,8,400,35,,ISIC_0033265.JPG
break,html.Screen,4_134_1,2023-09-08T19:58:27.676Z,,0,,,NaN,,,,,,false,,,,718314,718313,,718312,,718312.56,8,400,,,
break_continue,html.Screen,4_134_2,2023-09-08T19:58:27.677Z,,0,,,NaN,,,,,,false,,,,718315,718315,,718314,,718312.56,8,400,,,
sequence,flow.Sequence,4_134,2023-09-08T19:58:27.679Z,,0,,,2810.4599999999627,completion,,,,,false,,,,718317,718315,715504.22,715509,715504.54,718312.56,8,400,,,
trial,html.Screen,4_135_0,2023-09-08T19:58:30.466Z,,0,3,,2790.439999999944,response,ISIC_3761253.JPG,0,ISIC_0071169.JPG,ISIC_3761253.JPG,false,1,keypress(m),500,721104,721103,718312.04,718318,718312.56,721104.58,8,400,36,,ISIC_0071169.JPG
break,html.Screen,4_135_1,2023-09-08T19:58:30.468Z,,0,,,NaN,,,,,,false,,,,721106,721105,,721104,,721104.58,8,400,,,
break_continue,html.Screen,4_135_2,2023-09-08T19:58:30.469Z,,0,,,NaN,,,,,,false,,,,721107,721106,,721106,,721104.58,8,400,,,
sequence,flow.Sequence,4_135,2023-09-08T19:58:30.470Z,,0,,,2793.439999999944,completion,,,,,false,,,,721108,721106,718312.04,718318,718312.56,721104.58,8,400,,,
trial,html.Screen,4_136_0,2023-09-08T19:58:33.606Z,,0,3,,3138.420000000042,response,ISIC_0033517.JPG,15,ISIC_0060999.JPG,ISIC_0060999.JPG,false,0,keypress(z),500,724244,724243,721104.16,721109,721104.58,724245.28,8,400,37,,ISIC_0033517.JPG
break,html.Screen,4_136_1,2023-09-08T19:58:33.608Z,,0,,,NaN,,,,,,false,,,,724246,724245,,724244,,724245.28,8,400,,,
break_continue,html.Screen,4_136_2,2023-09-08T19:58:33.610Z,,0,,,NaN,,,,,,false,,,,724247,724247,,724247,,724245.28,8,400,,,
sequence,flow.Sequence,4_136,2023-09-08T19:58:33.611Z,,0,,,3142.420000000042,completion,,,,,false,,,,724248,724247,721104.16,721109,721104.58,724245.28,8,400,,,
trial,html.Screen,4_137_0,2023-09-08T19:58:36.620Z,,0,3,,3010.719999999972,response,ISIC_0068438.JPG,16,ISIC_0057594.JPG,ISIC_0057594.JPG,false,0,keypress(z),500,727257,727256,724244.84,724249,724245.28,727258.72,8,400,38,,ISIC_0068438.JPG
break,html.Screen,4_137_1,2023-09-08T19:58:36.622Z,,0,,,NaN,,,,,,false,,,,727260,727259,,727258,,727258.72,8,400,,,
break_continue,html.Screen,4_137_2,2023-09-08T19:58:36.624Z,,0,,,NaN,,,,,,false,,,,727261,727260,,727260,,727258.72,8,400,,,
sequence,flow.Sequence,4_137,2023-09-08T19:58:36.624Z,,0,,,3014.719999999972,completion,,,,,false,,,,727261,727260,724244.84,724249,724245.28,727258.72,8,400,,,
trial,html.Screen,4_138_0,2023-09-08T19:58:40.495Z,,0,3,,3873.280000000028,response,ISIC_0066626.JPG,10,ISIC_0062702.JPG,ISIC_0066626.JPG,false,1,keypress(m),500,731132,731132,727258.16,727263,727258.72,731134.56,8,400,39,,ISIC_0062702.JPG
break,html.Screen,4_138_1,2023-09-08T19:58:40.498Z,,0,,,NaN,,,,,,false,,,,731135,731134,,731133,,731134.56,8,400,,,
break_continue,html.Screen,4_138_2,2023-09-08T19:58:40.500Z,,0,,,NaN,,,,,,false,,,,731137,731137,,731136,,731134.56,8,400,,,
sequence,flow.Sequence,4_138,2023-09-08T19:58:40.501Z,,0,,,3878.280000000028,completion,,,,,false,,,,731138,731137,727258.16,727263,727258.72,731134.56,8,400,,,
trial,html.Screen,4_139_0,2023-09-08T19:58:43.841Z,,0,3,,3343.439999999944,response,ISIC_0394140.JPG,6,ISIC_0062497.JPG,ISIC_0394140.JPG,false,1,keypress(m),500,734478,734478,731133.46,731138,731134.56,734479.12,8,400,40,,ISIC_0062497.JPG
break,html.Screen,4_139_1,2023-09-08T19:58:43.843Z,,0,,,NaN,,,,,,false,,,,734480,734480,,734478,,734479.12,8,400,,,
break_continue,html.Screen,4_139_2,2023-09-08T19:58:43.843Z,,0,,,NaN,,,,,,false,,,,734481,734481,,734481,,734479.12,8,400,,,
sequence,flow.Sequence,4_139,2023-09-08T19:58:43.845Z,,0,,,3346.439999999944,completion,,,,,false,,,,734482,734481,731133.46,731138,731134.56,734479.12,8,400,,,
trial,html.Screen,4_140_0,2023-09-08T19:58:47.290Z,,0,3,,3447.8800000000047,response,ISIC_0014319.JPG,3,ISIC_3049506.JPG,ISIC_3049506.JPG,false,0,keypress(z),500,737927,737927,734478.72,734483,734479.12,737928.32,8,400,41,,ISIC_0014319.JPG
break,html.Screen,4_140_1,2023-09-08T19:58:47.292Z,,0,,,NaN,,,,,,false,,,,737930,737929,,737928,,737928.32,8,400,,,
break_continue,html.Screen,4_140_2,2023-09-08T19:58:47.294Z,,0,,,NaN,,,,,,false,,,,737931,737931,,737930,,737928.32,8,400,,,
sequence,flow.Sequence,4_140,2023-09-08T19:58:47.295Z,,0,,,3451.8800000000047,completion,,,,,false,,,,737932,737931,734478.72,734483,734479.12,737928.32,8,400,,,
trial,html.Screen,4_141_0,2023-09-08T19:58:50.076Z,,0,3,,2783.680000000051,response,ISIC_0056534.JPG,3,ISIC_8956001.JPG,ISIC_8956001.JPG,false,0,keypress(z),500,740713,740712,737927.88,737933,737928.32,740714.28,8,400,42,,ISIC_0056534.JPG
break,html.Screen,4_141_1,2023-09-08T19:58:50.078Z,,0,,,NaN,,,,,,false,,,,740715,740714,,740713,,740714.28,8,400,,,
break_continue,html.Screen,4_141_2,2023-09-08T19:58:50.079Z,,0,,,NaN,,,,,,false,,,,740717,740716,,740716,,740714.28,8,400,,,
sequence,flow.Sequence,4_141,2023-09-08T19:58:50.080Z,,0,,,2787.680000000051,completion,,,,,false,,,,740718,740716,737927.88,737933,737928.32,740714.28,8,400,,,
trial,html.Screen,4_142_0,2023-09-08T19:58:54.329Z,,0,3,,4251.719999999972,response,ISIC_1120654.JPG,4,ISIC_7161002.JPG,ISIC_7161002.JPG,false,0,keypress(z),500,744968,744966,740713.82,740719,740714.28,744968.36,8,400,43,,ISIC_1120654.JPG
break,html.Screen,4_142_1,2023-09-08T19:58:54.332Z,,0,,,NaN,,,,,,false,,,,744969,744968,,744968,,744968.36,8,400,,,
break_continue,html.Screen,4_142_2,2023-09-08T19:58:54.333Z,,0,,,NaN,,,,,,false,,,,744971,744971,,744969,,744968.36,8,400,,,
sequence,flow.Sequence,4_142,2023-09-08T19:58:54.334Z,,0,,,4256.719999999972,completion,,,,,false,,,,744972,744971,740713.82,740718,740714.28,744968.36,8,400,,,
trial,html.Screen,4_143_0,2023-09-08T19:58:59.769Z,,0,3,,5437.640000000014,response,ISIC_2379379.JPG,2,ISIC_0025508.JPG,ISIC_2379379.JPG,false,1,keypress(m),500,750407,750406,744967.96,744972,744968.36,750408,8,400,44,,ISIC_0025508.JPG
break,html.Screen,4_143_1,2023-09-08T19:58:59.771Z,,0,,,NaN,,,,,,false,,,,750409,750408,,750408,,750408,8,400,,,
break_continue,html.Screen,4_143_2,2023-09-08T19:58:59.773Z,,0,,,NaN,,,,,,false,,,,750410,750410,,750410,,750408,8,400,,,
sequence,flow.Sequence,4_143,2023-09-08T19:58:59.774Z,,0,,,5441.640000000014,completion,,,,,false,,,,750412,750410,744967.96,744972,744968.36,750408,8,400,,,
trial,html.Screen,4_144_0,2023-09-08T19:59:05.590Z,,0,3,,5819,response,ISIC_5714285.JPG,2,ISIC_3993924.JPG,ISIC_3993924.JPG,false,0,keypress(z),500,756228,756227,750407.58,750412,750408,756229.1,8,400,45,,ISIC_5714285.JPG
break,html.Screen,4_144_1,2023-09-08T19:59:05.592Z,,0,,,NaN,,,,,,false,,,,756230,756229,,756229,,756229.1,8,400,,,
break_continue,html.Screen,4_144_2,2023-09-08T19:59:05.595Z,,0,,,NaN,,,,,,false,,,,756232,756231,,756231,,756229.1,8,400,,,
sequence,flow.Sequence,4_144,2023-09-08T19:59:05.595Z,,0,,,5823,completion,,,,,false,,,,756233,756231,750407.58,750412,750408,756229.1,8,400,,,
trial,html.Screen,4_145_0,2023-09-08T19:59:08.748Z,,0,3,,3155.9000000000233,response,ISIC_9713706.JPG,1,ISIC_4966865.JPG,ISIC_4966865.JPG,false,0,keypress(z),500,759386,759385,756228.58,756234,756229.1,759386.96,8,400,46,,ISIC_9713706.JPG
break,html.Screen,4_145_1,2023-09-08T19:59:08.750Z,,0,,,NaN,,,,,,false,,,,759388,759387,,759387,,759386.96,8,400,,,
break_continue,html.Screen,4_145_2,2023-09-08T19:59:08.752Z,,0,,,NaN,,,,,,false,,,,759389,759389,,759388,,759386.96,8,400,,,
sequence,flow.Sequence,4_145,2023-09-08T19:59:08.752Z,,0,,,3159.9000000000233,completion,,,,,false,,,,759390,759389,756228.58,756234,756229.1,759386.96,8,400,,,
trial,html.Screen,4_146_0,2023-09-08T19:59:12.408Z,,0,3,,3657.0400000000373,response,ISIC_0006116.JPG,3,ISIC_6681802.JPG,ISIC_0006116.JPG,false,1,keypress(m),500,763045,763044,759386.68,759391,759386.96,763046.66,8,400,47,,ISIC_6681802.JPG
break,html.Screen,4_146_1,2023-09-08T19:59:12.410Z,,0,,,NaN,,,,,,false,,,,763047,763047,,763046,,763046.66,8,400,,,
break_continue,html.Screen,4_146_2,2023-09-08T19:59:12.412Z,,0,,,NaN,,,,,,false,,,,763050,763049,,763049,,763046.66,8,400,,,
sequence,flow.Sequence,4_146,2023-09-08T19:59:12.413Z,,0,,,3662.0400000000373,completion,,,,,false,,,,763051,763049,759386.68,759391,759386.96,763046.66,8,400,,,
trial,html.Screen,4_147_0,2023-09-08T19:59:15.782Z,,0,3,,3372.3399999999674,response,ISIC_0010067.JPG,5,ISIC_8911683.JPG,ISIC_8911683.JPG,false,0,keypress(z),500,766420,766419,763046.06,763052,763046.66,766421.18,8,400,48,,ISIC_0010067.JPG
break,html.Screen,4_147_1,2023-09-08T19:59:15.785Z,,0,,,NaN,,,,,,false,,,,766423,766422,,766421,,766421.18,8,400,,,
break_continue,html.Screen,4_147_2,2023-09-08T19:59:15.787Z,,0,,,NaN,,,,,,false,,,,766425,766424,,766424,,766421.18,8,400,,,
sequence,flow.Sequence,4_147,2023-09-08T19:59:15.788Z,,0,,,3377.3399999999674,completion,,,,,false,,,,766426,766424,763046.06,763052,763046.66,766421.18,8,400,,,
trial,html.Screen,4_148_0,2023-09-08T19:59:20.519Z,,0,3,,4733.819999999949,response,ISIC_0003550.JPG,3,ISIC_0074311.JPG,ISIC_0003550.JPG,false,1,keypress(m),500,771156,771155,766420.72,766427,766421.18,771157.48,8,400,49,,ISIC_0074311.JPG
break,html.Screen,4_148_1,2023-09-08T19:59:20.521Z,,0,,,NaN,,,,,,false,,,,771159,771158,,771156,,771157.48,8,400,,,
break_continue,html.Screen,4_148_2,2023-09-08T19:59:20.523Z,,0,,,NaN,,,,,,false,,,,771160,771160,,771159,,771157.48,8,400,,,
sequence,flow.Sequence,4_148,2023-09-08T19:59:20.524Z,,0,,,4738.819999999949,completion,,,,,false,,,,771161,771160,766420.72,766427,766421.18,771157.48,8,400,,,
trial,html.Screen,4_149_0,2023-09-08T19:59:23.629Z,,0,3,,3108.5200000000186,response,ISIC_0000541.JPG,7,ISIC_1223648.JPG,ISIC_1223648.JPG,false,0,keypress(z),500,774267,774266,771156.98,771162,771157.48,774268.16,8,400,50,,ISIC_0000541.JPG
break,html.Screen,4_149_1,2023-09-08T19:59:33.614Z,,0,,,9998.73999999999,timeout,,,,,false,,,,784252,784249.82,774267.64,774267,774268.16,784266.9,8,400,,,
break_continue,html.Screen,4_149_2,2023-09-08T19:59:38.482Z,,0,,,4814.099999999977,response,,,,,false,continue,keypress(Space),,789120,789081,784249.82,784252,784266.9,789133.6,8,400,,,
sequence,flow.Sequence,4_149,2023-09-08T19:59:38.482Z,,0,,,17923.52000000002,completion,,,,,false,,,,789121,789081,771156.98,771162,771157.48,789133.6,8,400,,,
trial,html.Screen,4_150_0,2023-09-08T19:59:42.375Z,,0,4,,3878.4000000000233,response,ISIC_9187876.JPG,0,ISIC_9538419.JPG,ISIC_9187876.JPG,false,1,keypress(m),500,793013,793012,789121.36,789121,789133.6,793013.72,8,400,1,,ISIC_9538419.JPG
