sender,sender_type,sender_id,timestamp,meta,,blockNo,condition,duration,ended_on,img_left,img_reveal,img_right,loser,practice,response,response_action,selection_duration,time_commit,time_end,time_render,time_run,time_show,time_switch,total_blocks,total_trials,trialNo,url,winner
informed_consent,html.Screen,0,2023-11-01T01:18:59.180Z,"{""labjs_version"":""20.2.4"",""labjs_build"":{""flavor"":""production"",""commit"":""f5b4a49f956347addd546a832a3327688c2c0fef""},""location"":""https://run.pavlovia.org/MurrayBennett/melanoma-2afc/?participant=66395&platform=sona"",""userAgent"":""Mozilla/5.0 (Macintosh; Intel Mac OS X 10_15_7) AppleWebKit/537.36 (KHTML, like Gecko) Chrome/118.0.0.0 Safari/537.36"",""platform"":""MacIntel"",""language"":""en-US"",""locale"":""en-US"",""timeZone"":""America/Chicago"",""timezoneOffset"":300,""screen_width"":1470,""screen_height"":956,""scroll_width"":1470,""scroll_height"":717,""window_innerWidth"":1470,""window_innerHeight"":765,""devicePixelRatio"":2}",,,,11717.454999997019,response,,,,,,consent,click button,,19118,19114.29999999702,7263.517,7403.5,7396.845,19130.021,,,,"{""participant"":""66395"",""platform"":""sona""}",
Welcome,html.Screen,1,2023-11-01T01:19:52.201Z,,,,colourful,53007.479,response,,,,,,continue,click button,,72140.29999999702,72137.5,19113.355,19118.29999999702,19130.021,72147.065,,,,,
trial,html.Screen,2_0_0,2023-11-01T01:19:57.984Z,,0,0,,5775.535000008938,response,ISIC_0063388.JPG,,ISIC_0025593.JPG,ISIC_0063388.JPG,true,1,keypress(m),500,77923.20000000298,77922.60000000894,72130.399,72140.79999999702,72147.065,77930.167,1,6,1,,ISIC_0025593.JPG
sequence,flow.Sequence,2_0,2023-11-01T01:19:57.984Z,,0,,,5775.535000008938,completion,,,,,true,,,,77923.70000000298,77922.60000000894,72130.399,72140.70000000298,72147.065,77930.167,1,6,,,
trial,html.Screen,2_1_0,2023-11-01T01:20:05.382Z,,0,0,,7391.1329999970185,response,ISIC_0028178.JPG,,ISIC_1309015.JPG,ISIC_1309015.JPG,true,0,keypress(z),500,85321.79999999702,85321.29999999702,77913.501,77923.90000000596,77930.167,85330.488,1,6,2,,ISIC_0028178.JPG
sequence,flow.Sequence,2_1,2023-11-01T01:20:05.383Z,,0,,,7391.1329999970185,completion,,,,,true,,,,85322.20000000298,85321.29999999702,77913.501,77923.79999999702,77930.167,85330.488,1,6,,,
trial,html.Screen,2_2_0,2023-11-01T01:20:13.164Z,,0,0,,7773.012000000002,response,ISIC_0031128.JPG,,ISIC_3314853.JPG,ISIC_3314853.JPG,true,0,keypress(z),500,93104,93103.5,85313.822,85322.5,85330.488,93113.51,1,6,3,,ISIC_0031128.JPG
sequence,flow.Sequence,2_2,2023-11-01T01:20:13.165Z,,0,,,7773.012000000002,completion,,,,,true,,,,93104.40000000596,93103.5,85313.822,85322.40000000596,85330.488,93113.51,1,6,,,
trial,html.Screen,2_3_0,2023-11-01T01:20:22.546Z,,0,0,,9371.990000000005,response,ISIC_8980141.JPG,,ISIC_0031612.JPG,ISIC_0031612.JPG,true,0,keypress(z),500,102486,102485.5,93096.844,93104.70000000298,93113.51,102497.067,1,6,4,,ISIC_8980141.JPG
sequence,flow.Sequence,2_3,2023-11-01T01:20:22.547Z,,0,,,9371.990000000005,completion,,,,,true,,,,102486.70000000298,102485.5,93096.844,93104.60000000894,93113.51,102497.067,1,6,,,
trial,html.Screen,2_4_0,2023-11-01T01:20:28.282Z,,0,0,,5724.033000008945,response,ISIC_1197737.JPG,,ISIC_9721604.JPG,ISIC_9721604.JPG,true,0,keypress(z),500,108221.79999999702,108221.10000000894,102480.401,102487,102497.067,108230.171,1,6,5,,ISIC_1197737.JPG
sequence,flow.Sequence,2_4,2023-11-01T01:20:28.282Z,,0,,,5724.033000008945,completion,,,,,true,,,,108222.29999999702,108221.10000000894,102480.401,102486.79999999702,102497.067,108230.171,1,6,,,
trial,html.Screen,2_5_0,2023-11-01T01:20:31.811Z,,0,0,,3519.6289999970177,response,ISIC_0010681.JPG,,ISIC_0025346.JPG,ISIC_0010681.JPG,true,1,keypress(m),500,111750.5,111749.79999999702,108213.505,108222.5,108230.171,111763.363,1,6,6,,ISIC_0025346.JPG
sequence,flow.Sequence,2_5,2023-11-01T01:20:31.811Z,,0,,,3519.6289999970177,completion,,,,,true,,,,111750.90000000596,111749.79999999702,108213.505,108222.40000000596,108230.171,111763.363,1,6,,,
loop,flow.Loop,2,2023-11-01T01:20:31.811Z,,,,,39602.73499999702,completion,,,,,true,,,,111751.20000000298,111749.79999999702,72130.399,72140.70000000298,72147.065,111763.363,1,6,,,
exp_instructions,html.Screen,3,2023-11-01T01:20:46.410Z,,,,,14583.436999997022,response,,,,,,continue,keypress(Space),,126349.79999999702,126346.79999999702,111746.697,111751.40000000596,111763.363,126363.253,,,,,
trial,html.Screen,4_0_0,2023-11-01T01:20:53.202Z,,0,1,,6778.1470000059635,response,ISIC_8777813.JPG,8,ISIC_0032645.JPG,ISIC_8777813.JPG,false,1,keypress(m),500,133141.70000000298,133141.40000000596,126346.587,126350.10000000894,126363.253,133146.959,8,400,1,,ISIC_0032645.JPG
break,html.Screen,4_0_1,2023-11-01T01:20:53.203Z,,0,,,NaN,,,,,,false,,,,133143.10000000894,133142.79999999702,,133142.10000000894,,133146.959,8,400,,,
break_continue,html.Screen,4_0_2,2023-11-01T01:20:53.203Z,,0,,,NaN,,,,,,false,,,,133143.60000000894,133143.40000000596,,133143.20000000298,,133146.959,8,400,,,
sequence,flow.Sequence,4_0,2023-11-01T01:20:53.204Z,,0,,,6780.1470000059635,completion,,,,,false,,,,133143.79999999702,133143.40000000596,126346.587,126350.10000000894,126363.253,133146.959,8,400,,,
trial,html.Screen,4_1_0,2023-11-01T01:20:59.593Z,,0,1,,6386.040999999997,response,ISIC_4378189.JPG,8,ISIC_4231346.JPG,ISIC_4231346.JPG,false,0,keypress(z),500,139533.40000000596,139533,133130.293,133144,133146.959,139546.703,8,400,2,,ISIC_4378189.JPG
break,html.Screen,4_1_1,2023-11-01T01:20:59.594Z,,0,,,NaN,,,,,,false,,,,139534.5,139534.29999999702,,139533.79999999702,,139546.703,8,400,,,
break_continue,html.Screen,4_1_2,2023-11-01T01:20:59.595Z,,0,,,NaN,,,,,,false,,,,139534.90000000596,139534.70000000298,,139534.60000000894,,139546.703,8,400,,,
sequence,flow.Sequence,4_1,2023-11-01T01:20:59.595Z,,0,,,6387.741000002978,completion,,,,,false,,,,139534.90000000596,139534.70000000298,133130.293,133143.90000000596,133146.959,139546.703,8,400,,,
trial,html.Screen,4_2_0,2023-11-01T01:21:03.182Z,,0,1,,3575.096999997011,response,ISIC_0026082.JPG,7,ISIC_8873236.JPG,ISIC_8873236.JPG,false,0,keypress(z),500,143122.20000000298,143121.79999999702,139530.037,139535.20000000298,139546.703,143147.041,8,400,3,,ISIC_0026082.JPG
break,html.Screen,4_2_1,2023-11-01T01:21:03.183Z,,0,,,NaN,,,,,,false,,,,143123.29999999702,143123.10000000894,,143122.5,,143147.041,8,400,,,
break_continue,html.Screen,4_2_2,2023-11-01T01:21:03.183Z,,0,,,NaN,,,,,,false,,,,143123.60000000894,143123.5,,143123.40000000596,,143147.041,8,400,,,
sequence,flow.Sequence,4_2,2023-11-01T01:21:03.184Z,,0,,,3576.7969999999914,completion,,,,,false,,,,143123.79999999702,143123.5,139530.037,139535.10000000894,139546.703,143147.041,8,400,,,
trial,html.Screen,4_3_0,2023-11-01T01:21:06.343Z,,0,1,,3135.7589999970223,response,ISIC_0072429.JPG,8,ISIC_0063258.JPG,ISIC_0063258.JPG,false,0,keypress(z),500,146283.20000000298,146282.79999999702,143130.375,143123.90000000596,143147.041,146296.915,8,400,4,,ISIC_0072429.JPG
break,html.Screen,4_3_1,2023-11-01T01:21:06.344Z,,0,,,NaN,,,,,,false,,,,146284.10000000894,146284,,146283.5,,146296.915,8,400,,,
break_continue,html.Screen,4_3_2,2023-11-01T01:21:06.344Z,,0,,,NaN,,,,,,false,,,,146284.60000000894,146284.5,,146284.29999999702,,146296.915,8,400,,,
sequence,flow.Sequence,4_3,2023-11-01T01:21:06.344Z,,0,,,3137.4590000000026,completion,,,,,false,,,,146284.70000000298,146284.5,143130.375,143123.90000000596,143147.041,146296.915,8,400,,,
trial,html.Screen,4_4_0,2023-11-01T01:21:09.483Z,,0,1,,3126.584999999992,response,ISIC_0060397.JPG,8,ISIC_0032357.JPG,ISIC_0032357.JPG,false,0,keypress(z),500,149423.79999999702,149423.5,146280.249,146284.79999999702,146296.915,149446.789,8,400,5,,ISIC_0060397.JPG
break,html.Screen,4_4_1,2023-11-01T01:21:09.484Z,,0,,,NaN,,,,,,false,,,,149424.79999999702,149424.5,,149424.10000000894,,149446.789,8,400,,,
break_continue,html.Screen,4_4_2,2023-11-01T01:21:09.485Z,,0,,,NaN,,,,,,false,,,,149425.10000000894,149425,,149424.90000000596,,149446.789,8,400,,,
sequence,flow.Sequence,4_4,2023-11-01T01:21:09.485Z,,0,,,3128.084999999992,completion,,,,,false,,,,149425.29999999702,149425,146280.249,146284.79999999702,146296.915,149446.789,8,400,,,
trial,html.Screen,4_5_0,2023-11-01T01:21:13.217Z,,0,1,,3710.2110000000102,response,ISIC_1560272.JPG,8,ISIC_0204355.JPG,ISIC_1560272.JPG,false,1,keypress(m),500,153157.29999999702,153157,149430.123,149425.5,149446.789,153163.746,8,400,6,,ISIC_0204355.JPG
break,html.Screen,4_5_1,2023-11-01T01:21:13.218Z,,0,,,NaN,,,,,,false,,,,153158.29999999702,153158.10000000894,,153157.60000000894,,153163.746,8,400,,,
break_continue,html.Screen,4_5_2,2023-11-01T01:21:13.218Z,,0,,,NaN,,,,,,false,,,,153158.60000000894,153158.5,,153158.40000000596,,153163.746,8,400,,,
sequence,flow.Sequence,4_5,2023-11-01T01:21:13.218Z,,0,,,3711.7110000000102,completion,,,,,false,,,,153158.79999999702,153158.5,149430.123,149425.40000000596,149446.789,153163.746,8,400,,,
trial,html.Screen,4_6_0,2023-11-01T01:21:16.374Z,,0,1,,3150.854000008927,response,ISIC_0011127.JPG,8,ISIC_1978947.JPG,ISIC_1978947.JPG,false,0,keypress(z),500,156314.90000000596,156314.60000000894,153147.08,153159,153163.746,156313.62,8,400,7,,ISIC_0011127.JPG
break,html.Screen,4_6_1,2023-11-01T01:21:16.375Z,,0,,,NaN,,,,,,false,,,,156315.79999999702,156315.60000000894,,156315.10000000894,,156313.62,8,400,,,
break_continue,html.Screen,4_6_2,2023-11-01T01:21:16.376Z,,0,,,NaN,,,,,,false,,,,156316.20000000298,156316.10000000894,,156315.90000000596,,156313.62,8,400,,,
sequence,flow.Sequence,4_6,2023-11-01T01:21:16.376Z,,0,,,3152.354000008927,completion,,,,,false,,,,156316.29999999702,156316.10000000894,153147.08,153158.90000000596,153163.746,156313.62,8,400,,,
trial,html.Screen,4_7_0,2023-11-01T01:21:19.357Z,,0,1,,2983.080000002985,response,ISIC_1460932.JPG,7,ISIC_0002349.JPG,ISIC_0002349.JPG,false,0,keypress(z),500,159297.10000000894,159296.70000000298,156296.954,156316.5,156313.62,159313.5,8,400,8,,ISIC_1460932.JPG
break,html.Screen,4_7_1,2023-11-01T01:21:19.358Z,,0,,,NaN,,,,,,false,,,,159298,159297.79999999702,,159297.29999999702,,159313.5,8,400,,,
break_continue,html.Screen,4_7_2,2023-11-01T01:21:19.358Z,,0,,,NaN,,,,,,false,,,,159298.40000000596,159298.20000000298,,159298.20000000298,,159313.5,8,400,,,
sequence,flow.Sequence,4_7,2023-11-01T01:21:19.358Z,,0,,,2984.580000002985,completion,,,,,false,,,,159298.5,159298.20000000298,156296.954,156316.5,156313.62,159313.5,8,400,,,
trial,html.Screen,4_8_0,2023-11-01T01:21:22.473Z,,0,1,,3099.6000000089407,response,ISIC_0060716.JPG,8,ISIC_0765584.JPG,ISIC_0765584.JPG,false,0,keypress(z),500,162413.5,162413.10000000894,159296.834,159298.60000000894,159313.5,162430.436,8,400,9,,ISIC_0060716.JPG
break,html.Screen,4_8_1,2023-11-01T01:21:22.474Z,,0,,,NaN,,,,,,false,,,,162414.60000000894,162414.29999999702,,162413.90000000596,,162430.436,8,400,,,
break_continue,html.Screen,4_8_2,2023-11-01T01:21:22.474Z,,0,,,NaN,,,,,,false,,,,162415,162414.79999999702,,162414.70000000298,,162430.436,8,400,,,
sequence,flow.Sequence,4_8,2023-11-01T01:21:22.475Z,,0,,,3101.2999999970198,completion,,,,,false,,,,162415.20000000298,162414.79999999702,159296.834,159298.60000000894,159313.5,162430.436,8,400,,,
trial,html.Screen,4_9_0,2023-11-01T01:21:26.881Z,,0,1,,4390.064000000013,response,ISIC_8297563.JPG,5,ISIC_0310134.JPG,ISIC_8297563.JPG,false,1,keypress(m),500,166821,166820.5,162413.77,162415.29999999702,162430.436,166830.26,8,400,10,,ISIC_0310134.JPG
break,html.Screen,4_9_1,2023-11-01T01:21:26.882Z,,0,,,NaN,,,,,,false,,,,166822.10000000894,166821.79999999702,,166821.40000000596,,166830.26,8,400,,,
break_continue,html.Screen,4_9_2,2023-11-01T01:21:26.882Z,,0,,,NaN,,,,,,false,,,,166822.40000000596,166822.20000000298,,166822.10000000894,,166830.26,8,400,,,
sequence,flow.Sequence,4_9,2023-11-01T01:21:26.882Z,,0,,,4391.764000002993,completion,,,,,false,,,,166822.5,166822.20000000298,162413.77,162415.20000000298,162430.436,166830.26,8,400,,,
trial,html.Screen,4_10_0,2023-11-01T01:21:33.879Z,,0,1,,6989.239999999991,response,ISIC_0031625.JPG,7,ISIC_7412559.JPG,ISIC_0031625.JPG,false,1,keypress(m),500,173820,173819.5,166813.594,166822.60000000894,166830.26,173830.28,8,400,11,,ISIC_7412559.JPG
break,html.Screen,4_10_1,2023-11-01T01:21:33.880Z,,0,,,NaN,,,,,,false,,,,173821,173820.79999999702,,173820.29999999702,,173830.28,8,400,,,
break_continue,html.Screen,4_10_2,2023-11-01T01:21:33.881Z,,0,,,NaN,,,,,,false,,,,173821.5,173821.29999999702,,173821.20000000298,,173830.28,8,400,,,
sequence,flow.Sequence,4_10,2023-11-01T01:21:33.881Z,,0,,,6991.03999999701,completion,,,,,false,,,,173821.60000000894,173821.29999999702,166813.594,166822.60000000894,166830.26,173830.28,8,400,,,
trial,html.Screen,4_11_0,2023-11-01T01:21:37.342Z,,0,1,,3452.320000008942,response,ISIC_0010442.JPG,8,ISIC_0008447.JPG,ISIC_0010442.JPG,false,1,keypress(m),500,177283,177282.60000000894,173813.614,173821.70000000298,173830.28,177296.808,8,400,12,,ISIC_0008447.JPG
break,html.Screen,4_11_1,2023-11-01T01:21:37.343Z,,0,,,NaN,,,,,,false,,,,177283.90000000596,177283.79999999702,,177283.20000000298,,177296.808,8,400,,,
break_continue,html.Screen,4_11_2,2023-11-01T01:21:37.344Z,,0,,,NaN,,,,,,false,,,,177284.29999999702,177284.20000000298,,177284,,177296.808,8,400,,,
sequence,flow.Sequence,4_11,2023-11-01T01:21:37.344Z,,0,,,3453.9200000029814,completion,,,,,false,,,,177284.5,177284.20000000298,173813.614,173821.70000000298,173830.28,177296.808,8,400,,,
trial,html.Screen,4_12_0,2023-11-01T01:21:40.617Z,,0,1,,3260.19200000001,response,ISIC_9751601.JPG,6,ISIC_0028024.JPG,ISIC_9751601.JPG,false,1,keypress(m),500,180557.29999999702,180557,177280.142,177284.60000000894,177296.808,180563.344,8,400,13,,ISIC_0028024.JPG
break,html.Screen,4_12_1,2023-11-01T01:21:40.618Z,,0,,,NaN,,,,,,false,,,,180558.29999999702,180558.10000000894,,180557.60000000894,,180563.344,8,400,,,
break_continue,html.Screen,4_12_2,2023-11-01T01:21:40.618Z,,0,,,NaN,,,,,,false,,,,180558.70000000298,180558.60000000894,,180558.5,,180563.344,8,400,,,
sequence,flow.Sequence,4_12,2023-11-01T01:21:40.618Z,,0,,,3261.7920000089507,completion,,,,,false,,,,180558.90000000596,180558.60000000894,177280.142,177284.60000000894,177296.808,180563.344,8,400,,,
trial,html.Screen,4_13_0,2023-11-01T01:21:43.997Z,,0,1,,3374.455999997008,response,ISIC_6735970.JPG,8,ISIC_6951506.JPG,ISIC_6735970.JPG,false,1,keypress(m),500,183938.20000000298,183937.79999999702,180546.678,180559,180563.344,183947.146,8,400,14,,ISIC_6951506.JPG
break,html.Screen,4_13_1,2023-11-01T01:21:43.998Z,,0,,,NaN,,,,,,false,,,,183939.10000000894,183939,,183938.5,,183947.146,8,400,,,
break_continue,html.Screen,4_13_2,2023-11-01T01:21:43.999Z,,0,,,NaN,,,,,,false,,,,183939.5,183939.40000000596,,183939.29999999702,,183947.146,8,400,,,
sequence,flow.Sequence,4_13,2023-11-01T01:21:43.999Z,,0,,,3376.0560000059486,completion,,,,,false,,,,183939.70000000298,183939.40000000596,180546.678,180559,180563.344,183947.146,8,400,,,
trial,html.Screen,4_14_0,2023-11-01T01:21:46.820Z,,0,1,,2812.954000008933,response,ISIC_3973431.JPG,6,ISIC_6870208.JPG,ISIC_6870208.JPG,false,0,keypress(z),500,186760.40000000596,186760.10000000894,183930.48,183939.90000000596,183947.146,186763.7,8,400,15,,ISIC_3973431.JPG
break,html.Screen,4_14_1,2023-11-01T01:21:46.821Z,,0,,,NaN,,,,,,false,,,,186761.29999999702,186761.20000000298,,186760.70000000298,,186763.7,8,400,,,
break_continue,html.Screen,4_14_2,2023-11-01T01:21:46.821Z,,0,,,NaN,,,,,,false,,,,186761.79999999702,186761.60000000894,,186761.5,,186763.7,8,400,,,
sequence,flow.Sequence,4_14,2023-11-01T01:21:46.821Z,,0,,,2814.454000008933,completion,,,,,false,,,,186761.90000000596,186761.60000000894,183930.48,183939.79999999702,183947.146,186763.7,8,400,,,
trial,html.Screen,4_15_0,2023-11-01T01:21:50.858Z,,0,1,,4034.599999997008,response,ISIC_0054134.JPG,9,ISIC_1020369.JPG,ISIC_1020369.JPG,false,0,keypress(z),500,190798.70000000298,190798.29999999702,186747.034,186762.10000000894,186763.7,190813.538,8,400,16,,ISIC_0054134.JPG
break,html.Screen,4_15_1,2023-11-01T01:21:50.859Z,,0,,,NaN,,,,,,false,,,,190799.5,190799.40000000596,,190798.90000000596,,190813.538,8,400,,,
break_continue,html.Screen,4_15_2,2023-11-01T01:21:50.859Z,,0,,,NaN,,,,,,false,,,,190799.90000000596,190799.79999999702,,190799.60000000894,,190813.538,8,400,,,
sequence,flow.Sequence,4_15,2023-11-01T01:21:50.859Z,,0,,,4036.099999997008,completion,,,,,false,,,,190800,190799.79999999702,186747.034,186762,186763.7,190813.538,8,400,,,
trial,html.Screen,4_16_0,2023-11-01T01:21:53.967Z,,0,1,,3093.5620000089402,response,ISIC_0031325.JPG,7,ISIC_7803114.JPG,ISIC_7803114.JPG,false,0,keypress(z),500,193907.40000000596,193907.10000000894,190796.872,190800.29999999702,190813.538,193930.476,8,400,17,,ISIC_0031325.JPG
break,html.Screen,4_16_1,2023-11-01T01:21:53.968Z,,0,,,NaN,,,,,,false,,,,193908.40000000596,193908.29999999702,,193907.79999999702,,193930.476,8,400,,,
break_continue,html.Screen,4_16_2,2023-11-01T01:21:53.968Z,,0,,,NaN,,,,,,false,,,,193908.79999999702,193908.70000000298,,193908.60000000894,,193930.476,8,400,,,
sequence,flow.Sequence,4_16,2023-11-01T01:21:53.968Z,,0,,,3095.1620000029798,completion,,,,,false,,,,193909,193908.70000000298,190796.872,190800.10000000894,190813.538,193930.476,8,400,,,
trial,html.Screen,4_17_0,2023-11-01T01:21:57.507Z,,0,1,,3516.6240000089456,response,ISIC_1132966.JPG,9,ISIC_0026198.JPG,ISIC_0026198.JPG,false,0,keypress(z),500,197447.5,197447.10000000894,193913.81,193909.10000000894,193930.476,197463.668,8,400,18,,ISIC_1132966.JPG
break,html.Screen,4_17_1,2023-11-01T01:21:57.507Z,,0,,,NaN,,,,,,false,,,,197448.40000000596,197448.20000000298,,197447.79999999702,,197463.668,8,400,,,
break_continue,html.Screen,4_17_2,2023-11-01T01:21:57.508Z,,0,,,NaN,,,,,,false,,,,197448.70000000298,197448.70000000298,,197448.5,,197463.668,8,400,,,
sequence,flow.Sequence,4_17,2023-11-01T01:21:57.508Z,,0,,,3518.224000002985,completion,,,,,false,,,,197449,197448.70000000298,193913.81,193909,193930.476,197463.668,8,400,,,
trial,html.Screen,4_18_0,2023-11-01T01:22:00.412Z,,0,1,,2889.1319999970146,response,ISIC_8159779.JPG,9,ISIC_4076162.JPG,ISIC_8159779.JPG,false,1,keypress(m),500,200353.10000000894,200352.79999999702,197447.002,197449.10000000894,197463.668,200363.552,8,400,19,,ISIC_4076162.JPG
break,html.Screen,4_18_1,2023-11-01T01:22:00.413Z,,0,,,NaN,,,,,,false,,,,200354.10000000894,200353.90000000596,,200353.40000000596,,200363.552,8,400,,,
break_continue,html.Screen,4_18_2,2023-11-01T01:22:00.413Z,,0,,,NaN,,,,,,false,,,,200354.5,200354.29999999702,,200354.20000000298,,200363.552,8,400,,,
sequence,flow.Sequence,4_18,2023-11-01T01:22:00.414Z,,0,,,2890.6319999970146,completion,,,,,false,,,,200354.60000000894,200354.29999999702,197447.002,197449,197463.668,200363.552,8,400,,,
trial,html.Screen,4_19_0,2023-11-01T01:22:03.157Z,,0,1,,2734.5480000089447,response,ISIC_7161651.JPG,8,ISIC_0027694.JPG,ISIC_7161651.JPG,false,1,keypress(m),500,203098.40000000596,203098.10000000894,200346.886,200354.79999999702,200363.552,203113.442,8,400,20,,ISIC_0027694.JPG
break,html.Screen,4_19_1,2023-11-01T01:22:03.158Z,,0,,,NaN,,,,,,false,,,,203099.29999999702,203099.10000000894,,203098.70000000298,,203113.442,8,400,,,
break_continue,html.Screen,4_19_2,2023-11-01T01:22:03.159Z,,0,,,NaN,,,,,,false,,,,203099.70000000298,203099.60000000894,,203099.5,,203113.442,8,400,,,
sequence,flow.Sequence,4_19,2023-11-01T01:22:03.159Z,,0,,,2736.0480000089447,completion,,,,,false,,,,203099.90000000596,203099.60000000894,200346.886,200354.70000000298,200363.552,203113.442,8,400,,,
trial,html.Screen,4_20_0,2023-11-01T01:22:05.935Z,,0,1,,2762.55799999999,response,ISIC_7492682.JPG,8,ISIC_0066411.JPG,ISIC_7492682.JPG,false,1,keypress(m),500,205876.29999999702,205876,203096.776,203100.10000000894,203113.442,205880.386,8,400,21,,ISIC_0066411.JPG
break,html.Screen,4_20_1,2023-11-01T01:22:05.936Z,,0,,,NaN,,,,,,false,,,,205877.29999999702,205877.10000000894,,205876.70000000298,,205880.386,8,400,,,
break_continue,html.Screen,4_20_2,2023-11-01T01:22:05.937Z,,0,,,NaN,,,,,,false,,,,205877.70000000298,205877.60000000894,,205877.40000000596,,205880.386,8,400,,,
sequence,flow.Sequence,4_20,2023-11-01T01:22:05.937Z,,0,,,2764.1580000089307,completion,,,,,false,,,,205877.79999999702,205877.60000000894,203096.776,203100,203113.442,205880.386,8,400,,,
trial,html.Screen,4_21_0,2023-11-01T01:22:08.726Z,,0,1,,2786.1140000000014,response,ISIC_0005769.JPG,5,ISIC_0000305.JPG,ISIC_0005769.JPG,false,1,keypress(m),500,208666.79999999702,208666.5,205863.72,205877.90000000596,205880.386,208680.274,8,400,22,,ISIC_0000305.JPG
break,html.Screen,4_21_1,2023-11-01T01:22:08.727Z,,0,,,NaN,,,,,,false,,,,208667.79999999702,208667.60000000894,,208667.10000000894,,208680.274,8,400,,,
break_continue,html.Screen,4_21_2,2023-11-01T01:22:08.727Z,,0,,,NaN,,,,,,false,,,,208668.20000000298,208668.10000000894,,208667.90000000596,,208680.274,8,400,,,
sequence,flow.Sequence,4_21,2023-11-01T01:22:08.727Z,,0,,,2787.714000008942,completion,,,,,false,,,,208668.40000000596,208668.10000000894,205863.72,205877.90000000596,205880.386,208680.274,8,400,,,
trial,html.Screen,4_22_0,2023-11-01T01:22:11.644Z,,0,1,,2904.826000008936,response,ISIC_7728263.JPG,8,ISIC_0053594.JPG,ISIC_7728263.JPG,false,1,keypress(m),500,211585.5,211585.10000000894,208663.608,208668.5,208680.274,211596.824,8,400,23,,ISIC_0053594.JPG
break,html.Screen,4_22_1,2023-11-01T01:22:11.645Z,,0,,,NaN,,,,,,false,,,,211586.40000000596,211586.20000000298,,211585.70000000298,,211596.824,8,400,,,
break_continue,html.Screen,4_22_2,2023-11-01T01:22:11.646Z,,0,,,NaN,,,,,,false,,,,211586.70000000298,211586.70000000298,,211586.5,,211596.824,8,400,,,
sequence,flow.Sequence,4_22,2023-11-01T01:22:11.646Z,,0,,,2906.4260000029753,completion,,,,,false,,,,211586.90000000596,211586.70000000298,208663.608,208668.5,208680.274,211596.824,8,400,,,
trial,html.Screen,4_23_0,2023-11-01T01:22:17.798Z,,0,1,,6141.676000000007,response,ISIC_0011895.JPG,6,ISIC_0033394.JPG,ISIC_0033394.JPG,false,0,keypress(z),500,217738.90000000596,217738.5,211580.158,211587,211596.824,217746.977,8,400,24,,ISIC_0011895.JPG
break,html.Screen,4_23_1,2023-11-01T01:22:17.799Z,,0,,,NaN,,,,,,false,,,,217739.90000000596,217739.60000000894,,217739.20000000298,,217746.977,8,400,,,
break_continue,html.Screen,4_23_2,2023-11-01T01:22:17.799Z,,0,,,NaN,,,,,,false,,,,217740.20000000298,217740.10000000894,,217740,,217746.977,8,400,,,
sequence,flow.Sequence,4_23,2023-11-01T01:22:17.799Z,,0,,,6143.276000008947,completion,,,,,false,,,,217740.40000000596,217740.10000000894,211580.158,211587,211596.824,217746.977,8,400,,,
trial,html.Screen,4_24_0,2023-11-01T01:22:25.148Z,,0,1,,7342.0229999999865,response,ISIC_0001602.JPG,8,ISIC_0063191.JPG,ISIC_0001602.JPG,false,1,keypress(m),500,225089.40000000596,225089,217730.311,217740.5,217746.977,225096.683,8,400,25,,ISIC_0063191.JPG
break,html.Screen,4_24_1,2023-11-01T01:22:25.149Z,,0,,,NaN,,,,,,false,,,,225090.29999999702,225090.10000000894,,225089.70000000298,,225096.683,8,400,,,
break_continue,html.Screen,4_24_2,2023-11-01T01:22:25.149Z,,0,,,NaN,,,,,,false,,,,225090.70000000298,225090.5,,225090.5,,225096.683,8,400,,,
sequence,flow.Sequence,4_24,2023-11-01T01:22:25.150Z,,0,,,7343.5229999999865,completion,,,,,false,,,,225090.90000000596,225090.5,217730.311,217740.40000000596,217746.977,225096.683,8,400,,,
trial,html.Screen,4_25_0,2023-11-01T01:22:33.282Z,,0,1,,8126.417000008951,response,ISIC_3300710.JPG,8,ISIC_0006108.JPG,ISIC_0006108.JPG,false,0,keypress(z),500,233223.5,233223.10000000894,225080.017,225091,225096.683,233230.209,8,400,26,,ISIC_3300710.JPG
break,html.Screen,4_25_1,2023-11-01T01:22:33.283Z,,0,,,NaN,,,,,,false,,,,233224.40000000596,233224.29999999702,,233223.79999999702,,233230.209,8,400,,,
break_continue,html.Screen,4_25_2,2023-11-01T01:22:33.283Z,,0,,,NaN,,,,,,false,,,,233224.79999999702,233224.70000000298,,233224.60000000894,,233230.209,8,400,,,
sequence,flow.Sequence,4_25,2023-11-01T01:22:33.284Z,,0,,,8128.01700000299,completion,,,,,false,,,,233225,233224.70000000298,225080.017,225091,225096.683,233230.209,8,400,,,
trial,html.Screen,4_26_0,2023-11-01T01:22:36.281Z,,0,1,,2991.4910000029777,response,ISIC_0033569.JPG,6,ISIC_0031070.JPG,ISIC_0031070.JPG,false,0,keypress(z),500,236222.10000000894,236221.70000000298,233213.543,233225.10000000894,233230.209,236230.089,8,400,27,,ISIC_0033569.JPG
break,html.Screen,4_26_1,2023-11-01T01:22:36.282Z,,0,,,NaN,,,,,,false,,,,236223,236222.79999999702,,236222.40000000596,,236230.089,8,400,,,
break_continue,html.Screen,4_26_2,2023-11-01T01:22:36.282Z,,0,,,NaN,,,,,,false,,,,236223.40000000596,236223.20000000298,,236223.10000000894,,236230.089,8,400,,,
sequence,flow.Sequence,4_26,2023-11-01T01:22:36.282Z,,0,,,2992.9910000029777,completion,,,,,false,,,,236223.5,236223.20000000298,233213.543,233225.10000000894,233230.209,236230.089,8,400,,,
trial,html.Screen,4_27_0,2023-11-01T01:22:39.235Z,,0,1,,2945.5110000089335,response,ISIC_0010618.JPG,8,ISIC_0065283.JPG,ISIC_0010618.JPG,false,1,keypress(m),500,239176,239175.60000000894,236213.423,236223.60000000894,236230.089,239180.357,8,400,28,,ISIC_0065283.JPG
break,html.Screen,4_27_1,2023-11-01T01:22:39.235Z,,0,,,NaN,,,,,,false,,,,239176.90000000596,239176.79999999702,,239176.20000000298,,239180.357,8,400,,,
break_continue,html.Screen,4_27_2,2023-11-01T01:22:39.236Z,,0,,,NaN,,,,,,false,,,,239177.29999999702,239177.20000000298,,239177.10000000894,,239180.357,8,400,,,
sequence,flow.Sequence,4_27,2023-11-01T01:22:39.236Z,,0,,,2947.111000002973,completion,,,,,false,,,,239177.5,239177.20000000298,236213.423,236223.60000000894,236230.089,239180.357,8,400,,,
trial,html.Screen,4_28_0,2023-11-01T01:22:42.378Z,,0,1,,3138.5430000059714,response,ISIC_0054655.JPG,9,ISIC_0522926.JPG,ISIC_0054655.JPG,false,1,keypress(m),500,242319.29999999702,242318.90000000596,239163.691,239177.60000000894,239180.357,242330.231,8,400,29,,ISIC_0522926.JPG
break,html.Screen,4_28_1,2023-11-01T01:22:42.379Z,,0,,,NaN,,,,,,false,,,,242320.10000000894,242320,,242319.60000000894,,242330.231,8,400,,,
break_continue,html.Screen,4_28_2,2023-11-01T01:22:42.379Z,,0,,,NaN,,,,,,false,,,,242320.5,242320.40000000596,,242320.29999999702,,242330.231,8,400,,,
sequence,flow.Sequence,4_28,2023-11-01T01:22:42.379Z,,0,,,3140.0430000059714,completion,,,,,false,,,,242320.70000000298,242320.40000000596,239163.691,239177.60000000894,239180.357,242330.231,8,400,,,
trial,html.Screen,4_29_0,2023-11-01T01:22:46.256Z,,0,1,,3866.9690000029805,response,ISIC_2341100.JPG,8,ISIC_0440582.JPG,ISIC_0440582.JPG,false,0,keypress(z),500,246197.5,246197.20000000298,242313.565,242320.90000000596,242330.231,246213.409,8,400,30,,ISIC_2341100.JPG
break,html.Screen,4_29_1,2023-11-01T01:22:46.257Z,,0,,,NaN,,,,,,false,,,,246198.5,246198.29999999702,,246197.90000000596,,246213.409,8,400,,,
break_continue,html.Screen,4_29_2,2023-11-01T01:22:46.257Z,,0,,,NaN,,,,,,false,,,,246198.79999999702,246198.70000000298,,246198.60000000894,,246213.409,8,400,,,
sequence,flow.Sequence,4_29,2023-11-01T01:22:46.257Z,,0,,,3868.4690000029805,completion,,,,,false,,,,246199,246198.70000000298,242313.565,242320.79999999702,242330.231,246213.409,8,400,,,
trial,html.Screen,4_30_0,2023-11-01T01:22:50.167Z,,0,1,,3894.4910000059463,response,ISIC_0014501.JPG,9,ISIC_0012887.JPG,ISIC_0014501.JPG,false,1,keypress(m),500,250108.29999999702,250107.90000000596,246196.743,246199.10000000894,246213.409,250113.67,8,400,31,,ISIC_0012887.JPG
break,html.Screen,4_30_1,2023-11-01T01:22:50.168Z,,0,,,NaN,,,,,,false,,,,250109.20000000298,250109,,250108.60000000894,,250113.67,8,400,,,
break_continue,html.Screen,4_30_2,2023-11-01T01:22:50.168Z,,0,,,NaN,,,,,,false,,,,250109.60000000894,250109.5,,250109.29999999702,,250113.67,8,400,,,
sequence,flow.Sequence,4_30,2023-11-01T01:22:50.168Z,,0,,,3896.090999999986,completion,,,,,false,,,,250109.79999999702,250109.5,246196.743,246199.10000000894,246213.409,250113.67,8,400,,,
trial,html.Screen,4_31_0,2023-11-01T01:22:56.882Z,,0,1,,6709.230000005948,response,ISIC_8655206.JPG,6,ISIC_0000419.JPG,ISIC_0000419.JPG,false,0,keypress(z),500,256823.40000000596,256822.90000000596,250097.004,250109.90000000596,250113.67,256830.068,8,400,32,,ISIC_8655206.JPG
break,html.Screen,4_31_1,2023-11-01T01:22:56.883Z,,0,,,NaN,,,,,,false,,,,256824.29999999702,256824,,256823.60000000894,,256830.068,8,400,,,
break_continue,html.Screen,4_31_2,2023-11-01T01:22:56.883Z,,0,,,NaN,,,,,,false,,,,256824.60000000894,256824.5,,256824.40000000596,,256830.068,8,400,,,
sequence,flow.Sequence,4_31,2023-11-01T01:22:56.883Z,,0,,,6710.829999999987,completion,,,,,false,,,,256824.79999999702,256824.5,250097.004,250109.79999999702,250113.67,256830.068,8,400,,,
trial,html.Screen,4_32_0,2023-11-01T01:23:00.089Z,,0,1,,3200.632000002981,response,ISIC_4232756.JPG,8,ISIC_7885531.JPG,ISIC_4232756.JPG,false,1,keypress(m),500,260031,260030.70000000298,256813.402,256824.90000000596,256830.068,260047.069,8,400,33,,ISIC_7885531.JPG
break,html.Screen,4_32_1,2023-11-01T01:23:00.090Z,,0,,,NaN,,,,,,false,,,,260032.10000000894,260031.79999999702,,260031.20000000298,,260047.069,8,400,,,
break_continue,html.Screen,4_32_2,2023-11-01T01:23:00.092Z,,0,,,NaN,,,,,,false,,,,260033.70000000298,260033.5,,260033.40000000596,,260047.069,8,400,,,
sequence,flow.Sequence,4_32,2023-11-01T01:23:00.092Z,,0,,,3203.4320000000007,completion,,,,,false,,,,260033.90000000596,260033.5,256813.402,256824.90000000596,256830.068,260047.069,8,400,,,
trial,html.Screen,4_33_0,2023-11-01T01:23:03.249Z,,0,1,,3143.4310000000114,response,ISIC_0069536.JPG,8,ISIC_3380212.JPG,ISIC_3380212.JPG,false,0,keypress(z),500,263190.799999997,263190.5,260030.403,260033.90000000596,260047.069,263196.943,8,400,34,,ISIC_0069536.JPG
break,html.Screen,4_33_1,2023-11-01T01:23:03.250Z,,0,,,NaN,,,,,,false,,,,263191.799999997,263191.5,,263191.10000000894,,263196.943,8,400,,,
break_continue,html.Screen,4_33_2,2023-11-01T01:23:03.250Z,,0,,,NaN,,,,,,false,,,,263192.10000000894,263192,,263191.90000000596,,263196.943,8,400,,,
sequence,flow.Sequence,4_33,2023-11-01T01:23:03.251Z,,0,,,3144.9310000000114,completion,,,,,false,,,,263192.299999997,263192,260030.403,260033.90000000596,260047.069,263196.943,8,400,,,
trial,html.Screen,4_34_0,2023-11-01T01:23:06.263Z,,0,1,,3007.5569999999716,response,ISIC_0027408.JPG,8,ISIC_0011529.JPG,ISIC_0027408.JPG,false,1,keypress(m),500,266204.799999997,266204.5,263180.277,263192.40000000596,263196.943,266213.489,8,400,35,,ISIC_0011529.JPG
break,html.Screen,4_34_1,2023-11-01T01:23:06.264Z,,0,,,NaN,,,,,,false,,,,266205.700000003,266205.60000000894,,266205.10000000894,,266213.489,8,400,,,
break_continue,html.Screen,4_34_2,2023-11-01T01:23:06.264Z,,0,,,NaN,,,,,,false,,,,266206.10000000894,266205.90000000596,,266205.90000000596,,266213.489,8,400,,,
sequence,flow.Sequence,4_34,2023-11-01T01:23:06.264Z,,0,,,3008.957000005932,completion,,,,,false,,,,266206.299999997,266205.90000000596,263180.277,263192.40000000596,263196.943,266213.489,8,400,,,
trial,html.Screen,4_35_0,2023-11-01T01:23:09.452Z,,0,1,,3180.0109999999986,response,ISIC_0066671.JPG,9,ISIC_0007678.JPG,ISIC_0007678.JPG,false,0,keypress(z),500,269393.90000000596,269393.5,266196.823,266206.40000000596,266213.489,269397.136,8,400,36,,ISIC_0066671.JPG
break,html.Screen,4_35_1,2023-11-01T01:23:09.453Z,,0,,,NaN,,,,,,false,,,,269394.799999997,269394.700000003,,269394.200000003,,269397.136,8,400,,,
break_continue,html.Screen,4_35_2,2023-11-01T01:23:09.453Z,,0,,,NaN,,,,,,false,,,,269395.200000003,269395.200000003,,269395,,269397.136,8,400,,,
sequence,flow.Sequence,4_35,2023-11-01T01:23:09.454Z,,0,,,3181.711000002979,completion,,,,,false,,,,269395.40000000596,269395.200000003,266196.823,266206.40000000596,266213.489,269397.136,8,400,,,
trial,html.Screen,4_36_0,2023-11-01T01:23:12.963Z,,0,1,,3507.464000008942,response,ISIC_7822725.JPG,8,ISIC_0028755.JPG,ISIC_0028755.JPG,false,0,keypress(z),500,272905,272904.60000000894,269380.47,269395.60000000894,269397.136,272913.662,8,400,37,,ISIC_7822725.JPG
break,html.Screen,4_36_1,2023-11-01T01:23:12.964Z,,0,,,NaN,,,,,,false,,,,272905.90000000596,272905.60000000894,,272905.200000003,,272913.662,8,400,,,
break_continue,html.Screen,4_36_2,2023-11-01T01:23:12.964Z,,0,,,NaN,,,,,,false,,,,272906.299999997,272906.10000000894,,272906,,272913.662,8,400,,,
sequence,flow.Sequence,4_36,2023-11-01T01:23:12.965Z,,0,,,3508.964000008942,completion,,,,,false,,,,272906.40000000596,272906.10000000894,269380.47,269395.5,269397.136,272913.662,8,400,,,
trial,html.Screen,4_37_0,2023-11-01T01:23:16.361Z,,0,1,,3388.9380000089295,response,ISIC_0014703.JPG,8,ISIC_0072173.JPG,ISIC_0072173.JPG,false,0,keypress(z),500,276303,276302.60000000894,272896.996,272906.5,272913.662,276313.526,8,400,38,,ISIC_0014703.JPG
break,html.Screen,4_37_1,2023-11-01T01:23:16.362Z,,0,,,NaN,,,,,,false,,,,276304,276303.799999997,,276303.40000000596,,276313.526,8,400,,,
break_continue,html.Screen,4_37_2,2023-11-01T01:23:16.362Z,,0,,,NaN,,,,,,false,,,,276304.299999997,276304.299999997,,276304.10000000894,,276313.526,8,400,,,
sequence,flow.Sequence,4_37,2023-11-01T01:23:16.363Z,,0,,,3390.6379999970086,completion,,,,,false,,,,276304.60000000894,276304.299999997,272896.996,272906.5,272913.662,276313.526,8,400,,,
trial,html.Screen,4_38_0,2023-11-01T01:23:19.861Z,,0,1,,3488.9739999999874,response,ISIC_6119202.JPG,8,ISIC_9023152.JPG,ISIC_9023152.JPG,false,0,keypress(z),500,279802.799999997,279802.5,276296.86,276304.700000003,276313.526,279813.744,8,400,39,,ISIC_6119202.JPG
break,html.Screen,4_38_1,2023-11-01T01:23:19.862Z,,0,,,NaN,,,,,,false,,,,279803.799999997,279803.60000000894,,279803.10000000894,,279813.744,8,400,,,
break_continue,html.Screen,4_38_2,2023-11-01T01:23:19.862Z,,0,,,NaN,,,,,,false,,,,279804.10000000894,279803.90000000596,,279803.799999997,,279813.744,8,400,,,
sequence,flow.Sequence,4_38,2023-11-01T01:23:19.862Z,,0,,,3490.374000005948,completion,,,,,false,,,,279804.200000003,279803.90000000596,276296.86,276304.60000000894,276313.526,279813.744,8,400,,,
trial,html.Screen,4_39_0,2023-11-01T01:23:24.014Z,,0,1,,4141.956000002974,response,ISIC_5400609.JPG,5,ISIC_8008242.JPG,ISIC_8008242.JPG,false,0,keypress(z),500,283956,283955.700000003,279797.078,279804.40000000596,279813.744,283963.578,8,400,40,,ISIC_5400609.JPG
break,html.Screen,4_39_1,2023-11-01T01:23:24.015Z,,0,,,NaN,,,,,,false,,,,283956.90000000596,283956.700000003,,283956.200000003,,283963.578,8,400,,,
break_continue,html.Screen,4_39_2,2023-11-01T01:23:24.015Z,,0,,,NaN,,,,,,false,,,,283957.200000003,283957.10000000894,,283957,,283963.578,8,400,,,
sequence,flow.Sequence,4_39,2023-11-01T01:23:24.015Z,,0,,,4143.356000008935,completion,,,,,false,,,,283957.40000000596,283957.10000000894,279797.078,279804.299999997,279813.744,283963.578,8,400,,,
trial,html.Screen,4_40_0,2023-11-01T01:23:27.316Z,,0,1,,3294.522000008961,response,ISIC_3608788.JPG,8,ISIC_0025755.JPG,ISIC_3608788.JPG,false,1,keypress(m),500,287258.40000000596,287258.10000000894,283946.912,283957.700000003,283963.578,287263.446,8,400,41,,ISIC_0025755.JPG
break,html.Screen,4_40_1,2023-11-01T01:23:27.317Z,,0,,,NaN,,,,,,false,,,,287259.299999997,287259.10000000894,,287258.799999997,,287263.446,8,400,,,
break_continue,html.Screen,4_40_2,2023-11-01T01:23:27.318Z,,0,,,NaN,,,,,,false,,,,287259.60000000894,287259.60000000894,,287259.40000000596,,287263.446,8,400,,,
sequence,flow.Sequence,4_40,2023-11-01T01:23:27.318Z,,0,,,3296.022000008961,completion,,,,,false,,,,287259.90000000596,287259.60000000894,283946.912,283957.60000000894,283963.578,287263.446,8,400,,,
trial,html.Screen,4_41_0,2023-11-01T01:23:30.395Z,,0,1,,3073.6540000089444,response,ISIC_7604596.JPG,7,ISIC_4692567.JPG,ISIC_7604596.JPG,false,1,keypress(m),500,290337.5,290337.10000000894,287246.78,287260,287263.446,290347.093,8,400,42,,ISIC_4692567.JPG
break,html.Screen,4_41_1,2023-11-01T01:23:30.396Z,,0,,,NaN,,,,,,false,,,,290338.40000000596,290338.200000003,,290337.799999997,,290347.093,8,400,,,
break_continue,html.Screen,4_41_2,2023-11-01T01:23:30.397Z,,0,,,NaN,,,,,,false,,,,290338.799999997,290338.700000003,,290338.60000000894,,290347.093,8,400,,,
sequence,flow.Sequence,4_41,2023-11-01T01:23:30.397Z,,0,,,3075.254000002984,completion,,,,,false,,,,290338.90000000596,290338.700000003,287246.78,287259.90000000596,287263.446,290347.093,8,400,,,
trial,html.Screen,4_42_0,2023-11-01T01:23:33.971Z,,0,1,,3566.007000008947,response,ISIC_0786233.JPG,7,ISIC_0026113.JPG,ISIC_0786233.JPG,false,1,keypress(m),500,293913.40000000596,293913.10000000894,290330.427,290339.10000000894,290347.093,293930.283,8,400,43,,ISIC_0026113.JPG
break,html.Screen,4_42_1,2023-11-01T01:23:33.972Z,,0,,,NaN,,,,,,false,,,,293914.299999997,293914.200000003,,293913.700000003,,293930.283,8,400,,,
break_continue,html.Screen,4_42_2,2023-11-01T01:23:33.973Z,,0,,,NaN,,,,,,false,,,,293914.60000000894,293914.60000000894,,293914.40000000596,,293930.283,8,400,,,
sequence,flow.Sequence,4_42,2023-11-01T01:23:33.973Z,,0,,,3567.507000008947,completion,,,,,false,,,,293914.799999997,293914.60000000894,290330.427,290339.10000000894,290347.093,293930.283,8,400,,,
trial,html.Screen,4_43_0,2023-11-01T01:23:37.304Z,,0,1,,3315.9170000029844,response,ISIC_5628615.JPG,7,ISIC_6344073.JPG,ISIC_5628615.JPG,false,1,keypress(m),500,297246.5,297246.200000003,293913.617,293914.90000000596,293930.283,297263.483,8,400,44,,ISIC_6344073.JPG
break,html.Screen,4_43_1,2023-11-01T01:23:37.305Z,,0,,,NaN,,,,,,false,,,,297247.40000000596,297247.299999997,,297246.799999997,,297263.483,8,400,,,
break_continue,html.Screen,4_43_2,2023-11-01T01:23:37.306Z,,0,,,NaN,,,,,,false,,,,297247.700000003,297247.60000000894,,297247.60000000894,,297263.483,8,400,,,
sequence,flow.Sequence,4_43,2023-11-01T01:23:37.306Z,,0,,,3317.317000008945,completion,,,,,false,,,,297247.90000000596,297247.60000000894,293913.617,293914.90000000596,293930.283,297263.483,8,400,,,
trial,html.Screen,4_44_0,2023-11-01T01:23:40.127Z,,0,1,,2805.217000002973,response,ISIC_0046458.JPG,8,ISIC_1152559.JPG,ISIC_1152559.JPG,false,0,keypress(z),500,300068.90000000596,300068.700000003,297246.817,297248.10000000894,297263.483,300080.037,8,400,45,,ISIC_0046458.JPG
break,html.Screen,4_44_1,2023-11-01T01:23:40.127Z,,0,,,NaN,,,,,,false,,,,300069.299999997,300069.200000003,,300069,,300080.037,8,400,,,
break_continue,html.Screen,4_44_2,2023-11-01T01:23:40.127Z,,0,,,NaN,,,,,,false,,,,300069.5,300069.5,,300069.40000000596,,300080.037,8,400,,,
sequence,flow.Sequence,4_44,2023-11-01T01:23:40.127Z,,0,,,2806.0169999999925,completion,,,,,false,,,,300069.5,300069.5,297246.817,297248.10000000894,297263.483,300080.037,8,400,,,
trial,html.Screen,4_45_0,2023-11-01T01:23:44.052Z,,0,1,,3914.0630000089295,response,ISIC_9806131.JPG,7,ISIC_3545622.JPG,ISIC_9806131.JPG,false,1,keypress(m),500,303994.299999997,303994.10000000894,300063.371,300069.700000003,300080.037,303996.998,8,400,46,,ISIC_3545622.JPG
break,html.Screen,4_45_1,2023-11-01T01:23:44.053Z,,0,,,NaN,,,,,,false,,,,303995.10000000894,303995,,303994.60000000894,,303996.998,8,400,,,
break_continue,html.Screen,4_45_2,2023-11-01T01:23:44.053Z,,0,,,NaN,,,,,,false,,,,303995.5,303995.40000000596,,303995.299999997,,303996.998,8,400,,,
sequence,flow.Sequence,4_45,2023-11-01T01:23:44.053Z,,0,,,3915.3630000059493,completion,,,,,false,,,,303995.60000000894,303995.40000000596,300063.371,300069.700000003,300080.037,303996.998,8,400,,,
trial,html.Screen,4_46_0,2023-11-01T01:23:48.042Z,,0,1,,3987.202000002959,response,ISIC_2430937.JPG,8,ISIC_0009488.JPG,ISIC_0009488.JPG,false,0,keypress(z),500,307984.5,307984.200000003,303980.332,303995.799999997,303996.998,307996.838,8,400,47,,ISIC_2430937.JPG
break,html.Screen,4_46_1,2023-11-01T01:23:48.043Z,,0,,,NaN,,,,,,false,,,,307985.299999997,307985.10000000894,,307984.700000003,,307996.838,8,400,,,
break_continue,html.Screen,4_46_2,2023-11-01T01:23:48.043Z,,0,,,NaN,,,,,,false,,,,307985.700000003,307985.60000000894,,307985.5,,307996.838,8,400,,,
sequence,flow.Sequence,4_46,2023-11-01T01:23:48.044Z,,0,,,3988.6020000089193,completion,,,,,false,,,,307985.799999997,307985.60000000894,303980.332,303995.700000003,303996.998,307996.838,8,400,,,
trial,html.Screen,4_47_0,2023-11-01T01:23:51.008Z,,0,1,,2953.3620000029914,response,ISIC_2833213.JPG,5,ISIC_9441572.JPG,ISIC_2833213.JPG,false,1,keypress(m),500,310950.5,310950.200000003,307980.172,307986,307996.838,310963.799,8,400,48,,ISIC_9441572.JPG
break,html.Screen,4_47_1,2023-11-01T01:23:51.009Z,,0,,,NaN,,,,,,false,,,,310951.40000000596,310951.200000003,,310950.799999997,,310963.799,8,400,,,
break_continue,html.Screen,4_47_2,2023-11-01T01:23:51.009Z,,0,,,NaN,,,,,,false,,,,310951.799999997,310951.60000000894,,310951.5,,310963.799,8,400,,,
sequence,flow.Sequence,4_47,2023-11-01T01:23:51.010Z,,0,,,2954.762000008952,completion,,,,,false,,,,310951.90000000596,310951.60000000894,307980.172,307985.90000000596,307996.838,310963.799,8,400,,,
trial,html.Screen,4_48_0,2023-11-01T01:23:53.739Z,,0,1,,2717.401000002981,response,ISIC_0058658.JPG,8,ISIC_0197584.JPG,ISIC_0197584.JPG,false,0,keypress(z),500,313681.5,313681.200000003,310947.133,310952,310963.799,313697.023,8,400,49,,ISIC_0058658.JPG
break,html.Screen,4_48_1,2023-11-01T01:23:53.740Z,,0,,,NaN,,,,,,false,,,,313682.40000000596,313682.10000000894,,313681.700000003,,313697.023,8,400,,,
break_continue,html.Screen,4_48_2,2023-11-01T01:23:53.740Z,,0,,,NaN,,,,,,false,,,,313682.700000003,313682.60000000894,,313682.5,,313697.023,8,400,,,
sequence,flow.Sequence,4_48,2023-11-01T01:23:53.740Z,,0,,,2718.8010000089416,completion,,,,,false,,,,313682.90000000596,313682.60000000894,310947.133,310952,310963.799,313697.023,8,400,,,
trial,html.Screen,4_49_0,2023-11-01T01:23:56.689Z,,0,1,,2934.1770000029937,response,ISIC_8742407.JPG,8,ISIC_0055450.JPG,ISIC_8742407.JPG,false,1,keypress(m),500,316631.5,316631.200000003,313680.357,313683,313697.023,316646.905,8,400,50,,ISIC_0055450.JPG
break,html.Screen,4_49_1,2023-11-01T01:24:06.692Z,,0,,,9999.958999999973,timeout,,,,,false,,,,326634.60000000894,326630.198,316630.239,316631.799999997,316646.905,326646.864,8,400,,,
break_continue,html.Screen,4_49_2,2023-11-01T01:24:08.154Z,,0,,,1440.3360000029788,response,,,,,false,continue,keypress(Space),,328096.40000000596,328087.200000003,326630.198,326634.799999997,326646.864,328113.472,8,400,,,
sequence,flow.Sequence,4_49,2023-11-01T01:24:08.154Z,,0,,,14390.177000002994,completion,,,,,false,,,,328096.60000000894,328087.200000003,313680.357,313682.90000000596,313697.023,328113.472,8,400,,,
trial,html.Screen,4_50_0,2023-11-01T01:24:11.822Z,,0,2,,3650.9280000059516,response,ISIC_0026890.JPG,7,ISIC_7175697.JPG,ISIC_0026890.JPG,false,1,keypress(m),500,331764.700000003,331764.40000000596,328096.806,328096.700000003,328113.472,331780.397,8,400,1,,ISIC_7175697.JPG
break,html.Screen,4_50_1,2023-11-01T01:24:11.823Z,,0,,,NaN,,,,,,false,,,,331765.700000003,331765.5,,331765,,331780.397,8,400,,,
break_continue,html.Screen,4_50_2,2023-11-01T01:24:11.823Z,,0,,,NaN,,,,,,false,,,,331766.10000000894,331766,,331765.90000000596,,331780.397,8,400,,,
sequence,flow.Sequence,4_50,2023-11-01T01:24:11.824Z,,0,,,3652.527999999991,completion,,,,,false,,,,331766.299999997,331766,328096.806,328096.60000000894,328113.472,331780.397,8,400,,,
trial,html.Screen,4_51_0,2023-11-01T01:24:18.549Z,,0,2,,6710.603000000003,response,ISIC_7973598.JPG,8,ISIC_0054988.JPG,ISIC_0054988.JPG,false,0,keypress(z),500,338491.40000000596,338491,331763.731,331766.40000000596,331780.397,338496.795,8,400,2,,ISIC_7973598.JPG
break,html.Screen,4_51_1,2023-11-01T01:24:18.550Z,,0,,,NaN,,,,,,false,,,,338492.200000003,338492,,338491.60000000894,,338496.795,8,400,,,
break_continue,html.Screen,4_51_2,2023-11-01T01:24:18.550Z,,0,,,NaN,,,,,,false,,,,338492.60000000894,338492.5,,338492.40000000596,,338496.795,8,400,,,
sequence,flow.Sequence,4_51,2023-11-01T01:24:18.550Z,,0,,,6712.103000000003,completion,,,,,false,,,,338492.90000000596,338492.5,331763.731,331766.299999997,331780.397,338496.795,8,400,,,
trial,html.Screen,4_52_0,2023-11-01T01:24:22.156Z,,0,2,,3601.9050000029965,response,ISIC_9050826.JPG,7,ISIC_4197990.JPG,ISIC_9050826.JPG,false,1,keypress(m),500,342099.10000000894,342098.700000003,338480.129,338492.90000000596,338496.795,342113.795,8,400,3,,ISIC_4197990.JPG
break,html.Screen,4_52_1,2023-11-01T01:24:22.157Z,,0,,,NaN,,,,,,false,,,,342100,342099.799999997,,342099.40000000596,,342113.795,8,400,,,
break_continue,html.Screen,4_52_2,2023-11-01T01:24:22.158Z,,0,,,NaN,,,,,,false,,,,342100.40000000596,342100.299999997,,342100.10000000894,,342113.795,8,400,,,
sequence,flow.Sequence,4_52,2023-11-01T01:24:22.158Z,,0,,,3603.504999997036,completion,,,,,false,,,,342100.5,342100.299999997,338480.129,338492.90000000596,338496.795,342113.795,8,400,,,
trial,html.Screen,4_53_0,2023-11-01T01:24:25.474Z,,0,2,,3302.805000008957,response,ISIC_2772217.JPG,7,ISIC_0070888.JPG,ISIC_2772217.JPG,false,1,keypress(m),500,345417,345416.60000000894,342097.129,342100.799999997,342113.795,345430.329,8,400,4,,ISIC_0070888.JPG
break,html.Screen,4_53_1,2023-11-01T01:24:25.475Z,,0,,,NaN,,,,,,false,,,,345417.799999997,345417.60000000894,,345417.299999997,,345430.329,8,400,,,
break_continue,html.Screen,4_53_2,2023-11-01T01:24:25.475Z,,0,,,NaN,,,,,,false,,,,345418.299999997,345418.10000000894,,345418,,345430.329,8,400,,,
sequence,flow.Sequence,4_53,2023-11-01T01:24:25.476Z,,0,,,3304.305000008957,completion,,,,,false,,,,345418.5,345418.10000000894,342097.129,342100.700000003,342113.795,345430.329,8,400,,,
trial,html.Screen,4_54_0,2023-11-01T01:24:29.164Z,,0,2,,3676.371000002953,response,ISIC_0029993.JPG,9,ISIC_7765349.JPG,ISIC_0029993.JPG,false,1,keypress(m),500,349107.10000000894,349106.700000003,345413.663,345418.60000000894,345430.329,349113.515,8,400,5,,ISIC_7765349.JPG
break,html.Screen,4_54_1,2023-11-01T01:24:29.165Z,,0,,,NaN,,,,,,false,,,,349108,349107.700000003,,349107.299999997,,349113.515,8,400,,,
break_continue,html.Screen,4_54_2,2023-11-01T01:24:29.165Z,,0,,,NaN,,,,,,false,,,,349108.299999997,349108.200000003,,349108.10000000894,,349113.515,8,400,,,
sequence,flow.Sequence,4_54,2023-11-01T01:24:29.166Z,,0,,,3677.871000002953,completion,,,,,false,,,,349108.5,349108.200000003,345413.663,345418.60000000894,345430.329,349113.515,8,400,,,
trial,html.Screen,4_55_0,2023-11-01T01:24:33.141Z,,0,2,,3970.0850000089267,response,ISIC_6118204.JPG,8,ISIC_0032269.JPG,ISIC_6118204.JPG,false,1,keypress(m),500,353084.10000000894,353083.60000000894,349096.849,349108.60000000894,349113.515,353097.051,8,400,6,,ISIC_0032269.JPG
break,html.Screen,4_55_1,2023-11-01T01:24:33.142Z,,0,,,NaN,,,,,,false,,,,353084.90000000596,353084.799999997,,353084.299999997,,353097.051,8,400,,,
break_continue,html.Screen,4_55_2,2023-11-01T01:24:33.142Z,,0,,,NaN,,,,,,false,,,,353085.299999997,353085.200000003,,353085,,353097.051,8,400,,,
sequence,flow.Sequence,4_55,2023-11-01T01:24:33.143Z,,0,,,3971.6850000029663,completion,,,,,false,,,,353085.5,353085.200000003,349096.849,349108.60000000894,349113.515,353097.051,8,400,,,
trial,html.Screen,4_56_0,2023-11-01T01:24:37.022Z,,0,2,,3867.748999997042,response,ISIC_4945233.JPG,8,ISIC_6854940.JPG,ISIC_6854940.JPG,false,0,keypress(z),500,356965.10000000894,356964.799999997,353080.385,353085.60000000894,353097.051,356980.229,8,400,7,,ISIC_4945233.JPG
break,html.Screen,4_56_1,2023-11-01T01:24:37.023Z,,0,,,NaN,,,,,,false,,,,356966,356965.799999997,,356965.40000000596,,356980.229,8,400,,,
break_continue,html.Screen,4_56_2,2023-11-01T01:24:37.023Z,,0,,,NaN,,,,,,false,,,,356966.40000000596,356966.299999997,,356966.200000003,,356980.229,8,400,,,
sequence,flow.Sequence,4_56,2023-11-01T01:24:37.024Z,,0,,,3869.248999997042,completion,,,,,false,,,,356966.60000000894,356966.299999997,353080.385,353085.60000000894,353097.051,356980.229,8,400,,,
trial,html.Screen,4_57_0,2023-11-01T01:24:40.408Z,,0,2,,3369.8710000089486,response,ISIC_9568327.JPG,8,ISIC_6767569.JPG,ISIC_9568327.JPG,false,1,keypress(m),500,360350.5,360350.10000000894,356963.563,356966.799999997,356980.229,360363.427,8,400,8,,ISIC_6767569.JPG
break,html.Screen,4_57_1,2023-11-01T01:24:40.408Z,,0,,,NaN,,,,,,false,,,,360351.40000000596,360351.299999997,,360350.799999997,,360363.427,8,400,,,
break_continue,html.Screen,4_57_2,2023-11-01T01:24:40.409Z,,0,,,NaN,,,,,,false,,,,360351.799999997,360351.700000003,,360351.60000000894,,360363.427,8,400,,,
sequence,flow.Sequence,4_57,2023-11-01T01:24:40.409Z,,0,,,3371.471000002988,completion,,,,,false,,,,360352,360351.700000003,356963.563,356966.700000003,356980.229,360363.427,8,400,,,
trial,html.Screen,4_58_0,2023-11-01T01:24:43.982Z,,0,2,,3561.572999999975,response,ISIC_9822350.JPG,8,ISIC_0071869.JPG,ISIC_9822350.JPG,false,1,keypress(m),500,363925.299999997,363925,360346.761,360352.200000003,360363.427,363930.4,8,400,9,,ISIC_0071869.JPG
break,html.Screen,4_58_1,2023-11-01T01:24:43.983Z,,0,,,NaN,,,,,,false,,,,363926.200000003,363926,,363925.60000000894,,363930.4,8,400,,,
break_continue,html.Screen,4_58_2,2023-11-01T01:24:43.984Z,,0,,,NaN,,,,,,false,,,,363926.60000000894,363926.40000000596,,363926.299999997,,363930.4,8,400,,,
sequence,flow.Sequence,4_58,2023-11-01T01:24:43.984Z,,0,,,3562.9730000059353,completion,,,,,false,,,,363926.700000003,363926.40000000596,360346.761,360352.10000000894,360363.427,363930.4,8,400,,,
trial,html.Screen,4_59_0,2023-11-01T01:24:47.220Z,,0,2,,3232.7000000089174,response,ISIC_0026296.JPG,7,ISIC_0033016.JPG,ISIC_0026296.JPG,false,1,keypress(m),500,367163.40000000596,367163.10000000894,363913.734,363926.90000000596,363930.4,367180.27,8,400,10,,ISIC_0033016.JPG
break,html.Screen,4_59_1,2023-11-01T01:24:47.221Z,,0,,,NaN,,,,,,false,,,,367164.299999997,367164.10000000894,,367163.700000003,,367180.27,8,400,,,
break_continue,html.Screen,4_59_2,2023-11-01T01:24:47.222Z,,0,,,NaN,,,,,,false,,,,367164.700000003,367164.5,,367164.5,,367180.27,8,400,,,
sequence,flow.Sequence,4_59,2023-11-01T01:24:47.222Z,,0,,,3234.0999999999767,completion,,,,,false,,,,367165,367164.5,363913.734,363926.799999997,363930.4,367180.27,8,400,,,
trial,html.Screen,4_60_0,2023-11-01T01:24:50.153Z,,0,2,,2915.7299999999814,response,ISIC_7101810.JPG,7,ISIC_8814398.JPG,ISIC_7101810.JPG,false,1,keypress(m),500,370096.299999997,370096,367163.604,367165.10000000894,367180.27,370113.486,8,400,11,,ISIC_8814398.JPG
break,html.Screen,4_60_1,2023-11-01T01:24:50.154Z,,0,,,NaN,,,,,,false,,,,370097.200000003,370097,,370096.60000000894,,370113.486,8,400,,,
break_continue,html.Screen,4_60_2,2023-11-01T01:24:50.154Z,,0,,,NaN,,,,,,false,,,,370097.60000000894,370097.40000000596,,370097.299999997,,370113.486,8,400,,,
sequence,flow.Sequence,4_60,2023-11-01T01:24:50.155Z,,0,,,2917.130000005942,completion,,,,,false,,,,370097.799999997,370097.40000000596,367163.604,367165.10000000894,367180.27,370113.486,8,400,,,
trial,html.Screen,4_61_0,2023-11-01T01:24:53.902Z,,0,2,,3731.414000005985,response,ISIC_0055727.JPG,8,ISIC_3996796.JPG,ISIC_0055727.JPG,false,1,keypress(m),500,373845.299999997,373844.90000000596,370096.82,370098,370113.486,373863.795,8,400,12,,ISIC_3996796.JPG
break,html.Screen,4_61_1,2023-11-01T01:24:53.903Z,,0,,,NaN,,,,,,false,,,,373846.200000003,373846,,373845.5,,373863.795,8,400,,,
break_continue,html.Screen,4_61_2,2023-11-01T01:24:53.903Z,,0,,,NaN,,,,,,false,,,,373846.5,373846.5,,373846.299999997,,373863.795,8,400,,,
sequence,flow.Sequence,4_61,2023-11-01T01:24:53.904Z,,0,,,3733.0140000000247,completion,,,,,false,,,,373846.700000003,373846.5,370096.82,370097.799999997,370113.486,373863.795,8,400,,,
trial,html.Screen,4_62_0,2023-11-01T01:24:57.141Z,,0,2,,3220.1050000059768,response,ISIC_0007622.JPG,9,ISIC_5234605.JPG,ISIC_0007622.JPG,false,1,keypress(m),500,377084.200000003,377083.90000000596,373847.129,373846.799999997,373863.795,377096.999,8,400,13,,ISIC_5234605.JPG
break,html.Screen,4_62_1,2023-11-01T01:24:57.142Z,,0,,,NaN,,,,,,false,,,,377085.10000000894,377084.90000000596,,377084.40000000596,,377096.999,8,400,,,
break_continue,html.Screen,4_62_2,2023-11-01T01:24:57.142Z,,0,,,NaN,,,,,,false,,,,377085.40000000596,377085.299999997,,377085.200000003,,377096.999,8,400,,,
sequence,flow.Sequence,4_62,2023-11-01T01:24:57.142Z,,0,,,3221.504999997036,completion,,,,,false,,,,377085.60000000894,377085.299999997,373847.129,373846.799999997,373863.795,377096.999,8,400,,,
trial,html.Screen,4_63_0,2023-11-01T01:25:00.024Z,,0,2,,2869.7010000029695,response,ISIC_0059768.JPG,7,ISIC_1332766.JPG,ISIC_1332766.JPG,false,0,keypress(z),500,379966.90000000596,379966.700000003,377080.333,377085.799999997,377096.999,379996.883,8,400,14,,ISIC_0059768.JPG
break,html.Screen,4_63_1,2023-11-01T01:25:00.025Z,,0,,,NaN,,,,,,false,,,,379967.90000000596,379967.60000000894,,379967.299999997,,379996.883,8,400,,,
break_continue,html.Screen,4_63_2,2023-11-01T01:25:00.025Z,,0,,,NaN,,,,,,false,,,,379968.299999997,379968.10000000894,,379968,,379996.883,8,400,,,
sequence,flow.Sequence,4_63,2023-11-01T01:25:00.025Z,,0,,,2871.10100000893,completion,,,,,false,,,,379968.40000000596,379968.10000000894,377080.333,377085.700000003,377096.999,379996.883,8,400,,,
trial,html.Screen,4_64_0,2023-11-01T01:25:05.884Z,,0,2,,5830.517000005988,response,ISIC_0071594.JPG,5,ISIC_7295035.JPG,ISIC_0071594.JPG,false,1,keypress(m),500,385827.700000003,385827.40000000596,379980.217,379968.5,379996.883,385830.307,8,400,15,,ISIC_7295035.JPG
break,html.Screen,4_64_1,2023-11-01T01:25:05.885Z,,0,,,NaN,,,,,,false,,,,385828.700000003,385828.40000000596,,385828,,385830.307,8,400,,,
break_continue,html.Screen,4_64_2,2023-11-01T01:25:05.886Z,,0,,,NaN,,,,,,false,,,,385829,385828.90000000596,,385828.799999997,,385830.307,8,400,,,
sequence,flow.Sequence,4_64,2023-11-01T01:25:05.886Z,,0,,,5832.017000005988,completion,,,,,false,,,,385829.200000003,385828.90000000596,379980.217,379968.5,379996.883,385830.307,8,400,,,
trial,html.Screen,4_65_0,2023-11-01T01:25:10.467Z,,0,2,,4580.193000000028,response,ISIC_0032140.JPG,8,ISIC_6828892.JPG,ISIC_6828892.JPG,false,0,keypress(z),500,390410.799999997,390410.5,385813.641,385829.40000000596,385830.307,390413.457,8,400,16,,ISIC_0032140.JPG
break,html.Screen,4_65_1,2023-11-01T01:25:10.468Z,,0,,,NaN,,,,,,false,,,,390411.799999997,390411.5,,390411.10000000894,,390413.457,8,400,,,
break_continue,html.Screen,4_65_2,2023-11-01T01:25:10.469Z,,0,,,NaN,,,,,,false,,,,390412.10000000894,390411.90000000596,,390411.799999997,,390413.457,8,400,,,
sequence,flow.Sequence,4_65,2023-11-01T01:25:10.469Z,,0,,,4581.593000005989,completion,,,,,false,,,,390412.299999997,390411.90000000596,385813.641,385829.299999997,385830.307,390413.457,8,400,,,
trial,html.Screen,4_66_0,2023-11-01T01:25:14.430Z,,0,2,,3959.543000000005,response,ISIC_0033603.JPG,7,ISIC_0034049.JPG,ISIC_0034049.JPG,false,0,keypress(z),500,394373.5,394373,390396.791,390412.5,390413.457,394380.46,8,400,17,,ISIC_0033603.JPG
break,html.Screen,4_66_1,2023-11-01T01:25:14.431Z,,0,,,NaN,,,,,,false,,,,394374.40000000596,394374.200000003,,394373.700000003,,394380.46,8,400,,,
break_continue,html.Screen,4_66_2,2023-11-01T01:25:14.431Z,,0,,,NaN,,,,,,false,,,,394374.799999997,394374.700000003,,394374.60000000894,,394380.46,8,400,,,
sequence,flow.Sequence,4_66,2023-11-01T01:25:14.432Z,,0,,,3961.2430000029854,completion,,,,,false,,,,394375,394374.700000003,390396.791,390412.40000000596,390413.457,394380.46,8,400,,,
trial,html.Screen,4_67_0,2023-11-01T01:25:17.849Z,,0,2,,3411.339999996999,response,ISIC_1108178.JPG,7,ISIC_1166740.JPG,ISIC_1108178.JPG,false,1,keypress(m),500,397792.200000003,397791.799999997,394363.794,394375.10000000894,394380.46,397796.99,8,400,18,,ISIC_1166740.JPG
break,html.Screen,4_67_1,2023-11-01T01:25:17.850Z,,0,,,NaN,,,,,,false,,,,397793.200000003,397793,,397792.60000000894,,397796.99,8,400,,,
break_continue,html.Screen,4_67_2,2023-11-01T01:25:17.850Z,,0,,,NaN,,,,,,false,,,,397793.60000000894,397793.5,,397793.299999997,,397796.99,8,400,,,
sequence,flow.Sequence,4_67,2023-11-01T01:25:17.850Z,,0,,,3413.039999999979,completion,,,,,false,,,,397793.90000000596,397793.5,394363.794,394375,394380.46,397796.99,8,400,,,
trial,html.Screen,4_68_0,2023-11-01T01:25:21.425Z,,0,2,,3570.809999997029,response,ISIC_0805941.JPG,8,ISIC_0003068.JPG,ISIC_0003068.JPG,false,0,keypress(z),500,401368.200000003,401367.799999997,397780.324,397793.90000000596,397796.99,401380.18,8,400,19,,ISIC_0805941.JPG
break,html.Screen,4_68_1,2023-11-01T01:25:21.426Z,,0,,,NaN,,,,,,false,,,,401369.10000000894,401368.90000000596,,401368.40000000596,,401380.18,8,400,,,
break_continue,html.Screen,4_68_2,2023-11-01T01:25:21.426Z,,0,,,NaN,,,,,,false,,,,401369.5,401369.40000000596,,401369.200000003,,401380.18,8,400,,,
sequence,flow.Sequence,4_68,2023-11-01T01:25:21.426Z,,0,,,3572.41000000597,completion,,,,,false,,,,401369.700000003,401369.40000000596,397780.324,397793.90000000596,397796.99,401380.18,8,400,,,
trial,html.Screen,4_69_0,2023-11-01T01:25:24.711Z,,0,2,,3274.1199999970268,response,ISIC_0009955.JPG,8,ISIC_2465895.JPG,ISIC_2465895.JPG,false,0,keypress(z),500,404654.5,404654.299999997,401363.514,401369.799999997,401380.18,404663.789,8,400,20,,ISIC_0009955.JPG
break,html.Screen,4_69_1,2023-11-01T01:25:24.712Z,,0,,,NaN,,,,,,false,,,,404655.5,404655.299999997,,404654.799999997,,404663.789,8,400,,,
break_continue,html.Screen,4_69_2,2023-11-01T01:25:24.712Z,,0,,,NaN,,,,,,false,,,,404655.799999997,404655.700000003,,404655.60000000894,,404663.789,8,400,,,
sequence,flow.Sequence,4_69,2023-11-01T01:25:24.712Z,,0,,,3275.520000002987,completion,,,,,false,,,,404656,404655.700000003,401363.514,401369.799999997,401380.18,404663.789,8,400,,,
trial,html.Screen,4_70_0,2023-11-01T01:25:27.949Z,,0,2,,3228.7110000000102,response,ISIC_0069274.JPG,8,ISIC_7260013.JPG,ISIC_7260013.JPG,false,0,keypress(z),500,407892.90000000596,407892.5,404647.123,404656.10000000894,404663.789,407896.993,8,400,21,,ISIC_0069274.JPG
break,html.Screen,4_70_1,2023-11-01T01:25:27.950Z,,0,,,NaN,,,,,,false,,,,407893.799999997,407893.5,,407893.10000000894,,407896.993,8,400,,,
break_continue,html.Screen,4_70_2,2023-11-01T01:25:27.951Z,,0,,,NaN,,,,,,false,,,,407894.10000000894,407894,,407893.90000000596,,407896.993,8,400,,,
sequence,flow.Sequence,4_70,2023-11-01T01:25:27.951Z,,0,,,3230.2110000000102,completion,,,,,false,,,,407894.299999997,407894,404647.123,404656.10000000894,404663.789,407896.993,8,400,,,
trial,html.Screen,4_71_0,2023-11-01T01:25:30.916Z,,0,2,,2961.806999997003,response,ISIC_5229861.JPG,7,ISIC_3315146.JPG,ISIC_5229861.JPG,false,1,keypress(m),500,410859.10000000894,410858.799999997,407880.327,407894.40000000596,407896.993,410863.541,8,400,22,,ISIC_3315146.JPG
break,html.Screen,4_71_1,2023-11-01T01:25:30.916Z,,0,,,NaN,,,,,,false,,,,410860,410859.90000000596,,410859.5,,410863.541,8,400,,,
break_continue,html.Screen,4_71_2,2023-11-01T01:25:30.917Z,,0,,,NaN,,,,,,false,,,,410860.40000000596,410860.299999997,,410860.200000003,,410863.541,8,400,,,
sequence,flow.Sequence,4_71,2023-11-01T01:25:30.917Z,,0,,,2963.306999997003,completion,,,,,false,,,,410860.60000000894,410860.299999997,407880.327,407894.299999997,407896.993,410863.541,8,400,,,
trial,html.Screen,4_72_0,2023-11-01T01:25:33.818Z,,0,2,,2897.258999996993,response,ISIC_0012081.JPG,7,ISIC_8207974.JPG,ISIC_8207974.JPG,false,0,keypress(z),500,413761.10000000894,413760.799999997,410846.875,410860.799999997,410863.541,413763.425,8,400,23,,ISIC_0012081.JPG
break,html.Screen,4_72_1,2023-11-01T01:25:33.818Z,,0,,,NaN,,,,,,false,,,,413762.10000000894,413761.799999997,,413761.40000000596,,413763.425,8,400,,,
break_continue,html.Screen,4_72_2,2023-11-01T01:25:33.819Z,,0,,,NaN,,,,,,false,,,,413762.5,413762.40000000596,,413762.200000003,,413763.425,8,400,,,
sequence,flow.Sequence,4_72,2023-11-01T01:25:33.820Z,,0,,,2898.859000005934,completion,,,,,false,,,,413763.60000000894,413762.40000000596,410846.875,410860.700000003,410863.541,413763.425,8,400,,,
trial,html.Screen,4_73_0,2023-11-01T01:25:36.977Z,,0,2,,3156.6750000089523,response,ISIC_0071180.JPG,8,ISIC_9354965.JPG,ISIC_9354965.JPG,false,0,keypress(z),500,416920.5,416920.10000000894,413746.759,413763.700000003,413763.425,416930.351,8,400,24,,ISIC_0071180.JPG
break,html.Screen,4_73_1,2023-11-01T01:25:36.978Z,,0,,,NaN,,,,,,false,,,,416921.40000000596,416921.200000003,,416920.700000003,,416930.351,8,400,,,
break_continue,html.Screen,4_73_2,2023-11-01T01:25:36.978Z,,0,,,NaN,,,,,,false,,,,416921.799999997,416921.60000000894,,416921.5,,416930.351,8,400,,,
sequence,flow.Sequence,4_73,2023-11-01T01:25:36.978Z,,0,,,3158.1750000089523,completion,,,,,false,,,,416922,416921.60000000894,413746.759,413763.60000000894,413763.425,416930.351,8,400,,,
trial,html.Screen,4_74_0,2023-11-01T01:25:39.624Z,,0,2,,2636.5490000059363,response,ISIC_0067577.JPG,7,ISIC_4163843.JPG,ISIC_4163843.JPG,false,0,keypress(z),500,419567.40000000596,419566.90000000596,416913.685,416922.10000000894,416930.351,419580.245,8,400,25,,ISIC_0067577.JPG
break,html.Screen,4_74_1,2023-11-01T01:25:39.625Z,,0,,,NaN,,,,,,false,,,,419568.299999997,419568.10000000894,,419567.700000003,,419580.245,8,400,,,
break_continue,html.Screen,4_74_2,2023-11-01T01:25:39.625Z,,0,,,NaN,,,,,,false,,,,419568.700000003,419568.60000000894,,419568.5,,419580.245,8,400,,,
sequence,flow.Sequence,4_74,2023-11-01T01:25:39.625Z,,0,,,2638.2490000089165,completion,,,,,false,,,,419568.90000000596,419568.60000000894,416913.685,416922,416930.351,419580.245,8,400,,,
trial,html.Screen,4_75_0,2023-11-01T01:25:43.965Z,,0,2,,4327.855000008945,response,ISIC_2619533.JPG,8,ISIC_1479949.JPG,ISIC_2619533.JPG,false,1,keypress(m),500,423908.40000000596,423908.10000000894,419563.579,419569.10000000894,419580.245,423913.405,8,400,26,,ISIC_1479949.JPG
break,html.Screen,4_75_1,2023-11-01T01:25:43.966Z,,0,,,NaN,,,,,,false,,,,423909.40000000596,423909.200000003,,423908.799999997,,423913.405,8,400,,,
break_continue,html.Screen,4_75_2,2023-11-01T01:25:43.966Z,,0,,,NaN,,,,,,false,,,,423909.700000003,423909.60000000894,,423909.5,,423913.405,8,400,,,
sequence,flow.Sequence,4_75,2023-11-01T01:25:43.966Z,,0,,,4329.355000008945,completion,,,,,false,,,,423909.90000000596,423909.60000000894,419563.579,419568.90000000596,419580.245,423913.405,8,400,,,
trial,html.Screen,4_76_0,2023-11-01T01:25:46.947Z,,0,2,,2977.394999996992,response,ISIC_9895436.JPG,8,ISIC_0046223.JPG,ISIC_9895436.JPG,false,1,keypress(m),500,426891.200000003,426890.799999997,423896.739,423910,423913.405,426913.69,8,400,27,,ISIC_0046223.JPG
break,html.Screen,4_76_1,2023-11-01T01:25:46.948Z,,0,,,NaN,,,,,,false,,,,426892,426891.799999997,,426891.5,,426913.69,8,400,,,
break_continue,html.Screen,4_76_2,2023-11-01T01:25:46.949Z,,0,,,NaN,,,,,,false,,,,426892.40000000596,426892.299999997,,426892.10000000894,,426913.69,8,400,,,
sequence,flow.Sequence,4_76,2023-11-01T01:25:46.949Z,,0,,,2978.894999996992,completion,,,,,false,,,,426892.5,426892.299999997,423896.739,423910,423913.405,426913.69,8,400,,,
trial,html.Screen,4_77_0,2023-11-01T01:25:51.147Z,,0,2,,4176.609999997017,response,ISIC_0034134.JPG,5,ISIC_0032709.JPG,ISIC_0034134.JPG,false,1,keypress(m),500,431090.5,431090.299999997,426897.024,426892.799999997,426913.69,431096.856,8,400,28,,ISIC_0032709.JPG
break,html.Screen,4_77_1,2023-11-01T01:25:51.148Z,,0,,,NaN,,,,,,false,,,,431091.5,431091.299999997,,431090.90000000596,,431096.856,8,400,,,
break_continue,html.Screen,4_77_2,2023-11-01T01:25:51.148Z,,0,,,NaN,,,,,,false,,,,431091.90000000596,431091.700000003,,431091.60000000894,,431096.856,8,400,,,
sequence,flow.Sequence,4_77,2023-11-01T01:25:51.148Z,,0,,,4178.010000002978,completion,,,,,false,,,,431092,431091.700000003,426897.024,426892.700000003,426913.69,431096.856,8,400,,,
trial,html.Screen,4_78_0,2023-11-01T01:25:53.952Z,,0,2,,2798.8440000029514,response,ISIC_0026009.JPG,6,ISIC_0024449.JPG,ISIC_0026009.JPG,false,1,keypress(m),500,433896.10000000894,433895.700000003,431080.19,431092.200000003,431096.856,433913.41,8,400,29,,ISIC_0024449.JPG
break,html.Screen,4_78_1,2023-11-01T01:25:53.953Z,,0,,,NaN,,,,,,false,,,,433897,433896.700000003,,433896.299999997,,433913.41,8,400,,,
break_continue,html.Screen,4_78_2,2023-11-01T01:25:53.953Z,,0,,,NaN,,,,,,false,,,,433897.299999997,433897.299999997,,433897.10000000894,,433913.41,8,400,,,
sequence,flow.Sequence,4_78,2023-11-01T01:25:53.954Z,,0,,,2800.443999996991,completion,,,,,false,,,,433897.60000000894,433897.299999997,431080.19,431092.200000003,431096.856,433913.41,8,400,,,
trial,html.Screen,4_79_0,2023-11-01T01:25:57.559Z,,0,2,,3588.990000005986,response,ISIC_0034144.JPG,8,ISIC_0033638.JPG,ISIC_0034144.JPG,false,1,keypress(m),500,437502.799999997,437502.40000000596,433896.744,433897.700000003,433913.41,437513.703,8,400,30,,ISIC_0033638.JPG
break,html.Screen,4_79_1,2023-11-01T01:25:57.560Z,,0,,,NaN,,,,,,false,,,,437503.60000000894,437503.5,,437503,,437513.703,8,400,,,
break_continue,html.Screen,4_79_2,2023-11-01T01:25:57.560Z,,0,,,NaN,,,,,,false,,,,437504.10000000894,437503.90000000596,,437503.799999997,,437513.703,8,400,,,
sequence,flow.Sequence,4_79,2023-11-01T01:25:57.560Z,,0,,,3590.490000005986,completion,,,,,false,,,,437504.200000003,437503.90000000596,433896.744,433897.60000000894,433913.41,437513.703,8,400,,,
trial,html.Screen,4_80_0,2023-11-01T01:26:04.909Z,,0,2,,7338.497000003001,response,ISIC_7176034.JPG,8,ISIC_5910595.JPG,ISIC_5910595.JPG,false,0,keypress(z),500,444852.700000003,444852.200000003,437497.037,437504.299999997,437513.703,444863.409,8,400,31,,ISIC_7176034.JPG
break,html.Screen,4_80_1,2023-11-01T01:26:04.910Z,,0,,,NaN,,,,,,false,,,,444853.799999997,444853.5,,444853,,444863.409,8,400,,,
break_continue,html.Screen,4_80_2,2023-11-01T01:26:04.910Z,,0,,,NaN,,,,,,false,,,,444854,444853.90000000596,,444853.799999997,,444863.409,8,400,,,
sequence,flow.Sequence,4_80,2023-11-01T01:26:04.910Z,,0,,,7340.197000005981,completion,,,,,false,,,,444854.200000003,444853.90000000596,437497.037,437504.299999997,437513.703,444863.409,8,400,,,
trial,html.Screen,4_81_0,2023-11-01T01:26:09.842Z,,0,2,,4922.691000008956,response,ISIC_0064006.JPG,6,ISIC_9788545.JPG,ISIC_9788545.JPG,false,0,keypress(z),500,449786.60000000894,449786.10000000894,444846.743,444854.200000003,444863.409,449796.971,8,400,32,,ISIC_0064006.JPG
break,html.Screen,4_81_1,2023-11-01T01:26:09.843Z,,0,,,NaN,,,,,,false,,,,449787.60000000894,449787.299999997,,449786.90000000596,,449796.971,8,400,,,
break_continue,html.Screen,4_81_2,2023-11-01T01:26:09.844Z,,0,,,NaN,,,,,,false,,,,449788.10000000894,449787.90000000596,,449787.799999997,,449796.971,8,400,,,
sequence,flow.Sequence,4_81,2023-11-01T01:26:09.844Z,,0,,,4924.491000005975,completion,,,,,false,,,,449788.200000003,449787.90000000596,444846.743,444854.200000003,444863.409,449796.971,8,400,,,
trial,html.Screen,4_82_0,2023-11-01T01:26:12.893Z,,0,2,,3039.629000008921,response,ISIC_0011527.JPG,8,ISIC_2670619.JPG,ISIC_2670619.JPG,false,0,keypress(z),500,452837,452836.60000000894,449780.305,449788.40000000596,449796.971,452846.849,8,400,33,,ISIC_0011527.JPG
break,html.Screen,4_82_1,2023-11-01T01:26:12.894Z,,0,,,NaN,,,,,,false,,,,452837.799999997,452837.60000000894,,452837.200000003,,452846.849,8,400,,,
break_continue,html.Screen,4_82_2,2023-11-01T01:26:12.894Z,,0,,,NaN,,,,,,false,,,,452838,452837.90000000596,,452837.799999997,,452846.849,8,400,,,
sequence,flow.Sequence,4_82,2023-11-01T01:26:12.894Z,,0,,,3040.929000005941,completion,,,,,false,,,,452838.10000000894,452837.90000000596,449780.305,449788.40000000596,449796.971,452846.849,8,400,,,
trial,html.Screen,4_83_0,2023-11-01T01:26:15.603Z,,0,2,,2699.4509999970323,response,ISIC_5498651.JPG,8,ISIC_0033594.JPG,ISIC_5498651.JPG,false,1,keypress(m),500,455546.799999997,455546.299999997,452830.183,452838.10000000894,452846.849,455563.407,8,400,34,,ISIC_0033594.JPG
break,html.Screen,4_83_1,2023-11-01T01:26:15.604Z,,0,,,NaN,,,,,,false,,,,455547.799999997,455547.60000000894,,455547,,455563.407,8,400,,,
break_continue,html.Screen,4_83_2,2023-11-01T01:26:15.604Z,,0,,,NaN,,,,,,false,,,,455548.10000000894,455548,,455547.90000000596,,455563.407,8,400,,,
sequence,flow.Sequence,4_83,2023-11-01T01:26:15.604Z,,0,,,2701.1510000000126,completion,,,,,false,,,,455548.40000000596,455548,452830.183,452838.10000000894,452846.849,455563.407,8,400,,,
trial,html.Screen,4_84_0,2023-11-01T01:26:21.050Z,,0,2,,5430.5929999999935,response,ISIC_0032970.JPG,8,ISIC_0010416.JPG,ISIC_0010416.JPG,false,0,keypress(z),500,460994.5,460994,455546.741,455548.40000000596,455563.407,460996.922,8,400,35,,ISIC_0032970.JPG
break,html.Screen,4_84_1,2023-11-01T01:26:21.051Z,,0,,,NaN,,,,,,false,,,,460995.40000000596,460995.200000003,,460994.799999997,,460996.922,8,400,,,
break_continue,html.Screen,4_84_2,2023-11-01T01:26:21.052Z,,0,,,NaN,,,,,,false,,,,460995.799999997,460995.700000003,,460995.60000000894,,460996.922,8,400,,,
sequence,flow.Sequence,4_84,2023-11-01T01:26:21.052Z,,0,,,5432.293000002974,completion,,,,,false,,,,460996,460995.700000003,455546.741,455548.40000000596,455563.407,460996.922,8,400,,,
trial,html.Screen,4_85_0,2023-11-01T01:26:24.115Z,,0,2,,3062.3779999969993,response,ISIC_6155981.JPG,8,ISIC_2064934.JPG,ISIC_2064934.JPG,false,0,keypress(z),500,464059.700000003,464059.299999997,460980.256,460996.200000003,460996.922,464063.466,8,400,36,,ISIC_6155981.JPG
break,html.Screen,4_85_1,2023-11-01T01:26:24.116Z,,0,,,NaN,,,,,,false,,,,464060.700000003,464060.5,,464060,,464063.466,8,400,,,
break_continue,html.Screen,4_85_2,2023-11-01T01:26:24.117Z,,0,,,NaN,,,,,,false,,,,464061.10000000894,464061,,464060.799999997,,464063.466,8,400,,,
sequence,flow.Sequence,4_85,2023-11-01T01:26:24.117Z,,0,,,3064.0779999999795,completion,,,,,false,,,,464061.200000003,464061,460980.256,460996.200000003,460996.922,464063.466,8,400,,,
trial,html.Screen,4_86_0,2023-11-01T01:26:27.385Z,,0,2,,3265.2340000029653,response,ISIC_0046315.JPG,7,ISIC_1388297.JPG,ISIC_1388297.JPG,false,0,keypress(z),500,467329.200000003,467328.700000003,464046.8,464061.40000000596,464063.466,467330.401,8,400,37,,ISIC_0046315.JPG
break,html.Screen,4_86_1,2023-11-01T01:26:27.386Z,,0,,,NaN,,,,,,false,,,,467330.10000000894,467329.90000000596,,467329.5,,467330.401,8,400,,,
break_continue,html.Screen,4_86_2,2023-11-01T01:26:27.386Z,,0,,,NaN,,,,,,false,,,,467330.5,467330.40000000596,,467330.200000003,,467330.401,8,400,,,
sequence,flow.Sequence,4_86,2023-11-01T01:26:27.386Z,,0,,,3266.9340000059456,completion,,,,,false,,,,467330.700000003,467330.40000000596,464046.8,464061.299999997,464063.466,467330.401,8,400,,,
trial,html.Screen,4_87_0,2023-11-01T01:26:30.431Z,,0,2,,3044.0989999999874,response,ISIC_3598244.JPG,7,ISIC_7984646.JPG,ISIC_3598244.JPG,false,1,keypress(m),500,470374.90000000596,470374.5,467313.735,467330.90000000596,467330.401,470380.279,8,400,38,,ISIC_7984646.JPG
break,html.Screen,4_87_1,2023-11-01T01:26:30.432Z,,0,,,NaN,,,,,,false,,,,470375.90000000596,470375.60000000894,,470375.200000003,,470380.279,8,400,,,
break_continue,html.Screen,4_87_2,2023-11-01T01:26:30.432Z,,0,,,NaN,,,,,,false,,,,470376.200000003,470376.10000000894,,470376,,470380.279,8,400,,,
sequence,flow.Sequence,4_87,2023-11-01T01:26:30.432Z,,0,,,3045.699000008928,completion,,,,,false,,,,470376.40000000596,470376.10000000894,467313.735,467330.799999997,467330.401,470380.279,8,400,,,
trial,html.Screen,4_88_0,2023-11-01T01:26:33.202Z,,0,2,,2766.2210000000196,response,ISIC_0010718.JPG,7,ISIC_0011627.JPG,ISIC_0010718.JPG,false,1,keypress(m),500,473146.799999997,473146.5,470363.613,470376.5,470380.279,473163.501,8,400,39,,ISIC_0011627.JPG
break,html.Screen,4_88_1,2023-11-01T01:26:33.203Z,,0,,,NaN,,,,,,false,,,,473147.799999997,473147.5,,473147,,473163.501,8,400,,,
break_continue,html.Screen,4_88_2,2023-11-01T01:26:33.204Z,,0,,,NaN,,,,,,false,,,,473148.10000000894,473148,,473147.799999997,,473163.501,8,400,,,
sequence,flow.Sequence,4_88,2023-11-01T01:26:33.204Z,,0,,,2767.7210000000196,completion,,,,,false,,,,473148.299999997,473148,470363.613,470376.5,470380.279,473163.501,8,400,,,
trial,html.Screen,4_89_0,2023-11-01T01:26:35.801Z,,0,2,,2581.199000002991,response,ISIC_0033710.JPG,8,ISIC_7582818.JPG,ISIC_7582818.JPG,false,0,keypress(z),500,475745.10000000894,475744.700000003,473146.835,473148.40000000596,473163.501,475746.731,8,400,40,,ISIC_0033710.JPG
break,html.Screen,4_89_1,2023-11-01T01:26:35.802Z,,0,,,NaN,,,,,,false,,,,475746.10000000894,475745.799999997,,475745.40000000596,,475746.731,8,400,,,
break_continue,html.Screen,4_89_2,2023-11-01T01:26:35.802Z,,0,,,NaN,,,,,,false,,,,475746.40000000596,475746.40000000596,,475746.200000003,,475746.731,8,400,,,
sequence,flow.Sequence,4_89,2023-11-01T01:26:35.802Z,,0,,,2582.899000005971,completion,,,,,false,,,,475746.700000003,475746.40000000596,473146.835,473148.40000000596,473163.501,475746.731,8,400,,,
trial,html.Screen,4_90_0,2023-11-01T01:26:41.683Z,,0,2,,5879.969000002951,response,ISIC_0054906.JPG,5,ISIC_0028691.JPG,ISIC_0054906.JPG,false,1,keypress(m),500,481627.10000000894,481626.700000003,475730.065,475746.799999997,475746.731,481630.216,8,400,41,,ISIC_0028691.JPG
break,html.Screen,4_90_1,2023-11-01T01:26:41.684Z,,0,,,NaN,,,,,,false,,,,481628,481627.90000000596,,481627.40000000596,,481630.216,8,400,,,
break_continue,html.Screen,4_90_2,2023-11-01T01:26:41.684Z,,0,,,NaN,,,,,,false,,,,481628.5,481628.40000000596,,481628.200000003,,481630.216,8,400,,,
sequence,flow.Sequence,4_90,2023-11-01T01:26:41.684Z,,0,,,5881.669000005932,completion,,,,,false,,,,481628.60000000894,481628.40000000596,475730.065,475746.799999997,475746.731,481630.216,8,400,,,
trial,html.Screen,4_91_0,2023-11-01T01:26:45.017Z,,0,2,,3330.884000008926,response,ISIC_0008431.JPG,5,ISIC_0065463.JPG,ISIC_0008431.JPG,false,1,keypress(m),500,484961.60000000894,484961.10000000894,481613.55,481628.799999997,481630.216,484963.416,8,400,42,,ISIC_0065463.JPG
break,html.Screen,4_91_1,2023-11-01T01:26:45.018Z,,0,,,NaN,,,,,,false,,,,484962.5,484962.299999997,,484961.799999997,,484963.416,8,400,,,
break_continue,html.Screen,4_91_2,2023-11-01T01:26:45.018Z,,0,,,NaN,,,,,,false,,,,484963,484962.90000000596,,484962.60000000894,,484963.416,8,400,,,
sequence,flow.Sequence,4_91,2023-11-01T01:26:45.019Z,,0,,,3332.6840000059456,completion,,,,,false,,,,484963.10000000894,484962.90000000596,481613.55,481628.799999997,481630.216,484963.416,8,400,,,
trial,html.Screen,4_92_0,2023-11-01T01:26:48.895Z,,0,2,,3876.184000008914,response,ISIC_2867416.JPG,9,ISIC_0028757.JPG,ISIC_2867416.JPG,false,1,keypress(m),500,488840.10000000894,488839.60000000894,484946.75,484963.299999997,484963.416,488847.02,8,400,43,,ISIC_0028757.JPG
break,html.Screen,4_92_1,2023-11-01T01:26:48.896Z,,0,,,NaN,,,,,,false,,,,488841.10000000894,488840.799999997,,488840.40000000596,,488847.02,8,400,,,
break_continue,html.Screen,4_92_2,2023-11-01T01:26:48.897Z,,0,,,NaN,,,,,,false,,,,488841.5,488841.40000000596,,488841.200000003,,488847.02,8,400,,,
sequence,flow.Sequence,4_92,2023-11-01T01:26:48.897Z,,0,,,3877.984000005934,completion,,,,,false,,,,488841.700000003,488841.40000000596,484946.75,484963.200000003,484963.416,488847.02,8,400,,,
trial,html.Screen,4_93_0,2023-11-01T01:26:52.070Z,,0,2,,3167.4799999999814,response,ISIC_6180870.JPG,7,ISIC_5281485.JPG,ISIC_6180870.JPG,false,1,keypress(m),500,492015,492014.5,488830.354,488841.799999997,488847.02,492030.226,8,400,44,,ISIC_5281485.JPG
break,html.Screen,4_93_1,2023-11-01T01:26:52.071Z,,0,,,NaN,,,,,,false,,,,492016.10000000894,492015.799999997,,492015.40000000596,,492030.226,8,400,,,
break_continue,html.Screen,4_93_2,2023-11-01T01:26:52.072Z,,0,,,NaN,,,,,,false,,,,492016.40000000596,492016.299999997,,492016.299999997,,492030.226,8,400,,,
sequence,flow.Sequence,4_93,2023-11-01T01:26:52.072Z,,0,,,3169.279999997001,completion,,,,,false,,,,492016.700000003,492016.299999997,488830.354,488841.799999997,488847.02,492030.226,8,400,,,
trial,html.Screen,4_94_0,2023-11-01T01:26:54.930Z,,0,2,,2843.974000002956,response,ISIC_0054123.JPG,8,ISIC_0054941.JPG,ISIC_0054123.JPG,false,1,keypress(m),500,494874.700000003,494874.200000003,492013.56,492016.799999997,492030.226,494896.778,8,400,45,,ISIC_0054941.JPG
break,html.Screen,4_94_1,2023-11-01T01:26:54.931Z,,0,,,NaN,,,,,,false,,,,494875.60000000894,494875.40000000596,,494875,,494896.778,8,400,,,
break_continue,html.Screen,4_94_2,2023-11-01T01:26:54.931Z,,0,,,NaN,,,,,,false,,,,494875.90000000596,494875.799999997,,494875.799999997,,494896.778,8,400,,,
sequence,flow.Sequence,4_94,2023-11-01T01:26:54.931Z,,0,,,2845.5739999969956,completion,,,,,false,,,,494876.10000000894,494875.799999997,492013.56,492016.700000003,492030.226,494896.778,8,400,,,
trial,html.Screen,4_95_0,2023-11-01T01:26:57.865Z,,0,2,,2912.6220000059693,response,ISIC_7517082.JPG,7,ISIC_1334438.JPG,ISIC_7517082.JPG,false,1,keypress(m),500,497809.799999997,497809.40000000596,494880.112,494876.299999997,494896.778,497813.745,8,400,46,,ISIC_1334438.JPG
break,html.Screen,4_95_1,2023-11-01T01:26:57.866Z,,0,,,NaN,,,,,,false,,,,497810.799999997,497810.60000000894,,497810.10000000894,,497813.745,8,400,,,
break_continue,html.Screen,4_95_2,2023-11-01T01:26:57.867Z,,0,,,NaN,,,,,,false,,,,497811.299999997,497811.10000000894,,497810.90000000596,,497813.745,8,400,,,
sequence,flow.Sequence,4_95,2023-11-01T01:26:57.867Z,,0,,,2914.3220000089495,completion,,,,,false,,,,497811.299999997,497811.10000000894,494880.112,494876.200000003,494896.778,497813.745,8,400,,,
trial,html.Screen,4_96_0,2023-11-01T01:27:00.626Z,,0,2,,2756.0549999970244,response,ISIC_0015245.JPG,7,ISIC_1193108.JPG,ISIC_1193108.JPG,false,0,keypress(z),500,500570.299999997,500569.799999997,497797.079,497811.40000000596,497813.745,500580.301,8,400,47,,ISIC_0015245.JPG
break,html.Screen,4_96_1,2023-11-01T01:27:00.626Z,,0,,,NaN,,,,,,false,,,,500571.299999997,500571,,500570.5,,500580.301,8,400,,,
break_continue,html.Screen,4_96_2,2023-11-01T01:27:00.627Z,,0,,,NaN,,,,,,false,,,,500571.60000000894,500571.5,,500571.40000000596,,500580.301,8,400,,,
sequence,flow.Sequence,4_96,2023-11-01T01:27:00.627Z,,0,,,2757.7550000000047,completion,,,,,false,,,,500571.799999997,500571.5,497797.079,497811.40000000596,497813.745,500580.301,8,400,,,
trial,html.Screen,4_97_0,2023-11-01T01:27:04.264Z,,0,2,,3627.599000005983,response,ISIC_0067697.JPG,7,ISIC_9193127.JPG,ISIC_9193127.JPG,false,0,keypress(z),500,504208.299999997,504207.90000000596,500563.635,500571.90000000596,500580.301,504213.489,8,400,48,,ISIC_0067697.JPG
break,html.Screen,4_97_1,2023-11-01T01:27:04.265Z,,0,,,NaN,,,,,,false,,,,504209.299999997,504209.200000003,,504208.60000000894,,504213.489,8,400,,,
break_continue,html.Screen,4_97_2,2023-11-01T01:27:04.265Z,,0,,,NaN,,,,,,false,,,,504209.700000003,504209.700000003,,504209.5,,504213.489,8,400,,,
sequence,flow.Sequence,4_97,2023-11-01T01:27:04.265Z,,0,,,3629.3990000030026,completion,,,,,false,,,,504209.90000000596,504209.700000003,500563.635,500571.799999997,500580.301,504213.489,8,400,,,
trial,html.Screen,4_98_0,2023-11-01T01:27:08.478Z,,0,2,,4208.711000002979,response,ISIC_0207349.JPG,8,ISIC_9225640.JPG,ISIC_9225640.JPG,false,0,keypress(z),500,508422.40000000596,508422.200000003,504196.823,504210.10000000894,504213.489,508430.359,8,400,49,,ISIC_0207349.JPG
break,html.Screen,4_98_1,2023-11-01T01:27:08.478Z,,0,,,NaN,,,,,,false,,,,508423.299999997,508423.10000000894,,508422.700000003,,508430.359,8,400,,,
break_continue,html.Screen,4_98_2,2023-11-01T01:27:08.479Z,,0,,,NaN,,,,,,false,,,,508423.5,508423.40000000596,,508423.299999997,,508430.359,8,400,,,
sequence,flow.Sequence,4_98,2023-11-01T01:27:08.479Z,,0,,,4209.911000005959,completion,,,,,false,,,,508423.60000000894,508423.40000000596,504196.823,504209.90000000596,504213.489,508430.359,8,400,,,
trial,html.Screen,4_99_0,2023-11-01T01:27:12.119Z,,0,2,,3633.241000008944,response,ISIC_4393704.JPG,8,ISIC_1072321.JPG,ISIC_1072321.JPG,false,0,keypress(z),500,512064,512063.60000000894,508413.693,508423.700000003,508430.359,512080.213,8,400,50,,ISIC_4393704.JPG
break,html.Screen,4_99_1,2023-11-01T01:27:22.123Z,,0,,,10000.090000000026,timeout,,,,,false,,,,522067.700000003,522063.637,512063.547,512064.299999997,512080.213,522080.303,8,400,,,
break_continue,html.Screen,4_99_2,2023-11-01T01:27:23.557Z,,0,,,1408.097000005946,response,,,,,false,continue,keypress(Space),,523501.90000000596,523488.40000000596,522063.637,522068,522080.303,523513.579,8,400,,,
sequence,flow.Sequence,4_99,2023-11-01T01:27:23.557Z,,0,,,15058.041000005964,completion,,,,,false,,,,523502,523488.40000000596,508413.693,508423.700000003,508430.359,523513.579,8,400,,,
trial,html.Screen,4_100_0,2023-11-01T01:27:26.794Z,,0,3,,3224.8210000059335,response,ISIC_8592235.JPG,8,ISIC_0025778.JPG,ISIC_8592235.JPG,false,1,keypress(m),500,526738.700000003,526738.400000006,523496.913,523502.10000000894,523513.579,526746.783,8,400,1,,ISIC_0025778.JPG
break,html.Screen,4_100_1,2023-11-01T01:27:26.795Z,,0,,,NaN,,,,,,false,,,,526739.6000000089,526739.299999997,,526739,,526746.783,8,400,,,
break_continue,html.Screen,4_100_2,2023-11-01T01:27:26.795Z,,0,,,NaN,,,,,,false,,,,526740,526739.799999997,,526739.799999997,,526746.783,8,400,,,
sequence,flow.Sequence,4_100,2023-11-01T01:27:26.795Z,,0,,,3226.2209999969928,completion,,,,,false,,,,526740.1000000089,526739.799999997,523496.913,523502.10000000894,523513.579,526746.783,8,400,,,
trial,html.Screen,4_101_0,2023-11-01T01:27:31.360Z,,0,3,,4558.216999999946,response,ISIC_8584239.JPG,7,ISIC_8740331.JPG,ISIC_8584239.JPG,false,1,keypress(m),500,531305.400000006,531305,526730.117,526740.299999997,526746.783,531313.655,8,400,2,,ISIC_8740331.JPG
break,html.Screen,4_101_1,2023-11-01T01:27:31.361Z,,0,,,NaN,,,,,,false,,,,531306.299999997,531306,,531305.700000003,,531313.655,8,400,,,
break_continue,html.Screen,4_101_2,2023-11-01T01:27:31.362Z,,0,,,NaN,,,,,,false,,,,531306.6000000089,531306.5,,531306.400000006,,531313.655,8,400,,,
sequence,flow.Sequence,4_101,2023-11-01T01:27:31.362Z,,0,,,4559.716999999946,completion,,,,,false,,,,531306.799999997,531306.5,526730.117,526740.200000003,526746.783,531313.655,8,400,,,
trial,html.Screen,4_102_0,2023-11-01T01:27:34.134Z,,0,3,,2765.344999999972,response,ISIC_4569077.JPG,8,ISIC_0014925.JPG,ISIC_4569077.JPG,false,1,keypress(m),500,534079.299999997,534079,531296.989,531307,531313.655,534080.211,8,400,3,,ISIC_0014925.JPG
break,html.Screen,4_102_1,2023-11-01T01:27:34.135Z,,0,,,NaN,,,,,,false,,,,534080.200000003,534080,,534079.6000000089,,534080.211,8,400,,,
break_continue,html.Screen,4_102_2,2023-11-01T01:27:34.135Z,,0,,,NaN,,,,,,false,,,,534080.6000000089,534080.400000006,,534080.299999997,,534080.211,8,400,,,
sequence,flow.Sequence,4_102,2023-11-01T01:27:34.136Z,,0,,,2766.7450000059325,completion,,,,,false,,,,534080.700000003,534080.400000006,531296.989,531306.900000006,531313.655,534080.211,8,400,,,
trial,html.Screen,4_103_0,2023-11-01T01:27:37.115Z,,0,3,,2979.98900000297,response,ISIC_0032005.JPG,8,ISIC_9125409.JPG,ISIC_9125409.JPG,false,0,keypress(z),500,537060.5,537060.200000003,534063.545,534080.900000006,534080.211,537063.425,8,400,4,,ISIC_0032005.JPG
break,html.Screen,4_103_1,2023-11-01T01:27:37.116Z,,0,,,NaN,,,,,,false,,,,537061.5,537061.200000003,,537060.799999997,,537063.425,8,400,,,
break_continue,html.Screen,4_103_2,2023-11-01T01:27:37.117Z,,0,,,NaN,,,,,,false,,,,537061.900000006,537061.700000003,,537061.6000000089,,537063.425,8,400,,,
sequence,flow.Sequence,4_103,2023-11-01T01:27:37.117Z,,0,,,2981.48900000297,completion,,,,,false,,,,537062,537061.700000003,534063.545,534080.799999997,534080.211,537063.425,8,400,,,
trial,html.Screen,4_104_0,2023-11-01T01:27:40.161Z,,0,3,,3042.675000008894,response,ISIC_1985436.JPG,8,ISIC_3072382.JPG,ISIC_1985436.JPG,false,1,keypress(m),500,540106.400000006,540106.1000000089,537046.759,537062.1000000089,537063.425,540113.715,8,400,5,,ISIC_3072382.JPG
break,html.Screen,4_104_1,2023-11-01T01:27:40.162Z,,0,,,NaN,,,,,,false,,,,540107.299999997,540107.1000000089,,540106.700000003,,540113.715,8,400,,,
break_continue,html.Screen,4_104_2,2023-11-01T01:27:40.162Z,,0,,,NaN,,,,,,false,,,,540107.700000003,540107.6000000089,,540107.5,,540113.715,8,400,,,
sequence,flow.Sequence,4_104,2023-11-01T01:27:40.163Z,,0,,,3044.175000008894,completion,,,,,false,,,,540107.799999997,540107.6000000089,537046.759,537062.1000000089,537063.425,540113.715,8,400,,,
trial,html.Screen,4_105_0,2023-11-01T01:27:43.303Z,,0,3,,3134.0849999970524,response,ISIC_6814221.JPG,7,ISIC_2532544.JPG,ISIC_6814221.JPG,false,1,keypress(m),500,543248.1000000089,543247.799999997,540097.049,540108.1000000089,540113.715,543263.589,8,400,6,,ISIC_2532544.JPG
break,html.Screen,4_105_1,2023-11-01T01:27:43.304Z,,0,,,NaN,,,,,,false,,,,543249,543248.799999997,,543248.400000006,,543263.589,8,400,,,
break_continue,html.Screen,4_105_2,2023-11-01T01:27:43.304Z,,0,,,NaN,,,,,,false,,,,543249.400000006,543249.299999997,,543249.1000000089,,543263.589,8,400,,,
sequence,flow.Sequence,4_105,2023-11-01T01:27:43.304Z,,0,,,3135.5849999970524,completion,,,,,false,,,,543249.6000000089,543249.299999997,540097.049,540108.1000000089,540113.715,543263.589,8,400,,,
trial,html.Screen,4_106_0,2023-11-01T01:27:45.886Z,,0,3,,2567.0110000089044,response,ISIC_0011892.JPG,9,ISIC_0031550.JPG,ISIC_0031550.JPG,false,0,keypress(z),500,545831,545830.6000000089,543246.923,543249.700000003,543263.589,545846.819,8,400,7,,ISIC_0011892.JPG
break,html.Screen,4_106_1,2023-11-01T01:27:45.887Z,,0,,,NaN,,,,,,false,,,,545831.900000006,545831.700000003,,545831.299999997,,545846.819,8,400,,,
break_continue,html.Screen,4_106_2,2023-11-01T01:27:45.887Z,,0,,,NaN,,,,,,false,,,,545832.299999997,545832.200000003,,545832.1000000089,,545846.819,8,400,,,
sequence,flow.Sequence,4_106,2023-11-01T01:27:45.887Z,,0,,,2568.611000002944,completion,,,,,false,,,,545832.5,545832.200000003,543246.923,543249.700000003,543263.589,545846.819,8,400,,,
trial,html.Screen,4_107_0,2023-11-01T01:27:49.097Z,,0,3,,3195.5810000059428,response,ISIC_0070784.JPG,6,ISIC_0060934.JPG,ISIC_0060934.JPG,false,0,keypress(z),500,549042.700000003,549042.400000006,545830.153,545832.6000000089,545846.819,549047.108,8,400,8,,ISIC_0070784.JPG
break,html.Screen,4_107_1,2023-11-01T01:27:49.098Z,,0,,,NaN,,,,,,false,,,,549043.700000003,549043.400000006,,549043.1000000089,,549047.108,8,400,,,
break_continue,html.Screen,4_107_2,2023-11-01T01:27:49.099Z,,0,,,NaN,,,,,,false,,,,549044,549043.900000006,,549043.799999997,,549047.108,8,400,,,
sequence,flow.Sequence,4_107,2023-11-01T01:27:49.099Z,,0,,,3197.0810000059428,completion,,,,,false,,,,549044.200000003,549043.900000006,545830.153,545832.6000000089,545846.819,549047.108,8,400,,,
trial,html.Screen,4_108_0,2023-11-01T01:27:51.821Z,,0,3,,2719.3919999999925,response,ISIC_0027936.JPG,8,ISIC_6961503.JPG,ISIC_0027936.JPG,false,1,keypress(m),500,551766.799999997,551766.5,549030.442,549044.299999997,549047.108,551780.332,8,400,9,,ISIC_6961503.JPG
break,html.Screen,4_108_1,2023-11-01T01:27:51.822Z,,0,,,NaN,,,,,,false,,,,551767.799999997,551767.6000000089,,551767.200000003,,551780.332,8,400,,,
break_continue,html.Screen,4_108_2,2023-11-01T01:27:51.823Z,,0,,,NaN,,,,,,false,,,,551768.1000000089,551768,,551767.900000006,,551780.332,8,400,,,
sequence,flow.Sequence,4_108,2023-11-01T01:27:51.823Z,,0,,,2720.8919999999925,completion,,,,,false,,,,551768.400000006,551768,549030.442,549044.299999997,549047.108,551780.332,8,400,,,
trial,html.Screen,4_109_0,2023-11-01T01:27:54.532Z,,0,3,,2696.4679999969667,response,ISIC_0001152.JPG,6,ISIC_0025800.JPG,ISIC_0025800.JPG,false,0,keypress(z),500,554477.200000003,554476.799999997,551763.666,551768.400000006,551780.332,554480.224,8,400,10,,ISIC_0001152.JPG
break,html.Screen,4_109_1,2023-11-01T01:27:54.533Z,,0,,,NaN,,,,,,false,,,,554478.1000000089,554477.900000006,,554477.400000006,,554480.224,8,400,,,
break_continue,html.Screen,4_109_2,2023-11-01T01:27:54.533Z,,0,,,NaN,,,,,,false,,,,554478.5,554478.299999997,,554478.200000003,,554480.224,8,400,,,
sequence,flow.Sequence,4_109,2023-11-01T01:27:54.533Z,,0,,,2697.9679999969667,completion,,,,,false,,,,554478.700000003,554478.299999997,551763.666,551768.400000006,551780.332,554480.224,8,400,,,
trial,html.Screen,4_110_0,2023-11-01T01:27:57.338Z,,0,3,,2802.9760000029346,response,ISIC_9543945.JPG,8,ISIC_1638357.JPG,ISIC_9543945.JPG,false,1,keypress(m),500,557283.6000000089,557283.200000003,554463.558,554478.900000006,554480.224,557296.778,8,400,11,,ISIC_1638357.JPG
break,html.Screen,4_110_1,2023-11-01T01:27:57.339Z,,0,,,NaN,,,,,,false,,,,557284.6000000089,557284.400000006,,557283.900000006,,557296.778,8,400,,,
break_continue,html.Screen,4_110_2,2023-11-01T01:27:57.339Z,,0,,,NaN,,,,,,false,,,,557285,557284.799999997,,557284.700000003,,557296.778,8,400,,,
sequence,flow.Sequence,4_110,2023-11-01T01:27:57.340Z,,0,,,2804.575999996974,completion,,,,,false,,,,557285.1000000089,557284.799999997,554463.558,554478.799999997,554480.224,557296.778,8,400,,,
trial,html.Screen,4_111_0,2023-11-01T01:27:59.892Z,,0,3,,2540.8220000088913,response,ISIC_0027306.JPG,5,ISIC_1637588.JPG,ISIC_1637588.JPG,false,0,keypress(z),500,559837.900000006,559837.6000000089,557280.112,557285.200000003,557296.778,559847.086,8,400,12,,ISIC_0027306.JPG
break,html.Screen,4_111_1,2023-11-01T01:27:59.893Z,,0,,,NaN,,,,,,false,,,,559838.799999997,559838.6000000089,,559838.1000000089,,559847.086,8,400,,,
break_continue,html.Screen,4_111_2,2023-11-01T01:27:59.894Z,,0,,,NaN,,,,,,false,,,,559839.299999997,559839.1000000089,,559838.900000006,,559847.086,8,400,,,
sequence,flow.Sequence,4_111,2023-11-01T01:27:59.894Z,,0,,,2542.3220000088913,completion,,,,,false,,,,559839.400000006,559839.1000000089,557280.112,557285.200000003,557296.778,559847.086,8,400,,,
trial,html.Screen,4_112_0,2023-11-01T01:28:02.424Z,,0,3,,2522.11400000297,response,ISIC_0068223.JPG,8,ISIC_8462070.JPG,ISIC_8462070.JPG,false,0,keypress(z),500,562369.5,562369.200000003,559830.42,559839.5,559847.086,562380.318,8,400,13,,ISIC_0068223.JPG
break,html.Screen,4_112_1,2023-11-01T01:28:02.425Z,,0,,,NaN,,,,,,false,,,,562370.400000006,562370.299999997,,562369.799999997,,562380.318,8,400,,,
break_continue,html.Screen,4_112_2,2023-11-01T01:28:02.425Z,,0,,,NaN,,,,,,false,,,,562370.799999997,562370.700000003,,562370.6000000089,,562380.318,8,400,,,
sequence,flow.Sequence,4_112,2023-11-01T01:28:02.425Z,,0,,,2523.61400000297,completion,,,,,false,,,,562371,562370.700000003,559830.42,559839.400000006,559847.086,562380.318,8,400,,,
trial,html.Screen,4_113_0,2023-11-01T01:28:09.170Z,,0,3,,6735.08200000599,response,ISIC_6469202.JPG,9,ISIC_0013835.JPG,ISIC_0013835.JPG,false,0,keypress(z),500,569115.900000006,569115.400000006,562363.652,562371.1000000089,562380.318,569130.048,8,400,14,,ISIC_6469202.JPG
break,html.Screen,4_113_1,2023-11-01T01:28:09.171Z,,0,,,NaN,,,,,,false,,,,569116.799999997,569116.5,,569116.1000000089,,569130.048,8,400,,,
break_continue,html.Screen,4_113_2,2023-11-01T01:28:09.172Z,,0,,,NaN,,,,,,false,,,,569117.1000000089,569117,,569116.900000006,,569130.048,8,400,,,
sequence,flow.Sequence,4_113,2023-11-01T01:28:09.172Z,,0,,,6736.68200000003,completion,,,,,false,,,,569117.299999997,569117,562363.652,562371.1000000089,562380.318,569130.048,8,400,,,
trial,html.Screen,4_114_0,2023-11-01T01:28:11.965Z,,0,3,,2780.1520000030287,response,ISIC_5705973.JPG,8,ISIC_0014920.JPG,ISIC_5705973.JPG,false,1,keypress(m),500,571910.5,571910.200000003,569113.382,569117.400000006,569130.048,571913.682,8,400,15,,ISIC_0014920.JPG
break,html.Screen,4_114_1,2023-11-01T01:28:11.966Z,,0,,,NaN,,,,,,false,,,,571911.5,571911.299999997,,571910.799999997,,571913.682,8,400,,,
break_continue,html.Screen,4_114_2,2023-11-01T01:28:11.966Z,,0,,,NaN,,,,,,false,,,,571911.799999997,571911.700000003,,571911.6000000089,,571913.682,8,400,,,
sequence,flow.Sequence,4_114,2023-11-01T01:28:11.966Z,,0,,,2781.6520000030287,completion,,,,,false,,,,571912,571911.700000003,569113.382,569117.299999997,569130.048,571913.682,8,400,,,
trial,html.Screen,4_115_0,2023-11-01T01:28:14.995Z,,0,3,,3026.11799999699,response,ISIC_0024355.JPG,8,ISIC_0066935.JPG,ISIC_0024355.JPG,false,1,keypress(m),500,574940.200000003,574939.799999997,571897.016,571912.200000003,571913.682,574946.894,8,400,16,,ISIC_0066935.JPG
break,html.Screen,4_115_1,2023-11-01T01:28:14.995Z,,0,,,NaN,,,,,,false,,,,574941.200000003,574940.900000006,,574940.5,,574946.894,8,400,,,
break_continue,html.Screen,4_115_2,2023-11-01T01:28:14.996Z,,0,,,NaN,,,,,,false,,,,574941.5,574941.400000006,,574941.299999997,,574946.894,8,400,,,
sequence,flow.Sequence,4_115,2023-11-01T01:28:14.996Z,,0,,,3027.7180000059307,completion,,,,,false,,,,574941.6000000089,574941.400000006,571897.016,571912.200000003,571913.682,574946.894,8,400,,,
trial,html.Screen,4_116_0,2023-11-01T01:28:17.672Z,,0,3,,2670.5060000059893,response,ISIC_0027936.JPG,8,ISIC_0070136.JPG,ISIC_0027936.JPG,false,1,keypress(m),500,577617.799999997,577617.400000006,574930.228,574941.900000006,574946.894,577630.12,8,400,17,,ISIC_0070136.JPG
break,html.Screen,4_116_1,2023-11-01T01:28:17.673Z,,0,,,NaN,,,,,,false,,,,577618.700000003,577618.5,,577618.1000000089,,577630.12,8,400,,,
break_continue,html.Screen,4_116_2,2023-11-01T01:28:17.673Z,,0,,,NaN,,,,,,false,,,,577619.1000000089,577619,,577618.799999997,,577630.12,8,400,,,
sequence,flow.Sequence,4_116,2023-11-01T01:28:17.674Z,,0,,,2672.106000000029,completion,,,,,false,,,,577619.299999997,577619,574930.228,574941.700000003,574946.894,577630.12,8,400,,,
trial,html.Screen,4_117_0,2023-11-01T01:28:20.720Z,,0,3,,3035.4800000089454,response,ISIC_7904250.JPG,6,ISIC_7107030.JPG,ISIC_7107030.JPG,false,0,keypress(z),500,580666,580665.6000000089,577613.454,577619.400000006,577630.12,580680.398,8,400,18,,ISIC_7904250.JPG
break,html.Screen,4_117_1,2023-11-01T01:28:20.721Z,,0,,,NaN,,,,,,false,,,,580666.900000006,580666.6000000089,,580666.299999997,,580680.398,8,400,,,
break_continue,html.Screen,4_117_2,2023-11-01T01:28:20.722Z,,0,,,NaN,,,,,,false,,,,580667.299999997,580667.1000000089,,580667,,580680.398,8,400,,,
sequence,flow.Sequence,4_117,2023-11-01T01:28:20.722Z,,0,,,3036.9800000089454,completion,,,,,false,,,,580667.400000006,580667.1000000089,577613.454,577619.299999997,577630.12,580680.398,8,400,,,
trial,html.Screen,4_118_0,2023-11-01T01:28:24.458Z,,0,3,,3722.6019999999553,response,ISIC_0013258.JPG,8,ISIC_8727962.JPG,ISIC_8727962.JPG,false,0,keypress(z),500,584403.400000006,584403,580663.732,580667.6000000089,580680.398,584413.582,8,400,19,,ISIC_0013258.JPG
break,html.Screen,4_118_1,2023-11-01T01:28:24.458Z,,0,,,NaN,,,,,,false,,,,584404.299999997,584404,,584403.6000000089,,584413.582,8,400,,,
break_continue,html.Screen,4_118_2,2023-11-01T01:28:24.459Z,,0,,,NaN,,,,,,false,,,,584404.700000003,584404.5,,584404.400000006,,584413.582,8,400,,,
sequence,flow.Sequence,4_118,2023-11-01T01:28:24.459Z,,0,,,3724.1019999999553,completion,,,,,false,,,,584404.799999997,584404.5,580663.732,580667.5,580680.398,584413.582,8,400,,,
trial,html.Screen,4_119_0,2023-11-01T01:28:28.079Z,,0,3,,3610.417999999947,response,ISIC_0013580.JPG,8,ISIC_3064807.JPG,ISIC_3064807.JPG,false,0,keypress(z),500,588024.400000006,588024,584396.916,584404.900000006,584413.582,588030.104,8,400,20,,ISIC_0013580.JPG
break,html.Screen,4_119_1,2023-11-01T01:28:28.079Z,,0,,,NaN,,,,,,false,,,,588025.299999997,588025.1000000089,,588024.700000003,,588030.104,8,400,,,
break_continue,html.Screen,4_119_2,2023-11-01T01:28:28.080Z,,0,,,NaN,,,,,,false,,,,588025.6000000089,588025.5,,588025.400000006,,588030.104,8,400,,,
sequence,flow.Sequence,4_119,2023-11-01T01:28:28.080Z,,0,,,3611.917999999947,completion,,,,,false,,,,588025.799999997,588025.5,584396.916,584404.900000006,584413.582,588030.104,8,400,,,
trial,html.Screen,4_120_0,2023-11-01T01:28:31.989Z,,0,3,,3904.79600000591,response,ISIC_8246858.JPG,9,ISIC_8145260.JPG,ISIC_8145260.JPG,false,0,keypress(z),500,591935.299999997,591934.900000006,588013.438,588026,588030.104,591947.029,8,400,21,,ISIC_8246858.JPG
break,html.Screen,4_120_1,2023-11-01T01:28:31.990Z,,0,,,NaN,,,,,,false,,,,591936.299999997,591936,,591935.6000000089,,591947.029,8,400,,,
break_continue,html.Screen,4_120_2,2023-11-01T01:28:31.991Z,,0,,,NaN,,,,,,false,,,,591936.700000003,591936.6000000089,,591936.400000006,,591947.029,8,400,,,
sequence,flow.Sequence,4_120,2023-11-01T01:28:31.991Z,,0,,,3906.4960000088904,completion,,,,,false,,,,591936.799999997,591936.6000000089,588013.438,588025.900000006,588030.104,591947.029,8,400,,,
trial,html.Screen,4_121_0,2023-11-01T01:28:34.553Z,,0,3,,2551.9710000000196,response,ISIC_8650269.JPG,7,ISIC_0053469.JPG,ISIC_8650269.JPG,false,1,keypress(m),500,594499.299999997,594499,591930.363,591937,591947.029,594513.593,8,400,22,,ISIC_0053469.JPG
break,html.Screen,4_121_1,2023-11-01T01:28:34.554Z,,0,,,NaN,,,,,,false,,,,594500.200000003,594500,,594499.5,,594513.593,8,400,,,
break_continue,html.Screen,4_121_2,2023-11-01T01:28:34.555Z,,0,,,NaN,,,,,,false,,,,594500.5,594500.5,,594500.400000006,,594513.593,8,400,,,
sequence,flow.Sequence,4_121,2023-11-01T01:28:34.555Z,,0,,,2553.4710000000196,completion,,,,,false,,,,594500.799999997,594500.5,591930.363,591937,591947.029,594513.593,8,400,,,
trial,html.Screen,4_122_0,2023-11-01T01:28:37.263Z,,0,3,,2694.6070000029868,response,ISIC_9465061.JPG,8,ISIC_5152859.JPG,ISIC_5152859.JPG,false,0,keypress(z),500,597208.700000003,597208.200000003,594496.927,594501,594513.593,597213.485,8,400,23,,ISIC_9465061.JPG
break,html.Screen,4_122_1,2023-11-01T01:28:37.264Z,,0,,,NaN,,,,,,false,,,,597209.700000003,597209.5,,597209.1000000089,,597213.485,8,400,,,
break_continue,html.Screen,4_122_2,2023-11-01T01:28:37.264Z,,0,,,NaN,,,,,,false,,,,597210.1000000089,597210,,597209.799999997,,597213.485,8,400,,,
sequence,flow.Sequence,4_122,2023-11-01T01:28:37.264Z,,0,,,2696.4070000000065,completion,,,,,false,,,,597210.299999997,597210,594496.927,594500.799999997,594513.593,597213.485,8,400,,,
trial,html.Screen,4_123_0,2023-11-01T01:28:39.795Z,,0,3,,2527.215000002994,response,ISIC_2799447.JPG,8,ISIC_0055265.JPG,ISIC_2799447.JPG,false,1,keypress(m),500,599741.200000003,599740.700000003,597196.819,597210.5,597213.485,599746.717,8,400,24,,ISIC_0055265.JPG
break,html.Screen,4_123_1,2023-11-01T01:28:39.796Z,,0,,,NaN,,,,,,false,,,,599742.1000000089,599741.900000006,,599741.5,,599746.717,8,400,,,
break_continue,html.Screen,4_123_2,2023-11-01T01:28:39.797Z,,0,,,NaN,,,,,,false,,,,599742.5,599742.400000006,,599742.299999997,,599746.717,8,400,,,
sequence,flow.Sequence,4_123,2023-11-01T01:28:39.797Z,,0,,,2528.9150000059744,completion,,,,,false,,,,599742.799999997,599742.400000006,597196.819,597210.400000006,597213.485,599746.717,8,400,,,
trial,html.Screen,4_124_0,2023-11-01T01:28:42.700Z,,0,3,,2898.4830000030342,response,ISIC_0033304.JPG,8,ISIC_0908367.JPG,ISIC_0908367.JPG,false,0,keypress(z),500,602645.6000000089,602645.200000003,599730.051,599742.900000006,599746.717,602646.988,8,400,25,,ISIC_0033304.JPG
break,html.Screen,4_124_1,2023-11-01T01:28:42.701Z,,0,,,NaN,,,,,,false,,,,602646.700000003,602646.299999997,,602645.900000006,,602646.988,8,400,,,
break_continue,html.Screen,4_124_2,2023-11-01T01:28:42.701Z,,0,,,NaN,,,,,,false,,,,602647.200000003,602647,,602646.799999997,,602646.988,8,400,,,
sequence,flow.Sequence,4_124,2023-11-01T01:28:42.701Z,,0,,,2900.283000000054,completion,,,,,false,,,,602647.299999997,602647,599730.051,599742.900000006,599746.717,602646.988,8,400,,,
trial,html.Screen,4_125_0,2023-11-01T01:28:46.258Z,,0,3,,3556.8119999970077,response,ISIC_0033560.JPG,7,ISIC_0458561.JPG,ISIC_0458561.JPG,false,0,keypress(z),500,606204.200000003,606203.799999997,602630.322,602647.5,602646.988,606213.512,8,400,26,,ISIC_0033560.JPG
break,html.Screen,4_125_1,2023-11-01T01:28:46.259Z,,0,,,NaN,,,,,,false,,,,606205.200000003,606204.900000006,,606204.5,,606213.512,8,400,,,
break_continue,html.Screen,4_125_2,2023-11-01T01:28:46.259Z,,0,,,NaN,,,,,,false,,,,606205.6000000089,606205.5,,606205.400000006,,606213.512,8,400,,,
sequence,flow.Sequence,4_125,2023-11-01T01:28:46.260Z,,0,,,3558.511999999988,completion,,,,,false,,,,606205.799999997,606205.5,602630.322,602647.5,602646.988,606213.512,8,400,,,
trial,html.Screen,4_126_0,2023-11-01T01:28:48.808Z,,0,3,,2539.787999997032,response,ISIC_0025409.JPG,8,ISIC_0033428.JPG,ISIC_0025409.JPG,false,1,keypress(m),500,608753.700000003,608753.299999997,606196.846,606205.900000006,606213.512,608763.41,8,400,27,,ISIC_0033428.JPG
break,html.Screen,4_126_1,2023-11-01T01:28:48.809Z,,0,,,NaN,,,,,,false,,,,608754.700000003,608754.400000006,,608754,,608763.41,8,400,,,
