sender,sender_type,sender_id,timestamp,meta,,blockNo,condition,duration,ended_on,img_left,img_reveal,img_right,loser,practice,response,response_action,selection_duration,time_commit,time_end,time_render,time_run,time_show,time_switch,total_blocks,total_trials,trialNo,url,winner
informed_consent,html.Screen,0,2023-10-30T21:26:04.139Z,"{""labjs_version"":""20.2.4"",""labjs_build"":{""flavor"":""production"",""commit"":""f5b4a49f956347addd546a832a3327688c2c0fef""},""location"":""https://run.pavlovia.org/MurrayBennett/melanoma-2afc/?participant=67674&platform=sona"",""userAgent"":""Mozilla/5.0 (Windows NT 10.0; Win64; x64) AppleWebKit/537.36 (KHTML, like Gecko) Chrome/118.0.0.0 Safari/537.36"",""platform"":""Win32"",""language"":""en-US"",""locale"":""en-US"",""timeZone"":""America/Chicago"",""timezoneOffset"":300,""screen_width"":1536,""screen_height"":864,""scroll_width"":1536,""scroll_height"":659,""window_innerWidth"":1536,""window_innerHeight"":707,""devicePixelRatio"":1.25}",,,,14618.97299998808,response,,,,,,consent,click button,,20131.899999976158,20129.69999998808,5260.624,5506.599999964237,5510.727,20149.655,,,,"{""participant"":""67674"",""platform"":""sona""}",
Welcome,html.Screen,1,2023-10-30T21:26:40.001Z,,,,irregular,35841.54499998808,response,,,,,,continue,click button,,55993.39999997616,55991.19999998808,20133.426,20132.19999998808,20149.655,55996.577,,,,,
trial,html.Screen,2_0_0,2023-10-30T21:26:47.469Z,,0,0,,7464.02299996424,response,ISIC_0061792.JPG,,ISIC_4679428.JPG,ISIC_0061792.JPG,true,1,keypress(m),500,63461,63460.59999996424,55980.32,55993.80000001192,55996.577,63466.117,1,6,1,,ISIC_4679428.JPG
sequence,flow.Sequence,2_0,2023-10-30T21:26:47.469Z,,0,,,7464.02299996424,completion,,,,,true,,,,63461.39999997616,63460.59999996424,55980.32,55993.80000001192,55996.577,63466.117,1,6,,,
trial,html.Screen,2_1_0,2023-10-30T21:26:53.379Z,,0,0,,5904.683000011923,response,ISIC_5199497.JPG,,ISIC_0776486.JPG,ISIC_5199497.JPG,true,1,keypress(m),500,69371.09999996424,69370.80000001192,63449.136,63461.5,63466.117,69385.036,1,6,2,,ISIC_0776486.JPG
sequence,flow.Sequence,2_1,2023-10-30T21:26:53.379Z,,0,,,5904.683000011923,completion,,,,,true,,,,69371.39999997616,69370.80000001192,63449.136,63461.5,63466.117,69385.036,1,6,,,
trial,html.Screen,2_2_0,2023-10-30T21:27:04.885Z,,0,0,,11521.348000000013,timeout,ISIC_8575776.JPG,,ISIC_2556187.JPG,,true,,,500,80876.80000001192,80876.5,69369.004,69371.69999998808,69385.036,80906.384,1,6,3,,
sequence,flow.Sequence,2_2,2023-10-30T21:27:04.885Z,,0,,,11491.464000000007,completion,,,,,true,,,,80877.09999996424,80876.5,69369.004,69371.59999996424,69385.036,80906.384,1,6,,,
trial,html.Screen,2_3_0,2023-10-30T21:27:11.211Z,,0,0,,6296.9160000119155,response,ISIC_9238366.JPG,,ISIC_8141769.JPG,ISIC_9238366.JPG,true,1,keypress(m),500,87203.59999996424,87203.30000001192,80889.871,80877.30000001192,80906.384,87208.72,1,6,4,,ISIC_8141769.JPG
sequence,flow.Sequence,2_3,2023-10-30T21:27:11.212Z,,0,,,6296.9160000119155,completion,,,,,true,,,,87204,87203.30000001192,80889.871,80877.19999998808,80906.384,87208.72,1,6,,,
trial,html.Screen,2_4_0,2023-10-30T21:27:14.900Z,,0,0,,3683.479999988078,response,ISIC_8949026.JPG,,ISIC_9959593.JPG,ISIC_8949026.JPG,true,1,keypress(m),500,90892.5,90892.19999998808,87191.841,87204.19999998808,87208.72,90910.253,1,6,5,,ISIC_9959593.JPG
sequence,flow.Sequence,2_4,2023-10-30T21:27:14.901Z,,0,,,3683.479999988078,completion,,,,,true,,,,90892.80000001192,90892.19999998808,87191.841,87204.19999998808,87208.72,90910.253,1,6,,,
trial,html.Screen,2_5_0,2023-10-30T21:27:18.766Z,,0,0,,3848.146999976161,response,ISIC_0010479.JPG,,ISIC_0460240.JPG,ISIC_0460240.JPG,true,0,keypress(z),500,94758.69999998808,94758.39999997616,90893.552,90893,90910.253,94761.391,1,6,6,,ISIC_0010479.JPG
sequence,flow.Sequence,2_5,2023-10-30T21:27:18.767Z,,0,,,3848.146999976161,completion,,,,,true,,,,94759,94758.39999997616,90893.552,90892.89999997616,90910.253,94761.391,1,6,,,
loop,flow.Loop,2,2023-10-30T21:27:18.767Z,,,,,38761.82299997616,completion,,,,,true,,,,94759.30000001192,94758.39999997616,55980.32,55993.69999998808,55996.577,94761.391,1,6,,,
exp_instructions,html.Screen,3,2023-10-30T21:27:22.012Z,,,,,3241.808999988076,response,,,,,,continue,keypress(Space),,98004.30000001192,98003.19999998808,94745.367,94759.39999997616,94761.391,98012.628,,,,,
trial,html.Screen,4_0_0,2023-10-30T21:27:26.323Z,,0,1,,4301.571999988082,response,ISIC_0032872.JPG,11,ISIC_0014846.JPG,ISIC_0014846.JPG,false,0,keypress(z),500,102314.80000001192,102314.19999998808,97996.153,98004.5,98012.628,102331.204,8,400,1,,ISIC_0032872.JPG
break,html.Screen,4_0_1,2023-10-30T21:27:26.324Z,,0,,,NaN,,,,,,false,,,,102316,102315.80000001192,,102315.09999996424,,102331.204,8,400,,,
break_continue,html.Screen,4_0_2,2023-10-30T21:27:26.324Z,,0,,,NaN,,,,,,false,,,,102316.5,102316.39999997616,,102316.19999998808,,102331.204,8,400,,,
sequence,flow.Sequence,4_0,2023-10-30T21:27:26.324Z,,0,,,4303.771999976161,completion,,,,,false,,,,102316.59999996424,102316.39999997616,97996.153,98004.5,98012.628,102331.204,8,400,,,
trial,html.Screen,4_1_0,2023-10-30T21:27:29.501Z,,0,1,,3162.096000011923,response,ISIC_6914698.JPG,10,ISIC_0014832.JPG,ISIC_6914698.JPG,false,1,keypress(m),500,105493.5,105493.30000001192,102314.455,102316.80000001192,102331.204,105498.822,8,400,2,,ISIC_0014832.JPG
break,html.Screen,4_1_1,2023-10-30T21:27:29.502Z,,0,,,NaN,,,,,,false,,,,105494.5,105494.30000001192,,105493.69999998808,,105498.822,8,400,,,
break_continue,html.Screen,4_1_2,2023-10-30T21:27:29.503Z,,0,,,NaN,,,,,,false,,,,105494.80000001192,105494.69999998808,,105494.5,,105498.822,8,400,,,
sequence,flow.Sequence,4_1,2023-10-30T21:27:29.503Z,,0,,,3163.495999988081,completion,,,,,false,,,,105494.89999997616,105494.69999998808,102314.455,102316.80000001192,102331.204,105498.822,8,400,,,
trial,html.Screen,4_2_0,2023-10-30T21:27:35.604Z,,0,1,,6096.678,response,ISIC_0032903.JPG,9,ISIC_9335652.JPG,ISIC_9335652.JPG,false,0,keypress(z),500,111595.80000001192,111595.5,105482.513,105495,105498.822,111601.153,8,400,3,,ISIC_0032903.JPG
break,html.Screen,4_2_1,2023-10-30T21:27:35.605Z,,0,,,NaN,,,,,,false,,,,111596.80000001192,111596.5,,111596,,111601.153,8,400,,,
break_continue,html.Screen,4_2_2,2023-10-30T21:27:35.605Z,,0,,,NaN,,,,,,false,,,,111597.09999996424,111597,,111596.89999997616,,111601.153,8,400,,,
sequence,flow.Sequence,4_2,2023-10-30T21:27:35.605Z,,0,,,6098.178,completion,,,,,false,,,,111597.19999998808,111597,105482.513,105495,105498.822,111601.153,8,400,,,
trial,html.Screen,4_3_0,2023-10-30T21:27:40.311Z,,0,1,,4701.346999999994,response,ISIC_0062997.JPG,6,ISIC_0001875.JPG,ISIC_0001875.JPG,false,0,keypress(z),500,116302.80000001192,116302.5,111584.361,111597.39999997616,111601.153,116319.845,8,400,4,,ISIC_0062997.JPG
break,html.Screen,4_3_1,2023-10-30T21:27:40.312Z,,0,,,NaN,,,,,,false,,,,116304.09999996424,116303.89999997616,,116303.39999997616,,116319.845,8,400,,,
break_continue,html.Screen,4_3_2,2023-10-30T21:27:40.312Z,,0,,,NaN,,,,,,false,,,,116304.5,116304.39999997616,,116304.19999998808,,116319.845,8,400,,,
sequence,flow.Sequence,4_3,2023-10-30T21:27:40.312Z,,0,,,4703.246999976152,completion,,,,,false,,,,116304.59999996424,116304.39999997616,111584.361,111597.30000001192,111601.153,116319.845,8,400,,,
trial,html.Screen,4_4_0,2023-10-30T21:27:43.553Z,,0,1,,3224.654999999999,response,ISIC_1974281.JPG,10,ISIC_0626501.JPG,ISIC_1974281.JPG,false,1,keypress(m),500,119545.09999996424,119544.5,116303.099,116304.80000001192,116319.845,119554.31,8,400,5,,ISIC_0626501.JPG
break,html.Screen,4_4_1,2023-10-30T21:27:43.554Z,,0,,,NaN,,,,,,false,,,,119546.5,119546.19999998808,,119545.39999997616,,119554.31,8,400,,,
break_continue,html.Screen,4_4_2,2023-10-30T21:27:43.555Z,,0,,,NaN,,,,,,false,,,,119546.89999997616,119546.80000001192,,119546.59999996424,,119554.31,8,400,,,
sequence,flow.Sequence,4_4,2023-10-30T21:27:43.555Z,,0,,,3226.9550000119198,completion,,,,,false,,,,119547.09999996424,119546.80000001192,116303.099,116304.69999998808,116319.845,119554.31,8,400,,,
trial,html.Screen,4_5_0,2023-10-30T21:27:48.072Z,,0,1,,4509.0899999761605,response,ISIC_0011404.JPG,5,ISIC_0028906.JPG,ISIC_0028906.JPG,false,0,keypress(z),500,124063.59999996424,124063.39999997616,119537.771,119547.19999998808,119554.31,124072.547,8,400,6,,ISIC_0011404.JPG
break,html.Screen,4_5_1,2023-10-30T21:27:48.072Z,,0,,,NaN,,,,,,false,,,,124064.59999996424,124064.30000001192,,124063.89999997616,,124072.547,8,400,,,
break_continue,html.Screen,4_5_2,2023-10-30T21:27:48.073Z,,0,,,NaN,,,,,,false,,,,124064.89999997616,124064.80000001192,,124064.69999998808,,124072.547,8,400,,,
sequence,flow.Sequence,4_5,2023-10-30T21:27:48.073Z,,0,,,4510.490000011923,completion,,,,,false,,,,124065.09999996424,124064.80000001192,119537.771,119547.09999996424,119554.31,124072.547,8,400,,,
trial,html.Screen,4_6_0,2023-10-30T21:27:51.947Z,,0,1,,3866.5529999642313,response,ISIC_1784613.JPG,9,ISIC_8956001.JPG,ISIC_8956001.JPG,false,0,keypress(z),500,127939.5,127939.09999996424,124056.228,124065.19999998808,124072.547,127962.852,8,400,7,,ISIC_1784613.JPG
break,html.Screen,4_6_1,2023-10-30T21:27:51.948Z,,0,,,NaN,,,,,,false,,,,127940.39999997616,127940.19999998808,,127939.69999998808,,127962.852,8,400,,,
break_continue,html.Screen,4_6_2,2023-10-30T21:27:51.949Z,,0,,,NaN,,,,,,false,,,,127941.09999996424,127941,,127940.59999996424,,127962.852,8,400,,,
sequence,flow.Sequence,4_6,2023-10-30T21:27:51.949Z,,0,,,3868.452999999994,completion,,,,,false,,,,127941.19999998808,127941,124056.228,124065.19999998808,124072.547,127962.852,8,400,,,
trial,html.Screen,4_7_0,2023-10-30T21:27:57.622Z,,0,1,,5651.047999976159,response,ISIC_5468164.JPG,8,ISIC_0033681.JPG,ISIC_0033681.JPG,false,0,keypress(z),500,133614.09999996424,133613.89999997616,127924.32,127941.39999997616,127962.852,133626.341,8,400,8,,ISIC_5468164.JPG
break,html.Screen,4_7_1,2023-10-30T21:27:57.623Z,,0,,,NaN,,,,,,false,,,,133615.09999996424,133614.80000001192,,133614.30000001192,,133626.341,8,400,,,
break_continue,html.Screen,4_7_2,2023-10-30T21:27:57.623Z,,0,,,NaN,,,,,,false,,,,133615.5,133615.39999997616,,133615.19999998808,,133626.341,8,400,,,
sequence,flow.Sequence,4_7,2023-10-30T21:27:57.623Z,,0,,,5652.547999976159,completion,,,,,false,,,,133615.59999996424,133615.39999997616,127924.32,127941.30000001192,127962.852,133626.341,8,400,,,
trial,html.Screen,4_8_0,2023-10-30T21:28:02.060Z,,0,1,,4425.858999988093,response,ISIC_0055820.JPG,10,ISIC_0034170.JPG,ISIC_0034170.JPG,false,0,keypress(z),500,138052.59999996424,138052.19999998808,133610.06,133615.69999998808,133626.341,138061.247,8,400,9,,ISIC_0055820.JPG
break,html.Screen,4_8_1,2023-10-30T21:28:02.061Z,,0,,,NaN,,,,,,false,,,,138053.59999996424,138053.19999998808,,138052.80000001192,,138061.247,8,400,,,
break_continue,html.Screen,4_8_2,2023-10-30T21:28:02.062Z,,0,,,NaN,,,,,,false,,,,138054,138054,,138053.69999998808,,138061.247,8,400,,,
sequence,flow.Sequence,4_8,2023-10-30T21:28:02.062Z,,0,,,4427.659000000014,completion,,,,,false,,,,138054.19999998808,138054,133610.06,133615.69999998808,133626.341,138061.247,8,400,,,
trial,html.Screen,4_9_0,2023-10-30T21:28:05.377Z,,0,1,,3307.852999964234,response,ISIC_0003851.JPG,5,ISIC_3065253.JPG,ISIC_0003851.JPG,false,1,keypress(m),500,141369.59999996424,141369.09999996424,138044.864,138054.19999998808,138061.247,141379.137,8,400,10,,ISIC_3065253.JPG
break,html.Screen,4_9_1,2023-10-30T21:28:05.379Z,,0,,,NaN,,,,,,false,,,,141370.89999997616,141370.59999996424,,141369.89999997616,,141379.137,8,400,,,
break_continue,html.Screen,4_9_2,2023-10-30T21:28:05.379Z,,0,,,NaN,,,,,,false,,,,141371.39999997616,141371.30000001192,,141371.19999998808,,141379.137,8,400,,,
sequence,flow.Sequence,4_9,2023-10-30T21:28:05.379Z,,0,,,3310.053000011918,completion,,,,,false,,,,141371.69999998808,141371.30000001192,138044.864,138054.19999998808,138061.247,141379.137,8,400,,,
trial,html.Screen,4_10_0,2023-10-30T21:28:09.209Z,,0,1,,3821.2629999761702,response,ISIC_0066012.JPG,12,ISIC_0027152.JPG,ISIC_0027152.JPG,false,0,keypress(z),500,145200.69999998808,145200.39999997616,141362.086,141371.89999997616,141379.137,145213.919,8,400,11,,ISIC_0066012.JPG
break,html.Screen,4_10_1,2023-10-30T21:28:09.210Z,,0,,,NaN,,,,,,false,,,,145201.69999998808,145201.5,,145201,,145213.919,8,400,,,
break_continue,html.Screen,4_10_2,2023-10-30T21:28:09.210Z,,0,,,NaN,,,,,,false,,,,145202.19999998808,145202.09999996424,,145202,,145213.919,8,400,,,
sequence,flow.Sequence,4_10,2023-10-30T21:28:09.210Z,,0,,,3822.9629999642493,completion,,,,,false,,,,145202.39999997616,145202.09999996424,141362.086,141371.80000001192,141379.137,145213.919,8,400,,,
trial,html.Screen,4_11_0,2023-10-30T21:28:12.112Z,,0,1,,2890.3810000119265,response,ISIC_0056921.JPG,5,ISIC_0033832.JPG,ISIC_0033832.JPG,false,0,keypress(z),500,148104.59999996424,148104.30000001192,145197.62,145202.5,145213.919,148115.182,8,400,12,,ISIC_0056921.JPG
break,html.Screen,4_11_1,2023-10-30T21:28:12.113Z,,0,,,NaN,,,,,,false,,,,148105.59999996424,148105.39999997616,,148104.80000001192,,148115.182,8,400,,,
break_continue,html.Screen,4_11_2,2023-10-30T21:28:12.114Z,,0,,,NaN,,,,,,false,,,,148106,148105.80000001192,,148105.69999998808,,148115.182,8,400,,,
sequence,flow.Sequence,4_11,2023-10-30T21:28:12.114Z,,0,,,2891.8810000119265,completion,,,,,false,,,,148106,148105.80000001192,145197.62,145202.5,145213.919,148115.182,8,400,,,
trial,html.Screen,4_12_0,2023-10-30T21:28:15.718Z,,0,1,,3594.5179999880784,response,ISIC_5952650.JPG,4,ISIC_0033555.JPG,ISIC_5952650.JPG,false,1,keypress(m),500,151710,151709.69999998808,148098.686,148106.19999998808,148115.182,151716.416,8,400,13,,ISIC_0033555.JPG
break,html.Screen,4_12_1,2023-10-30T21:28:15.718Z,,0,,,NaN,,,,,,false,,,,151710.59999996424,151710.5,,151710.19999998808,,151716.416,8,400,,,
break_continue,html.Screen,4_12_2,2023-10-30T21:28:15.719Z,,0,,,NaN,,,,,,false,,,,151711,151710.89999997616,,151710.69999998808,,151716.416,8,400,,,
sequence,flow.Sequence,4_12,2023-10-30T21:28:15.719Z,,0,,,3595.7179999761574,completion,,,,,false,,,,151711.09999996424,151710.89999997616,148098.686,148106.09999996424,148115.182,151716.416,8,400,,,
trial,html.Screen,4_13_0,2023-10-30T21:28:19.152Z,,0,1,,3427.3840000119235,response,ISIC_2562668.JPG,5,ISIC_8252406.JPG,ISIC_8252406.JPG,false,0,keypress(z),500,155144.09999996424,155143.80000001192,151699.864,151711.09999996424,151716.416,155167.744,8,400,14,,ISIC_2562668.JPG
break,html.Screen,4_13_1,2023-10-30T21:28:19.153Z,,0,,,NaN,,,,,,false,,,,155144.89999997616,155144.69999998808,,155144.30000001192,,155167.744,8,400,,,
break_continue,html.Screen,4_13_2,2023-10-30T21:28:19.153Z,,0,,,NaN,,,,,,false,,,,155145.30000001192,155145.19999998808,,155145.09999996424,,155167.744,8,400,,,
sequence,flow.Sequence,4_13,2023-10-30T21:28:19.153Z,,0,,,3428.7839999880816,completion,,,,,false,,,,155145.5,155145.19999998808,151699.864,151711.09999996424,151716.416,155167.744,8,400,,,
trial,html.Screen,4_14_0,2023-10-30T21:28:22.934Z,,0,1,,3757.855999964231,response,ISIC_0068975.JPG,6,ISIC_0056246.JPG,ISIC_0056246.JPG,false,0,keypress(z),500,158925.89999997616,158925.59999996424,155151.468,155145.59999996424,155167.744,158935.848,8,400,15,,ISIC_0068975.JPG
break,html.Screen,4_14_1,2023-10-30T21:28:22.935Z,,0,,,NaN,,,,,,false,,,,158926.80000001192,158926.59999996424,,158926.09999996424,,158935.848,8,400,,,
break_continue,html.Screen,4_14_2,2023-10-30T21:28:22.935Z,,0,,,NaN,,,,,,false,,,,158927.19999998808,158927.09999996424,,158927,,158935.848,8,400,,,
sequence,flow.Sequence,4_14,2023-10-30T21:28:22.935Z,,0,,,3759.355999964231,completion,,,,,false,,,,158927.39999997616,158927.09999996424,155151.468,155145.59999996424,155167.744,158935.848,8,400,,,
trial,html.Screen,4_15_0,2023-10-30T21:28:26.848Z,,0,1,,3904.251999964239,response,ISIC_7642591.JPG,12,ISIC_4384341.JPG,ISIC_4384341.JPG,false,0,keypress(z),500,162840.39999997616,162840.09999996424,158919.813,158927.39999997616,158935.848,162853.984,8,400,16,,ISIC_7642591.JPG
break,html.Screen,4_15_1,2023-10-30T21:28:26.849Z,,0,,,NaN,,,,,,false,,,,162841.30000001192,162841.09999996424,,162840.69999998808,,162853.984,8,400,,,
break_continue,html.Screen,4_15_2,2023-10-30T21:28:26.849Z,,0,,,NaN,,,,,,false,,,,162841.59999996424,162841.5,,162841.39999997616,,162853.984,8,400,,,
sequence,flow.Sequence,4_15,2023-10-30T21:28:26.850Z,,0,,,3905.652000000002,completion,,,,,false,,,,162841.80000001192,162841.5,158919.813,158927.39999997616,158935.848,162853.984,8,400,,,
trial,html.Screen,4_16_0,2023-10-30T21:28:31.290Z,,0,1,,4428.016000000003,response,ISIC_8065633.JPG,8,ISIC_0026619.JPG,ISIC_8065633.JPG,false,1,keypress(m),500,167282.30000001192,167282,162837.71,162842,162853.984,167289.009,8,400,17,,ISIC_0026619.JPG
break,html.Screen,4_16_1,2023-10-30T21:28:31.291Z,,0,,,NaN,,,,,,false,,,,167283.19999998808,167283,,167282.5,,167289.009,8,400,,,
break_continue,html.Screen,4_16_2,2023-10-30T21:28:31.291Z,,0,,,NaN,,,,,,false,,,,167283.59999996424,167283.39999997616,,167283.39999997616,,167289.009,8,400,,,
sequence,flow.Sequence,4_16,2023-10-30T21:28:31.292Z,,0,,,4429.415999976161,completion,,,,,false,,,,167283.69999998808,167283.39999997616,162837.71,162841.89999997616,162853.984,167289.009,8,400,,,
trial,html.Screen,4_17_0,2023-10-30T21:28:34.420Z,,0,1,,3122.390999976167,response,ISIC_0066223.JPG,7,ISIC_0027274.JPG,ISIC_0066223.JPG,false,1,keypress(m),500,170411.69999998808,170411.39999997616,167272.443,167283.80000001192,167289.009,170423.537,8,400,18,,ISIC_0027274.JPG
break,html.Screen,4_17_1,2023-10-30T21:28:34.421Z,,0,,,NaN,,,,,,false,,,,170412.80000001192,170412.59999996424,,170412,,170423.537,8,400,,,
break_continue,html.Screen,4_17_2,2023-10-30T21:28:34.421Z,,0,,,NaN,,,,,,false,,,,170413.09999996424,170413,,170412.89999997616,,170423.537,8,400,,,
sequence,flow.Sequence,4_17,2023-10-30T21:28:34.421Z,,0,,,3123.991000000009,completion,,,,,false,,,,170413.19999998808,170413,167272.443,167283.80000001192,167289.009,170423.537,8,400,,,
trial,html.Screen,4_18_0,2023-10-30T21:28:39.723Z,,0,1,,5291.062999964226,response,ISIC_5324623.JPG,7,ISIC_7912104.JPG,ISIC_7912104.JPG,false,0,keypress(z),500,175714.89999997616,175714.59999996424,170407.187,170413.30000001192,170423.537,175725.698,8,400,19,,ISIC_5324623.JPG
break,html.Screen,4_18_1,2023-10-30T21:28:39.724Z,,0,,,NaN,,,,,,false,,,,175715.89999997616,175715.59999996424,,175715.09999996424,,175725.698,8,400,,,
break_continue,html.Screen,4_18_2,2023-10-30T21:28:39.724Z,,0,,,NaN,,,,,,false,,,,175716.19999998808,175716.19999998808,,175716,,175725.698,8,400,,,
sequence,flow.Sequence,4_18,2023-10-30T21:28:39.724Z,,0,,,5292.662999988068,completion,,,,,false,,,,175716.30000001192,175716.19999998808,170407.187,170413.30000001192,170423.537,175725.698,8,400,,,
trial,html.Screen,4_19_0,2023-10-30T21:28:44.146Z,,0,1,,4412.602000011917,response,ISIC_0061092.JPG,6,ISIC_7614221.JPG,ISIC_7614221.JPG,false,0,keypress(z),500,180138.59999996424,180138.30000001192,175709.496,175716.5,175725.698,180144.183,8,400,20,,ISIC_0061092.JPG
break,html.Screen,4_19_1,2023-10-30T21:28:44.147Z,,0,,,NaN,,,,,,false,,,,180139.59999996424,180139.39999997616,,180138.89999997616,,180144.183,8,400,,,
break_continue,html.Screen,4_19_2,2023-10-30T21:28:44.148Z,,0,,,NaN,,,,,,false,,,,180140,180139.89999997616,,180139.69999998808,,180144.183,8,400,,,
sequence,flow.Sequence,4_19,2023-10-30T21:28:44.148Z,,0,,,4414.201999976154,completion,,,,,false,,,,180140.09999996424,180139.89999997616,175709.496,175716.5,175725.698,180144.183,8,400,,,
trial,html.Screen,4_20_0,2023-10-30T21:28:48.297Z,,0,1,,4144.81700000001,response,ISIC_0027492.JPG,7,ISIC_1654318.JPG,ISIC_0027492.JPG,false,1,keypress(m),500,184289.30000001192,184289,180127.426,180140.19999998808,180144.183,184295.476,8,400,21,,ISIC_1654318.JPG
break,html.Screen,4_20_1,2023-10-30T21:28:48.298Z,,0,,,NaN,,,,,,false,,,,184290.39999997616,184290.09999996424,,184289.5,,184295.476,8,400,,,
break_continue,html.Screen,4_20_2,2023-10-30T21:28:48.298Z,,0,,,NaN,,,,,,false,,,,184290.69999998808,184290.5,,184290.39999997616,,184295.476,8,400,,,
sequence,flow.Sequence,4_20,2023-10-30T21:28:48.299Z,,0,,,4146.31700000001,completion,,,,,false,,,,184290.80000001192,184290.5,180127.426,180140.09999996424,180144.183,184295.476,8,400,,,
trial,html.Screen,4_21_0,2023-10-30T21:28:51.646Z,,0,1,,3342.024000000005,response,ISIC_0033508.JPG,7,ISIC_2253931.JPG,ISIC_0033508.JPG,false,1,keypress(m),500,187637.89999997616,187637.5,184278.711,184290.89999997616,184295.476,187646.79,8,400,22,,ISIC_2253931.JPG
break,html.Screen,4_21_1,2023-10-30T21:28:51.647Z,,0,,,NaN,,,,,,false,,,,187638.80000001192,187638.59999996424,,187638.09999996424,,187646.79,8,400,,,
break_continue,html.Screen,4_21_2,2023-10-30T21:28:51.647Z,,0,,,NaN,,,,,,false,,,,187639.09999996424,187639.09999996424,,187639,,187646.79,8,400,,,
sequence,flow.Sequence,4_21,2023-10-30T21:28:51.647Z,,0,,,3343.623999964242,completion,,,,,false,,,,187639.39999997616,187639.09999996424,184278.711,184290.89999997616,184295.476,187646.79,8,400,,,
trial,html.Screen,4_22_0,2023-10-30T21:28:55.160Z,,0,1,,3505.510000011913,response,ISIC_3254309.JPG,9,ISIC_2468509.JPG,ISIC_3254309.JPG,false,1,keypress(m),500,191152.59999996424,191152.30000001192,187630.119,187639.69999998808,187646.79,191165.23,8,400,23,,ISIC_2468509.JPG
break,html.Screen,4_22_1,2023-10-30T21:28:55.161Z,,0,,,NaN,,,,,,false,,,,191153.39999997616,191153.19999998808,,191152.69999998808,,191165.23,8,400,,,
break_continue,html.Screen,4_22_2,2023-10-30T21:28:55.162Z,,0,,,NaN,,,,,,false,,,,191153.80000001192,191153.69999998808,,191153.59999996424,,191165.23,8,400,,,
sequence,flow.Sequence,4_22,2023-10-30T21:28:55.162Z,,0,,,3506.909999988071,completion,,,,,false,,,,191153.89999997616,191153.69999998808,187630.119,187639.59999996424,187646.79,191165.23,8,400,,,
trial,html.Screen,4_23_0,2023-10-30T21:28:58.446Z,,0,1,,3273.1699999761477,response,ISIC_0000283.JPG,8,ISIC_0046224.JPG,ISIC_0000283.JPG,false,1,keypress(m),500,194438.59999996424,194438.39999997616,191148.868,191154.09999996424,191165.23,194449.34,8,400,24,,ISIC_0046224.JPG
break,html.Screen,4_23_1,2023-10-30T21:28:58.447Z,,0,,,NaN,,,,,,false,,,,194439.59999996424,194439.19999998808,,194438.80000001192,,194449.34,8,400,,,
break_continue,html.Screen,4_23_2,2023-10-30T21:28:58.448Z,,0,,,NaN,,,,,,false,,,,194439.89999997616,194439.89999997616,,194439.69999998808,,194449.34,8,400,,,
sequence,flow.Sequence,4_23,2023-10-30T21:28:58.448Z,,0,,,3274.6699999761477,completion,,,,,false,,,,194440,194439.89999997616,191148.868,191154,191165.23,194449.34,8,400,,,
trial,html.Screen,4_24_0,2023-10-30T21:29:02.451Z,,0,1,,3993.5599999761616,response,ISIC_6507412.JPG,8,ISIC_0072768.JPG,ISIC_0072768.JPG,false,0,keypress(z),500,198443.09999996424,198442.89999997616,194433.072,194440.19999998808,194449.34,198450.87,8,400,25,,ISIC_6507412.JPG
break,html.Screen,4_24_1,2023-10-30T21:29:02.452Z,,0,,,NaN,,,,,,false,,,,198444.09999996424,198443.89999997616,,198443.39999997616,,198450.87,8,400,,,
break_continue,html.Screen,4_24_2,2023-10-30T21:29:02.452Z,,0,,,NaN,,,,,,false,,,,198444.39999997616,198444.30000001192,,198444.19999998808,,198450.87,8,400,,,
sequence,flow.Sequence,4_24,2023-10-30T21:29:02.452Z,,0,,,3994.9600000119244,completion,,,,,false,,,,198444.5,198444.30000001192,194433.072,194440.09999996424,194449.34,198450.87,8,400,,,
trial,html.Screen,4_25_0,2023-10-30T21:29:05.790Z,,0,1,,3331.3299999880837,response,ISIC_0064318.JPG,11,ISIC_0014088.JPG,ISIC_0014088.JPG,false,0,keypress(z),500,201782.5,201782.19999998808,198434.015,198444.69999998808,198450.87,201785.51,8,400,26,,ISIC_0064318.JPG
break,html.Screen,4_25_1,2023-10-30T21:29:05.791Z,,0,,,NaN,,,,,,false,,,,201783.39999997616,201783.09999996424,,201782.59999996424,,201785.51,8,400,,,
break_continue,html.Screen,4_25_2,2023-10-30T21:29:05.791Z,,0,,,NaN,,,,,,false,,,,201783.69999998808,201783.5,,201783.5,,201785.51,8,400,,,
sequence,flow.Sequence,4_25,2023-10-30T21:29:05.792Z,,0,,,3332.6300000000047,completion,,,,,false,,,,201783.80000001192,201783.5,198434.015,198444.59999996424,198450.87,201785.51,8,400,,,
trial,html.Screen,4_26_0,2023-10-30T21:29:10.454Z,,0,1,,4660.790000011912,response,ISIC_8853902.JPG,8,ISIC_4494516.JPG,ISIC_8853902.JPG,false,1,keypress(m),500,206446.59999996424,206446.30000001192,201769.438,201784,201785.51,206454.777,8,400,27,,ISIC_4494516.JPG
break,html.Screen,4_26_1,2023-10-30T21:29:10.455Z,,0,,,NaN,,,,,,false,,,,206447.39999997616,206447.30000001192,,206446.69999998808,,206454.777,8,400,,,
break_continue,html.Screen,4_26_2,2023-10-30T21:29:10.456Z,,0,,,NaN,,,,,,false,,,,206447.80000001192,206447.69999998808,,206447.59999996424,,206454.777,8,400,,,
sequence,flow.Sequence,4_26,2023-10-30T21:29:10.456Z,,0,,,4662.18999998807,completion,,,,,false,,,,206447.89999997616,206447.69999998808,201769.438,201783.89999997616,201785.51,206454.777,8,400,,,
trial,html.Screen,4_27_0,2023-10-30T21:29:16.685Z,,0,1,,6222.422999988077,response,ISIC_5101111.JPG,7,ISIC_5897134.JPG,ISIC_5101111.JPG,false,1,keypress(m),500,212677.5,212677.19999998808,206437.423,206448,206454.777,212689.679,8,400,28,,ISIC_5897134.JPG
break,html.Screen,4_27_1,2023-10-30T21:29:16.687Z,,0,,,NaN,,,,,,false,,,,212679.5,212679.30000001192,,212678.69999998808,,212689.679,8,400,,,
break_continue,html.Screen,4_27_2,2023-10-30T21:29:16.688Z,,0,,,NaN,,,,,,false,,,,212679.89999997616,212679.80000001192,,212679.59999996424,,212689.679,8,400,,,
sequence,flow.Sequence,4_27,2023-10-30T21:29:16.688Z,,0,,,6225.023000011919,completion,,,,,false,,,,212680.09999996424,212679.80000001192,206437.423,206448,206454.777,212689.679,8,400,,,
trial,html.Screen,4_28_0,2023-10-30T21:29:24.039Z,,0,1,,7341.621000011917,response,ISIC_0014598.JPG,10,ISIC_0065774.JPG,ISIC_0014598.JPG,false,1,keypress(m),500,220031.59999996424,220031.30000001192,212673.79,212680.19999998808,212689.679,220042.434,8,400,29,,ISIC_0065774.JPG
break,html.Screen,4_28_1,2023-10-30T21:29:24.040Z,,0,,,NaN,,,,,,false,,,,220032.39999997616,220032.19999998808,,220031.80000001192,,220042.434,8,400,,,
break_continue,html.Screen,4_28_2,2023-10-30T21:29:24.041Z,,0,,,NaN,,,,,,false,,,,220032.69999998808,220032.59999996424,,220032.5,,220042.434,8,400,,,
sequence,flow.Sequence,4_28,2023-10-30T21:29:24.041Z,,0,,,7342.9209999642335,completion,,,,,false,,,,220032.89999997616,220032.59999996424,212673.79,212680.19999998808,212689.679,220042.434,8,400,,,
trial,html.Screen,4_29_0,2023-10-30T21:29:27.694Z,,0,1,,3643.165999964229,response,ISIC_0024401.JPG,11,ISIC_6620377.JPG,ISIC_6620377.JPG,false,0,keypress(z),500,223685.80000001192,223685.59999996424,220025.518,220033.09999996424,220042.434,223693.935,8,400,30,,ISIC_0024401.JPG
break,html.Screen,4_29_1,2023-10-30T21:29:27.695Z,,0,,,NaN,,,,,,false,,,,223687,223686.69999998808,,223686.09999996424,,223693.935,8,400,,,
break_continue,html.Screen,4_29_2,2023-10-30T21:29:27.695Z,,0,,,NaN,,,,,,false,,,,223687.39999997616,223687.19999998808,,223687.09999996424,,223693.935,8,400,,,
sequence,flow.Sequence,4_29,2023-10-30T21:29:27.695Z,,0,,,3644.7659999880707,completion,,,,,false,,,,223687.5,223687.19999998808,220025.518,220033.09999996424,220042.434,223693.935,8,400,,,
trial,html.Screen,4_30_0,2023-10-30T21:29:33.384Z,,0,1,,5682.1649999642395,response,ISIC_2915747.JPG,12,ISIC_3842916.JPG,ISIC_2915747.JPG,false,1,keypress(m),500,229376.39999997616,229376.09999996424,223677.795,223687.59999996424,223693.935,229379.347,8,400,31,,ISIC_3842916.JPG
break,html.Screen,4_30_1,2023-10-30T21:29:33.385Z,,0,,,NaN,,,,,,false,,,,229377.39999997616,229377.19999998808,,229376.69999998808,,229379.347,8,400,,,
break_continue,html.Screen,4_30_2,2023-10-30T21:29:33.386Z,,0,,,NaN,,,,,,false,,,,229377.69999998808,229377.69999998808,,229377.59999996424,,229379.347,8,400,,,
sequence,flow.Sequence,4_30,2023-10-30T21:29:33.386Z,,0,,,5683.764999988081,completion,,,,,false,,,,229377.89999997616,229377.69999998808,223677.795,223687.59999996424,223693.935,229379.347,8,400,,,
trial,html.Screen,4_31_0,2023-10-30T21:29:44.876Z,,0,1,,11521.674999999988,timeout,ISIC_0028325.JPG,12,ISIC_0057244.JPG,,false,,,500,240868.19999998808,240868,229362.502,229378,229379.347,240901.022,8,400,32,,
break,html.Screen,4_31_1,2023-10-30T21:29:44.876Z,,0,,,NaN,,,,,,false,,,,240868.80000001192,240868.59999996424,,240868.30000001192,,240901.022,8,400,,,
break_continue,html.Screen,4_31_2,2023-10-30T21:29:44.877Z,,0,,,NaN,,,,,,false,,,,240869.09999996424,240869,,240868.80000001192,,240901.022,8,400,,,
sequence,flow.Sequence,4_31,2023-10-30T21:29:44.877Z,,0,,,11489.652999999991,completion,,,,,false,,,,240869.19999998808,240869,229362.502,229378,229379.347,240901.022,8,400,,,
trial,html.Screen,4_32_0,2023-10-30T21:29:48.229Z,,0,1,,3319.7780000119237,response,ISIC_9339756.JPG,6,ISIC_6062536.JPG,ISIC_9339756.JPG,false,1,keypress(m),500,244221.09999996424,244220.80000001192,240883.781,240869.30000001192,240901.022,244234.989,8,400,33,,ISIC_6062536.JPG
break,html.Screen,4_32_1,2023-10-30T21:29:48.230Z,,0,,,NaN,,,,,,false,,,,244222,244221.80000001192,,244221.19999998808,,244234.989,8,400,,,
break_continue,html.Screen,4_32_2,2023-10-30T21:29:48.230Z,,0,,,NaN,,,,,,false,,,,244222.30000001192,244222.19999998808,,244222.09999996424,,244234.989,8,400,,,
sequence,flow.Sequence,4_32,2023-10-30T21:29:48.230Z,,0,,,3321.177999988082,completion,,,,,false,,,,244222.5,244222.19999998808,240883.781,240869.30000001192,240901.022,244234.989,8,400,,,
trial,html.Screen,4_33_0,2023-10-30T21:29:51.835Z,,0,1,,3591.9109999761567,response,ISIC_0067804.JPG,11,ISIC_1043267.JPG,ISIC_0067804.JPG,false,1,keypress(m),500,247827.09999996424,247826.89999997616,244218.048,244222.59999996424,244234.989,247836.356,8,400,34,,ISIC_1043267.JPG
break,html.Screen,4_33_1,2023-10-30T21:29:51.836Z,,0,,,NaN,,,,,,false,,,,247828.19999998808,247827.89999997616,,247827.39999997616,,247836.356,8,400,,,
break_continue,html.Screen,4_33_2,2023-10-30T21:29:51.836Z,,0,,,NaN,,,,,,false,,,,247828.5,247828.5,,247828.30000001192,,247836.356,8,400,,,
sequence,flow.Sequence,4_33,2023-10-30T21:29:51.836Z,,0,,,3593.5109999999986,completion,,,,,false,,,,247828.59999996424,247828.5,244218.048,244222.5,244234.989,247836.356,8,400,,,
trial,html.Screen,4_34_0,2023-10-30T21:29:57.219Z,,0,1,,5374.144,response,ISIC_0067857.JPG,7,ISIC_4748605.JPG,ISIC_0067857.JPG,false,1,keypress(m),500,253210.89999997616,253210.5,247820.402,247828.80000001192,247836.356,253221.724,8,400,35,,ISIC_4748605.JPG
break,html.Screen,4_34_1,2023-10-30T21:29:57.220Z,,0,,,NaN,,,,,,false,,,,253211.80000001192,253211.5,,253211.09999996424,,253221.724,8,400,,,
break_continue,html.Screen,4_34_2,2023-10-30T21:29:57.220Z,,0,,,NaN,,,,,,false,,,,253212.09999996424,253212,,253211.89999997616,,253221.724,8,400,,,
sequence,flow.Sequence,4_34,2023-10-30T21:29:57.220Z,,0,,,5375.644,completion,,,,,false,,,,253212.19999998808,253212,247820.402,247828.80000001192,247836.356,253221.724,8,400,,,
trial,html.Screen,4_35_0,2023-10-30T21:30:02.028Z,,0,1,,4798.0760000119335,response,ISIC_0011125.JPG,11,ISIC_0011135.JPG,ISIC_0011125.JPG,false,1,keypress(m),500,258020.09999996424,258019.80000001192,253205.243,253212.30000001192,253221.724,258023.601,8,400,36,,ISIC_0011135.JPG
break,html.Screen,4_35_1,2023-10-30T21:30:02.029Z,,0,,,NaN,,,,,,false,,,,258021.19999998808,258021,,258020.39999997616,,258023.601,8,400,,,
break_continue,html.Screen,4_35_2,2023-10-30T21:30:02.029Z,,0,,,NaN,,,,,,false,,,,258021.59999996424,258021.59999996424,,258021.39999997616,,258023.601,8,400,,,
sequence,flow.Sequence,4_35,2023-10-30T21:30:02.029Z,,0,,,4799.87599996425,completion,,,,,false,,,,258021.80000001192,258021.59999996424,253205.243,253212.30000001192,253221.724,258023.601,8,400,,,
trial,html.Screen,4_36_0,2023-10-30T21:30:05.521Z,,0,1,,3489.298999976163,response,ISIC_0032918.JPG,9,ISIC_0030047.JPG,ISIC_0030047.JPG,false,0,keypress(z),500,261513.30000001192,261512.89999997616,258007.117,258021.89999997616,258023.601,261525.086,8,400,37,,ISIC_0032918.JPG
break,html.Screen,4_36_1,2023-10-30T21:30:05.522Z,,0,,,NaN,,,,,,false,,,,261514.30000001192,261514.09999996424,,261513.5,,261525.086,8,400,,,
break_continue,html.Screen,4_36_2,2023-10-30T21:30:05.522Z,,0,,,NaN,,,,,,false,,,,261514.69999998808,261514.59999996424,,261514.5,,261525.086,8,400,,,
sequence,flow.Sequence,4_36,2023-10-30T21:30:05.523Z,,0,,,3490.998999964242,completion,,,,,false,,,,261514.89999997616,261514.59999996424,258007.117,258021.80000001192,258023.601,261525.086,8,400,,,
trial,html.Screen,4_37_0,2023-10-30T21:30:10.264Z,,0,1,,4730.41399999999,response,ISIC_0009939.JPG,12,ISIC_5081382.JPG,ISIC_0009939.JPG,false,1,keypress(m),500,266255.8000000119,266255.5,261508.547,261515,261525.086,266260.095,8,400,38,,ISIC_5081382.JPG
break,html.Screen,4_37_1,2023-10-30T21:30:10.265Z,,0,,,NaN,,,,,,false,,,,266256.8000000119,266256.39999997616,,266256.09999996424,,266260.095,8,400,,,
break_continue,html.Screen,4_37_2,2023-10-30T21:30:10.265Z,,0,,,NaN,,,,,,false,,,,266257.1999999881,266257.09999996424,,266256.89999997616,,266260.095,8,400,,,
sequence,flow.Sequence,4_37,2023-10-30T21:30:10.265Z,,0,,,4732.013999964227,completion,,,,,false,,,,266257.3000000119,266257.09999996424,261508.547,261514.89999997616,261525.086,266260.095,8,400,,,
trial,html.Screen,4_38_0,2023-10-30T21:30:14.110Z,,0,1,,3841.804999976186,response,ISIC_8727731.JPG,9,ISIC_0029214.JPG,ISIC_8727731.JPG,false,1,keypress(m),500,270102.1999999881,270101.89999997616,266244.041,266257.3000000119,266260.095,270111.518,8,400,39,,ISIC_0029214.JPG
break,html.Screen,4_38_1,2023-10-30T21:30:14.111Z,,0,,,NaN,,,,,,false,,,,270103.3000000119,270103.09999996424,,270102.5,,270111.518,8,400,,,
break_continue,html.Screen,4_38_2,2023-10-30T21:30:14.111Z,,0,,,NaN,,,,,,false,,,,270103.6999999881,270103.5,,270103.5,,270111.518,8,400,,,
sequence,flow.Sequence,4_38,2023-10-30T21:30:14.112Z,,0,,,3843.405000000028,completion,,,,,false,,,,270103.8000000119,270103.5,266244.041,266257.3000000119,266260.095,270111.518,8,400,,,
trial,html.Screen,4_39_0,2023-10-30T21:30:18.392Z,,0,1,,4272.181999988097,response,ISIC_0046429.JPG,12,ISIC_9806131.JPG,ISIC_0046429.JPG,false,1,keypress(m),500,274384,274383.6999999881,270095.343,270103.89999997616,270111.518,274396.462,8,400,40,,ISIC_9806131.JPG
break,html.Screen,4_39_1,2023-10-30T21:30:18.393Z,,0,,,NaN,,,,,,false,,,,274384.89999997616,274384.6999999881,,274384.1999999881,,274396.462,8,400,,,
break_continue,html.Screen,4_39_2,2023-10-30T21:30:18.393Z,,0,,,NaN,,,,,,false,,,,274385.1999999881,274385.09999996424,,274385.09999996424,,274396.462,8,400,,,
sequence,flow.Sequence,4_39,2023-10-30T21:30:18.393Z,,0,,,4273.581999964255,completion,,,,,false,,,,274385.39999997616,274385.09999996424,270095.343,270103.89999997616,270111.518,274396.462,8,400,,,
trial,html.Screen,4_40_0,2023-10-30T21:30:21.552Z,,0,1,,3147.9379999761586,response,ISIC_6425888.JPG,6,ISIC_9745038.JPG,ISIC_6425888.JPG,false,1,keypress(m),500,277544.6999999881,277544.39999997616,274379.696,274385.5,274396.462,277547.706,8,400,41,,ISIC_9745038.JPG
break,html.Screen,4_40_1,2023-10-30T21:30:21.553Z,,0,,,NaN,,,,,,false,,,,277545.5,277545.39999997616,,277544.8000000119,,277547.706,8,400,,,
break_continue,html.Screen,4_40_2,2023-10-30T21:30:21.554Z,,0,,,NaN,,,,,,false,,,,277545.8000000119,277545.8000000119,,277545.6999999881,,277547.706,8,400,,,
sequence,flow.Sequence,4_40,2023-10-30T21:30:21.554Z,,0,,,3149.3380000119214,completion,,,,,false,,,,277546.1999999881,277545.8000000119,274379.696,274385.39999997616,274396.462,277547.706,8,400,,,
trial,html.Screen,4_41_0,2023-10-30T21:30:24.694Z,,0,1,,3138.1939999761526,response,ISIC_3072311.JPG,11,ISIC_0061751.JPG,ISIC_3072311.JPG,false,1,keypress(m),500,280686.39999997616,280685.89999997616,277531.292,277546.39999997616,277547.706,280698.915,8,400,42,,ISIC_0061751.JPG
break,html.Screen,4_41_1,2023-10-30T21:30:24.695Z,,0,,,NaN,,,,,,false,,,,280687.5,280687.1999999881,,280686.6999999881,,280698.915,8,400,,,
break_continue,html.Screen,4_41_2,2023-10-30T21:30:24.696Z,,0,,,NaN,,,,,,false,,,,280687.89999997616,280687.6999999881,,280687.59999996424,,280698.915,8,400,,,
sequence,flow.Sequence,4_41,2023-10-30T21:30:24.696Z,,0,,,3139.9939999880735,completion,,,,,false,,,,280688,280687.6999999881,277531.292,277546.3000000119,277547.706,280698.915,8,400,,,
trial,html.Screen,4_42_0,2023-10-30T21:30:28.414Z,,0,1,,3706.885000011942,response,ISIC_8380904.JPG,10,ISIC_0060351.JPG,ISIC_8380904.JPG,false,1,keypress(m),500,284406.09999996424,284405.8000000119,280682.256,280688.09999996424,280698.915,284416.994,8,400,43,,ISIC_0060351.JPG
break,html.Screen,4_42_1,2023-10-30T21:30:28.415Z,,0,,,NaN,,,,,,false,,,,284406.89999997616,284406.6999999881,,284406.3000000119,,284416.994,8,400,,,
break_continue,html.Screen,4_42_2,2023-10-30T21:30:28.415Z,,0,,,NaN,,,,,,false,,,,284407.09999996424,284407,,284407,,284416.994,8,400,,,
sequence,flow.Sequence,4_42,2023-10-30T21:30:28.415Z,,0,,,3708.085000000021,completion,,,,,false,,,,284407.1999999881,284407,280682.256,280688.09999996424,280698.915,284416.994,8,400,,,
trial,html.Screen,4_43_0,2023-10-30T21:30:31.745Z,,0,1,,3320.405999976152,response,ISIC_9076021.JPG,11,ISIC_0033584.JPG,ISIC_9076021.JPG,false,1,keypress(m),500,287737.6999999881,287737.39999997616,284400.615,284407.39999997616,284416.994,287751.832,8,400,44,,ISIC_0033584.JPG
break,html.Screen,4_43_1,2023-10-30T21:30:31.747Z,,0,,,NaN,,,,,,false,,,,287738.8000000119,287738.39999997616,,287738,,287751.832,8,400,,,
break_continue,html.Screen,4_43_2,2023-10-30T21:30:31.747Z,,0,,,NaN,,,,,,false,,,,287739.1999999881,287739.09999996424,,287738.89999997616,,287751.832,8,400,,,
sequence,flow.Sequence,4_43,2023-10-30T21:30:31.747Z,,0,,,3322.105999964231,completion,,,,,false,,,,287739.3000000119,287739.09999996424,284400.615,284407.39999997616,284416.994,287751.832,8,400,,,
trial,html.Screen,4_44_0,2023-10-30T21:30:36.327Z,,0,1,,4567.367999988084,response,ISIC_0066109.JPG,12,ISIC_0016080.JPG,ISIC_0016080.JPG,false,0,keypress(z),500,292319.3000000119,292319.1999999881,287735.003,287739.39999997616,287751.832,292336.974,8,400,45,,ISIC_0066109.JPG
break,html.Screen,4_44_1,2023-10-30T21:30:36.328Z,,0,,,NaN,,,,,,false,,,,292320.5,292320.1999999881,,292319.5,,292336.974,8,400,,,
break_continue,html.Screen,4_44_2,2023-10-30T21:30:36.329Z,,0,,,NaN,,,,,,false,,,,292320.89999997616,292320.8000000119,,292320.59999996424,,292336.974,8,400,,,
sequence,flow.Sequence,4_44,2023-10-30T21:30:36.329Z,,0,,,4568.968000011926,completion,,,,,false,,,,292321,292320.8000000119,287735.003,287739.3000000119,287751.832,292336.974,8,400,,,
trial,html.Screen,4_45_0,2023-10-30T21:30:40.526Z,,0,1,,4181.12599996425,response,ISIC_8612828.JPG,10,ISIC_8255784.JPG,ISIC_8612828.JPG,false,1,keypress(m),500,296518.39999997616,296518.09999996424,292319.919,292321.1999999881,292336.974,296521.596,8,400,46,,ISIC_8255784.JPG
break,html.Screen,4_45_1,2023-10-30T21:30:40.527Z,,0,,,NaN,,,,,,false,,,,296519.3000000119,296519,,296518.59999996424,,296521.596,8,400,,,
break_continue,html.Screen,4_45_2,2023-10-30T21:30:40.527Z,,0,,,NaN,,,,,,false,,,,296519.6999999881,296519.5,,296519.5,,296521.596,8,400,,,
sequence,flow.Sequence,4_45,2023-10-30T21:30:40.528Z,,0,,,4182.526000000013,completion,,,,,false,,,,296519.8000000119,296519.5,292319.919,292321.09999996424,292336.974,296521.596,8,400,,,
trial,html.Screen,4_46_0,2023-10-30T21:30:44.629Z,,0,1,,4098.6039999880595,response,ISIC_9001948.JPG,8,ISIC_2337786.JPG,ISIC_2337786.JPG,false,0,keypress(z),500,300621.09999996424,300620.1999999881,296505.577,296519.89999997616,296521.596,300623.152,8,400,47,,ISIC_9001948.JPG
break,html.Screen,4_46_1,2023-10-30T21:30:44.630Z,,0,,,NaN,,,,,,false,,,,300622.1999999881,300622,,300621.39999997616,,300623.152,8,400,,,
break_continue,html.Screen,4_46_2,2023-10-30T21:30:44.630Z,,0,,,NaN,,,,,,false,,,,300622.5,300622.39999997616,,300622.39999997616,,300623.152,8,400,,,
sequence,flow.Sequence,4_46,2023-10-30T21:30:44.630Z,,0,,,4100.803999976139,completion,,,,,false,,,,300622.6999999881,300622.39999997616,296505.577,296519.8000000119,296521.596,300623.152,8,400,,,
trial,html.Screen,4_47_0,2023-10-30T21:30:47.450Z,,0,1,,2818.4479999642354,response,ISIC_8618835.JPG,11,ISIC_5327271.JPG,ISIC_5327271.JPG,false,0,keypress(z),500,303441.89999997616,303441.59999996424,300606.969,300622.8000000119,300623.152,303457.58,8,400,48,,ISIC_8618835.JPG
break,html.Screen,4_47_1,2023-10-30T21:30:47.451Z,,0,,,NaN,,,,,,false,,,,303442.8000000119,303442.59999996424,,303442.09999996424,,303457.58,8,400,,,
break_continue,html.Screen,4_47_2,2023-10-30T21:30:47.451Z,,0,,,NaN,,,,,,false,,,,303443.09999996424,303443.09999996424,,303442.89999997616,,303457.58,8,400,,,
sequence,flow.Sequence,4_47,2023-10-30T21:30:47.451Z,,0,,,2819.9479999642354,completion,,,,,false,,,,303443.1999999881,303443.09999996424,300606.969,300622.6999999881,300623.152,303457.58,8,400,,,
trial,html.Screen,4_48_0,2023-10-30T21:30:51.109Z,,0,1,,3643.519999964221,response,ISIC_4116224.JPG,12,ISIC_0027247.JPG,ISIC_4116224.JPG,false,1,keypress(m),500,307101.39999997616,307101.09999996424,303440.865,303443.39999997616,303457.58,307109.14,8,400,49,,ISIC_0027247.JPG
break,html.Screen,4_48_1,2023-10-30T21:30:51.110Z,,0,,,NaN,,,,,,false,,,,307102.39999997616,307102.1999999881,,307101.59999996424,,307109.14,8,400,,,
break_continue,html.Screen,4_48_2,2023-10-30T21:30:51.111Z,,0,,,NaN,,,,,,false,,,,307102.6999999881,307102.59999996424,,307102.59999996424,,307109.14,8,400,,,
sequence,flow.Sequence,4_48,2023-10-30T21:30:51.111Z,,0,,,3645.019999964221,completion,,,,,false,,,,307102.89999997616,307102.59999996424,303440.865,303443.3000000119,303457.58,307109.14,8,400,,,
trial,html.Screen,4_49_0,2023-10-30T21:30:57.501Z,,0,1,,6383.559999988065,response,ISIC_0059597.JPG,11,ISIC_0029626.JPG,ISIC_0059597.JPG,false,1,keypress(m),500,313493,313492.6999999881,307092.471,307102.89999997616,307109.14,313511.524,8,400,50,,ISIC_0029626.JPG
break,html.Screen,4_49_1,2023-10-30T21:31:07.508Z,,0,,,10004.099000000046,timeout,,,,,false,,,,323499.8000000119,323498.943,313494.702,313493.1999999881,313511.524,323515.623,8,400,,,
break_continue,html.Screen,4_49_2,2023-10-30T21:31:08.467Z,,0,,,919.5769999880577,response,,,,,false,continue,keypress(Space),,324458.8000000119,324435.1999999881,323498.943,323500,323515.623,324465.546,8,400,,,
sequence,flow.Sequence,4_49,2023-10-30T21:31:08.467Z,,0,,,17326.059999988065,completion,,,,,false,,,,324459.09999996424,324435.1999999881,307092.471,307102.89999997616,307109.14,324465.546,8,400,,,
trial,html.Screen,4_50_0,2023-10-30T21:31:11.787Z,,0,2,,3313.454000000027,response,ISIC_3868662.JPG,11,ISIC_0009880.JPG,ISIC_3868662.JPG,false,1,keypress(m),500,327779.3000000119,327779,324449.115,324459.3000000119,324465.546,327783.545,8,400,1,,ISIC_0009880.JPG
break,html.Screen,4_50_1,2023-10-30T21:31:11.788Z,,0,,,NaN,,,,,,false,,,,327780.39999997616,327780.09999996424,,327779.59999996424,,327783.545,8,400,,,
break_continue,html.Screen,4_50_2,2023-10-30T21:31:11.788Z,,0,,,NaN,,,,,,false,,,,327780.59999996424,327780.59999996424,,327780.39999997616,,327783.545,8,400,,,
sequence,flow.Sequence,4_50,2023-10-30T21:31:11.789Z,,0,,,3315.053999964264,completion,,,,,false,,,,327780.6999999881,327780.59999996424,324449.115,324459.1999999881,324465.546,327783.545,8,400,,,
trial,html.Screen,4_51_0,2023-10-30T21:31:15.567Z,,0,2,,3775.1549999880954,response,ISIC_6498634.JPG,10,ISIC_0057518.JPG,ISIC_6498634.JPG,false,1,keypress(m),500,331558.89999997616,331558.6999999881,327766.925,327780.89999997616,327783.545,331568.476,8,400,2,,ISIC_0057518.JPG
break,html.Screen,4_51_1,2023-10-30T21:31:15.568Z,,0,,,NaN,,,,,,false,,,,331559.89999997616,331559.59999996424,,331559.09999996424,,331568.476,8,400,,,
break_continue,html.Screen,4_51_2,2023-10-30T21:31:15.568Z,,0,,,NaN,,,,,,false,,,,331560.1999999881,331560.09999996424,,331560,,331568.476,8,400,,,
sequence,flow.Sequence,4_51,2023-10-30T21:31:15.568Z,,0,,,3776.5549999642535,completion,,,,,false,,,,331560.3000000119,331560.09999996424,327766.925,327780.89999997616,327783.545,331568.476,8,400,,,
trial,html.Screen,4_52_0,2023-10-30T21:31:18.663Z,,0,2,,3086.523999999976,response,ISIC_6253295.JPG,7,ISIC_4097868.JPG,ISIC_6253295.JPG,false,1,keypress(m),500,334655.3000000119,334655,331551.874,331560.39999997616,331568.476,334669.559,8,400,3,,ISIC_4097868.JPG
break,html.Screen,4_52_1,2023-10-30T21:31:18.664Z,,0,,,NaN,,,,,,false,,,,334656.5,334656.39999997616,,334655.6999999881,,334669.559,8,400,,,
break_continue,html.Screen,4_52_2,2023-10-30T21:31:18.665Z,,0,,,NaN,,,,,,false,,,,334656.89999997616,334656.6999999881,,334656.6999999881,,334669.559,8,400,,,
sequence,flow.Sequence,4_52,2023-10-30T21:31:18.665Z,,0,,,3088.223999988055,completion,,,,,false,,,,334657,334656.6999999881,331551.874,331560.39999997616,331568.476,334669.559,8,400,,,
trial,html.Screen,4_53_0,2023-10-30T21:31:22.797Z,,0,2,,4119.741000011913,response,ISIC_0058954.JPG,9,ISIC_0011587.JPG,ISIC_0011587.JPG,false,0,keypress(z),500,338789.59999996424,338789.3000000119,334652.975,334657.09999996424,334669.559,338804.344,8,400,4,,ISIC_0058954.JPG
break,html.Screen,4_53_1,2023-10-30T21:31:22.798Z,,0,,,NaN,,,,,,false,,,,338790.5,338790.1999999881,,338789.8000000119,,338804.344,8,400,,,
break_continue,html.Screen,4_53_2,2023-10-30T21:31:22.799Z,,0,,,NaN,,,,,,false,,,,338790.89999997616,338790.6999999881,,338790.6999999881,,338804.344,8,400,,,
sequence,flow.Sequence,4_53,2023-10-30T21:31:22.799Z,,0,,,4121.140999988071,completion,,,,,false,,,,338791,338790.6999999881,334652.975,334657.09999996424,334669.559,338804.344,8,400,,,
trial,html.Screen,4_54_0,2023-10-30T21:31:26.787Z,,0,2,,3974.5559999761754,response,ISIC_6741865.JPG,12,ISIC_0067339.JPG,ISIC_6741865.JPG,false,1,keypress(m),500,342779.1999999881,342778.89999997616,338787.723,338791,338804.344,342789.214,8,400,5,,ISIC_0067339.JPG
break,html.Screen,4_54_1,2023-10-30T21:31:26.788Z,,0,,,NaN,,,,,,false,,,,342780.1999999881,342779.89999997616,,342779.39999997616,,342789.214,8,400,,,
break_continue,html.Screen,4_54_2,2023-10-30T21:31:26.788Z,,0,,,NaN,,,,,,false,,,,342780.39999997616,342780.3000000119,,342780.1999999881,,342789.214,8,400,,,
sequence,flow.Sequence,4_54,2023-10-30T21:31:26.788Z,,0,,,3975.956000011938,completion,,,,,false,,,,342780.59999996424,342780.3000000119,338787.723,338791,338804.344,342789.214,8,400,,,
trial,html.Screen,4_55_0,2023-10-30T21:31:30.157Z,,0,2,,3359.286000000022,response,ISIC_0025987.JPG,10,ISIC_6634951.JPG,ISIC_0025987.JPG,false,1,keypress(m),500,346148.8000000119,346148.5,342772.851,342780.6999999881,342789.214,346157.272,8,400,6,,ISIC_6634951.JPG
break,html.Screen,4_55_1,2023-10-30T21:31:30.158Z,,0,,,NaN,,,,,,false,,,,346149.6999999881,346149.59999996424,,346149,,346157.272,8,400,,,
break_continue,html.Screen,4_55_2,2023-10-30T21:31:30.158Z,,0,,,NaN,,,,,,false,,,,346150,346149.89999997616,,346149.8000000119,,346157.272,8,400,,,
sequence,flow.Sequence,4_55,2023-10-30T21:31:30.158Z,,0,,,3360.68599997618,completion,,,,,false,,,,346150.1999999881,346149.89999997616,342772.851,342780.6999999881,342789.214,346157.272,8,400,,,
trial,html.Screen,4_56_0,2023-10-30T21:31:33.140Z,,0,2,,2974.627999976161,response,ISIC_0015109.JPG,10,ISIC_0000305.JPG,ISIC_0015109.JPG,false,1,keypress(m),500,349132.1999999881,349131.89999997616,346140.724,346150.1999999881,346157.272,349141.8,8,400,7,,ISIC_0000305.JPG
break,html.Screen,4_56_1,2023-10-30T21:31:33.141Z,,0,,,NaN,,,,,,false,,,,349133.1999999881,349132.89999997616,,349132.5,,349141.8,8,400,,,
break_continue,html.Screen,4_56_2,2023-10-30T21:31:33.141Z,,0,,,NaN,,,,,,false,,,,349133.59999996424,349133.5,,349133.3000000119,,349141.8,8,400,,,
sequence,flow.Sequence,4_56,2023-10-30T21:31:33.142Z,,0,,,2976.228000000003,completion,,,,,false,,,,349133.6999999881,349133.5,346140.724,346150.1999999881,346157.272,349141.8,8,400,,,
trial,html.Screen,4_57_0,2023-10-30T21:31:36.711Z,,0,2,,3561.5000000119326,response,ISIC_5406677.JPG,6,ISIC_7630831.JPG,ISIC_7630831.JPG,false,0,keypress(z),500,352703.59999996424,352703.3000000119,349125.382,349133.8000000119,349141.8,352726.672,8,400,8,,ISIC_5406677.JPG
break,html.Screen,4_57_1,2023-10-30T21:31:36.712Z,,0,,,NaN,,,,,,false,,,,352704.59999996424,352704.3000000119,,352703.89999997616,,352726.672,8,400,,,
break_continue,html.Screen,4_57_2,2023-10-30T21:31:36.713Z,,0,,,NaN,,,,,,false,,,,352705.09999996424,352704.89999997616,,352704.8000000119,,352726.672,8,400,,,
sequence,flow.Sequence,4_57,2023-10-30T21:31:36.713Z,,0,,,3563.09999997617,completion,,,,,false,,,,352705.1999999881,352704.89999997616,349125.382,349133.8000000119,349141.8,352726.672,8,400,,,
trial,html.Screen,4_58_0,2023-10-30T21:31:39.902Z,,0,2,,3167.3279999999795,response,ISIC_0030139.JPG,9,ISIC_0056260.JPG,ISIC_0030139.JPG,false,1,keypress(m),500,355894.6999999881,355894,352709.959,352705.39999997616,352726.672,355911.196,8,400,9,,ISIC_0056260.JPG
break,html.Screen,4_58_1,2023-10-30T21:31:39.903Z,,0,,,NaN,,,,,,false,,,,355895.5,355895.39999997616,,355894.89999997616,,355911.196,8,400,,,
break_continue,html.Screen,4_58_2,2023-10-30T21:31:39.904Z,,0,,,NaN,,,,,,false,,,,355896,355895.8000000119,,355895.6999999881,,355911.196,8,400,,,
sequence,flow.Sequence,4_58,2023-10-30T21:31:39.904Z,,0,,,3169.1280000119004,completion,,,,,false,,,,355896,355895.8000000119,352709.959,352705.39999997616,352726.672,355911.196,8,400,,,
trial,html.Screen,4_59_0,2023-10-30T21:31:42.871Z,,0,2,,2951.8040000000037,response,ISIC_0068544.JPG,8,ISIC_0014867.JPG,ISIC_0068544.JPG,false,1,keypress(m),500,358863.1999999881,358863,355894.077,355896.09999996424,355911.196,358879.018,8,400,10,,ISIC_0014867.JPG
break,html.Screen,4_59_1,2023-10-30T21:31:42.872Z,,0,,,NaN,,,,,,false,,,,358864.3000000119,358864,,358863.39999997616,,358879.018,8,400,,,
break_continue,html.Screen,4_59_2,2023-10-30T21:31:42.872Z,,0,,,NaN,,,,,,false,,,,358864.59999996424,358864.39999997616,,358864.3000000119,,358879.018,8,400,,,
sequence,flow.Sequence,4_59,2023-10-30T21:31:42.873Z,,0,,,2953.203999976162,completion,,,,,false,,,,358864.8000000119,358864.39999997616,355894.077,355896.09999996424,355911.196,358879.018,8,400,,,
trial,html.Screen,4_60_0,2023-10-30T21:31:45.952Z,,0,2,,3065.0819999642554,response,ISIC_0255997.JPG,12,ISIC_0030183.JPG,ISIC_0255997.JPG,false,1,keypress(m),500,361944.39999997616,361944.09999996424,358862.154,358864.89999997616,358879.018,361946.512,8,400,11,,ISIC_0030183.JPG
break,html.Screen,4_60_1,2023-10-30T21:31:45.953Z,,0,,,NaN,,,,,,false,,,,361945.3000000119,361945.1999999881,,361944.59999996424,,361946.512,8,400,,,
break_continue,html.Screen,4_60_2,2023-10-30T21:31:45.953Z,,0,,,NaN,,,,,,false,,,,361945.6999999881,361945.59999996424,,361945.5,,361946.512,8,400,,,
sequence,flow.Sequence,4_60,2023-10-30T21:31:45.954Z,,0,,,3066.5819999642554,completion,,,,,false,,,,361945.8000000119,361945.59999996424,358862.154,358864.89999997616,358879.018,361946.512,8,400,,,
trial,html.Screen,4_61_0,2023-10-30T21:31:49.228Z,,0,2,,3273.0879999642493,response,ISIC_7080584.JPG,9,ISIC_5179503.JPG,ISIC_5179503.JPG,false,0,keypress(z),500,365219.89999997616,365219.59999996424,361930.051,361945.89999997616,361946.512,365231.069,8,400,12,,ISIC_7080584.JPG
break,html.Screen,4_61_1,2023-10-30T21:31:49.228Z,,0,,,NaN,,,,,,false,,,,365220.8000000119,365220.59999996424,,365220,,365231.069,8,400,,,
break_continue,html.Screen,4_61_2,2023-10-30T21:31:49.229Z,,0,,,NaN,,,,,,false,,,,365221.09999996424,365221,,365220.89999997616,,365231.069,8,400,,,
sequence,flow.Sequence,4_61,2023-10-30T21:31:49.229Z,,0,,,3274.488000000012,completion,,,,,false,,,,365221.1999999881,365221,361930.051,361945.89999997616,361946.512,365231.069,8,400,,,
trial,html.Screen,4_62_0,2023-10-30T21:31:52.528Z,,0,2,,3289.2310000119032,response,ISIC_5798015.JPG,7,ISIC_0030900.JPG,ISIC_0030900.JPG,false,0,keypress(z),500,368520.5,368520.3000000119,365214.343,365221.39999997616,365231.069,368532.63,8,400,13,,ISIC_5798015.JPG
break,html.Screen,4_62_1,2023-10-30T21:31:52.529Z,,0,,,NaN,,,,,,false,,,,368521.09999996424,368521,,368520.6999999881,,368532.63,8,400,,,
break_continue,html.Screen,4_62_2,2023-10-30T21:31:52.529Z,,0,,,NaN,,,,,,false,,,,368521.5,368521.3000000119,,368521.3000000119,,368532.63,8,400,,,
sequence,flow.Sequence,4_62,2023-10-30T21:31:52.529Z,,0,,,3290.2310000119032,completion,,,,,false,,,,368521.59999996424,368521.3000000119,365214.343,365221.3000000119,365231.069,368532.63,8,400,,,
trial,html.Screen,4_63_0,2023-10-30T21:31:56.085Z,,0,2,,3544.7699999761535,response,ISIC_0033274.JPG,11,ISIC_1733794.JPG,ISIC_1733794.JPG,false,0,keypress(z),500,372077.6999999881,372077.39999997616,368515.873,368521.6999999881,368532.63,372084.174,8,400,14,,ISIC_0033274.JPG
break,html.Screen,4_63_1,2023-10-30T21:31:56.087Z,,0,,,NaN,,,,,,false,,,,372078.89999997616,372078.59999996424,,372078,,372084.174,8,400,,,
break_continue,html.Screen,4_63_2,2023-10-30T21:31:56.087Z,,0,,,NaN,,,,,,false,,,,372079.3000000119,372079.09999996424,,372079,,372084.174,8,400,,,
sequence,flow.Sequence,4_63,2023-10-30T21:31:56.087Z,,0,,,3546.4699999642326,completion,,,,,false,,,,372079.39999997616,372079.09999996424,368515.873,368521.59999996424,368532.63,372084.174,8,400,,,
trial,html.Screen,4_64_0,2023-10-30T21:31:59.209Z,,0,2,,3116.826000000001,response,ISIC_8249565.JPG,12,ISIC_0032680.JPG,ISIC_8249565.JPG,false,1,keypress(m),500,375201.1999999881,375201,372067.329,372079.5,372084.174,375218.401,8,400,15,,ISIC_0032680.JPG
break,html.Screen,4_64_1,2023-10-30T21:31:59.210Z,,0,,,NaN,,,,,,false,,,,375202.3000000119,375202.09999996424,,375201.8000000119,,375218.401,8,400,,,
break_continue,html.Screen,4_64_2,2023-10-30T21:31:59.210Z,,0,,,NaN,,,,,,false,,,,375202.59999996424,375202.5,,375202.39999997616,,375218.401,8,400,,,
sequence,flow.Sequence,4_64,2023-10-30T21:31:59.210Z,,0,,,3118.326000000001,completion,,,,,false,,,,375202.8000000119,375202.5,372067.329,372079.39999997616,372084.174,375218.401,8,400,,,
trial,html.Screen,4_65_0,2023-10-30T21:32:02.509Z,,0,2,,3282.4989999761456,response,ISIC_9317929.JPG,7,ISIC_9764024.JPG,ISIC_9764024.JPG,false,0,keypress(z),500,378501.3000000119,378500.89999997616,375201.564,375202.89999997616,375218.401,378519.813,8,400,16,,ISIC_9317929.JPG
break,html.Screen,4_65_1,2023-10-30T21:32:02.510Z,,0,,,NaN,,,,,,false,,,,378502.3000000119,378502.1999999881,,378501.8000000119,,378519.813,8,400,,,
break_continue,html.Screen,4_65_2,2023-10-30T21:32:02.511Z,,0,,,NaN,,,,,,false,,,,378503.3000000119,378502.6999999881,,378502.5,,378519.813,8,400,,,
sequence,flow.Sequence,4_65,2023-10-30T21:32:02.511Z,,0,,,3284.2989999880665,completion,,,,,false,,,,378503.59999996424,378502.6999999881,375201.564,375202.8000000119,375218.401,378519.813,8,400,,,
trial,html.Screen,4_66_0,2023-10-30T21:32:05.493Z,,0,2,,2964.7869999642135,response,ISIC_5443837.JPG,10,ISIC_0032723.JPG,ISIC_0032723.JPG,false,0,keypress(z),500,381484.89999997616,381484.59999996424,378502.818,378503.6999999881,378519.813,381487.317,8,400,17,,ISIC_5443837.JPG
break,html.Screen,4_66_1,2023-10-30T21:32:05.494Z,,0,,,NaN,,,,,,false,,,,381485.8000000119,381485.59999996424,,381485.09999996424,,381487.317,8,400,,,
break_continue,html.Screen,4_66_2,2023-10-30T21:32:05.494Z,,0,,,NaN,,,,,,false,,,,381486.1999999881,381486,,381485.89999997616,,381487.317,8,400,,,
sequence,flow.Sequence,4_66,2023-10-30T21:32:05.494Z,,0,,,2966.1869999999763,completion,,,,,false,,,,381486.3000000119,381486,378502.818,378503.6999999881,378519.813,381487.317,8,400,,,
trial,html.Screen,4_67_0,2023-10-30T21:32:08.446Z,,0,2,,2950.7829999642563,response,ISIC_4363603.JPG,11,ISIC_2304753.JPG,ISIC_2304753.JPG,false,0,keypress(z),500,384438.8000000119,384438.09999996424,381470.921,381486.39999997616,381487.317,384455.271,8,400,18,,ISIC_4363603.JPG
break,html.Screen,4_67_1,2023-10-30T21:32:08.447Z,,0,,,NaN,,,,,,false,,,,384439.6999999881,384439.5,,384439,,384455.271,8,400,,,
break_continue,html.Screen,4_67_2,2023-10-30T21:32:08.448Z,,0,,,NaN,,,,,,false,,,,384440.1999999881,384440,,384439.89999997616,,384455.271,8,400,,,
sequence,flow.Sequence,4_67,2023-10-30T21:32:08.448Z,,0,,,2952.683000000019,completion,,,,,false,,,,384440.39999997616,384440,381470.921,381486.39999997616,381487.317,384455.271,8,400,,,
trial,html.Screen,4_68_0,2023-10-30T21:32:11.943Z,,0,2,,3479.3289999642293,response,ISIC_0028109.JPG,6,ISIC_0064936.JPG,ISIC_0028109.JPG,false,1,keypress(m),500,387935.09999996424,387934.59999996424,384438.725,384440.5,384455.271,387939.744,8,400,19,,ISIC_0064936.JPG
break,html.Screen,4_68_1,2023-10-30T21:32:11.944Z,,0,,,NaN,,,,,,false,,,,387936.09999996424,387935.8000000119,,387935.1999999881,,387939.744,8,400,,,
break_continue,html.Screen,4_68_2,2023-10-30T21:32:11.944Z,,0,,,NaN,,,,,,false,,,,387936.39999997616,387936.3000000119,,387936.1999999881,,387939.744,8,400,,,
sequence,flow.Sequence,4_68,2023-10-30T21:32:11.944Z,,0,,,3481.029000011913,completion,,,,,false,,,,387936.5,387936.3000000119,384438.725,384440.39999997616,384455.271,387939.744,8,400,,,
trial,html.Screen,4_69_0,2023-10-30T21:32:15.007Z,,0,2,,3059.056000011915,response,ISIC_0012208.JPG,6,ISIC_0015071.JPG,ISIC_0012208.JPG,false,1,keypress(m),500,390999.09999996424,390998.8000000119,387923.417,387936.59999996424,387939.744,391007.766,8,400,20,,ISIC_0015071.JPG
break,html.Screen,4_69_1,2023-10-30T21:32:15.008Z,,0,,,NaN,,,,,,false,,,,391000.1999999881,391000,,390999.39999997616,,391007.766,8,400,,,
break_continue,html.Screen,4_69_2,2023-10-30T21:32:15.008Z,,0,,,NaN,,,,,,false,,,,391000.5,391000.39999997616,,391000.3000000119,,391007.766,8,400,,,
sequence,flow.Sequence,4_69,2023-10-30T21:32:15.008Z,,0,,,3060.655999976152,completion,,,,,false,,,,391000.59999996424,391000.39999997616,387923.417,387936.59999996424,387939.744,391007.766,8,400,,,
trial,html.Screen,4_70_0,2023-10-30T21:32:18.548Z,,0,2,,3532.133999976155,response,ISIC_0065062.JPG,5,ISIC_1937955.JPG,ISIC_1937955.JPG,false,0,keypress(z),500,394540.09999996424,394539.89999997616,390991.178,391000.6999999881,391007.766,394542.269,8,400,21,,ISIC_0065062.JPG
break,html.Screen,4_70_1,2023-10-30T21:32:18.549Z,,0,,,NaN,,,,,,false,,,,394541.09999996424,394540.6999999881,,394540.39999997616,,394542.269,8,400,,,
break_continue,html.Screen,4_70_2,2023-10-30T21:32:18.549Z,,0,,,NaN,,,,,,false,,,,394541.5,394541.39999997616,,394541.3000000119,,394542.269,8,400,,,
sequence,flow.Sequence,4_70,2023-10-30T21:32:18.549Z,,0,,,3533.633999976155,completion,,,,,false,,,,394541.59999996424,394541.39999997616,390991.178,391000.6999999881,391007.766,394542.269,8,400,,,
trial,html.Screen,4_71_0,2023-10-30T21:32:21.321Z,,0,2,,2770.630999976187,response,ISIC_8945395.JPG,13,ISIC_0029660.JPG,ISIC_0029660.JPG,false,0,keypress(z),500,397313.09999996424,397312.89999997616,394525.581,394541.6999999881,394542.269,397326.905,8,400,22,,ISIC_8945395.JPG
break,html.Screen,4_71_1,2023-10-30T21:32:21.322Z,,0,,,NaN,,,,,,false,,,,397314,397313.6999999881,,397313.3000000119,,397326.905,8,400,,,
break_continue,html.Screen,4_71_2,2023-10-30T21:32:21.322Z,,0,,,NaN,,,,,,false,,,,397314.39999997616,397314.3000000119,,397314.1999999881,,397326.905,8,400,,,
sequence,flow.Sequence,4_71,2023-10-30T21:32:21.322Z,,0,,,2772.03100001195,completion,,,,,false,,,,397314.5,397314.3000000119,394525.581,394541.6999999881,394542.269,397326.905,8,400,,,
trial,html.Screen,4_72_0,2023-10-30T21:32:24.125Z,,0,2,,2789.794999988051,response,ISIC_6231450.JPG,11,ISIC_0283957.JPG,ISIC_6231450.JPG,false,1,keypress(m),500,400116.89999997616,400116.6999999881,397310.052,397314.6999999881,397326.905,400127.695,8,400,23,,ISIC_0283957.JPG
break,html.Screen,4_72_1,2023-10-30T21:32:24.126Z,,0,,,NaN,,,,,,false,,,,400117.89999997616,400117.59999996424,,400117.09999996424,,400127.695,8,400,,,
break_continue,html.Screen,4_72_2,2023-10-30T21:32:24.126Z,,0,,,NaN,,,,,,false,,,,400118.1999999881,400118,,400118,,400127.695,8,400,,,
sequence,flow.Sequence,4_72,2023-10-30T21:32:24.126Z,,0,,,2791.094999999972,completion,,,,,false,,,,400118.3000000119,400118,397310.052,397314.59999996424,397326.905,400127.695,8,400,,,
trial,html.Screen,4_73_0,2023-10-30T21:32:27.313Z,,0,2,,3177.105000011914,response,ISIC_0027436.JPG,10,ISIC_2015441.JPG,ISIC_2015441.JPG,false,0,keypress(z),500,403305.09999996424,403304.8000000119,400111.298,400118.39999997616,400127.695,403313.39,8,400,24,,ISIC_0027436.JPG
break,html.Screen,4_73_1,2023-10-30T21:32:27.314Z,,0,,,NaN,,,,,,false,,,,403306,403305.6999999881,,403305.1999999881,,403313.39,8,400,,,
break_continue,html.Screen,4_73_2,2023-10-30T21:32:27.314Z,,0,,,NaN,,,,,,false,,,,403306.39999997616,403306.1999999881,,403306.1999999881,,403313.39,8,400,,,
sequence,flow.Sequence,4_73,2023-10-30T21:32:27.314Z,,0,,,3178.504999988072,completion,,,,,false,,,,403306.5,403306.1999999881,400111.298,400118.39999997616,400127.695,403313.39,8,400,,,
trial,html.Screen,4_74_0,2023-10-30T21:32:31.732Z,,0,2,,4410.709999964223,response,ISIC_0064095.JPG,9,ISIC_0029575.JPG,ISIC_0064095.JPG,false,1,keypress(m),500,407724.3000000119,407724.09999996424,403295.864,403306.59999996424,403313.39,407730.646,8,400,25,,ISIC_0029575.JPG
break,html.Screen,4_74_1,2023-10-30T21:32:31.733Z,,0,,,NaN,,,,,,false,,,,407725.3000000119,407725.09999996424,,407724.59999996424,,407730.646,8,400,,,
break_continue,html.Screen,4_74_2,2023-10-30T21:32:31.733Z,,0,,,NaN,,,,,,false,,,,407725.6999999881,407725.59999996424,,407725.5,,407730.646,8,400,,,
sequence,flow.Sequence,4_74,2023-10-30T21:32:31.733Z,,0,,,4412.209999964223,completion,,,,,false,,,,407725.8000000119,407725.59999996424,403295.864,403306.59999996424,403313.39,407730.646,8,400,,,
trial,html.Screen,4_75_0,2023-10-30T21:32:34.475Z,,0,2,,2736.353999999992,response,ISIC_0056793.JPG,10,ISIC_9161341.JPG,ISIC_9161341.JPG,false,0,keypress(z),500,410467.1999999881,410467,407714.235,407725.89999997616,407730.646,410481.764,8,400,26,,ISIC_0056793.JPG
break,html.Screen,4_75_1,2023-10-30T21:32:34.477Z,,0,,,NaN,,,,,,false,,,,410468.89999997616,410468.5,,410467.89999997616,,410481.764,8,400,,,
break_continue,html.Screen,4_75_2,2023-10-30T21:32:34.477Z,,0,,,NaN,,,,,,false,,,,410469.59999996424,410469.5,,410469.1999999881,,410481.764,8,400,,,
sequence,flow.Sequence,4_75,2023-10-30T21:32:34.478Z,,0,,,2738.853999999992,completion,,,,,false,,,,410469.8000000119,410469.5,407714.235,407725.89999997616,407730.646,410481.764,8,400,,,
trial,html.Screen,4_76_0,2023-10-30T21:32:37.170Z,,0,2,,2680.0360000118962,response,ISIC_4132082.JPG,5,ISIC_6285925.JPG,ISIC_4132082.JPG,false,1,keypress(m),500,413162.09999996424,413161.8000000119,410465.305,410470,410481.764,413165.956,8,400,27,,ISIC_6285925.JPG
break,html.Screen,4_76_1,2023-10-30T21:32:37.170Z,,0,,,NaN,,,,,,false,,,,413162.6999999881,413162.59999996424,,413162.3000000119,,413165.956,8,400,,,
break_continue,html.Screen,4_76_2,2023-10-30T21:32:37.171Z,,0,,,NaN,,,,,,false,,,,413162.89999997616,413162.8000000119,,413162.6999999881,,413165.956,8,400,,,
sequence,flow.Sequence,4_76,2023-10-30T21:32:37.171Z,,0,,,2681.0360000118962,completion,,,,,false,,,,413162.89999997616,413162.8000000119,410465.305,410470,410481.764,413165.956,8,400,,,
trial,html.Screen,4_77_0,2023-10-30T21:32:41.096Z,,0,2,,3921.7439999880735,response,ISIC_0026559.JPG,6,ISIC_0027941.JPG,ISIC_0027941.JPG,false,0,keypress(z),500,417087.89999997616,417087.6999999881,413149.453,413163,413165.956,417100.825,8,400,28,,ISIC_0026559.JPG
break,html.Screen,4_77_1,2023-10-30T21:32:41.097Z,,0,,,NaN,,,,,,false,,,,417089,417088.8000000119,,417088.1999999881,,417100.825,8,400,,,
break_continue,html.Screen,4_77_2,2023-10-30T21:32:41.097Z,,0,,,NaN,,,,,,false,,,,417089.3000000119,417089.1999999881,,417089.09999996424,,417100.825,8,400,,,
sequence,flow.Sequence,4_77,2023-10-30T21:32:41.097Z,,0,,,3923.2439999880735,completion,,,,,false,,,,417089.5,417089.1999999881,413149.453,413163,413165.956,417100.825,8,400,,,
trial,html.Screen,4_78_0,2023-10-30T21:32:44.606Z,,0,2,,3496.5749999761465,response,ISIC_0015206.JPG,10,ISIC_0061580.JPG,ISIC_0015206.JPG,false,1,keypress(m),500,420597.6999999881,420597.39999997616,417084.139,417089.5,417100.825,420602.177,8,400,29,,ISIC_0061580.JPG
break,html.Screen,4_78_1,2023-10-30T21:32:44.607Z,,0,,,NaN,,,,,,false,,,,420598.8000000119,420598.39999997616,,420597.89999997616,,420602.177,8,400,,,
break_continue,html.Screen,4_78_2,2023-10-30T21:32:44.607Z,,0,,,NaN,,,,,,false,,,,420599.09999996424,420599,,420598.89999997616,,420602.177,8,400,,,
sequence,flow.Sequence,4_78,2023-10-30T21:32:44.607Z,,0,,,3498.1749999999884,completion,,,,,false,,,,420599.1999999881,420599,417084.139,417089.5,417100.825,420602.177,8,400,,,
trial,html.Screen,4_79_0,2023-10-30T21:32:47.491Z,,0,2,,2880.722999976133,response,ISIC_0027502.JPG,10,ISIC_9538004.JPG,ISIC_9538004.JPG,false,0,keypress(z),500,423483.1999999881,423482.89999997616,420585.904,420599.3000000119,420602.177,423486.622,8,400,30,,ISIC_0027502.JPG
break,html.Screen,4_79_1,2023-10-30T21:32:47.492Z,,0,,,NaN,,,,,,false,,,,423484.3000000119,423484.09999996424,,423483.5,,423486.622,8,400,,,
break_continue,html.Screen,4_79_2,2023-10-30T21:32:47.492Z,,0,,,NaN,,,,,,false,,,,423484.6999999881,423484.59999996424,,423484.39999997616,,423486.622,8,400,,,
sequence,flow.Sequence,4_79,2023-10-30T21:32:47.493Z,,0,,,2882.422999964212,completion,,,,,false,,,,423484.8000000119,423484.59999996424,420585.904,420599.3000000119,420602.177,423486.622,8,400,,,
trial,html.Screen,4_80_0,2023-10-30T21:32:50.493Z,,0,2,,2998.678000011947,response,ISIC_0030769.JPG,12,ISIC_3212781.JPG,ISIC_0030769.JPG,false,1,keypress(m),500,426485.5,426485.3000000119,423470.236,423485,423486.622,426487.75,8,400,31,,ISIC_3212781.JPG
break,html.Screen,4_80_1,2023-10-30T21:32:50.494Z,,0,,,NaN,,,,,,false,,,,426486.5,426486.3000000119,,426485.8000000119,,426487.75,8,400,,,
break_continue,html.Screen,4_80_2,2023-10-30T21:32:50.495Z,,0,,,NaN,,,,,,false,,,,426486.8000000119,426486.59999996424,,426486.5,,426487.75,8,400,,,
sequence,flow.Sequence,4_80,2023-10-30T21:32:50.495Z,,0,,,2999.9779999642633,completion,,,,,false,,,,426486.89999997616,426486.59999996424,423470.236,423484.89999997616,423486.622,426487.75,8,400,,,
trial,html.Screen,4_81_0,2023-10-30T21:32:53.685Z,,0,2,,3188.849999964237,response,ISIC_0013861.JPG,10,ISIC_0011210.JPG,ISIC_0011210.JPG,false,0,keypress(z),500,429676.8000000119,429676.59999996424,426471.033,426486.89999997616,426487.75,429688.959,8,400,32,,ISIC_0013861.JPG
break,html.Screen,4_81_1,2023-10-30T21:32:53.686Z,,0,,,NaN,,,,,,false,,,,429677.8000000119,429677.5,,429677,,429688.959,8,400,,,
break_continue,html.Screen,4_81_2,2023-10-30T21:32:53.686Z,,0,,,NaN,,,,,,false,,,,429678.09999996424,429678,,429677.89999997616,,429688.959,8,400,,,
sequence,flow.Sequence,4_81,2023-10-30T21:32:53.686Z,,0,,,3190.25,completion,,,,,false,,,,429678.1999999881,429678,426471.033,426486.89999997616,426487.75,429688.959,8,400,,,
trial,html.Screen,4_82_0,2023-10-30T21:32:57.816Z,,0,2,,4119.140999964264,response,ISIC_0032586.JPG,6,ISIC_8690205.JPG,ISIC_8690205.JPG,false,0,keypress(z),500,433808.3000000119,433808.09999996424,429672.588,429678.3000000119,429688.959,433824.154,8,400,33,,ISIC_0032586.JPG
break,html.Screen,4_82_1,2023-10-30T21:32:57.817Z,,0,,,NaN,,,,,,false,,,,433808.89999997616,433808.8000000119,,433808.5,,433824.154,8,400,,,
break_continue,html.Screen,4_82_2,2023-10-30T21:32:57.817Z,,0,,,NaN,,,,,,false,,,,433809.5,433809.5,,433809.39999997616,,433824.154,8,400,,,
sequence,flow.Sequence,4_82,2023-10-30T21:32:57.818Z,,0,,,4120.5410000000265,completion,,,,,false,,,,433809.8000000119,433809.5,429672.588,429678.3000000119,429688.959,433824.154,8,400,,,
trial,html.Screen,4_83_0,2023-10-30T21:33:02.975Z,,0,2,,5143.245999976178,response,ISIC_0016080.JPG,7,ISIC_0234248.JPG,ISIC_0016080.JPG,false,1,keypress(m),500,438967.59999996424,438967.39999997616,433807.209,433809.8000000119,433824.154,438975.824,8,400,34,,ISIC_0234248.JPG
break,html.Screen,4_83_1,2023-10-30T21:33:02.976Z,,0,,,NaN,,,,,,false,,,,438968.59999996424,438968.39999997616,,438967.89999997616,,438975.824,8,400,,,
break_continue,html.Screen,4_83_2,2023-10-30T21:33:02.977Z,,0,,,NaN,,,,,,false,,,,438968.89999997616,438968.8000000119,,438968.6999999881,,438975.824,8,400,,,
sequence,flow.Sequence,4_83,2023-10-30T21:33:02.977Z,,0,,,5144.6460000119405,completion,,,,,false,,,,438969.09999996424,438968.8000000119,433807.209,433809.8000000119,433824.154,438975.824,8,400,,,
trial,html.Screen,4_84_0,2023-10-30T21:33:05.973Z,,0,2,,2989.075999976136,response,ISIC_4836699.JPG,12,ISIC_0031213.JPG,ISIC_0031213.JPG,false,0,keypress(z),500,441965.1999999881,441964.89999997616,438959.516,438969.1999999881,438975.824,441976.975,8,400,35,,ISIC_4836699.JPG
break,html.Screen,4_84_1,2023-10-30T21:33:05.974Z,,0,,,NaN,,,,,,false,,,,441966.1999999881,441965.89999997616,,441965.3000000119,,441976.975,8,400,,,
break_continue,html.Screen,4_84_2,2023-10-30T21:33:05.974Z,,0,,,NaN,,,,,,false,,,,441966.39999997616,441966.3000000119,,441966.1999999881,,441976.975,8,400,,,
sequence,flow.Sequence,4_84,2023-10-30T21:33:05.974Z,,0,,,2990.4760000118986,completion,,,,,false,,,,441966.59999996424,441966.3000000119,438959.516,438969.1999999881,438975.824,441976.975,8,400,,,
trial,html.Screen,4_85_0,2023-10-30T21:33:09.371Z,,0,2,,3385.5250000000233,response,ISIC_0065283.JPG,5,ISIC_0011799.JPG,ISIC_0011799.JPG,false,0,keypress(z),500,445362.8000000119,445362.5,441960.536,441966.6999999881,441976.975,445378.297,8,400,36,,ISIC_0065283.JPG
break,html.Screen,4_85_1,2023-10-30T21:33:09.371Z,,0,,,NaN,,,,,,false,,,,445363.6999999881,445363.39999997616,,445362.89999997616,,445378.297,8,400,,,
break_continue,html.Screen,4_85_2,2023-10-30T21:33:09.372Z,,0,,,NaN,,,,,,false,,,,445364,445363.89999997616,,445363.8000000119,,445378.297,8,400,,,
sequence,flow.Sequence,4_85,2023-10-30T21:33:09.372Z,,0,,,3386.9249999761814,completion,,,,,false,,,,445364.1999999881,445363.89999997616,441960.536,441966.6999999881,441976.975,445378.297,8,400,,,
trial,html.Screen,4_86_0,2023-10-30T21:33:12.367Z,,0,2,,2980.8029999642167,response,ISIC_0490442.JPG,12,ISIC_0068576.JPG,ISIC_0490442.JPG,false,1,keypress(m),500,448359.3000000119,448359.09999996424,445361.767,445364.1999999881,445378.297,448362.811,8,400,37,,ISIC_0068576.JPG
break,html.Screen,4_86_1,2023-10-30T21:33:12.368Z,,0,,,NaN,,,,,,false,,,,448360,448359.8000000119,,448359.59999996424,,448362.811,8,400,,,
break_continue,html.Screen,4_86_2,2023-10-30T21:33:12.368Z,,0,,,NaN,,,,,,false,,,,448360.59999996424,448360.3000000119,,448360.3000000119,,448362.811,8,400,,,
sequence,flow.Sequence,4_86,2023-10-30T21:33:12.369Z,,0,,,2982.0030000119004,completion,,,,,false,,,,448360.8000000119,448360.3000000119,445361.767,445364.1999999881,445378.297,448362.811,8,400,,,
trial,html.Screen,4_87_0,2023-10-30T21:33:15.224Z,,0,2,,2853.489000011934,response,ISIC_0011158.JPG,6,ISIC_8584239.JPG,ISIC_8584239.JPG,false,0,keypress(z),500,451216.59999996424,451216.3000000119,448346.338,448361,448362.811,451230.727,8,400,38,,ISIC_0011158.JPG
break,html.Screen,4_87_1,2023-10-30T21:33:15.225Z,,0,,,NaN,,,,,,false,,,,451217.59999996424,451217.39999997616,,451216.89999997616,,451230.727,8,400,,,
break_continue,html.Screen,4_87_2,2023-10-30T21:33:15.226Z,,0,,,NaN,,,,,,false,,,,451217.89999997616,451217.8000000119,,451217.6999999881,,451230.727,8,400,,,
sequence,flow.Sequence,4_87,2023-10-30T21:33:15.226Z,,0,,,2854.989000011934,completion,,,,,false,,,,451218.09999996424,451217.8000000119,448346.338,448360.89999997616,448362.811,451230.727,8,400,,,
trial,html.Screen,4_88_0,2023-10-30T21:33:19.325Z,,0,2,,4085.9729999880656,response,ISIC_0004015.JPG,12,ISIC_7492530.JPG,ISIC_0004015.JPG,false,1,keypress(m),500,455317,455316.6999999881,451214.15,451218.1999999881,451230.727,455349.133,8,400,39,,ISIC_7492530.JPG
break,html.Screen,4_88_1,2023-10-30T21:33:19.326Z,,0,,,NaN,,,,,,false,,,,455317.8000000119,455317.59999996424,,455317.1999999881,,455349.133,8,400,,,
break_continue,html.Screen,4_88_2,2023-10-30T21:33:19.326Z,,0,,,NaN,,,,,,false,,,,455318.3000000119,455318.09999996424,,455318.09999996424,,455349.133,8,400,,,
sequence,flow.Sequence,4_88,2023-10-30T21:33:19.326Z,,0,,,4087.3729999642237,completion,,,,,false,,,,455318.5,455318.09999996424,451214.15,451218.09999996424,451230.727,455349.133,8,400,,,
trial,html.Screen,4_89_0,2023-10-30T21:33:22.615Z,,0,2,,3257.5669999881065,response,ISIC_2412888.JPG,11,ISIC_0056466.JPG,ISIC_2412888.JPG,false,1,keypress(m),500,458606.89999997616,458606.6999999881,455332.264,455318.59999996424,455349.133,458616.853,8,400,40,,ISIC_0056466.JPG
break,html.Screen,4_89_1,2023-10-30T21:33:22.616Z,,0,,,NaN,,,,,,false,,,,458607.89999997616,458607.59999996424,,458607.09999996424,,458616.853,8,400,,,
break_continue,html.Screen,4_89_2,2023-10-30T21:33:22.616Z,,0,,,NaN,,,,,,false,,,,458608.1999999881,458608.1999999881,,458608.09999996424,,458616.853,8,400,,,
sequence,flow.Sequence,4_89,2023-10-30T21:33:22.616Z,,0,,,3259.0669999881065,completion,,,,,false,,,,458608.39999997616,458608.1999999881,455332.264,455318.59999996424,455349.133,458616.853,8,400,,,
trial,html.Screen,4_90_0,2023-10-30T21:33:25.851Z,,0,2,,3225.7469999642344,response,ISIC_1632313.JPG,10,ISIC_0028723.JPG,ISIC_0028723.JPG,false,0,keypress(z),500,461842.89999997616,461842.59999996424,458599.986,458608.5,458616.853,461851.248,8,400,41,,ISIC_1632313.JPG
break,html.Screen,4_90_1,2023-10-30T21:33:25.852Z,,0,,,NaN,,,,,,false,,,,461843.8000000119,461843.59999996424,,461843.09999996424,,461851.248,8,400,,,
break_continue,html.Screen,4_90_2,2023-10-30T21:33:25.852Z,,0,,,NaN,,,,,,false,,,,461844.1999999881,461844,,461844,,461851.248,8,400,,,
sequence,flow.Sequence,4_90,2023-10-30T21:33:25.852Z,,0,,,3227.146999999997,completion,,,,,false,,,,461844.3000000119,461844,458599.986,458608.39999997616,458616.853,461851.248,8,400,,,
trial,html.Screen,4_91_0,2023-10-30T21:33:30.449Z,,0,2,,4589.151999976137,response,ISIC_7489564.JPG,4,ISIC_0054329.JPG,ISIC_0054329.JPG,false,0,keypress(z),500,466440.8000000119,466440.39999997616,461834.907,461844.39999997616,461851.248,466452.961,8,400,42,,ISIC_7489564.JPG
break,html.Screen,4_91_1,2023-10-30T21:33:30.450Z,,0,,,NaN,,,,,,false,,,,466442,466441.8000000119,,466441.1999999881,,466452.961,8,400,,,
break_continue,html.Screen,4_91_2,2023-10-30T21:33:30.450Z,,0,,,NaN,,,,,,false,,,,466442.1999999881,466442.1999999881,,466442.09999996424,,466452.961,8,400,,,
sequence,flow.Sequence,4_91,2023-10-30T21:33:30.450Z,,0,,,4590.951999988058,completion,,,,,false,,,,466442.5,466442.1999999881,461834.907,461844.39999997616,461851.248,466452.961,8,400,,,
trial,html.Screen,4_92_0,2023-10-30T21:33:33.532Z,,0,2,,3070.738999988069,response,ISIC_0011506.JPG,8,ISIC_7253401.JPG,ISIC_7253401.JPG,false,0,keypress(z),500,469524.09999996424,469523.6999999881,466436.649,466442.5,466452.961,469537.558,8,400,43,,ISIC_0011506.JPG
break,html.Screen,4_92_1,2023-10-30T21:33:33.533Z,,0,,,NaN,,,,,,false,,,,469525.09999996424,469524.89999997616,,469524.39999997616,,469537.558,8,400,,,
break_continue,html.Screen,4_92_2,2023-10-30T21:33:33.533Z,,0,,,NaN,,,,,,false,,,,469525.39999997616,469525.3000000119,,469525.1999999881,,469537.558,8,400,,,
sequence,flow.Sequence,4_92,2023-10-30T21:33:33.533Z,,0,,,3072.3390000119107,completion,,,,,false,,,,469525.5,469525.3000000119,466436.649,466442.5,466452.961,469537.558,8,400,,,
trial,html.Screen,4_93_0,2023-10-30T21:33:38.534Z,,0,2,,4988.841999976139,response,ISIC_0055742.JPG,8,ISIC_5156491.JPG,ISIC_0055742.JPG,false,1,keypress(m),500,474526.59999996424,474526.39999997616,469521.047,469525.59999996424,469537.558,474539.434,8,400,44,,ISIC_5156491.JPG
break,html.Screen,4_93_1,2023-10-30T21:33:38.535Z,,0,,,NaN,,,,,,false,,,,474527.59999996424,474527.3000000119,,474526.8000000119,,474539.434,8,400,,,
break_continue,html.Screen,4_93_2,2023-10-30T21:33:38.536Z,,0,,,NaN,,,,,,false,,,,474527.89999997616,474527.8000000119,,474527.6999999881,,474539.434,8,400,,,
sequence,flow.Sequence,4_93,2023-10-30T21:33:38.536Z,,0,,,4990.242000011902,completion,,,,,false,,,,474528,474527.8000000119,469521.047,469525.59999996424,469537.558,474539.434,8,400,,,
trial,html.Screen,4_94_0,2023-10-30T21:33:41.356Z,,0,2,,2808.8660000119125,response,ISIC_0030818.JPG,11,ISIC_6785680.JPG,ISIC_0030818.JPG,false,1,keypress(m),500,477348.59999996424,477348.3000000119,474523.044,474528.09999996424,474539.434,477357.175,8,400,45,,ISIC_6785680.JPG
break,html.Screen,4_94_1,2023-10-30T21:33:41.357Z,,0,,,NaN,,,,,,false,,,,477349.3000000119,477349.1999999881,,477348.8000000119,,477357.175,8,400,,,
break_continue,html.Screen,4_94_2,2023-10-30T21:33:41.357Z,,0,,,NaN,,,,,,false,,,,477349.59999996424,477349.5,,477349.39999997616,,477357.175,8,400,,,
sequence,flow.Sequence,4_94,2023-10-30T21:33:41.357Z,,0,,,2810.0659999999916,completion,,,,,false,,,,477349.59999996424,477349.5,474523.044,474528.09999996424,474539.434,477357.175,8,400,,,
trial,html.Screen,4_95_0,2023-10-30T21:33:45.235Z,,0,2,,3870.5249999880907,response,ISIC_0911448.JPG,7,ISIC_0071806.JPG,ISIC_0071806.JPG,false,0,keypress(z),500,481228,481227.6999999881,477340.717,477349.6999999881,477357.175,481242.227,8,400,46,,ISIC_0911448.JPG
break,html.Screen,4_95_1,2023-10-30T21:33:45.237Z,,0,,,NaN,,,,,,false,,,,481229.09999996424,481228.89999997616,,481228.1999999881,,481242.227,8,400,,,
break_continue,html.Screen,4_95_2,2023-10-30T21:33:45.237Z,,0,,,NaN,,,,,,false,,,,481229.59999996424,481229.5,,481229.39999997616,,481242.227,8,400,,,
sequence,flow.Sequence,4_95,2023-10-30T21:33:45.237Z,,0,,,3872.3250000000116,completion,,,,,false,,,,481229.8000000119,481229.5,477340.717,477349.6999999881,477357.175,481242.227,8,400,,,
trial,html.Screen,4_96_0,2023-10-30T21:33:48.477Z,,0,2,,3227.3729999642237,response,ISIC_0011747.JPG,10,ISIC_5309814.JPG,ISIC_5309814.JPG,false,0,keypress(z),500,484469.89999997616,484469.59999996424,481225.605,481229.89999997616,481242.227,484493.411,8,400,47,,ISIC_0011747.JPG
break,html.Screen,4_96_1,2023-10-30T21:33:48.478Z,,0,,,NaN,,,,,,false,,,,484470.59999996424,484470.39999997616,,484470.09999996424,,484493.411,8,400,,,
break_continue,html.Screen,4_96_2,2023-10-30T21:33:48.478Z,,0,,,NaN,,,,,,false,,,,484470.89999997616,484470.8000000119,,484470.6999999881,,484493.411,8,400,,,
sequence,flow.Sequence,4_96,2023-10-30T21:33:48.478Z,,0,,,3228.5730000119074,completion,,,,,false,,,,484471,484470.8000000119,481225.605,481229.8000000119,481242.227,484493.411,8,400,,,
trial,html.Screen,4_97_0,2023-10-30T21:33:51.893Z,,0,2,,3391.288999988057,response,ISIC_0031575.JPG,6,ISIC_8154363.JPG,ISIC_0031575.JPG,false,1,keypress(m),500,487885.09999996424,487884.6999999881,484476.811,484471.09999996424,484493.411,487894.722,8,400,48,,ISIC_8154363.JPG
break,html.Screen,4_97_1,2023-10-30T21:33:51.894Z,,0,,,NaN,,,,,,false,,,,487886.09999996424,487885.8000000119,,487885.3000000119,,487894.722,8,400,,,
break_continue,html.Screen,4_97_2,2023-10-30T21:33:51.894Z,,0,,,NaN,,,,,,false,,,,487886.5,487886.39999997616,,487886.1999999881,,487894.722,8,400,,,
sequence,flow.Sequence,4_97,2023-10-30T21:33:51.894Z,,0,,,3392.9889999761363,completion,,,,,false,,,,487886.59999996424,487886.39999997616,484476.811,484471.09999996424,484493.411,487894.722,8,400,,,
trial,html.Screen,4_98_0,2023-10-30T21:33:54.830Z,,0,2,,2927.47799998807,response,ISIC_0055361.JPG,7,ISIC_6326803.JPG,ISIC_6326803.JPG,false,0,keypress(z),500,490822.6999999881,490822.1999999881,487878.182,487886.8000000119,487894.722,490828.867,8,400,49,,ISIC_0055361.JPG
break,html.Screen,4_98_1,2023-10-30T21:33:54.831Z,,0,,,NaN,,,,,,false,,,,490823.8000000119,490823.59999996424,,490823.09999996424,,490828.867,8,400,,,
break_continue,html.Screen,4_98_2,2023-10-30T21:33:54.832Z,,0,,,NaN,,,,,,false,,,,490824.3000000119,490824.09999996424,,490824.09999996424,,490828.867,8,400,,,
sequence,flow.Sequence,4_98,2023-10-30T21:33:54.832Z,,0,,,2929.3779999642284,completion,,,,,false,,,,490824.59999996424,490824.09999996424,487878.182,487886.6999999881,487894.722,490828.867,8,400,,,
trial,html.Screen,4_99_0,2023-10-30T21:33:58.074Z,,0,2,,3237.3329999880516,response,ISIC_9206499.JPG,5,ISIC_0011943.JPG,ISIC_9206499.JPG,false,1,keypress(m),500,494066.5,494066.1999999881,490812.36,490824.6999999881,490828.867,494080.441,8,400,50,,ISIC_0011943.JPG
break,html.Screen,4_99_1,2023-10-30T21:34:08.076Z,,0,,,10003.765000000014,timeout,,,,,false,,,,504068.1999999881,504067.434,494063.645,494066.59999996424,494080.441,504084.206,8,400,,,
break_continue,html.Screen,4_99_2,2023-10-30T21:34:09.271Z,,0,,,1151.2939999999944,response,,,,,false,continue,keypress(Space),,505263.5,505235.5,504067.434,504068.59999996424,504084.206,505267.743,8,400,,,
sequence,flow.Sequence,4_99,2023-10-30T21:34:09.271Z,,0,,,14406.632999999973,completion,,,,,false,,,,505263.6999999881,505235.5,490812.36,490824.6999999881,490828.867,505267.743,8,400,,,
trial,html.Screen,4_100_0,2023-10-30T21:34:13.134Z,,0,3,,3858.6569999761414,response,ISIC_0071966.JPG,8,ISIC_0000291.JPG,ISIC_0000291.JPG,false,0,keypress(z),500,509126.59999996424,509126.39999997616,505251.479,505263.89999997616,505267.743,509135.93,8,400,1,,ISIC_0071966.JPG
break,html.Screen,4_100_1,2023-10-30T21:34:13.135Z,,0,,,NaN,,,,,,false,,,,509127.6999999881,509127.39999997616,,509126.89999997616,,509135.93,8,400,,,
break_continue,html.Screen,4_100_2,2023-10-30T21:34:13.135Z,,0,,,NaN,,,,,,false,,,,509128,509127.89999997616,,509127.8000000119,,509135.93,8,400,,,
sequence,flow.Sequence,4_100,2023-10-30T21:34:13.136Z,,0,,,3860.1569999761414,completion,,,,,false,,,,509128.09999996424,509127.89999997616,505251.479,505263.8000000119,505267.743,509135.93,8,400,,,
trial,html.Screen,4_101_0,2023-10-30T21:34:15.300Z,,0,3,,2156.269999988086,response,ISIC_6227397.JPG,10,ISIC_0028291.JPG,ISIC_0028291.JPG,false,0,keypress(z),500,511292.39999997616,511292.1999999881,509119.541,509128.3000000119,509135.93,511303.389,8,400,2,,ISIC_6227397.JPG
break,html.Screen,4_101_1,2023-10-30T21:34:15.301Z,,0,,,NaN,,,,,,false,,,,511293.39999997616,511293.09999996424,,511292.59999996424,,511303.389,8,400,,,
break_continue,html.Screen,4_101_2,2023-10-30T21:34:15.301Z,,0,,,NaN,,,,,,false,,,,511293.6999999881,511293.59999996424,,511293.5,,511303.389,8,400,,,
sequence,flow.Sequence,4_101,2023-10-30T21:34:15.301Z,,0,,,2157.669999964244,completion,,,,,false,,,,511293.8000000119,511293.59999996424,509119.541,509128.1999999881,509135.93,511303.389,8,400,,,
trial,html.Screen,4_102_0,2023-10-30T21:34:19.434Z,,0,3,,4122.810999988054,response,ISIC_2739449.JPG,8,ISIC_7131689.JPG,ISIC_7131689.JPG,false,0,keypress(z),500,515426.5,515426.1999999881,511286.786,511294,511303.389,515438.281,8,400,3,,ISIC_2739449.JPG
break,html.Screen,4_102_1,2023-10-30T21:34:19.435Z,,0,,,NaN,,,,,,false,,,,515427.3000000119,515427.09999996424,,515426.59999996424,,515438.281,8,400,,,
break_continue,html.Screen,4_102_2,2023-10-30T21:34:19.435Z,,0,,,NaN,,,,,,false,,,,515427.59999996424,515427.59999996424,,515427.39999997616,,515438.281,8,400,,,
sequence,flow.Sequence,4_102,2023-10-30T21:34:19.435Z,,0,,,4124.2109999642125,completion,,,,,false,,,,515427.6999999881,515427.59999996424,511286.786,511293.89999997616,511303.389,515438.281,8,400,,,
trial,html.Screen,4_103_0,2023-10-30T21:34:23.903Z,,0,3,,4456.918999988062,response,ISIC_0033399.JPG,9,ISIC_7145788.JPG,ISIC_7145788.JPG,false,0,keypress(z),500,519895.5,519895.1999999881,515422.003,515427.89999997616,515438.281,519906.658,8,400,4,,ISIC_0033399.JPG
break,html.Screen,4_103_1,2023-10-30T21:34:23.904Z,,0,,,NaN,,,,,,false,,,,519896.59999996424,519896.1999999881,,519895.6999999881,,519906.658,8,400,,,
break_continue,html.Screen,4_103_2,2023-10-30T21:34:23.904Z,,0,,,NaN,,,,,,false,,,,519896.89999997616,519896.6999999881,,519896.6999999881,,519906.658,8,400,,,
sequence,flow.Sequence,4_103,2023-10-30T21:34:23.904Z,,0,,,4458.418999988062,completion,,,,,false,,,,519897,519896.6999999881,515422.003,515427.8000000119,515438.281,519906.658,8,400,,,
trial,html.Screen,4_104_0,2023-10-30T21:34:26.835Z,,0,3,,2920.642000011925,response,ISIC_0068525.JPG,10,ISIC_0058024.JPG,ISIC_0068525.JPG,false,1,keypress(m),500,522827.5,522827.3000000119,519890.097,519897.09999996424,519906.658,522841.109,8,400,5,,ISIC_0058024.JPG
break,html.Screen,4_104_1,2023-10-30T21:34:26.836Z,,0,,,NaN,,,,,,false,,,,522828.5,522828.1999999881,,522827.6999999881,,522841.109,8,400,,,
break_continue,html.Screen,4_104_2,2023-10-30T21:34:26.836Z,,0,,,NaN,,,,,,false,,,,522828.6999999881,522828.6999999881,,522828.5,,522841.109,8,400,,,
sequence,flow.Sequence,4_104,2023-10-30T21:34:26.836Z,,0,,,2922.0419999880833,completion,,,,,false,,,,522828.8000000119,522828.6999999881,519890.097,519897.09999996424,519906.658,522841.109,8,400,,,
trial,html.Screen,4_105_0,2023-10-30T21:34:30.359Z,,0,3,,3510.5909999880823,response,ISIC_0473135.JPG,7,ISIC_0011333.JPG,ISIC_0473135.JPG,false,1,keypress(m),500,526352,526351.6999999881,522824.639,522828.89999997616,522841.109,526359.126,8,400,6,,ISIC_0011333.JPG
break,html.Screen,4_105_1,2023-10-30T21:34:30.360Z,,0,,,NaN,,,,,,false,,,,526352.8999999762,526352.5999999642,,526352.1999999881,,526359.126,8,400,,,
break_continue,html.Screen,4_105_2,2023-10-30T21:34:30.361Z,,0,,,NaN,,,,,,false,,,,526353.3000000119,526353.1999999881,,526353,,526359.126,8,400,,,
sequence,flow.Sequence,4_105,2023-10-30T21:34:30.361Z,,0,,,3512.0909999880823,completion,,,,,false,,,,526353.3999999762,526353.1999999881,522824.639,522828.89999997616,522841.109,526359.126,8,400,,,
trial,html.Screen,4_106_0,2023-10-30T21:34:34.043Z,,0,3,,3675.6740000118734,response,ISIC_0026746.JPG,5,ISIC_0069411.JPG,ISIC_0026746.JPG,false,1,keypress(m),500,530035.0999999642,530034.8000000119,526342.765,526353.5,526359.126,530044.046,8,400,7,,ISIC_0069411.JPG
break,html.Screen,4_106_1,2023-10-30T21:34:34.044Z,,0,,,NaN,,,,,,false,,,,530036.0999999642,530036,,530035.3000000119,,530044.046,8,400,,,
break_continue,html.Screen,4_106_2,2023-10-30T21:34:34.044Z,,0,,,NaN,,,,,,false,,,,530036.5,530036.3999999762,,530036.3000000119,,530044.046,8,400,,,
sequence,flow.Sequence,4_106,2023-10-30T21:34:34.044Z,,0,,,3677.2739999761106,completion,,,,,false,,,,530036.5999999642,530036.3999999762,526342.765,526353.5,526359.126,530044.046,8,400,,,
trial,html.Screen,4_107_0,2023-10-30T21:34:37.118Z,,0,3,,3065.853999976185,response,ISIC_0055143.JPG,9,ISIC_1197584.JPG,ISIC_0055143.JPG,false,1,keypress(m),500,533110.0999999642,533109.8999999762,530027.421,530036.6999999881,530044.046,533134.168,8,400,8,,ISIC_1197584.JPG
break,html.Screen,4_107_1,2023-10-30T21:34:37.119Z,,0,,,NaN,,,,,,false,,,,533111.0999999642,533110.8999999762,,533110.3999999762,,533134.168,8,400,,,
break_continue,html.Screen,4_107_2,2023-10-30T21:34:37.119Z,,0,,,NaN,,,,,,false,,,,533111.5,533111.3000000119,,533111.3000000119,,533134.168,8,400,,,
sequence,flow.Sequence,4_107,2023-10-30T21:34:37.119Z,,0,,,3067.254000011948,completion,,,,,false,,,,533111.5999999642,533111.3000000119,530027.421,530036.6999999881,530044.046,533134.168,8,400,,,
trial,html.Screen,4_108_0,2023-10-30T21:34:40.950Z,,0,3,,3808.132000011974,response,ISIC_4867043.JPG,6,ISIC_2797576.JPG,ISIC_4867043.JPG,false,1,keypress(m),500,536942.5,536942.3000000119,533095.331,533111.8999999762,533134.168,536946.512,8,400,9,,ISIC_2797576.JPG
break,html.Screen,4_108_1,2023-10-30T21:34:40.951Z,,0,,,NaN,,,,,,false,,,,536943.3999999762,536943.1999999881,,536942.6999999881,,536946.512,8,400,,,
break_continue,html.Screen,4_108_2,2023-10-30T21:34:40.951Z,,0,,,NaN,,,,,,false,,,,536943.6999999881,536943.5999999642,,536943.5,,536946.512,8,400,,,
sequence,flow.Sequence,4_108,2023-10-30T21:34:40.951Z,,0,,,3809.4319999642903,completion,,,,,false,,,,536943.8000000119,536943.5999999642,533095.331,533111.8999999762,533134.168,536946.512,8,400,,,
trial,html.Screen,4_109_0,2023-10-30T21:34:45.306Z,,0,3,,4351.88799997617,response,ISIC_3222447.JPG,11,ISIC_0293086.JPG,ISIC_3222447.JPG,false,1,keypress(m),500,541298.6999999881,541298.3999999762,536930.157,536944,536946.512,541314.974,8,400,10,,ISIC_0293086.JPG
break,html.Screen,4_109_1,2023-10-30T21:34:45.307Z,,0,,,NaN,,,,,,false,,,,541299.5,541299.3000000119,,541298.8000000119,,541314.974,8,400,,,
break_continue,html.Screen,4_109_2,2023-10-30T21:34:45.307Z,,0,,,NaN,,,,,,false,,,,541299.8000000119,541299.6999999881,,541299.6999999881,,541314.974,8,400,,,
sequence,flow.Sequence,4_109,2023-10-30T21:34:45.307Z,,0,,,4353.187999988091,completion,,,,,false,,,,541299.8999999762,541299.6999999881,536930.157,536944,536946.512,541314.974,8,400,,,
trial,html.Screen,4_110_0,2023-10-30T21:34:50.979Z,,0,3,,5655.9259999761125,response,ISIC_0055727.JPG,8,ISIC_0012260.JPG,ISIC_0012260.JPG,false,0,keypress(z),500,546971.0999999642,546970.8999999762,541298.401,541300.0999999642,541314.974,547000.349,8,400,11,,ISIC_0055727.JPG
break,html.Screen,4_110_1,2023-10-30T21:34:50.979Z,,0,,,NaN,,,,,,false,,,,546972,546971.8000000119,,546971.3000000119,,547000.349,8,400,,,
break_continue,html.Screen,4_110_2,2023-10-30T21:34:50.980Z,,0,,,NaN,,,,,,false,,,,546972.3000000119,546972.3000000119,,546972.1999999881,,547000.349,8,400,,,
sequence,flow.Sequence,4_110,2023-10-30T21:34:50.980Z,,0,,,5657.326000011875,completion,,,,,false,,,,546972.5,546972.3000000119,541298.401,541300,541314.974,547000.349,8,400,,,
trial,html.Screen,4_111_0,2023-10-30T21:34:54.635Z,,0,3,,3627.0509999761125,response,ISIC_0029318.JPG,11,ISIC_8120622.JPG,ISIC_0029318.JPG,false,1,keypress(m),500,550627.5999999642,550627.3999999762,546983.903,546972.5,547000.349,550635.061,8,400,12,,ISIC_8120622.JPG
break,html.Screen,4_111_1,2023-10-30T21:34:54.636Z,,0,,,NaN,,,,,,false,,,,550628.5999999642,550628.3000000119,,550627.8000000119,,550635.061,8,400,,,
break_continue,html.Screen,4_111_2,2023-10-30T21:34:54.636Z,,0,,,NaN,,,,,,false,,,,550628.8999999762,550628.8000000119,,550628.6999999881,,550635.061,8,400,,,
sequence,flow.Sequence,4_111,2023-10-30T21:34:54.636Z,,0,,,3628.4510000118753,completion,,,,,false,,,,550629,550628.8000000119,546983.903,546972.5,547000.349,550635.061,8,400,,,
trial,html.Screen,4_112_0,2023-10-30T21:34:59.028Z,,0,3,,4385.53899996425,response,ISIC_0056186.JPG,13,ISIC_8301536.JPG,ISIC_0056186.JPG,false,1,keypress(m),500,555020.8999999762,555020.5999999642,550618.649,550629.1999999881,550635.061,555036.735,8,400,13,,ISIC_8301536.JPG
break,html.Screen,4_112_1,2023-10-30T21:34:59.029Z,,0,,,NaN,,,,,,false,,,,555021.8000000119,555021.5999999642,,555021.0999999642,,555036.735,8,400,,,
break_continue,html.Screen,4_112_2,2023-10-30T21:34:59.030Z,,0,,,NaN,,,,,,false,,,,555022.1999999881,555022.0999999642,,555022,,555036.735,8,400,,,
sequence,flow.Sequence,4_112,2023-10-30T21:34:59.030Z,,0,,,4387.03899996425,completion,,,,,false,,,,555022.3000000119,555022.0999999642,550618.649,550629.0999999642,550635.061,555036.735,8,400,,,
trial,html.Screen,4_113_0,2023-10-30T21:35:02.991Z,,0,3,,3946.864999964251,response,ISIC_5796736.JPG,7,ISIC_1768733.JPG,ISIC_5796736.JPG,false,1,keypress(m),500,558983.8000000119,558983.5999999642,555020.355,555022.3999999762,555036.735,558988.266,8,400,14,,ISIC_1768733.JPG
break,html.Screen,4_113_1,2023-10-30T21:35:02.992Z,,0,,,NaN,,,,,,false,,,,558985,558984.6999999881,,558984.0999999642,,558988.266,8,400,,,
break_continue,html.Screen,4_113_2,2023-10-30T21:35:02.993Z,,0,,,NaN,,,,,,false,,,,558985.3999999762,558985.3000000119,,558985.1999999881,,558988.266,8,400,,,
sequence,flow.Sequence,4_113,2023-10-30T21:35:02.993Z,,0,,,3948.565000011935,completion,,,,,false,,,,558985.6999999881,558985.3000000119,555020.355,555022.3999999762,555036.735,558988.266,8,400,,,
trial,html.Screen,4_114_0,2023-10-30T21:35:06.599Z,,0,3,,3602.833999964292,response,ISIC_0063191.JPG,5,ISIC_8733345.JPG,ISIC_0063191.JPG,false,1,keypress(m),500,562591.5,562591.0999999642,558971.535,558985.8000000119,558988.266,562606.608,8,400,15,,ISIC_8733345.JPG
break,html.Screen,4_114_1,2023-10-30T21:35:06.600Z,,0,,,NaN,,,,,,false,,,,562592.5,562592.1999999881,,562591.6999999881,,562606.608,8,400,,,
break_continue,html.Screen,4_114_2,2023-10-30T21:35:06.600Z,,0,,,NaN,,,,,,false,,,,562592.8999999762,562592.6999999881,,562592.5999999642,,562606.608,8,400,,,
sequence,flow.Sequence,4_114,2023-10-30T21:35:06.600Z,,0,,,3604.433999988134,completion,,,,,false,,,,562593,562592.6999999881,558971.535,558985.8000000119,558988.266,562606.608,8,400,,,
trial,html.Screen,4_115_0,2023-10-30T21:35:10.303Z,,0,3,,3688.6920000119135,response,ISIC_7873541.JPG,8,ISIC_0071532.JPG,ISIC_0071532.JPG,false,0,keypress(z),500,566295.5999999642,566295.3000000119,562589.664,562593.0999999642,562606.608,566307.672,8,400,16,,ISIC_7873541.JPG
break,html.Screen,4_115_1,2023-10-30T21:35:10.304Z,,0,,,NaN,,,,,,false,,,,566296.5,566296.1999999881,,566295.6999999881,,566307.672,8,400,,,
break_continue,html.Screen,4_115_2,2023-10-30T21:35:10.304Z,,0,,,NaN,,,,,,false,,,,566296.8000000119,566296.6999999881,,566296.5999999642,,566307.672,8,400,,,
sequence,flow.Sequence,4_115,2023-10-30T21:35:10.304Z,,0,,,3690.0919999880716,completion,,,,,false,,,,566296.8999999762,566296.6999999881,562589.664,562593,562606.608,566307.672,8,400,,,
trial,html.Screen,4_116_0,2023-10-30T21:35:14.642Z,,0,3,,4327.027999988059,response,ISIC_0065181.JPG,12,ISIC_4035599.JPG,ISIC_4035599.JPG,false,0,keypress(z),500,570635,570634.6999999881,566290.991,566297,566307.672,570642.643,8,400,17,,ISIC_0065181.JPG
break,html.Screen,4_116_1,2023-10-30T21:35:14.643Z,,0,,,NaN,,,,,,false,,,,570636,570635.6999999881,,570635.1999999881,,570642.643,8,400,,,
break_continue,html.Screen,4_116_2,2023-10-30T21:35:14.644Z,,0,,,NaN,,,,,,false,,,,570636.3000000119,570636.1999999881,,570636.0999999642,,570642.643,8,400,,,
sequence,flow.Sequence,4_116,2023-10-30T21:35:14.644Z,,0,,,4328.527999988059,completion,,,,,false,,,,570636.5,570636.1999999881,566290.991,566297,566307.672,570642.643,8,400,,,
trial,html.Screen,4_117_0,2023-10-30T21:35:21.485Z,,0,3,,6834.85699999996,response,ISIC_0072371.JPG,13,ISIC_1663144.JPG,ISIC_1663144.JPG,false,0,keypress(z),500,577477.8000000119,577477.5,570626.206,570636.5999999642,570642.643,577495.573,8,400,18,,ISIC_0072371.JPG
break,html.Screen,4_117_1,2023-10-30T21:35:21.486Z,,0,,,NaN,,,,,,false,,,,577478.5,577478.3000000119,,577478.0999999642,,577495.573,8,400,,,
break_continue,html.Screen,4_117_2,2023-10-30T21:35:21.487Z,,0,,,NaN,,,,,,false,,,,577479.3000000119,577479.1999999881,,577479,,577495.573,8,400,,,
sequence,flow.Sequence,4_117,2023-10-30T21:35:21.487Z,,0,,,6836.556999988039,completion,,,,,false,,,,577479.3999999762,577479.1999999881,570626.206,570636.5999999642,570642.643,577495.573,8,400,,,
trial,html.Screen,4_118_0,2023-10-30T21:35:26.465Z,,0,3,,4961.727000011946,response,ISIC_0024900.JPG,9,ISIC_0014745.JPG,ISIC_0014745.JPG,false,0,keypress(z),500,582457.5,582457.3000000119,577462.296,577479.5,577495.573,582463.918,8,400,19,,ISIC_0024900.JPG
break,html.Screen,4_118_1,2023-10-30T21:35:26.466Z,,0,,,NaN,,,,,,false,,,,582458.3999999762,582458.0999999642,,582457.5999999642,,582463.918,8,400,,,
break_continue,html.Screen,4_118_2,2023-10-30T21:35:26.466Z,,0,,,NaN,,,,,,false,,,,582458.6999999881,582458.5999999642,,582458.5,,582463.918,8,400,,,
sequence,flow.Sequence,4_118,2023-10-30T21:35:26.466Z,,0,,,4963.026999964262,completion,,,,,false,,,,582458.8000000119,582458.5999999642,577462.296,577479.5,577495.573,582463.918,8,400,,,
trial,html.Screen,4_119_0,2023-10-30T21:35:30.934Z,,0,3,,4462.082000000053,response,ISIC_0031561.JPG,6,ISIC_0014186.JPG,ISIC_0031561.JPG,false,1,keypress(m),500,586926.3000000119,586926,582447.388,582458.8999999762,582463.918,586932.595,8,400,20,,ISIC_0014186.JPG
break,html.Screen,4_119_1,2023-10-30T21:35:30.935Z,,0,,,NaN,,,,,,false,,,,586927.3000000119,586926.8999999762,,586926.3999999762,,586932.595,8,400,,,
break_continue,html.Screen,4_119_2,2023-10-30T21:35:30.935Z,,0,,,NaN,,,,,,false,,,,586927.5,586927.5,,586927.3999999762,,586932.595,8,400,,,
sequence,flow.Sequence,4_119,2023-10-30T21:35:30.935Z,,0,,,4463.582000000053,completion,,,,,false,,,,586927.6999999881,586927.5,582447.388,582458.8999999762,582463.918,586932.595,8,400,,,
trial,html.Screen,4_120_0,2023-10-30T21:35:34.137Z,,0,3,,3196.504999964265,response,ISIC_0046977.JPG,7,ISIC_6557642.JPG,ISIC_0046977.JPG,false,1,keypress(m),500,590129.3999999762,590129.0999999642,586915.859,586927.8000000119,586932.595,590133.473,8,400,21,,ISIC_6557642.JPG
break,html.Screen,4_120_1,2023-10-30T21:35:34.138Z,,0,,,NaN,,,,,,false,,,,590130.1999999881,590130,,590129.5,,590133.473,8,400,,,
break_continue,html.Screen,4_120_2,2023-10-30T21:35:34.138Z,,0,,,NaN,,,,,,false,,,,590130.5999999642,590130.5,,590130.3999999762,,590133.473,8,400,,,
sequence,flow.Sequence,4_120,2023-10-30T21:35:34.138Z,,0,,,3197.905000000028,completion,,,,,false,,,,590130.8000000119,590130.5,586915.859,586927.8000000119,586932.595,590133.473,8,400,,,
trial,html.Screen,4_121_0,2023-10-30T21:35:39.283Z,,0,3,,5141.527000000002,response,ISIC_0009903.JPG,5,ISIC_0011972.JPG,ISIC_0011972.JPG,false,0,keypress(z),500,595275.1999999881,595275,590116.934,590131,590133.473,595285.782,8,400,22,,ISIC_0009903.JPG
break,html.Screen,4_121_1,2023-10-30T21:35:39.284Z,,0,,,NaN,,,,,,false,,,,595276.3999999762,595276.0999999642,,595275.5999999642,,595285.782,8,400,,,
break_continue,html.Screen,4_121_2,2023-10-30T21:35:39.284Z,,0,,,NaN,,,,,,false,,,,595276.8999999762,595276.8000000119,,595276.5999999642,,595285.782,8,400,,,
sequence,flow.Sequence,4_121,2023-10-30T21:35:39.284Z,,0,,,5143.327000011923,completion,,,,,false,,,,595277.0999999642,595276.8000000119,590116.934,590130.8999999762,590133.473,595285.782,8,400,,,
trial,html.Screen,4_122_0,2023-10-30T21:35:46.857Z,,0,3,,7564.2179999999935,response,ISIC_0030193.JPG,9,ISIC_0011752.JPG,ISIC_0030193.JPG,false,1,keypress(m),500,602850.3000000119,602850,595268.986,595277.1999999881,595285.782,602854.94,8,400,23,,ISIC_0011752.JPG
break,html.Screen,4_122_1,2023-10-30T21:35:46.858Z,,0,,,NaN,,,,,,false,,,,602851.5,602851.3000000119,,602850.5999999642,,602854.94,8,400,,,
break_continue,html.Screen,4_122_2,2023-10-30T21:35:46.858Z,,0,,,NaN,,,,,,false,,,,602852,602851.6999999881,,602851.6999999881,,602854.94,8,400,,,
sequence,flow.Sequence,4_122,2023-10-30T21:35:46.858Z,,0,,,7565.917999988073,completion,,,,,false,,,,602852.1999999881,602851.6999999881,595268.986,595277.0999999642,595285.782,602854.94,8,400,,,
trial,html.Screen,4_123_0,2023-10-30T21:35:52.898Z,,0,3,,6035.959999976214,response,ISIC_0032204.JPG,11,ISIC_3116288.JPG,ISIC_0032204.JPG,false,1,keypress(m),500,608891.3000000119,608890.8999999762,602838.591,602852.3999999762,602854.94,608907.285,8,400,24,,ISIC_3116288.JPG
break,html.Screen,4_123_1,2023-10-30T21:35:52.898Z,,0,,,NaN,,,,,,false,,,,608892.3000000119,608891.8999999762,,608891.6999999881,,608907.285,8,400,,,
break_continue,html.Screen,4_123_2,2023-10-30T21:35:52.899Z,,0,,,NaN,,,,,,false,,,,608892.8999999762,608892.6999999881,,608892.5,,608907.285,8,400,,,
sequence,flow.Sequence,4_123,2023-10-30T21:35:52.899Z,,0,,,6037.759999988135,completion,,,,,false,,,,608893.1999999881,608892.6999999881,602838.591,602852.3999999762,602854.94,608907.285,8,400,,,
trial,html.Screen,4_124_0,2023-10-30T21:35:59.884Z,,0,3,,6969.9149999880465,response,ISIC_4079108.JPG,9,ISIC_8897947.JPG,ISIC_8897947.JPG,false,0,keypress(z),500,615877.5,615877.1999999881,608890.79,608893.3999999762,608907.285,615893.297,8,400,25,,ISIC_4079108.JPG
break,html.Screen,4_124_1,2023-10-30T21:35:59.885Z,,0,,,NaN,,,,,,false,,,,615878.5,615878.1999999881,,615877.6999999881,,615893.297,8,400,,,
break_continue,html.Screen,4_124_2,2023-10-30T21:35:59.885Z,,0,,,NaN,,,,,,false,,,,615878.8999999762,615878.5999999642,,615878.5999999642,,615893.297,8,400,,,
sequence,flow.Sequence,4_124,2023-10-30T21:35:59.885Z,,0,,,6971.314999964205,completion,,,,,false,,,,615879.1999999881,615878.5999999642,608890.79,608893.3000000119,608907.285,615893.297,8,400,,,
trial,html.Screen,4_125_0,2023-10-30T21:36:03.219Z,,0,3,,3318.8029999642167,response,ISIC_8624186.JPG,13,ISIC_1584535.JPG,ISIC_1584535.JPG,false,0,keypress(z),500,619212.3999999762,619212.0999999642,615876.539,615879.3999999762,615893.297,619228.083,8,400,26,,ISIC_8624186.JPG
break,html.Screen,4_125_1,2023-10-30T21:36:03.220Z,,0,,,NaN,,,,,,false,,,,619213.5,619213.3000000119,,619212.5999999642,,619228.083,8,400,,,
