sender,sender_type,sender_id,timestamp,meta,,blockNo,condition,duration,ended_on,img_left,img_reveal,img_right,loser,practice,response,response_action,selection_duration,time_commit,time_end,time_render,time_run,time_show,time_switch,total_blocks,total_trials,trialNo,url,winner
informed_consent,html.Screen,0,2023-10-31T22:07:54.214Z,"{""labjs_version"":""20.2.4"",""labjs_build"":{""flavor"":""production"",""commit"":""f5b4a49f956347addd546a832a3327688c2c0fef""},""location"":""https://run.pavlovia.org/MurrayBennett/melanoma-2afc/?participant=67054&platform=sona"",""userAgent"":""Mozilla/5.0 (Macintosh; Intel Mac OS X 10_15_7) AppleWebKit/537.36 (KHTML, like Gecko) Chrome/115.0.0.0 Safari/537.36"",""platform"":""MacIntel"",""language"":""en-US"",""locale"":""en-US"",""timeZone"":""America/Chicago"",""timezoneOffset"":300,""screen_width"":1440,""screen_height"":900,""scroll_width"":1407,""scroll_height"":639,""window_innerWidth"":1407,""window_innerHeight"":687,""devicePixelRatio"":2}",,,,4758.026,response,,,,,,consent,click button,,6454.799999952316,6447,1672.308,1687.2000000476837,1688.974,6455.45,,,,"{""participant"":""67054"",""platform"":""sona""}",
Welcome,html.Screen,1,2023-10-31T22:18:30.908Z,,,,regular,636700.2500000477,response,,,,,,continue,click button,,643158.7999999523,643155.7000000477,6438.784,6455.099999904633,6455.45,643163.314,,,,,
trial,html.Screen,2_0_0,2023-10-31T22:18:37.727Z,,0,0,,6813.585999856936,response,ISIC_4679428.JPG,,ISIC_0061792.JPG,ISIC_0061792.JPG,true,0,keypress(z),500,649977.5,649976.899999857,643146.648,643159.0999999046,643163.314,649979.708,1,6,1,,ISIC_4679428.JPG
sequence,flow.Sequence,2_0,2023-10-31T22:18:37.727Z,,0,,,6813.585999856936,completion,,,,,true,,,,649978.0999999046,649976.899999857,643146.648,643159,643163.314,649979.708,1,6,,,
trial,html.Screen,2_1_0,2023-10-31T22:18:43.086Z,,0,0,,5356.691999856965,response,ISIC_5199497.JPG,,ISIC_0776486.JPG,ISIC_0776486.JPG,true,0,keypress(z),500,655336.899999857,655336.399999857,649963.042,649978.2999999523,649979.708,655346.16,1,6,2,,ISIC_5199497.JPG
sequence,flow.Sequence,2_1,2023-10-31T22:18:43.086Z,,0,,,5356.691999856965,completion,,,,,true,,,,655337.2999999523,655336.399999857,649963.042,649978.2000000477,649979.708,655346.16,1,6,,,
trial,html.Screen,2_2_0,2023-10-31T22:18:51.199Z,,0,0,,8102.9399999046,response,ISIC_2556187.JPG,,ISIC_8575776.JPG,ISIC_2556187.JPG,true,1,keypress(m),500,663449.5999999046,663449.0999999046,655329.494,655337.7000000477,655346.16,663462.502,1,6,3,,ISIC_8575776.JPG
sequence,flow.Sequence,2_2,2023-10-31T22:18:51.199Z,,0,,,8102.9399999046,completion,,,,,true,,,,663450.0999999046,663449.0999999046,655329.494,655337.5,655346.16,663462.502,1,6,,,
trial,html.Screen,2_3_0,2023-10-31T22:18:55.439Z,,0,0,,4226.597999904654,response,ISIC_8141769.JPG,,ISIC_9238366.JPG,ISIC_8141769.JPG,true,1,keypress(m),500,667689.7000000477,667689.0999999046,663445.836,663450.5,663462.502,667695.666,1,6,4,,ISIC_9238366.JPG
sequence,flow.Sequence,2_3,2023-10-31T22:18:55.439Z,,0,,,4226.597999904654,completion,,,,,true,,,,667690.2999999523,667689.0999999046,663445.836,663450.399999857,663462.502,667695.666,1,6,,,
trial,html.Screen,2_4_0,2023-10-31T22:19:01.111Z,,0,0,,5665.7339998569805,response,ISIC_9959593.JPG,,ISIC_8949026.JPG,ISIC_9959593.JPG,true,1,keypress(m),500,673362,673361.399999857,667679,667690.5999999046,667695.666,673378.772,1,6,5,,ISIC_8949026.JPG
sequence,flow.Sequence,2_4,2023-10-31T22:19:01.111Z,,0,,,5665.7339998569805,completion,,,,,true,,,,673362.5,673361.399999857,667679,667690.5,667695.666,673378.772,1,6,,,
trial,html.Screen,2_5_0,2023-10-31T22:19:04.286Z,,0,0,,3158.3279999046354,response,ISIC_0460240.JPG,,ISIC_0010479.JPG,ISIC_0010479.JPG,true,0,keypress(z),500,676537.5999999046,676537.0999999046,673362.106,673362.7999999523,673378.772,676545.312,1,6,6,,ISIC_0460240.JPG
sequence,flow.Sequence,2_5,2023-10-31T22:19:04.287Z,,0,,,3158.3279999046354,completion,,,,,true,,,,676538.0999999046,676537.0999999046,673362.106,673362.7000000477,673378.772,676545.312,1,6,,,
loop,flow.Loop,2,2023-10-31T22:19:04.287Z,,,,,33373.78599990462,completion,,,,,true,,,,676538.399999857,676537.0999999046,643146.648,643159,643163.314,676545.312,1,6,,,
exp_instructions,html.Screen,3,2023-10-31T22:19:22.990Z,,,,,18616.487999952282,response,,,,,,continue,keypress(Space),,695241.399999857,695161.7999999523,676528.646,676538.5999999046,676545.312,695261.23,,,,,
trial,html.Screen,4_0_0,2023-10-31T22:19:28.494Z,,0,1,,5483.770000000019,response,ISIC_0014790.JPG,9,ISIC_0014428.JPG,ISIC_0014790.JPG,false,1,keypress(m),500,700745.5999999046,700745,695244.564,695241.7999999523,695261.23,700761.01,8,400,1,,ISIC_0014428.JPG
break,html.Screen,4_0_1,2023-10-31T22:19:28.496Z,,0,,,NaN,,,,,,false,,,,700747.5,700747,,700745.899999857,,700761.01,8,400,,,
break_continue,html.Screen,4_0_2,2023-10-31T22:19:28.496Z,,0,,,NaN,,,,,,false,,,,700748,700747.7999999523,,700747.7000000477,,700761.01,8,400,,,
sequence,flow.Sequence,4_0,2023-10-31T22:19:28.497Z,,0,,,5486.569999952335,completion,,,,,false,,,,700748.2000000477,700747.7999999523,695244.564,695241.7000000477,695261.23,700761.01,8,400,,,
trial,html.Screen,4_1_0,2023-10-31T22:19:33.029Z,,0,1,,4519.489999999991,response,ISIC_7293518.JPG,6,ISIC_0033678.JPG,ISIC_0033678.JPG,false,0,keypress(z),500,705281,705280.5,700744.344,700748.2999999523,700761.01,705294.162,8,400,2,,ISIC_7293518.JPG
break,html.Screen,4_1_1,2023-10-31T22:19:33.031Z,,0,,,NaN,,,,,,false,,,,705282.399999857,705282.0999999046,,705281.2999999523,,705294.162,8,400,,,
break_continue,html.Screen,4_1_2,2023-10-31T22:19:33.031Z,,0,,,NaN,,,,,,false,,,,705282.899999857,705282.7999999523,,705282.5,,705294.162,8,400,,,
sequence,flow.Sequence,4_1,2023-10-31T22:19:33.031Z,,0,,,4521.789999952307,completion,,,,,false,,,,705283.0999999046,705282.7999999523,700744.344,700748.2000000477,700761.01,705294.162,8,400,,,
trial,html.Screen,4_2_0,2023-10-31T22:19:36.582Z,,0,1,,3538.837999999989,response,ISIC_2720971.JPG,10,ISIC_2819721.JPG,ISIC_2819721.JPG,false,0,keypress(z),500,708833.7000000477,708833,705277.496,705283.399999857,705294.162,708844.02,8,400,3,,ISIC_2720971.JPG
break,html.Screen,4_2_1,2023-10-31T22:19:36.584Z,,0,,,NaN,,,,,,false,,,,708835.5,708835.2999999523,,708834,,708844.02,8,400,,,
break_continue,html.Screen,4_2_2,2023-10-31T22:19:36.584Z,,0,,,NaN,,,,,,false,,,,708836,708835.899999857,,708835.7000000477,,708844.02,8,400,,,
sequence,flow.Sequence,4_2,2023-10-31T22:19:36.584Z,,0,,,3541.7379998569377,completion,,,,,false,,,,708836.2000000477,708835.899999857,705277.496,705283.2000000477,705294.162,708844.02,8,400,,,
trial,html.Screen,4_3_0,2023-10-31T22:19:42.302Z,,0,1,,5709.079999904614,response,ISIC_0029995.JPG,8,ISIC_1453146.JPG,ISIC_0029995.JPG,false,1,keypress(m),500,714553.5999999046,714553.0999999046,708827.354,708836.399999857,708844.02,714560.458,8,400,4,,ISIC_1453146.JPG
break,html.Screen,4_3_1,2023-10-31T22:19:42.303Z,,0,,,NaN,,,,,,false,,,,714555.0999999046,714554.7999999523,,714553.899999857,,714560.458,8,400,,,
break_continue,html.Screen,4_3_2,2023-10-31T22:19:42.303Z,,0,,,NaN,,,,,,false,,,,714555.399999857,714555.2999999523,,714555.2000000477,,714560.458,8,400,,,
sequence,flow.Sequence,4_3,2023-10-31T22:19:42.304Z,,0,,,5711.279999952298,completion,,,,,false,,,,714555.5,714555.2999999523,708827.354,708836.2999999523,708844.02,714560.458,8,400,,,
trial,html.Screen,4_4_0,2023-10-31T22:19:46.245Z,,0,1,,3936.341999952332,response,ISIC_0011995.JPG,8,ISIC_1874480.JPG,ISIC_0011995.JPG,false,1,keypress(m),500,718497.0999999046,718496.7999999523,714543.792,714555.7999999523,714560.458,718510.3,8,400,5,,ISIC_1874480.JPG
break,html.Screen,4_4_1,2023-10-31T22:19:46.246Z,,0,,,NaN,,,,,,false,,,,718498.2999999523,718498.0999999046,,718497.2999999523,,718510.3,8,400,,,
break_continue,html.Screen,4_4_2,2023-10-31T22:19:46.247Z,,0,,,NaN,,,,,,false,,,,718498.5,718498.5,,718498.2999999523,,718510.3,8,400,,,
sequence,flow.Sequence,4_4,2023-10-31T22:19:46.247Z,,0,,,3938.042000000016,completion,,,,,false,,,,718498.5999999046,718498.5,714543.792,714555.7000000477,714560.458,718510.3,8,400,,,
trial,html.Screen,4_5_0,2023-10-31T22:19:49.822Z,,0,1,,3563.1999999999534,response,ISIC_4311777.JPG,9,ISIC_1484525.JPG,ISIC_4311777.JPG,false,1,keypress(m),500,722073.899999857,722073.5,718493.634,718498.7999999523,718510.3,722076.824,8,400,6,,ISIC_1484525.JPG
break,html.Screen,4_5_1,2023-10-31T22:19:49.824Z,,0,,,NaN,,,,,,false,,,,722075.5999999046,722075.2999999523,,722074.399999857,,722076.824,8,400,,,
break_continue,html.Screen,4_5_2,2023-10-31T22:19:49.824Z,,0,,,NaN,,,,,,false,,,,722076.2000000477,722076,,722075.7999999523,,722076.824,8,400,,,
sequence,flow.Sequence,4_5,2023-10-31T22:19:49.824Z,,0,,,3565.6999999999534,completion,,,,,false,,,,722076.399999857,722076,718493.634,718498.5999999046,718510.3,722076.824,8,400,,,
trial,html.Screen,4_6_0,2023-10-31T22:19:53.165Z,,0,1,,3340.1759999999776,response,ISIC_0011692.JPG,8,ISIC_0552911.JPG,ISIC_0011692.JPG,false,1,keypress(m),500,725417.2999999523,725417,722060.158,722076.5,722076.824,725426.69,8,400,7,,ISIC_0552911.JPG
break,html.Screen,4_6_1,2023-10-31T22:19:53.167Z,,0,,,NaN,,,,,,false,,,,725419,725418.5999999046,,725417.7000000477,,725426.69,8,400,,,
break_continue,html.Screen,4_6_2,2023-10-31T22:19:53.167Z,,0,,,NaN,,,,,,false,,,,725419.399999857,725419.2000000477,,725419.0999999046,,725426.69,8,400,,,
sequence,flow.Sequence,4_6,2023-10-31T22:19:53.167Z,,0,,,3342.3760000476614,completion,,,,,false,,,,725419.5,725419.2000000477,722060.158,722076.399999857,722076.824,725426.69,8,400,,,
trial,html.Screen,4_7_0,2023-10-31T22:20:01.061Z,,0,1,,7886.109999952372,response,ISIC_0033344.JPG,9,ISIC_2432848.JPG,ISIC_2432848.JPG,false,0,keypress(z),500,733313.2000000477,733312.7999999523,725410.024,725419.7000000477,725426.69,733326.374,8,400,8,,ISIC_0033344.JPG
break,html.Screen,4_7_1,2023-10-31T22:20:01.062Z,,0,,,NaN,,,,,,false,,,,733314.2999999523,733314,,733313.2999999523,,733326.374,8,400,,,
break_continue,html.Screen,4_7_2,2023-10-31T22:20:01.062Z,,0,,,NaN,,,,,,false,,,,733314.5,733314.399999857,,733314.399999857,,733326.374,8,400,,,
sequence,flow.Sequence,4_7,2023-10-31T22:20:01.062Z,,0,,,7887.709999857005,completion,,,,,false,,,,733314.5999999046,733314.399999857,725410.024,725419.7000000477,725426.69,733326.374,8,400,,,
trial,html.Screen,4_8_0,2023-10-31T22:20:12.559Z,,0,1,,11501.4920000477,timeout,ISIC_4459528.JPG,9,ISIC_0013364.JPG,ISIC_4459528.JPG,false,,,500,744811.7000000477,744811.2000000477,733309.708,733314.7000000477,733326.374,,8,400,9,,ISIC_0013364.JPG
break,html.Screen,4_8_1,2023-10-31T22:20:12.561Z,,0,,,NaN,,,,,,false,,,,744813.0999999046,744812.7999999523,,744812,,744842.58,8,400,,,
break_continue,html.Screen,4_8_2,2023-10-31T22:20:12.561Z,,0,,,NaN,,,,,,false,,,,744813.399999857,744813.399999857,,744813.0999999046,,744842.58,8,400,,,
sequence,flow.Sequence,4_8,2023-10-31T22:20:12.561Z,,0,,,11487.025999856996,completion,,,,,false,,,,744813.5999999046,744813.399999857,733309.708,733314.7000000477,733326.374,744842.58,8,400,,,
trial,html.Screen,4_8_0,2023-10-31T22:20:12.588Z,,0,1,,11514.126000000047,response,ISIC_4459528.JPG,9,ISIC_0013364.JPG,ISIC_4459528.JPG,false,1,keypress(m),500,744840.5999999046,744840.5,733309.708,733314.7000000477,733326.374,744842.58,8,400,9,,ISIC_0013364.JPG
trial,html.Screen,4_9_0,2023-10-31T22:20:17.366Z,,0,1,,4774.819999856991,response,ISIC_3922580.JPG,7,ISIC_0032907.JPG,ISIC_3922580.JPG,false,1,keypress(m),500,749618,749617.399999857,744825.914,744813.7999999523,744842.58,749625.722,8,400,10,,ISIC_0032907.JPG
break,html.Screen,4_9_1,2023-10-31T22:20:17.367Z,,0,,,NaN,,,,,,false,,,,749619.5,749619.2000000477,,749618.2999999523,,749625.722,8,400,,,
break_continue,html.Screen,4_9_2,2023-10-31T22:20:17.368Z,,0,,,NaN,,,,,,false,,,,749620.0999999046,749619.899999857,,749619.7000000477,,749625.722,8,400,,,
sequence,flow.Sequence,4_9,2023-10-31T22:20:17.368Z,,0,,,4777.319999856991,completion,,,,,false,,,,749620.2000000477,749619.899999857,744825.914,744813.7000000477,744842.58,749625.722,8,400,,,
trial,html.Screen,4_10_0,2023-10-31T22:20:21.693Z,,0,1,,4319.677999856998,response,ISIC_9271800.JPG,6,ISIC_7755106.JPG,ISIC_7755106.JPG,false,0,keypress(z),500,753945.7999999523,753945.399999857,749609.056,749620.2999999523,749625.722,753958.882,8,400,11,,ISIC_9271800.JPG
break,html.Screen,4_10_1,2023-10-31T22:20:21.695Z,,0,,,NaN,,,,,,false,,,,753947.399999857,753947,,753946.0999999046,,753958.882,8,400,,,
break_continue,html.Screen,4_10_2,2023-10-31T22:20:21.695Z,,0,,,NaN,,,,,,false,,,,753947.7999999523,753947.5999999046,,753947.399999857,,753958.882,8,400,,,
sequence,flow.Sequence,4_10,2023-10-31T22:20:21.695Z,,0,,,4321.877999904682,completion,,,,,false,,,,753948,753947.5999999046,749609.056,749620.2999999523,749625.722,753958.882,8,400,,,
trial,html.Screen,4_11_0,2023-10-31T22:20:24.653Z,,0,1,,2945.917999952333,response,ISIC_0029198.JPG,8,ISIC_1034397.JPG,ISIC_0029198.JPG,false,1,keypress(m),500,756905.2999999523,756904.7999999523,753942.216,753948.2000000477,753958.882,756908.764,8,400,12,,ISIC_1034397.JPG
break,html.Screen,4_11_1,2023-10-31T22:20:24.654Z,,0,,,NaN,,,,,,false,,,,756906.7999999523,756906.5,,756905.5999999046,,756908.764,8,400,,,
break_continue,html.Screen,4_11_2,2023-10-31T22:20:24.655Z,,0,,,NaN,,,,,,false,,,,756907.0999999046,756907.0999999046,,756906.899999857,,756908.764,8,400,,,
sequence,flow.Sequence,4_11,2023-10-31T22:20:24.655Z,,0,,,2948.2179999046493,completion,,,,,false,,,,756907.2999999523,756907.0999999046,753942.216,753948.0999999046,753958.882,756908.764,8,400,,,
trial,html.Screen,4_12_0,2023-10-31T22:20:28.484Z,,0,1,,3827.835999904666,response,ISIC_0010034.JPG,9,ISIC_0072997.JPG,ISIC_0010034.JPG,false,1,keypress(m),500,760737,760736.5999999046,756892.098,756907.399999857,756908.764,760741.944,8,400,13,,ISIC_0072997.JPG
break,html.Screen,4_12_1,2023-10-31T22:20:28.486Z,,0,,,NaN,,,,,,false,,,,760738.5,760738.2999999523,,760737.2999999523,,760741.944,8,400,,,
break_continue,html.Screen,4_12_2,2023-10-31T22:20:28.486Z,,0,,,NaN,,,,,,false,,,,760739,760739,,760738.7000000477,,760741.944,8,400,,,
sequence,flow.Sequence,4_12,2023-10-31T22:20:28.487Z,,0,,,3830.2360000000335,completion,,,,,false,,,,760739.2000000477,760739,756892.098,756907.399999857,756908.764,760741.944,8,400,,,
trial,html.Screen,4_13_0,2023-10-31T22:20:31.997Z,,0,1,,3507.3559999522986,response,ISIC_4168757.JPG,10,ISIC_8969855.JPG,ISIC_4168757.JPG,false,1,keypress(m),500,764249.899999857,764249.2999999523,760725.278,760739.2999999523,760741.944,764258.47,8,400,14,,ISIC_8969855.JPG
break,html.Screen,4_13_1,2023-10-31T22:20:31.999Z,,0,,,NaN,,,,,,false,,,,764251.5,764251.2999999523,,764250.2999999523,,764258.47,8,400,,,
break_continue,html.Screen,4_13_2,2023-10-31T22:20:31.999Z,,0,,,NaN,,,,,,false,,,,764251.7999999523,764251.7000000477,,764251.5999999046,,764258.47,8,400,,,
sequence,flow.Sequence,4_13,2023-10-31T22:20:31.999Z,,0,,,3509.756000047666,completion,,,,,false,,,,764251.899999857,764251.7000000477,760725.278,760739.2999999523,760741.944,764258.47,8,400,,,
trial,html.Screen,4_14_0,2023-10-31T22:20:37.012Z,,0,1,,5005.829999952344,response,ISIC_0640806.JPG,8,ISIC_7519557.JPG,ISIC_0640806.JPG,false,1,keypress(m),500,769264.7000000477,769264.2999999523,764241.804,764252.0999999046,764258.47,769274.936,8,400,15,,ISIC_7519557.JPG
break,html.Screen,4_14_1,2023-10-31T22:20:37.014Z,,0,,,NaN,,,,,,false,,,,769266.399999857,769266,,769265.0999999046,,769274.936,8,400,,,
break_continue,html.Screen,4_14_2,2023-10-31T22:20:37.014Z,,0,,,NaN,,,,,,false,,,,769266.7000000477,769266.7000000477,,769266.399999857,,769274.936,8,400,,,
sequence,flow.Sequence,4_14,2023-10-31T22:20:37.014Z,,0,,,5008.230000047712,completion,,,,,false,,,,769266.899999857,769266.7000000477,764241.804,764252,764258.47,769274.936,8,400,,,
trial,html.Screen,4_15_0,2023-10-31T22:20:41.748Z,,0,1,,4725.564000000013,response,ISIC_0010933.JPG,9,ISIC_0911264.JPG,ISIC_0010933.JPG,false,1,keypress(m),500,774001,774000.5,769258.27,769267.0999999046,769274.936,774008.08,8,400,16,,ISIC_0911264.JPG
break,html.Screen,4_15_1,2023-10-31T22:20:41.750Z,,0,,,NaN,,,,,,false,,,,774002.5999999046,774002.399999857,,774001.399999857,,774008.08,8,400,,,
break_continue,html.Screen,4_15_2,2023-10-31T22:20:41.750Z,,0,,,NaN,,,,,,false,,,,774003.0999999046,774003,,774002.7999999523,,774008.08,8,400,,,
sequence,flow.Sequence,4_15,2023-10-31T22:20:41.750Z,,0,,,4728.064000000013,completion,,,,,false,,,,774003.2999999523,774003,769258.27,769267.0999999046,769274.936,774008.08,8,400,,,
trial,html.Screen,4_16_0,2023-10-31T22:20:46.228Z,,0,1,,4472.920000000042,response,ISIC_0028135.JPG,9,ISIC_0061085.JPG,ISIC_0061085.JPG,false,0,keypress(z),500,778481.2999999523,778481,773991.414,774003.399999857,774008.08,778491.234,8,400,17,,ISIC_0028135.JPG
break,html.Screen,4_16_1,2023-10-31T22:20:46.229Z,,0,,,NaN,,,,,,false,,,,778482.2000000477,778482,,778481.5,,778491.234,8,400,,,
break_continue,html.Screen,4_16_2,2023-10-31T22:20:46.229Z,,0,,,NaN,,,,,,false,,,,778482.399999857,778482.2999999523,,778482.2000000477,,778491.234,8,400,,,
sequence,flow.Sequence,4_16,2023-10-31T22:20:46.230Z,,0,,,4474.219999952358,completion,,,,,false,,,,778482.5,778482.2999999523,773991.414,774003.399999857,774008.08,778491.234,8,400,,,
trial,html.Screen,4_17_0,2023-10-31T22:20:50.220Z,,0,1,,3981.4660000476288,response,ISIC_0028462.JPG,10,ISIC_0023811.JPG,ISIC_0023811.JPG,false,0,keypress(z),500,782473.2000000477,782472.7000000477,778474.568,778482.5999999046,778491.234,782474.408,8,400,18,,ISIC_0028462.JPG
break,html.Screen,4_17_1,2023-10-31T22:20:50.222Z,,0,,,NaN,,,,,,false,,,,782474.5999999046,782474.5,,782473.5,,782474.408,8,400,,,
break_continue,html.Screen,4_17_2,2023-10-31T22:20:50.222Z,,0,,,NaN,,,,,,false,,,,782475,782474.899999857,,782474.7999999523,,782474.408,8,400,,,
sequence,flow.Sequence,4_17,2023-10-31T22:20:50.222Z,,0,,,3983.665999856894,completion,,,,,false,,,,782475.0999999046,782474.899999857,778474.568,778482.5999999046,778491.234,782474.408,8,400,,,
trial,html.Screen,4_18_0,2023-10-31T22:20:57.180Z,,0,1,,6958.29200004763,response,ISIC_0055240.JPG,8,ISIC_9002603.JPG,ISIC_9002603.JPG,false,0,keypress(z),500,789433.2000000477,789432.7000000477,782457.742,782475.2000000477,782474.408,789440.796,8,400,19,,ISIC_0055240.JPG
break,html.Screen,4_18_1,2023-10-31T22:20:57.182Z,,0,,,NaN,,,,,,false,,,,789435,789434.7999999523,,789433.5999999046,,789440.796,8,400,,,
break_continue,html.Screen,4_18_2,2023-10-31T22:20:57.182Z,,0,,,NaN,,,,,,false,,,,789435.5999999046,789435.5,,789435.2999999523,,789440.796,8,400,,,
sequence,flow.Sequence,4_18,2023-10-31T22:20:57.183Z,,0,,,6961.091999999946,completion,,,,,false,,,,789435.899999857,789435.5,782457.742,782475.2000000477,782474.408,789440.796,8,400,,,
trial,html.Screen,4_19_0,2023-10-31T22:21:06.020Z,,0,1,,8832.204000000027,response,ISIC_3072382.JPG,8,ISIC_4936662.JPG,ISIC_4936662.JPG,false,0,keypress(z),500,798273.399999857,798273,789424.13,789436,789440.796,798290.442,8,400,20,,ISIC_3072382.JPG
break,html.Screen,4_19_1,2023-10-31T22:21:06.022Z,,0,,,NaN,,,,,,false,,,,798275,798274.5999999046,,798273.7999999523,,798290.442,8,400,,,
break_continue,html.Screen,4_19_2,2023-10-31T22:21:06.022Z,,0,,,NaN,,,,,,false,,,,798275.399999857,798275.2999999523,,798275.2000000477,,798290.442,8,400,,,
sequence,flow.Sequence,4_19,2023-10-31T22:21:06.022Z,,0,,,8834.503999952343,completion,,,,,false,,,,798275.5999999046,798275.2999999523,789424.13,789435.899999857,789440.796,798290.442,8,400,,,
trial,html.Screen,4_20_0,2023-10-31T22:21:09.884Z,,0,1,,3846.4579998569097,response,ISIC_6806545.JPG,8,ISIC_1477990.JPG,ISIC_1477990.JPG,false,0,keypress(z),500,802137.399999857,802136.899999857,798273.776,798275.7000000477,798290.442,802140.288,8,400,21,,ISIC_6806545.JPG
break,html.Screen,4_20_1,2023-10-31T22:21:09.886Z,,0,,,NaN,,,,,,false,,,,802138.899999857,802138.5999999046,,802137.7000000477,,802140.288,8,400,,,
break_continue,html.Screen,4_20_2,2023-10-31T22:21:09.886Z,,0,,,NaN,,,,,,false,,,,802139.2999999523,802139.2999999523,,802139.0999999046,,802140.288,8,400,,,
sequence,flow.Sequence,4_20,2023-10-31T22:21:09.886Z,,0,,,3848.857999952277,completion,,,,,false,,,,802139.5,802139.2999999523,798273.776,798275.7000000477,798290.442,802140.288,8,400,,,
trial,html.Screen,4_21_0,2023-10-31T22:21:14.764Z,,0,1,,4876.31199990469,response,ISIC_6469202.JPG,9,ISIC_0072507.JPG,ISIC_0072507.JPG,false,0,keypress(z),500,807017.0999999046,807016.5999999046,802123.622,802139.5999999046,802140.288,807023.426,8,400,22,,ISIC_6469202.JPG
break,html.Screen,4_21_1,2023-10-31T22:21:14.765Z,,0,,,NaN,,,,,,false,,,,807018.7000000477,807018.399999857,,807017.5,,807023.426,8,400,,,
break_continue,html.Screen,4_21_2,2023-10-31T22:21:14.766Z,,0,,,NaN,,,,,,false,,,,807019,807018.899999857,,807018.7999999523,,807023.426,8,400,,,
sequence,flow.Sequence,4_21,2023-10-31T22:21:14.766Z,,0,,,4878.611999857007,completion,,,,,false,,,,807019.2999999523,807018.899999857,802123.622,802139.5,802140.288,807023.426,8,400,,,
trial,html.Screen,4_22_0,2023-10-31T22:21:17.812Z,,0,1,,3041.3739999523386,response,ISIC_0032360.JPG,9,ISIC_9080774.JPG,ISIC_9080774.JPG,false,0,keypress(z),500,810065.2999999523,810064.7999999523,807006.76,807019.399999857,807023.426,810073.304,8,400,23,,ISIC_0032360.JPG
break,html.Screen,4_22_1,2023-10-31T22:21:17.814Z,,0,,,NaN,,,,,,false,,,,810067,810066.7000000477,,810065.7999999523,,810073.304,8,400,,,
break_continue,html.Screen,4_22_2,2023-10-31T22:21:17.814Z,,0,,,NaN,,,,,,false,,,,810067.5,810067.399999857,,810067.0999999046,,810073.304,8,400,,,
sequence,flow.Sequence,4_22,2023-10-31T22:21:17.814Z,,0,,,3043.973999856971,completion,,,,,false,,,,810067.7000000477,810067.399999857,807006.76,807019.2999999523,807023.426,810073.304,8,400,,,
trial,html.Screen,4_23_0,2023-10-31T22:21:28.556Z,,0,1,,10735.695999999996,response,ISIC_0527170.JPG,9,ISIC_0015035.JPG,ISIC_0015035.JPG,false,0,keypress(z),500,820809.5,820809,810056.638,810068,810073.304,820822.874,8,400,24,,ISIC_0527170.JPG
break,html.Screen,4_23_1,2023-10-31T22:21:28.558Z,,0,,,NaN,,,,,,false,,,,820811.399999857,820811.0999999046,,820810,,820822.874,8,400,,,
break_continue,html.Screen,4_23_2,2023-10-31T22:21:28.559Z,,0,,,NaN,,,,,,false,,,,820812,820811.7999999523,,820811.5999999046,,820822.874,8,400,,,
sequence,flow.Sequence,4_23,2023-10-31T22:21:28.559Z,,0,,,10738.495999952313,completion,,,,,false,,,,820812.2000000477,820811.7999999523,810056.638,810067.899999857,810073.304,820822.874,8,400,,,
trial,html.Screen,4_24_0,2023-10-31T22:21:33.921Z,,0,1,,5345.72599990468,response,ISIC_0024219.JPG,9,ISIC_7381224.JPG,ISIC_7381224.JPG,false,0,keypress(z),500,826169.0999999046,826168.5999999046,820806.208,820812.2999999523,820822.874,826172.66,8,400,25,,ISIC_0024219.JPG
break,html.Screen,4_24_1,2023-10-31T22:21:33.923Z,,0,,,NaN,,,,,,false,,,,826170.5999999046,826170.2999999523,,826169.5,,826172.66,8,400,,,
break_continue,html.Screen,4_24_2,2023-10-31T22:21:33.923Z,,0,,,NaN,,,,,,false,,,,826171,826170.899999857,,826170.7000000477,,826172.66,8,400,,,
sequence,flow.Sequence,4_24,2023-10-31T22:21:33.923Z,,0,,,5348.025999856996,completion,,,,,false,,,,826171.2000000477,826170.899999857,820806.208,820812.2000000477,820822.874,826172.66,8,400,,,
trial,html.Screen,4_25_0,2023-10-31T22:21:44.016Z,,0,1,,10084.239999856916,response,ISIC_0069274.JPG,9,ISIC_0024308.JPG,ISIC_0024308.JPG,false,0,keypress(z),500,836257.5,836256.899999857,826155.994,826171.399999857,826172.66,836272.256,8,400,26,,ISIC_0069274.JPG
break,html.Screen,4_25_1,2023-10-31T22:21:44.018Z,,0,,,NaN,,,,,,false,,,,836259.2000000477,836259,,836257.899999857,,836272.256,8,400,,,
break_continue,html.Screen,4_25_2,2023-10-31T22:21:44.018Z,,0,,,NaN,,,,,,false,,,,836259.5999999046,836259.399999857,,836259.2999999523,,836272.256,8,400,,,
sequence,flow.Sequence,4_25,2023-10-31T22:21:44.018Z,,0,,,10086.739999856916,completion,,,,,false,,,,836259.7000000477,836259.399999857,826155.994,826171.2999999523,826172.66,836272.256,8,400,,,
trial,html.Screen,4_26_0,2023-10-31T22:21:49.881Z,,0,1,,5847.543999952264,response,ISIC_2141003.JPG,9,ISIC_8684147.JPG,ISIC_2141003.JPG,false,1,keypress(m),500,842120.2999999523,842119.7999999523,836255.59,836259.7999999523,836272.256,842122.022,8,400,27,,ISIC_8684147.JPG
break,html.Screen,4_26_1,2023-10-31T22:21:49.882Z,,0,,,NaN,,,,,,false,,,,842121.7000000477,842121.5,,842120.5999999046,,842122.022,8,400,,,
break_continue,html.Screen,4_26_2,2023-10-31T22:21:49.883Z,,0,,,NaN,,,,,,false,,,,842122.2000000477,842122.0999999046,,842121.899999857,,842122.022,8,400,,,
sequence,flow.Sequence,4_26,2023-10-31T22:21:49.883Z,,0,,,5849.84399990458,completion,,,,,false,,,,842122.399999857,842122.0999999046,836255.59,836259.7999999523,836272.256,842122.022,8,400,,,
trial,html.Screen,4_27_0,2023-10-31T22:21:55.875Z,,0,1,,5990.577999904635,response,ISIC_0000549.JPG,10,ISIC_0014302.JPG,ISIC_0000549.JPG,false,1,keypress(m),500,848113.2000000477,848112.5999999046,842105.356,842122.5999999046,842122.022,848121.782,8,400,28,,ISIC_0014302.JPG
break,html.Screen,4_27_1,2023-10-31T22:21:55.877Z,,0,,,NaN,,,,,,false,,,,848114.7000000477,848114.5,,848113.5,,848121.782,8,400,,,
break_continue,html.Screen,4_27_2,2023-10-31T22:21:55.877Z,,0,,,NaN,,,,,,false,,,,848115.0999999046,848115,,848114.899999857,,848121.782,8,400,,,
sequence,flow.Sequence,4_27,2023-10-31T22:21:55.877Z,,0,,,5992.978000000003,completion,,,,,false,,,,848115.2999999523,848115,842105.356,842122.5,842122.022,848121.782,8,400,,,
trial,html.Screen,4_28_0,2023-10-31T22:21:58.732Z,,0,1,,2847.6179998569423,response,ISIC_5287748.JPG,9,ISIC_0032671.JPG,ISIC_0032671.JPG,false,0,keypress(z),500,850969.7999999523,850969.399999857,848105.116,848115.5,848121.782,850971.668,8,400,29,,ISIC_5287748.JPG
break,html.Screen,4_28_1,2023-10-31T22:21:58.734Z,,0,,,NaN,,,,,,false,,,,850971.2999999523,850971.0999999046,,850970.0999999046,,850971.668,8,400,,,
break_continue,html.Screen,4_28_2,2023-10-31T22:21:58.734Z,,0,,,NaN,,,,,,false,,,,850971.7999999523,850971.7000000477,,850971.399999857,,850971.668,8,400,,,
sequence,flow.Sequence,4_28,2023-10-31T22:21:58.734Z,,0,,,2849.918000047677,completion,,,,,false,,,,850971.899999857,850971.7000000477,848105.116,848115.399999857,848121.782,850971.668,8,400,,,
trial,html.Screen,4_29_0,2023-10-31T22:22:02.757Z,,0,1,,4021.4319999046857,response,ISIC_0000483.JPG,7,ISIC_7358691.JPG,ISIC_7358691.JPG,false,0,keypress(z),500,854993.7000000477,854993.0999999046,850955.002,850973.7999999523,850971.668,855004.84,8,400,30,,ISIC_0000483.JPG
break,html.Screen,4_29_1,2023-10-31T22:22:02.758Z,,0,,,NaN,,,,,,false,,,,854995.2000000477,854994.899999857,,854994.0999999046,,855004.84,8,400,,,
break_continue,html.Screen,4_29_2,2023-10-31T22:22:02.759Z,,0,,,NaN,,,,,,false,,,,854995.7000000477,854995.5999999046,,854995.399999857,,855004.84,8,400,,,
sequence,flow.Sequence,4_29,2023-10-31T22:22:02.759Z,,0,,,4023.9319999046857,completion,,,,,false,,,,854995.899999857,854995.5999999046,850955.002,850973.7000000477,850971.668,855004.84,8,400,,,
trial,html.Screen,4_30_0,2023-10-31T22:22:09.645Z,,0,1,,6875.660000000033,response,ISIC_0033526.JPG,8,ISIC_0046659.JPG,ISIC_0033526.JPG,false,1,keypress(m),500,861881,861880.5,854988.174,854996.0999999046,855004.84,861887.898,8,400,31,,ISIC_0046659.JPG
break,html.Screen,4_30_1,2023-10-31T22:22:09.646Z,,0,,,NaN,,,,,,false,,,,861882.5999999046,861882.399999857,,861881.2999999523,,861887.898,8,400,,,
break_continue,html.Screen,4_30_2,2023-10-31T22:22:09.647Z,,0,,,NaN,,,,,,false,,,,861883.0999999046,861883,,861882.7999999523,,861887.898,8,400,,,
sequence,flow.Sequence,4_30,2023-10-31T22:22:09.647Z,,0,,,6878.160000000033,completion,,,,,false,,,,861883.2999999523,861883,854988.174,854996,855004.84,861887.898,8,400,,,
trial,html.Screen,4_31_0,2023-10-31T22:22:13.837Z,,0,1,,4184.701999904588,response,ISIC_0033710.JPG,9,ISIC_9675304.JPG,ISIC_0033710.JPG,false,1,keypress(m),500,866073.0999999046,866072.5999999046,861871.232,861883.5,861887.898,866087.73,8,400,32,,ISIC_9675304.JPG
break,html.Screen,4_31_1,2023-10-31T22:22:13.839Z,,0,,,NaN,,,,,,false,,,,866074.7999999523,866074.5,,866073.399999857,,866087.73,8,400,,,
break_continue,html.Screen,4_31_2,2023-10-31T22:22:13.839Z,,0,,,NaN,,,,,,false,,,,866075.2999999523,866075.2000000477,,866074.899999857,,866087.73,8,400,,,
sequence,flow.Sequence,4_31,2023-10-31T22:22:13.839Z,,0,,,4187.302000047639,completion,,,,,false,,,,866075.5,866075.2000000477,861871.232,861883.5,861887.898,866087.73,8,400,,,
trial,html.Screen,4_32_0,2023-10-31T22:22:18.286Z,,0,1,,4433.569999952335,response,ISIC_9008095.JPG,9,ISIC_2904067.JPG,ISIC_2904067.JPG,false,0,keypress(z),500,870522.2999999523,870521.2999999523,866071.064,866075.7000000477,866087.73,870537.552,8,400,33,,ISIC_9008095.JPG
break,html.Screen,4_32_1,2023-10-31T22:22:18.289Z,,0,,,NaN,,,,,,false,,,,870524.899999857,870524.399999857,,870523,,870537.552,8,400,,,
break_continue,html.Screen,4_32_2,2023-10-31T22:22:18.289Z,,0,,,NaN,,,,,,false,,,,870525.2999999523,870525.0999999046,,870524.899999857,,870537.552,8,400,,,
sequence,flow.Sequence,4_32,2023-10-31T22:22:18.290Z,,0,,,4437.369999904651,completion,,,,,false,,,,870525.5,870525.0999999046,866071.064,866075.7000000477,866087.73,870537.552,8,400,,,
trial,html.Screen,4_33_0,2023-10-31T22:22:21.389Z,,0,1,,3087.0479999046074,response,ISIC_0011862.JPG,7,ISIC_9167290.JPG,ISIC_0011862.JPG,false,1,keypress(m),500,873625,873624.5999999046,870520.886,870525.7000000477,870537.552,873637.428,8,400,34,,ISIC_9167290.JPG
break,html.Screen,4_33_1,2023-10-31T22:22:21.391Z,,0,,,NaN,,,,,,false,,,,873626.5,873626.2000000477,,873625.2999999523,,873637.428,8,400,,,
break_continue,html.Screen,4_33_2,2023-10-31T22:22:21.391Z,,0,,,NaN,,,,,,false,,,,873627.0999999046,873626.7999999523,,873626.7000000477,,873637.428,8,400,,,
sequence,flow.Sequence,4_33,2023-10-31T22:22:21.391Z,,0,,,3089.247999952291,completion,,,,,false,,,,873627.2000000477,873626.7999999523,870520.886,870525.7000000477,870537.552,873637.428,8,400,,,
trial,html.Screen,4_34_0,2023-10-31T22:22:25.373Z,,0,1,,3971.0720000000438,response,ISIC_0000030.JPG,9,ISIC_4272317.JPG,ISIC_0000030.JPG,false,1,keypress(m),500,877609.0999999046,877608.5,873620.762,873627.2999999523,873637.428,877620.602,8,400,35,,ISIC_4272317.JPG
break,html.Screen,4_34_1,2023-10-31T22:22:25.375Z,,0,,,NaN,,,,,,false,,,,877610.7999999523,877610.5,,877609.399999857,,877620.602,8,400,,,
break_continue,html.Screen,4_34_2,2023-10-31T22:22:25.376Z,,0,,,NaN,,,,,,false,,,,877611.2999999523,877611.0999999046,,877610.899999857,,877620.602,8,400,,,
sequence,flow.Sequence,4_34,2023-10-31T22:22:25.376Z,,0,,,3973.6719999046763,completion,,,,,false,,,,877611.5,877611.0999999046,873620.762,873627.2000000477,873637.428,877620.602,8,400,,,
trial,html.Screen,4_35_0,2023-10-31T22:22:29.302Z,,0,1,,3916.4979999046773,response,ISIC_9077722.JPG,8,ISIC_7693995.JPG,ISIC_9077722.JPG,false,1,keypress(m),500,881537.5999999046,881537.0999999046,877603.936,877611.7000000477,877620.602,881553.778,8,400,36,,ISIC_7693995.JPG
break,html.Screen,4_35_1,2023-10-31T22:22:29.303Z,,0,,,NaN,,,,,,false,,,,881539,881538.7000000477,,881537.7999999523,,881553.778,8,400,,,
break_continue,html.Screen,4_35_2,2023-10-31T22:22:29.304Z,,0,,,NaN,,,,,,false,,,,881539.2999999523,881539.2000000477,,881539.0999999046,,881553.778,8,400,,,
sequence,flow.Sequence,4_35,2023-10-31T22:22:29.304Z,,0,,,3918.5980000477284,completion,,,,,false,,,,881539.5,881539.2000000477,877603.936,877611.7000000477,877620.602,881553.778,8,400,,,
trial,html.Screen,4_36_0,2023-10-31T22:22:32.213Z,,0,1,,2894.6219998568995,response,ISIC_8551124.JPG,8,ISIC_0394030.JPG,ISIC_8551124.JPG,false,1,keypress(m),500,884448.899999857,884448.399999857,881537.112,881539.5999999046,881553.778,884453.662,8,400,37,,ISIC_0394030.JPG
break,html.Screen,4_36_1,2023-10-31T22:22:32.214Z,,0,,,NaN,,,,,,false,,,,884449.899999857,884449.7000000477,,884449,,884453.662,8,400,,,
break_continue,html.Screen,4_36_2,2023-10-31T22:22:32.214Z,,0,,,NaN,,,,,,false,,,,884450.0999999046,884450.0999999046,,884449.899999857,,884453.662,8,400,,,
sequence,flow.Sequence,4_36,2023-10-31T22:22:32.215Z,,0,,,2896.321999904583,completion,,,,,false,,,,884450.0999999046,884450.0999999046,881537.112,881539.5999999046,881553.778,884453.662,8,400,,,
trial,html.Screen,4_37_0,2023-10-31T22:22:34.975Z,,0,1,,2755.837999999989,response,ISIC_8603734.JPG,10,ISIC_1925623.JPG,ISIC_1925623.JPG,false,0,keypress(z),500,887210.0999999046,887209.5,884436.996,884450.2999999523,884453.662,887220.218,8,400,38,,ISIC_8603734.JPG
break,html.Screen,4_37_1,2023-10-31T22:22:34.976Z,,0,,,NaN,,,,,,false,,,,887211.7999999523,887211.7000000477,,887210.5999999046,,887220.218,8,400,,,
break_continue,html.Screen,4_37_2,2023-10-31T22:22:34.977Z,,0,,,NaN,,,,,,false,,,,887212.2999999523,887212.2000000477,,887212,,887220.218,8,400,,,
sequence,flow.Sequence,4_37,2023-10-31T22:22:34.977Z,,0,,,2758.5380000476725,completion,,,,,false,,,,887212.5,887212.2000000477,884436.996,884450.2000000477,884453.662,887220.218,8,400,,,
trial,html.Screen,4_38_0,2023-10-31T22:22:39.188Z,,0,1,,4202.581999952323,response,ISIC_5230371.JPG,8,ISIC_4826449.JPG,ISIC_5230371.JPG,false,1,keypress(m),500,891423.2000000477,891422.7999999523,887203.552,887212.7000000477,887220.218,891453.382,8,400,39,,ISIC_4826449.JPG
break,html.Screen,4_38_1,2023-10-31T22:22:39.189Z,,0,,,NaN,,,,,,false,,,,891424.7999999523,891424.399999857,,891423.399999857,,891453.382,8,400,,,
break_continue,html.Screen,4_38_2,2023-10-31T22:22:39.190Z,,0,,,NaN,,,,,,false,,,,891425.2000000477,891425,,891424.7999999523,,891453.382,8,400,,,
sequence,flow.Sequence,4_38,2023-10-31T22:22:39.190Z,,0,,,4204.7820000000065,completion,,,,,false,,,,891425.2999999523,891425,887203.552,887212.5999999046,887220.218,891453.382,8,400,,,
trial,html.Screen,4_39_0,2023-10-31T22:22:43.430Z,,0,1,,4211.417999952333,response,ISIC_3856662.JPG,10,ISIC_9568138.JPG,ISIC_9568138.JPG,false,0,keypress(z),500,895665.2000000477,895664.7999999523,891436.716,891425.5,891453.382,895669.88,8,400,40,,ISIC_3856662.JPG
break,html.Screen,4_39_1,2023-10-31T22:22:43.431Z,,0,,,NaN,,,,,,false,,,,895667.0999999046,895666.7000000477,,895665.5,,895669.88,8,400,,,
break_continue,html.Screen,4_39_2,2023-10-31T22:22:43.432Z,,0,,,NaN,,,,,,false,,,,895667.5999999046,895667.399999857,,895667.2999999523,,895669.88,8,400,,,
sequence,flow.Sequence,4_39,2023-10-31T22:22:43.432Z,,0,,,4214.017999856966,completion,,,,,false,,,,895667.7999999523,895667.399999857,891436.716,891425.5,891453.382,895669.88,8,400,,,
trial,html.Screen,4_40_0,2023-10-31T22:22:48.366Z,,0,1,,4931.619999999995,response,ISIC_9268141.JPG,5,ISIC_5081382.JPG,ISIC_9268141.JPG,false,1,keypress(m),500,900602.0999999046,900601.5,895653.214,895667.899999857,895669.88,900619.682,8,400,41,,ISIC_5081382.JPG
break,html.Screen,4_40_1,2023-10-31T22:22:48.368Z,,0,,,NaN,,,,,,false,,,,900603.7000000477,900603.399999857,,900602.399999857,,900619.682,8,400,,,
break_continue,html.Screen,4_40_2,2023-10-31T22:22:48.369Z,,0,,,NaN,,,,,,false,,,,900604.0999999046,900604,,900603.7999999523,,900619.682,8,400,,,
sequence,flow.Sequence,4_40,2023-10-31T22:22:48.369Z,,0,,,4934.119999999995,completion,,,,,false,,,,900604.2999999523,900604,895653.214,895667.899999857,895669.88,900619.682,8,400,,,
trial,html.Screen,4_41_0,2023-10-31T22:22:51.837Z,,0,1,,3452.81799999997,response,ISIC_1711134.JPG,7,ISIC_1670165.JPG,ISIC_1711134.JPG,false,1,keypress(m),500,904072.899999857,904072.5,900603.016,900606,900619.682,904086.21,8,400,42,,ISIC_1670165.JPG
break,html.Screen,4_41_1,2023-10-31T22:22:51.839Z,,0,,,NaN,,,,,,false,,,,904074.5,904074.2000000477,,904073.2000000477,,904086.21,8,400,,,
break_continue,html.Screen,4_41_2,2023-10-31T22:22:51.839Z,,0,,,NaN,,,,,,false,,,,904075.0999999046,904074.899999857,,904074.5999999046,,904086.21,8,400,,,
sequence,flow.Sequence,4_41,2023-10-31T22:22:51.840Z,,0,,,3455.217999856919,completion,,,,,false,,,,904075.2999999523,904074.899999857,900603.016,900606,900619.682,904086.21,8,400,,,
trial,html.Screen,4_42_0,2023-10-31T22:22:55.813Z,,0,1,,3962.490000047721,response,ISIC_4695396.JPG,9,ISIC_0026329.JPG,ISIC_0026329.JPG,false,0,keypress(z),500,908049.2000000477,908048.7000000477,904069.544,904075.2999999523,904086.21,908052.718,8,400,43,,ISIC_4695396.JPG
break,html.Screen,4_42_1,2023-10-31T22:22:55.815Z,,0,,,NaN,,,,,,false,,,,908050.7000000477,908050.399999857,,908049.5,,908052.718,8,400,,,
break_continue,html.Screen,4_42_2,2023-10-31T22:22:55.816Z,,0,,,NaN,,,,,,false,,,,908051.2000000477,908051.0999999046,,908050.7999999523,,908052.718,8,400,,,
sequence,flow.Sequence,4_42,2023-10-31T22:22:55.816Z,,0,,,3964.88999990467,completion,,,,,false,,,,908051.2999999523,908051.0999999046,904069.544,904075.2999999523,904086.21,908052.718,8,400,,,
trial,html.Screen,4_43_0,2023-10-31T22:23:00.117Z,,0,1,,4299.681999856955,response,ISIC_0974833.JPG,8,ISIC_6449065.JPG,ISIC_6449065.JPG,false,0,keypress(z),500,912352.899999857,912352.399999857,908036.052,908051.5,908052.718,912369.212,8,400,44,,ISIC_0974833.JPG
break,html.Screen,4_43_1,2023-10-31T22:23:00.119Z,,0,,,NaN,,,,,,false,,,,912354.2999999523,912354.0999999046,,912353.2000000477,,912369.212,8,400,,,
break_continue,html.Screen,4_43_2,2023-10-31T22:23:00.119Z,,0,,,NaN,,,,,,false,,,,912354.7000000477,912354.5999999046,,912354.399999857,,912369.212,8,400,,,
sequence,flow.Sequence,4_43,2023-10-31T22:23:00.119Z,,0,,,4301.881999904639,completion,,,,,false,,,,912354.899999857,912354.5999999046,908036.052,908051.399999857,908052.718,912369.212,8,400,,,
trial,html.Screen,4_44_0,2023-10-31T22:23:03.470Z,,0,1,,3335.887999904575,response,ISIC_4640293.JPG,9,ISIC_0033405.JPG,ISIC_0033405.JPG,false,0,keypress(z),500,915705.5999999046,915705.0999999046,912352.546,912355,912369.212,915719.078,8,400,45,,ISIC_4640293.JPG
break,html.Screen,4_44_1,2023-10-31T22:23:03.472Z,,0,,,NaN,,,,,,false,,,,915707.399999857,915707.2000000477,,915705.7999999523,,915719.078,8,400,,,
break_continue,html.Screen,4_44_2,2023-10-31T22:23:03.472Z,,0,,,NaN,,,,,,false,,,,915708.0999999046,915707.899999857,,915707.5999999046,,915719.078,8,400,,,
sequence,flow.Sequence,4_44,2023-10-31T22:23:03.473Z,,0,,,3338.687999856891,completion,,,,,false,,,,915708.2999999523,915707.899999857,912352.546,912355,912369.212,915719.078,8,400,,,
trial,html.Screen,4_45_0,2023-10-31T22:23:07.141Z,,0,1,,3657.622000047704,response,ISIC_0028338.JPG,7,ISIC_0055924.JPG,ISIC_0055924.JPG,false,0,keypress(z),500,919377.2000000477,919376.7000000477,915702.412,915708.5,915719.078,919385.598,8,400,46,,ISIC_0028338.JPG
break,html.Screen,4_45_1,2023-10-31T22:23:07.143Z,,0,,,NaN,,,,,,false,,,,919378.899999857,919378.5,,919377.5999999046,,919385.598,8,400,,,
break_continue,html.Screen,4_45_2,2023-10-31T22:23:07.143Z,,0,,,NaN,,,,,,false,,,,919379.2999999523,919379.2000000477,,919379,,919385.598,8,400,,,
sequence,flow.Sequence,4_45,2023-10-31T22:23:07.144Z,,0,,,3660.122000047704,completion,,,,,false,,,,919379.5,919379.2000000477,915702.412,915708.399999857,915719.078,919385.598,8,400,,,
trial,html.Screen,4_46_0,2023-10-31T22:23:10.390Z,,0,1,,3239.6020000476856,response,ISIC_4374554.JPG,9,ISIC_2483825.JPG,ISIC_2483825.JPG,false,0,keypress(z),500,922625.7000000477,922625.2000000477,919368.932,919379.7000000477,919385.598,922635.468,8,400,47,,ISIC_4374554.JPG
break,html.Screen,4_46_1,2023-10-31T22:23:10.392Z,,0,,,NaN,,,,,,false,,,,922627.2999999523,922627.0999999046,,922626,,922635.468,8,400,,,
break_continue,html.Screen,4_46_2,2023-10-31T22:23:10.392Z,,0,,,NaN,,,,,,false,,,,922627.7999999523,922627.7000000477,,922627.5,,922635.468,8,400,,,
sequence,flow.Sequence,4_46,2023-10-31T22:23:10.392Z,,0,,,3242.1020000476856,completion,,,,,false,,,,922628,922627.7000000477,919368.932,919379.7000000477,919385.598,922635.468,8,400,,,
trial,html.Screen,4_47_0,2023-10-31T22:23:19.206Z,,0,1,,8805.631999904639,response,ISIC_0033998.JPG,8,ISIC_9203914.JPG,ISIC_0033998.JPG,false,1,keypress(m),500,931441.7000000477,931441.0999999046,922618.802,922628.0999999046,922635.468,931451.782,8,400,48,,ISIC_9203914.JPG
break,html.Screen,4_47_1,2023-10-31T22:23:19.208Z,,0,,,NaN,,,,,,false,,,,931443.399999857,931443.2000000477,,931442.0999999046,,931451.782,8,400,,,
break_continue,html.Screen,4_47_2,2023-10-31T22:23:19.208Z,,0,,,NaN,,,,,,false,,,,931443.7999999523,931443.7000000477,,931443.5999999046,,931451.782,8,400,,,
sequence,flow.Sequence,4_47,2023-10-31T22:23:19.208Z,,0,,,8808.23200004769,completion,,,,,false,,,,931444,931443.7000000477,922618.802,922628.0999999046,922635.468,931451.782,8,400,,,
trial,html.Screen,4_48_0,2023-10-31T22:23:30.703Z,,0,1,,11516.206000000006,timeout,ISIC_0032197.JPG,8,ISIC_4554863.JPG,,false,,,500,942939.5,942938.5999999046,931435.116,931444.0999999046,931451.782,942967.988,8,400,49,,
break,html.Screen,4_48_1,2023-10-31T22:23:30.705Z,,0,,,NaN,,,,,,false,,,,942941,942940.7999999523,,942939.7999999523,,942967.988,8,400,,,
break_continue,html.Screen,4_48_2,2023-10-31T22:23:30.705Z,,0,,,NaN,,,,,,false,,,,942941.399999857,942941.2999999523,,942941.2000000477,,942967.988,8,400,,,
sequence,flow.Sequence,4_48,2023-10-31T22:23:30.706Z,,0,,,11489.51799995231,completion,,,,,false,,,,942941.5999999046,942941.2999999523,931435.116,931444.0999999046,931451.782,942967.988,8,400,,,
trial,html.Screen,4_49_0,2023-10-31T22:23:34.678Z,,0,1,,3945.2120000476716,response,ISIC_8709211.JPG,7,ISIC_0011627.JPG,ISIC_0011627.JPG,false,0,keypress(z),500,946913.899999857,946913.2000000477,942951.322,942941.7000000477,942967.988,946917.83,8,400,50,,ISIC_8709211.JPG
break,html.Screen,4_49_1,2023-10-31T22:23:44.668Z,,0,,,9999.600000000093,timeout,,,,,false,,,,956904.5,956900.764,946901.164,946914.2999999523,946917.83,956917.43,8,400,,,
break_continue,html.Screen,4_49_2,2023-10-31T22:23:46.672Z,,0,,,1976.5699999999488,response,,,,,false,continue,keypress(Space),,958908,958894,956900.764,956904.7000000477,956917.43,958917.35,8,400,,,
sequence,flow.Sequence,4_49,2023-10-31T22:23:46.672Z,,0,,,15926.011999999988,completion,,,,,false,,,,958908.0999999046,958894,942951.322,942941.7000000477,942967.988,958917.35,8,400,,,
trial,html.Screen,4_50_0,2023-10-31T22:23:49.172Z,,0,2,,2491.1500000000233,response,ISIC_0059987.JPG,7,ISIC_0028691.JPG,ISIC_0028691.JPG,false,0,keypress(z),500,961408.7999999523,961408.5,958900.684,958908.2999999523,958917.35,961417.25,8,400,1,,ISIC_0059987.JPG
break,html.Screen,4_50_1,2023-10-31T22:23:49.173Z,,0,,,NaN,,,,,,false,,,,961409.5999999046,961409.399999857,,961409,,961417.25,8,400,,,
break_continue,html.Screen,4_50_2,2023-10-31T22:23:49.173Z,,0,,,NaN,,,,,,false,,,,961409.7999999523,961409.7999999523,,961409.5999999046,,961417.25,8,400,,,
sequence,flow.Sequence,4_50,2023-10-31T22:23:49.174Z,,0,,,2492.4499999523396,completion,,,,,false,,,,961409.7999999523,961409.7999999523,958900.684,958908.2000000477,958917.35,961417.25,8,400,,,
trial,html.Screen,4_51_0,2023-10-31T22:23:52.125Z,,0,2,,2943.649999856949,response,ISIC_0061066.JPG,10,ISIC_4368650.JPG,ISIC_4368650.JPG,false,0,keypress(z),500,964361.399999857,964360.899999857,961400.584,961410,961417.25,964367.132,8,400,2,,ISIC_0061066.JPG
break,html.Screen,4_51_1,2023-10-31T22:23:52.127Z,,0,,,NaN,,,,,,false,,,,964363,964362.7000000477,,964361.7999999523,,964367.132,8,400,,,
break_continue,html.Screen,4_51_2,2023-10-31T22:23:52.127Z,,0,,,NaN,,,,,,false,,,,964363.2999999523,964363.2999999523,,964363,,964367.132,8,400,,,
sequence,flow.Sequence,4_51,2023-10-31T22:23:52.127Z,,0,,,2946.0499999523163,completion,,,,,false,,,,964363.5999999046,964363.2999999523,961400.584,961409.899999857,961417.25,964367.132,8,400,,,
trial,html.Screen,4_52_0,2023-10-31T22:23:55.477Z,,0,2,,3345.4679999046493,response,ISIC_0033518.JPG,9,ISIC_0033217.JPG,ISIC_0033217.JPG,false,0,keypress(z),500,967713.0999999046,967712.5999999046,964350.466,964363.7000000477,964367.132,967716.998,8,400,3,,ISIC_0033518.JPG
break,html.Screen,4_52_1,2023-10-31T22:23:55.478Z,,0,,,NaN,,,,,,false,,,,967714.7000000477,967714.399999857,,967713.399999857,,967716.998,8,400,,,
break_continue,html.Screen,4_52_2,2023-10-31T22:23:55.479Z,,0,,,NaN,,,,,,false,,,,967715.2999999523,967715.2000000477,,967714.899999857,,967716.998,8,400,,,
sequence,flow.Sequence,4_52,2023-10-31T22:23:55.479Z,,0,,,3348.0680000477005,completion,,,,,false,,,,967715.399999857,967715.2000000477,964350.466,964363.5999999046,964367.132,967716.998,8,400,,,
trial,html.Screen,4_53_0,2023-10-31T22:23:58.717Z,,0,2,,3235.7020000476623,response,ISIC_0011944.JPG,7,ISIC_0010551.JPG,ISIC_0010551.JPG,false,0,keypress(z),500,970953.2000000477,970952.7000000477,967700.332,967715.5,967716.998,970966.868,8,400,4,,ISIC_0011944.JPG
break,html.Screen,4_53_1,2023-10-31T22:23:58.718Z,,0,,,NaN,,,,,,false,,,,970954.7999999523,970954.399999857,,970953.5,,970966.868,8,400,,,
break_continue,html.Screen,4_53_2,2023-10-31T22:23:58.719Z,,0,,,NaN,,,,,,false,,,,970955.5,970955.2999999523,,970955.0999999046,,970966.868,8,400,,,
sequence,flow.Sequence,4_53,2023-10-31T22:23:58.719Z,,0,,,3238.301999952295,completion,,,,,false,,,,970955.5999999046,970955.2999999523,967700.332,967715.399999857,967716.998,970966.868,8,400,,,
trial,html.Screen,4_54_0,2023-10-31T22:24:02.956Z,,0,2,,4225.631999999983,response,ISIC_0011132.JPG,9,ISIC_9747194.JPG,ISIC_0011132.JPG,false,1,keypress(m),500,975193,975192.5,970950.202,970955.7999999523,970966.868,975200.032,8,400,5,,ISIC_9747194.JPG
break,html.Screen,4_54_1,2023-10-31T22:24:02.958Z,,0,,,NaN,,,,,,false,,,,975194.5999999046,975194.0999999046,,975193.2999999523,,975200.032,8,400,,,
break_continue,html.Screen,4_54_2,2023-10-31T22:24:02.959Z,,0,,,NaN,,,,,,false,,,,975195,975194.7999999523,,975194.7000000477,,975200.032,8,400,,,
sequence,flow.Sequence,4_54,2023-10-31T22:24:02.959Z,,0,,,4227.9319999522995,completion,,,,,false,,,,975195.2000000477,975194.7999999523,970950.202,970955.7000000477,970966.868,975200.032,8,400,,,
trial,html.Screen,4_55_0,2023-10-31T22:24:06.957Z,,0,2,,3993.168000047677,response,ISIC_0066798.JPG,8,ISIC_0034216.JPG,ISIC_0034216.JPG,false,0,keypress(z),500,979193.7000000477,979193.2000000477,975183.366,975195.399999857,975200.032,979199.872,8,400,6,,ISIC_0066798.JPG
break,html.Screen,4_55_1,2023-10-31T22:24:06.959Z,,0,,,NaN,,,,,,false,,,,979195.399999857,979195.0999999046,,979193.899999857,,979199.872,8,400,,,
break_continue,html.Screen,4_55_2,2023-10-31T22:24:06.959Z,,0,,,NaN,,,,,,false,,,,979195.7000000477,979195.5999999046,,979195.5,,979199.872,8,400,,,
sequence,flow.Sequence,4_55,2023-10-31T22:24:06.959Z,,0,,,3995.567999904626,completion,,,,,false,,,,979195.899999857,979195.5999999046,975183.366,975195.2999999523,975200.032,979199.872,8,400,,,
trial,html.Screen,4_56_0,2023-10-31T22:24:10.341Z,,0,2,,3377.027999856975,response,ISIC_0025139.JPG,8,ISIC_0011437.JPG,ISIC_0011437.JPG,false,0,keypress(z),500,982577.399999857,982576.899999857,979183.206,979196,979199.872,982583.07,8,400,7,,ISIC_0025139.JPG
break,html.Screen,4_56_1,2023-10-31T22:24:10.342Z,,0,,,NaN,,,,,,false,,,,982578.899999857,982578.5999999046,,982577.7000000477,,982583.07,8,400,,,
break_continue,html.Screen,4_56_2,2023-10-31T22:24:10.343Z,,0,,,NaN,,,,,,false,,,,982579.2999999523,982579.2000000477,,982579,,982583.07,8,400,,,
sequence,flow.Sequence,4_56,2023-10-31T22:24:10.343Z,,0,,,3379.32800004771,completion,,,,,false,,,,982579.399999857,982579.2000000477,979183.206,979196,979199.872,982583.07,8,400,,,
trial,html.Screen,4_57_0,2023-10-31T22:24:15.253Z,,0,2,,4906.130000047735,response,ISIC_0054885.JPG,7,ISIC_0011495.JPG,ISIC_0054885.JPG,false,1,keypress(m),500,987489.5999999046,987489.2000000477,982566.404,982579.5,982583.07,987499.54,8,400,8,,ISIC_0011495.JPG
break,html.Screen,4_57_1,2023-10-31T22:24:15.255Z,,0,,,NaN,,,,,,false,,,,987491.0999999046,987490.899999857,,987489.899999857,,987499.54,8,400,,,
break_continue,html.Screen,4_57_2,2023-10-31T22:24:15.255Z,,0,,,NaN,,,,,,false,,,,987491.5999999046,987491.5999999046,,987491.2999999523,,987499.54,8,400,,,
sequence,flow.Sequence,4_57,2023-10-31T22:24:15.255Z,,0,,,4908.529999904684,completion,,,,,false,,,,987491.7999999523,987491.5999999046,982566.404,982579.5,982583.07,987499.54,8,400,,,
trial,html.Screen,4_58_0,2023-10-31T22:24:21.204Z,,0,2,,5940.759999952279,response,ISIC_7075474.JPG,8,ISIC_3436033.JPG,ISIC_3436033.JPG,false,0,keypress(z),500,993440.7000000477,993440.2999999523,987482.874,987492,987499.54,993449.302,8,400,9,,ISIC_7075474.JPG
break,html.Screen,4_58_1,2023-10-31T22:24:21.206Z,,0,,,NaN,,,,,,false,,,,993442.2999999523,993442,,993441,,993449.302,8,400,,,
break_continue,html.Screen,4_58_2,2023-10-31T22:24:21.206Z,,0,,,NaN,,,,,,false,,,,993442.7000000477,993442.5999999046,,993442.399999857,,993449.302,8,400,,,
sequence,flow.Sequence,4_58,2023-10-31T22:24:21.206Z,,0,,,5943.059999904595,completion,,,,,false,,,,993442.899999857,993442.5999999046,987482.874,987492,987499.54,993449.302,8,400,,,
trial,html.Screen,4_59_0,2023-10-31T22:24:25.837Z,,0,2,,4624.097999856924,response,ISIC_0063492.JPG,9,ISIC_5736292.JPG,ISIC_0063492.JPG,false,1,keypress(m),500,998074.2000000477,998073.399999857,993432.636,993443,993449.302,998082.45,8,400,10,,ISIC_5736292.JPG
break,html.Screen,4_59_1,2023-10-31T22:24:25.840Z,,0,,,NaN,,,,,,false,,,,998076.7000000477,998076.2999999523,,998074.7999999523,,998082.45,8,400,,,
break_continue,html.Screen,4_59_2,2023-10-31T22:24:25.840Z,,0,,,NaN,,,,,,false,,,,998077.0999999046,998077,,998076.7999999523,,998082.45,8,400,,,
sequence,flow.Sequence,4_59,2023-10-31T22:24:25.841Z,,0,,,4627.697999999975,completion,,,,,false,,,,998077.5,998077,993432.636,993443,993449.302,998082.45,8,400,,,
trial,html.Screen,4_60_0,2023-10-31T22:24:28.900Z,,0,2,,3054.0500000000466,response,ISIC_1802502.JPG,7,ISIC_0032596.JPG,ISIC_0032596.JPG,false,0,keypress(z),500,1001136.899999857,1001136.5,998065.784,998077.5999999046,998082.45,1001148.994,8,400,11,,ISIC_1802502.JPG
break,html.Screen,4_60_1,2023-10-31T22:24:28.902Z,,0,,,NaN,,,,,,false,,,,1001138.5,1001138.2999999523,,1001137.2000000477,,1001148.994,8,400,,,
break_continue,html.Screen,4_60_2,2023-10-31T22:24:28.902Z,,0,,,NaN,,,,,,false,,,,1001139,1001138.899999857,,1001138.7000000477,,1001148.994,8,400,,,
sequence,flow.Sequence,4_60,2023-10-31T22:24:28.902Z,,0,,,3056.4499998569954,completion,,,,,false,,,,1001139.2000000477,1001138.899999857,998065.784,998077.5,998082.45,1001148.994,8,400,,,
trial,html.Screen,4_61_0,2023-10-31T22:24:31.959Z,,0,2,,3044.3059999523684,response,ISIC_0031649.JPG,9,ISIC_0072473.JPG,ISIC_0072473.JPG,false,0,keypress(z),500,1004195.899999857,1004193.2999999523,1001132.328,1001139.2999999523,1001148.994,1004198.872,8,400,12,,ISIC_0031649.JPG
break,html.Screen,4_61_1,2023-10-31T22:24:31.960Z,,0,,,NaN,,,,,,false,,,,1004197,1004196.7999999523,,1004196.0999999046,,1004198.872,8,400,,,
break_continue,html.Screen,4_61_2,2023-10-31T22:24:31.960Z,,0,,,NaN,,,,,,false,,,,1004197.399999857,1004197.2000000477,,1004197.2000000477,,1004198.872,8,400,,,
sequence,flow.Sequence,4_61,2023-10-31T22:24:31.961Z,,0,,,3048.206000047736,completion,,,,,false,,,,1004197.5,1004197.2000000477,1001132.328,1001139.2999999523,1001148.994,1004198.872,8,400,,,
trial,html.Screen,4_62_0,2023-10-31T22:24:35.629Z,,0,2,,3666.527999856975,response,ISIC_2193761.JPG,7,ISIC_0010372.JPG,ISIC_0010372.JPG,false,0,keypress(z),500,1007865.899999857,1007865.399999857,1004182.206,1004197.5999999046,1004198.872,1007882.058,8,400,13,,ISIC_2193761.JPG
break,html.Screen,4_62_1,2023-10-31T22:24:35.630Z,,0,,,NaN,,,,,,false,,,,1007867.399999857,1007867.0999999046,,1007866.0999999046,,1007882.058,8,400,,,
break_continue,html.Screen,4_62_2,2023-10-31T22:24:35.631Z,,0,,,NaN,,,,,,false,,,,1007867.899999857,1007867.5999999046,,1007867.5,,1007882.058,8,400,,,
sequence,flow.Sequence,4_62,2023-10-31T22:24:35.631Z,,0,,,3668.7279999046586,completion,,,,,false,,,,1007868,1007867.5999999046,1004182.206,1004197.5,1004198.872,1007882.058,8,400,,,
trial,html.Screen,4_63_0,2023-10-31T22:24:38.741Z,,0,2,,3095.0419999046717,response,ISIC_7976934.JPG,8,ISIC_6541615.JPG,ISIC_6541615.JPG,false,0,keypress(z),500,1010977.5,1010977.0999999046,1007865.392,1007868.2000000477,1007882.058,1010981.934,8,400,14,,ISIC_7976934.JPG
break,html.Screen,4_63_1,2023-10-31T22:24:38.742Z,,0,,,NaN,,,,,,false,,,,1010979,1010978.7000000477,,1010977.7000000477,,1010981.934,8,400,,,
break_continue,html.Screen,4_63_2,2023-10-31T22:24:38.742Z,,0,,,NaN,,,,,,false,,,,1010979.2999999523,1010979.2999999523,,1010979.2000000477,,1010981.934,8,400,,,
sequence,flow.Sequence,4_63,2023-10-31T22:24:38.742Z,,0,,,3097.2419999523554,completion,,,,,false,,,,1010979.5,1010979.2999999523,1007865.392,1007868.0999999046,1007882.058,1010981.934,8,400,,,
trial,html.Screen,4_64_0,2023-10-31T22:24:43.388Z,,0,2,,4642.266000047675,response,ISIC_7948290.JPG,9,ISIC_3963183.JPG,ISIC_3963183.JPG,false,0,keypress(z),500,1015624.7000000477,1015624.2000000477,1010965.268,1010979.5999999046,1010981.934,1015631.748,8,400,15,,ISIC_7948290.JPG
break,html.Screen,4_64_1,2023-10-31T22:24:43.389Z,,0,,,NaN,,,,,,false,,,,1015626.0999999046,1015625.7999999523,,1015625,,1015631.748,8,400,,,
break_continue,html.Screen,4_64_2,2023-10-31T22:24:43.390Z,,0,,,NaN,,,,,,false,,,,1015626.5999999046,1015626.5,,1015626.2000000477,,1015631.748,8,400,,,
sequence,flow.Sequence,4_64,2023-10-31T22:24:43.390Z,,0,,,4644.565999999992,completion,,,,,false,,,,1015626.7000000477,1015626.5,1010965.268,1010979.5999999046,1010981.934,1015631.748,8,400,,,
trial,html.Screen,4_65_0,2023-10-31T22:24:47.740Z,,0,2,,4345.151999856927,response,ISIC_3717983.JPG,8,ISIC_0059892.JPG,ISIC_3717983.JPG,false,1,keypress(m),500,1019977.2000000477,1019976.899999857,1015615.082,1015627,1015631.748,1019981.574,8,400,16,,ISIC_0059892.JPG
break,html.Screen,4_65_1,2023-10-31T22:24:47.742Z,,0,,,NaN,,,,,,false,,,,1019978.7000000477,1019978.399999857,,1019977.5,,1019981.574,8,400,,,
break_continue,html.Screen,4_65_2,2023-10-31T22:24:47.742Z,,0,,,NaN,,,,,,false,,,,1019979.0999999046,1019979.0999999046,,1019978.899999857,,1019981.574,8,400,,,
sequence,flow.Sequence,4_65,2023-10-31T22:24:47.742Z,,0,,,4347.351999904611,completion,,,,,false,,,,1019979.2999999523,1019979.0999999046,1015615.082,1015626.899999857,1015631.748,1019981.574,8,400,,,
trial,html.Screen,4_66_0,2023-10-31T22:24:50.796Z,,0,2,,3051.3259998569265,response,ISIC_5736292.JPG,9,ISIC_8575769.JPG,ISIC_8575769.JPG,false,0,keypress(z),500,1023033.2999999523,1023032.899999857,1019964.908,1019979.399999857,1019981.574,1023048.118,8,400,17,,ISIC_5736292.JPG
break,html.Screen,4_66_1,2023-10-31T22:24:50.798Z,,0,,,NaN,,,,,,false,,,,1023034.7999999523,1023034.5,,1023033.5999999046,,1023048.118,8,400,,,
break_continue,html.Screen,4_66_2,2023-10-31T22:24:50.798Z,,0,,,NaN,,,,,,false,,,,1023035.2999999523,1023035.0999999046,,1023034.899999857,,1023048.118,8,400,,,
sequence,flow.Sequence,4_66,2023-10-31T22:24:50.798Z,,0,,,3053.52599990461,completion,,,,,false,,,,1023035.399999857,1023035.0999999046,1019964.908,1019979.2999999523,1019981.574,1023048.118,8,400,,,
trial,html.Screen,4_67_0,2023-10-31T22:24:54.108Z,,0,2,,3296.3819999999832,response,ISIC_3942075.JPG,8,ISIC_0054892.JPG,ISIC_3942075.JPG,false,1,keypress(m),500,1026345,1026344.5,1023031.452,1023035.5999999046,1023048.118,1026347.986,8,400,18,,ISIC_0054892.JPG
break,html.Screen,4_67_1,2023-10-31T22:24:54.109Z,,0,,,NaN,,,,,,false,,,,1026346.399999857,1026346.2000000477,,1026345.2999999523,,1026347.986,8,400,,,
break_continue,html.Screen,4_67_2,2023-10-31T22:24:54.110Z,,0,,,NaN,,,,,,false,,,,1026346.899999857,1026346.7000000477,,1026346.5999999046,,1026347.986,8,400,,,
sequence,flow.Sequence,4_67,2023-10-31T22:24:54.110Z,,0,,,3298.582000047667,completion,,,,,false,,,,1026347,1026346.7000000477,1023031.452,1023035.5999999046,1023048.118,1026347.986,8,400,,,
trial,html.Screen,4_68_0,2023-10-31T22:24:57.556Z,,0,2,,3444.3139999522828,response,ISIC_0071904.JPG,9,ISIC_0027130.JPG,ISIC_0027130.JPG,false,0,keypress(z),500,1029792.7999999523,1029792.2999999523,1026331.32,1026347.0999999046,1026347.986,1029797.848,8,400,19,,ISIC_0071904.JPG
break,html.Screen,4_68_1,2023-10-31T22:24:57.557Z,,0,,,NaN,,,,,,false,,,,1029794.399999857,1029794.2000000477,,1029793.0999999046,,1029797.848,8,400,,,
break_continue,html.Screen,4_68_2,2023-10-31T22:24:57.558Z,,0,,,NaN,,,,,,false,,,,1029794.899999857,1029794.7999999523,,1029794.5,,1029797.848,8,400,,,
sequence,flow.Sequence,4_68,2023-10-31T22:24:57.558Z,,0,,,3446.8139999522828,completion,,,,,false,,,,1029795.0999999046,1029794.7999999523,1026331.32,1026347.0999999046,1026347.986,1029797.848,8,400,,,
trial,html.Screen,4_69_0,2023-10-31T22:25:00.836Z,,0,2,,3274.8520000476856,response,ISIC_8145348.JPG,9,ISIC_0176781.JPG,ISIC_8145348.JPG,false,1,keypress(m),500,1033073.2000000477,1033072.7000000477,1029781.182,1029795.0999999046,1029797.848,1033097.716,8,400,20,,ISIC_0176781.JPG
break,html.Screen,4_69_1,2023-10-31T22:25:00.837Z,,0,,,NaN,,,,,,false,,,,1033074.7000000477,1033074.5,,1033073.5999999046,,1033097.716,8,400,,,
break_continue,html.Screen,4_69_2,2023-10-31T22:25:00.838Z,,0,,,NaN,,,,,,false,,,,1033075.2999999523,1033075.0999999046,,1033074.899999857,,1033097.716,8,400,,,
sequence,flow.Sequence,4_69,2023-10-31T22:25:00.838Z,,0,,,3277.2519999046344,completion,,,,,false,,,,1033075.399999857,1033075.0999999046,1029781.182,1029795.0999999046,1029797.848,1033097.716,8,400,,,
trial,html.Screen,4_70_0,2023-10-31T22:25:04.364Z,,0,2,,3503.283999999985,response,ISIC_1619814.JPG,9,ISIC_9103090.JPG,ISIC_1619814.JPG,false,1,keypress(m),500,1036601.399999857,1036601,1033081.05,1033075.5999999046,1033097.716,1036614.242,8,400,21,,ISIC_9103090.JPG
break,html.Screen,4_70_1,2023-10-31T22:25:04.366Z,,0,,,NaN,,,,,,false,,,,1036602.899999857,1036602.5999999046,,1036601.7000000477,,1036614.242,8,400,,,
break_continue,html.Screen,4_70_2,2023-10-31T22:25:04.366Z,,0,,,NaN,,,,,,false,,,,1036603.399999857,1036603.2000000477,,1036603,,1036614.242,8,400,,,
sequence,flow.Sequence,4_70,2023-10-31T22:25:04.366Z,,0,,,3505.484000047669,completion,,,,,false,,,,1036603.5999999046,1036603.2000000477,1033081.05,1033075.5,1033097.716,1036614.242,8,400,,,
trial,html.Screen,4_71_0,2023-10-31T22:25:07.524Z,,0,2,,3147.057999952347,response,ISIC_6915759.JPG,9,ISIC_4312841.JPG,ISIC_4312841.JPG,false,0,keypress(z),500,1039761.899999857,1039761.2999999523,1036597.576,1036603.7000000477,1036614.242,1039780.782,8,400,22,,ISIC_6915759.JPG
break,html.Screen,4_71_1,2023-10-31T22:25:07.526Z,,0,,,NaN,,,,,,false,,,,1039763.399999857,1039763.0999999046,,1039762.2000000477,,1039780.782,8,400,,,
break_continue,html.Screen,4_71_2,2023-10-31T22:25:07.526Z,,0,,,NaN,,,,,,false,,,,1039763.7999999523,1039763.7000000477,,1039763.5,,1039780.782,8,400,,,
sequence,flow.Sequence,4_71,2023-10-31T22:25:07.526Z,,0,,,3149.4580000477144,completion,,,,,false,,,,1039763.7999999523,1039763.7000000477,1036597.576,1036603.5999999046,1036614.242,1039780.782,8,400,,,
trial,html.Screen,4_72_0,2023-10-31T22:25:11.108Z,,0,2,,3563.7179999999935,response,ISIC_0064943.JPG,8,ISIC_2271767.JPG,ISIC_0064943.JPG,false,1,keypress(m),500,1043345,1043344.5,1039764.116,1039763.899999857,1039780.782,1043347.306,8,400,23,,ISIC_2271767.JPG
break,html.Screen,4_72_1,2023-10-31T22:25:11.109Z,,0,,,NaN,,,,,,false,,,,1043346.5999999046,1043346.2999999523,,1043345.399999857,,1043347.306,8,400,,,
break_continue,html.Screen,4_72_2,2023-10-31T22:25:11.110Z,,0,,,NaN,,,,,,false,,,,1043347,1043346.899999857,,1043346.7000000477,,1043347.306,8,400,,,
sequence,flow.Sequence,4_72,2023-10-31T22:25:11.110Z,,0,,,3566.1179998569423,completion,,,,,false,,,,1043347.0999999046,1043346.899999857,1039764.116,1039763.899999857,1039780.782,1043347.306,8,400,,,
trial,html.Screen,4_73_0,2023-10-31T22:25:14.107Z,,0,2,,2997.0939998569665,response,ISIC_0069995.JPG,9,ISIC_0054206.JPG,ISIC_0069995.JPG,false,1,keypress(m),500,1046344.7999999523,1046344.399999857,1043330.64,1043347.2999999523,1043347.306,1046347.186,8,400,24,,ISIC_0054206.JPG
break,html.Screen,4_73_1,2023-10-31T22:25:14.109Z,,0,,,NaN,,,,,,false,,,,1046346.2999999523,1046346,,1046345.0999999046,,1046347.186,8,400,,,
break_continue,html.Screen,4_73_2,2023-10-31T22:25:14.109Z,,0,,,NaN,,,,,,false,,,,1046346.5999999046,1046346.5,,1046346.2999999523,,1046347.186,8,400,,,
sequence,flow.Sequence,4_73,2023-10-31T22:25:14.109Z,,0,,,2999.1940000000177,completion,,,,,false,,,,1046346.7000000477,1046346.5,1043330.64,1043347.2000000477,1043347.306,1046347.186,8,400,,,
trial,html.Screen,4_74_0,2023-10-31T22:25:16.876Z,,0,2,,2765.314000000013,response,ISIC_6644659.JPG,10,ISIC_4107250.JPG,ISIC_6644659.JPG,false,1,keypress(m),500,1049113.2000000477,1049112.5,1046330.52,1046346.7999999523,1046347.186,1049130.408,8,400,25,,ISIC_4107250.JPG
break,html.Screen,4_74_1,2023-10-31T22:25:16.877Z,,0,,,NaN,,,,,,false,,,,1049115,1049114.5999999046,,1049113.5999999046,,1049130.408,8,400,,,
break_continue,html.Screen,4_74_2,2023-10-31T22:25:16.878Z,,0,,,NaN,,,,,,false,,,,1049115.399999857,1049115.2999999523,,1049115.0999999046,,1049130.408,8,400,,,
sequence,flow.Sequence,4_74,2023-10-31T22:25:16.878Z,,0,,,2768.1139999523293,completion,,,,,false,,,,1049115.5999999046,1049115.2999999523,1046330.52,1046346.7999999523,1046347.186,1049130.408,8,400,,,
trial,html.Screen,4_75_0,2023-10-31T22:25:19.988Z,,0,2,,3094.8919999522623,response,ISIC_0031674.JPG,8,ISIC_6383486.JPG,ISIC_0031674.JPG,false,1,keypress(m),500,1052225.7999999523,1052225.2999999523,1049113.742,1049115.7000000477,1049130.408,1052230.284,8,400,26,,ISIC_6383486.JPG
break,html.Screen,4_75_1,2023-10-31T22:25:19.990Z,,0,,,NaN,,,,,,false,,,,1052227.2999999523,1052227,,1052226,,1052230.284,8,400,,,
break_continue,html.Screen,4_75_2,2023-10-31T22:25:19.990Z,,0,,,NaN,,,,,,false,,,,1052227.7999999523,1052227.5999999046,,1052227.399999857,,1052230.284,8,400,,,
sequence,flow.Sequence,4_75,2023-10-31T22:25:19.990Z,,0,,,3097.1919999045786,completion,,,,,false,,,,1052227.899999857,1052227.5999999046,1049113.742,1049115.7000000477,1049130.408,1052230.284,8,400,,,
trial,html.Screen,4_76_0,2023-10-31T22:25:22.772Z,,0,2,,2778.716000000015,response,ISIC_0839675.JPG,9,ISIC_4475268.JPG,ISIC_4475268.JPG,false,0,keypress(z),500,1055009.399999857,1055009,1052213.618,1052228,1052230.284,1055013.506,8,400,27,,ISIC_0839675.JPG
break,html.Screen,4_76_1,2023-10-31T22:25:22.773Z,,0,,,NaN,,,,,,false,,,,1055011,1055010.7999999523,,1055009.7000000477,,1055013.506,8,400,,,
break_continue,html.Screen,4_76_2,2023-10-31T22:25:22.774Z,,0,,,NaN,,,,,,false,,,,1055011.5,1055011.399999857,,1055011.0999999046,,1055013.506,8,400,,,
sequence,flow.Sequence,4_76,2023-10-31T22:25:22.774Z,,0,,,2781.1159998569638,completion,,,,,false,,,,1055011.7000000477,1055011.399999857,1052213.618,1052227.899999857,1052230.284,1055013.506,8,400,,,
trial,html.Screen,4_77_0,2023-10-31T22:25:25.860Z,,0,2,,3083.6940000476316,response,ISIC_0001831.JPG,8,ISIC_0057815.JPG,ISIC_0057815.JPG,false,0,keypress(z),500,1058097.7999999523,1058097.2000000477,1054996.84,1055011.7999999523,1055013.506,1058113.382,8,400,28,,ISIC_0001831.JPG
break,html.Screen,4_77_1,2023-10-31T22:25:25.862Z,,0,,,NaN,,,,,,false,,,,1058099.2999999523,1058099,,1058098.0999999046,,1058113.382,8,400,,,
break_continue,html.Screen,4_77_2,2023-10-31T22:25:25.862Z,,0,,,NaN,,,,,,false,,,,1058099.7999999523,1058099.5999999046,,1058099.399999857,,1058113.382,8,400,,,
sequence,flow.Sequence,4_77,2023-10-31T22:25:25.862Z,,0,,,3086.0939999045804,completion,,,,,false,,,,1058100.0999999046,1058099.5999999046,1054996.84,1055011.7000000477,1055013.506,1058113.382,8,400,,,
trial,html.Screen,4_78_0,2023-10-31T22:25:28.867Z,,0,2,,2990.917999952333,response,ISIC_0055378.JPG,7,ISIC_4691943.JPG,ISIC_0055378.JPG,false,1,keypress(m),500,1061104.7999999523,1061104.2999999523,1058096.716,1058100.2999999523,1058113.382,1061113.262,8,400,29,,ISIC_4691943.JPG
break,html.Screen,4_78_1,2023-10-31T22:25:28.869Z,,0,,,NaN,,,,,,false,,,,1061106.2999999523,1061106,,1061105,,1061113.262,8,400,,,
break_continue,html.Screen,4_78_2,2023-10-31T22:25:28.869Z,,0,,,NaN,,,,,,false,,,,1061106.7999999523,1061106.7000000477,,1061106.399999857,,1061113.262,8,400,,,
sequence,flow.Sequence,4_78,2023-10-31T22:25:28.869Z,,0,,,2993.3180000477005,completion,,,,,false,,,,1061106.899999857,1061106.7000000477,1058096.716,1058100.2999999523,1058113.382,1061113.262,8,400,,,
trial,html.Screen,4_79_0,2023-10-31T22:25:31.787Z,,0,2,,2911.3379999045283,response,ISIC_8163269.JPG,9,ISIC_0032630.JPG,ISIC_8163269.JPG,false,1,keypress(m),500,1064025,1064024.5999999046,1061096.596,1061107.0999999046,1061113.262,1064029.812,8,400,30,,ISIC_0032630.JPG
break,html.Screen,4_79_1,2023-10-31T22:25:31.789Z,,0,,,NaN,,,,,,false,,,,1064026.5,1064026.2000000477,,1064025.2999999523,,1064029.812,8,400,,,
break_continue,html.Screen,4_79_2,2023-10-31T22:25:31.789Z,,0,,,NaN,,,,,,false,,,,1064027,1064026.7999999523,,1064026.7000000477,,1064029.812,8,400,,,
sequence,flow.Sequence,4_79,2023-10-31T22:25:31.789Z,,0,,,2913.537999952212,completion,,,,,false,,,,1064027.2000000477,1064026.7999999523,1061096.596,1061107.0999999046,1061113.262,1064029.812,8,400,,,
trial,html.Screen,4_80_0,2023-10-31T22:25:34.747Z,,0,2,,2954.8880000477657,response,ISIC_1644520.JPG,9,ISIC_0024745.JPG,ISIC_1644520.JPG,false,1,keypress(m),500,1066985.0999999046,1066984.7000000477,1064013.146,1064027.2999999523,1064029.812,1066996.36,8,400,31,,ISIC_0024745.JPG
break,html.Screen,4_80_1,2023-10-31T22:25:34.749Z,,0,,,NaN,,,,,,false,,,,1066986.7000000477,1066986.399999857,,1066985.5,,1066996.36,8,400,,,
break_continue,html.Screen,4_80_2,2023-10-31T22:25:34.749Z,,0,,,NaN,,,,,,false,,,,1066987,1066986.899999857,,1066986.7999999523,,1066996.36,8,400,,,
sequence,flow.Sequence,4_80,2023-10-31T22:25:34.750Z,,0,,,2957.087999857031,completion,,,,,false,,,,1066987.2999999523,1066986.899999857,1064013.146,1064027.2999999523,1064029.812,1066996.36,8,400,,,
trial,html.Screen,4_81_0,2023-10-31T22:25:37.476Z,,0,2,,2716.439999952214,response,ISIC_0719631.JPG,9,ISIC_0034164.JPG,ISIC_0719631.JPG,false,1,keypress(m),500,1069713.2000000477,1069712.7999999523,1066979.694,1066987.2999999523,1066996.36,1069729.584,8,400,32,,ISIC_0034164.JPG
break,html.Screen,4_81_1,2023-10-31T22:25:37.477Z,,0,,,NaN,,,,,,false,,,,1069714.7999999523,1069714.5999999046,,1069713.5999999046,,1069729.584,8,400,,,
break_continue,html.Screen,4_81_2,2023-10-31T22:25:37.477Z,,0,,,NaN,,,,,,false,,,,1069715.2000000477,1069715.0999999046,,1069714.899999857,,1069729.584,8,400,,,
sequence,flow.Sequence,4_81,2023-10-31T22:25:37.478Z,,0,,,2718.73999990453,completion,,,,,false,,,,1069715.2999999523,1069715.0999999046,1066979.694,1066987.2999999523,1066996.36,1069729.584,8,400,,,
trial,html.Screen,4_82_0,2023-10-31T22:25:41.492Z,,0,2,,3999.616000047652,response,ISIC_6392089.JPG,9,ISIC_9544832.JPG,ISIC_9544832.JPG,false,0,keypress(z),500,1073729.5999999046,1073729.2000000477,1069712.918,1069715.399999857,1069729.584,1073746.09,8,400,33,,ISIC_6392089.JPG
break,html.Screen,4_82_1,2023-10-31T22:25:41.493Z,,0,,,NaN,,,,,,false,,,,1073731.2000000477,1073730.7999999523,,1073729.899999857,,1073746.09,8,400,,,
break_continue,html.Screen,4_82_2,2023-10-31T22:25:41.494Z,,0,,,NaN,,,,,,false,,,,1073731.5999999046,1073731.5,,1073731.2999999523,,1073746.09,8,400,,,
sequence,flow.Sequence,4_82,2023-10-31T22:25:41.494Z,,0,,,4001.9159999999683,completion,,,,,false,,,,1073731.7000000477,1073731.5,1069712.918,1069715.399999857,1069729.584,1073746.09,8,400,,,
trial,html.Screen,4_83_0,2023-10-31T22:25:45.108Z,,0,2,,3599.309999856865,response,ISIC_2108849.JPG,8,ISIC_0029459.JPG,ISIC_2108849.JPG,false,1,keypress(m),500,1077346,1077345.399999857,1073729.424,1073731.899999857,1073746.09,1077362.612,8,400,34,,ISIC_0029459.JPG
break,html.Screen,4_83_1,2023-10-31T22:25:45.111Z,,0,,,NaN,,,,,,false,,,,1077348.7999999523,1077348.2000000477,,1077346.5999999046,,1077362.612,8,400,,,
break_continue,html.Screen,4_83_2,2023-10-31T22:25:45.112Z,,0,,,NaN,,,,,,false,,,,1077349.5,1077349.399999857,,1077349,,1077362.612,8,400,,,
sequence,flow.Sequence,4_83,2023-10-31T22:25:45.112Z,,0,,,3603.309999856865,completion,,,,,false,,,,1077349.7000000477,1077349.399999857,1073729.424,1073731.899999857,1073746.09,1077362.612,8,400,,,
trial,html.Screen,4_84_0,2023-10-31T22:25:49.059Z,,0,2,,3933.987999904668,response,ISIC_0013636.JPG,6,ISIC_0277705.JPG,ISIC_0013636.JPG,false,1,keypress(m),500,1081297.0999999046,1081296.5999999046,1077345.946,1077349.7999999523,1077362.612,1081312.454,8,400,35,,ISIC_0277705.JPG
break,html.Screen,4_84_1,2023-10-31T22:25:49.061Z,,0,,,NaN,,,,,,false,,,,1081298.7000000477,1081298.399999857,,1081297.2999999523,,1081312.454,8,400,,,
break_continue,html.Screen,4_84_2,2023-10-31T22:25:49.061Z,,0,,,NaN,,,,,,false,,,,1081299.0999999046,1081298.899999857,,1081298.7999999523,,1081312.454,8,400,,,
sequence,flow.Sequence,4_84,2023-10-31T22:25:49.061Z,,0,,,3936.2879998569842,completion,,,,,false,,,,1081299.2000000477,1081298.899999857,1077345.946,1077349.7999999523,1077362.612,1081312.454,8,400,,,
trial,html.Screen,4_85_0,2023-10-31T22:25:51.699Z,,0,2,,2623.8459999524057,response,ISIC_1956504.JPG,9,ISIC_0010655.JPG,ISIC_1956504.JPG,false,1,keypress(m),500,1083936.7999999523,1083936.2999999523,1081295.788,1081299.399999857,1081312.454,1083945.682,8,400,36,,ISIC_0010655.JPG
break,html.Screen,4_85_1,2023-10-31T22:25:51.700Z,,0,,,NaN,,,,,,false,,,,1083938.2999999523,1083938,,1083937.0999999046,,1083945.682,8,400,,,
break_continue,html.Screen,4_85_2,2023-10-31T22:25:51.701Z,,0,,,NaN,,,,,,false,,,,1083939.0999999046,1083938.899999857,,1083938.5,,1083945.682,8,400,,,
sequence,flow.Sequence,4_85,2023-10-31T22:25:51.701Z,,0,,,2626.4459998570383,completion,,,,,false,,,,1083939.2000000477,1083938.899999857,1081295.788,1081299.2999999523,1081312.454,1083945.682,8,400,,,
trial,html.Screen,4_86_0,2023-10-31T22:25:55.451Z,,0,2,,3743.018000047654,response,ISIC_8849818.JPG,9,ISIC_0078703.JPG,ISIC_0078703.JPG,false,0,keypress(z),500,1087689.2999999523,1087688.7000000477,1083929.016,1083939.2999999523,1083945.682,1087695.532,8,400,37,,ISIC_8849818.JPG
break,html.Screen,4_86_1,2023-10-31T22:25:55.453Z,,0,,,NaN,,,,,,false,,,,1087690.7999999523,1087690.5,,1087689.5999999046,,1087695.532,8,400,,,
break_continue,html.Screen,4_86_2,2023-10-31T22:25:55.453Z,,0,,,NaN,,,,,,false,,,,1087691.2999999523,1087691.0999999046,,1087691,,1087695.532,8,400,,,
sequence,flow.Sequence,4_86,2023-10-31T22:25:55.453Z,,0,,,3745.4179999046028,completion,,,,,false,,,,1087691.5,1087691.0999999046,1083929.016,1083939.2000000477,1083945.682,1087695.532,8,400,,,
trial,html.Screen,4_87_0,2023-10-31T22:25:58.419Z,,0,2,,2961.1680000477936,response,ISIC_0029322.JPG,9,ISIC_0030404.JPG,ISIC_0029322.JPG,false,1,keypress(m),500,1090657.2000000477,1090656.7000000477,1087678.866,1087691.5,1087695.532,1090662.08,8,400,38,,ISIC_0030404.JPG
break,html.Screen,4_87_1,2023-10-31T22:25:58.421Z,,0,,,NaN,,,,,,false,,,,1090658.7000000477,1090658.399999857,,1090657.5,,1090662.08,8,400,,,
break_continue,html.Screen,4_87_2,2023-10-31T22:25:58.421Z,,0,,,NaN,,,,,,false,,,,1090659.2999999523,1090659.2000000477,,1090658.899999857,,1090662.08,8,400,,,
sequence,flow.Sequence,4_87,2023-10-31T22:25:58.421Z,,0,,,2963.6680000477936,completion,,,,,false,,,,1090659.5,1090659.2000000477,1087678.866,1087691.5,1087695.532,1090662.08,8,400,,,
trial,html.Screen,4_88_0,2023-10-31T22:26:02.419Z,,0,2,,3994.4199999999255,response,ISIC_0029050.JPG,7,ISIC_0064298.JPG,ISIC_0064298.JPG,false,0,keypress(z),500,1094657,1094656.5,1090645.414,1090659.5,1090662.08,1094661.92,8,400,39,,ISIC_0029050.JPG
break,html.Screen,4_88_1,2023-10-31T22:26:02.420Z,,0,,,NaN,,,,,,false,,,,1094658.5,1094658.0999999046,,1094657.2999999523,,1094661.92,8,400,,,
break_continue,html.Screen,4_88_2,2023-10-31T22:26:02.421Z,,0,,,NaN,,,,,,false,,,,1094658.899999857,1094658.7999999523,,1094658.5,,1094661.92,8,400,,,
sequence,flow.Sequence,4_88,2023-10-31T22:26:02.421Z,,0,,,3996.719999952242,completion,,,,,false,,,,1094659.0999999046,1094658.7999999523,1090645.414,1090659.5,1090662.08,1094661.92,8,400,,,
trial,html.Screen,4_89_0,2023-10-31T22:26:05.683Z,,0,2,,3258.5800000000745,response,ISIC_0032586.JPG,9,ISIC_5320483.JPG,ISIC_0032586.JPG,false,1,keypress(m),500,1097920.7999999523,1097920.5,1094645.254,1094659.2000000477,1094661.92,1097928.456,8,400,40,,ISIC_5320483.JPG
break,html.Screen,4_89_1,2023-10-31T22:26:05.684Z,,0,,,NaN,,,,,,false,,,,1097921.7000000477,1097921.5,,1097921.0999999046,,1097928.456,8,400,,,
break_continue,html.Screen,4_89_2,2023-10-31T22:26:05.684Z,,0,,,NaN,,,,,,false,,,,1097921.7999999523,1097921.7999999523,,1097921.7999999523,,1097928.456,8,400,,,
sequence,flow.Sequence,4_89,2023-10-31T22:26:05.684Z,,0,,,3259.879999952391,completion,,,,,false,,,,1097921.899999857,1097921.7999999523,1094645.254,1094659.2000000477,1094661.92,1097928.456,8,400,,,
trial,html.Screen,4_90_0,2023-10-31T22:26:09.507Z,,0,2,,3816.8439999523107,response,ISIC_0894785.JPG,10,ISIC_1389563.JPG,ISIC_0894785.JPG,false,1,keypress(m),500,1101745.5999999046,1101745.2999999523,1097911.79,1097922,1097928.456,1101761.636,8,400,41,,ISIC_1389563.JPG
break,html.Screen,4_90_1,2023-10-31T22:26:09.509Z,,0,,,NaN,,,,,,false,,,,1101747.0999999046,1101746.7999999523,,1101746,,1101761.636,8,400,,,
break_continue,html.Screen,4_90_2,2023-10-31T22:26:09.509Z,,0,,,NaN,,,,,,false,,,,1101747.5999999046,1101747.5,,1101747.2999999523,,1101761.636,8,400,,,
sequence,flow.Sequence,4_90,2023-10-31T22:26:09.510Z,,0,,,3819.0439999999944,completion,,,,,false,,,,1101747.7999999523,1101747.5,1097911.79,1097922,1097928.456,1101761.636,8,400,,,
trial,html.Screen,4_91_0,2023-10-31T22:26:12.683Z,,0,2,,3159.2639998570085,response,ISIC_9939963.JPG,8,ISIC_8127578.JPG,ISIC_8127578.JPG,false,0,keypress(z),500,1104921.399999857,1104920.899999857,1101744.97,1101748,1101761.636,1104928.176,8,400,42,,ISIC_9939963.JPG
break,html.Screen,4_91_1,2023-10-31T22:26:12.685Z,,0,,,NaN,,,,,,false,,,,1104923.0999999046,1104922.7999999523,,1104921.7000000477,,1104928.176,8,400,,,
break_continue,html.Screen,4_91_2,2023-10-31T22:26:12.685Z,,0,,,NaN,,,,,,false,,,,1104923.5999999046,1104923.5,,1104923.2000000477,,1104928.176,8,400,,,
sequence,flow.Sequence,4_91,2023-10-31T22:26:12.686Z,,0,,,3161.8640000000596,completion,,,,,false,,,,1104923.7999999523,1104923.5,1101744.97,1101747.899999857,1101761.636,1104928.176,8,400,,,
trial,html.Screen,4_92_0,2023-10-31T22:26:15.491Z,,0,2,,2800.3240000000224,response,ISIC_0056796.JPG,8,ISIC_0033700.JPG,ISIC_0033700.JPG,false,0,keypress(z),500,1107729,1107728.5,1104911.51,1104923.899999857,1104928.176,1107744.73,8,400,43,,ISIC_0056796.JPG
break,html.Screen,4_92_1,2023-10-31T22:26:15.492Z,,0,,,NaN,,,,,,false,,,,1107730.5,1107730.2999999523,,1107729.2000000477,,1107744.73,8,400,,,
break_continue,html.Screen,4_92_2,2023-10-31T22:26:15.493Z,,0,,,NaN,,,,,,false,,,,1107730.899999857,1107730.7999999523,,1107730.7000000477,,1107744.73,8,400,,,
sequence,flow.Sequence,4_92,2023-10-31T22:26:15.493Z,,0,,,2802.6239999523386,completion,,,,,false,,,,1107731.0999999046,1107730.7999999523,1104911.51,1104923.899999857,1104928.176,1107744.73,8,400,,,
trial,html.Screen,4_93_0,2023-10-31T22:26:18.451Z,,0,2,,2943.869999904651,response,ISIC_9509757.JPG,8,ISIC_0063319.JPG,ISIC_9509757.JPG,false,1,keypress(m),500,1110689.0999999046,1110688.5999999046,1107728.064,1107731.2000000477,1107744.73,1110694.612,8,400,44,,ISIC_0063319.JPG
break,html.Screen,4_93_1,2023-10-31T22:26:18.452Z,,0,,,NaN,,,,,,false,,,,1110690.7999999523,1110690.399999857,,1110689.399999857,,1110694.612,8,400,,,
break_continue,html.Screen,4_93_2,2023-10-31T22:26:18.453Z,,0,,,NaN,,,,,,false,,,,1110691.2999999523,1110691.0999999046,,1110690.899999857,,1110694.612,8,400,,,
sequence,flow.Sequence,4_93,2023-10-31T22:26:18.453Z,,0,,,2946.369999904651,completion,,,,,false,,,,1110691.399999857,1110691.0999999046,1107728.064,1107731.0999999046,1107744.73,1110694.612,8,400,,,
trial,html.Screen,4_94_0,2023-10-31T22:26:21.787Z,,0,2,,3330.2879998569842,response,ISIC_0014270.JPG,9,ISIC_9631669.JPG,ISIC_0014270.JPG,false,1,keypress(m),500,1114025.5,1114024.899999857,1110677.946,1110691.5999999046,1110694.612,1114027.812,8,400,45,,ISIC_9631669.JPG
break,html.Screen,4_94_1,2023-10-31T22:26:21.789Z,,0,,,NaN,,,,,,false,,,,1114026.899999857,1114026.5999999046,,1114025.7999999523,,1114027.812,8,400,,,
break_continue,html.Screen,4_94_2,2023-10-31T22:26:21.789Z,,0,,,NaN,,,,,,false,,,,1114027.399999857,1114027.2999999523,,1114027.0999999046,,1114027.812,8,400,,,
sequence,flow.Sequence,4_94,2023-10-31T22:26:21.789Z,,0,,,3332.6879999523517,completion,,,,,false,,,,1114027.5999999046,1114027.2999999523,1110677.946,1110691.5,1110694.612,1114027.812,8,400,,,
trial,html.Screen,4_95_0,2023-10-31T22:26:24.779Z,,0,2,,2989.087999857031,response,ISIC_8073555.JPG,9,ISIC_4129376.JPG,ISIC_8073555.JPG,false,1,keypress(m),500,1117017.5999999046,1117016.899999857,1114011.146,1114027.7000000477,1114027.812,1117027.692,8,400,46,,ISIC_4129376.JPG
break,html.Screen,4_95_1,2023-10-31T22:26:24.781Z,,0,,,NaN,,,,,,false,,,,1117019.399999857,1117019,,1117018.0999999046,,1117027.692,8,400,,,
break_continue,html.Screen,4_95_2,2023-10-31T22:26:24.781Z,,0,,,NaN,,,,,,false,,,,1117019.7999999523,1117019.5999999046,,1117019.5,,1117027.692,8,400,,,
sequence,flow.Sequence,4_95,2023-10-31T22:26:24.782Z,,0,,,2991.7879999047145,completion,,,,,false,,,,1117019.899999857,1117019.5999999046,1114011.146,1114027.5999999046,1114027.812,1117027.692,8,400,,,
trial,html.Screen,4_96_0,2023-10-31T22:26:27.930Z,,0,2,,3140.5080000476446,response,ISIC_0059773.JPG,9,ISIC_2863397.JPG,ISIC_0059773.JPG,false,1,keypress(m),500,1120168.7000000477,1120168.2000000477,1117011.026,1117020.0999999046,1117027.692,1120177.566,8,400,47,,ISIC_2863397.JPG
break,html.Screen,4_96_1,2023-10-31T22:26:27.932Z,,0,,,NaN,,,,,,false,,,,1120170,1120169.7999999523,,1120168.899999857,,1120177.566,8,400,,,
break_continue,html.Screen,4_96_2,2023-10-31T22:26:27.932Z,,0,,,NaN,,,,,,false,,,,1120170.5,1120170.5,,1120170.2000000477,,1120177.566,8,400,,,
sequence,flow.Sequence,4_96,2023-10-31T22:26:27.932Z,,0,,,3142.807999999961,completion,,,,,false,,,,1120170.7000000477,1120170.5,1117011.026,1117020,1117027.692,1120177.566,8,400,,,
trial,html.Screen,4_97_0,2023-10-31T22:26:31.003Z,,0,2,,3063.2339999522083,response,ISIC_0024417.JPG,8,ISIC_6570611.JPG,ISIC_6570611.JPG,false,0,keypress(z),500,1123241.2000000477,1123240.7999999523,1120160.9,1120170.7999999523,1120177.566,1123244.11,8,400,48,,ISIC_0024417.JPG
break,html.Screen,4_97_1,2023-10-31T22:26:31.004Z,,0,,,NaN,,,,,,false,,,,1123242.7000000477,1123242.5,,1123241.5,,1123244.11,8,400,,,
break_continue,html.Screen,4_97_2,2023-10-31T22:26:31.005Z,,0,,,NaN,,,,,,false,,,,1123243.2000000477,1123243.0999999046,,1123242.7999999523,,1123244.11,8,400,,,
sequence,flow.Sequence,4_97,2023-10-31T22:26:31.005Z,,0,,,3065.5339999045245,completion,,,,,false,,,,1123243.399999857,1123243.0999999046,1120160.9,1120170.7000000477,1120177.566,1123244.11,8,400,,,
trial,html.Screen,4_98_0,2023-10-31T22:26:34.378Z,,0,2,,3372.48999990453,response,ISIC_0009959.JPG,8,ISIC_2554114.JPG,ISIC_0009959.JPG,false,1,keypress(m),500,1126617,1126616.5999999046,1123227.444,1123243.5,1123244.11,1126627.308,8,400,49,,ISIC_2554114.JPG
break,html.Screen,4_98_1,2023-10-31T22:26:34.380Z,,0,,,NaN,,,,,,false,,,,1126618.399999857,1126618.0999999046,,1126617.2000000477,,1126627.308,8,400,,,
break_continue,html.Screen,4_98_2,2023-10-31T22:26:34.380Z,,0,,,NaN,,,,,,false,,,,1126619.0999999046,1126618.899999857,,1126618.7000000477,,1126627.308,8,400,,,
sequence,flow.Sequence,4_98,2023-10-31T22:26:34.381Z,,0,,,3374.7899998568464,completion,,,,,false,,,,1126619.0999999046,1126618.899999857,1123227.444,1123243.5,1123244.11,1126627.308,8,400,,,
trial,html.Screen,4_99_0,2023-10-31T22:26:38.339Z,,0,2,,3950.2919999046717,response,ISIC_0066105.JPG,9,ISIC_7518798.JPG,ISIC_0066105.JPG,false,1,keypress(m),500,1130578,1130577.5999999046,1126610.642,1126619.2999999523,1126627.308,1130593.816,8,400,50,,ISIC_7518798.JPG
break,html.Screen,4_99_1,2023-10-31T22:26:48.343Z,,0,,,9999.59999999986,timeout,,,,,false,,,,1140581.5,1140576.75,1130577.15,1130578.399999857,1130593.816,1140593.416,8,400,,,
break_continue,html.Screen,4_99_2,2023-10-31T22:26:49.080Z,,0,,,713.883999952348,response,,,,,false,continue,keypress(Space),,1141318.5999999046,1141307.2999999523,1140576.75,1140581.5999999046,1140593.416,1141326.72,8,400,,,
sequence,flow.Sequence,4_99,2023-10-31T22:26:49.080Z,,0,,,14679.991999952355,completion,,,,,false,,,,1141318.7000000477,1141307.2999999523,1126610.642,1126619.2000000477,1126627.308,1141326.72,8,400,,,
trial,html.Screen,4_100_0,2023-10-31T22:26:52.562Z,,0,3,,3473.179999856977,response,ISIC_6401657.JPG,6,ISIC_0031565.JPG,ISIC_0031565.JPG,false,0,keypress(z),500,1144800.399999857,1144799.899999857,1141310.054,1141318.7999999523,1141326.72,1144809.914,8,400,1,,ISIC_6401657.JPG
break,html.Screen,4_100_1,2023-10-31T22:26:52.563Z,,0,,,NaN,,,,,,false,,,,1144802,1144801.7000000477,,1144800.7000000477,,1144809.914,8,400,,,
break_continue,html.Screen,4_100_2,2023-10-31T22:26:52.564Z,,0,,,NaN,,,,,,false,,,,1144802.399999857,1144802.2999999523,,1144802.0999999046,,1144809.914,8,400,,,
sequence,flow.Sequence,4_100,2023-10-31T22:26:52.564Z,,0,,,3475.579999952344,completion,,,,,false,,,,1144802.5999999046,1144802.2999999523,1141310.054,1141318.7999999523,1141326.72,1144809.914,8,400,,,
trial,html.Screen,4_101_0,2023-10-31T22:26:55.442Z,,0,3,,2870.585999999894,response,ISIC_0000384.JPG,9,ISIC_0001120.JPG,ISIC_0001120.JPG,false,0,keypress(z),500,1147681,1147680.5,1144793.248,1144802.7000000477,1144809.914,1147693.132,8,400,2,,ISIC_0000384.JPG
break,html.Screen,4_101_1,2023-10-31T22:26:55.444Z,,0,,,NaN,,,,,,false,,,,1147682.5,1147682.0999999046,,1147681.2999999523,,1147693.132,8,400,,,
break_continue,html.Screen,4_101_2,2023-10-31T22:26:55.444Z,,0,,,NaN,,,,,,false,,,,1147682.7999999523,1147682.7000000477,,1147682.5,,1147693.132,8,400,,,
sequence,flow.Sequence,4_101,2023-10-31T22:26:55.444Z,,0,,,2872.7860000475775,completion,,,,,false,,,,1147682.899999857,1147682.7000000477,1144793.248,1144802.7000000477,1144809.914,1147693.132,8,400,,,
trial,html.Screen,4_102_0,2023-10-31T22:26:58.242Z,,0,3,,2787.167999952333,response,ISIC_0010934.JPG,9,ISIC_0772836.JPG,ISIC_0010934.JPG,false,1,keypress(m),500,1150480.7999999523,1150480.2999999523,1147676.466,1147683,1147693.132,1150493.02,8,400,3,,ISIC_0772836.JPG
break,html.Screen,4_102_1,2023-10-31T22:26:58.244Z,,0,,,NaN,,,,,,false,,,,1150482.399999857,1150482.0999999046,,1150481.0999999046,,1150493.02,8,400,,,
break_continue,html.Screen,4_102_2,2023-10-31T22:26:58.244Z,,0,,,NaN,,,,,,false,,,,1150482.7999999523,1150482.7000000477,,1150482.5,,1150493.02,8,400,,,
sequence,flow.Sequence,4_102,2023-10-31T22:26:58.244Z,,0,,,2789.5680000477005,completion,,,,,false,,,,1150483,1150482.7000000477,1147676.466,1147683,1147693.132,1150493.02,8,400,,,
trial,html.Screen,4_103_0,2023-10-31T22:27:01.635Z,,0,3,,3380.079999904614,response,ISIC_6239663.JPG,9,ISIC_0025093.JPG,ISIC_6239663.JPG,false,1,keypress(m),500,1153873.5999999046,1153873.0999999046,1150476.354,1150483.2999999523,1150493.02,1153876.218,8,400,4,,ISIC_0025093.JPG
break,html.Screen,4_103_1,2023-10-31T22:27:01.636Z,,0,,,NaN,,,,,,false,,,,1153875.0999999046,1153874.7999999523,,1153873.899999857,,1153876.218,8,400,,,
break_continue,html.Screen,4_103_2,2023-10-31T22:27:01.637Z,,0,,,NaN,,,,,,false,,,,1153875.7000000477,1153875.5,,1153875.2000000477,,1153876.218,8,400,,,
sequence,flow.Sequence,4_103,2023-10-31T22:27:01.637Z,,0,,,3382.4799999999814,completion,,,,,false,,,,1153875.7999999523,1153875.5,1150476.354,1150483.2000000477,1150493.02,1153876.218,8,400,,,
trial,html.Screen,4_104_0,2023-10-31T22:27:04.338Z,,0,3,,2700.28199999989,response,ISIC_0010486.JPG,8,ISIC_0027022.JPG,ISIC_0010486.JPG,false,1,keypress(m),500,1156577,1156576.5,1153859.552,1153875.899999857,1153876.218,1156592.776,8,400,5,,ISIC_0027022.JPG
break,html.Screen,4_104_1,2023-10-31T22:27:04.340Z,,0,,,NaN,,,,,,false,,,,1156578.399999857,1156578.2000000477,,1156577.2000000477,,1156592.776,8,400,,,
break_continue,html.Screen,4_104_2,2023-10-31T22:27:04.340Z,,0,,,NaN,,,,,,false,,,,1156578.899999857,1156578.7999999523,,1156578.5999999046,,1156592.776,8,400,,,
sequence,flow.Sequence,4_104,2023-10-31T22:27:04.340Z,,0,,,2702.5819999522064,completion,,,,,false,,,,1156579,1156578.7999999523,1153859.552,1153875.899999857,1153876.218,1156592.776,8,400,,,
trial,html.Screen,4_105_0,2023-10-31T22:27:08.123Z,,0,3,,3768.424000047613,response,ISIC_0011949.JPG,9,ISIC_1159891.JPG,ISIC_1159891.JPG,false,0,keypress(z),500,1160361.7000000477,1160361.2000000477,1156576.11,1156579.2000000477,1156592.776,1160375.958,8,400,6,,ISIC_0011949.JPG
break,html.Screen,4_105_1,2023-10-31T22:27:08.124Z,,0,,,NaN,,,,,,false,,,,1160363.2000000477,1160362.899999857,,1160362,,1160375.958,8,400,,,
break_continue,html.Screen,4_105_2,2023-10-31T22:27:08.125Z,,0,,,NaN,,,,,,false,,,,1160363.7000000477,1160363.5999999046,,1160363.2999999523,,1160375.958,8,400,,,
sequence,flow.Sequence,4_105,2023-10-31T22:27:08.125Z,,0,,,3770.823999904562,completion,,,,,false,,,,1160363.899999857,1160363.5999999046,1156576.11,1156579.2000000477,1156592.776,1160375.958,8,400,,,
trial,html.Screen,4_106_0,2023-10-31T22:27:10.906Z,,0,3,,2768.742000047583,response,ISIC_1390308.JPG,8,ISIC_0010411.JPG,ISIC_0010411.JPG,false,0,keypress(z),500,1163145.2000000477,1163144.7000000477,1160359.292,1160364,1160375.958,1163159.18,8,400,7,,ISIC_1390308.JPG
break,html.Screen,4_106_1,2023-10-31T22:27:10.908Z,,0,,,NaN,,,,,,false,,,,1163146.899999857,1163146.5999999046,,1163145.5999999046,,1163159.18,8,400,,,
break_continue,html.Screen,4_106_2,2023-10-31T22:27:10.909Z,,0,,,NaN,,,,,,false,,,,1163147.5999999046,1163147.5,,1163147.0999999046,,1163159.18,8,400,,,
sequence,flow.Sequence,4_106,2023-10-31T22:27:10.909Z,,0,,,2771.5419999998994,completion,,,,,false,,,,1163147.7999999523,1163147.5,1160359.292,1160364,1160375.958,1163159.18,8,400,,,
trial,html.Screen,4_107_0,2023-10-31T22:27:13.530Z,,0,3,,2609.719999857014,response,ISIC_0067094.JPG,8,ISIC_2031626.JPG,ISIC_2031626.JPG,false,0,keypress(z),500,1165769.399999857,1165768.899999857,1163142.514,1163148,1163159.18,1165775.742,8,400,8,,ISIC_0067094.JPG
break,html.Screen,4_107_1,2023-10-31T22:27:13.532Z,,0,,,NaN,,,,,,false,,,,1165770.899999857,1165770.5999999046,,1165769.7000000477,,1165775.742,8,400,,,
break_continue,html.Screen,4_107_2,2023-10-31T22:27:13.532Z,,0,,,NaN,,,,,,false,,,,1165771.399999857,1165771.2000000477,,1165771,,1165775.742,8,400,,,
sequence,flow.Sequence,4_107,2023-10-31T22:27:13.532Z,,0,,,2612.020000047749,completion,,,,,false,,,,1165771.5,1165771.2000000477,1163142.514,1163147.899999857,1163159.18,1165775.742,8,400,,,
trial,html.Screen,4_108_0,2023-10-31T22:27:17.002Z,,0,3,,3464.857999904547,response,ISIC_0033275.JPG,8,ISIC_7892362.JPG,ISIC_0033275.JPG,false,1,keypress(m),500,1169241,1169240.5999999046,1165759.076,1165771.7000000477,1165775.742,1169242.27,8,400,9,,ISIC_7892362.JPG
break,html.Screen,4_108_1,2023-10-31T22:27:17.003Z,,0,,,NaN,,,,,,false,,,,1169242.5,1169242.2000000477,,1169241.2999999523,,1169242.27,8,400,,,
break_continue,html.Screen,4_108_2,2023-10-31T22:27:17.004Z,,0,,,NaN,,,,,,false,,,,1169242.7999999523,1169242.7999999523,,1169242.5999999046,,1169242.27,8,400,,,
sequence,flow.Sequence,4_108,2023-10-31T22:27:17.004Z,,0,,,3467.0579999522306,completion,,,,,false,,,,1169243,1169242.7999999523,1165759.076,1165771.5999999046,1165775.742,1169242.27,8,400,,,
trial,html.Screen,4_109_0,2023-10-31T22:27:19.818Z,,0,3,,2814.62999985693,response,ISIC_0025217.JPG,8,ISIC_7575815.JPG,ISIC_7575815.JPG,false,0,keypress(z),500,1172057.2999999523,1172056.899999857,1169225.604,1169243.0999999046,1169242.27,1172058.824,8,400,10,,ISIC_0025217.JPG
break,html.Screen,4_109_1,2023-10-31T22:27:19.820Z,,0,,,NaN,,,,,,false,,,,1172058.899999857,1172058.5999999046,,1172057.5999999046,,1172058.824,8,400,,,
break_continue,html.Screen,4_109_2,2023-10-31T22:27:19.820Z,,0,,,NaN,,,,,,false,,,,1172059.399999857,1172059.2000000477,,1172059.0999999046,,1172058.824,8,400,,,
sequence,flow.Sequence,4_109,2023-10-31T22:27:19.820Z,,0,,,2816.930000047665,completion,,,,,false,,,,1172059.5,1172059.2000000477,1169225.604,1169243,1169242.27,1172058.824,8,400,,,
trial,html.Screen,4_110_0,2023-10-31T22:27:24.739Z,,0,3,,4918.27599990461,response,ISIC_8127578.JPG,8,ISIC_0068100.JPG,ISIC_8127578.JPG,false,1,keypress(m),500,1176977.7999999523,1176977.0999999046,1172042.158,1172059.7000000477,1172058.824,1176991.96,8,400,11,,ISIC_0068100.JPG
break,html.Screen,4_110_1,2023-10-31T22:27:24.741Z,,0,,,NaN,,,,,,false,,,,1176980,1176979.5999999046,,1176978.399999857,,1176991.96,8,400,,,
break_continue,html.Screen,4_110_2,2023-10-31T22:27:24.741Z,,0,,,NaN,,,,,,false,,,,1176980.399999857,1176980.2000000477,,1176980.0999999046,,1176991.96,8,400,,,
sequence,flow.Sequence,4_110,2023-10-31T22:27:24.741Z,,0,,,4921.376000047661,completion,,,,,false,,,,1176980.5999999046,1176980.2000000477,1172042.158,1172059.5999999046,1172058.824,1176991.96,8,400,,,
trial,html.Screen,4_111_0,2023-10-31T22:27:28.482Z,,0,3,,3728.240000047721,response,ISIC_0000296.JPG,7,ISIC_0013736.JPG,ISIC_0000296.JPG,false,1,keypress(m),500,1180720.7999999523,1180720.2000000477,1176975.294,1176980.7999999523,1176991.96,1180725.144,8,400,12,,ISIC_0013736.JPG
break,html.Screen,4_111_1,2023-10-31T22:27:28.483Z,,0,,,NaN,,,,,,false,,,,1180722.399999857,1180722.0999999046,,1180721.0999999046,,1180725.144,8,400,,,
break_continue,html.Screen,4_111_2,2023-10-31T22:27:28.484Z,,0,,,NaN,,,,,,false,,,,1180722.899999857,1180722.7999999523,,1180722.5,,1180725.144,8,400,,,
sequence,flow.Sequence,4_111,2023-10-31T22:27:28.484Z,,0,,,3730.8399999523535,completion,,,,,false,,,,1180723.0999999046,1180722.7999999523,1176975.294,1176980.7000000477,1176991.96,1180725.144,8,400,,,
trial,html.Screen,4_112_0,2023-10-31T22:27:31.961Z,,0,3,,3474.8559999999125,response,ISIC_7349772.JPG,9,ISIC_0063961.JPG,ISIC_0063961.JPG,false,0,keypress(z),500,1184200.0999999046,1184200,1180708.478,1180723.2999999523,1180725.144,1184208.338,8,400,13,,ISIC_7349772.JPG
break,html.Screen,4_112_1,2023-10-31T22:27:31.961Z,,0,,,NaN,,,,,,false,,,,1184200.7000000477,1184200.7000000477,,1184200.2000000477,,1184208.338,8,400,,,
break_continue,html.Screen,4_112_2,2023-10-31T22:27:31.962Z,,0,,,NaN,,,,,,false,,,,1184200.899999857,1184200.899999857,,1184200.7999999523,,1184208.338,8,400,,,
sequence,flow.Sequence,4_112,2023-10-31T22:27:31.962Z,,0,,,3475.7559998568613,completion,,,,,false,,,,1184201,1184200.899999857,1180708.478,1180723.2000000477,1180725.144,1184208.338,8,400,,,
trial,html.Screen,4_113_0,2023-10-31T22:27:37.218Z,,0,3,,5248.261999904644,response,ISIC_0058863.JPG,12,ISIC_0874261.JPG,ISIC_0874261.JPG,false,0,keypress(z),500,1189457.5999999046,1189456.5999999046,1184191.672,1184201.0999999046,1184208.338,1189474.794,8,400,14,,ISIC_0058863.JPG
break,html.Screen,4_113_1,2023-10-31T22:27:37.221Z,,0,,,NaN,,,,,,false,,,,1189460.2000000477,1189459.7000000477,,1189458.399999857,,1189474.794,8,400,,,
break_continue,html.Screen,4_113_2,2023-10-31T22:27:37.221Z,,0,,,NaN,,,,,,false,,,,1189460.5999999046,1189460.5,,1189460.2999999523,,1189474.794,8,400,,,
sequence,flow.Sequence,4_113,2023-10-31T22:27:37.222Z,,0,,,5252.162000000011,completion,,,,,false,,,,1189460.899999857,1189460.5,1184191.672,1184201,1184208.338,1189474.794,8,400,,,
trial,html.Screen,4_114_0,2023-10-31T22:27:44.010Z,,0,3,,6774.005999952322,response,ISIC_0024650.JPG,7,ISIC_0062111.JPG,ISIC_0062111.JPG,false,0,keypress(z),500,1196249.399999857,1196248.7999999523,1189458.128,1189461.0999999046,1189474.794,1196257.856,8,400,15,,ISIC_0024650.JPG
break,html.Screen,4_114_1,2023-10-31T22:27:44.012Z,,0,,,NaN,,,,,,false,,,,1196251.2000000477,1196250.899999857,,1196249.7999999523,,1196257.856,8,400,,,
break_continue,html.Screen,4_114_2,2023-10-31T22:27:44.012Z,,0,,,NaN,,,,,,false,,,,1196251.7999999523,1196251.7000000477,,1196251.399999857,,1196257.856,8,400,,,
sequence,flow.Sequence,4_114,2023-10-31T22:27:44.013Z,,0,,,6776.906000047689,completion,,,,,false,,,,1196252,1196251.7000000477,1189458.128,1189461.0999999046,1189474.794,1196257.856,8,400,,,
trial,html.Screen,4_115_0,2023-10-31T22:27:54.818Z,,0,3,,10799.144000000088,response,ISIC_0177304.JPG,7,ISIC_0053841.JPG,ISIC_0053841.JPG,false,0,keypress(z),500,1207057.5999999046,1207057,1196241.19,1196252.2000000477,1196257.856,1207074.09,8,400,16,,ISIC_0177304.JPG
break,html.Screen,4_115_1,2023-10-31T22:27:54.820Z,,0,,,NaN,,,,,,false,,,,1207059.2999999523,1207059,,1207057.899999857,,1207074.09,8,400,,,
break_continue,html.Screen,4_115_2,2023-10-31T22:27:54.820Z,,0,,,NaN,,,,,,false,,,,1207059.7999999523,1207059.5999999046,,1207059.399999857,,1207074.09,8,400,,,
sequence,flow.Sequence,4_115,2023-10-31T22:27:54.820Z,,0,,,10801.74399990472,completion,,,,,false,,,,1207060,1207059.5999999046,1196241.19,1196252.0999999046,1196257.856,1207074.09,8,400,,,
trial,html.Screen,4_116_0,2023-10-31T22:27:57.522Z,,0,3,,2686.5099999045487,response,ISIC_0066783.JPG,8,ISIC_0055931.JPG,ISIC_0055931.JPG,false,0,keypress(z),500,1209761.2000000477,1209760.5999999046,1207057.424,1207060.0999999046,1207074.09,1209773.982,8,400,17,,ISIC_0066783.JPG
break,html.Screen,4_116_1,2023-10-31T22:27:57.524Z,,0,,,NaN,,,,,,false,,,,1209763.5999999046,1209763.2999999523,,1209761.5,,1209773.982,8,400,,,
break_continue,html.Screen,4_116_2,2023-10-31T22:27:57.524Z,,0,,,NaN,,,,,,false,,,,1209764,1209763.899999857,,1209763.7999999523,,1209773.982,8,400,,,
sequence,flow.Sequence,4_116,2023-10-31T22:27:57.525Z,,0,,,2689.809999856865,completion,,,,,false,,,,1209764.0999999046,1209763.899999857,1207057.424,1207060.0999999046,1207074.09,1209773.982,8,400,,,
trial,html.Screen,4_117_0,2023-10-31T22:28:00.705Z,,0,3,,3170.117999904556,response,ISIC_7570343.JPG,9,ISIC_0610477.JPG,ISIC_7570343.JPG,false,1,keypress(m),500,1212944.7000000477,1212944.0999999046,1209757.316,1209764.2999999523,1209773.982,1212957.188,8,400,18,,ISIC_0610477.JPG
break,html.Screen,4_117_1,2023-10-31T22:28:00.707Z,,0,,,NaN,,,,,,false,,,,1212946.399999857,1212946.2000000477,,1212945,,1212957.188,8,400,,,
break_continue,html.Screen,4_117_2,2023-10-31T22:28:00.707Z,,0,,,NaN,,,,,,false,,,,1212947,1212946.7999999523,,1212946.5999999046,,1212957.188,8,400,,,
sequence,flow.Sequence,4_117,2023-10-31T22:28:00.707Z,,0,,,3172.81799995224,completion,,,,,false,,,,1212947.2000000477,1212946.7999999523,1209757.316,1209764.2000000477,1209773.982,1212957.188,8,400,,,
trial,html.Screen,4_118_0,2023-10-31T22:28:04.481Z,,0,3,,3762.9119999045506,response,ISIC_6761269.JPG,9,ISIC_0029652.JPG,ISIC_0029652.JPG,false,0,keypress(z),500,1216720.5,1216720.0999999046,1212940.522,1212947.2999999523,1212957.188,1216723.704,8,400,19,,ISIC_6761269.JPG
break,html.Screen,4_118_1,2023-10-31T22:28:04.483Z,,0,,,NaN,,,,,,false,,,,1216722.399999857,1216722,,1216721,,1216723.704,8,400,,,
break_continue,html.Screen,4_118_2,2023-10-31T22:28:04.483Z,,0,,,NaN,,,,,,false,,,,1216722.899999857,1216722.7000000477,,1216722.5,,1216723.704,8,400,,,
sequence,flow.Sequence,4_118,2023-10-31T22:28:04.483Z,,0,,,3765.5120000476018,completion,,,,,false,,,,1216723.0999999046,1216722.7000000477,1212940.522,1212947.2999999523,1212957.188,1216723.704,8,400,,,
trial,html.Screen,4_119_0,2023-10-31T22:28:07.177Z,,0,3,,2692.996000047773,response,ISIC_9646599.JPG,9,ISIC_0025491.JPG,ISIC_0025491.JPG,false,0,keypress(z),500,1219417.0999999046,1219416.7000000477,1216707.038,1216723.2000000477,1216723.704,1219423.596,8,400,20,,ISIC_9646599.JPG
break,html.Screen,4_119_1,2023-10-31T22:28:07.179Z,,0,,,NaN,,,,,,false,,,,1219418.399999857,1219418.0999999046,,1219417.2999999523,,1219423.596,8,400,,,
break_continue,html.Screen,4_119_2,2023-10-31T22:28:07.179Z,,0,,,NaN,,,,,,false,,,,1219418.7999999523,1219418.7000000477,,1219418.5,,1219423.596,8,400,,,
sequence,flow.Sequence,4_119,2023-10-31T22:28:07.179Z,,0,,,2694.996000047773,completion,,,,,false,,,,1219419,1219418.7000000477,1216707.038,1216723.2000000477,1216723.704,1219423.596,8,400,,,
trial,html.Screen,4_120_0,2023-10-31T22:28:10.671Z,,0,3,,3486.904000000097,response,ISIC_0027100.JPG,9,ISIC_0032629.JPG,ISIC_0032629.JPG,false,0,keypress(z),500,1222911,1222910.5,1219406.93,1219419.0999999046,1219423.596,1222940.122,8,400,21,,ISIC_0027100.JPG
break,html.Screen,4_120_1,2023-10-31T22:28:10.673Z,,0,,,NaN,,,,,,false,,,,1222912.5,1222912.2000000477,,1222911.2999999523,,1222940.122,8,400,,,
break_continue,html.Screen,4_120_2,2023-10-31T22:28:10.673Z,,0,,,NaN,,,,,,false,,,,1222913,1222912.7999999523,,1222912.5999999046,,1222940.122,8,400,,,
sequence,flow.Sequence,4_120,2023-10-31T22:28:10.673Z,,0,,,3489.203999952413,completion,,,,,false,,,,1222913.0999999046,1222912.7999999523,1219406.93,1219419.0999999046,1219423.596,1222940.122,8,400,,,
trial,html.Screen,4_121_0,2023-10-31T22:28:16.481Z,,0,3,,5780.477999904659,response,ISIC_0029389.JPG,11,ISIC_1568268.JPG,ISIC_0029389.JPG,false,1,keypress(m),500,1228721.2000000477,1228720.5999999046,1222923.456,1222913.2999999523,1222940.122,1228723.224,8,400,22,,ISIC_1568268.JPG
break,html.Screen,4_121_1,2023-10-31T22:28:16.483Z,,0,,,NaN,,,,,,false,,,,1228723.0999999046,1228722.7000000477,,1228721.5999999046,,1228723.224,8,400,,,
break_continue,html.Screen,4_121_2,2023-10-31T22:28:16.484Z,,0,,,NaN,,,,,,false,,,,1228723.399999857,1228723.2999999523,,1228723.0999999046,,1228723.224,8,400,,,
sequence,flow.Sequence,4_121,2023-10-31T22:28:16.484Z,,0,,,5783.177999952342,completion,,,,,false,,,,1228723.5999999046,1228723.2999999523,1222923.456,1222913.2999999523,1222940.122,1228723.224,8,400,,,
trial,html.Screen,4_122_0,2023-10-31T22:28:19.441Z,,0,3,,2957.276000000071,response,ISIC_7670817.JPG,7,ISIC_0062709.JPG,ISIC_0062709.JPG,false,0,keypress(z),500,1231680.899999857,1231680.5,1228706.558,1228723.7000000477,1228723.224,1231689.772,8,400,23,,ISIC_7670817.JPG
break,html.Screen,4_122_1,2023-10-31T22:28:19.443Z,,0,,,NaN,,,,,,false,,,,1231682.5,1231682.2999999523,,1231681.2999999523,,1231689.772,8,400,,,
break_continue,html.Screen,4_122_2,2023-10-31T22:28:19.443Z,,0,,,NaN,,,,,,false,,,,1231682.7999999523,1231682.7000000477,,1231682.7000000477,,1231689.772,8,400,,,
sequence,flow.Sequence,4_122,2023-10-31T22:28:19.443Z,,0,,,2959.4760000477545,completion,,,,,false,,,,1231683,1231682.7000000477,1228706.558,1228723.5999999046,1228723.224,1231689.772,8,400,,,
trial,html.Screen,4_123_0,2023-10-31T22:28:25.034Z,,0,3,,5583.227999999886,response,ISIC_0025611.JPG,9,ISIC_0028248.JPG,ISIC_0025611.JPG,false,1,keypress(m),500,1237273.7000000477,1237273,1231673.106,1231683.0999999046,1231689.772,1237289.548,8,400,24,,ISIC_0028248.JPG
break,html.Screen,4_123_1,2023-10-31T22:28:25.036Z,,0,,,NaN,,,,,,false,,,,1237275.7000000477,1237275.399999857,,1237274.2000000477,,1237289.548,8,400,,,
break_continue,html.Screen,4_123_2,2023-10-31T22:28:25.036Z,,0,,,NaN,,,,,,false,,,,1237276,1237275.899999857,,1237275.7999999523,,1237289.548,8,400,,,
sequence,flow.Sequence,4_123,2023-10-31T22:28:25.036Z,,0,,,5586.127999856835,completion,,,,,false,,,,1237276.0999999046,1237275.899999857,1231673.106,1231683.0999999046,1231689.772,1237289.548,8,400,,,
trial,html.Screen,4_124_0,2023-10-31T22:28:28.130Z,,0,3,,3079.652000047732,response,ISIC_0061848.JPG,8,ISIC_9268141.JPG,ISIC_0061848.JPG,false,1,keypress(m),500,1240369.5999999046,1240369.2000000477,1237272.882,1237276.2999999523,1237289.548,1240372.758,8,400,25,,ISIC_9268141.JPG
break,html.Screen,4_124_1,2023-10-31T22:28:28.131Z,,0,,,NaN,,,,,,false,,,,1240371.0999999046,1240370.7000000477,,1240369.899999857,,1240372.758,8,400,,,
break_continue,html.Screen,4_124_2,2023-10-31T22:28:28.132Z,,0,,,NaN,,,,,,false,,,,1240371.5999999046,1240371.5,,1240371.2999999523,,1240372.758,8,400,,,
sequence,flow.Sequence,4_124,2023-10-31T22:28:28.132Z,,0,,,3081.9520000000484,completion,,,,,false,,,,1240371.7000000477,1240371.5,1237272.882,1237276.2999999523,1237289.548,1240372.758,8,400,,,
