sender,sender_type,sender_id,timestamp,meta,,blockNo,condition,duration,ended_on,img_left,img_reveal,img_right,loser,practice,response,response_action,selection_duration,time_commit,time_end,time_render,time_run,time_show,time_switch,total_blocks,total_trials,trialNo,url,winner
informed_consent,html.Screen,0,2023-09-13T04:43:25.066Z,"{""labjs_version"":""20.2.4"",""labjs_build"":{""flavor"":""production"",""commit"":""f5b4a49f956347addd546a832a3327688c2c0fef""},""location"":""https://run.pavlovia.org/MurrayBennett/melanoma-2afc/?participant=67020&platform=sona"",""userAgent"":""Mozilla/5.0 (Windows NT 10.0; Win64; x64) AppleWebKit/537.36 (KHTML, like Gecko) Chrome/116.0.0.0 Safari/537.36 Edg/116.0.1938.76"",""platform"":""Win32"",""language"":""en-US"",""locale"":""en-US"",""timeZone"":""America/Chicago"",""timezoneOffset"":300,""screen_width"":1536,""screen_height"":1024,""scroll_width"":1488,""scroll_height"":854,""window_innerWidth"":1488,""window_innerHeight"":902,""devicePixelRatio"":1}",,,,43389.95099997616,response,,,,,,consent,click button,,46032.09999996424,46030.39999997616,2307.053,2624.599999964237,2640.449,46052.8,,,,"{""participant"":""67020"",""platform"":""sona""}",
Welcome,html.Screen,1,2023-09-13T04:45:19.029Z,,,,asymmetry,113928.89999998808,response,,,,,,continue,click button,,159983.39999997616,159981.69999998808,46016.828,46032.30000001192,46052.8,160008.972,,,,,
trial,html.Screen,2_0_0,2023-09-13T04:45:26.302Z,,0,0,,7246.527999999991,response,ISIC_6997061.JPG,,ISIC_0069348.JPG,ISIC_6997061.JPG,true,1,keypress(m),500,167256,167255.5,159975.092,159983.89999997616,160008.972,167260.546,1,6,1,,ISIC_0069348.JPG
sequence,flow.Sequence,2_0,2023-09-13T04:45:26.302Z,,0,,,7246.527999999991,completion,,,,,true,,,,167256.39999997616,167255.5,159975.092,159983.80000001192,160008.972,167260.546,1,6,,,
trial,html.Screen,2_1_0,2023-09-13T04:45:32.403Z,,0,0,,6096.853999976156,response,ISIC_0009529.JPG,,ISIC_0057368.JPG,ISIC_0009529.JPG,true,1,keypress(m),500,173357.80000001192,173357.39999997616,167249.173,167256.59999996424,167260.546,173379.534,1,6,2,,ISIC_0057368.JPG
sequence,flow.Sequence,2_1,2023-09-13T04:45:32.404Z,,0,,,6096.853999976156,completion,,,,,true,,,,173358.09999996424,173357.39999997616,167249.173,167256.5,167260.546,173379.534,1,6,,,
trial,html.Screen,2_2_0,2023-09-13T04:45:41.151Z,,0,0,,8725.665999988065,response,ISIC_9758671.JPG,,ISIC_0064954.JPG,ISIC_0064954.JPG,true,0,keypress(z),500,182105.5,182105.19999998808,173362.876,173358.39999997616,173379.534,182110.281,1,6,3,,ISIC_9758671.JPG
sequence,flow.Sequence,2_2,2023-09-13T04:45:41.152Z,,0,,,8725.665999988065,completion,,,,,true,,,,182105.89999997616,182105.19999998808,173362.876,173358.30000001192,173379.534,182110.281,1,6,,,
trial,html.Screen,2_3_0,2023-09-13T04:45:45.266Z,,0,0,,4109.61899997617,response,ISIC_0005785.JPG,,ISIC_0000080.JPG,ISIC_0000080.JPG,true,0,keypress(z),500,186220.19999998808,186219.89999997616,182103.072,182106.09999996424,182110.281,186224.845,1,6,4,,ISIC_0005785.JPG
sequence,flow.Sequence,2_3,2023-09-13T04:45:45.266Z,,0,,,4109.61899997617,completion,,,,,true,,,,186220.69999998808,186219.89999997616,182103.072,182106,182110.281,186224.845,1,6,,,
trial,html.Screen,2_4_0,2023-09-13T04:45:51.029Z,,0,0,,5758.254999964236,response,ISIC_7944028.JPG,,ISIC_5390060.JPG,ISIC_7944028.JPG,true,1,keypress(m),500,191983.5,191983.09999996424,186219.307,186221,186224.845,191988.182,1,6,5,,ISIC_5390060.JPG
sequence,flow.Sequence,2_4,2023-09-13T04:45:51.029Z,,0,,,5758.254999964236,completion,,,,,true,,,,191983.89999997616,191983.09999996424,186219.307,186220.80000001192,186224.845,191988.182,1,6,,,
trial,html.Screen,2_5_0,2023-09-13T04:45:54.825Z,,0,0,,3790.3179999999993,response,ISIC_0794216.JPG,,ISIC_0010188.JPG,ISIC_0794216.JPG,true,1,keypress(m),500,195778.89999997616,195778.5,191980.677,191984,191988.182,195783.652,1,6,6,,ISIC_0010188.JPG
sequence,flow.Sequence,2_5,2023-09-13T04:45:54.825Z,,0,,,3790.3179999999993,completion,,,,,true,,,,195779.39999997616,195778.5,191980.677,191984,191988.182,195783.652,1,6,,,
loop,flow.Loop,2,2023-09-13T04:45:54.825Z,,,,,35769.52799999999,completion,,,,,true,,,,195779.59999996424,195778.5,159975.092,159983.80000001192,160008.972,195783.652,1,6,,,
exp_instructions,html.Screen,3,2023-09-13T04:46:14.158Z,,,,,19327.947999964235,response,,,,,,continue,keypress(Space),,215112.59999996424,215111.59999996424,195770.044,195779.69999998808,195783.652,215117.02,,,,,
trial,html.Screen,4_0_0,2023-09-13T04:46:18.800Z,,0,1,,4636.579999964248,response,ISIC_7732765.JPG,9,ISIC_0056930.JPG,ISIC_0056930.JPG,false,0,keypress(z),500,219754,219753.59999996424,215102.34,215113,215117.02,219758.068,8,400,1,,ISIC_7732765.JPG
break,html.Screen,4_0_1,2023-09-13T04:46:18.801Z,,0,,,NaN,,,,,,false,,,,219755.09999996424,219754.80000001192,,219754.19999998808,,219758.068,8,400,,,
break_continue,html.Screen,4_0_2,2023-09-13T04:46:18.801Z,,0,,,NaN,,,,,,false,,,,219755.5,219755.30000001192,,219755.19999998808,,219758.068,8,400,,,
sequence,flow.Sequence,4_0,2023-09-13T04:46:18.801Z,,0,,,4638.280000011931,completion,,,,,false,,,,219755.69999998808,219755.30000001192,215102.34,215113,215117.02,219758.068,8,400,,,
trial,html.Screen,4_1_0,2023-09-13T04:46:25.046Z,,0,1,,6241.732000011922,response,ISIC_0034150.JPG,9,ISIC_0033454.JPG,ISIC_0033454.JPG,false,0,keypress(z),500,226000.09999996424,225999.80000001192,219741.939,219755.80000001192,219758.068,226004.312,8,400,2,,ISIC_0034150.JPG
break,html.Screen,4_1_1,2023-09-13T04:46:25.047Z,,0,,,NaN,,,,,,false,,,,226000.89999997616,226000.69999998808,,226000.39999997616,,226004.312,8,400,,,
break_continue,html.Screen,4_1_2,2023-09-13T04:46:25.047Z,,0,,,NaN,,,,,,false,,,,226001.39999997616,226001.19999998808,,226001,,226004.312,8,400,,,
sequence,flow.Sequence,4_1,2023-09-13T04:46:25.047Z,,0,,,6243.13199998808,completion,,,,,false,,,,226001.5,226001.19999998808,219741.939,219755.69999998808,219758.068,226004.312,8,400,,,
trial,html.Screen,4_2_0,2023-09-13T04:46:35.967Z,,0,1,,10916.387999988074,response,ISIC_0031096.JPG,5,ISIC_0010304.JPG,ISIC_0031096.JPG,false,1,keypress(m),500,236921.19999998808,236920.69999998808,225986.238,226001.59999996424,226004.312,236925.372,8,400,3,,ISIC_0010304.JPG
break,html.Screen,4_2_1,2023-09-13T04:46:35.968Z,,0,,,NaN,,,,,,false,,,,236922,236921.80000001192,,236921.39999997616,,236925.372,8,400,,,
break_continue,html.Screen,4_2_2,2023-09-13T04:46:35.968Z,,0,,,NaN,,,,,,false,,,,236922.5,236922.39999997616,,236922.30000001192,,236925.372,8,400,,,
sequence,flow.Sequence,4_2,2023-09-13T04:46:35.968Z,,0,,,10918.087999976153,completion,,,,,false,,,,236922.69999998808,236922.39999997616,225986.238,226001.59999996424,226004.312,236925.372,8,400,,,
trial,html.Screen,4_3_0,2023-09-13T04:46:39.762Z,,0,1,,3791.127999999997,response,ISIC_0313507.JPG,5,ISIC_8199467.JPG,ISIC_8199467.JPG,false,0,keypress(z),500,240716.69999998808,240716.5,236916.699,236922.80000001192,236925.372,240720.89,8,400,4,,ISIC_0313507.JPG
break,html.Screen,4_3_1,2023-09-13T04:46:39.763Z,,0,,,NaN,,,,,,false,,,,240717.5,240717.30000001192,,240717,,240720.89,8,400,,,
break_continue,html.Screen,4_3_2,2023-09-13T04:46:39.763Z,,0,,,NaN,,,,,,false,,,,240717.89999997616,240717.80000001192,,240717.69999998808,,240720.89,8,400,,,
sequence,flow.Sequence,4_3,2023-09-13T04:46:39.764Z,,0,,,3792.428000011918,completion,,,,,false,,,,240718,240717.80000001192,236916.699,236922.80000001192,236925.372,240720.89,8,400,,,
trial,html.Screen,4_4_0,2023-09-13T04:46:44.743Z,,0,1,,4976.109999999986,response,ISIC_0056466.JPG,13,ISIC_0031745.JPG,ISIC_0056466.JPG,false,1,keypress(m),500,245697.39999997616,245697,240712.51,240718.19999998808,240720.89,245701.774,8,400,5,,ISIC_0031745.JPG
break,html.Screen,4_4_1,2023-09-13T04:46:44.744Z,,0,,,NaN,,,,,,false,,,,245698.39999997616,245698.09999996424,,245697.69999998808,,245701.774,8,400,,,
break_continue,html.Screen,4_4_2,2023-09-13T04:46:44.745Z,,0,,,NaN,,,,,,false,,,,245699.39999997616,245699.19999998808,,245698.59999996424,,245701.774,8,400,,,
sequence,flow.Sequence,4_4,2023-09-13T04:46:44.745Z,,0,,,4978.309999988065,completion,,,,,false,,,,245699.69999998808,245699.19999998808,240712.51,240718.09999996424,240720.89,245701.774,8,400,,,
trial,html.Screen,4_5_0,2023-09-13T04:46:50.160Z,,0,1,,5412.225999999995,response,ISIC_1342117.JPG,21,ISIC_1949126.JPG,ISIC_1342117.JPG,false,1,keypress(m),500,251114.30000001192,251114,245691.558,245699.80000001192,245701.774,251118.554,8,400,6,,ISIC_1949126.JPG
break,html.Screen,4_5_1,2023-09-13T04:46:50.161Z,,0,,,NaN,,,,,,false,,,,251115.09999996424,251115,,251114.59999996424,,251118.554,8,400,,,
break_continue,html.Screen,4_5_2,2023-09-13T04:46:50.161Z,,0,,,NaN,,,,,,false,,,,251115.59999996424,251115.5,,251115.39999997616,,251118.554,8,400,,,
sequence,flow.Sequence,4_5,2023-09-13T04:46:50.161Z,,0,,,5413.725999999995,completion,,,,,false,,,,251115.69999998808,251115.5,245691.558,245699.80000001192,245701.774,251118.554,8,400,,,
trial,html.Screen,4_6_0,2023-09-13T04:46:55.699Z,,0,1,,5534.945999999996,response,ISIC_1115160.JPG,21,ISIC_0058753.JPG,ISIC_1115160.JPG,false,1,keypress(m),500,256653.89999997616,256653.5,251112.146,251115.89999997616,251118.554,256658.181,8,400,7,,ISIC_0058753.JPG
break,html.Screen,4_6_1,2023-09-13T04:46:55.700Z,,0,,,NaN,,,,,,false,,,,256654.80000001192,256654.39999997616,,256654.09999996424,,256658.181,8,400,,,
break_continue,html.Screen,4_6_2,2023-09-13T04:46:55.701Z,,0,,,NaN,,,,,,false,,,,256655.39999997616,256655.19999998808,,256654.89999997616,,256658.181,8,400,,,
sequence,flow.Sequence,4_6,2023-09-13T04:46:55.701Z,,0,,,5536.645999988075,completion,,,,,false,,,,256655.5,256655.19999998808,251112.146,251115.80000001192,251118.554,256658.181,8,400,,,
trial,html.Screen,4_7_0,2023-09-13T04:47:01.184Z,,0,1,,5480.318999999989,response,ISIC_0010049.JPG,21,ISIC_0013341.JPG,ISIC_0013341.JPG,false,0,keypress(z),500,262138.80000001192,262138.5,256642.409,256655.69999998808,256658.181,262143.576,8,400,8,,ISIC_0010049.JPG
break,html.Screen,4_7_1,2023-09-13T04:47:01.185Z,,0,,,NaN,,,,,,false,,,,262139.89999997616,262139.59999996424,,262139.09999996424,,262143.576,8,400,,,
break_continue,html.Screen,4_7_2,2023-09-13T04:47:01.186Z,,0,,,NaN,,,,,,false,,,,262140.5,262140.30000001192,,262140.09999996424,,262143.576,8,400,,,
sequence,flow.Sequence,4_7,2023-09-13T04:47:01.186Z,,0,,,5482.1190000119095,completion,,,,,false,,,,262140.80000001192,262140.30000001192,256642.409,256655.59999996424,256658.181,262143.576,8,400,,,
trial,html.Screen,4_8_0,2023-09-13T04:47:05.097Z,,0,1,,3907.923999999999,response,ISIC_0260290.JPG,7,ISIC_0031908.JPG,ISIC_0031908.JPG,false,0,keypress(z),500,266051.8000000119,266051.5,262130.806,262140.89999997616,262143.576,266056.067,8,400,9,,ISIC_0260290.JPG
break,html.Screen,4_8_1,2023-09-13T04:47:05.098Z,,0,,,NaN,,,,,,false,,,,266052.8000000119,266052.5,,266052.09999996424,,266056.067,8,400,,,
break_continue,html.Screen,4_8_2,2023-09-13T04:47:05.099Z,,0,,,NaN,,,,,,false,,,,266053.1999999881,266053,,266052.89999997616,,266056.067,8,400,,,
sequence,flow.Sequence,4_8,2023-09-13T04:47:05.099Z,,0,,,3909.423999999999,completion,,,,,false,,,,266053.3000000119,266053,262130.806,262140.89999997616,262143.576,266056.067,8,400,,,
trial,html.Screen,4_9_0,2023-09-13T04:47:10.806Z,,0,1,,5704.23300001194,response,ISIC_2733056.JPG,3,ISIC_0072564.JPG,ISIC_0072564.JPG,false,0,keypress(z),500,271760.59999996424,271760.3000000119,266045.449,266053.5,266056.067,271765.105,8,400,10,,ISIC_2733056.JPG
break,html.Screen,4_9_1,2023-09-13T04:47:10.807Z,,0,,,NaN,,,,,,false,,,,271761.59999996424,271761.3000000119,,271760.89999997616,,271765.105,8,400,,,
break_continue,html.Screen,4_9_2,2023-09-13T04:47:10.808Z,,0,,,NaN,,,,,,false,,,,271762.1999999881,271762,,271761.8000000119,,271765.105,8,400,,,
sequence,flow.Sequence,4_9,2023-09-13T04:47:10.808Z,,0,,,5705.933000000019,completion,,,,,false,,,,271762.3000000119,271762,266045.449,266053.39999997616,266056.067,271765.105,8,400,,,
trial,html.Screen,4_10_0,2023-09-13T04:47:13.964Z,,0,1,,3153.1950000119396,response,ISIC_9913573.JPG,8,ISIC_2375394.JPG,ISIC_2375394.JPG,false,0,keypress(z),500,274918.59999996424,274918.3000000119,271754.679,271762.5,271765.105,274922.937,8,400,11,,ISIC_9913573.JPG
break,html.Screen,4_10_1,2023-09-13T04:47:13.965Z,,0,,,NaN,,,,,,false,,,,274919.5,274919.3000000119,,274918.89999997616,,274922.937,8,400,,,
break_continue,html.Screen,4_10_2,2023-09-13T04:47:13.966Z,,0,,,NaN,,,,,,false,,,,274920,274919.89999997616,,274919.6999999881,,274922.937,8,400,,,
sequence,flow.Sequence,4_10,2023-09-13T04:47:13.966Z,,0,,,3154.7949999761768,completion,,,,,false,,,,274920.1999999881,274919.89999997616,271754.679,271762.5,271765.105,274922.937,8,400,,,
trial,html.Screen,4_11_0,2023-09-13T04:47:17.994Z,,0,1,,4025.462999976182,response,ISIC_8901133.JPG,36,ISIC_8791744.JPG,ISIC_8791744.JPG,false,0,keypress(z),500,278948.6999999881,278948.39999997616,274909.622,274920.39999997616,274922.937,278952.797,8,400,12,,ISIC_8901133.JPG
break,html.Screen,4_11_1,2023-09-13T04:47:17.995Z,,0,,,NaN,,,,,,false,,,,278949.39999997616,278949.1999999881,,278948.89999997616,,278952.797,8,400,,,
break_continue,html.Screen,4_11_2,2023-09-13T04:47:17.995Z,,0,,,NaN,,,,,,false,,,,278949.6999999881,278949.6999999881,,278949.5,,278952.797,8,400,,,
sequence,flow.Sequence,4_11,2023-09-13T04:47:17.995Z,,0,,,4026.762999988103,completion,,,,,false,,,,278950,278949.6999999881,274909.622,274920.1999999881,274922.937,278952.797,8,400,,,
trial,html.Screen,4_12_0,2023-09-13T04:47:23.968Z,,0,1,,5969.102999976138,response,ISIC_5361404.JPG,5,ISIC_3664380.JPG,ISIC_5361404.JPG,false,1,keypress(m),500,284922.1999999881,284921.89999997616,278947.098,278950,278952.797,284931.448,8,400,13,,ISIC_3664380.JPG
break,html.Screen,4_12_1,2023-09-13T04:47:23.969Z,,0,,,NaN,,,,,,false,,,,284923.09999996424,284922.89999997616,,284922.5,,284931.448,8,400,,,
break_continue,html.Screen,4_12_2,2023-09-13T04:47:23.969Z,,0,,,NaN,,,,,,false,,,,284923.59999996424,284923.5,,284923.3000000119,,284931.448,8,400,,,
sequence,flow.Sequence,4_12,2023-09-13T04:47:23.969Z,,0,,,5970.7029999999795,completion,,,,,false,,,,284923.6999999881,284923.5,278947.098,278950,278952.797,284931.448,8,400,,,
trial,html.Screen,4_13_0,2023-09-13T04:47:28.864Z,,0,1,,4886.651999964262,response,ISIC_0027718.JPG,21,ISIC_5226371.JPG,ISIC_0027718.JPG,false,1,keypress(m),500,289818.39999997616,289818.09999996424,284914.93,284923.89999997616,284931.448,289822.88,8,400,14,,ISIC_5226371.JPG
break,html.Screen,4_13_1,2023-09-13T04:47:28.865Z,,0,,,NaN,,,,,,false,,,,289819.3000000119,289819.09999996424,,289818.6999999881,,289822.88,8,400,,,
break_continue,html.Screen,4_13_2,2023-09-13T04:47:28.865Z,,0,,,NaN,,,,,,false,,,,289819.89999997616,289819.6999999881,,289819.5,,289822.88,8,400,,,
sequence,flow.Sequence,4_13,2023-09-13T04:47:28.866Z,,0,,,4888.251999988104,completion,,,,,false,,,,289820.09999996424,289819.6999999881,284914.93,284923.8000000119,284931.448,289822.88,8,400,,,
trial,html.Screen,4_14_0,2023-09-13T04:47:36.311Z,,0,1,,7441.719999964233,response,ISIC_0024333.JPG,11,ISIC_1884256.JPG,ISIC_1884256.JPG,false,0,keypress(z),500,297265,297264.59999996424,289817.831,289820.1999999881,289822.88,297269.179,8,400,15,,ISIC_0024333.JPG
break,html.Screen,4_14_1,2023-09-13T04:47:36.311Z,,0,,,NaN,,,,,,false,,,,297265.8000000119,297265.59999996424,,297265.1999999881,,297269.179,8,400,,,
break_continue,html.Screen,4_14_2,2023-09-13T04:47:36.312Z,,0,,,NaN,,,,,,false,,,,297266.3000000119,297266.1999999881,,297266,,297269.179,8,400,,,
sequence,flow.Sequence,4_14,2023-09-13T04:47:36.312Z,,0,,,7443.319999988074,completion,,,,,false,,,,297266.5,297266.1999999881,289817.831,289820.09999996424,289822.88,297269.179,8,400,,,
trial,html.Screen,4_15_0,2023-09-13T04:47:41.306Z,,0,1,,4990.9209999642335,response,ISIC_9854454.JPG,21,ISIC_1210011.JPG,ISIC_9854454.JPG,false,1,keypress(m),500,302260.39999997616,302260.09999996424,297253.374,297266.59999996424,297269.179,302264.688,8,400,16,,ISIC_1210011.JPG
break,html.Screen,4_15_1,2023-09-13T04:47:41.307Z,,0,,,NaN,,,,,,false,,,,302261.3000000119,302261.09999996424,,302260.6999999881,,302264.688,8,400,,,
break_continue,html.Screen,4_15_2,2023-09-13T04:47:41.307Z,,0,,,NaN,,,,,,false,,,,302261.6999999881,302261.5,,302261.5,,302264.688,8,400,,,
sequence,flow.Sequence,4_15,2023-09-13T04:47:41.307Z,,0,,,4992.320999999996,completion,,,,,false,,,,302261.8000000119,302261.5,297253.374,297266.59999996424,297269.179,302264.688,8,400,,,
trial,html.Screen,4_16_0,2023-09-13T04:47:45.697Z,,0,1,,4386.711999976134,response,ISIC_9699426.JPG,8,ISIC_0060481.JPG,ISIC_9699426.JPG,false,1,keypress(m),500,306651.6999999881,306651.39999997616,302255.507,302262,302264.688,306655.877,8,400,17,,ISIC_0060481.JPG
break,html.Screen,4_16_1,2023-09-13T04:47:45.698Z,,0,,,NaN,,,,,,false,,,,306652.39999997616,306652.1999999881,,306651.89999997616,,306655.877,8,400,,,
break_continue,html.Screen,4_16_2,2023-09-13T04:47:45.699Z,,0,,,NaN,,,,,,false,,,,306653.1999999881,306652.59999996424,,306652.5,,306655.877,8,400,,,
sequence,flow.Sequence,4_16,2023-09-13T04:47:45.699Z,,0,,,4387.9119999642135,completion,,,,,false,,,,306653.3000000119,306652.59999996424,302255.507,302262,302264.688,306655.877,8,400,,,
trial,html.Screen,4_17_0,2023-09-13T04:47:49.085Z,,0,1,,3383.2229999642586,response,ISIC_0057259.JPG,26,ISIC_0011691.JPG,ISIC_0057259.JPG,false,1,keypress(m),500,310039.3000000119,310039.09999996424,306647.37,306653.5,306655.877,310043.66,8,400,18,,ISIC_0011691.JPG
break,html.Screen,4_17_1,2023-09-13T04:47:49.086Z,,0,,,NaN,,,,,,false,,,,310040.1999999881,310039.89999997616,,310039.59999996424,,310043.66,8,400,,,
break_continue,html.Screen,4_17_2,2023-09-13T04:47:49.087Z,,0,,,NaN,,,,,,false,,,,310041.3000000119,310040.5,,310040.39999997616,,310043.66,8,400,,,
sequence,flow.Sequence,4_17,2023-09-13T04:47:49.087Z,,0,,,3384.6230000000214,completion,,,,,false,,,,310041.5,310040.5,306647.37,306653.39999997616,306655.877,310043.66,8,400,,,
trial,html.Screen,4_18_0,2023-09-13T04:47:52.608Z,,0,1,,3518.8400000000256,response,ISIC_0027021.JPG,21,ISIC_0060660.JPG,ISIC_0060660.JPG,false,0,keypress(z),500,313562.8000000119,313562.5,310037.187,310041.6999999881,310043.66,313566.896,8,400,19,,ISIC_0027021.JPG
break,html.Screen,4_18_1,2023-09-13T04:47:52.609Z,,0,,,NaN,,,,,,false,,,,313563.5,313563.39999997616,,313563,,313566.896,8,400,,,
break_continue,html.Screen,4_18_2,2023-09-13T04:47:52.609Z,,0,,,NaN,,,,,,false,,,,313563.89999997616,313563.8000000119,,313563.59999996424,,313566.896,8,400,,,
sequence,flow.Sequence,4_18,2023-09-13T04:47:52.610Z,,0,,,3520.1400000119465,completion,,,,,false,,,,313564.09999996424,313563.8000000119,310037.187,310041.59999996424,310043.66,313566.896,8,400,,,
trial,html.Screen,4_19_0,2023-09-13T04:47:58.958Z,,0,1,,6345.203999964229,response,ISIC_0003550.JPG,1,ISIC_0024455.JPG,ISIC_0003550.JPG,false,1,keypress(m),500,319912.39999997616,319912.09999996424,313560.025,313564.09999996424,313566.896,319944.526,8,400,20,,ISIC_0024455.JPG
break,html.Screen,4_19_1,2023-09-13T04:47:58.959Z,,0,,,NaN,,,,,,false,,,,319913.09999996424,319912.89999997616,,319912.59999996424,,319944.526,8,400,,,
break_continue,html.Screen,4_19_2,2023-09-13T04:47:58.959Z,,0,,,NaN,,,,,,false,,,,319913.5,319913.39999997616,,319913.3000000119,,319944.526,8,400,,,
sequence,flow.Sequence,4_19,2023-09-13T04:47:58.959Z,,0,,,6346.50399997615,completion,,,,,false,,,,319913.59999996424,319913.39999997616,313560.025,313564.09999996424,313566.896,319944.526,8,400,,,
trial,html.Screen,4_20_0,2023-09-13T04:48:02.305Z,,0,1,,3314.4739999999874,response,ISIC_2876105.JPG,1,ISIC_2092911.JPG,ISIC_2092911.JPG,false,0,keypress(z),500,323259.3000000119,323259,319927.908,319913.8000000119,319944.526,323263.631,8,400,21,,ISIC_2876105.JPG
break,html.Screen,4_20_1,2023-09-13T04:48:02.306Z,,0,,,NaN,,,,,,false,,,,323260.1999999881,323260,,323259.59999996424,,323263.631,8,400,,,
break_continue,html.Screen,4_20_2,2023-09-13T04:48:02.306Z,,0,,,NaN,,,,,,false,,,,323260.5,323260.39999997616,,323260.3000000119,,323263.631,8,400,,,
sequence,flow.Sequence,4_20,2023-09-13T04:48:02.306Z,,0,,,3315.8739999761456,completion,,,,,false,,,,323260.6999999881,323260.39999997616,319927.908,319913.8000000119,319944.526,323263.631,8,400,,,
trial,html.Screen,4_21_0,2023-09-13T04:48:06.136Z,,0,1,,3826.4689999642433,response,ISIC_3060145.JPG,8,ISIC_4128342.JPG,ISIC_4128342.JPG,false,0,keypress(z),500,327090.3000000119,327090.09999996424,323251.437,323260.8000000119,323263.631,327094.806,8,400,22,,ISIC_3060145.JPG
break,html.Screen,4_21_1,2023-09-13T04:48:06.137Z,,0,,,NaN,,,,,,false,,,,327091.39999997616,327091.09999996424,,327090.5,,327094.806,8,400,,,
break_continue,html.Screen,4_21_2,2023-09-13T04:48:06.137Z,,0,,,NaN,,,,,,false,,,,327091.89999997616,327091.6999999881,,327091.59999996424,,327094.806,8,400,,,
sequence,flow.Sequence,4_21,2023-09-13T04:48:06.138Z,,0,,,3828.068999988085,completion,,,,,false,,,,327092.09999996424,327091.6999999881,323251.437,323260.8000000119,323263.631,327094.806,8,400,,,
trial,html.Screen,4_22_0,2023-09-13T04:48:09.340Z,,0,1,,3199.3939999880968,response,ISIC_0029718.JPG,8,ISIC_3425388.JPG,ISIC_3425388.JPG,false,0,keypress(z),500,330294.59999996424,330294.1999999881,327088.455,327092.3000000119,327094.806,330299.18,8,400,23,,ISIC_0029718.JPG
break,html.Screen,4_22_1,2023-09-13T04:48:09.341Z,,0,,,NaN,,,,,,false,,,,330295.6999999881,330295.39999997616,,330294.89999997616,,330299.18,8,400,,,
break_continue,html.Screen,4_22_2,2023-09-13T04:48:09.342Z,,0,,,NaN,,,,,,false,,,,330296.1999999881,330296.09999996424,,330295.89999997616,,330299.18,8,400,,,
sequence,flow.Sequence,4_22,2023-09-13T04:48:09.342Z,,0,,,3201.293999964255,completion,,,,,false,,,,330296.5,330296.09999996424,327088.455,327092.1999999881,327094.806,330299.18,8,400,,,
trial,html.Screen,4_23_0,2023-09-13T04:48:13.266Z,,0,1,,3920.919999964244,response,ISIC_0033968.JPG,21,ISIC_0065537.JPG,ISIC_0065537.JPG,false,0,keypress(z),500,334220.3000000119,334220.09999996424,330288.767,330296.6999999881,330299.18,334224.666,8,400,24,,ISIC_0033968.JPG
break,html.Screen,4_23_1,2023-09-13T04:48:13.267Z,,0,,,NaN,,,,,,false,,,,334221.3000000119,334221.09999996424,,334220.59999996424,,334224.666,8,400,,,
break_continue,html.Screen,4_23_2,2023-09-13T04:48:13.267Z,,0,,,NaN,,,,,,false,,,,334221.8000000119,334221.59999996424,,334221.5,,334224.666,8,400,,,
sequence,flow.Sequence,4_23,2023-09-13T04:48:13.268Z,,0,,,3922.419999964244,completion,,,,,false,,,,334222,334221.59999996424,330288.767,330296.59999996424,330299.18,334224.666,8,400,,,
trial,html.Screen,4_24_0,2023-09-13T04:48:16.610Z,,0,1,,3339.3339999999735,response,ISIC_0003767.JPG,5,ISIC_0026558.JPG,ISIC_0003767.JPG,false,1,keypress(m),500,337564.1999999881,337564,334217.226,334222,334224.666,337568.475,8,400,25,,ISIC_0026558.JPG
break,html.Screen,4_24_1,2023-09-13T04:48:16.611Z,,0,,,NaN,,,,,,false,,,,337565.09999996424,337564.89999997616,,337564.59999996424,,337568.475,8,400,,,
break_continue,html.Screen,4_24_2,2023-09-13T04:48:16.611Z,,0,,,NaN,,,,,,false,,,,337565.39999997616,337565.39999997616,,337565.1999999881,,337568.475,8,400,,,
sequence,flow.Sequence,4_24,2023-09-13T04:48:16.611Z,,0,,,3340.7339999761316,completion,,,,,false,,,,337565.59999996424,337565.39999997616,334217.226,334222,334224.666,337568.475,8,400,,,
trial,html.Screen,4_25_0,2023-09-13T04:48:21.113Z,,0,1,,4499.025000000023,response,ISIC_0030597.JPG,13,ISIC_0030916.JPG,ISIC_0030916.JPG,false,0,keypress(z),500,342067.8000000119,342067.5,337562.397,337565.8000000119,337568.475,342072.141,8,400,26,,ISIC_0030597.JPG
break,html.Screen,4_25_1,2023-09-13T04:48:21.114Z,,0,,,NaN,,,,,,false,,,,342068.6999999881,342068.39999997616,,342068,,342072.141,8,400,,,
break_continue,html.Screen,4_25_2,2023-09-13T04:48:21.115Z,,0,,,NaN,,,,,,false,,,,342069.39999997616,342069.1999999881,,342068.8000000119,,342072.141,8,400,,,
sequence,flow.Sequence,4_25,2023-09-13T04:48:21.115Z,,0,,,4500.724999988102,completion,,,,,false,,,,342069.5,342069.1999999881,337562.397,337565.6999999881,337568.475,342072.141,8,400,,,
trial,html.Screen,4_26_0,2023-09-13T04:48:25.155Z,,0,1,,4037.058999988076,response,ISIC_8433608.JPG,21,ISIC_0025891.JPG,ISIC_0025891.JPG,false,0,keypress(z),500,346109.39999997616,346109.1999999881,342063.558,342069.6999999881,342072.141,346113.539,8,400,27,,ISIC_8433608.JPG
break,html.Screen,4_26_1,2023-09-13T04:48:25.156Z,,0,,,NaN,,,,,,false,,,,346110.3000000119,346110,,346109.59999996424,,346113.539,8,400,,,
break_continue,html.Screen,4_26_2,2023-09-13T04:48:25.156Z,,0,,,NaN,,,,,,false,,,,346110.6999999881,346110.59999996424,,346110.5,,346113.539,8,400,,,
sequence,flow.Sequence,4_26,2023-09-13T04:48:25.156Z,,0,,,4038.458999964234,completion,,,,,false,,,,346110.8000000119,346110.59999996424,342063.558,342069.6999999881,342072.141,346113.539,8,400,,,
trial,html.Screen,4_27_0,2023-09-13T04:48:29.607Z,,0,1,,4447.46100000001,response,ISIC_0053541.JPG,12,ISIC_7342636.JPG,ISIC_7342636.JPG,false,0,keypress(z),500,350561.39999997616,350561,346103.254,346110.89999997616,346113.539,350565.637,8,400,28,,ISIC_0053541.JPG
break,html.Screen,4_27_1,2023-09-13T04:48:29.608Z,,0,,,NaN,,,,,,false,,,,350562.09999996424,350562,,350561.59999996424,,350565.637,8,400,,,
break_continue,html.Screen,4_27_2,2023-09-13T04:48:29.608Z,,0,,,NaN,,,,,,false,,,,350562.5,350562.39999997616,,350562.3000000119,,350565.637,8,400,,,
sequence,flow.Sequence,4_27,2023-09-13T04:48:29.608Z,,0,,,4448.860999976168,completion,,,,,false,,,,350562.6999999881,350562.39999997616,346103.254,346110.89999997616,346113.539,350565.637,8,400,,,
trial,html.Screen,4_28_0,2023-09-13T04:48:33.581Z,,0,1,,3969.562999988091,response,ISIC_0059551.JPG,13,ISIC_0063190.JPG,ISIC_0063190.JPG,false,0,keypress(z),500,354535.5,354535.1999999881,350557.88,350562.89999997616,350565.637,354539.592,8,400,29,,ISIC_0059551.JPG
break,html.Screen,4_28_1,2023-09-13T04:48:33.582Z,,0,,,NaN,,,,,,false,,,,354536.1999999881,354536,,354535.6999999881,,354539.592,8,400,,,
break_continue,html.Screen,4_28_2,2023-09-13T04:48:33.582Z,,0,,,NaN,,,,,,false,,,,354536.5,354536.39999997616,,354536.39999997616,,354539.592,8,400,,,
sequence,flow.Sequence,4_28,2023-09-13T04:48:33.582Z,,0,,,3970.7629999761702,completion,,,,,false,,,,354536.6999999881,354536.39999997616,350557.88,350562.8000000119,350565.637,354539.592,8,400,,,
trial,html.Screen,4_29_0,2023-09-13T04:48:36.644Z,,0,1,,3058.807999976154,response,ISIC_4062017.JPG,8,ISIC_0024987.JPG,ISIC_4062017.JPG,false,1,keypress(m),500,357598.5,357598.39999997616,354524.471,354536.89999997616,354539.592,357602.595,8,400,30,,ISIC_0024987.JPG
break,html.Screen,4_29_1,2023-09-13T04:48:36.645Z,,0,,,NaN,,,,,,false,,,,357599.1999999881,357599,,357598.6999999881,,357602.595,8,400,,,
break_continue,html.Screen,4_29_2,2023-09-13T04:48:36.645Z,,0,,,NaN,,,,,,false,,,,357599.6999999881,357599.5,,357599.3000000119,,357602.595,8,400,,,
sequence,flow.Sequence,4_29,2023-09-13T04:48:36.645Z,,0,,,3059.907999999996,completion,,,,,false,,,,357599.8000000119,357599.5,354524.471,354536.8000000119,354539.592,357602.595,8,400,,,
trial,html.Screen,4_30_0,2023-09-13T04:48:40.509Z,,0,1,,3860.004999964265,response,ISIC_6507492.JPG,8,ISIC_0065590.JPG,ISIC_0065590.JPG,false,0,keypress(z),500,361463,361462.59999996424,357594.645,357600,357602.595,361467.277,8,400,31,,ISIC_6507492.JPG
break,html.Screen,4_30_1,2023-09-13T04:48:40.509Z,,0,,,NaN,,,,,,false,,,,361463.89999997616,361463.6999999881,,361463.3000000119,,361467.277,8,400,,,
break_continue,html.Screen,4_30_2,2023-09-13T04:48:40.510Z,,0,,,NaN,,,,,,false,,,,361464.1999999881,361464.09999996424,,361463.89999997616,,361467.277,8,400,,,
sequence,flow.Sequence,4_30,2023-09-13T04:48:40.510Z,,0,,,3861.504999964265,completion,,,,,false,,,,361464.3000000119,361464.09999996424,357594.645,357600,357602.595,361467.277,8,400,,,
trial,html.Screen,4_31_0,2023-09-13T04:48:43.714Z,,0,1,,3200.422999988077,response,ISIC_0485996.JPG,12,ISIC_0327406.JPG,ISIC_0327406.JPG,false,0,keypress(z),500,364668,364667.6999999881,361452.337,361464.5,361467.277,364672.067,8,400,32,,ISIC_0485996.JPG
break,html.Screen,4_31_1,2023-09-13T04:48:43.714Z,,0,,,NaN,,,,,,false,,,,364668.59999996424,364668.39999997616,,364668.09999996424,,364672.067,8,400,,,
break_continue,html.Screen,4_31_2,2023-09-13T04:48:43.715Z,,0,,,NaN,,,,,,false,,,,364669.5,364668.89999997616,,364668.6999999881,,364672.067,8,400,,,
sequence,flow.Sequence,4_31,2023-09-13T04:48:43.715Z,,0,,,3201.6229999761563,completion,,,,,false,,,,364669.59999996424,364668.89999997616,361452.337,361464.39999997616,361467.277,364672.067,8,400,,,
trial,html.Screen,4_32_0,2023-09-13T04:48:46.984Z,,0,1,,3265.933000000019,response,ISIC_0026428.JPG,0,ISIC_1870415.JPG,ISIC_1870415.JPG,false,0,keypress(z),500,367938.3000000119,367938,364660.148,364669.6999999881,364672.067,367942.411,8,400,33,,ISIC_0026428.JPG
break,html.Screen,4_32_1,2023-09-13T04:48:46.985Z,,0,,,NaN,,,,,,false,,,,367939.09999996424,367938.89999997616,,367938.5,,367942.411,8,400,,,
break_continue,html.Screen,4_32_2,2023-09-13T04:48:46.985Z,,0,,,NaN,,,,,,false,,,,367939.5,367939.3000000119,,367939.1999999881,,367942.411,8,400,,,
sequence,flow.Sequence,4_32,2023-09-13T04:48:46.985Z,,0,,,3267.23300001194,completion,,,,,false,,,,367939.59999996424,367939.3000000119,364660.148,364669.6999999881,364672.067,367942.411,8,400,,,
trial,html.Screen,4_33_0,2023-09-13T04:48:50.587Z,,0,1,,3598.9889999761363,response,ISIC_5386244.JPG,21,ISIC_0032526.JPG,ISIC_0032526.JPG,false,0,keypress(z),500,371541.59999996424,371541.39999997616,367927.225,367939.6999999881,367942.411,371562.437,8,400,34,,ISIC_5386244.JPG
break,html.Screen,4_33_1,2023-09-13T04:48:50.588Z,,0,,,NaN,,,,,,false,,,,371542.5,371542.3000000119,,371541.89999997616,,371562.437,8,400,,,
break_continue,html.Screen,4_33_2,2023-09-13T04:48:50.588Z,,0,,,NaN,,,,,,false,,,,371542.89999997616,371542.8000000119,,371542.59999996424,,371562.437,8,400,,,
sequence,flow.Sequence,4_33,2023-09-13T04:48:50.589Z,,0,,,3600.389000011899,completion,,,,,false,,,,371543.1999999881,371542.8000000119,367927.225,367939.6999999881,367942.411,371562.437,8,400,,,
trial,html.Screen,4_34_0,2023-09-13T04:48:53.391Z,,0,1,,2782.662999964261,response,ISIC_0010213.JPG,9,ISIC_0060817.JPG,ISIC_0010213.JPG,false,1,keypress(m),500,374345.39999997616,374345.09999996424,371540.781,371543.3000000119,371562.437,374349.449,8,400,35,,ISIC_0060817.JPG
break,html.Screen,4_34_1,2023-09-13T04:48:53.392Z,,0,,,NaN,,,,,,false,,,,374346.09999996424,374345.89999997616,,374345.5,,374349.449,8,400,,,
break_continue,html.Screen,4_34_2,2023-09-13T04:48:53.392Z,,0,,,NaN,,,,,,false,,,,374346.39999997616,374346.1999999881,,374346.09999996424,,374349.449,8,400,,,
sequence,flow.Sequence,4_34,2023-09-13T04:48:53.392Z,,0,,,2783.762999988103,completion,,,,,false,,,,374346.5,374346.1999999881,371540.781,371543.1999999881,371562.437,374349.449,8,400,,,
trial,html.Screen,4_35_0,2023-09-13T04:48:58.578Z,,0,1,,5182.851000011899,response,ISIC_0062204.JPG,5,ISIC_9826778.JPG,ISIC_9826778.JPG,false,0,keypress(z),500,379532.59999996424,379532.3000000119,374335.6,374346.6999999881,374349.449,379536.978,8,400,36,,ISIC_0062204.JPG
break,html.Screen,4_35_1,2023-09-13T04:48:58.579Z,,0,,,NaN,,,,,,false,,,,379533.5,379533.3000000119,,379532.89999997616,,379536.978,8,400,,,
break_continue,html.Screen,4_35_2,2023-09-13T04:48:58.580Z,,0,,,NaN,,,,,,false,,,,379534.09999996424,379533.89999997616,,379533.6999999881,,379536.978,8,400,,,
sequence,flow.Sequence,4_35,2023-09-13T04:48:58.580Z,,0,,,5184.450999976136,completion,,,,,false,,,,379534.3000000119,379533.89999997616,374335.6,374346.59999996424,374349.449,379536.978,8,400,,,
trial,html.Screen,4_36_0,2023-09-13T04:49:01.798Z,,0,1,,3215.2219999880763,response,ISIC_0014183.JPG,4,ISIC_4161113.JPG,ISIC_4161113.JPG,false,0,keypress(z),500,382752.5,382752.1999999881,379529.684,379534.3000000119,379536.978,382756.983,8,400,37,,ISIC_0014183.JPG
break,html.Screen,4_36_1,2023-09-13T04:49:01.799Z,,0,,,NaN,,,,,,false,,,,382753.39999997616,382753.09999996424,,382752.6999999881,,382756.983,8,400,,,
break_continue,html.Screen,4_36_2,2023-09-13T04:49:01.800Z,,0,,,NaN,,,,,,false,,,,382754.09999996424,382753.8000000119,,382753.5,,382756.983,8,400,,,
sequence,flow.Sequence,4_36,2023-09-13T04:49:01.800Z,,0,,,3216.822000011918,completion,,,,,false,,,,382754.3000000119,382753.8000000119,379529.684,379534.3000000119,379536.978,382756.983,8,400,,,
trial,html.Screen,4_37_0,2023-09-13T04:49:08.796Z,,0,1,,6993.61699996423,response,ISIC_0012037.JPG,26,ISIC_6487069.JPG,ISIC_0012037.JPG,false,1,keypress(m),500,389750.89999997616,389750.59999996424,382752.429,382754.39999997616,382756.983,389755.751,8,400,38,,ISIC_6487069.JPG
break,html.Screen,4_37_1,2023-09-13T04:49:08.797Z,,0,,,NaN,,,,,,false,,,,389751.8000000119,389751.5,,389751.09999996424,,389755.751,8,400,,,
break_continue,html.Screen,4_37_2,2023-09-13T04:49:08.798Z,,0,,,NaN,,,,,,false,,,,389752.1999999881,389752.09999996424,,389751.8000000119,,389755.751,8,400,,,
sequence,flow.Sequence,4_37,2023-09-13T04:49:08.798Z,,0,,,6995.11699996423,completion,,,,,false,,,,389752.39999997616,389752.09999996424,382752.429,382754.39999997616,382756.983,389755.751,8,400,,,
trial,html.Screen,4_38_0,2023-09-13T04:49:12.372Z,,0,1,,3570.648999976169,response,ISIC_0011040.JPG,20,ISIC_0064798.JPG,ISIC_0064798.JPG,false,0,keypress(z),500,393326.6999999881,393326.39999997616,389736.829,389752.5,389755.751,393331.031,8,400,39,,ISIC_0011040.JPG
break,html.Screen,4_38_1,2023-09-13T04:49:12.373Z,,0,,,NaN,,,,,,false,,,,393327.5,393327.3000000119,,393326.89999997616,,393331.031,8,400,,,
break_continue,html.Screen,4_38_2,2023-09-13T04:49:12.374Z,,0,,,NaN,,,,,,false,,,,393328.1999999881,393328,,393327.6999999881,,393331.031,8,400,,,
sequence,flow.Sequence,4_38,2023-09-13T04:49:12.374Z,,0,,,3572.2490000000107,completion,,,,,false,,,,393328.39999997616,393328,389736.829,389752.5,389755.751,393331.031,8,400,,,
trial,html.Screen,4_39_0,2023-09-13T04:49:18.273Z,,0,1,,5896.368999976141,response,ISIC_0024308.JPG,13,ISIC_0072182.JPG,ISIC_0072182.JPG,false,0,keypress(z),500,399227.6999999881,399227.39999997616,393316.159,393328.59999996424,393331.031,399231.832,8,400,40,,ISIC_0024308.JPG
break,html.Screen,4_39_1,2023-09-13T04:49:18.274Z,,0,,,NaN,,,,,,false,,,,399228.5,399228.3000000119,,399227.89999997616,,399231.832,8,400,,,
break_continue,html.Screen,4_39_2,2023-09-13T04:49:18.274Z,,0,,,NaN,,,,,,false,,,,399228.8000000119,399228.6999999881,,399228.59999996424,,399231.832,8,400,,,
sequence,flow.Sequence,4_39,2023-09-13T04:49:18.275Z,,0,,,5897.668999988062,completion,,,,,false,,,,399229,399228.6999999881,393316.159,393328.5,393331.031,399231.832,8,400,,,
trial,html.Screen,4_40_0,2023-09-13T04:49:24.776Z,,0,1,,6498.267999964242,response,ISIC_0022328.JPG,15,ISIC_9021685.JPG,ISIC_0022328.JPG,false,1,keypress(m),500,405730.5,405730.09999996424,399216.091,399229.09999996424,399231.832,405734.924,8,400,41,,ISIC_9021685.JPG
break,html.Screen,4_40_1,2023-09-13T04:49:24.777Z,,0,,,NaN,,,,,,false,,,,405731.39999997616,405731.1999999881,,405730.8000000119,,405734.924,8,400,,,
break_continue,html.Screen,4_40_2,2023-09-13T04:49:24.778Z,,0,,,NaN,,,,,,false,,,,405732.1999999881,405732,,405731.8000000119,,405734.924,8,400,,,
sequence,flow.Sequence,4_40,2023-09-13T04:49:24.778Z,,0,,,6500.168000000005,completion,,,,,false,,,,405732.39999997616,405732,399216.091,399229.09999996424,399231.832,405734.924,8,400,,,
trial,html.Screen,4_41_0,2023-09-13T04:49:28.875Z,,0,1,,4094.376000011922,response,ISIC_0054329.JPG,14,ISIC_0239949.JPG,ISIC_0239949.JPG,false,0,keypress(z),500,409829.59999996424,409829.3000000119,405728.612,405732.59999996424,405734.924,409833.735,8,400,42,,ISIC_0054329.JPG
break,html.Screen,4_41_1,2023-09-13T04:49:28.876Z,,0,,,NaN,,,,,,false,,,,409830.39999997616,409830.1999999881,,409829.8000000119,,409833.735,8,400,,,
break_continue,html.Screen,4_41_2,2023-09-13T04:49:28.876Z,,0,,,NaN,,,,,,false,,,,409830.8000000119,409830.59999996424,,409830.5,,409833.735,8,400,,,
sequence,flow.Sequence,4_41,2023-09-13T04:49:28.877Z,,0,,,4095.675999964238,completion,,,,,false,,,,409831,409830.59999996424,405728.612,405732.59999996424,405734.924,409833.735,8,400,,,
trial,html.Screen,4_42_0,2023-09-13T04:49:37.711Z,,0,1,,8831.265000000014,response,ISIC_0024236.JPG,37,ISIC_0029550.JPG,ISIC_0029550.JPG,false,0,keypress(z),500,418665.3000000119,418665,409822.824,409831.09999996424,409833.735,418669.617,8,400,43,,ISIC_0024236.JPG
break,html.Screen,4_42_1,2023-09-13T04:49:37.712Z,,0,,,NaN,,,,,,false,,,,418666.1999999881,418666,,418665.59999996424,,418669.617,8,400,,,
break_continue,html.Screen,4_42_2,2023-09-13T04:49:37.712Z,,0,,,NaN,,,,,,false,,,,418666.6999999881,418666.59999996424,,418666.39999997616,,418669.617,8,400,,,
sequence,flow.Sequence,4_42,2023-09-13T04:49:37.712Z,,0,,,8832.864999964251,completion,,,,,false,,,,418666.8000000119,418666.59999996424,409822.824,409831.09999996424,409833.735,418669.617,8,400,,,
trial,html.Screen,4_43_0,2023-09-13T04:49:40.899Z,,0,1,,3183.1830000118935,response,ISIC_7454512.JPG,6,ISIC_0056677.JPG,ISIC_7454512.JPG,false,1,keypress(m),500,421853.09999996424,421852.8000000119,418661.868,418667,418669.617,421857.444,8,400,44,,ISIC_0056677.JPG
break,html.Screen,4_43_1,2023-09-13T04:49:40.900Z,,0,,,NaN,,,,,,false,,,,421854,421853.8000000119,,421853.3000000119,,421857.444,8,400,,,
break_continue,html.Screen,4_43_2,2023-09-13T04:49:40.900Z,,0,,,NaN,,,,,,false,,,,421854.59999996424,421854.39999997616,,421854.1999999881,,421857.444,8,400,,,
sequence,flow.Sequence,4_43,2023-09-13T04:49:40.900Z,,0,,,3184.7829999761307,completion,,,,,false,,,,421854.6999999881,421854.39999997616,418661.868,418667,418669.617,421857.444,8,400,,,
trial,html.Screen,4_44_0,2023-09-13T04:49:43.870Z,,0,1,,2966.5559999999823,response,ISIC_0024591.JPG,22,ISIC_0067805.JPG,ISIC_0024591.JPG,false,1,keypress(m),500,424824.3000000119,424824,421845.488,421854.89999997616,421857.444,424828.719,8,400,45,,ISIC_0067805.JPG
break,html.Screen,4_44_1,2023-09-13T04:49:43.871Z,,0,,,NaN,,,,,,false,,,,424825.1999999881,424824.89999997616,,424824.5,,424828.719,8,400,,,
break_continue,html.Screen,4_44_2,2023-09-13T04:49:43.871Z,,0,,,NaN,,,,,,false,,,,424825.89999997616,424825.6999999881,,424825.3000000119,,424828.719,8,400,,,
sequence,flow.Sequence,4_44,2023-09-13T04:49:43.872Z,,0,,,2968.2559999880614,completion,,,,,false,,,,424826.1999999881,424825.6999999881,421845.488,421854.8000000119,421857.444,424828.719,8,400,,,
trial,html.Screen,4_45_0,2023-09-13T04:49:48.370Z,,0,1,,4495.380999964254,response,ISIC_6317162.JPG,7,ISIC_1911193.JPG,ISIC_1911193.JPG,false,0,keypress(z),500,429324.39999997616,429324.09999996424,424815.205,424826.39999997616,424828.719,429328.696,8,400,46,,ISIC_6317162.JPG
break,html.Screen,4_45_1,2023-09-13T04:49:48.371Z,,0,,,NaN,,,,,,false,,,,429325.1999999881,429325,,429324.59999996424,,429328.696,8,400,,,
break_continue,html.Screen,4_45_2,2023-09-13T04:49:48.371Z,,0,,,NaN,,,,,,false,,,,429325.5,429325.39999997616,,429325.3000000119,,429328.696,8,400,,,
sequence,flow.Sequence,4_45,2023-09-13T04:49:48.371Z,,0,,,4496.680999976175,completion,,,,,false,,,,429325.8000000119,429325.39999997616,424815.205,424826.3000000119,424828.719,429328.696,8,400,,,
trial,html.Screen,4_46_0,2023-09-13T04:49:51.656Z,,0,1,,3281.3040000000037,response,ISIC_0010543.JPG,24,ISIC_0027225.JPG,ISIC_0027225.JPG,false,0,keypress(z),500,432610.39999997616,432610,429316.36,429325.89999997616,429328.696,432614.978,8,400,47,,ISIC_0010543.JPG
break,html.Screen,4_46_1,2023-09-13T04:49:51.657Z,,0,,,NaN,,,,,,false,,,,432611.5,432611.1999999881,,432610.6999999881,,432614.978,8,400,,,
break_continue,html.Screen,4_46_2,2023-09-13T04:49:51.658Z,,0,,,NaN,,,,,,false,,,,432612,432611.89999997616,,432611.59999996424,,432614.978,8,400,,,
sequence,flow.Sequence,4_46,2023-09-13T04:49:51.658Z,,0,,,3283.203999976162,completion,,,,,false,,,,432612.3000000119,432611.89999997616,429316.36,429325.8000000119,429328.696,432614.978,8,400,,,
trial,html.Screen,4_47_0,2023-09-13T04:49:54.802Z,,0,1,,3141.2219999880763,response,ISIC_0005139.JPG,5,ISIC_0027109.JPG,ISIC_0005139.JPG,false,1,keypress(m),500,435756.59999996424,435756.1999999881,432607.985,432612.39999997616,432614.978,435760.731,8,400,48,,ISIC_0027109.JPG
break,html.Screen,4_47_1,2023-09-13T04:49:54.803Z,,0,,,NaN,,,,,,false,,,,435757.39999997616,435757.1999999881,,435756.8000000119,,435760.731,8,400,,,
break_continue,html.Screen,4_47_2,2023-09-13T04:49:54.803Z,,0,,,NaN,,,,,,false,,,,435757.6999999881,435757.59999996424,,435757.5,,435760.731,8,400,,,
sequence,flow.Sequence,4_47,2023-09-13T04:49:54.803Z,,0,,,3142.6219999642344,completion,,,,,false,,,,435757.89999997616,435757.59999996424,432607.985,432612.39999997616,432614.978,435760.731,8,400,,,
trial,html.Screen,4_48_0,2023-09-13T04:49:57.642Z,,0,1,,2834.96899998805,response,ISIC_6208508.JPG,12,ISIC_8955135.JPG,ISIC_8955135.JPG,false,0,keypress(z),500,438596.09999996424,438595.6999999881,435744.9,435758,435760.731,438600.294,8,400,49,,ISIC_6208508.JPG
break,html.Screen,4_48_1,2023-09-13T04:49:57.642Z,,0,,,NaN,,,,,,false,,,,438597,438596.6999999881,,438596.3000000119,,438600.294,8,400,,,
break_continue,html.Screen,4_48_2,2023-09-13T04:49:57.643Z,,0,,,NaN,,,,,,false,,,,438597.3000000119,438597.1999999881,,438597,,438600.294,8,400,,,
sequence,flow.Sequence,4_48,2023-09-13T04:49:57.643Z,,0,,,2836.46899998805,completion,,,,,false,,,,438597.5,438597.1999999881,435744.9,435758,435760.731,438600.294,8,400,,,
trial,html.Screen,4_49_0,2023-09-13T04:50:00.385Z,,0,1,,2738.805999964243,response,ISIC_0028548.JPG,4,ISIC_1410408.JPG,ISIC_1410408.JPG,false,0,keypress(z),500,441339.5,441339.09999996424,438586.32,438597.59999996424,438600.294,441350.09,8,400,50,,ISIC_0028548.JPG
break,html.Screen,4_49_1,2023-09-13T04:50:10.381Z,,0,,,10000.44399999996,timeout,,,,,false,,,,451335.39999997616,451333.992,441335.578,441339.6999999881,441350.09,451350.534,8,400,,,
break_continue,html.Screen,4_49_2,2023-09-13T04:50:13.203Z,,0,,,2796.065999964252,response,,,,,false,continue,keypress(Space),,454157,454146.59999996424,451333.992,451335.5,451350.534,454161.358,8,400,,,
sequence,flow.Sequence,4_49,2023-09-13T04:50:13.203Z,,0,,,15546.305999964243,completion,,,,,false,,,,454157.3000000119,454146.59999996424,438586.32,438597.59999996424,438600.294,454161.358,8,400,,,
trial,html.Screen,4_50_0,2023-09-13T04:50:17.602Z,,0,2,,4395.24199996423,response,ISIC_0033216.JPG,5,ISIC_3286956.JPG,ISIC_0033216.JPG,false,1,keypress(m),500,458556.8000000119,458556.59999996424,454150.675,454157.39999997616,454161.358,458560.924,8,400,1,,ISIC_3286956.JPG
break,html.Screen,4_50_1,2023-09-13T04:50:17.603Z,,0,,,NaN,,,,,,false,,,,458557.39999997616,458557.1999999881,,458557,,458560.924,8,400,,,
break_continue,html.Screen,4_50_2,2023-09-13T04:50:17.603Z,,0,,,NaN,,,,,,false,,,,458557.89999997616,458557.59999996424,,458557.5,,458560.924,8,400,,,
sequence,flow.Sequence,4_50,2023-09-13T04:50:17.604Z,,0,,,4396.24199996423,completion,,,,,false,,,,458558.09999996424,458557.59999996424,454150.675,454157.3000000119,454161.358,458560.924,8,400,,,
trial,html.Screen,4_51_0,2023-09-13T04:50:20.814Z,,0,2,,3206.876000011922,response,ISIC_0028135.JPG,30,ISIC_0033086.JPG,ISIC_0033086.JPG,false,0,keypress(z),500,461768.09999996424,461767.8000000119,458547.901,458558.5,458560.924,461772.305,8,400,2,,ISIC_0028135.JPG
break,html.Screen,4_51_1,2023-09-13T04:50:20.814Z,,0,,,NaN,,,,,,false,,,,461768.89999997616,461768.6999999881,,461768.3000000119,,461772.305,8,400,,,
break_continue,html.Screen,4_51_2,2023-09-13T04:50:20.816Z,,0,,,NaN,,,,,,false,,,,461770,461769.6999999881,,461769.1999999881,,461772.305,8,400,,,
sequence,flow.Sequence,4_51,2023-09-13T04:50:20.816Z,,0,,,3208.77599998808,completion,,,,,false,,,,461770.39999997616,461769.6999999881,458547.901,458558.39999997616,458560.924,461772.305,8,400,,,
trial,html.Screen,4_52_0,2023-09-13T04:50:23.510Z,,0,2,,2691.594999976165,response,ISIC_0032873.JPG,5,ISIC_0026394.JPG,ISIC_0026394.JPG,false,0,keypress(z),500,464464.3000000119,464463.89999997616,461767.96,461770.5,461772.305,464468.893,8,400,3,,ISIC_0032873.JPG
break,html.Screen,4_52_1,2023-09-13T04:50:23.511Z,,0,,,NaN,,,,,,false,,,,464465.3000000119,464465,,464464.59999996424,,464468.893,8,400,,,
break_continue,html.Screen,4_52_2,2023-09-13T04:50:23.511Z,,0,,,NaN,,,,,,false,,,,464465.89999997616,464465.59999996424,,464465.39999997616,,464468.893,8,400,,,
sequence,flow.Sequence,4_52,2023-09-13T04:50:23.512Z,,0,,,2693.294999964244,completion,,,,,false,,,,464466.1999999881,464465.59999996424,461767.96,461770.5,461772.305,464468.893,8,400,,,
trial,html.Screen,4_53_0,2023-09-13T04:50:26.810Z,,0,2,,3295.607000000018,response,ISIC_9776851.JPG,5,ISIC_0033612.JPG,ISIC_0033612.JPG,false,0,keypress(z),500,467764.8000000119,467764.5,464459.227,464466.39999997616,464468.893,467769.13,8,400,4,,ISIC_9776851.JPG
break,html.Screen,4_53_1,2023-09-13T04:50:26.811Z,,0,,,NaN,,,,,,false,,,,467765.6999999881,467765.5,,467765.09999996424,,467769.13,8,400,,,
break_continue,html.Screen,4_53_2,2023-09-13T04:50:26.812Z,,0,,,NaN,,,,,,false,,,,467766.09999996424,467766,,467765.8000000119,,467769.13,8,400,,,
sequence,flow.Sequence,4_53,2023-09-13T04:50:26.812Z,,0,,,3297.107000000018,completion,,,,,false,,,,467766.1999999881,467766,464459.227,464466.3000000119,464468.893,467769.13,8,400,,,
trial,html.Screen,4_54_0,2023-09-13T04:50:29.455Z,,0,2,,2639.6700000119163,response,ISIC_2904474.JPG,4,ISIC_0010514.JPG,ISIC_2904474.JPG,false,1,keypress(m),500,470409.09999996424,470408.8000000119,467750.208,467766.39999997616,467769.13,470413.424,8,400,5,,ISIC_0010514.JPG
break,html.Screen,4_54_1,2023-09-13T04:50:29.456Z,,0,,,NaN,,,,,,false,,,,470409.89999997616,470409.6999999881,,470409.3000000119,,470413.424,8,400,,,
break_continue,html.Screen,4_54_2,2023-09-13T04:50:29.457Z,,0,,,NaN,,,,,,false,,,,470410.89999997616,470410.8000000119,,470410.09999996424,,470413.424,8,400,,,
sequence,flow.Sequence,4_54,2023-09-13T04:50:29.457Z,,0,,,2641.6700000119163,completion,,,,,false,,,,470411.09999996424,470410.8000000119,467750.208,467766.39999997616,467769.13,470413.424,8,400,,,
trial,html.Screen,4_55_0,2023-09-13T04:50:38.507Z,,0,2,,9047.876000011922,response,ISIC_0028136.JPG,10,ISIC_1370142.JPG,ISIC_0028136.JPG,false,1,keypress(m),500,479461.6999999881,479461.3000000119,470401.999,470411.1999999881,470413.424,479465.8,8,400,6,,ISIC_1370142.JPG
break,html.Screen,4_55_1,2023-09-13T04:50:38.508Z,,0,,,NaN,,,,,,false,,,,479462.39999997616,479462.1999999881,,479461.8000000119,,479465.8,8,400,,,
break_continue,html.Screen,4_55_2,2023-09-13T04:50:38.508Z,,0,,,NaN,,,,,,false,,,,479462.8000000119,479462.59999996424,,479462.59999996424,,479465.8,8,400,,,
sequence,flow.Sequence,4_55,2023-09-13T04:50:38.508Z,,0,,,9049.175999964238,completion,,,,,false,,,,479462.89999997616,479462.59999996424,470401.999,470411.1999999881,470413.424,479465.8,8,400,,,
trial,html.Screen,4_56_0,2023-09-13T04:50:49.158Z,,0,2,,10646.000000011933,response,ISIC_0031015.JPG,21,ISIC_0070822.JPG,ISIC_0070822.JPG,false,0,keypress(z),500,490112.09999996424,490111.8000000119,479449.284,479463,479465.8,490116.436,8,400,7,,ISIC_0031015.JPG
break,html.Screen,4_56_1,2023-09-13T04:50:49.159Z,,0,,,NaN,,,,,,false,,,,490113,490112.8000000119,,490112.39999997616,,490116.436,8,400,,,
break_continue,html.Screen,4_56_2,2023-09-13T04:50:49.159Z,,0,,,NaN,,,,,,false,,,,490113.39999997616,490113.3000000119,,490113.09999996424,,490116.436,8,400,,,
sequence,flow.Sequence,4_56,2023-09-13T04:50:49.159Z,,0,,,10647.500000011933,completion,,,,,false,,,,490113.59999996424,490113.3000000119,479449.284,479462.89999997616,479465.8,490116.436,8,400,,,
trial,html.Screen,4_57_0,2023-09-13T04:50:52.250Z,,0,2,,3087.6639999642503,response,ISIC_8907232.JPG,12,ISIC_1533305.JPG,ISIC_1533305.JPG,false,0,keypress(z),500,493204.39999997616,493204.09999996424,490098.706,490114,490116.436,493208.855,8,400,8,,ISIC_8907232.JPG
break,html.Screen,4_57_1,2023-09-13T04:50:52.251Z,,0,,,NaN,,,,,,false,,,,493205.39999997616,493205.1999999881,,493204.8000000119,,493208.855,8,400,,,
break_continue,html.Screen,4_57_2,2023-09-13T04:50:52.252Z,,0,,,NaN,,,,,,false,,,,493205.89999997616,493205.8000000119,,493205.59999996424,,493208.855,8,400,,,
sequence,flow.Sequence,4_57,2023-09-13T04:50:52.252Z,,0,,,3089.364000011934,completion,,,,,false,,,,493206.09999996424,493205.8000000119,490098.706,490114,490116.436,493208.855,8,400,,,
trial,html.Screen,4_58_0,2023-09-13T04:51:00.961Z,,0,2,,8706.645000000019,response,ISIC_0024246.JPG,6,ISIC_0030506.JPG,ISIC_0030506.JPG,false,0,keypress(z),500,501915.8000000119,501915.5,493193.516,493206.1999999881,493208.855,501925.295,8,400,9,,ISIC_0024246.JPG
break,html.Screen,4_58_1,2023-09-13T04:51:00.962Z,,0,,,NaN,,,,,,false,,,,501916.59999996424,501916.5,,501916.09999996424,,501925.295,8,400,,,
break_continue,html.Screen,4_58_2,2023-09-13T04:51:00.963Z,,0,,,NaN,,,,,,false,,,,501917.09999996424,501916.89999997616,,501916.89999997616,,501925.295,8,400,,,
sequence,flow.Sequence,4_58,2023-09-13T04:51:00.963Z,,0,,,8708.044999976177,completion,,,,,false,,,,501917.3000000119,501916.89999997616,493193.516,493206.1999999881,493208.855,501925.295,8,400,,,
trial,html.Screen,4_59_0,2023-09-13T04:51:04.678Z,,0,2,,3706.505000011937,response,ISIC_0029017.JPG,2,ISIC_8195528.JPG,ISIC_0029017.JPG,false,1,keypress(m),500,505632.09999996424,505631.8000000119,501904.364,501917.39999997616,501925.295,505636.205,8,400,10,,ISIC_8195528.JPG
break,html.Screen,4_59_1,2023-09-13T04:51:04.678Z,,0,,,NaN,,,,,,false,,,,505632.8000000119,505632.59999996424,,505632.3000000119,,505636.205,8,400,,,
break_continue,html.Screen,4_59_2,2023-09-13T04:51:04.679Z,,0,,,NaN,,,,,,false,,,,505633.1999999881,505633.09999996424,,505633,,505636.205,8,400,,,
sequence,flow.Sequence,4_59,2023-09-13T04:51:04.679Z,,0,,,3707.8049999642535,completion,,,,,false,,,,505633.5,505633.09999996424,501904.364,501917.3000000119,501925.295,505636.205,8,400,,,
trial,html.Screen,4_60_0,2023-09-13T04:51:08.231Z,,0,2,,3549.394999964221,response,ISIC_1334038.JPG,6,ISIC_0032875.JPG,ISIC_1334038.JPG,false,1,keypress(m),500,509185.89999997616,509185.59999996424,505624.801,505633.5,505636.205,509190.128,8,400,11,,ISIC_0032875.JPG
break,html.Screen,4_60_1,2023-09-13T04:51:08.232Z,,0,,,NaN,,,,,,false,,,,509186.6999999881,509186.5,,509186.09999996424,,509190.128,8,400,,,
break_continue,html.Screen,4_60_2,2023-09-13T04:51:08.233Z,,0,,,NaN,,,,,,false,,,,509187.1999999881,509187,,509186.8000000119,,509190.128,8,400,,,
sequence,flow.Sequence,4_60,2023-09-13T04:51:08.233Z,,0,,,3550.7949999999837,completion,,,,,false,,,,509187.3000000119,509187,505624.801,505633.5,505636.205,509190.128,8,400,,,
trial,html.Screen,4_61_0,2023-09-13T04:51:11.852Z,,0,2,,3616.471999964211,response,ISIC_1026382.JPG,5,ISIC_0030300.JPG,ISIC_1026382.JPG,false,1,keypress(m),500,512806.89999997616,512806.59999996424,509181.734,509187.5,509190.128,512811.265,8,400,12,,ISIC_0030300.JPG
break,html.Screen,4_61_1,2023-09-13T04:51:11.853Z,,0,,,NaN,,,,,,false,,,,512807.6999999881,512807.5,,512807.09999996424,,512811.265,8,400,,,
break_continue,html.Screen,4_61_2,2023-09-13T04:51:11.854Z,,0,,,NaN,,,,,,false,,,,512808.3000000119,512808.1999999881,,512807.8000000119,,512811.265,8,400,,,
sequence,flow.Sequence,4_61,2023-09-13T04:51:11.854Z,,0,,,3618.071999988053,completion,,,,,false,,,,512808.5,512808.1999999881,509181.734,509187.5,509190.128,512811.265,8,400,,,
trial,html.Screen,4_62_0,2023-09-13T04:51:15.331Z,,0,2,,3474.134999976144,response,ISIC_8803600.JPG,22,ISIC_2682861.JPG,ISIC_2682861.JPG,false,0,keypress(z),500,516285.59999996424,516285.39999997616,512795.15,512808.59999996424,512811.265,516290.765,8,400,13,,ISIC_8803600.JPG
break,html.Screen,4_62_1,2023-09-13T04:51:15.333Z,,0,,,NaN,,,,,,false,,,,516287.3000000119,516287.09999996424,,516286.6999999881,,516290.765,8,400,,,
break_continue,html.Screen,4_62_2,2023-09-13T04:51:15.333Z,,0,,,NaN,,,,,,false,,,,516287.89999997616,516287.6999999881,,516287.59999996424,,516290.765,8,400,,,
sequence,flow.Sequence,4_62,2023-09-13T04:51:15.334Z,,0,,,3476.434999988065,completion,,,,,false,,,,516288,516287.6999999881,512795.15,512808.59999996424,512811.265,516290.765,8,400,,,
trial,html.Screen,4_63_0,2023-09-13T04:51:18.250Z,,0,2,,2912.934999988065,response,ISIC_0054851.JPG,8,ISIC_9015182.JPG,ISIC_9015182.JPG,false,0,keypress(z),500,519204.1999999881,519203.6999999881,516282.177,516288.1999999881,516290.765,519212.483,8,400,14,,ISIC_0054851.JPG
break,html.Screen,4_63_1,2023-09-13T04:51:18.251Z,,0,,,NaN,,,,,,false,,,,519205.1999999881,519204.8000000119,,519204.39999997616,,519212.483,8,400,,,
break_continue,html.Screen,4_63_2,2023-09-13T04:51:18.251Z,,0,,,NaN,,,,,,false,,,,519205.6999999881,519205.5,,519205.3000000119,,519212.483,8,400,,,
sequence,flow.Sequence,4_63,2023-09-13T04:51:18.251Z,,0,,,2914.734999999986,completion,,,,,false,,,,519205.8000000119,519205.5,516282.177,516288.09999996424,516290.765,519212.483,8,400,,,
trial,html.Screen,4_64_0,2023-09-13T04:51:20.940Z,,0,2,,2681.5169999999925,response,ISIC_0065807.JPG,14,ISIC_0765584.JPG,ISIC_0765584.JPG,false,0,keypress(z),500,521894.09999996424,521894,519195.783,519206,519212.483,521897.967,8,400,15,,ISIC_0065807.JPG
break,html.Screen,4_64_1,2023-09-13T04:51:20.940Z,,0,,,NaN,,,,,,false,,,,521894.5,521894.39999997616,,521894.1999999881,,521897.967,8,400,,,
break_continue,html.Screen,4_64_2,2023-09-13T04:51:20.940Z,,0,,,NaN,,,,,,false,,,,521894.6999999881,521894.6999999881,,521894.59999996424,,521897.967,8,400,,,
sequence,flow.Sequence,4_64,2023-09-13T04:51:20.941Z,,0,,,2682.2169999880716,completion,,,,,false,,,,521894.89999997616,521894.6999999881,519195.783,519205.89999997616,519212.483,521897.967,8,400,,,
trial,html.Screen,4_65_0,2023-09-13T04:51:23.582Z,,0,2,,2637.932999976154,response,ISIC_1818238.JPG,11,ISIC_4425604.JPG,ISIC_4425604.JPG,false,0,keypress(z),500,524536.1999999881,524535.8999999762,521890.197,521895,521897.967,524557.163,8,400,16,,ISIC_1818238.JPG
break,html.Screen,4_65_1,2023-09-13T04:51:23.583Z,,0,,,NaN,,,,,,false,,,,524537,524536.8000000119,,524536.3999999762,,524557.163,8,400,,,
break_continue,html.Screen,4_65_2,2023-09-13T04:51:23.583Z,,0,,,NaN,,,,,,false,,,,524537.3000000119,524537.3000000119,,524537.0999999642,,524557.163,8,400,,,
sequence,flow.Sequence,4_65,2023-09-13T04:51:23.583Z,,0,,,2639.3330000119167,completion,,,,,false,,,,524537.5,524537.3000000119,521890.197,521895,521897.967,524557.163,8,400,,,
trial,html.Screen,4_66_0,2023-09-13T04:51:26.769Z,,0,2,,3166.1370000119787,response,ISIC_0026730.JPG,6,ISIC_0024258.JPG,ISIC_0026730.JPG,false,1,keypress(m),500,527723.6999999881,527723.3000000119,524540.339,524537.5999999642,524557.163,527728.067,8,400,17,,ISIC_0024258.JPG
break,html.Screen,4_66_1,2023-09-13T04:51:26.770Z,,0,,,NaN,,,,,,false,,,,527724.5999999642,527724.3000000119,,527723.8999999762,,527728.067,8,400,,,
break_continue,html.Screen,4_66_2,2023-09-13T04:51:26.771Z,,0,,,NaN,,,,,,false,,,,527725.0999999642,527724.8999999762,,527724.6999999881,,527728.067,8,400,,,
sequence,flow.Sequence,4_66,2023-09-13T04:51:26.771Z,,0,,,3167.736999976216,completion,,,,,false,,,,527725.3000000119,527724.8999999762,524540.339,524537.5,524557.163,527728.067,8,400,,,
trial,html.Screen,4_67_0,2023-09-13T04:51:30.327Z,,0,2,,3553.032999964198,response,ISIC_0061108.JPG,10,ISIC_0067565.JPG,ISIC_0067565.JPG,false,0,keypress(z),500,531281.3000000119,531281.0999999642,527721.868,527725.5999999642,527728.067,531285.503,8,400,18,,ISIC_0061108.JPG
break,html.Screen,4_67_1,2023-09-13T04:51:30.328Z,,0,,,NaN,,,,,,false,,,,531282.0999999642,531281.8999999762,,531281.5,,531285.503,8,400,,,
break_continue,html.Screen,4_67_2,2023-09-13T04:51:30.328Z,,0,,,NaN,,,,,,false,,,,531282.5,531282.3999999762,,531282.3000000119,,531285.503,8,400,,,
sequence,flow.Sequence,4_67,2023-09-13T04:51:30.328Z,,0,,,3554.332999976119,completion,,,,,false,,,,531282.6999999881,531282.3999999762,527721.868,527725.5,527728.067,531285.503,8,400,,,
trial,html.Screen,4_68_0,2023-09-13T04:51:36.174Z,,0,2,,5842.797000011895,response,ISIC_6771810.JPG,5,ISIC_0010909.JPG,ISIC_6771810.JPG,false,1,keypress(m),500,537128.5999999642,537128.3000000119,531278.978,531282.8000000119,531285.503,537149.88,8,400,19,,ISIC_0010909.JPG
break,html.Screen,4_68_1,2023-09-13T04:51:36.175Z,,0,,,NaN,,,,,,false,,,,537129.5999999642,537129.3000000119,,537128.8000000119,,537149.88,8,400,,,
break_continue,html.Screen,4_68_2,2023-09-13T04:51:36.176Z,,0,,,NaN,,,,,,false,,,,537130.6999999881,537130.5,,537129.6999999881,,537149.88,8,400,,,
sequence,flow.Sequence,4_68,2023-09-13T04:51:36.177Z,,0,,,5844.996999999974,completion,,,,,false,,,,537130.8999999762,537130.5,531278.978,531282.8000000119,531285.503,537149.88,8,400,,,
trial,html.Screen,4_69_0,2023-09-13T04:51:39.116Z,,0,2,,2920.4200000119163,response,ISIC_0054318.JPG,11,ISIC_0028520.JPG,ISIC_0054318.JPG,false,1,keypress(m),500,540070.5999999642,540070.3000000119,537133.032,537131.0999999642,537149.88,540074.181,8,400,20,,ISIC_0028520.JPG
break,html.Screen,4_69_1,2023-09-13T04:51:39.117Z,,0,,,NaN,,,,,,false,,,,540071.0999999642,540071.0999999642,,540070.8000000119,,540074.181,8,400,,,
break_continue,html.Screen,4_69_2,2023-09-13T04:51:39.117Z,,0,,,NaN,,,,,,false,,,,540071.3000000119,540071.1999999881,,540071.1999999881,,540074.181,8,400,,,
sequence,flow.Sequence,4_69,2023-09-13T04:51:39.117Z,,0,,,2921.3199999880744,completion,,,,,false,,,,540071.3000000119,540071.1999999881,537133.032,537131.0999999642,537149.88,540074.181,8,400,,,
trial,html.Screen,4_70_0,2023-09-13T04:51:42.103Z,,0,2,,2993.6190000119386,response,ISIC_0057307.JPG,12,ISIC_0026545.JPG,ISIC_0057307.JPG,false,1,keypress(m),500,543068.1999999881,543067.8000000119,540055.849,540071.3999999762,540074.181,543072.092,8,400,21,,ISIC_0026545.JPG
break,html.Screen,4_70_1,2023-09-13T04:51:42.104Z,,0,,,NaN,,,,,,false,,,,543068.5999999642,543068.5,,543068.3000000119,,543072.092,8,400,,,
break_continue,html.Screen,4_70_2,2023-09-13T04:51:42.104Z,,0,,,NaN,,,,,,false,,,,543068.8999999762,543068.8000000119,,543068.6999999881,,543072.092,8,400,,,
sequence,flow.Sequence,4_70,2023-09-13T04:51:42.104Z,,0,,,2994.6190000119386,completion,,,,,false,,,,543069,543068.8000000119,540055.849,540071.3999999762,540074.181,543072.092,8,400,,,
trial,html.Screen,4_71_0,2023-09-13T04:51:45.239Z,,0,2,,3131.5079999642912,response,ISIC_0026293.JPG,5,ISIC_0070419.JPG,ISIC_0026293.JPG,false,1,keypress(m),500,546203.8999999762,546203.5999999642,543057.719,543069.1999999881,543072.092,546208.193,8,400,22,,ISIC_0070419.JPG
break,html.Screen,4_71_1,2023-09-13T04:51:45.240Z,,0,,,NaN,,,,,,false,,,,546204.6999999881,546204.5,,546204.0999999642,,546208.193,8,400,,,
break_continue,html.Screen,4_71_2,2023-09-13T04:51:45.241Z,,0,,,NaN,,,,,,false,,,,546205.5999999642,546205,,546204.8999999762,,546208.193,8,400,,,
sequence,flow.Sequence,4_71,2023-09-13T04:51:45.241Z,,0,,,3132.908000000054,completion,,,,,false,,,,546205.8000000119,546205,543057.719,543069.0999999642,543072.092,546208.193,8,400,,,
trial,html.Screen,4_72_0,2023-09-13T04:51:48.091Z,,0,2,,2847.906999964267,response,ISIC_7484771.JPG,19,ISIC_0033055.JPG,ISIC_7484771.JPG,false,1,keypress(m),500,549056.3999999762,549056.0999999642,546200.362,546205.8999999762,546208.193,549060.613,8,400,23,,ISIC_0033055.JPG
break,html.Screen,4_72_1,2023-09-13T04:51:48.092Z,,0,,,NaN,,,,,,false,,,,549057.1999999881,549057,,549056.6999999881,,549060.613,8,400,,,
break_continue,html.Screen,4_72_2,2023-09-13T04:51:48.093Z,,0,,,NaN,,,,,,false,,,,549057.5999999642,549057.5,,549057.3999999762,,549060.613,8,400,,,
sequence,flow.Sequence,4_72,2023-09-13T04:51:48.093Z,,0,,,2849.30700000003,completion,,,,,false,,,,549057.8000000119,549057.5,546200.362,546205.8999999762,546208.193,549060.613,8,400,,,
trial,html.Screen,4_73_0,2023-09-13T04:51:59.584Z,,0,2,,11520.795000000042,timeout,ISIC_0033530.JPG,19,ISIC_2727016.JPG,,false,,,500,560549,560548.8000000119,549053.811,549057.8999999762,549060.613,560581.408,8,400,24,,
break,html.Screen,4_73_1,2023-09-13T04:51:59.585Z,,0,,,NaN,,,,,,false,,,,560549.6999999881,560549.5999999642,,560549.1999999881,,560581.408,8,400,,,
break_continue,html.Screen,4_73_2,2023-09-13T04:51:59.585Z,,0,,,NaN,,,,,,false,,,,560550.1999999881,560550,,560549.8999999762,,560581.408,8,400,,,
sequence,flow.Sequence,4_73,2023-09-13T04:51:59.585Z,,0,,,11489.386999999988,completion,,,,,false,,,,560550.3999999762,560550,549053.811,549057.8999999762,549060.613,560581.408,8,400,,,
trial,html.Screen,4_74_0,2023-09-13T04:52:03.964Z,,0,2,,4347.191999964183,response,ISIC_2518896.JPG,9,ISIC_9059250.JPG,ISIC_2518896.JPG,false,1,keypress(m),500,564929.0999999642,564928.5999999642,560564.811,560550.5,560581.408,564933.396,8,400,25,,ISIC_9059250.JPG
break,html.Screen,4_74_1,2023-09-13T04:52:03.965Z,,0,,,NaN,,,,,,false,,,,564930,564929.8000000119,,564929.3000000119,,564933.396,8,400,,,
break_continue,html.Screen,4_74_2,2023-09-13T04:52:03.966Z,,0,,,NaN,,,,,,false,,,,564931,564930.8000000119,,564930.1999999881,,564933.396,8,400,,,
sequence,flow.Sequence,4_74,2023-09-13T04:52:03.966Z,,0,,,4349.392000011867,completion,,,,,false,,,,564931.0999999642,564930.8000000119,560564.811,560550.3999999762,560581.408,564933.396,8,400,,,
trial,html.Screen,4_75_0,2023-09-13T04:52:08.545Z,,0,2,,4576.10400000005,response,ISIC_0033216.JPG,4,ISIC_6507492.JPG,ISIC_0033216.JPG,false,1,keypress(m),500,569509.8000000119,569509.5,564924.604,564931.3000000119,564933.396,569513.98,8,400,26,,ISIC_6507492.JPG
break,html.Screen,4_75_1,2023-09-13T04:52:08.546Z,,0,,,NaN,,,,,,false,,,,569510.5999999642,569510.3999999762,,569510,,569513.98,8,400,,,
break_continue,html.Screen,4_75_2,2023-09-13T04:52:08.546Z,,0,,,NaN,,,,,,false,,,,569511.3999999762,569510.8000000119,,569510.6999999881,,569513.98,8,400,,,
sequence,flow.Sequence,4_75,2023-09-13T04:52:08.547Z,,0,,,4577.404000011971,completion,,,,,false,,,,569511.5999999642,569510.8000000119,564924.604,564931.3000000119,564933.396,569513.98,8,400,,,
trial,html.Screen,4_76_0,2023-09-13T04:52:15.091Z,,0,2,,6542.020000000019,response,ISIC_0010007.JPG,23,ISIC_4407580.JPG,ISIC_4407580.JPG,false,0,keypress(z),500,576056.3000000119,576056,569496.441,569511.6999999881,569513.98,576060.312,8,400,27,,ISIC_0010007.JPG
break,html.Screen,4_76_1,2023-09-13T04:52:15.092Z,,0,,,NaN,,,,,,false,,,,576057,576056.8000000119,,576056.3999999762,,576060.312,8,400,,,
break_continue,html.Screen,4_76_2,2023-09-13T04:52:15.092Z,,0,,,NaN,,,,,,false,,,,576057.3000000119,576057.1999999881,,576057.1999999881,,576060.312,8,400,,,
sequence,flow.Sequence,4_76,2023-09-13T04:52:15.092Z,,0,,,6543.219999988098,completion,,,,,false,,,,576057.3999999762,576057.1999999881,569496.441,569511.5999999642,569513.98,576060.312,8,400,,,
trial,html.Screen,4_77_0,2023-09-13T04:52:18.068Z,,0,2,,2972.2879999642028,response,ISIC_0011215.JPG,20,ISIC_0057963.JPG,ISIC_0011215.JPG,false,1,keypress(m),500,579032.8000000119,579032.5999999642,576041.375,576057.5999999642,576060.312,579036.893,8,400,28,,ISIC_0057963.JPG
break,html.Screen,4_77_1,2023-09-13T04:52:18.069Z,,0,,,NaN,,,,,,false,,,,579033.5999999642,579033.3999999762,,579033.0999999642,,579036.893,8,400,,,
break_continue,html.Screen,4_77_2,2023-09-13T04:52:18.069Z,,0,,,NaN,,,,,,false,,,,579034,579033.8000000119,,579033.6999999881,,579036.893,8,400,,,
sequence,flow.Sequence,4_77,2023-09-13T04:52:18.069Z,,0,,,2973.4880000118865,completion,,,,,false,,,,579034.0999999642,579033.8000000119,576041.375,576057.5,576060.312,579036.893,8,400,,,
trial,html.Screen,4_78_0,2023-09-13T04:52:22.446Z,,0,2,,4374.006999976118,response,ISIC_2946577.JPG,14,ISIC_1729223.JPG,ISIC_2946577.JPG,false,1,keypress(m),500,583411.0999999642,583410.8999999762,579017.686,579034.1999999881,579036.893,583415.41,8,400,29,,ISIC_1729223.JPG
break,html.Screen,4_78_1,2023-09-13T04:52:22.447Z,,0,,,NaN,,,,,,false,,,,583411.8999999762,583411.6999999881,,583411.3000000119,,583415.41,8,400,,,
break_continue,html.Screen,4_78_2,2023-09-13T04:52:22.448Z,,0,,,NaN,,,,,,false,,,,583413,583412.6999999881,,583412.0999999642,,583415.41,8,400,,,
sequence,flow.Sequence,4_78,2023-09-13T04:52:22.448Z,,0,,,4375.806999988039,completion,,,,,false,,,,583413.0999999642,583412.6999999881,579017.686,579034.1999999881,579036.893,583415.41,8,400,,,
trial,html.Screen,4_79_0,2023-09-13T04:52:27.605Z,,0,2,,5154.390000011888,response,ISIC_0031246.JPG,11,ISIC_0060700.JPG,ISIC_0031246.JPG,false,1,keypress(m),500,588570.0999999642,588569.8000000119,583402.147,583413.1999999881,583415.41,588574.196,8,400,30,,ISIC_0060700.JPG
break,html.Screen,4_79_1,2023-09-13T04:52:27.606Z,,0,,,NaN,,,,,,false,,,,588570.8000000119,588570.5999999642,,588570.3000000119,,588574.196,8,400,,,
break_continue,html.Screen,4_79_2,2023-09-13T04:52:27.607Z,,0,,,NaN,,,,,,false,,,,588571.5999999642,588571.3999999762,,588571,,588574.196,8,400,,,
sequence,flow.Sequence,4_79,2023-09-13T04:52:27.607Z,,0,,,5155.989999976126,completion,,,,,false,,,,588571.6999999881,588571.3999999762,583402.147,583413.1999999881,583415.41,588574.196,8,400,,,
trial,html.Screen,4_80_0,2023-09-13T04:52:35.046Z,,0,2,,7436.503999988083,response,ISIC_0046932.JPG,9,ISIC_9622250.JPG,ISIC_0046932.JPG,false,1,keypress(m),500,596011,596010.6999999881,588560.571,588571.8000000119,588574.196,596014.913,8,400,31,,ISIC_9622250.JPG
break,html.Screen,4_80_1,2023-09-13T04:52:35.047Z,,0,,,NaN,,,,,,false,,,,596011.5999999642,596011.5,,596011.1999999881,,596014.913,8,400,,,
break_continue,html.Screen,4_80_2,2023-09-13T04:52:35.047Z,,0,,,NaN,,,,,,false,,,,596012,596011.8999999762,,596011.8000000119,,596014.913,8,400,,,
sequence,flow.Sequence,4_80,2023-09-13T04:52:35.047Z,,0,,,7437.703999976162,completion,,,,,false,,,,596012.0999999642,596011.8999999762,588560.571,588571.8000000119,588574.196,596014.913,8,400,,,
trial,html.Screen,4_81_0,2023-09-13T04:52:40.873Z,,0,2,,5822.486999976216,response,ISIC_9174306.JPG,5,ISIC_0031365.JPG,ISIC_9174306.JPG,false,1,keypress(m),500,601837.6999999881,601837.3999999762,596008.357,596012.1999999881,596014.913,601841.711,8,400,32,,ISIC_0031365.JPG
break,html.Screen,4_81_1,2023-09-13T04:52:40.873Z,,0,,,NaN,,,,,,false,,,,601838.3999999762,601838.1999999881,,601837.8999999762,,601841.711,8,400,,,
break_continue,html.Screen,4_81_2,2023-09-13T04:52:40.874Z,,0,,,NaN,,,,,,false,,,,601838.5999999642,601838.5,,601838.3999999762,,601841.711,8,400,,,
sequence,flow.Sequence,4_81,2023-09-13T04:52:40.874Z,,0,,,5823.587000000058,completion,,,,,false,,,,601838.8000000119,601838.5,596008.357,596012.1999999881,596014.913,601841.711,8,400,,,
trial,html.Screen,4_82_0,2023-09-13T04:52:46.661Z,,0,2,,5773.688999976148,response,ISIC_0027408.JPG,10,ISIC_0058836.JPG,ISIC_0027408.JPG,false,1,keypress(m),500,607615.6999999881,607615.3999999762,601835.943,601838.8999999762,601841.711,607619.79,8,400,33,,ISIC_0058836.JPG
break,html.Screen,4_82_1,2023-09-13T04:52:46.662Z,,0,,,NaN,,,,,,false,,,,607616.3999999762,607616.1999999881,,607615.8000000119,,607619.79,8,400,,,
break_continue,html.Screen,4_82_2,2023-09-13T04:52:46.662Z,,0,,,NaN,,,,,,false,,,,607616.8000000119,607616.6999999881,,607616.5,,607619.79,8,400,,,
sequence,flow.Sequence,4_82,2023-09-13T04:52:46.662Z,,0,,,5774.988999988069,completion,,,,,false,,,,607616.8999999762,607616.6999999881,601835.943,601838.8999999762,601841.711,607619.79,8,400,,,
trial,html.Screen,4_83_0,2023-09-13T04:52:50.248Z,,0,2,,3582.609999976121,response,ISIC_0011862.JPG,6,ISIC_2693412.JPG,ISIC_2693412.JPG,false,0,keypress(z),500,611202.6999999881,611202.3999999762,607604.248,607617,607619.79,611206.863,8,400,34,,ISIC_0011862.JPG
break,html.Screen,4_83_1,2023-09-13T04:52:50.249Z,,0,,,NaN,,,,,,false,,,,611203.3999999762,611203.3000000119,,611202.8999999762,,611206.863,8,400,,,
break_continue,html.Screen,4_83_2,2023-09-13T04:52:50.249Z,,0,,,NaN,,,,,,false,,,,611203.8000000119,611203.6999999881,,611203.5999999642,,611206.863,8,400,,,
sequence,flow.Sequence,4_83,2023-09-13T04:52:50.249Z,,0,,,3583.909999988042,completion,,,,,false,,,,611204,611203.6999999881,607604.248,607617,607619.79,611206.863,8,400,,,
trial,html.Screen,4_84_0,2023-09-13T04:52:56.672Z,,0,2,,6419.136999999988,response,ISIC_1072321.JPG,5,ISIC_7662910.JPG,ISIC_1072321.JPG,false,1,keypress(m),500,617626.3000000119,617626,611191.388,611204.0999999642,611206.863,617637.348,8,400,35,,ISIC_7662910.JPG
break,html.Screen,4_84_1,2023-09-13T04:52:56.673Z,,0,,,NaN,,,,,,false,,,,617627.1999999881,617626.8999999762,,617626.5,,617637.348,8,400,,,
break_continue,html.Screen,4_84_2,2023-09-13T04:52:56.673Z,,0,,,NaN,,,,,,false,,,,617627.5,617627.3999999762,,617627.3000000119,,617637.348,8,400,,,
sequence,flow.Sequence,4_84,2023-09-13T04:52:56.673Z,,0,,,6420.536999976146,completion,,,,,false,,,,617627.6999999881,617627.3999999762,611191.388,611204.0999999642,611206.863,617637.348,8,400,,,
trial,html.Screen,4_85_0,2023-09-13T04:52:59.732Z,,0,2,,3048.952000011923,response,ISIC_7070020.JPG,3,ISIC_0059948.JPG,ISIC_7070020.JPG,false,1,keypress(m),500,620686.5999999642,620686.3000000119,617620.403,617627.8000000119,617637.348,620690.847,8,400,36,,ISIC_0059948.JPG
break,html.Screen,4_85_1,2023-09-13T04:52:59.733Z,,0,,,NaN,,,,,,false,,,,620687.5,620687.3000000119,,620686.8999999762,,620690.847,8,400,,,
break_continue,html.Screen,4_85_2,2023-09-13T04:52:59.733Z,,0,,,NaN,,,,,,false,,,,620687.8000000119,620687.5999999642,,620687.5999999642,,620690.847,8,400,,,
sequence,flow.Sequence,4_85,2023-09-13T04:52:59.733Z,,0,,,3050.251999964239,completion,,,,,false,,,,620687.8999999762,620687.5999999642,617620.403,617627.8000000119,617637.348,620690.847,8,400,,,
trial,html.Screen,4_86_0,2023-09-13T04:53:05.491Z,,0,2,,5754.45300001197,response,ISIC_5218773.JPG,26,ISIC_0887530.JPG,ISIC_5218773.JPG,false,1,keypress(m),500,626445.5999999642,626445.3000000119,620674.522,620688.0999999642,620690.847,626450.018,8,400,37,,ISIC_0887530.JPG
break,html.Screen,4_86_1,2023-09-13T04:53:05.492Z,,0,,,NaN,,,,,,false,,,,626446.1999999881,626446,,626445.6999999881,,626450.018,8,400,,,
break_continue,html.Screen,4_86_2,2023-09-13T04:53:05.492Z,,0,,,NaN,,,,,,false,,,,626446.5,626446.3999999762,,626446.3000000119,,626450.018,8,400,,,
sequence,flow.Sequence,4_86,2023-09-13T04:53:05.492Z,,0,,,5755.5529999762075,completion,,,,,false,,,,626446.5999999642,626446.3999999762,620674.522,620688.0999999642,620690.847,626450.018,8,400,,,
trial,html.Screen,4_87_0,2023-09-13T04:53:08.839Z,,0,2,,3343.181999988039,response,ISIC_0046645.JPG,11,ISIC_0055440.JPG,ISIC_0055440.JPG,false,0,keypress(z),500,629793.3999999762,629793.1999999881,626436.008,626446.6999999881,626450.018,629797.237,8,400,38,,ISIC_0046645.JPG
break,html.Screen,4_87_1,2023-09-13T04:53:08.839Z,,0,,,NaN,,,,,,false,,,,629793.8999999762,629793.8000000119,,629793.5999999642,,629797.237,8,400,,,
break_continue,html.Screen,4_87_2,2023-09-13T04:53:08.840Z,,0,,,NaN,,,,,,false,,,,629794,629794,,629794,,629797.237,8,400,,,
sequence,flow.Sequence,4_87,2023-09-13T04:53:08.840Z,,0,,,3343.98199999996,completion,,,,,false,,,,629794.1999999881,629794,626436.008,626446.6999999881,626450.018,629797.237,8,400,,,
trial,html.Screen,4_88_0,2023-09-13T04:53:12.850Z,,0,2,,4007.1629999761935,response,ISIC_7779155.JPG,4,ISIC_0046458.JPG,ISIC_7779155.JPG,false,1,keypress(m),500,633804.5999999642,633804.3999999762,629784.502,629794.1999999881,629797.237,633808.519,8,400,39,,ISIC_0046458.JPG
break,html.Screen,4_88_1,2023-09-13T04:53:12.851Z,,0,,,NaN,,,,,,false,,,,633805.1999999881,633805.1999999881,,633804.8999999762,,633808.519,8,400,,,
break_continue,html.Screen,4_88_2,2023-09-13T04:53:12.851Z,,0,,,NaN,,,,,,false,,,,633805.5,633805.3999999762,,633805.3000000119,,633808.519,8,400,,,
sequence,flow.Sequence,4_88,2023-09-13T04:53:12.851Z,,0,,,4008.1629999761935,completion,,,,,false,,,,633805.6999999881,633805.3999999762,629784.502,629794.1999999881,629797.237,633808.519,8,400,,,
trial,html.Screen,4_89_0,2023-09-13T04:53:15.905Z,,0,2,,3050.28100001195,response,ISIC_0024449.JPG,6,ISIC_0027214.JPG,ISIC_0027214.JPG,false,0,keypress(z),500,636859,636858.8000000119,633802.643,633805.6999999881,633808.519,636863.117,8,400,40,,ISIC_0024449.JPG
break,html.Screen,4_89_1,2023-09-13T04:53:15.905Z,,0,,,NaN,,,,,,false,,,,636859.8000000119,636859.5999999642,,636859.3000000119,,636863.117,8,400,,,
break_continue,html.Screen,4_89_2,2023-09-13T04:53:15.906Z,,0,,,NaN,,,,,,false,,,,636860.0999999642,636860.0999999642,,636859.8999999762,,636863.117,8,400,,,
sequence,flow.Sequence,4_89,2023-09-13T04:53:15.906Z,,0,,,3051.580999964266,completion,,,,,false,,,,636860.3000000119,636860.0999999642,633802.643,633805.6999999881,633808.519,636863.117,8,400,,,
trial,html.Screen,4_90_0,2023-09-13T04:53:21.891Z,,0,2,,5982.58299998811,response,ISIC_3180213.JPG,22,ISIC_0032182.JPG,ISIC_3180213.JPG,false,1,keypress(m),500,642846,642845.6999999881,636857.413,636860.5,636863.117,642849.99,8,400,41,,ISIC_0032182.JPG
break,html.Screen,4_90_1,2023-09-13T04:53:21.892Z,,0,,,NaN,,,,,,false,,,,642846.6999999881,642846.3999999762,,642846.1999999881,,642849.99,8,400,,,
break_continue,html.Screen,4_90_2,2023-09-13T04:53:21.892Z,,0,,,NaN,,,,,,false,,,,642846.8999999762,642846.8000000119,,642846.6999999881,,642849.99,8,400,,,
sequence,flow.Sequence,4_90,2023-09-13T04:53:21.893Z,,0,,,5983.683000011952,completion,,,,,false,,,,642847.0999999642,642846.8000000119,636857.413,636860.3999999762,636863.117,642849.99,8,400,,,
trial,html.Screen,4_91_0,2023-09-13T04:53:26.697Z,,0,2,,4801.6099999642465,response,ISIC_0057702.JPG,0,ISIC_0056849.JPG,ISIC_0056849.JPG,false,0,keypress(z),500,647651.8999999762,647651.5999999642,642834.915,642847.1999999881,642849.99,647656.028,8,400,42,,ISIC_0057702.JPG
break,html.Screen,4_91_1,2023-09-13T04:53:26.698Z,,0,,,NaN,,,,,,false,,,,647652.5999999642,647652.5,,647652.0999999642,,647656.028,8,400,,,
break_continue,html.Screen,4_91_2,2023-09-13T04:53:26.698Z,,0,,,NaN,,,,,,false,,,,647653,647652.8999999762,,647652.8000000119,,647656.028,8,400,,,
sequence,flow.Sequence,4_91,2023-09-13T04:53:26.699Z,,0,,,4802.9099999761675,completion,,,,,false,,,,647653.0999999642,647652.8999999762,642834.915,642847.1999999881,642849.99,647656.028,8,400,,,
trial,html.Screen,4_92_0,2023-09-13T04:53:30.366Z,,0,2,,3663.7720000118716,response,ISIC_0030663.JPG,24,ISIC_0062770.JPG,ISIC_0062770.JPG,false,0,keypress(z),500,651320,651319.8000000119,647640.266,647653.1999999881,647656.028,651324.06,8,400,43,,ISIC_0030663.JPG
break,html.Screen,4_92_1,2023-09-13T04:53:30.366Z,,0,,,NaN,,,,,,false,,,,651320.8000000119,651320.5999999642,,651320.3000000119,,651324.06,8,400,,,
break_continue,html.Screen,4_92_2,2023-09-13T04:53:30.367Z,,0,,,NaN,,,,,,false,,,,651321.0999999642,651321,,651320.8999999762,,651324.06,8,400,,,
sequence,flow.Sequence,4_92,2023-09-13T04:53:30.367Z,,0,,,3664.9719999999506,completion,,,,,false,,,,651321.3000000119,651321,647640.266,647653.1999999881,647656.028,651324.06,8,400,,,
trial,html.Screen,4_93_0,2023-09-13T04:53:33.794Z,,0,2,,3424.139999988023,response,ISIC_0247197.JPG,15,ISIC_7755096.JPG,ISIC_0247197.JPG,false,1,keypress(m),500,654748.5,654748.1999999881,651305.711,651321.3999999762,651324.06,654752.848,8,400,44,,ISIC_7755096.JPG
break,html.Screen,4_93_1,2023-09-13T04:53:33.795Z,,0,,,NaN,,,,,,false,,,,654749.3000000119,654749.0999999642,,654748.6999999881,,654752.848,8,400,,,
break_continue,html.Screen,4_93_2,2023-09-13T04:53:33.795Z,,0,,,NaN,,,,,,false,,,,654749.8999999762,654749.8000000119,,654749.3999999762,,654752.848,8,400,,,
sequence,flow.Sequence,4_93,2023-09-13T04:53:33.796Z,,0,,,3425.740000011865,completion,,,,,false,,,,654750.0999999642,654749.8000000119,651305.711,651321.3000000119,651324.06,654752.848,8,400,,,
trial,html.Screen,4_94_0,2023-09-13T04:53:37.432Z,,0,2,,3633.851999988081,response,ISIC_0430356.JPG,39,ISIC_0010313.JPG,ISIC_0010313.JPG,false,0,keypress(z),500,658386.8999999762,658386.6999999881,654737.511,654750.1999999881,654752.848,658390.997,8,400,45,,ISIC_0430356.JPG
break,html.Screen,4_94_1,2023-09-13T04:53:37.433Z,,0,,,NaN,,,,,,false,,,,658387.5,658387.3999999762,,658387.0999999642,,658390.997,8,400,,,
break_continue,html.Screen,4_94_2,2023-09-13T04:53:37.434Z,,0,,,NaN,,,,,,false,,,,658388.3000000119,658387.8000000119,,658387.5999999642,,658390.997,8,400,,,
sequence,flow.Sequence,4_94,2023-09-13T04:53:37.434Z,,0,,,3634.952000011923,completion,,,,,false,,,,658388.3999999762,658387.8000000119,654737.511,654750.1999999881,654752.848,658390.997,8,400,,,
trial,html.Screen,4_95_0,2023-09-13T04:53:41.970Z,,0,2,,4533.003000000026,response,ISIC_0071707.JPG,5,ISIC_2908315.JPG,ISIC_2908315.JPG,false,0,keypress(z),500,662924.3000000119,662924,658381.344,658388.3999999762,658390.997,662928.614,8,400,46,,ISIC_0071707.JPG
break,html.Screen,4_95_1,2023-09-13T04:53:41.971Z,,0,,,NaN,,,,,,false,,,,662925.3000000119,662924.8999999762,,662924.5,,662928.614,8,400,,,
break_continue,html.Screen,4_95_2,2023-09-13T04:53:41.971Z,,0,,,NaN,,,,,,false,,,,662925.8000000119,662925.5,,662925.3999999762,,662928.614,8,400,,,
sequence,flow.Sequence,4_95,2023-09-13T04:53:41.972Z,,0,,,4534.503000000026,completion,,,,,false,,,,662925.8999999762,662925.5,658381.344,658388.3999999762,658390.997,662928.614,8,400,,,
trial,html.Screen,4_96_0,2023-09-13T04:53:44.999Z,,0,2,,3024.485999964294,response,ISIC_0069248.JPG,21,ISIC_5347806.JPG,ISIC_5347806.JPG,false,0,keypress(z),500,665953.5,665953.0999999642,662911.334,662926.0999999642,662928.614,665957.621,8,400,47,,ISIC_0069248.JPG
break,html.Screen,4_96_1,2023-09-13T04:53:45.000Z,,0,,,NaN,,,,,,false,,,,665954.3000000119,665954.0999999642,,665953.8000000119,,665957.621,8,400,,,
break_continue,html.Screen,4_96_2,2023-09-13T04:53:45.000Z,,0,,,NaN,,,,,,false,,,,665954.5999999642,665954.5,,665954.3999999762,,665957.621,8,400,,,
sequence,flow.Sequence,4_96,2023-09-13T04:53:45.000Z,,0,,,3025.886000000057,completion,,,,,false,,,,665954.8000000119,665954.5,662911.334,662926.0999999642,662928.614,665957.621,8,400,,,
trial,html.Screen,4_97_0,2023-09-13T04:53:49.355Z,,0,2,,4351.278999976115,response,ISIC_7938688.JPG,6,ISIC_0423483.JPG,ISIC_7938688.JPG,false,1,keypress(m),500,670309.1999999881,670308.8999999762,665946.957,665954.8999999762,665957.621,670313.659,8,400,48,,ISIC_0423483.JPG
break,html.Screen,4_97_1,2023-09-13T04:53:49.356Z,,0,,,NaN,,,,,,false,,,,670310.0999999642,670309.8999999762,,670309.5,,670313.659,8,400,,,
break_continue,html.Screen,4_97_2,2023-09-13T04:53:49.357Z,,0,,,NaN,,,,,,false,,,,670311.0999999642,670310.8000000119,,670310.1999999881,,670313.659,8,400,,,
sequence,flow.Sequence,4_97,2023-09-13T04:53:49.357Z,,0,,,4353.179000011878,completion,,,,,false,,,,670311.1999999881,670310.8000000119,665946.957,665954.8000000119,665957.621,670313.659,8,400,,,
trial,html.Screen,4_98_0,2023-09-13T04:53:53.231Z,,0,2,,3871.240999976173,response,ISIC_2616327.JPG,1,ISIC_0067097.JPG,ISIC_2616327.JPG,false,1,keypress(m),500,674185.1999999881,674184.8999999762,670304.485,670311.3999999762,670313.659,674189.643,8,400,49,,ISIC_0067097.JPG
break,html.Screen,4_98_1,2023-09-13T04:53:53.232Z,,0,,,NaN,,,,,,false,,,,674186.1999999881,674185.8999999762,,674185.5,,674189.643,8,400,,,
break_continue,html.Screen,4_98_2,2023-09-13T04:53:53.232Z,,0,,,NaN,,,,,,false,,,,674186.8999999762,674186.6999999881,,674186.3000000119,,674189.643,8,400,,,
sequence,flow.Sequence,4_98,2023-09-13T04:53:53.233Z,,0,,,3873.040999988094,completion,,,,,false,,,,674187.0999999642,674186.6999999881,670304.485,670311.3000000119,670313.659,674189.643,8,400,,,
trial,html.Screen,4_99_0,2023-09-13T04:53:56.502Z,,0,2,,3266.456999964197,response,ISIC_0012653.JPG,21,ISIC_0027993.JPG,ISIC_0012653.JPG,false,1,keypress(m),500,677456.3999999762,677456.0999999642,674181.48,674187.1999999881,674189.643,677460.794,8,400,50,,ISIC_0027993.JPG
break,html.Screen,4_99_1,2023-09-13T04:54:06.491Z,,0,,,10000.675999999978,timeout,,,,,false,,,,687445.8000000119,687444.828,677450.622,677456.5999999642,677460.794,687461.47,8,400,,,
break_continue,html.Screen,4_99_2,2023-09-13T04:56:48.043Z,,0,,,161522.4299999762,response,,,,,false,continue,keypress(Space),,848997.3000000119,848983.8999999762,687444.828,687445.8999999762,687461.47,849017.815,8,400,,,
sequence,flow.Sequence,4_99,2023-09-13T04:56:48.043Z,,0,,,174794.25699997612,completion,,,,,false,,,,848997.3999999762,848983.8999999762,674181.48,674187.1999999881,674189.643,849017.815,8,400,,,
trial,html.Screen,4_100_0,2023-09-13T04:56:52.135Z,,0,3,,4071.685000000056,response,ISIC_0032784.JPG,0,ISIC_8234773.JPG,ISIC_0032784.JPG,false,1,keypress(m),500,853089.8000000119,853089.5,849001.01,848997.5,849017.815,853094.081,8,400,1,,ISIC_8234773.JPG
break,html.Screen,4_100_1,2023-09-13T04:56:52.136Z,,0,,,NaN,,,,,,false,,,,853090.5,853090.3999999762,,853090.0999999642,,853094.081,8,400,,,
break_continue,html.Screen,4_100_2,2023-09-13T04:56:52.137Z,,0,,,NaN,,,,,,false,,,,853091.3999999762,853090.8000000119,,853090.6999999881,,853094.081,8,400,,,
sequence,flow.Sequence,4_100,2023-09-13T04:56:52.137Z,,0,,,4072.985000011977,completion,,,,,false,,,,853091.5,853090.8000000119,849001.01,848997.5,849017.815,853094.081,8,400,,,
trial,html.Screen,4_101_0,2023-09-13T04:56:58.060Z,,0,3,,5919.418999999994,response,ISIC_9203914.JPG,25,ISIC_1472731.JPG,ISIC_9203914.JPG,false,1,keypress(m),500,859013.8999999762,859013.5,853079.219,853091.6999999881,853094.081,859018.387,8,400,2,,ISIC_1472731.JPG
break,html.Screen,4_101_1,2023-09-13T04:56:58.060Z,,0,,,NaN,,,,,,false,,,,859014.8000000119,859014.5999999642,,859014.1999999881,,859018.387,8,400,,,
break_continue,html.Screen,4_101_2,2023-09-13T04:56:58.061Z,,0,,,NaN,,,,,,false,,,,859015.3999999762,859015.1999999881,,859015.0999999642,,859018.387,8,400,,,
sequence,flow.Sequence,4_101,2023-09-13T04:56:58.061Z,,0,,,5921.1189999880735,completion,,,,,false,,,,859015.5,859015.1999999881,853079.219,853091.5999999642,853094.081,859018.387,8,400,,,
trial,html.Screen,4_102_0,2023-09-13T04:57:01.196Z,,0,3,,3132.0129999761702,response,ISIC_0887792.JPG,20,ISIC_0011649.JPG,ISIC_0011649.JPG,false,0,keypress(z),500,862150.5999999642,862150.3999999762,858998.735,859015.6999999881,859018.387,862154.474,8,400,3,,ISIC_0887792.JPG
break,html.Screen,4_102_1,2023-09-13T04:57:01.197Z,,0,,,NaN,,,,,,false,,,,862151,862150.8999999762,,862150.6999999881,,862154.474,8,400,,,
break_continue,html.Screen,4_102_2,2023-09-13T04:57:01.197Z,,0,,,NaN,,,,,,false,,,,862151.1999999881,862151.0999999642,,862151.0999999642,,862154.474,8,400,,,
sequence,flow.Sequence,4_102,2023-09-13T04:57:01.197Z,,0,,,3132.7129999642493,completion,,,,,false,,,,862151.3000000119,862151.0999999642,858998.735,859015.5999999642,859018.387,862154.474,8,400,,,
trial,html.Screen,4_103_0,2023-09-13T04:57:03.231Z,,0,3,,2030.7259999880334,response,ISIC_0011726.JPG,3,ISIC_0056817.JPG,ISIC_0056817.JPG,false,0,keypress(z),500,864185.5,864185.1999999881,862135.111,862151.3000000119,862154.474,864189.916,8,400,4,,ISIC_0011726.JPG
break,html.Screen,4_103_1,2023-09-13T04:57:03.232Z,,0,,,NaN,,,,,,false,,,,864186.3999999762,864186.1999999881,,864185.6999999881,,864189.916,8,400,,,
break_continue,html.Screen,4_103_2,2023-09-13T04:57:03.233Z,,0,,,NaN,,,,,,false,,,,864186.8999999762,864186.8000000119,,864186.5,,864189.916,8,400,,,
sequence,flow.Sequence,4_103,2023-09-13T04:57:03.233Z,,0,,,2032.3260000118753,completion,,,,,false,,,,864187,864186.8000000119,862135.111,862151.3000000119,862154.474,864189.916,8,400,,,
trial,html.Screen,4_104_0,2023-09-13T04:57:07.671Z,,0,3,,4434.98399997619,response,ISIC_0198331.JPG,7,ISIC_3729849.JPG,ISIC_0198331.JPG,false,1,keypress(m),500,868625.3000000119,868624.8999999762,864176.433,864187.1999999881,864189.916,868629.439,8,400,5,,ISIC_3729849.JPG
break,html.Screen,4_104_1,2023-09-13T04:57:07.672Z,,0,,,NaN,,,,,,false,,,,868626,868625.8999999762,,868625.5,,868629.439,8,400,,,
break_continue,html.Screen,4_104_2,2023-09-13T04:57:07.672Z,,0,,,NaN,,,,,,false,,,,868626.8000000119,868626.3000000119,,868626.1999999881,,868629.439,8,400,,,
sequence,flow.Sequence,4_104,2023-09-13T04:57:07.673Z,,0,,,4436.384000011953,completion,,,,,false,,,,868627,868626.3000000119,864176.433,864187.0999999642,864189.916,868629.439,8,400,,,
trial,html.Screen,4_105_0,2023-09-13T04:57:11.497Z,,0,3,,3821.560999999987,response,ISIC_5400609.JPG,5,ISIC_1293743.JPG,ISIC_1293743.JPG,false,0,keypress(z),500,872451.3000000119,872451,868615.066,868627.1999999881,868629.439,872462.767,8,400,6,,ISIC_5400609.JPG
break,html.Screen,4_105_1,2023-09-13T04:57:11.498Z,,0,,,NaN,,,,,,false,,,,872452,872451.8999999762,,872451.5,,872462.767,8,400,,,
break_continue,html.Screen,4_105_2,2023-09-13T04:57:11.498Z,,0,,,NaN,,,,,,false,,,,872452.3000000119,872452.1999999881,,872452.1999999881,,872462.767,8,400,,,
sequence,flow.Sequence,4_105,2023-09-13T04:57:11.498Z,,0,,,3822.760999988066,completion,,,,,false,,,,872452.3999999762,872452.1999999881,868615.066,868627.1999999881,868629.439,872462.767,8,400,,,
trial,html.Screen,4_106_0,2023-09-13T04:57:15.500Z,,0,3,,3991.2330000000075,response,ISIC_6370748.JPG,5,ISIC_8959410.JPG,ISIC_8959410.JPG,false,0,keypress(z),500,876454.3999999762,876454,872435.873,872452.5999999642,872462.767,876458.77,8,400,7,,ISIC_6370748.JPG
break,html.Screen,4_106_1,2023-09-13T04:57:15.501Z,,0,,,NaN,,,,,,false,,,,876455.1999999881,876455,,876454.5999999642,,876458.77,8,400,,,
break_continue,html.Screen,4_106_2,2023-09-13T04:57:15.502Z,,0,,,NaN,,,,,,false,,,,876455.8999999762,876455.6999999881,,876455.5,,876458.77,8,400,,,
sequence,flow.Sequence,4_106,2023-09-13T04:57:15.502Z,,0,,,3992.9329999880865,completion,,,,,false,,,,876456.0999999642,876455.6999999881,872435.873,872452.5,872462.767,876458.77,8,400,,,
trial,html.Screen,4_107_0,2023-09-13T04:57:18.609Z,,0,3,,3104.0300000119023,response,ISIC_4443373.JPG,7,ISIC_0067985.JPG,ISIC_4443373.JPG,false,1,keypress(m),500,879563.0999999642,879562.8000000119,876449.281,876456.3000000119,876458.77,879567.376,8,400,8,,ISIC_0067985.JPG
break,html.Screen,4_107_1,2023-09-13T04:57:18.610Z,,0,,,NaN,,,,,,false,,,,879564,879563.6999999881,,879563.1999999881,,879567.376,8,400,,,
break_continue,html.Screen,4_107_2,2023-09-13T04:57:18.610Z,,0,,,NaN,,,,,,false,,,,879564.3999999762,879564.3000000119,,879564.1999999881,,879567.376,8,400,,,
sequence,flow.Sequence,4_107,2023-09-13T04:57:18.610Z,,0,,,3105.5300000119023,completion,,,,,false,,,,879564.6999999881,879564.3000000119,876449.281,876456.3000000119,876458.77,879567.376,8,400,,,
trial,html.Screen,4_108_0,2023-09-13T04:57:22.420Z,,0,3,,3806.2239999641897,response,ISIC_0009959.JPG,11,ISIC_4277207.JPG,ISIC_4277207.JPG,false,0,keypress(z),500,883374,883373.5999999642,879547.711,879564.8000000119,879567.376,883378.279,8,400,9,,ISIC_0009959.JPG
break,html.Screen,4_108_1,2023-09-13T04:57:22.420Z,,0,,,NaN,,,,,,false,,,,883374.8000000119,883374.5999999642,,883374.1999999881,,883378.279,8,400,,,
break_continue,html.Screen,4_108_2,2023-09-13T04:57:22.421Z,,0,,,NaN,,,,,,false,,,,883375.5999999642,883375,,883375,,883378.279,8,400,,,
sequence,flow.Sequence,4_108,2023-09-13T04:57:22.421Z,,0,,,3807.6239999999525,completion,,,,,false,,,,883375.8000000119,883375,879547.711,879564.8000000119,879567.376,883378.279,8,400,,,
trial,html.Screen,4_109_0,2023-09-13T04:57:25.928Z,,0,3,,3503.8209999642568,response,ISIC_7418723.JPG,3,ISIC_3190566.JPG,ISIC_3190566.JPG,false,0,keypress(z),500,886882.3000000119,886882.0999999642,883366.495,883375.8999999762,883378.279,886886.5,8,400,10,,ISIC_7418723.JPG
break,html.Screen,4_109_1,2023-09-13T04:57:25.929Z,,0,,,NaN,,,,,,false,,,,886883.1999999881,886882.8999999762,,886882.5,,886886.5,8,400,,,
break_continue,html.Screen,4_109_2,2023-09-13T04:57:25.929Z,,0,,,NaN,,,,,,false,,,,886883.5999999642,886883.5,,886883.3999999762,,886886.5,8,400,,,
sequence,flow.Sequence,4_109,2023-09-13T04:57:25.929Z,,0,,,3505.2210000000196,completion,,,,,false,,,,886883.6999999881,886883.5,883366.495,883375.8999999762,883378.279,886886.5,8,400,,,
trial,html.Screen,4_110_0,2023-09-13T04:57:32.980Z,,0,3,,7047.199999988079,response,ISIC_0030484.JPG,1,ISIC_3689759.JPG,ISIC_3689759.JPG,false,0,keypress(z),500,893934.0999999642,893933.6999999881,886876.644,886883.8999999762,886886.5,893938.345,8,400,11,,ISIC_0030484.JPG
break,html.Screen,4_110_1,2023-09-13T04:57:32.980Z,,0,,,NaN,,,,,,false,,,,893934.8999999762,893934.6999999881,,893934.3000000119,,893938.345,8,400,,,
break_continue,html.Screen,4_110_2,2023-09-13T04:57:32.982Z,,0,,,NaN,,,,,,false,,,,893935.8999999762,893935.8000000119,,893935,,893938.345,8,400,,,
sequence,flow.Sequence,4_110,2023-09-13T04:57:32.982Z,,0,,,7049.300000011921,completion,,,,,false,,,,893936.0999999642,893935.8000000119,886876.644,886883.8000000119,886886.5,893938.345,8,400,,,
trial,html.Screen,4_111_0,2023-09-13T04:57:36.120Z,,0,3,,3135.354999988107,response,ISIC_0013736.JPG,21,ISIC_2177748.JPG,ISIC_2177748.JPG,false,0,keypress(z),500,897073.8999999762,897073.6999999881,893932.751,893936.1999999881,893938.345,897078.128,8,400,12,,ISIC_0013736.JPG
break,html.Screen,4_111_1,2023-09-13T04:57:36.120Z,,0,,,NaN,,,,,,false,,,,897074.8000000119,897074.5999999642,,897074.1999999881,,897078.128,8,400,,,
break_continue,html.Screen,4_111_2,2023-09-13T04:57:36.121Z,,0,,,NaN,,,,,,false,,,,897075.1999999881,897075,,897074.8999999762,,897078.128,8,400,,,
sequence,flow.Sequence,4_111,2023-09-13T04:57:36.121Z,,0,,,3136.655000000028,completion,,,,,false,,,,897075.3000000119,897075,893932.751,893936.1999999881,893938.345,897078.128,8,400,,,
trial,html.Screen,4_112_0,2023-09-13T04:57:38.777Z,,0,3,,2652.971999964211,response,ISIC_4329176.JPG,4,ISIC_4715386.JPG,ISIC_4329176.JPG,false,1,keypress(m),500,899731.3000000119,899731.0999999642,897067.576,897075.3999999762,897078.128,899735.199,8,400,13,,ISIC_4715386.JPG
break,html.Screen,4_112_1,2023-09-13T04:57:38.778Z,,0,,,NaN,,,,,,false,,,,899731.8999999762,899731.6999999881,,899731.5,,899735.199,8,400,,,
break_continue,html.Screen,4_112_2,2023-09-13T04:57:38.778Z,,0,,,NaN,,,,,,false,,,,899732.1999999881,899732.0999999642,,899732,,899735.199,8,400,,,
sequence,flow.Sequence,4_112,2023-09-13T04:57:38.778Z,,0,,,2653.971999964211,completion,,,,,false,,,,899732.3000000119,899732.0999999642,897067.576,897075.3999999762,897078.128,899735.199,8,400,,,
trial,html.Screen,4_113_0,2023-09-13T04:57:42.299Z,,0,3,,3518.5009999880567,response,ISIC_3900049.JPG,4,ISIC_6027459.JPG,ISIC_3900049.JPG,false,1,keypress(m),500,903254,903253.6999999881,899727.797,899732.3999999762,899735.199,903258.246,8,400,14,,ISIC_6027459.JPG
break,html.Screen,4_113_1,2023-09-13T04:57:42.300Z,,0,,,NaN,,,,,,false,,,,903254.8000000119,903254.5999999642,,903254.1999999881,,903258.246,8,400,,,
break_continue,html.Screen,4_113_2,2023-09-13T04:57:42.300Z,,0,,,NaN,,,,,,false,,,,903255.3999999762,903255.1999999881,,903255,,903258.246,8,400,,,
sequence,flow.Sequence,4_113,2023-09-13T04:57:42.301Z,,0,,,3520.0009999880567,completion,,,,,false,,,,903255.5,903255.1999999881,899727.797,899732.3999999762,899735.199,903258.246,8,400,,,
trial,html.Screen,4_114_0,2023-09-13T04:57:47.543Z,,0,3,,5239.554000011878,response,ISIC_0009940.JPG,26,ISIC_0011669.JPG,ISIC_0011669.JPG,false,0,keypress(z),500,908498.1999999881,908497.8000000119,903253.084,903255.6999999881,903258.246,908502.364,8,400,15,,ISIC_0009940.JPG
break,html.Screen,4_114_1,2023-09-13T04:57:47.544Z,,0,,,NaN,,,,,,false,,,,908499,908498.8000000119,,908498.3999999762,,908502.364,8,400,,,
break_continue,html.Screen,4_114_2,2023-09-13T04:57:47.544Z,,0,,,NaN,,,,,,false,,,,908499.3999999762,908499.3000000119,,908499.0999999642,,908502.364,8,400,,,
sequence,flow.Sequence,4_114,2023-09-13T04:57:47.545Z,,0,,,5241.054000011878,completion,,,,,false,,,,908499.5,908499.3000000119,903253.084,903255.5999999642,903258.246,908502.364,8,400,,,
trial,html.Screen,4_115_0,2023-09-13T04:57:50.652Z,,0,3,,3104.4360000119777,response,ISIC_7455460.JPG,17,ISIC_3892947.JPG,ISIC_7455460.JPG,false,1,keypress(m),500,911607.1999999881,911606.8000000119,908491.295,908499.6999999881,908502.364,911611.615,8,400,16,,ISIC_3892947.JPG
break,html.Screen,4_115_1,2023-09-13T04:57:50.653Z,,0,,,NaN,,,,,,false,,,,911608.0999999642,911607.8999999762,,911607.3999999762,,911611.615,8,400,,,
break_continue,html.Screen,4_115_2,2023-09-13T04:57:50.654Z,,0,,,NaN,,,,,,false,,,,911608.5,911608.5,,911608.3000000119,,911611.615,8,400,,,
sequence,flow.Sequence,4_115,2023-09-13T04:57:50.654Z,,0,,,3106.136000000057,completion,,,,,false,,,,911608.8000000119,911608.5,908491.295,908499.5999999642,908502.364,911611.615,8,400,,,
trial,html.Screen,4_116_0,2023-09-13T04:57:55.169Z,,0,3,,4511.9849999642465,response,ISIC_0012369.JPG,5,ISIC_0015035.JPG,ISIC_0015035.JPG,false,0,keypress(z),500,916124,916123.5999999642,911602.76,911608.8999999762,911611.615,916128.302,8,400,17,,ISIC_0012369.JPG
break,html.Screen,4_116_1,2023-09-13T04:57:55.170Z,,0,,,NaN,,,,,,false,,,,916124.8999999762,916124.5999999642,,916124.1999999881,,916128.302,8,400,,,
break_continue,html.Screen,4_116_2,2023-09-13T04:57:55.170Z,,0,,,NaN,,,,,,false,,,,916125.3999999762,916125.1999999881,,916125,,916128.302,8,400,,,
sequence,flow.Sequence,4_116,2023-09-13T04:57:55.171Z,,0,,,4513.584999988088,completion,,,,,false,,,,916125.5999999642,916125.1999999881,911602.76,911608.8999999762,911611.615,916128.302,8,400,,,
trial,html.Screen,4_117_0,2023-09-13T04:57:58.270Z,,0,3,,3096.797999964212,response,ISIC_9935444.JPG,4,ISIC_6557194.JPG,ISIC_9935444.JPG,false,1,keypress(m),500,919225.3999999762,919225.0999999642,916122.116,916125.6999999881,916128.302,919229.791,8,400,18,,ISIC_6557194.JPG
break,html.Screen,4_117_1,2023-09-13T04:57:58.271Z,,0,,,NaN,,,,,,false,,,,919226.1999999881,919226,,919225.6999999881,,919229.791,8,400,,,
break_continue,html.Screen,4_117_2,2023-09-13T04:57:58.272Z,,0,,,NaN,,,,,,false,,,,919226.8000000119,919226.5,,919226.3999999762,,919229.791,8,400,,,
sequence,flow.Sequence,4_117,2023-09-13T04:57:58.272Z,,0,,,3098.197999999975,completion,,,,,false,,,,919226.8999999762,919226.5,916122.116,916125.6999999881,916128.302,919229.791,8,400,,,
trial,html.Screen,4_118_0,2023-09-13T04:58:01.113Z,,0,3,,2837.5090000119526,response,ISIC_7494625.JPG,22,ISIC_6028082.JPG,ISIC_6028082.JPG,false,0,keypress(z),500,922067.5999999642,922067.3000000119,919217.881,919227,919229.791,922076.082,8,400,19,,ISIC_7494625.JPG
break,html.Screen,4_118_1,2023-09-13T04:58:01.114Z,,0,,,NaN,,,,,,false,,,,922068.6999999881,922068.3000000119,,922067.8000000119,,922076.082,8,400,,,
break_continue,html.Screen,4_118_2,2023-09-13T04:58:01.114Z,,0,,,NaN,,,,,,false,,,,922069.3999999762,922069,,922068.8000000119,,922076.082,8,400,,,
sequence,flow.Sequence,4_118,2023-09-13T04:58:01.115Z,,0,,,2839.2090000000317,completion,,,,,false,,,,922069.5999999642,922069,919217.881,919227,919229.791,922076.082,8,400,,,
trial,html.Screen,4_119_0,2023-09-13T04:58:04.157Z,,0,3,,3035.317999976105,response,ISIC_9335652.JPG,5,ISIC_1323048.JPG,ISIC_9335652.JPG,false,1,keypress(m),500,925111.6999999881,925111.3999999762,922068.115,922069.8000000119,922076.082,925116.116,8,400,20,,ISIC_1323048.JPG
break,html.Screen,4_119_1,2023-09-13T04:58:04.158Z,,0,,,NaN,,,,,,false,,,,925112.5,925112.3000000119,,925111.8999999762,,925116.116,8,400,,,
break_continue,html.Screen,4_119_2,2023-09-13T04:58:04.159Z,,0,,,NaN,,,,,,false,,,,925113.5999999642,925112.8999999762,,925112.6999999881,,925116.116,8,400,,,
sequence,flow.Sequence,4_119,2023-09-13T04:58:04.159Z,,0,,,3036.817999976105,completion,,,,,false,,,,925113.6999999881,925112.8999999762,922068.115,922069.8000000119,922076.082,925116.116,8,400,,,
trial,html.Screen,4_120_0,2023-09-13T04:58:07.394Z,,0,3,,3232.28399997612,response,ISIC_1685962.JPG,5,ISIC_6001936.JPG,ISIC_6001936.JPG,false,0,keypress(z),500,928348.6999999881,928348.3999999762,925097.443,925113.8000000119,925116.116,928370.155,8,400,21,,ISIC_1685962.JPG
break,html.Screen,4_120_1,2023-09-13T04:58:07.395Z,,0,,,NaN,,,,,,false,,,,928349.6999999881,928349.3999999762,,928348.8999999762,,928370.155,8,400,,,
break_continue,html.Screen,4_120_2,2023-09-13T04:58:07.395Z,,0,,,NaN,,,,,,false,,,,928350.3000000119,928350.1999999881,,928349.8999999762,,928370.155,8,400,,,
sequence,flow.Sequence,4_120,2023-09-13T04:58:07.396Z,,0,,,3234.083999988041,completion,,,,,false,,,,928350.5999999642,928350.1999999881,925097.443,925113.8000000119,925116.116,928370.155,8,400,,,
trial,html.Screen,4_121_0,2023-09-13T04:58:13.549Z,,0,3,,6133.444999964209,response,ISIC_2987579.JPG,5,ISIC_0061320.JPG,ISIC_0061320.JPG,false,0,keypress(z),500,934503.8999999762,934503.5999999642,928353.13,928350.8000000119,928370.155,934508.231,8,400,22,,ISIC_2987579.JPG
break,html.Screen,4_121_1,2023-09-13T04:58:13.550Z,,0,,,NaN,,,,,,false,,,,934504.8000000119,934504.5,,934504.0999999642,,934508.231,8,400,,,
break_continue,html.Screen,4_121_2,2023-09-13T04:58:13.550Z,,0,,,NaN,,,,,,false,,,,934505.3000000119,934505.0999999642,,934504.8999999762,,934508.231,8,400,,,
sequence,flow.Sequence,4_121,2023-09-13T04:58:13.551Z,,0,,,6134.944999964209,completion,,,,,false,,,,934505.5,934505.0999999642,928353.13,928350.6999999881,928370.155,934508.231,8,400,,,
trial,html.Screen,4_122_0,2023-09-13T04:58:16.737Z,,0,3,,3183.1689999761293,response,ISIC_0000375.JPG,21,ISIC_6188469.JPG,ISIC_6188469.JPG,false,0,keypress(z),500,937691.6999999881,937691.3999999762,934504.451,934505.5999999642,934508.231,937695.837,8,400,23,,ISIC_0000375.JPG
break,html.Screen,4_122_1,2023-09-13T04:58:16.738Z,,0,,,NaN,,,,,,false,,,,937692.5,937692.3000000119,,937692,,937695.837,8,400,,,
break_continue,html.Screen,4_122_2,2023-09-13T04:58:16.738Z,,0,,,NaN,,,,,,false,,,,937692.8999999762,937692.6999999881,,937692.5999999642,,937695.837,8,400,,,
sequence,flow.Sequence,4_122,2023-09-13T04:58:16.738Z,,0,,,3184.46899998805,completion,,,,,false,,,,937693,937692.6999999881,934504.451,934505.5999999642,934508.231,937695.837,8,400,,,
trial,html.Screen,4_123_0,2023-09-13T04:58:20.228Z,,0,3,,3486.3629999880213,response,ISIC_8423248.JPG,6,ISIC_0016127.JPG,ISIC_8423248.JPG,false,1,keypress(m),500,941182.5,941182.1999999881,937684.221,937693.0999999642,937695.837,941186.748,8,400,24,,ISIC_0016127.JPG
break,html.Screen,4_123_1,2023-09-13T04:58:20.228Z,,0,,,NaN,,,,,,false,,,,941183.3999999762,941183.1999999881,,941182.8000000119,,941186.748,8,400,,,
break_continue,html.Screen,4_123_2,2023-09-13T04:58:20.229Z,,0,,,NaN,,,,,,false,,,,941184.1999999881,941184,,941183.5,,941186.748,8,400,,,
sequence,flow.Sequence,4_123,2023-09-13T04:58:20.229Z,,0,,,3488.1629999999423,completion,,,,,false,,,,941184.3999999762,941184,937684.221,937693,937695.837,941186.748,8,400,,,
trial,html.Screen,4_124_0,2023-09-13T04:58:22.967Z,,0,3,,2735.2519999999786,response,ISIC_3312201.JPG,11,ISIC_4686317.JPG,ISIC_3312201.JPG,false,1,keypress(m),500,943922.3999999762,943922,941177.715,941184.5,941186.748,943926.875,8,400,25,,ISIC_4686317.JPG
break,html.Screen,4_124_1,2023-09-13T04:58:22.968Z,,0,,,NaN,,,,,,false,,,,943923.3999999762,943923,,943922.6999999881,,943926.875,8,400,,,
break_continue,html.Screen,4_124_2,2023-09-13T04:58:22.969Z,,0,,,NaN,,,,,,false,,,,943924.3000000119,943924.1999999881,,943923.5,,943926.875,8,400,,,
sequence,flow.Sequence,4_124,2023-09-13T04:58:22.970Z,,0,,,2737.4519999880577,completion,,,,,false,,,,943924.5999999642,943924.1999999881,941177.715,941184.5,941186.748,943926.875,8,400,,,
trial,html.Screen,4_125_0,2023-09-13T04:58:25.565Z,,0,3,,2593.024999976158,response,ISIC_2742786.JPG,11,ISIC_6954782.JPG,ISIC_6954782.JPG,false,0,keypress(z),500,946520.1999999881,946519.8999999762,943907.764,943924.8000000119,943926.875,946524.333,8,400,26,,ISIC_2742786.JPG
break,html.Screen,4_125_1,2023-09-13T04:58:25.566Z,,0,,,NaN,,,,,,false,,,,946520.8999999762,946520.6999999881,,946520.3999999762,,946524.333,8,400,,,
break_continue,html.Screen,4_125_2,2023-09-13T04:58:25.566Z,,0,,,NaN,,,,,,false,,,,946521.3000000119,946521.1999999881,,946521.0999999642,,946524.333,8,400,,,
sequence,flow.Sequence,4_125,2023-09-13T04:58:25.567Z,,0,,,2594.324999988079,completion,,,,,false,,,,946521.3999999762,946521.1999999881,943907.764,943924.5999999642,943926.875,946524.333,8,400,,,
