sender,sender_type,sender_id,timestamp,meta,,blockNo,condition,duration,ended_on,img_left,img_reveal,img_right,loser,practice,response,response_action,selection_duration,time_commit,time_end,time_render,time_run,time_show,time_switch,total_blocks,total_trials,trialNo,url,winner
informed_consent,html.Screen,0,2023-11-02T14:47:51.567Z,"{""labjs_version"":""20.2.4"",""labjs_build"":{""flavor"":""production"",""commit"":""f5b4a49f956347addd546a832a3327688c2c0fef""},""location"":""https://run.pavlovia.org/MurrayBennett/melanoma-2afc/?participant=67014&platform=sona"",""userAgent"":""Mozilla/5.0 (Windows NT 10.0; Win64; x64) AppleWebKit/537.36 (KHTML, like Gecko) Chrome/118.0.0.0 Safari/537.36"",""platform"":""Win32"",""language"":""en-US"",""locale"":""en-US"",""timeZone"":""America/Chicago"",""timezoneOffset"":300,""screen_width"":1920,""screen_height"":1080,""scroll_width"":1920,""scroll_height"":915,""window_innerWidth"":1920,""window_innerHeight"":963,""devicePixelRatio"":1}",,,,2992.4210000089406,response,,,,,,consent,click button,,4623.9000000059605,4623.100000008941,1380.48,1632,1630.679,4633.707,,,,"{""participant"":""67014"",""platform"":""sona""}",
Welcome,html.Screen,1,2023-11-02T14:47:52.975Z,,,,asymmetry,1397.2929999999997,response,,,,,,continue,click button,,6031.4000000059605,6031,4617.026,4624.100000008941,4633.707,6035.108,,,,,
trial,html.Screen,2_0_0,2023-11-02T14:47:56.752Z,,0,0,,3773.1919999970196,response,ISIC_6997061.JPG,,ISIC_0069348.JPG,ISIC_0069348.JPG,true,0,keypress(z),500,9808.5,9808.29999999702,6018.41,6031.5,6035.108,9822.203,1,6,1,,ISIC_6997061.JPG
sequence,flow.Sequence,2_0,2023-11-02T14:47:56.752Z,,0,,,3773.1919999970196,completion,,,,,true,,,,9808.60000000894,9808.29999999702,6018.41,6031.5,6035.108,9822.203,1,6,,,
trial,html.Screen,2_1_0,2023-11-02T14:47:59.570Z,,0,0,,2803.897000008941,response,ISIC_0009529.JPG,,ISIC_0057368.JPG,ISIC_0057368.JPG,true,0,keypress(z),500,12626.20000000298,12626.10000000894,9805.496,9808.70000000298,9822.203,12641.695,1,6,2,,ISIC_0009529.JPG
sequence,flow.Sequence,2_1,2023-11-02T14:47:59.570Z,,0,,,2803.897000008941,completion,,,,,true,,,,12626.29999999702,12626.10000000894,9805.496,9808.70000000298,9822.203,12641.695,1,6,,,
trial,html.Screen,2_2_0,2023-11-02T14:48:02.563Z,,0,0,,2977.5050000029805,response,ISIC_9758671.JPG,,ISIC_0064954.JPG,ISIC_9758671.JPG,true,1,keypress(m),500,15619.29999999702,15619.20000000298,12624.998,12626.29999999702,12641.695,15628.034,1,6,3,,ISIC_0064954.JPG
sequence,flow.Sequence,2_2,2023-11-02T14:48:02.563Z,,0,,,2977.5050000029805,completion,,,,,true,,,,15619.40000000596,15619.20000000298,12624.998,12626.29999999702,12641.695,15628.034,1,6,,,
trial,html.Screen,2_3_0,2023-11-02T14:48:05.621Z,,0,0,,3049.26599999702,response,ISIC_0000080.JPG,,ISIC_0005785.JPG,ISIC_0005785.JPG,true,0,keypress(z),500,18677.40000000596,18677.29999999702,15611.343,15619.40000000596,15628.034,18681.038,1,6,4,,ISIC_0000080.JPG
sequence,flow.Sequence,2_3,2023-11-02T14:48:05.621Z,,0,,,3049.26599999702,completion,,,,,true,,,,18677.5,18677.29999999702,15611.343,15619.40000000596,15628.034,18681.038,1,6,,,
trial,html.Screen,2_4_0,2023-11-02T14:48:08.391Z,,0,0,,2766.5620000089402,response,ISIC_5390060.JPG,,ISIC_7944028.JPG,ISIC_5390060.JPG,true,1,keypress(m),500,21447.70000000298,21447.60000000894,18664.354,18677.5,18681.038,21450.463,1,6,5,,ISIC_7944028.JPG
sequence,flow.Sequence,2_4,2023-11-02T14:48:08.391Z,,0,,,2766.5620000089402,completion,,,,,true,,,,21447.79999999702,21447.60000000894,18664.354,18677.5,18681.038,21450.463,1,6,,,
trial,html.Screen,2_5_0,2023-11-02T14:48:12.009Z,,0,0,,3615.4370000059607,response,ISIC_0010188.JPG,,ISIC_0794216.JPG,ISIC_0010188.JPG,true,1,keypress(m),500,25066,25065.90000000596,21434.035,21447.79999999702,21450.463,25070.741,1,6,6,,ISIC_0794216.JPG
sequence,flow.Sequence,2_5,2023-11-02T14:48:12.009Z,,0,,,3615.4370000059607,completion,,,,,true,,,,25066.10000000894,25065.90000000596,21434.035,21447.79999999702,21450.463,25070.741,1,6,,,
loop,flow.Loop,2,2023-11-02T14:48:12.010Z,,,,,19030.79200000596,completion,,,,,true,,,,25066.29999999702,25065.90000000596,6018.41,6031.5,6035.108,25070.741,1,6,,,
exp_instructions,html.Screen,3,2023-11-02T14:48:13.919Z,,,,,1904.6590000059587,response,,,,,,continue,keypress(Space),,26975.79999999702,26975.40000000596,25054.008,25066.29999999702,25070.741,26989.322,,,,,
trial,html.Screen,4_0_0,2023-11-02T14:48:17.265Z,,0,1,,3332.37800000298,response,ISIC_0059547.JPG,6,ISIC_9407690.JPG,ISIC_0059547.JPG,false,1,keypress(m),500,30321.79999999702,30321.70000000298,26972.673,26975.90000000596,26989.322,30326.035,8,400,1,,ISIC_9407690.JPG
break,html.Screen,4_0_1,2023-11-02T14:48:17.265Z,,0,,,NaN,,,,,,false,,,,30322.10000000894,30322.10000000894,,30321.79999999702,,30326.035,8,400,,,
break_continue,html.Screen,4_0_2,2023-11-02T14:48:17.266Z,,0,,,NaN,,,,,,false,,,,30322.20000000298,30322.10000000894,,30322.10000000894,,30326.035,8,400,,,
sequence,flow.Sequence,4_0,2023-11-02T14:48:17.266Z,,0,,,3332.7780000089406,completion,,,,,false,,,,30322.20000000298,30322.10000000894,26972.673,26975.90000000596,26989.322,30326.035,8,400,,,
trial,html.Screen,4_1_0,2023-11-02T14:48:22.179Z,,0,1,,4909.66500000298,response,ISIC_0011286.JPG,5,ISIC_0071901.JPG,ISIC_0071901.JPG,false,0,keypress(z),500,35235.79999999702,35235.70000000298,30309.288,30322.29999999702,30326.035,35247.582,8,400,2,,ISIC_0011286.JPG
break,html.Screen,4_1_1,2023-11-02T14:48:22.179Z,,0,,,NaN,,,,,,false,,,,35236.10000000894,35236,,35235.90000000596,,35247.582,8,400,,,
break_continue,html.Screen,4_1_2,2023-11-02T14:48:22.180Z,,0,,,NaN,,,,,,false,,,,35236.20000000298,35236.10000000894,,35236.10000000894,,35247.582,8,400,,,
sequence,flow.Sequence,4_1,2023-11-02T14:48:22.180Z,,0,,,4910.065000008941,completion,,,,,false,,,,35236.20000000298,35236.10000000894,30309.288,30322.29999999702,30326.035,35247.582,8,400,,,
trial,html.Screen,4_2_0,2023-11-02T14:48:25.590Z,,0,1,,3399.0180000089385,response,ISIC_0033272.JPG,4,ISIC_1450548.JPG,ISIC_0033272.JPG,false,1,keypress(m),500,38646.79999999702,38646.60000000894,35230.891,35236.29999999702,35247.582,38650.93,8,400,3,,ISIC_1450548.JPG
break,html.Screen,4_2_1,2023-11-02T14:48:25.590Z,,0,,,NaN,,,,,,false,,,,38647,38646.90000000596,,38646.79999999702,,38650.93,8,400,,,
break_continue,html.Screen,4_2_2,2023-11-02T14:48:25.590Z,,0,,,NaN,,,,,,false,,,,38647.10000000894,38647,,38647,,38650.93,8,400,,,
sequence,flow.Sequence,4_2,2023-11-02T14:48:25.591Z,,0,,,3399.417999999998,completion,,,,,false,,,,38647.20000000298,38647,35230.891,35236.29999999702,35247.582,38650.93,8,400,,,
trial,html.Screen,4_3_0,2023-11-02T14:48:28.536Z,,0,1,,2941.27000000298,response,ISIC_7901891.JPG,5,ISIC_7147713.JPG,ISIC_7901891.JPG,false,1,keypress(m),500,41592.29999999702,41592.20000000298,38634.281,38647.20000000298,38650.93,41603.986,8,400,4,,ISIC_7147713.JPG
break,html.Screen,4_3_1,2023-11-02T14:48:28.536Z,,0,,,NaN,,,,,,false,,,,41592.5,41592.5,,41592.40000000596,,41603.986,8,400,,,
break_continue,html.Screen,4_3_2,2023-11-02T14:48:28.536Z,,0,,,NaN,,,,,,false,,,,41592.79999999702,41592.79999999702,,41592.60000000894,,41603.986,8,400,,,
sequence,flow.Sequence,4_3,2023-11-02T14:48:28.536Z,,0,,,2941.8699999970195,completion,,,,,false,,,,41592.90000000596,41592.79999999702,38634.281,38647.20000000298,38650.93,41603.986,8,400,,,
trial,html.Screen,4_4_0,2023-11-02T14:48:31.146Z,,0,1,,2598.3139999970226,response,ISIC_9141065.JPG,4,ISIC_0033752.JPG,ISIC_0033752.JPG,false,0,keypress(z),500,44202.29999999702,44202.29999999702,41587.256,41592.90000000596,41603.986,44206.591,8,400,5,,ISIC_9141065.JPG
break,html.Screen,4_4_1,2023-11-02T14:48:31.146Z,,0,,,NaN,,,,,,false,,,,44202.60000000894,44202.5,,44202.40000000596,,44206.591,8,400,,,
break_continue,html.Screen,4_4_2,2023-11-02T14:48:31.146Z,,0,,,NaN,,,,,,false,,,,44202.70000000298,44202.70000000298,,44202.70000000298,,44206.591,8,400,,,
sequence,flow.Sequence,4_4,2023-11-02T14:48:31.146Z,,0,,,2598.714000002983,completion,,,,,false,,,,44202.79999999702,44202.70000000298,41587.256,41592.90000000596,41603.986,44206.591,8,400,,,
trial,html.Screen,4_5_0,2023-11-02T14:48:34.267Z,,0,1,,3116.9089999999997,response,ISIC_1018265.JPG,6,ISIC_5979807.JPG,ISIC_1018265.JPG,false,1,keypress(m),500,47323.5,47323.5,44190.076,44202.79999999702,44206.591,47326.294,8,400,6,,ISIC_5979807.JPG
break,html.Screen,4_5_1,2023-11-02T14:48:34.267Z,,0,,,NaN,,,,,,false,,,,47323.79999999702,47323.79999999702,,47323.60000000894,,47326.294,8,400,,,
break_continue,html.Screen,4_5_2,2023-11-02T14:48:34.267Z,,0,,,NaN,,,,,,false,,,,47323.90000000596,47323.90000000596,,47323.79999999702,,47326.294,8,400,,,
sequence,flow.Sequence,4_5,2023-11-02T14:48:34.267Z,,0,,,3117.30900000596,completion,,,,,false,,,,47324,47323.90000000596,44190.076,44202.79999999702,44206.591,47326.294,8,400,,,
trial,html.Screen,4_6_0,2023-11-02T14:48:36.973Z,,0,1,,2703.4060000029785,response,ISIC_0069373.JPG,5,ISIC_9470876.JPG,ISIC_9470876.JPG,false,0,keypress(z),500,50029.90000000596,50029.70000000298,47309.578,47324,47326.294,50045.689,8,400,7,,ISIC_0069373.JPG
break,html.Screen,4_6_1,2023-11-02T14:48:36.974Z,,0,,,NaN,,,,,,false,,,,50030.40000000596,50030.29999999702,,50030.20000000298,,50045.689,8,400,,,
break_continue,html.Screen,4_6_2,2023-11-02T14:48:36.974Z,,0,,,NaN,,,,,,false,,,,50030.5,50030.5,,50030.5,,50045.689,8,400,,,
sequence,flow.Sequence,4_6,2023-11-02T14:48:36.974Z,,0,,,2704.2059999999983,completion,,,,,false,,,,50030.60000000894,50030.5,47309.578,47324,47326.294,50045.689,8,400,,,
trial,html.Screen,4_7_0,2023-11-02T14:48:39.776Z,,0,1,,2786.6109999970213,response,ISIC_0065714.JPG,5,ISIC_0028462.JPG,ISIC_0065714.JPG,false,1,keypress(m),500,52832.40000000596,52832.29999999702,50029.022,50030.70000000298,50045.689,52848.552,8,400,8,,ISIC_0028462.JPG
break,html.Screen,4_7_1,2023-11-02T14:48:39.776Z,,0,,,NaN,,,,,,false,,,,52832.70000000298,52832.60000000894,,52832.5,,52848.552,8,400,,,
break_continue,html.Screen,4_7_2,2023-11-02T14:48:39.776Z,,0,,,NaN,,,,,,false,,,,52832.70000000298,52832.70000000298,,52832.70000000298,,52848.552,8,400,,,
sequence,flow.Sequence,4_7,2023-11-02T14:48:39.776Z,,0,,,2787.0110000029817,completion,,,,,false,,,,52832.79999999702,52832.70000000298,50029.022,50030.60000000894,50045.689,52848.552,8,400,,,
trial,html.Screen,4_8_0,2023-11-02T14:48:42.610Z,,0,1,,2817.848000005957,response,ISIC_0028554.JPG,5,ISIC_5916208.JPG,ISIC_0028554.JPG,false,1,keypress(m),500,55666.60000000894,55666.40000000596,52831.824,52832.90000000596,52848.552,55667.957,8,400,9,,ISIC_5916208.JPG
break,html.Screen,4_8_1,2023-11-02T14:48:42.610Z,,0,,,NaN,,,,,,false,,,,55666.79999999702,55666.79999999702,,55666.60000000894,,55667.957,8,400,,,
break_continue,html.Screen,4_8_2,2023-11-02T14:48:42.610Z,,0,,,NaN,,,,,,false,,,,55666.90000000596,55666.90000000596,,55666.90000000596,,55667.957,8,400,,,
sequence,flow.Sequence,4_8,2023-11-02T14:48:42.610Z,,0,,,2818.348000005957,completion,,,,,false,,,,55667,55666.90000000596,52831.824,52832.90000000596,52848.552,55667.957,8,400,,,
trial,html.Screen,4_9_0,2023-11-02T14:48:45.139Z,,0,1,,2527.542999999998,response,ISIC_0027769.JPG,5,ISIC_6125358.JPG,ISIC_6125358.JPG,false,0,keypress(z),500,58195.60000000894,58195.5,55651.221,55667.10000000894,55667.957,58203.881,8,400,10,,ISIC_0027769.JPG
break,html.Screen,4_9_1,2023-11-02T14:48:45.139Z,,0,,,NaN,,,,,,false,,,,58195.90000000596,58195.90000000596,,58195.70000000298,,58203.881,8,400,,,
break_continue,html.Screen,4_9_2,2023-11-02T14:48:45.140Z,,0,,,NaN,,,,,,false,,,,58196.20000000298,58196.10000000894,,58196.10000000894,,58203.881,8,400,,,
sequence,flow.Sequence,4_9,2023-11-02T14:48:45.140Z,,0,,,2528.1430000089385,completion,,,,,false,,,,58196.20000000298,58196.10000000894,55651.221,55667,55667.957,58203.881,8,400,,,
trial,html.Screen,4_10_0,2023-11-02T14:48:47.573Z,,0,1,,2425.2190000089395,response,ISIC_0781315.JPG,5,ISIC_6973257.JPG,ISIC_0781315.JPG,false,1,keypress(m),500,60629.20000000298,60629.10000000894,58187.143,58196.20000000298,58203.881,60639.54,8,400,11,,ISIC_6973257.JPG
break,html.Screen,4_10_1,2023-11-02T14:48:47.573Z,,0,,,NaN,,,,,,false,,,,60629.60000000894,60629.5,,60629.29999999702,,60639.54,8,400,,,
break_continue,html.Screen,4_10_2,2023-11-02T14:48:47.573Z,,0,,,NaN,,,,,,false,,,,60629.79999999702,60629.70000000298,,60629.60000000894,,60639.54,8,400,,,
sequence,flow.Sequence,4_10,2023-11-02T14:48:47.573Z,,0,,,2425.819000002979,completion,,,,,false,,,,60629.79999999702,60629.70000000298,58187.143,58196.20000000298,58203.881,60639.54,8,400,,,
trial,html.Screen,4_11_0,2023-11-02T14:48:50.552Z,,0,1,,2967.259999997019,response,ISIC_0030423.JPG,5,ISIC_6526489.JPG,ISIC_6526489.JPG,false,0,keypress(z),500,63607,63606.79999999702,60622.897,60629.90000000596,60639.54,63609.201,8,400,12,,ISIC_0030423.JPG
break,html.Screen,4_11_1,2023-11-02T14:48:50.552Z,,0,,,NaN,,,,,,false,,,,63607.5,63607.20000000298,,63607.10000000894,,63609.201,8,400,,,
break_continue,html.Screen,4_11_2,2023-11-02T14:48:50.552Z,,0,,,NaN,,,,,,false,,,,63607.70000000298,63607.70000000298,,63607.60000000894,,63609.201,8,400,,,
sequence,flow.Sequence,4_11,2023-11-02T14:48:50.552Z,,0,,,2968.1600000029794,completion,,,,,false,,,,63607.79999999702,63607.70000000298,60622.897,60629.90000000596,60639.54,63609.201,8,400,,,
trial,html.Screen,4_12_0,2023-11-02T14:48:54.169Z,,0,1,,3615.098999997019,response,ISIC_2528656.JPG,4,ISIC_0033585.JPG,ISIC_2528656.JPG,false,1,keypress(m),500,67224.40000000596,67224.29999999702,63592.55,63607.79999999702,63609.201,67229.442,8,400,13,,ISIC_0033585.JPG
break,html.Screen,4_12_1,2023-11-02T14:48:54.169Z,,0,,,NaN,,,,,,false,,,,67224.70000000298,67224.60000000894,,67224.5,,67229.442,8,400,,,
break_continue,html.Screen,4_12_2,2023-11-02T14:48:54.169Z,,0,,,NaN,,,,,,false,,,,67224.79999999702,67224.70000000298,,67224.70000000298,,67229.442,8,400,,,
sequence,flow.Sequence,4_12,2023-11-02T14:48:54.169Z,,0,,,3615.4990000029793,completion,,,,,false,,,,67224.90000000596,67224.70000000298,63592.55,63607.79999999702,63609.201,67229.442,8,400,,,
trial,html.Screen,4_13_0,2023-11-02T14:48:56.939Z,,0,1,,2764.6580000089452,response,ISIC_0015071.JPG,4,ISIC_0031965.JPG,ISIC_0015071.JPG,false,1,keypress(m),500,69994.20000000298,69994.10000000894,67212.824,67224.90000000596,67229.442,69998.877,8,400,14,,ISIC_0031965.JPG
break,html.Screen,4_13_1,2023-11-02T14:48:56.939Z,,0,,,NaN,,,,,,false,,,,69994.5,69994.40000000596,,69994.29999999702,,69998.877,8,400,,,
break_continue,html.Screen,4_13_2,2023-11-02T14:48:56.939Z,,0,,,NaN,,,,,,false,,,,69994.60000000894,69994.60000000894,,69994.5,,69998.877,8,400,,,
sequence,flow.Sequence,4_13,2023-11-02T14:48:56.939Z,,0,,,2765.1580000089452,completion,,,,,false,,,,69994.60000000894,69994.60000000894,67212.824,67224.90000000596,67229.442,69998.877,8,400,,,
trial,html.Screen,4_14_0,2023-11-02T14:48:59.437Z,,0,1,,2493.2230000089476,response,ISIC_3463156.JPG,6,ISIC_0001101.JPG,ISIC_0001101.JPG,false,0,keypress(z),500,72492.20000000298,72492.10000000894,69982.232,69994.60000000894,69998.877,72501.368,8,400,15,,ISIC_3463156.JPG
break,html.Screen,4_14_1,2023-11-02T14:48:59.437Z,,0,,,NaN,,,,,,false,,,,72492.5,72492.40000000596,,72492.29999999702,,72501.368,8,400,,,
break_continue,html.Screen,4_14_2,2023-11-02T14:48:59.437Z,,0,,,NaN,,,,,,false,,,,72492.5,72492.5,,72492.5,,72501.368,8,400,,,
sequence,flow.Sequence,4_14,2023-11-02T14:48:59.437Z,,0,,,2493.623000000007,completion,,,,,false,,,,72492.60000000894,72492.5,69982.232,69994.60000000894,69998.877,72501.368,8,400,,,
trial,html.Screen,4_15_0,2023-11-02T14:49:02.463Z,,0,1,,3016.631999999998,response,ISIC_0008945.JPG,6,ISIC_8791729.JPG,ISIC_0008945.JPG,false,1,keypress(m),500,75518.10000000894,75518,72484.749,72492.60000000894,72501.368,75521.058,8,400,16,,ISIC_8791729.JPG
break,html.Screen,4_15_1,2023-11-02T14:49:02.463Z,,0,,,NaN,,,,,,false,,,,75518.29999999702,75518.29999999702,,75518.20000000298,,75521.058,8,400,,,
break_continue,html.Screen,4_15_2,2023-11-02T14:49:02.463Z,,0,,,NaN,,,,,,false,,,,75518.5,75518.40000000596,,75518.40000000596,,75521.058,8,400,,,
sequence,flow.Sequence,4_15,2023-11-02T14:49:02.463Z,,0,,,3017.0320000059583,completion,,,,,false,,,,75518.5,75518.40000000596,72484.749,72492.60000000894,72501.368,75521.058,8,400,,,
trial,html.Screen,4_16_0,2023-11-02T14:49:06.113Z,,0,1,,3646.842000005956,response,ISIC_0067427.JPG,5,ISIC_0066992.JPG,ISIC_0067427.JPG,false,1,keypress(m),500,79168,79167.90000000596,75504.421,75518.5,75521.058,79174.698,8,400,17,,ISIC_0066992.JPG
break,html.Screen,4_16_1,2023-11-02T14:49:06.113Z,,0,,,NaN,,,,,,false,,,,79168.20000000298,79168.20000000298,,79168,,79174.698,8,400,,,
break_continue,html.Screen,4_16_2,2023-11-02T14:49:06.113Z,,0,,,NaN,,,,,,false,,,,79168.29999999702,79168.20000000298,,79168.20000000298,,79174.698,8,400,,,
sequence,flow.Sequence,4_16,2023-11-02T14:49:06.113Z,,0,,,3647.1420000029757,completion,,,,,false,,,,79168.40000000596,79168.20000000298,75504.421,75518.5,75521.058,79174.698,8,400,,,
trial,html.Screen,4_17_0,2023-11-02T14:49:09.010Z,,0,1,,2890.4020000089367,response,ISIC_4246086.JPG,6,ISIC_0011269.JPG,ISIC_0011269.JPG,false,0,keypress(z),500,82065.20000000298,82065.10000000894,79158.372,79168.40000000596,79174.698,82077.863,8,400,18,,ISIC_4246086.JPG
break,html.Screen,4_17_1,2023-11-02T14:49:09.010Z,,0,,,NaN,,,,,,false,,,,82065.5,82065.40000000596,,82065.29999999702,,82077.863,8,400,,,
break_continue,html.Screen,4_17_2,2023-11-02T14:49:09.010Z,,0,,,NaN,,,,,,false,,,,82065.70000000298,82065.60000000894,,82065.60000000894,,82077.863,8,400,,,
sequence,flow.Sequence,4_17,2023-11-02T14:49:09.010Z,,0,,,2890.9020000089367,completion,,,,,false,,,,82065.70000000298,82065.60000000894,79158.372,79168.40000000596,79174.698,82077.863,8,400,,,
trial,html.Screen,4_18_0,2023-11-02T14:49:13.428Z,,0,1,,4405.737000008943,response,ISIC_0057556.JPG,4,ISIC_9445196.JPG,ISIC_0057556.JPG,false,1,keypress(m),500,86483.70000000298,86483.60000000894,82061.03,82065.79999999702,82077.863,86498.767,8,400,19,,ISIC_9445196.JPG
break,html.Screen,4_18_1,2023-11-02T14:49:13.428Z,,0,,,NaN,,,,,,false,,,,86483.90000000596,86483.90000000596,,86483.70000000298,,86498.767,8,400,,,
break_continue,html.Screen,4_18_2,2023-11-02T14:49:13.429Z,,0,,,NaN,,,,,,false,,,,86484,86484,,86484,,86498.767,8,400,,,
sequence,flow.Sequence,4_18,2023-11-02T14:49:13.429Z,,0,,,4406.137000000002,completion,,,,,false,,,,86484.10000000894,86484,82061.03,82065.79999999702,82077.863,86498.767,8,400,,,
trial,html.Screen,4_19_0,2023-11-02T14:49:16.598Z,,0,1,,3154.732999999993,response,ISIC_0016161.JPG,4,ISIC_0024410.JPG,ISIC_0024410.JPG,false,0,keypress(z),500,89653.5,89653.5,86482.001,86484.10000000894,86498.767,89668.532,8,400,20,,ISIC_0016161.JPG
break,html.Screen,4_19_1,2023-11-02T14:49:16.598Z,,0,,,NaN,,,,,,false,,,,89653.79999999702,89653.70000000298,,89653.60000000894,,89668.532,8,400,,,
break_continue,html.Screen,4_19_2,2023-11-02T14:49:16.599Z,,0,,,NaN,,,,,,false,,,,89653.90000000596,89653.90000000596,,89653.79999999702,,89668.532,8,400,,,
sequence,flow.Sequence,4_19,2023-11-02T14:49:16.599Z,,0,,,3155.1330000059534,completion,,,,,false,,,,89654,89653.90000000596,86482.001,86484.10000000894,86498.767,89668.532,8,400,,,
trial,html.Screen,4_20_0,2023-11-02T14:49:19.065Z,,0,1,,2451.568000008934,response,ISIC_3211915.JPG,6,ISIC_0034039.JPG,ISIC_3211915.JPG,false,1,keypress(m),500,92120.20000000298,92120.10000000894,89651.849,89654.10000000894,89668.532,92138.131,8,400,21,,ISIC_0034039.JPG
break,html.Screen,4_20_1,2023-11-02T14:49:19.065Z,,0,,,NaN,,,,,,false,,,,92120.5,92120.40000000596,,92120.20000000298,,92138.131,8,400,,,
break_continue,html.Screen,4_20_2,2023-11-02T14:49:19.065Z,,0,,,NaN,,,,,,false,,,,92120.70000000298,92120.70000000298,,92120.60000000894,,92138.131,8,400,,,
sequence,flow.Sequence,4_20,2023-11-02T14:49:19.065Z,,0,,,2452.1680000029737,completion,,,,,false,,,,92120.70000000298,92120.70000000298,89651.849,89654.10000000894,89668.532,92138.131,8,400,,,
trial,html.Screen,4_21_0,2023-11-02T14:49:21.851Z,,0,1,,2768.5690000029863,response,ISIC_0000118.JPG,4,ISIC_0002639.JPG,ISIC_0002639.JPG,false,0,keypress(z),500,94906.79999999702,94906.70000000298,92104.312,92120.79999999702,92138.131,94940.459,8,400,22,,ISIC_0000118.JPG
break,html.Screen,4_21_1,2023-11-02T14:49:21.852Z,,0,,,NaN,,,,,,false,,,,94907.10000000894,94907,,94906.79999999702,,94940.459,8,400,,,
break_continue,html.Screen,4_21_2,2023-11-02T14:49:21.852Z,,0,,,NaN,,,,,,false,,,,94907.40000000596,94907.20000000298,,94907.10000000894,,94940.459,8,400,,,
sequence,flow.Sequence,4_21,2023-11-02T14:49:21.852Z,,0,,,2769.0690000029863,completion,,,,,false,,,,94907.40000000596,94907.20000000298,92104.312,92120.79999999702,92138.131,94940.459,8,400,,,
trial,html.Screen,4_22_0,2023-11-02T14:49:24.510Z,,0,1,,2624.840999997017,response,ISIC_0031711.JPG,4,ISIC_0046683.JPG,ISIC_0031711.JPG,false,1,keypress(m),500,97565.40000000596,97565.29999999702,94923.755,94907.5,94940.459,97576.408,8,400,23,,ISIC_0046683.JPG
break,html.Screen,4_22_1,2023-11-02T14:49:24.510Z,,0,,,NaN,,,,,,false,,,,97565.60000000894,97565.60000000894,,97565.5,,97576.408,8,400,,,
break_continue,html.Screen,4_22_2,2023-11-02T14:49:24.510Z,,0,,,NaN,,,,,,false,,,,97565.79999999702,97565.79999999702,,97565.70000000298,,97576.408,8,400,,,
sequence,flow.Sequence,4_22,2023-11-02T14:49:24.510Z,,0,,,2625.340999997017,completion,,,,,false,,,,97565.79999999702,97565.79999999702,94923.755,94907.5,94940.459,97576.408,8,400,,,
trial,html.Screen,4_23_0,2023-11-02T14:49:27.824Z,,0,1,,3303.2920000029844,response,ISIC_9732721.JPG,4,ISIC_7746898.JPG,ISIC_9732721.JPG,false,1,keypress(m),500,100879.70000000298,100879.70000000298,97559.798,97565.79999999702,97576.408,100896.46,8,400,24,,ISIC_7746898.JPG
break,html.Screen,4_23_1,2023-11-02T14:49:27.825Z,,0,,,NaN,,,,,,false,,,,100879.90000000596,100879.90000000596,,100879.79999999702,,100896.46,8,400,,,
break_continue,html.Screen,4_23_2,2023-11-02T14:49:27.825Z,,0,,,NaN,,,,,,false,,,,100880.10000000894,100880,,100880,,100896.46,8,400,,,
sequence,flow.Sequence,4_23,2023-11-02T14:49:27.825Z,,0,,,3303.592000000004,completion,,,,,false,,,,100880.20000000298,100880,97559.798,97565.79999999702,97576.408,100896.46,8,400,,,
trial,html.Screen,4_24_0,2023-11-02T14:49:30.386Z,,0,1,,2545.0399999999936,response,ISIC_0063680.JPG,6,ISIC_7860137.JPG,ISIC_0063680.JPG,false,1,keypress(m),500,103441.60000000894,103441.5,100879.674,100880.20000000298,100896.46,103448.903,8,400,25,,ISIC_7860137.JPG
break,html.Screen,4_24_1,2023-11-02T14:49:30.386Z,,0,,,NaN,,,,,,false,,,,103441.79999999702,103441.79999999702,,103441.70000000298,,103448.903,8,400,,,
break_continue,html.Screen,4_24_2,2023-11-02T14:49:30.387Z,,0,,,NaN,,,,,,false,,,,103442,103441.90000000596,,103441.90000000596,,103448.903,8,400,,,
sequence,flow.Sequence,4_24,2023-11-02T14:49:30.387Z,,0,,,2545.440000005954,completion,,,,,false,,,,103442.10000000894,103441.90000000596,100879.674,100880.20000000298,100896.46,103448.903,8,400,,,
trial,html.Screen,4_25_0,2023-11-02T14:49:33.061Z,,0,1,,2666.9970000059548,response,ISIC_2415803.JPG,5,ISIC_1851605.JPG,ISIC_1851605.JPG,false,0,keypress(z),500,106116.10000000894,106115.90000000596,103432.277,103442.10000000894,103448.903,106118.272,8,400,26,,ISIC_2415803.JPG
break,html.Screen,4_25_1,2023-11-02T14:49:33.061Z,,0,,,NaN,,,,,,false,,,,106116.29999999702,106116.29999999702,,106116.20000000298,,106118.272,8,400,,,
break_continue,html.Screen,4_25_2,2023-11-02T14:49:33.061Z,,0,,,NaN,,,,,,false,,,,106116.60000000894,106116.5,,106116.5,,106118.272,8,400,,,
sequence,flow.Sequence,4_25,2023-11-02T14:49:33.061Z,,0,,,2667.5969999999943,completion,,,,,false,,,,106116.60000000894,106116.5,103432.277,103442.10000000894,103448.903,106118.272,8,400,,,
trial,html.Screen,4_26_0,2023-11-02T14:49:35.735Z,,0,1,,2671.6280000059633,response,ISIC_2621288.JPG,5,ISIC_9227392.JPG,ISIC_2621288.JPG,false,1,keypress(m),500,108790,108789.90000000596,106101.576,106116.70000000298,106118.272,108804.313,8,400,27,,ISIC_9227392.JPG
break,html.Screen,4_26_1,2023-11-02T14:49:35.735Z,,0,,,NaN,,,,,,false,,,,108790.29999999702,108790.20000000298,,108790.10000000894,,108804.313,8,400,,,
break_continue,html.Screen,4_26_2,2023-11-02T14:49:35.735Z,,0,,,NaN,,,,,,false,,,,108790.40000000596,108790.40000000596,,108790.29999999702,,108804.313,8,400,,,
sequence,flow.Sequence,4_26,2023-11-02T14:49:35.735Z,,0,,,2672.1280000059633,completion,,,,,false,,,,108790.5,108790.40000000596,106101.576,106116.70000000298,106118.272,108804.313,8,400,,,
trial,html.Screen,4_27_0,2023-11-02T14:49:38.424Z,,0,1,,2674.6870000000054,response,ISIC_0026759.JPG,5,ISIC_8263489.JPG,ISIC_8263489.JPG,false,0,keypress(z),500,111479.10000000894,111479,108787.611,108790.60000000894,108804.313,111490.302,8,400,28,,ISIC_0026759.JPG
break,html.Screen,4_27_1,2023-11-02T14:49:38.424Z,,0,,,NaN,,,,,,false,,,,111479.40000000596,111479.20000000298,,111479.10000000894,,111490.302,8,400,,,
break_continue,html.Screen,4_27_2,2023-11-02T14:49:38.424Z,,0,,,NaN,,,,,,false,,,,111479.5,111479.40000000596,,111479.40000000596,,111490.302,8,400,,,
sequence,flow.Sequence,4_27,2023-11-02T14:49:38.424Z,,0,,,2675.087000005966,completion,,,,,false,,,,111479.5,111479.40000000596,108787.611,108790.60000000894,108804.313,111490.302,8,400,,,
trial,html.Screen,4_28_0,2023-11-02T14:49:41.178Z,,0,1,,2743.398000002984,response,ISIC_7053271.JPG,5,ISIC_8374889.JPG,ISIC_8374889.JPG,false,0,keypress(z),500,114233.90000000596,114233.70000000298,111473.637,111479.60000000894,111490.302,114243.043,8,400,29,,ISIC_7053271.JPG
break,html.Screen,4_28_1,2023-11-02T14:49:41.179Z,,0,,,NaN,,,,,,false,,,,114234.10000000894,114234,,114233.90000000596,,114243.043,8,400,,,
break_continue,html.Screen,4_28_2,2023-11-02T14:49:41.179Z,,0,,,NaN,,,,,,false,,,,114234.20000000298,114234.20000000298,,114234.20000000298,,114243.043,8,400,,,
sequence,flow.Sequence,4_28,2023-11-02T14:49:41.179Z,,0,,,2743.898000002984,completion,,,,,false,,,,114234.29999999702,114234.20000000298,111473.637,111479.60000000894,111490.302,114243.043,8,400,,,
trial,html.Screen,4_29_0,2023-11-02T14:49:43.692Z,,0,1,,2504.657000002975,response,ISIC_0065463.JPG,5,ISIC_3556039.JPG,ISIC_0065463.JPG,false,1,keypress(m),500,116747.79999999702,116747.70000000298,114226.442,114234.29999999702,114243.043,116762.28,8,400,30,,ISIC_3556039.JPG
break,html.Screen,4_29_1,2023-11-02T14:49:43.693Z,,0,,,NaN,,,,,,false,,,,116748.10000000894,116747.90000000596,,116747.90000000596,,116762.28,8,400,,,
break_continue,html.Screen,4_29_2,2023-11-02T14:49:43.693Z,,0,,,NaN,,,,,,false,,,,116748.29999999702,116748.20000000298,,116748.10000000894,,116762.28,8,400,,,
sequence,flow.Sequence,4_29,2023-11-02T14:49:43.693Z,,0,,,2505.157000002975,completion,,,,,false,,,,116748.29999999702,116748.20000000298,114226.442,114234.29999999702,114243.043,116762.28,8,400,,,
trial,html.Screen,4_30_0,2023-11-02T14:49:46.431Z,,0,1,,2724.019999997021,response,ISIC_0031028.JPG,5,ISIC_0056413.JPG,ISIC_0056413.JPG,false,0,keypress(z),500,119486.40000000596,119486.29999999702,116745.812,116748.5,116762.28,119498.253,8,400,31,,ISIC_0031028.JPG
break,html.Screen,4_30_1,2023-11-02T14:49:46.431Z,,0,,,NaN,,,,,,false,,,,119486.60000000894,119486.60000000894,,119486.40000000596,,119498.253,8,400,,,
break_continue,html.Screen,4_30_2,2023-11-02T14:49:46.431Z,,0,,,NaN,,,,,,false,,,,119486.70000000298,119486.70000000298,,119486.70000000298,,119498.253,8,400,,,
sequence,flow.Sequence,4_30,2023-11-02T14:49:46.431Z,,0,,,2724.4200000029814,completion,,,,,false,,,,119486.79999999702,119486.70000000298,116745.812,116748.40000000596,116762.28,119498.253,8,400,,,
trial,html.Screen,4_31_0,2023-11-02T14:49:49.521Z,,0,1,,3078.247000000003,response,ISIC_0059943.JPG,6,ISIC_7897925.JPG,ISIC_0059943.JPG,false,1,keypress(m),500,122576.60000000894,122576.5,119481.594,119487.10000000894,119498.253,122584.671,8,400,32,,ISIC_7897925.JPG
break,html.Screen,4_31_1,2023-11-02T14:49:49.521Z,,0,,,NaN,,,,,,false,,,,122576.79999999702,122576.79999999702,,122576.60000000894,,122584.671,8,400,,,
break_continue,html.Screen,4_31_2,2023-11-02T14:49:49.521Z,,0,,,NaN,,,,,,false,,,,122576.90000000596,122576.90000000596,,122576.90000000596,,122584.671,8,400,,,
sequence,flow.Sequence,4_31,2023-11-02T14:49:49.522Z,,0,,,3078.6470000059635,completion,,,,,false,,,,122576.90000000596,122576.90000000596,119481.594,119486.90000000596,119498.253,122584.671,8,400,,,
trial,html.Screen,4_32_0,2023-11-02T14:49:52.147Z,,0,1,,2616.7290000059584,response,ISIC_0027480.JPG,6,ISIC_2089231.JPG,ISIC_0027480.JPG,false,1,keypress(m),500,125201.5,125201.40000000596,122568.033,122577,122584.671,125203.958,8,400,33,,ISIC_2089231.JPG
break,html.Screen,4_32_1,2023-11-02T14:49:52.147Z,,0,,,NaN,,,,,,false,,,,125201.90000000596,125201.79999999702,,125201.60000000894,,125203.958,8,400,,,
break_continue,html.Screen,4_32_2,2023-11-02T14:49:52.148Z,,0,,,NaN,,,,,,false,,,,125202.10000000894,125202,,125201.90000000596,,125203.958,8,400,,,
sequence,flow.Sequence,4_32,2023-11-02T14:49:52.148Z,,0,,,2617.328999999998,completion,,,,,false,,,,125202.10000000894,125202,122568.033,122577,122584.671,125203.958,8,400,,,
trial,html.Screen,4_33_0,2023-11-02T14:49:56.806Z,,0,1,,4655.942000005962,response,ISIC_3886458.JPG,4,ISIC_0030481.JPG,ISIC_0030481.JPG,false,0,keypress(z),500,129860,129859.90000000596,125187.268,125202.20000000298,125203.958,129875.283,8,400,34,,ISIC_3886458.JPG
break,html.Screen,4_33_1,2023-11-02T14:49:56.806Z,,0,,,NaN,,,,,,false,,,,129860.29999999702,129860.20000000298,,129860,,129875.283,8,400,,,
break_continue,html.Screen,4_33_2,2023-11-02T14:49:56.806Z,,0,,,NaN,,,,,,false,,,,129860.60000000894,129860.5,,129860.40000000596,,129875.283,8,400,,,
sequence,flow.Sequence,4_33,2023-11-02T14:49:56.806Z,,0,,,4656.542000000001,completion,,,,,false,,,,129860.60000000894,129860.5,125187.268,125202.10000000894,125203.958,129875.283,8,400,,,
trial,html.Screen,4_34_0,2023-11-02T14:50:00.071Z,,0,1,,3250.217000000004,response,ISIC_0031843.JPG,4,ISIC_4897852.JPG,ISIC_4897852.JPG,false,0,keypress(z),500,133125.60000000894,133125.5,129858.846,129860.70000000298,129875.283,133128.502,8,400,35,,ISIC_0031843.JPG
break,html.Screen,4_34_1,2023-11-02T14:50:00.071Z,,0,,,NaN,,,,,,false,,,,133125.79999999702,133125.70000000298,,133125.60000000894,,133128.502,8,400,,,
break_continue,html.Screen,4_34_2,2023-11-02T14:50:00.071Z,,0,,,NaN,,,,,,false,,,,133125.79999999702,133125.79999999702,,133125.79999999702,,133128.502,8,400,,,
sequence,flow.Sequence,4_34,2023-11-02T14:50:00.072Z,,0,,,3250.516999997024,completion,,,,,false,,,,133125.90000000596,133125.79999999702,129858.846,129860.70000000298,129875.283,133128.502,8,400,,,
trial,html.Screen,4_35_0,2023-11-02T14:50:02.761Z,,0,1,,2686.898000005953,response,ISIC_2245325.JPG,5,ISIC_9395707.JPG,ISIC_9395707.JPG,false,0,keypress(z),500,135815.60000000894,135815.40000000596,133111.901,133125.90000000596,133128.502,135831.254,8,400,36,,ISIC_2245325.JPG
break,html.Screen,4_35_1,2023-11-02T14:50:02.761Z,,0,,,NaN,,,,,,false,,,,135815.79999999702,135815.70000000298,,135815.70000000298,,135831.254,8,400,,,
break_continue,html.Screen,4_35_2,2023-11-02T14:50:02.761Z,,0,,,NaN,,,,,,false,,,,135815.90000000596,135815.90000000596,,135815.90000000596,,135831.254,8,400,,,
sequence,flow.Sequence,4_35,2023-11-02T14:50:02.762Z,,0,,,2687.398000005953,completion,,,,,false,,,,135816.29999999702,135815.90000000596,133111.901,133125.90000000596,133128.502,135831.254,8,400,,,
trial,html.Screen,4_36_0,2023-11-02T14:50:05.788Z,,0,1,,3011.146000005974,response,ISIC_0061630.JPG,6,ISIC_3728352.JPG,ISIC_0061630.JPG,false,1,keypress(m),500,138842.5,138842.40000000596,135814.644,135816.40000000596,135831.254,138850.916,8,400,37,,ISIC_3728352.JPG
break,html.Screen,4_36_1,2023-11-02T14:50:05.788Z,,0,,,NaN,,,,,,false,,,,138842.79999999702,138842.70000000298,,138842.60000000894,,138850.916,8,400,,,
break_continue,html.Screen,4_36_2,2023-11-02T14:50:05.788Z,,0,,,NaN,,,,,,false,,,,138842.90000000596,138842.79999999702,,138842.79999999702,,138850.916,8,400,,,
sequence,flow.Sequence,4_36,2023-11-02T14:50:05.789Z,,0,,,3011.5459999970335,completion,,,,,false,,,,138843,138842.79999999702,135814.644,135816.40000000596,135831.254,138850.916,8,400,,,
trial,html.Screen,4_37_0,2023-11-02T14:50:09.117Z,,0,1,,3320.6840000089433,response,ISIC_0056784.JPG,4,ISIC_0062497.JPG,ISIC_0062497.JPG,false,0,keypress(z),500,142171.70000000298,142171.60000000894,138834.25,138843,138850.916,142187.582,8,400,38,,ISIC_0056784.JPG
break,html.Screen,4_37_1,2023-11-02T14:50:09.117Z,,0,,,NaN,,,,,,false,,,,142171.90000000596,142171.90000000596,,142171.70000000298,,142187.582,8,400,,,
break_continue,html.Screen,4_37_2,2023-11-02T14:50:09.118Z,,0,,,NaN,,,,,,false,,,,142172,142172,,142172,,142187.582,8,400,,,
sequence,flow.Sequence,4_37,2023-11-02T14:50:09.118Z,,0,,,3321.0840000000026,completion,,,,,false,,,,142172,142172,138834.25,138843,138850.916,142187.582,8,400,,,
trial,html.Screen,4_38_0,2023-11-02T14:50:11.952Z,,0,1,,2818.418000000005,response,ISIC_0026204.JPG,5,ISIC_8671662.JPG,ISIC_0026204.JPG,false,1,keypress(m),500,145006.10000000894,145006,142170.924,142172.10000000894,142187.582,145024.657,8,400,39,,ISIC_8671662.JPG
break,html.Screen,4_38_1,2023-11-02T14:50:11.952Z,,0,,,NaN,,,,,,false,,,,145006.29999999702,145006.29999999702,,145006.10000000894,,145024.657,8,400,,,
break_continue,html.Screen,4_38_2,2023-11-02T14:50:11.952Z,,0,,,NaN,,,,,,false,,,,145006.5,145006.40000000596,,145006.40000000596,,145024.657,8,400,,,
sequence,flow.Sequence,4_38,2023-11-02T14:50:11.952Z,,0,,,2818.8180000059656,completion,,,,,false,,,,145006.60000000894,145006.40000000596,142170.924,142172.10000000894,142187.582,145024.657,8,400,,,
trial,html.Screen,4_39_0,2023-11-02T14:50:14.818Z,,0,1,,2847.3429999999935,response,ISIC_0064863.JPG,6,ISIC_7351007.JPG,ISIC_0064863.JPG,false,1,keypress(m),500,147872.10000000894,147872,144990.406,145006.60000000894,145024.657,147876.594,8,400,40,,ISIC_7351007.JPG
break,html.Screen,4_39_1,2023-11-02T14:50:14.818Z,,0,,,NaN,,,,,,false,,,,147872.40000000596,147872.29999999702,,147872.20000000298,,147876.594,8,400,,,
break_continue,html.Screen,4_39_2,2023-11-02T14:50:14.818Z,,0,,,NaN,,,,,,false,,,,147872.5,147872.5,,147872.40000000596,,147876.594,8,400,,,
sequence,flow.Sequence,4_39,2023-11-02T14:50:14.818Z,,0,,,2847.8429999999935,completion,,,,,false,,,,147872.60000000894,147872.5,144990.406,145006.60000000894,145024.657,147876.594,8,400,,,
trial,html.Screen,4_40_0,2023-11-02T14:50:17.412Z,,0,1,,2589.6060000029684,response,ISIC_3593161.JPG,5,ISIC_9605122.JPG,ISIC_9605122.JPG,false,0,keypress(z),500,150466.29999999702,150466.20000000298,147859.917,147872.60000000894,147876.594,150479.166,8,400,41,,ISIC_3593161.JPG
break,html.Screen,4_40_1,2023-11-02T14:50:17.412Z,,0,,,NaN,,,,,,false,,,,150466.5,150466.5,,150466.40000000596,,150479.166,8,400,,,
break_continue,html.Screen,4_40_2,2023-11-02T14:50:17.412Z,,0,,,NaN,,,,,,false,,,,150466.70000000298,150466.60000000894,,150466.5,,150479.166,8,400,,,
sequence,flow.Sequence,4_40,2023-11-02T14:50:17.412Z,,0,,,2590.006000008929,completion,,,,,false,,,,150466.70000000298,150466.60000000894,147859.917,147872.60000000894,147876.594,150479.166,8,400,,,
trial,html.Screen,4_41_0,2023-11-02T14:50:20.709Z,,0,1,,3284.534000002983,response,ISIC_2987630.JPG,5,ISIC_1696516.JPG,ISIC_2987630.JPG,false,1,keypress(m),500,153763.79999999702,153763.70000000298,150462.48,150466.70000000298,150479.166,153765.804,8,400,42,,ISIC_1696516.JPG
break,html.Screen,4_41_1,2023-11-02T14:50:20.710Z,,0,,,NaN,,,,,,false,,,,153764.10000000894,153764,,153763.79999999702,,153765.804,8,400,,,
break_continue,html.Screen,4_41_2,2023-11-02T14:50:20.710Z,,0,,,NaN,,,,,,false,,,,153764.20000000298,153764.20000000298,,153764.10000000894,,153765.804,8,400,,,
sequence,flow.Sequence,4_41,2023-11-02T14:50:20.710Z,,0,,,3285.034000002983,completion,,,,,false,,,,153764.29999999702,153764.20000000298,150462.48,150466.70000000298,150479.166,153765.804,8,400,,,
trial,html.Screen,4_42_0,2023-11-02T14:50:23.368Z,,0,1,,2655.995999997016,response,ISIC_8150108.JPG,5,ISIC_1696845.JPG,ISIC_1696845.JPG,false,0,keypress(z),500,156422,156421.79999999702,153749.176,153764.29999999702,153765.804,156435.118,8,400,43,,ISIC_8150108.JPG
break,html.Screen,4_42_1,2023-11-02T14:50:23.368Z,,0,,,NaN,,,,,,false,,,,156422.40000000596,156422.29999999702,,156422.10000000894,,156435.118,8,400,,,
break_continue,html.Screen,4_42_2,2023-11-02T14:50:23.368Z,,0,,,NaN,,,,,,false,,,,156422.60000000894,156422.5,,156422.5,,156435.118,8,400,,,
sequence,flow.Sequence,4_42,2023-11-02T14:50:23.368Z,,0,,,2656.6959999999963,completion,,,,,false,,,,156422.79999999702,156422.5,153749.176,153764.29999999702,153765.804,156435.118,8,400,,,
trial,html.Screen,4_43_0,2023-11-02T14:50:26.570Z,,0,1,,3189.181999997032,response,ISIC_0012434.JPG,4,ISIC_6072777.JPG,ISIC_6072777.JPG,false,0,keypress(z),500,159624.40000000596,159624.29999999702,156418.439,156422.79999999702,156435.118,159638.336,8,400,44,,ISIC_0012434.JPG
break,html.Screen,4_43_1,2023-11-02T14:50:26.570Z,,0,,,NaN,,,,,,false,,,,159624.60000000894,159624.60000000894,,159624.5,,159638.336,8,400,,,
break_continue,html.Screen,4_43_2,2023-11-02T14:50:26.570Z,,0,,,NaN,,,,,,false,,,,159624.79999999702,159624.79999999702,,159624.70000000298,,159638.336,8,400,,,
sequence,flow.Sequence,4_43,2023-11-02T14:50:26.570Z,,0,,,3189.681999997032,completion,,,,,false,,,,159624.79999999702,159624.79999999702,156418.439,156422.79999999702,156435.118,159638.336,8,400,,,
trial,html.Screen,4_44_0,2023-11-02T14:50:30.619Z,,0,1,,4035.4639999970095,response,ISIC_4678416.JPG,5,ISIC_8492957.JPG,ISIC_8492957.JPG,false,0,keypress(z),500,163673.90000000596,163673.79999999702,159621.655,159624.79999999702,159638.336,163692.349,8,400,45,,ISIC_4678416.JPG
break,html.Screen,4_44_1,2023-11-02T14:50:30.620Z,,0,,,NaN,,,,,,false,,,,163674.10000000894,163674,,163674,,163692.349,8,400,,,
break_continue,html.Screen,4_44_2,2023-11-02T14:50:30.620Z,,0,,,NaN,,,,,,false,,,,163674.29999999702,163674.20000000298,,163674.20000000298,,163692.349,8,400,,,
sequence,flow.Sequence,4_44,2023-11-02T14:50:30.620Z,,0,,,4035.86400000297,completion,,,,,false,,,,163674.29999999702,163674.20000000298,159621.655,159624.79999999702,159638.336,163692.349,8,400,,,
trial,html.Screen,4_45_0,2023-11-02T14:50:33.517Z,,0,1,,2878.6510000000126,response,ISIC_4879187.JPG,5,ISIC_1375476.JPG,ISIC_4879187.JPG,false,1,keypress(m),500,166571.10000000894,166571,163675.682,163674.29999999702,163692.349,166578.557,8,400,46,,ISIC_1375476.JPG
break,html.Screen,4_45_1,2023-11-02T14:50:33.517Z,,0,,,NaN,,,,,,false,,,,166571.40000000596,166571.29999999702,,166571.10000000894,,166578.557,8,400,,,
break_continue,html.Screen,4_45_2,2023-11-02T14:50:33.517Z,,0,,,NaN,,,,,,false,,,,166571.60000000894,166571.60000000894,,166571.5,,166578.557,8,400,,,
sequence,flow.Sequence,4_45,2023-11-02T14:50:33.517Z,,0,,,2879.2510000089533,completion,,,,,false,,,,166571.70000000298,166571.60000000894,163675.682,163674.29999999702,163692.349,166578.557,8,400,,,
trial,html.Screen,4_46_0,2023-11-02T14:50:36.415Z,,0,1,,2890.54300000894,response,ISIC_0055079.JPG,5,ISIC_7369312.JPG,ISIC_0055079.JPG,false,1,keypress(m),500,169469.20000000298,169469.10000000894,166561.92,166571.79999999702,166578.557,169481.441,8,400,47,,ISIC_7369312.JPG
break,html.Screen,4_46_1,2023-11-02T14:50:36.415Z,,0,,,NaN,,,,,,false,,,,169469.5,169469.40000000596,,169469.29999999702,,169481.441,8,400,,,
break_continue,html.Screen,4_46_2,2023-11-02T14:50:36.415Z,,0,,,NaN,,,,,,false,,,,169469.70000000298,169469.70000000298,,169469.60000000894,,169481.441,8,400,,,
sequence,flow.Sequence,4_46,2023-11-02T14:50:36.415Z,,0,,,2891.1430000029795,completion,,,,,false,,,,169469.79999999702,169469.70000000298,166561.92,166571.70000000298,166578.557,169481.441,8,400,,,
trial,html.Screen,4_47_0,2023-11-02T14:50:39.041Z,,0,1,,2613.959000005969,response,ISIC_0031561.JPG,6,ISIC_0005248.JPG,ISIC_0031561.JPG,false,1,keypress(m),500,172095.5,172095.40000000596,169464.748,169469.79999999702,169481.441,172100.714,8,400,48,,ISIC_0005248.JPG
break,html.Screen,4_47_1,2023-11-02T14:50:39.041Z,,0,,,NaN,,,,,,false,,,,172095.79999999702,172095.70000000298,,172095.60000000894,,172100.714,8,400,,,
break_continue,html.Screen,4_47_2,2023-11-02T14:50:39.041Z,,0,,,NaN,,,,,,false,,,,172095.90000000596,172095.79999999702,,172095.79999999702,,172100.714,8,400,,,
sequence,flow.Sequence,4_47,2023-11-02T14:50:39.042Z,,0,,,2614.358999997028,completion,,,,,false,,,,172096,172095.79999999702,169464.748,169469.79999999702,169481.441,172100.714,8,400,,,
trial,html.Screen,4_48_0,2023-11-02T14:50:41.731Z,,0,1,,2685.0859999970126,response,ISIC_8671119.JPG,5,ISIC_4530249.JPG,ISIC_4530249.JPG,false,0,keypress(z),500,174785.90000000596,174785.79999999702,172084.027,172096,172100.714,174804.349,8,400,49,,ISIC_8671119.JPG
break,html.Screen,4_48_1,2023-11-02T14:50:41.732Z,,0,,,NaN,,,,,,false,,,,174786.10000000894,174786.10000000894,,174786,,174804.349,8,400,,,
break_continue,html.Screen,4_48_2,2023-11-02T14:50:41.732Z,,0,,,NaN,,,,,,false,,,,174786.29999999702,174786.29999999702,,174786.29999999702,,174804.349,8,400,,,
sequence,flow.Sequence,4_48,2023-11-02T14:50:41.732Z,,0,,,2685.5859999970126,completion,,,,,false,,,,174786.40000000596,174786.29999999702,172084.027,172096,172100.714,174804.349,8,400,,,
trial,html.Screen,4_49_0,2023-11-02T14:50:44.598Z,,0,1,,2847.4509999970323,response,ISIC_7208412.JPG,5,ISIC_8740331.JPG,ISIC_7208412.JPG,false,1,keypress(m),500,177652,177651.79999999702,174770.11,174786.5,174804.349,177656.304,8,400,50,,ISIC_8740331.JPG
break,html.Screen,4_49_1,2023-11-02T14:50:54.580Z,,0,,,9993.286999999982,timeout,,,,,false,,,,187633.40000000596,187632.966,177639.567,177652.10000000894,177656.304,187649.591,8,400,,,
break_continue,html.Screen,4_49_2,2023-11-02T14:50:55.989Z,,0,,,1389.3090000059747,response,,,,,false,continue,keypress(Space),,189042.60000000894,189038.90000000596,187632.966,187633.5,187649.591,189051.029,8,400,,,
sequence,flow.Sequence,4_49,2023-11-02T14:50:55.989Z,,0,,,14234.551000005973,completion,,,,,false,,,,189042.79999999702,189038.90000000596,174770.11,174786.40000000596,174804.349,189051.029,8,400,,,
trial,html.Screen,4_50_0,2023-11-02T14:51:00.918Z,,0,2,,4920.97099999999,response,ISIC_0033594.JPG,6,ISIC_4023381.JPG,ISIC_0033594.JPG,false,1,keypress(m),500,193972.10000000894,193972,189034.236,189042.79999999702,189051.029,193990.521,8,400,1,,ISIC_4023381.JPG
break,html.Screen,4_50_1,2023-11-02T14:51:00.918Z,,0,,,NaN,,,,,,false,,,,193972.29999999702,193972.29999999702,,193972.20000000298,,193990.521,8,400,,,
break_continue,html.Screen,4_50_2,2023-11-02T14:51:00.919Z,,0,,,NaN,,,,,,false,,,,193972.5,193972.40000000596,,193972.40000000596,,193990.521,8,400,,,
sequence,flow.Sequence,4_50,2023-11-02T14:51:00.919Z,,0,,,4921.371000005951,completion,,,,,false,,,,193972.5,193972.40000000596,189034.236,189042.79999999702,189051.029,193990.521,8,400,,,
trial,html.Screen,4_51_0,2023-11-02T14:51:03.639Z,,0,2,,2702.478999999992,response,ISIC_3544821.JPG,6,ISIC_2457859.JPG,ISIC_2457859.JPG,false,0,keypress(z),500,196693.10000000894,196693,193955.901,193972.5,193990.521,196708.605,8,400,2,,ISIC_3544821.JPG
break,html.Screen,4_51_1,2023-11-02T14:51:03.639Z,,0,,,NaN,,,,,,false,,,,196693.29999999702,196693.29999999702,,196693.20000000298,,196708.605,8,400,,,
break_continue,html.Screen,4_51_2,2023-11-02T14:51:03.640Z,,0,,,NaN,,,,,,false,,,,196693.5,196693.5,,196693.40000000596,,196708.605,8,400,,,
sequence,flow.Sequence,4_51,2023-11-02T14:51:03.640Z,,0,,,2702.978999999992,completion,,,,,false,,,,196693.5,196693.5,193955.901,193972.5,193990.521,196708.605,8,400,,,
trial,html.Screen,4_52_0,2023-11-02T14:51:07.562Z,,0,2,,3906.99500000893,response,ISIC_7242542.JPG,5,ISIC_0034162.JPG,ISIC_0034162.JPG,false,0,keypress(z),500,200615.60000000894,200615.60000000894,196691.975,196693.60000000894,196708.605,200629.2,8,400,3,,ISIC_7242542.JPG
break,html.Screen,4_52_1,2023-11-02T14:51:07.562Z,,0,,,NaN,,,,,,false,,,,200615.90000000596,200615.90000000596,,200615.70000000298,,200629.2,8,400,,,
break_continue,html.Screen,4_52_2,2023-11-02T14:51:07.562Z,,0,,,NaN,,,,,,false,,,,200616,200616,,200615.90000000596,,200629.2,8,400,,,
sequence,flow.Sequence,4_52,2023-11-02T14:51:07.562Z,,0,,,3907.3949999999895,completion,,,,,false,,,,200616,200616,196691.975,196693.5,196708.605,200629.2,8,400,,,
trial,html.Screen,4_53_0,2023-11-02T14:51:11.387Z,,0,2,,3811.599999997008,response,ISIC_0060091.JPG,6,ISIC_7636321.JPG,ISIC_0060091.JPG,false,1,keypress(m),500,204440.90000000596,204440.79999999702,200612.542,200616,200629.2,204449.677,8,400,4,,ISIC_7636321.JPG
break,html.Screen,4_53_1,2023-11-02T14:51:11.387Z,,0,,,NaN,,,,,,false,,,,204441.20000000298,204441.10000000894,,204441,,204449.677,8,400,,,
break_continue,html.Screen,4_53_2,2023-11-02T14:51:11.387Z,,0,,,NaN,,,,,,false,,,,204441.29999999702,204441.29999999702,,204441.20000000298,,204449.677,8,400,,,
sequence,flow.Sequence,4_53,2023-11-02T14:51:11.388Z,,0,,,3812.099999997008,completion,,,,,false,,,,204441.40000000596,204441.29999999702,200612.542,200616,200629.2,204449.677,8,400,,,
trial,html.Screen,4_54_0,2023-11-02T14:51:15.117Z,,0,2,,3720.7230000059644,response,ISIC_3913709.JPG,5,ISIC_0027024.JPG,ISIC_0027024.JPG,false,0,keypress(z),500,208170.60000000894,208170.40000000596,204432.952,204441.5,204449.677,208186.769,8,400,5,,ISIC_3913709.JPG
break,html.Screen,4_54_1,2023-11-02T14:51:15.117Z,,0,,,NaN,,,,,,false,,,,208171.20000000298,208171.10000000894,,208170.70000000298,,208186.769,8,400,,,
break_continue,html.Screen,4_54_2,2023-11-02T14:51:15.118Z,,0,,,NaN,,,,,,false,,,,208171.5,208171.5,,208171.40000000596,,208186.769,8,400,,,
sequence,flow.Sequence,4_54,2023-11-02T14:51:15.118Z,,0,,,3721.823000000004,completion,,,,,false,,,,208171.60000000894,208171.5,204432.952,204441.5,204449.677,208186.769,8,400,,,
trial,html.Screen,4_55_0,2023-11-02T14:51:18.159Z,,0,2,,3026.3310000089405,response,ISIC_6463417.JPG,5,ISIC_4411889.JPG,ISIC_6463417.JPG,false,1,keypress(m),500,211213.10000000894,211213.10000000894,208170.052,208171.70000000298,208186.769,211223.086,8,400,6,,ISIC_4411889.JPG
break,html.Screen,4_55_1,2023-11-02T14:51:18.159Z,,0,,,NaN,,,,,,false,,,,211213.40000000596,211213.40000000596,,211213.20000000298,,211223.086,8,400,,,
break_continue,html.Screen,4_55_2,2023-11-02T14:51:18.160Z,,0,,,NaN,,,,,,false,,,,211213.5,211213.5,,211213.40000000596,,211223.086,8,400,,,
sequence,flow.Sequence,4_55,2023-11-02T14:51:18.160Z,,0,,,3026.7309999999998,completion,,,,,false,,,,211213.60000000894,211213.5,208170.052,208171.60000000894,208186.769,211223.086,8,400,,,
trial,html.Screen,4_56_0,2023-11-02T14:51:21.474Z,,0,2,,3304.61400000297,response,ISIC_0071733.JPG,5,ISIC_0046647.JPG,ISIC_0046647.JPG,false,0,keypress(z),500,214527.79999999702,214527.70000000298,211206.475,211213.60000000894,211223.086,214543.067,8,400,7,,ISIC_0071733.JPG
break,html.Screen,4_56_1,2023-11-02T14:51:21.474Z,,0,,,NaN,,,,,,false,,,,214528,214528,,214527.90000000596,,214543.067,8,400,,,
break_continue,html.Screen,4_56_2,2023-11-02T14:51:21.474Z,,0,,,NaN,,,,,,false,,,,214528.20000000298,214528.20000000298,,214528.10000000894,,214543.067,8,400,,,
sequence,flow.Sequence,4_56,2023-11-02T14:51:21.474Z,,0,,,3305.11400000297,completion,,,,,false,,,,214528.29999999702,214528.20000000298,211206.475,211213.60000000894,211223.086,214543.067,8,400,,,
trial,html.Screen,4_57_0,2023-11-02T14:51:24.469Z,,0,2,,2979.3330000059505,response,ISIC_0070244.JPG,5,ISIC_2379379.JPG,ISIC_0070244.JPG,false,1,keypress(m),500,217522.5,217522.40000000596,214526.39,214528.29999999702,214543.067,217529.38,8,400,8,,ISIC_2379379.JPG
break,html.Screen,4_57_1,2023-11-02T14:51:24.469Z,,0,,,NaN,,,,,,false,,,,217522.70000000298,217522.70000000298,,217522.5,,217529.38,8,400,,,
break_continue,html.Screen,4_57_2,2023-11-02T14:51:24.469Z,,0,,,NaN,,,,,,false,,,,217522.90000000596,217522.79999999702,,217522.79999999702,,217529.38,8,400,,,
sequence,flow.Sequence,4_57,2023-11-02T14:51:24.469Z,,0,,,2979.7329999970098,completion,,,,,false,,,,217522.90000000596,217522.79999999702,214526.39,214528.29999999702,214543.067,217529.38,8,400,,,
trial,html.Screen,4_58_0,2023-11-02T14:51:27.191Z,,0,2,,2715.520000005956,response,ISIC_0030428.JPG,5,ISIC_4393521.JPG,ISIC_0030428.JPG,false,1,keypress(m),500,220245.10000000894,220244.90000000596,217512.686,217522.90000000596,217529.38,220248.831,8,400,9,,ISIC_4393521.JPG
break,html.Screen,4_58_1,2023-11-02T14:51:27.191Z,,0,,,NaN,,,,,,false,,,,220245.40000000596,220245.29999999702,,220245.10000000894,,220248.831,8,400,,,
break_continue,html.Screen,4_58_2,2023-11-02T14:51:27.192Z,,0,,,NaN,,,,,,false,,,,220245.5,220245.40000000596,,220245.40000000596,,220248.831,8,400,,,
sequence,flow.Sequence,4_58,2023-11-02T14:51:27.192Z,,0,,,2716.020000005956,completion,,,,,false,,,,220245.5,220245.40000000596,217512.686,217522.90000000596,217529.38,220248.831,8,400,,,
trial,html.Screen,4_59_0,2023-11-02T14:51:29.721Z,,0,2,,2526.069000005955,response,ISIC_0009940.JPG,5,ISIC_0005494.JPG,ISIC_0005494.JPG,false,0,keypress(z),500,222775,222774.90000000596,220232.126,220245.60000000894,220248.831,222784.656,8,400,10,,ISIC_0009940.JPG
break,html.Screen,4_59_1,2023-11-02T14:51:29.721Z,,0,,,NaN,,,,,,false,,,,222775.29999999702,222775.29999999702,,222775.10000000894,,222784.656,8,400,,,
break_continue,html.Screen,4_59_2,2023-11-02T14:51:29.722Z,,0,,,NaN,,,,,,false,,,,222775.5,222775.40000000596,,222775.40000000596,,222784.656,8,400,,,
sequence,flow.Sequence,4_59,2023-11-02T14:51:29.722Z,,0,,,2526.569000005955,completion,,,,,false,,,,222775.60000000894,222775.40000000596,220232.126,220245.60000000894,220248.831,222784.656,8,400,,,
trial,html.Screen,4_60_0,2023-11-02T14:51:32.571Z,,0,2,,2840.344000000012,response,ISIC_5877410.JPG,6,ISIC_0193456.JPG,ISIC_0193456.JPG,false,0,keypress(z),500,225625.20000000298,225625,222767.968,222775.70000000298,222784.656,225637.505,8,400,11,,ISIC_5877410.JPG
break,html.Screen,4_60_1,2023-11-02T14:51:32.572Z,,0,,,NaN,,,,,,false,,,,225625.5,225625.40000000596,,225625.20000000298,,225637.505,8,400,,,
break_continue,html.Screen,4_60_2,2023-11-02T14:51:32.572Z,,0,,,NaN,,,,,,false,,,,225625.60000000894,225625.60000000894,,225625.5,,225637.505,8,400,,,
sequence,flow.Sequence,4_60,2023-11-02T14:51:32.572Z,,0,,,2840.9440000089526,completion,,,,,false,,,,225625.70000000298,225625.60000000894,222767.968,222775.60000000894,222784.656,225637.505,8,400,,,
trial,html.Screen,4_61_0,2023-11-02T14:51:36.062Z,,0,2,,3478.095000008936,response,ISIC_3377082.JPG,6,ISIC_8882374.JPG,ISIC_3377082.JPG,false,1,keypress(m),500,229115.79999999702,229115.60000000894,225620.855,225625.70000000298,225637.505,229124.309,8,400,12,,ISIC_8882374.JPG
break,html.Screen,4_61_1,2023-11-02T14:51:36.062Z,,0,,,NaN,,,,,,false,,,,229116,229115.90000000596,,229115.79999999702,,229124.309,8,400,,,
break_continue,html.Screen,4_61_2,2023-11-02T14:51:36.062Z,,0,,,NaN,,,,,,false,,,,229116.10000000894,229116.10000000894,,229116,,229124.309,8,400,,,
sequence,flow.Sequence,4_61,2023-11-02T14:51:36.062Z,,0,,,3478.595000008936,completion,,,,,false,,,,229116.10000000894,229116.10000000894,225620.855,225625.70000000298,225637.505,229124.309,8,400,,,
trial,html.Screen,4_62_0,2023-11-02T14:51:39.248Z,,0,2,,3177.7910000089323,response,ISIC_0068184.JPG,5,ISIC_0032425.JPG,ISIC_0032425.JPG,false,0,keypress(z),500,232302.10000000894,232302.10000000894,229107.624,229116.20000000298,229124.309,232310.831,8,400,13,,ISIC_0068184.JPG
break,html.Screen,4_62_1,2023-11-02T14:51:39.249Z,,0,,,NaN,,,,,,false,,,,232302.5,232302.5,,232302.20000000298,,232310.831,8,400,,,
break_continue,html.Screen,4_62_2,2023-11-02T14:51:39.249Z,,0,,,NaN,,,,,,false,,,,232302.60000000894,232302.60000000894,,232302.60000000894,,232310.831,8,400,,,
sequence,flow.Sequence,4_62,2023-11-02T14:51:39.249Z,,0,,,3178.2910000089323,completion,,,,,false,,,,232302.79999999702,232302.60000000894,229107.624,229116.20000000298,229124.309,232310.831,8,400,,,
trial,html.Screen,4_63_0,2023-11-02T14:51:42.019Z,,0,2,,2761.569000005955,response,ISIC_5776158.JPG,6,ISIC_3679789.JPG,ISIC_5776158.JPG,false,1,keypress(m),500,235072.5,235072.40000000596,232294.127,232302.79999999702,232310.831,235080.239,8,400,14,,ISIC_3679789.JPG
break,html.Screen,4_63_1,2023-11-02T14:51:42.019Z,,0,,,NaN,,,,,,false,,,,235072.70000000298,235072.70000000298,,235072.5,,235080.239,8,400,,,
break_continue,html.Screen,4_63_2,2023-11-02T14:51:42.019Z,,0,,,NaN,,,,,,false,,,,235072.79999999702,235072.79999999702,,235072.79999999702,,235080.239,8,400,,,
sequence,flow.Sequence,4_63,2023-11-02T14:51:42.019Z,,0,,,2761.968999997014,completion,,,,,false,,,,235072.90000000596,235072.79999999702,232294.127,232302.79999999702,232310.831,235080.239,8,400,,,
trial,html.Screen,4_64_0,2023-11-02T14:51:45.396Z,,0,2,,3369.661000005959,response,ISIC_4875370.JPG,5,ISIC_0063180.JPG,ISIC_4875370.JPG,false,1,keypress(m),500,238450,238449.90000000596,235063.562,235072.90000000596,235080.239,238483.664,8,400,15,,ISIC_0063180.JPG
break,html.Screen,4_64_1,2023-11-02T14:51:45.396Z,,0,,,NaN,,,,,,false,,,,238450.20000000298,238450.20000000298,,238450,,238483.664,8,400,,,
break_continue,html.Screen,4_64_2,2023-11-02T14:51:45.396Z,,0,,,NaN,,,,,,false,,,,238450.29999999702,238450.20000000298,,238450.20000000298,,238483.664,8,400,,,
sequence,flow.Sequence,4_64,2023-11-02T14:51:45.396Z,,0,,,3369.961000002979,completion,,,,,false,,,,238450.40000000596,238450.20000000298,235063.562,235072.90000000596,235080.239,238483.664,8,400,,,
trial,html.Screen,4_65_0,2023-11-02T14:51:49.031Z,,0,2,,3600.936000008951,response,ISIC_2513481.JPG,4,ISIC_0000434.JPG,ISIC_2513481.JPG,false,1,keypress(m),500,242084.60000000894,242084.60000000894,238466.939,238450.40000000596,238483.664,242087.198,8,400,16,,ISIC_0000434.JPG
break,html.Screen,4_65_1,2023-11-02T14:51:49.031Z,,0,,,NaN,,,,,,false,,,,242084.90000000596,242084.90000000596,,242084.79999999702,,242087.198,8,400,,,
break_continue,html.Screen,4_65_2,2023-11-02T14:51:49.031Z,,0,,,NaN,,,,,,false,,,,242085.10000000894,242085,,242085,,242087.198,8,400,,,
sequence,flow.Sequence,4_65,2023-11-02T14:51:49.031Z,,0,,,3601.3360000000102,completion,,,,,false,,,,242085.20000000298,242085,238466.939,238450.40000000596,238483.664,242087.198,8,400,,,
trial,html.Screen,4_66_0,2023-11-02T14:51:51.835Z,,0,2,,2800.0020000029763,response,ISIC_0058858.JPG,6,ISIC_4728968.JPG,ISIC_4728968.JPG,false,0,keypress(z),500,244887.20000000298,244887.20000000298,242070.565,242085.20000000298,242087.198,244889.999,8,400,17,,ISIC_0058858.JPG
break,html.Screen,4_66_1,2023-11-02T14:51:51.835Z,,0,,,NaN,,,,,,false,,,,244887.60000000894,244887.40000000596,,244887.29999999702,,244889.999,8,400,,,
break_continue,html.Screen,4_66_2,2023-11-02T14:51:51.835Z,,0,,,NaN,,,,,,false,,,,244887.70000000298,244887.60000000894,,244887.60000000894,,244889.999,8,400,,,
sequence,flow.Sequence,4_66,2023-11-02T14:51:51.835Z,,0,,,2800.4020000089367,completion,,,,,false,,,,244887.70000000298,244887.60000000894,242070.565,242085.20000000298,242087.198,244889.999,8,400,,,
trial,html.Screen,4_67_0,2023-11-02T14:51:54.414Z,,0,2,,2575.9010000059498,response,ISIC_0011238.JPG,5,ISIC_8626941.JPG,ISIC_0011238.JPG,false,1,keypress(m),500,247466,247465.90000000596,244873.352,244887.70000000298,244889.999,247475.945,8,400,18,,ISIC_8626941.JPG
break,html.Screen,4_67_1,2023-11-02T14:51:54.414Z,,0,,,NaN,,,,,,false,,,,247466.29999999702,247466.20000000298,,247466.10000000894,,247475.945,8,400,,,
break_continue,html.Screen,4_67_2,2023-11-02T14:51:54.414Z,,0,,,NaN,,,,,,false,,,,247466.5,247466.40000000596,,247466.40000000596,,247475.945,8,400,,,
sequence,flow.Sequence,4_67,2023-11-02T14:51:54.414Z,,0,,,2576.4010000059498,completion,,,,,false,,,,247466.60000000894,247466.40000000596,244873.352,244887.70000000298,244889.999,247475.945,8,400,,,
trial,html.Screen,4_68_0,2023-11-02T14:51:57.200Z,,0,2,,2776.6550000089337,response,ISIC_0033636.JPG,5,ISIC_0031744.JPG,ISIC_0033636.JPG,false,1,keypress(m),500,250252.70000000298,250252.60000000894,247459.273,247466.70000000298,247475.945,250262.008,8,400,19,,ISIC_0031744.JPG
break,html.Screen,4_68_1,2023-11-02T14:51:57.201Z,,0,,,NaN,,,,,,false,,,,250253,250253,,250252.79999999702,,250262.008,8,400,,,
break_continue,html.Screen,4_68_2,2023-11-02T14:51:57.201Z,,0,,,NaN,,,,,,false,,,,250253.20000000298,250253.20000000298,,250253.10000000894,,250262.008,8,400,,,
sequence,flow.Sequence,4_68,2023-11-02T14:51:57.201Z,,0,,,2777.2550000029732,completion,,,,,false,,,,250253.20000000298,250253.20000000298,247459.273,247466.60000000894,247475.945,250262.008,8,400,,,
trial,html.Screen,4_69_0,2023-11-02T14:52:00.131Z,,0,2,,2921.1920000029786,response,ISIC_6324832.JPG,5,ISIC_0063961.JPG,ISIC_0063961.JPG,false,0,keypress(z),500,253183.20000000298,253183.20000000298,250245.357,250253.20000000298,250262.008,253198.328,8,400,20,,ISIC_6324832.JPG
break,html.Screen,4_69_1,2023-11-02T14:52:00.131Z,,0,,,NaN,,,,,,false,,,,253183.60000000894,253183.5,,253183.29999999702,,253198.328,8,400,,,
break_continue,html.Screen,4_69_2,2023-11-02T14:52:00.131Z,,0,,,NaN,,,,,,false,,,,253183.70000000298,253183.60000000894,,253183.60000000894,,253198.328,8,400,,,
sequence,flow.Sequence,4_69,2023-11-02T14:52:00.131Z,,0,,,2921.592000008939,completion,,,,,false,,,,253183.70000000298,253183.60000000894,250245.357,250253.20000000298,250262.008,253198.328,8,400,,,
trial,html.Screen,4_70_0,2023-11-02T14:52:03.270Z,,0,2,,3123.3720000029716,response,ISIC_0011645.JPG,4,ISIC_0056228.JPG,ISIC_0011645.JPG,false,1,keypress(m),500,256321.90000000596,256321.70000000298,253181.663,253183.79999999702,253198.328,256334.765,8,400,21,,ISIC_0056228.JPG
break,html.Screen,4_70_1,2023-11-02T14:52:03.270Z,,0,,,NaN,,,,,,false,,,,256322.20000000298,256322.20000000298,,256321.90000000596,,256334.765,8,400,,,
break_continue,html.Screen,4_70_2,2023-11-02T14:52:03.270Z,,0,,,NaN,,,,,,false,,,,256322.29999999702,256322.29999999702,,256322.20000000298,,256334.765,8,400,,,
sequence,flow.Sequence,4_70,2023-11-02T14:52:03.270Z,,0,,,3123.971999997011,completion,,,,,false,,,,256322.40000000596,256322.29999999702,253181.663,253183.70000000298,253198.328,256334.765,8,400,,,
trial,html.Screen,4_71_0,2023-11-02T14:52:06.311Z,,0,2,,3028.534999997006,response,ISIC_0011268.JPG,6,ISIC_4418545.JPG,ISIC_4418545.JPG,false,0,keypress(z),500,259363.40000000596,259363.29999999702,256318.106,256322.5,256334.765,259371.12,8,400,22,,ISIC_0011268.JPG
break,html.Screen,4_71_1,2023-11-02T14:52:06.311Z,,0,,,NaN,,,,,,false,,,,259363.60000000894,259363.60000000894,,259363.5,,259371.12,8,400,,,
break_continue,html.Screen,4_71_2,2023-11-02T14:52:06.311Z,,0,,,NaN,,,,,,false,,,,259363.70000000298,259363.70000000298,,259363.70000000298,,259371.12,8,400,,,
sequence,flow.Sequence,4_71,2023-11-02T14:52:06.311Z,,0,,,3028.9350000029663,completion,,,,,false,,,,259363.79999999702,259363.70000000298,256318.106,256322.40000000596,256334.765,259371.12,8,400,,,
trial,html.Screen,4_72_0,2023-11-02T14:52:09.209Z,,0,2,,2890.080000002985,response,ISIC_0066626.JPG,5,ISIC_0028136.JPG,ISIC_0028136.JPG,false,0,keypress(z),500,262261.40000000596,262261.200000003,259354.413,259363.90000000596,259371.12,262274.039,8,400,23,,ISIC_0066626.JPG
break,html.Screen,4_72_1,2023-11-02T14:52:09.209Z,,0,,,NaN,,,,,,false,,,,262261.60000000894,262261.5,,262261.40000000596,,262274.039,8,400,,,
break_continue,html.Screen,4_72_2,2023-11-02T14:52:09.209Z,,0,,,NaN,,,,,,false,,,,262261.799999997,262261.700000003,,262261.700000003,,262274.039,8,400,,,
sequence,flow.Sequence,4_72,2023-11-02T14:52:09.209Z,,0,,,2890.580000002985,completion,,,,,false,,,,262261.90000000596,262261.700000003,259354.413,259363.90000000596,259371.12,262274.039,8,400,,,
trial,html.Screen,4_73_0,2023-11-02T14:52:12.123Z,,0,2,,2901.3610000059707,response,ISIC_0062978.JPG,5,ISIC_1988335.JPG,ISIC_0062978.JPG,false,1,keypress(m),500,265175.5,265175.40000000596,262257.317,262261.90000000596,262274.039,265176.933,8,400,24,,ISIC_1988335.JPG
break,html.Screen,4_73_1,2023-11-02T14:52:12.123Z,,0,,,NaN,,,,,,false,,,,265175.799999997,265175.700000003,,265175.60000000894,,265176.933,8,400,,,
break_continue,html.Screen,4_73_2,2023-11-02T14:52:12.124Z,,0,,,NaN,,,,,,false,,,,265175.799999997,265175.799999997,,265175.799999997,,265176.933,8,400,,,
sequence,flow.Sequence,4_73,2023-11-02T14:52:12.124Z,,0,,,2901.76099999703,completion,,,,,false,,,,265175.90000000596,265175.799999997,262257.317,262261.90000000596,262274.039,265176.933,8,400,,,
trial,html.Screen,4_74_0,2023-11-02T14:52:14.877Z,,0,2,,2752.3669999970007,response,ISIC_1461507.JPG,6,ISIC_0033654.JPG,ISIC_1461507.JPG,false,1,keypress(m),500,267929.40000000596,267929.299999997,265160.253,265175.90000000596,265176.933,267963.065,8,400,25,,ISIC_0033654.JPG
break,html.Screen,4_74_1,2023-11-02T14:52:14.877Z,,0,,,NaN,,,,,,false,,,,267929.700000003,267929.60000000894,,267929.40000000596,,267963.065,8,400,,,
break_continue,html.Screen,4_74_2,2023-11-02T14:52:14.878Z,,0,,,NaN,,,,,,false,,,,267929.799999997,267929.700000003,,267929.700000003,,267963.065,8,400,,,
sequence,flow.Sequence,4_74,2023-11-02T14:52:14.878Z,,0,,,2752.767000002961,completion,,,,,false,,,,267929.90000000596,267929.700000003,265160.253,265175.90000000596,265176.933,267963.065,8,400,,,
trial,html.Screen,4_75_0,2023-11-02T14:52:18.031Z,,0,2,,3120.4349999999977,response,ISIC_3706743.JPG,5,ISIC_0034232.JPG,ISIC_3706743.JPG,false,1,keypress(m),500,271083.5,271083.5,267946.327,267930,267963.065,271099.502,8,400,26,,ISIC_0034232.JPG
break,html.Screen,4_75_1,2023-11-02T14:52:18.031Z,,0,,,NaN,,,,,,false,,,,271083.799999997,271083.700000003,,271083.60000000894,,271099.502,8,400,,,
break_continue,html.Screen,4_75_2,2023-11-02T14:52:18.032Z,,0,,,NaN,,,,,,false,,,,271083.90000000596,271083.799999997,,271083.799999997,,271099.502,8,400,,,
sequence,flow.Sequence,4_75,2023-11-02T14:52:18.032Z,,0,,,3120.7349999970174,completion,,,,,false,,,,271084,271083.799999997,267946.327,267930,267963.065,271099.502,8,400,,,
trial,html.Screen,4_76_0,2023-11-02T14:52:20.625Z,,0,2,,2578.098000008962,response,ISIC_0010231.JPG,6,ISIC_8060329.JPG,ISIC_0010231.JPG,false,1,keypress(m),500,273677.700000003,273677.60000000894,271082.818,271084.10000000894,271099.502,273685.419,8,400,27,,ISIC_8060329.JPG
break,html.Screen,4_76_1,2023-11-02T14:52:20.626Z,,0,,,NaN,,,,,,false,,,,273678,273678,,273677.799999997,,273685.419,8,400,,,
break_continue,html.Screen,4_76_2,2023-11-02T14:52:20.626Z,,0,,,NaN,,,,,,false,,,,273678.10000000894,273678.10000000894,,273678.10000000894,,273685.419,8,400,,,
sequence,flow.Sequence,4_76,2023-11-02T14:52:20.626Z,,0,,,2578.598000008962,completion,,,,,false,,,,273678.10000000894,273678.10000000894,271082.818,271084,271099.502,273685.419,8,400,,,
trial,html.Screen,4_77_0,2023-11-02T14:52:23.635Z,,0,2,,3001.5810000000056,response,ISIC_0033752.JPG,5,ISIC_0062048.JPG,ISIC_0062048.JPG,false,0,keypress(z),500,276687.200000003,276687,273668.714,273678.200000003,273685.419,276706.008,8,400,28,,ISIC_0033752.JPG
break,html.Screen,4_77_1,2023-11-02T14:52:23.635Z,,0,,,NaN,,,,,,false,,,,276687.5,276687.40000000596,,276687.200000003,,276706.008,8,400,,,
break_continue,html.Screen,4_77_2,2023-11-02T14:52:23.635Z,,0,,,NaN,,,,,,false,,,,276687.60000000894,276687.60000000894,,276687.5,,276706.008,8,400,,,
sequence,flow.Sequence,4_77,2023-11-02T14:52:23.635Z,,0,,,3002.1810000089463,completion,,,,,false,,,,276687.60000000894,276687.60000000894,273668.714,273678.200000003,273685.419,276706.008,8,400,,,
trial,html.Screen,4_78_0,2023-11-02T14:52:26.294Z,,0,2,,2639.6920000030077,response,ISIC_0014525.JPG,5,ISIC_5714411.JPG,ISIC_0014525.JPG,false,1,keypress(m),500,279345.90000000596,279345.700000003,276671.772,276687.799999997,276706.008,279357.723,8,400,29,,ISIC_5714411.JPG
break,html.Screen,4_78_1,2023-11-02T14:52:26.294Z,,0,,,NaN,,,,,,false,,,,279346.10000000894,279346.10000000894,,279346,,279357.723,8,400,,,
break_continue,html.Screen,4_78_2,2023-11-02T14:52:26.294Z,,0,,,NaN,,,,,,false,,,,279346.299999997,279346.200000003,,279346.200000003,,279357.723,8,400,,,
sequence,flow.Sequence,4_78,2023-11-02T14:52:26.294Z,,0,,,2640.1920000030077,completion,,,,,false,,,,279346.40000000596,279346.200000003,276671.772,276687.700000003,276706.008,279357.723,8,400,,,
trial,html.Screen,4_79_0,2023-11-02T14:52:29.240Z,,0,2,,2933.977000002982,response,ISIC_0033813.JPG,5,ISIC_8169564.JPG,ISIC_8169564.JPG,false,0,keypress(z),500,282291.799999997,282291.700000003,279341.066,279346.40000000596,279357.723,282293.995,8,400,30,,ISIC_0033813.JPG
break,html.Screen,4_79_1,2023-11-02T14:52:29.240Z,,0,,,NaN,,,,,,false,,,,282292.10000000894,282292.10000000894,,282291.90000000596,,282293.995,8,400,,,
break_continue,html.Screen,4_79_2,2023-11-02T14:52:29.240Z,,0,,,NaN,,,,,,false,,,,282292.200000003,282292.10000000894,,282292.10000000894,,282293.995,8,400,,,
sequence,flow.Sequence,4_79,2023-11-02T14:52:29.240Z,,0,,,2934.3770000089426,completion,,,,,false,,,,282292.299999997,282292.10000000894,279341.066,279346.40000000596,279357.723,282293.995,8,400,,,
trial,html.Screen,4_80_0,2023-11-02T14:52:32.521Z,,0,2,,3279.205000002985,response,ISIC_0067697.JPG,5,ISIC_3440004.JPG,ISIC_3440004.JPG,false,0,keypress(z),500,285573.299999997,285573.200000003,282277.301,282292.299999997,282293.995,285580.717,8,400,31,,ISIC_0067697.JPG
break,html.Screen,4_80_1,2023-11-02T14:52:32.521Z,,0,,,NaN,,,,,,false,,,,285573.60000000894,285573.5,,285573.40000000596,,285580.717,8,400,,,
break_continue,html.Screen,4_80_2,2023-11-02T14:52:32.521Z,,0,,,NaN,,,,,,false,,,,285573.700000003,285573.700000003,,285573.60000000894,,285580.717,8,400,,,
sequence,flow.Sequence,4_80,2023-11-02T14:52:32.521Z,,0,,,3279.705000002985,completion,,,,,false,,,,285573.799999997,285573.700000003,282277.301,282292.299999997,282293.995,285580.717,8,400,,,
trial,html.Screen,4_81_0,2023-11-02T14:52:35.452Z,,0,2,,2923.282999999996,response,ISIC_0331124.JPG,5,ISIC_5525765.JPG,ISIC_0331124.JPG,false,1,keypress(m),500,288504.10000000894,288504,285563.948,285573.799999997,285580.717,288516.859,8,400,32,,ISIC_5525765.JPG
break,html.Screen,4_81_1,2023-11-02T14:52:35.452Z,,0,,,NaN,,,,,,false,,,,288504.40000000596,288504.299999997,,288504.10000000894,,288516.859,8,400,,,
break_continue,html.Screen,4_81_2,2023-11-02T14:52:35.452Z,,0,,,NaN,,,,,,false,,,,288504.5,288504.40000000596,,288504.40000000596,,288516.859,8,400,,,
sequence,flow.Sequence,4_81,2023-11-02T14:52:35.452Z,,0,,,2923.6830000059563,completion,,,,,false,,,,288504.60000000894,288504.40000000596,285563.948,285573.799999997,285580.717,288516.859,8,400,,,
trial,html.Screen,4_82_0,2023-11-02T14:52:39.277Z,,0,2,,3812.6410000000033,response,ISIC_0951519.JPG,6,ISIC_7565128.JPG,ISIC_7565128.JPG,false,0,keypress(z),500,292329.60000000894,292329.5,288500.199,288504.60000000894,288516.859,292337.372,8,400,33,,ISIC_0951519.JPG
break,html.Screen,4_82_1,2023-11-02T14:52:39.278Z,,0,,,NaN,,,,,,false,,,,292329.90000000596,292329.799999997,,292329.700000003,,292337.372,8,400,,,
break_continue,html.Screen,4_82_2,2023-11-02T14:52:39.278Z,,0,,,NaN,,,,,,false,,,,292330,292329.90000000596,,292329.90000000596,,292337.372,8,400,,,
sequence,flow.Sequence,4_82,2023-11-02T14:52:39.278Z,,0,,,3813.0410000059637,completion,,,,,false,,,,292330.10000000894,292329.90000000596,288500.199,288504.60000000894,288516.859,292337.372,8,400,,,
trial,html.Screen,4_83_0,2023-11-02T14:52:41.808Z,,0,2,,2522.427999997046,response,ISIC_6511689.JPG,5,ISIC_3837132.JPG,ISIC_3837132.JPG,false,0,keypress(z),500,294859.90000000596,294859.799999997,292320.677,292330.10000000894,292337.372,294873.227,8,400,34,,ISIC_6511689.JPG
break,html.Screen,4_83_1,2023-11-02T14:52:41.808Z,,0,,,NaN,,,,,,false,,,,294860.10000000894,294860.10000000894,,294860,,294873.227,8,400,,,
break_continue,html.Screen,4_83_2,2023-11-02T14:52:41.808Z,,0,,,NaN,,,,,,false,,,,294860.299999997,294860.200000003,,294860.10000000894,,294873.227,8,400,,,
sequence,flow.Sequence,4_83,2023-11-02T14:52:41.808Z,,0,,,2522.8280000030063,completion,,,,,false,,,,294860.299999997,294860.200000003,292320.677,292330.10000000894,292337.372,294873.227,8,400,,,
trial,html.Screen,4_84_0,2023-11-02T14:52:44.882Z,,0,2,,3061.373000008927,response,ISIC_0069432.JPG,6,ISIC_0025409.JPG,ISIC_0069432.JPG,false,1,keypress(m),500,297934.700000003,297934.60000000894,294856.557,294860.299999997,294873.227,297942.96,8,400,35,,ISIC_0025409.JPG
break,html.Screen,4_84_1,2023-11-02T14:52:44.883Z,,0,,,NaN,,,,,,false,,,,297935,297934.90000000596,,297934.799999997,,297942.96,8,400,,,
break_continue,html.Screen,4_84_2,2023-11-02T14:52:44.883Z,,0,,,NaN,,,,,,false,,,,297935.200000003,297935.10000000894,,297935,,297942.96,8,400,,,
sequence,flow.Sequence,4_84,2023-11-02T14:52:44.883Z,,0,,,3061.873000008927,completion,,,,,false,,,,297935.200000003,297935.10000000894,294856.557,294860.299999997,294873.227,297942.96,8,400,,,
trial,html.Screen,4_85_0,2023-11-02T14:52:47.893Z,,0,2,,3002.339999996999,response,ISIC_0501843.JPG,6,ISIC_0066992.JPG,ISIC_0066992.JPG,false,0,keypress(z),500,300945.5,300945.299999997,297926.231,297935.299999997,297942.96,300962.62,8,400,36,,ISIC_0501843.JPG
break,html.Screen,4_85_1,2023-11-02T14:52:47.894Z,,0,,,NaN,,,,,,false,,,,300945.90000000596,300945.799999997,,300945.700000003,,300962.62,8,400,,,
break_continue,html.Screen,4_85_2,2023-11-02T14:52:47.894Z,,0,,,NaN,,,,,,false,,,,300946.10000000894,300946.10000000894,,300946,,300962.62,8,400,,,
sequence,flow.Sequence,4_85,2023-11-02T14:52:47.894Z,,0,,,3003.1400000089197,completion,,,,,false,,,,300946.200000003,300946.10000000894,297926.231,297935.299999997,297942.96,300962.62,8,400,,,
trial,html.Screen,4_86_0,2023-11-02T14:52:49.975Z,,0,2,,2065.080000002985,response,ISIC_0010618.JPG,6,ISIC_6345354.JPG,ISIC_6345354.JPG,false,0,keypress(z),500,303027.799999997,303027.700000003,300929.3,300946.299999997,300962.62,303031.402,8,400,37,,ISIC_0010618.JPG
break,html.Screen,4_86_1,2023-11-02T14:52:49.976Z,,0,,,NaN,,,,,,false,,,,303028,303028,,303027.799999997,,303031.402,8,400,,,
break_continue,html.Screen,4_86_2,2023-11-02T14:52:49.976Z,,0,,,NaN,,,,,,false,,,,303028.200000003,303028.10000000894,,303028.10000000894,,303031.402,8,400,,,
sequence,flow.Sequence,4_86,2023-11-02T14:52:49.976Z,,0,,,2065.4800000089454,completion,,,,,false,,,,303028.299999997,303028.10000000894,300929.3,300946.200000003,300962.62,303031.402,8,400,,,
trial,html.Screen,4_87_0,2023-11-02T14:52:52.906Z,,0,2,,2926.198000008939,response,ISIC_0437978.JPG,6,ISIC_0069633.JPG,ISIC_0437978.JPG,false,1,keypress(m),500,305957.700000003,305957.60000000894,303014.689,303028.299999997,303031.402,305967.6,8,400,38,,ISIC_0069633.JPG
break,html.Screen,4_87_1,2023-11-02T14:52:52.906Z,,0,,,NaN,,,,,,false,,,,305958,305957.90000000596,,305957.799999997,,305967.6,8,400,,,
break_continue,html.Screen,4_87_2,2023-11-02T14:52:52.906Z,,0,,,NaN,,,,,,false,,,,305958,305958,,305958,,305967.6,8,400,,,
sequence,flow.Sequence,4_87,2023-11-02T14:52:52.907Z,,0,,,2926.597999999998,completion,,,,,false,,,,305958.10000000894,305958,303014.689,303028.299999997,303031.402,305967.6,8,400,,,
trial,html.Screen,4_88_0,2023-11-02T14:52:55.597Z,,0,2,,2680.699999997043,response,ISIC_5922931.JPG,5,ISIC_2577938.JPG,ISIC_2577938.JPG,false,0,keypress(z),500,308648.40000000596,308648.299999997,305950.954,305958.200000003,305967.6,308653.616,8,400,39,,ISIC_5922931.JPG
break,html.Screen,4_88_1,2023-11-02T14:52:55.597Z,,0,,,NaN,,,,,,false,,,,308648.700000003,308648.700000003,,308648.5,,308653.616,8,400,,,
break_continue,html.Screen,4_88_2,2023-11-02T14:52:55.597Z,,0,,,NaN,,,,,,false,,,,308648.90000000596,308648.90000000596,,308648.799999997,,308653.616,8,400,,,
sequence,flow.Sequence,4_88,2023-11-02T14:52:55.597Z,,0,,,2681.3000000059837,completion,,,,,false,,,,308649,308648.90000000596,305950.954,305958.200000003,305967.6,308653.616,8,400,,,
trial,html.Screen,4_89_0,2023-11-02T14:52:59.231Z,,0,2,,3629.0840000030003,response,ISIC_0563516.JPG,5,ISIC_0010024.JPG,ISIC_0010024.JPG,false,0,keypress(z),500,312282.700000003,312282.700000003,308636.952,308649,308653.616,312290.595,8,400,40,,ISIC_0563516.JPG
break,html.Screen,4_89_1,2023-11-02T14:52:59.231Z,,0,,,NaN,,,,,,false,,,,312283,312282.90000000596,,312282.799999997,,312290.595,8,400,,,
break_continue,html.Screen,4_89_2,2023-11-02T14:52:59.232Z,,0,,,NaN,,,,,,false,,,,312283.10000000894,312283.10000000894,,312283,,312290.595,8,400,,,
sequence,flow.Sequence,4_89,2023-11-02T14:52:59.232Z,,0,,,3629.4840000089607,completion,,,,,false,,,,312283.200000003,312283.10000000894,308636.952,308649,308653.616,312290.595,8,400,,,
trial,html.Screen,4_90_0,2023-11-02T14:53:02.817Z,,0,2,,3578.0050000089686,response,ISIC_5591622.JPG,5,ISIC_0033204.JPG,ISIC_0033204.JPG,false,0,keypress(z),500,315868.700000003,315868.60000000894,312273.91,312283.200000003,312290.595,315894.17,8,400,41,,ISIC_5591622.JPG
break,html.Screen,4_90_1,2023-11-02T14:53:02.817Z,,0,,,NaN,,,,,,false,,,,315868.90000000596,315868.90000000596,,315868.799999997,,315894.17,8,400,,,
break_continue,html.Screen,4_90_2,2023-11-02T14:53:02.817Z,,0,,,NaN,,,,,,false,,,,315869.10000000894,315869,,315869,,315894.17,8,400,,,
sequence,flow.Sequence,4_90,2023-11-02T14:53:02.818Z,,0,,,3578.405000000028,completion,,,,,false,,,,315869.200000003,315869,312273.91,312283.200000003,312290.595,315894.17,8,400,,,
trial,html.Screen,4_91_0,2023-11-02T14:53:05.748Z,,0,2,,2905.2300000059768,response,ISIC_0029078.JPG,5,ISIC_4164882.JPG,ISIC_4164882.JPG,false,0,keypress(z),500,318799.5,318799.40000000596,315877.464,315869.200000003,315894.17,318813.81,8,400,42,,ISIC_0029078.JPG
break,html.Screen,4_91_1,2023-11-02T14:53:05.748Z,,0,,,NaN,,,,,,false,,,,318799.799999997,318799.700000003,,318799.60000000894,,318813.81,8,400,,,
break_continue,html.Screen,4_91_2,2023-11-02T14:53:05.748Z,,0,,,NaN,,,,,,false,,,,318799.90000000596,318799.799999997,,318799.799999997,,318813.81,8,400,,,
sequence,flow.Sequence,4_91,2023-11-02T14:53:05.748Z,,0,,,2905.629999997036,completion,,,,,false,,,,318800,318799.799999997,315877.464,315869.200000003,315894.17,318813.81,8,400,,,
trial,html.Screen,4_92_0,2023-11-02T14:53:08.470Z,,0,2,,2707.989999997022,response,ISIC_0061085.JPG,5,ISIC_0005261.JPG,ISIC_0061085.JPG,false,1,keypress(m),500,321522,321521.799999997,318797.054,318800,318813.81,321533.148,8,400,43,,ISIC_0005261.JPG
break,html.Screen,4_92_1,2023-11-02T14:53:08.471Z,,0,,,NaN,,,,,,false,,,,321522.200000003,321522.10000000894,,321522,,321533.148,8,400,,,
break_continue,html.Screen,4_92_2,2023-11-02T14:53:08.471Z,,0,,,NaN,,,,,,false,,,,321522.299999997,321522.200000003,,321522.200000003,,321533.148,8,400,,,
sequence,flow.Sequence,4_92,2023-11-02T14:53:08.471Z,,0,,,2708.3900000029826,completion,,,,,false,,,,321522.40000000596,321522.200000003,318797.054,318800,318813.81,321533.148,8,400,,,
trial,html.Screen,4_93_0,2023-11-02T14:53:11.288Z,,0,2,,2806.8520000000135,response,ISIC_8135400.JPG,5,ISIC_9989485.JPG,ISIC_8135400.JPG,false,1,keypress(m),500,324340,324340,321516.479,321522.40000000596,321533.148,324352.627,8,400,44,,ISIC_9989485.JPG
break,html.Screen,4_93_1,2023-11-02T14:53:11.289Z,,0,,,NaN,,,,,,false,,,,324340.299999997,324340.299999997,,324340.10000000894,,324352.627,8,400,,,
break_continue,html.Screen,4_93_2,2023-11-02T14:53:11.289Z,,0,,,NaN,,,,,,false,,,,324340.40000000596,324340.299999997,,324340.299999997,,324352.627,8,400,,,
sequence,flow.Sequence,4_93,2023-11-02T14:53:11.289Z,,0,,,2807.1519999970333,completion,,,,,false,,,,324340.40000000596,324340.299999997,321516.479,321522.40000000596,321533.148,324352.627,8,400,,,
trial,html.Screen,4_94_0,2023-11-02T14:53:14.859Z,,0,2,,3557.473000008962,response,ISIC_0034012.JPG,5,ISIC_0054792.JPG,ISIC_0034012.JPG,false,1,keypress(m),500,327910.299999997,327910.10000000894,324335.953,324340.40000000596,324352.627,327922.836,8,400,45,,ISIC_0054792.JPG
break,html.Screen,4_94_1,2023-11-02T14:53:14.859Z,,0,,,NaN,,,,,,false,,,,327910.90000000596,327910.60000000894,,327910.5,,327922.836,8,400,,,
break_continue,html.Screen,4_94_2,2023-11-02T14:53:14.860Z,,0,,,NaN,,,,,,false,,,,327911.10000000894,327911,,327910.90000000596,,327922.836,8,400,,,
sequence,flow.Sequence,4_94,2023-11-02T14:53:14.860Z,,0,,,3558.3730000000214,completion,,,,,false,,,,327911.200000003,327911,324335.953,324340.40000000596,324352.627,327922.836,8,400,,,
trial,html.Screen,4_95_0,2023-11-02T14:53:17.582Z,,0,2,,2710.6639999999898,response,ISIC_4237064.JPG,5,ISIC_0056572.JPG,ISIC_0056572.JPG,false,0,keypress(z),500,330633.60000000894,330633.5,327906.2,327911.200000003,327922.836,330642.241,8,400,46,,ISIC_4237064.JPG
break,html.Screen,4_95_1,2023-11-02T14:53:17.582Z,,0,,,NaN,,,,,,false,,,,330633.799999997,330633.799999997,,330633.60000000894,,330642.241,8,400,,,
break_continue,html.Screen,4_95_2,2023-11-02T14:53:17.582Z,,0,,,NaN,,,,,,false,,,,330634,330634,,330633.90000000596,,330642.241,8,400,,,
sequence,flow.Sequence,4_95,2023-11-02T14:53:17.582Z,,0,,,2711.1639999999898,completion,,,,,false,,,,330634.10000000894,330634,327906.2,327911.200000003,327922.836,330642.241,8,400,,,
trial,html.Screen,4_96_0,2023-11-02T14:53:20.993Z,,0,2,,3401.8590000089607,response,ISIC_0032473.JPG,5,ISIC_0010376.JPG,ISIC_0010376.JPG,false,0,keypress(z),500,334044.10000000894,334044.10000000894,330625.552,330634.10000000894,330642.241,334045.601,8,400,47,,ISIC_0032473.JPG
break,html.Screen,4_96_1,2023-11-02T14:53:20.993Z,,0,,,NaN,,,,,,false,,,,334044.40000000596,334044.40000000596,,334044.200000003,,334045.601,8,400,,,
break_continue,html.Screen,4_96_2,2023-11-02T14:53:20.993Z,,0,,,NaN,,,,,,false,,,,334044.5,334044.40000000596,,334044.40000000596,,334045.601,8,400,,,
sequence,flow.Sequence,4_96,2023-11-02T14:53:20.993Z,,0,,,3402.1590000059805,completion,,,,,false,,,,334044.5,334044.40000000596,330625.552,330634.10000000894,330642.241,334045.601,8,400,,,
trial,html.Screen,4_97_0,2023-11-02T14:53:23.907Z,,0,2,,2912.4990000089165,response,ISIC_0013572.JPG,5,ISIC_8147542.JPG,ISIC_0013572.JPG,false,1,keypress(m),500,336958.200000003,336958.10000000894,334028.951,334044.60000000894,334045.601,336965.173,8,400,48,,ISIC_8147542.JPG
break,html.Screen,4_97_1,2023-11-02T14:53:23.907Z,,0,,,NaN,,,,,,false,,,,336958.40000000596,336958.299999997,,336958.299999997,,336965.173,8,400,,,
break_continue,html.Screen,4_97_2,2023-11-02T14:53:23.907Z,,0,,,NaN,,,,,,false,,,,336958.5,336958.5,,336958.5,,336965.173,8,400,,,
sequence,flow.Sequence,4_97,2023-11-02T14:53:23.907Z,,0,,,2912.898999999976,completion,,,,,false,,,,336958.60000000894,336958.5,334028.951,334044.5,334045.601,336965.173,8,400,,,
trial,html.Screen,4_98_0,2023-11-02T14:53:27.397Z,,0,2,,3483.32699999999,response,ISIC_7287540.JPG,5,ISIC_0029459.JPG,ISIC_7287540.JPG,false,1,keypress(m),500,340448.60000000894,340448.5,336948.533,336958.60000000894,336965.173,340452.042,8,400,49,,ISIC_0029459.JPG
break,html.Screen,4_98_1,2023-11-02T14:53:27.397Z,,0,,,NaN,,,,,,false,,,,340448.90000000596,340448.799999997,,340448.700000003,,340452.042,8,400,,,
break_continue,html.Screen,4_98_2,2023-11-02T14:53:27.397Z,,0,,,NaN,,,,,,false,,,,340449.10000000894,340449,,340448.90000000596,,340452.042,8,400,,,
sequence,flow.Sequence,4_98,2023-11-02T14:53:27.397Z,,0,,,3483.82699999999,completion,,,,,false,,,,340449.10000000894,340449,336948.533,336958.60000000894,336965.173,340452.042,8,400,,,
trial,html.Screen,4_99_0,2023-11-02T14:53:31.511Z,,0,2,,4110.858000005945,response,ISIC_0025626.JPG,5,ISIC_0010017.JPG,ISIC_0025626.JPG,false,1,keypress(m),500,344563.10000000894,344562.90000000596,340435.357,340449.10000000894,340452.042,344572.771,8,400,50,,ISIC_0010017.JPG
break,html.Screen,4_99_1,2023-11-02T14:53:41.498Z,,0,,,9993.331000000006,timeout,,,,,false,,,,354549.90000000596,354549.409,344556.113,344563.200000003,344572.771,354566.102,8,400,,,
break_continue,html.Screen,4_99_2,2023-11-02T14:53:42.796Z,,0,,,1272.6979999970063,response,,,,,false,continue,keypress(Space),,355848,355838.799999997,354549.409,354550,354566.102,355850.704,8,400,,,
sequence,flow.Sequence,4_99,2023-11-02T14:53:42.797Z,,0,,,15386.757999997004,completion,,,,,false,,,,355848.10000000894,355838.799999997,340435.357,340449.10000000894,340452.042,355850.704,8,400,,,
trial,html.Screen,4_100_0,2023-11-02T14:53:46.367Z,,0,3,,3568.0959999969928,response,ISIC_9905633.JPG,6,ISIC_0001120.JPG,ISIC_0001120.JPG,false,0,keypress(z),500,359419,359418.799999997,355833.991,355848.200000003,355850.704,359420.919,8,400,1,,ISIC_9905633.JPG
break,html.Screen,4_100_1,2023-11-02T14:53:46.368Z,,0,,,NaN,,,,,,false,,,,359419.299999997,359419.200000003,,359419.10000000894,,359420.919,8,400,,,
break_continue,html.Screen,4_100_2,2023-11-02T14:53:46.368Z,,0,,,NaN,,,,,,false,,,,359419.5,359419.40000000596,,359419.40000000596,,359420.919,8,400,,,
sequence,flow.Sequence,4_100,2023-11-02T14:53:46.368Z,,0,,,3568.6960000059335,completion,,,,,false,,,,359419.5,359419.40000000596,355833.991,355848.200000003,355850.704,359420.919,8,400,,,
trial,html.Screen,4_101_0,2023-11-02T14:53:49.522Z,,0,3,,3152.5810000000056,response,ISIC_0026802.JPG,5,ISIC_3961647.JPG,ISIC_0026802.JPG,false,1,keypress(m),500,362573.60000000894,362573.5,359404.248,359419.5,359420.919,362591.402,8,400,2,,ISIC_3961647.JPG
break,html.Screen,4_101_1,2023-11-02T14:53:49.522Z,,0,,,NaN,,,,,,false,,,,362573.799999997,362573.700000003,,362573.60000000894,,362591.402,8,400,,,
break_continue,html.Screen,4_101_2,2023-11-02T14:53:49.522Z,,0,,,NaN,,,,,,false,,,,362573.90000000596,362573.90000000596,,362573.90000000596,,362591.402,8,400,,,
sequence,flow.Sequence,4_101,2023-11-02T14:53:49.522Z,,0,,,3152.981000005966,completion,,,,,false,,,,362574,362573.90000000596,359404.248,359419.5,359420.919,362591.402,8,400,,,
trial,html.Screen,4_102_0,2023-11-02T14:53:52.484Z,,0,3,,2944.4980000059586,response,ISIC_8618835.JPG,5,ISIC_5226353.JPG,ISIC_5226353.JPG,false,0,keypress(z),500,365536,365535.90000000596,362557.39,362574,362591.402,365543.677,8,400,3,,ISIC_8618835.JPG
break,html.Screen,4_102_1,2023-11-02T14:53:52.485Z,,0,,,NaN,,,,,,false,,,,365536.200000003,365536.10000000894,,365536.10000000894,,365543.677,8,400,,,
break_continue,html.Screen,4_102_2,2023-11-02T14:53:52.485Z,,0,,,NaN,,,,,,false,,,,365536.40000000596,365536.299999997,,365536.200000003,,365543.677,8,400,,,
sequence,flow.Sequence,4_102,2023-11-02T14:53:52.485Z,,0,,,2944.897999997018,completion,,,,,false,,,,365536.40000000596,365536.299999997,362557.39,362574,362591.402,365543.677,8,400,,,
trial,html.Screen,4_103_0,2023-11-02T14:53:55.975Z,,0,3,,3482.822999999975,response,ISIC_9483306.JPG,5,ISIC_7249063.JPG,ISIC_9483306.JPG,false,1,keypress(m),500,369026.5,369026.5,365527.033,365536.40000000596,365543.677,369030.641,8,400,4,,ISIC_7249063.JPG
break,html.Screen,4_103_1,2023-11-02T14:53:55.975Z,,0,,,NaN,,,,,,false,,,,369026.799999997,369026.700000003,,369026.60000000894,,369030.641,8,400,,,
break_continue,html.Screen,4_103_2,2023-11-02T14:53:55.975Z,,0,,,NaN,,,,,,false,,,,369027,369026.90000000596,,369026.799999997,,369030.641,8,400,,,
sequence,flow.Sequence,4_103,2023-11-02T14:53:55.975Z,,0,,,3483.2230000059353,completion,,,,,false,,,,369027,369026.90000000596,365527.033,365536.40000000596,365543.677,369030.641,8,400,,,
trial,html.Screen,4_104_0,2023-11-02T14:53:58.681Z,,0,3,,2702.259000005957,response,ISIC_0268187.JPG,6,ISIC_0029993.JPG,ISIC_0268187.JPG,false,1,keypress(m),500,371733,371732.90000000596,369013.839,369027.10000000894,369030.641,371749.893,8,400,5,,ISIC_0029993.JPG
break,html.Screen,4_104_1,2023-11-02T14:53:58.682Z,,0,,,NaN,,,,,,false,,,,371733.299999997,371733.299999997,,371733.10000000894,,371749.893,8,400,,,
break_continue,html.Screen,4_104_2,2023-11-02T14:53:58.682Z,,0,,,NaN,,,,,,false,,,,371733.40000000596,371733.40000000596,,371733.40000000596,,371749.893,8,400,,,
sequence,flow.Sequence,4_104,2023-11-02T14:53:58.682Z,,0,,,2702.759000005957,completion,,,,,false,,,,371733.5,371733.40000000596,369013.839,369027.10000000894,369030.641,371749.893,8,400,,,
trial,html.Screen,4_105_0,2023-11-02T14:54:01.612Z,,0,3,,2913.707000008959,response,ISIC_0032615.JPG,6,ISIC_5081382.JPG,ISIC_5081382.JPG,false,0,keypress(z),500,374663.60000000894,374663.60000000894,371733.223,371733.5,371749.893,374669.441,8,400,6,,ISIC_0032615.JPG
break,html.Screen,4_105_1,2023-11-02T14:54:01.612Z,,0,,,NaN,,,,,,false,,,,374663.90000000596,374663.799999997,,374663.799999997,,374669.441,8,400,,,
break_continue,html.Screen,4_105_2,2023-11-02T14:54:01.612Z,,0,,,NaN,,,,,,false,,,,374664,374664,,374663.90000000596,,374669.441,8,400,,,
sequence,flow.Sequence,4_105,2023-11-02T14:54:01.613Z,,0,,,2914.107000000018,completion,,,,,false,,,,374664,374664,371733.223,371733.5,371749.893,374669.441,8,400,,,
trial,html.Screen,4_106_0,2023-11-02T14:54:04.351Z,,0,3,,2732.959000005969,response,ISIC_5281762.JPG,5,ISIC_8527737.JPG,ISIC_5281762.JPG,false,1,keypress(m),500,377402.5,377402.40000000596,374652.769,374664.10000000894,374669.441,377405.523,8,400,7,,ISIC_8527737.JPG
break,html.Screen,4_106_1,2023-11-02T14:54:04.351Z,,0,,,NaN,,,,,,false,,,,377402.799999997,377402.799999997,,377402.5,,377405.523,8,400,,,
break_continue,html.Screen,4_106_2,2023-11-02T14:54:04.351Z,,0,,,NaN,,,,,,false,,,,377402.90000000596,377402.90000000596,,377402.90000000596,,377405.523,8,400,,,
sequence,flow.Sequence,4_106,2023-11-02T14:54:04.351Z,,0,,,2733.459000005969,completion,,,,,false,,,,377403,377402.90000000596,374652.769,374664.10000000894,374669.441,377405.523,8,400,,,
trial,html.Screen,4_107_0,2023-11-02T14:54:07.121Z,,0,3,,2767.2769999970333,response,ISIC_0033302.JPG,5,ISIC_3624318.JPG,ISIC_3624318.JPG,false,0,keypress(z),500,380172.90000000596,380172.799999997,377388.834,377403.10000000894,377405.523,380174.966,8,400,8,,ISIC_0033302.JPG
break,html.Screen,4_107_1,2023-11-02T14:54:07.122Z,,0,,,NaN,,,,,,false,,,,380173.200000003,380173.10000000894,,380172.90000000596,,380174.966,8,400,,,
break_continue,html.Screen,4_107_2,2023-11-02T14:54:07.122Z,,0,,,NaN,,,,,,false,,,,380173.299999997,380173.200000003,,380173.200000003,,380174.966,8,400,,,
sequence,flow.Sequence,4_107,2023-11-02T14:54:07.122Z,,0,,,2767.6770000029937,completion,,,,,false,,,,380173.299999997,380173.200000003,377388.834,377403,377405.523,380174.966,8,400,,,
trial,html.Screen,4_108_0,2023-11-02T14:54:09.652Z,,0,3,,2528.4340000059456,response,ISIC_1223849.JPG,5,ISIC_8759207.JPG,ISIC_1223849.JPG,false,1,keypress(m),500,382703.60000000894,382703.40000000596,380158.242,380173.40000000596,380174.966,382710.817,8,400,9,,ISIC_8759207.JPG
break,html.Screen,4_108_1,2023-11-02T14:54:09.652Z,,0,,,NaN,,,,,,false,,,,382703.799999997,382703.700000003,,382703.60000000894,,382710.817,8,400,,,
break_continue,html.Screen,4_108_2,2023-11-02T14:54:09.652Z,,0,,,NaN,,,,,,false,,,,382703.90000000596,382703.90000000596,,382703.799999997,,382710.817,8,400,,,
sequence,flow.Sequence,4_108,2023-11-02T14:54:09.652Z,,0,,,2528.9340000059456,completion,,,,,false,,,,382704,382703.90000000596,380158.242,380173.40000000596,380174.966,382710.817,8,400,,,
trial,html.Screen,4_109_0,2023-11-02T14:54:12.311Z,,0,3,,2651.28300000896,response,ISIC_7240424.JPG,5,ISIC_2948811.JPG,ISIC_7240424.JPG,false,1,keypress(m),500,385362.200000003,385362.10000000894,382694.156,382704,382710.817,385380.945,8,400,10,,ISIC_2948811.JPG
break,html.Screen,4_109_1,2023-11-02T14:54:12.311Z,,0,,,NaN,,,,,,false,,,,385362.5,385362.40000000596,,385362.299999997,,385380.945,8,400,,,
break_continue,html.Screen,4_109_2,2023-11-02T14:54:12.311Z,,0,,,NaN,,,,,,false,,,,385362.60000000894,385362.5,,385362.5,,385380.945,8,400,,,
sequence,flow.Sequence,4_109,2023-11-02T14:54:12.311Z,,0,,,2651.683000000019,completion,,,,,false,,,,385362.700000003,385362.5,382694.156,382704,382710.817,385380.945,8,400,,,
trial,html.Screen,4_110_0,2023-11-02T14:54:15.145Z,,0,3,,2815.7550000029732,response,ISIC_0072876.JPG,5,ISIC_0030829.JPG,ISIC_0072876.JPG,false,1,keypress(m),500,388196.799999997,388196.700000003,385346.816,385362.700000003,385380.945,388199.6,8,400,11,,ISIC_0030829.JPG
break,html.Screen,4_110_1,2023-11-02T14:54:15.146Z,,0,,,NaN,,,,,,false,,,,388197.10000000894,388196.90000000596,,388196.90000000596,,388199.6,8,400,,,
break_continue,html.Screen,4_110_2,2023-11-02T14:54:15.146Z,,0,,,NaN,,,,,,false,,,,388197.200000003,388197.200000003,,388197.10000000894,,388199.6,8,400,,,
sequence,flow.Sequence,4_110,2023-11-02T14:54:15.146Z,,0,,,2816.2550000029732,completion,,,,,false,,,,388197.200000003,388197.200000003,385346.816,385362.700000003,385380.945,388199.6,8,400,,,
trial,html.Screen,4_111_0,2023-11-02T14:54:17.756Z,,0,3,,2607.4000000000233,response,ISIC_0025145.JPG,6,ISIC_6119208.JPG,ISIC_0025145.JPG,false,1,keypress(m),500,390807,390807,388182.921,388197.299999997,388199.6,390819.259,8,400,12,,ISIC_6119208.JPG
break,html.Screen,4_111_1,2023-11-02T14:54:17.756Z,,0,,,NaN,,,,,,false,,,,390807.40000000596,390807.299999997,,390807.10000000894,,390819.259,8,400,,,
break_continue,html.Screen,4_111_2,2023-11-02T14:54:17.756Z,,0,,,NaN,,,,,,false,,,,390807.5,390807.40000000596,,390807.40000000596,,390819.259,8,400,,,
sequence,flow.Sequence,4_111,2023-11-02T14:54:17.756Z,,0,,,2607.8000000059837,completion,,,,,false,,,,390807.5,390807.40000000596,388182.921,388197.299999997,388199.6,390819.259,8,400,,,
trial,html.Screen,4_112_0,2023-11-02T14:54:20.494Z,,0,3,,2726.24099999998,response,ISIC_0011490.JPG,5,ISIC_3799267.JPG,ISIC_0011490.JPG,false,1,keypress(m),500,393545.60000000894,393545.5,390802.231,390807.5,390819.259,393554.996,8,400,13,,ISIC_3799267.JPG
break,html.Screen,4_112_1,2023-11-02T14:54:20.495Z,,0,,,NaN,,,,,,false,,,,393546.200000003,393546.10000000894,,393545.799999997,,393554.996,8,400,,,
break_continue,html.Screen,4_112_2,2023-11-02T14:54:20.495Z,,0,,,NaN,,,,,,false,,,,393546.5,393546.40000000596,,393546.40000000596,,393554.996,8,400,,,
sequence,flow.Sequence,4_112,2023-11-02T14:54:20.495Z,,0,,,2727.1410000059404,completion,,,,,false,,,,393546.5,393546.40000000596,390802.231,390807.5,390819.259,393554.996,8,400,,,
trial,html.Screen,4_113_0,2023-11-02T14:54:23.393Z,,0,3,,2889.104000008956,response,ISIC_3926305.JPG,4,ISIC_0033359.JPG,ISIC_0033359.JPG,false,0,keypress(z),500,396444.200000003,396444.10000000894,393538.316,393546.60000000894,393554.996,396458.239,8,400,14,,ISIC_3926305.JPG
break,html.Screen,4_113_1,2023-11-02T14:54:23.393Z,,0,,,NaN,,,,,,false,,,,396444.5,396444.40000000596,,396444.299999997,,396458.239,8,400,,,
break_continue,html.Screen,4_113_2,2023-11-02T14:54:23.393Z,,0,,,NaN,,,,,,false,,,,396444.700000003,396444.700000003,,396444.5,,396458.239,8,400,,,
sequence,flow.Sequence,4_113,2023-11-02T14:54:23.393Z,,0,,,2889.7040000029956,completion,,,,,false,,,,396444.700000003,396444.700000003,393538.316,393546.60000000894,393554.996,396458.239,8,400,,,
trial,html.Screen,4_114_0,2023-11-02T14:54:26.052Z,,0,3,,2644.5609999970184,response,ISIC_0057009.JPG,6,ISIC_1971254.JPG,ISIC_0057009.JPG,false,1,keypress(m),500,399103.10000000894,399102.799999997,396441.534,396444.799999997,396458.239,399110.507,8,400,15,,ISIC_1971254.JPG
break,html.Screen,4_114_1,2023-11-02T14:54:26.052Z,,0,,,NaN,,,,,,false,,,,399103.60000000894,399103.5,,399103.200000003,,399110.507,8,400,,,
break_continue,html.Screen,4_114_2,2023-11-02T14:54:26.052Z,,0,,,NaN,,,,,,false,,,,399103.799999997,399103.700000003,,399103.60000000894,,399110.507,8,400,,,
sequence,flow.Sequence,4_114,2023-11-02T14:54:26.052Z,,0,,,2645.461000002979,completion,,,,,false,,,,399103.799999997,399103.700000003,396441.534,396444.799999997,396458.239,399110.507,8,400,,,
trial,html.Screen,4_115_0,2023-11-02T14:54:28.726Z,,0,3,,2666.693000002997,response,ISIC_8708106.JPG,4,ISIC_3959570.JPG,ISIC_8708106.JPG,false,1,keypress(m),500,401777.60000000894,401777.200000003,399094.178,399103.799999997,399110.507,401779.878,8,400,16,,ISIC_3959570.JPG
break,html.Screen,4_115_1,2023-11-02T14:54:28.727Z,,0,,,NaN,,,,,,false,,,,401778.299999997,401778,,401777.700000003,,401779.878,8,400,,,
break_continue,html.Screen,4_115_2,2023-11-02T14:54:28.727Z,,0,,,NaN,,,,,,false,,,,401778.60000000894,401778.5,,401778.40000000596,,401779.878,8,400,,,
sequence,flow.Sequence,4_115,2023-11-02T14:54:28.727Z,,0,,,2667.9930000000168,completion,,,,,false,,,,401778.700000003,401778.5,399094.178,399103.799999997,399110.507,401779.878,8,400,,,
trial,html.Screen,4_116_0,2023-11-02T14:54:31.210Z,,0,3,,2481.2220000089146,response,ISIC_7755096.JPG,4,ISIC_3487151.JPG,ISIC_7755096.JPG,false,1,keypress(m),500,404261.200000003,404261.10000000894,401763.173,401778.799999997,401779.878,404265.734,8,400,17,,ISIC_3487151.JPG
break,html.Screen,4_116_1,2023-11-02T14:54:31.210Z,,0,,,NaN,,,,,,false,,,,404261.5,404261.40000000596,,404261.299999997,,404265.734,8,400,,,
break_continue,html.Screen,4_116_2,2023-11-02T14:54:31.210Z,,0,,,NaN,,,,,,false,,,,404261.799999997,404261.700000003,,404261.700000003,,404265.734,8,400,,,
sequence,flow.Sequence,4_116,2023-11-02T14:54:31.210Z,,0,,,2481.822000002954,completion,,,,,false,,,,404261.799999997,404261.700000003,401763.173,401778.799999997,401779.878,404265.734,8,400,,,
trial,html.Screen,4_117_0,2023-11-02T14:54:33.868Z,,0,3,,2654.065999997023,response,ISIC_0068628.JPG,4,ISIC_1850388.JPG,ISIC_0068628.JPG,false,1,keypress(m),500,406919.90000000596,406919.799999997,404248.977,404261.799999997,404265.734,406935.018,8,400,18,,ISIC_1850388.JPG
break,html.Screen,4_117_1,2023-11-02T14:54:33.869Z,,0,,,NaN,,,,,,false,,,,406920.299999997,406920.10000000894,,406920,,406935.018,8,400,,,
break_continue,html.Screen,4_117_2,2023-11-02T14:54:33.869Z,,0,,,NaN,,,,,,false,,,,406920.40000000596,406920.299999997,,406920.299999997,,406935.018,8,400,,,
sequence,flow.Sequence,4_117,2023-11-02T14:54:33.869Z,,0,,,2654.565999997023,completion,,,,,false,,,,406920.40000000596,406920.299999997,404248.977,404261.799999997,404265.734,406935.018,8,400,,,
trial,html.Screen,4_118_0,2023-11-02T14:54:36.655Z,,0,3,,2771.582000008959,response,ISIC_0001139.JPG,5,ISIC_4701900.JPG,ISIC_4701900.JPG,false,0,keypress(z),500,409706.700000003,409706.60000000894,406918.28,406920.5,406935.018,409721.106,8,400,19,,ISIC_0001139.JPG
break,html.Screen,4_118_1,2023-11-02T14:54:36.655Z,,0,,,NaN,,,,,,false,,,,409706.90000000596,409706.90000000596,,409706.799999997,,409721.106,8,400,,,
break_continue,html.Screen,4_118_2,2023-11-02T14:54:36.656Z,,0,,,NaN,,,,,,false,,,,409707.10000000894,409707,,409707,,409721.106,8,400,,,
sequence,flow.Sequence,4_118,2023-11-02T14:54:36.656Z,,0,,,2771.982000000018,completion,,,,,false,,,,409707.10000000894,409707,406918.28,406920.5,406935.018,409721.106,8,400,,,
trial,html.Screen,4_119_0,2023-11-02T14:54:40.370Z,,0,3,,3700.393999999971,response,ISIC_5602724.JPG,5,ISIC_0056677.JPG,ISIC_0056677.JPG,false,0,keypress(z),500,413421.60000000894,413421.5,409704.449,409707.200000003,409721.106,413424.79,8,400,20,,ISIC_5602724.JPG
break,html.Screen,4_119_1,2023-11-02T14:54:40.370Z,,0,,,NaN,,,,,,false,,,,413421.90000000596,413421.90000000596,,413421.60000000894,,413424.79,8,400,,,
break_continue,html.Screen,4_119_2,2023-11-02T14:54:40.371Z,,0,,,NaN,,,,,,false,,,,413422.10000000894,413422.10000000894,,413422,,413424.79,8,400,,,
sequence,flow.Sequence,4_119,2023-11-02T14:54:40.371Z,,0,,,3700.994000008912,completion,,,,,false,,,,413422.200000003,413422.10000000894,409704.449,409707.200000003,409721.106,413424.79,8,400,,,
trial,html.Screen,4_120_0,2023-11-02T14:54:43.477Z,,0,3,,3103.1100000059814,response,ISIC_0012298.JPG,6,ISIC_5457229.JPG,ISIC_5457229.JPG,false,0,keypress(z),500,416528,416527.90000000596,413408.156,413422.200000003,413424.79,416544.571,8,400,21,,ISIC_0012298.JPG
break,html.Screen,4_120_1,2023-11-02T14:54:43.477Z,,0,,,NaN,,,,,,false,,,,416528.40000000596,416528.200000003,,416528.10000000894,,416544.571,8,400,,,
break_continue,html.Screen,4_120_2,2023-11-02T14:54:43.477Z,,0,,,NaN,,,,,,false,,,,416528.5,416528.40000000596,,416528.40000000596,,416544.571,8,400,,,
sequence,flow.Sequence,4_120,2023-11-02T14:54:43.477Z,,0,,,3103.6100000059814,completion,,,,,false,,,,416528.5,416528.40000000596,413408.156,413422.200000003,413424.79,416544.571,8,400,,,
trial,html.Screen,4_121_0,2023-11-02T14:54:46.230Z,,0,3,,2736.7289999970235,response,ISIC_0001157.JPG,5,ISIC_2690597.JPG,ISIC_0001157.JPG,false,1,keypress(m),500,419281.40000000596,419281.299999997,416527.913,416528.60000000894,416544.571,419297.7,8,400,22,,ISIC_2690597.JPG
break,html.Screen,4_121_1,2023-11-02T14:54:46.230Z,,0,,,NaN,,,,,,false,,,,419281.799999997,419281.60000000894,,419281.5,,419297.7,8,400,,,
break_continue,html.Screen,4_121_2,2023-11-02T14:54:46.231Z,,0,,,NaN,,,,,,false,,,,419282,419281.90000000596,,419281.90000000596,,419297.7,8,400,,,
sequence,flow.Sequence,4_121,2023-11-02T14:54:46.231Z,,0,,,2737.329000005964,completion,,,,,false,,,,419282.10000000894,419281.90000000596,416527.913,416528.60000000894,416544.571,419297.7,8,400,,,
trial,html.Screen,4_122_0,2023-11-02T14:54:49.640Z,,0,3,,3393.7999999999884,response,ISIC_0029531.JPG,5,ISIC_5247560.JPG,ISIC_5247560.JPG,false,0,keypress(z),500,422691.60000000894,422691.5,419280.598,419282.10000000894,419297.7,422700.741,8,400,23,,ISIC_0029531.JPG
break,html.Screen,4_122_1,2023-11-02T14:54:49.640Z,,0,,,NaN,,,,,,false,,,,422691.799999997,422691.799999997,,422691.60000000894,,422700.741,8,400,,,
break_continue,html.Screen,4_122_2,2023-11-02T14:54:49.641Z,,0,,,NaN,,,,,,false,,,,422692.10000000894,422692,,422691.90000000596,,422700.741,8,400,,,
sequence,flow.Sequence,4_122,2023-11-02T14:54:49.641Z,,0,,,3394.2999999999884,completion,,,,,false,,,,422692.200000003,422692,419280.598,419282.10000000894,419297.7,422700.741,8,400,,,
trial,html.Screen,4_123_0,2023-11-02T14:54:52.282Z,,0,3,,2632.6590000059805,response,ISIC_0061454.JPG,5,ISIC_0033415.JPG,ISIC_0061454.JPG,false,1,keypress(m),500,425333.5,425333.40000000596,422684.053,422692.200000003,422700.741,425336.747,8,400,24,,ISIC_0033415.JPG
break,html.Screen,4_123_1,2023-11-02T14:54:52.282Z,,0,,,NaN,,,,,,false,,,,425333.799999997,425333.700000003,,425333.60000000894,,425336.747,8,400,,,
break_continue,html.Screen,4_123_2,2023-11-02T14:54:52.283Z,,0,,,NaN,,,,,,false,,,,425334.10000000894,425333.90000000596,,425333.90000000596,,425336.747,8,400,,,
sequence,flow.Sequence,4_123,2023-11-02T14:54:52.283Z,,0,,,2633.1590000059805,completion,,,,,false,,,,425334.200000003,425333.90000000596,422684.053,422692.200000003,422700.741,425336.747,8,400,,,
trial,html.Screen,4_124_0,2023-11-02T14:54:54.973Z,,0,3,,2687.353000008967,response,ISIC_0034192.JPG,5,ISIC_0071768.JPG,ISIC_0071768.JPG,false,0,keypress(z),500,428024.200000003,428024.10000000894,425320.025,425334.200000003,425336.747,428039.347,8,400,25,,ISIC_0034192.JPG
break,html.Screen,4_124_1,2023-11-02T14:54:54.973Z,,0,,,NaN,,,,,,false,,,,428024.5,428024.40000000596,,428024.299999997,,428039.347,8,400,,,
break_continue,html.Screen,4_124_2,2023-11-02T14:54:54.973Z,,0,,,NaN,,,,,,false,,,,428024.700000003,428024.60000000894,,428024.5,,428039.347,8,400,,,
sequence,flow.Sequence,4_124,2023-11-02T14:54:54.973Z,,0,,,2687.853000008967,completion,,,,,false,,,,428024.799999997,428024.60000000894,425320.025,425334.200000003,425336.747,428039.347,8,400,,,
trial,html.Screen,4_125_0,2023-11-02T14:54:57.807Z,,0,3,,2819.3530000029714,response,ISIC_0058040.JPG,4,ISIC_0027221.JPG,ISIC_0058040.JPG,false,1,keypress(m),500,430858.799999997,430858.700000003,428022.679,428024.799999997,428039.347,430875.518,8,400,26,,ISIC_0027221.JPG
break,html.Screen,4_125_1,2023-11-02T14:54:57.808Z,,0,,,NaN,,,,,,false,,,,430859.10000000894,430859,,430858.90000000596,,430875.518,8,400,,,
break_continue,html.Screen,4_125_2,2023-11-02T14:54:57.808Z,,0,,,NaN,,,,,,false,,,,430859.200000003,430859.10000000894,,430859.10000000894,,430875.518,8,400,,,
sequence,flow.Sequence,4_125,2023-11-02T14:54:57.808Z,,0,,,2819.753000008932,completion,,,,,false,,,,430859.299999997,430859.10000000894,428022.679,428024.799999997,428039.347,430875.518,8,400,,,
trial,html.Screen,4_126_0,2023-11-02T14:55:00.913Z,,0,3,,3088.8820000059786,response,ISIC_8406262.JPG,5,ISIC_6891226.JPG,ISIC_8406262.JPG,false,1,keypress(m),500,433964.40000000596,433964.40000000596,430858.825,430859.299999997,430875.518,433978.663,8,400,27,,ISIC_6891226.JPG
