sender,sender_type,sender_id,timestamp,meta,,blockNo,condition,duration,ended_on,img_left,img_reveal,img_right,loser,practice,response,response_action,selection_duration,time_commit,time_end,time_render,time_run,time_show,time_switch,total_blocks,total_trials,trialNo,url,winner
informed_consent,html.Screen,0,2023-09-16T17:22:32.730Z,"{""labjs_version"":""20.2.4"",""labjs_build"":{""flavor"":""production"",""commit"":""f5b4a49f956347addd546a832a3327688c2c0fef""},""location"":""https://run.pavlovia.org/MurrayBennett/melanoma-2afc/?participant=66791&platform=sona"",""userAgent"":""Mozilla/5.0 (Windows NT 10.0; Win64; x64) AppleWebKit/537.36 (KHTML, like Gecko) Chrome/116.0.0.0 Safari/537.36 Edg/116.0.1938.81"",""platform"":""Win32"",""language"":""en-US"",""locale"":""en-US"",""timeZone"":""America/Chicago"",""timezoneOffset"":300,""screen_width"":1536,""screen_height"":864,""scroll_width"":1488,""scroll_height"":660,""window_innerWidth"":1488,""window_innerHeight"":708,""devicePixelRatio"":1.25}",,,,10654.703,response,,,,,,consent,click button,,14587.199999988079,14585.5,3914.144,3927.899999976158,3930.797,14614.468,,,,"{""participant"":""66791"",""platform"":""sona""}",
Welcome,html.Screen,1,2023-09-16T17:23:32.679Z,,,,asymmetry,59916.83199998212,response,,,,,,continue,click button,,74533.19999998808,74531.29999998212,14581.25,14587.299999982119,14614.468,74549.22,,,,,
trial,html.Screen,2_0_0,2023-09-16T17:23:42.281Z,,0,0,,9584.679999976157,response,ISIC_6997061.JPG,,ISIC_0069348.JPG,ISIC_6997061.JPG,true,1,keypress(m),500,84134.59999999404,84133.89999997616,74515.88,74533.5,74549.22,84149.867,1,6,1,,ISIC_0069348.JPG
sequence,flow.Sequence,2_0,2023-09-16T17:23:42.281Z,,0,,,9584.679999976157,completion,,,,,true,,,,84135.29999998212,84133.89999997616,74515.88,74533.5,74549.22,84149.867,1,6,,,
trial,html.Screen,2_1_0,2023-09-16T17:23:52.586Z,,0,0,,10289.43299998212,response,ISIC_0009529.JPG,,ISIC_0057368.JPG,ISIC_0057368.JPG,true,0,keypress(z),500,94439.5,94439.29999998212,84132.655,84135.5,84149.867,94449.608,1,6,2,,ISIC_0009529.JPG
sequence,flow.Sequence,2_1,2023-09-16T17:23:52.586Z,,0,,,10289.43299998212,completion,,,,,true,,,,94439.69999998808,94439.29999998212,84132.655,84135.5,84149.867,94449.608,1,6,,,
trial,html.Screen,2_2_0,2023-09-16T17:24:04.081Z,,0,0,,11517.021000000008,timeout,ISIC_9758671.JPG,,ISIC_0064954.JPG,,true,,,500,105934.89999997616,105934.29999998212,94433.037,94439.79999998212,94449.608,105966.629,1,6,3,,
sequence,flow.Sequence,2_2,2023-09-16T17:24:04.081Z,,0,,,11484.691999982126,completion,,,,,true,,,,105935.39999997616,105934.29999998212,94433.037,94439.79999998212,94449.608,105966.629,1,6,,,
trial,html.Screen,2_3_0,2023-09-16T17:24:10.043Z,,0,0,,5930.270999976157,response,ISIC_0005785.JPG,,ISIC_0000080.JPG,ISIC_0005785.JPG,true,1,keypress(m),500,111897.19999998808,111896.89999997616,105949.894,105935.79999998212,105966.629,111900.015,1,6,4,,ISIC_0000080.JPG
sequence,flow.Sequence,2_3,2023-09-16T17:24:10.044Z,,0,,,5930.270999976157,completion,,,,,true,,,,111897.5,111896.89999997616,105949.894,105935.69999998808,105966.629,111900.015,1,6,,,
trial,html.Screen,2_4_0,2023-09-16T17:24:15.590Z,,0,0,,5542.884999976159,response,ISIC_7944028.JPG,,ISIC_5390060.JPG,ISIC_7944028.JPG,true,1,keypress(m),500,117443.69999998808,117442.89999997616,111883.289,111897.69999998808,111900.015,117450.106,1,6,5,,ISIC_5390060.JPG
sequence,flow.Sequence,2_4,2023-09-16T17:24:15.590Z,,0,,,5542.884999976159,completion,,,,,true,,,,117444.29999998212,117442.89999997616,111883.289,111897.59999999404,111900.015,117450.106,1,6,,,
trial,html.Screen,2_5_0,2023-09-16T17:24:20.443Z,,0,0,,4846.793999976158,response,ISIC_0010188.JPG,,ISIC_0794216.JPG,ISIC_0794216.JPG,true,0,keypress(z),500,122297.19999998808,122296.89999997616,117433.403,117444.59999999404,117450.106,122300.234,1,6,6,,ISIC_0010188.JPG
sequence,flow.Sequence,2_5,2023-09-16T17:24:20.444Z,,0,,,4846.793999976158,completion,,,,,true,,,,122297.69999998808,122296.89999997616,117433.403,117444.5,117450.106,122300.234,1,6,,,
loop,flow.Loop,2,2023-09-16T17:24:20.444Z,,,,,47747.67999997616,completion,,,,,true,,,,122298.19999998808,122296.89999997616,74515.88,74533.39999997616,74549.22,122300.234,1,6,,,
exp_instructions,html.Screen,3,2023-09-16T17:24:26.254Z,,,,,5806.365999994043,response,,,,,,continue,keypress(Space),,128107.79999998212,128106.59999999404,122283.569,122298.29999998212,122300.234,128117,,,,,
trial,html.Screen,4_0_0,2023-09-16T17:24:32.902Z,,0,1,,6638.799999982119,response,ISIC_8704257.JPG,0,ISIC_6959281.JPG,ISIC_6959281.JPG,false,0,keypress(z),500,134756,134755.79999998212,128100.407,128108.19999998808,128117,134767.158,8,400,1,,ISIC_8704257.JPG
break,html.Screen,4_0_1,2023-09-16T17:24:32.903Z,,0,,,NaN,,,,,,false,,,,134756.79999998212,134756.5,,134756.19999998808,,134767.158,8,400,,,
break_continue,html.Screen,4_0_2,2023-09-16T17:24:32.903Z,,0,,,NaN,,,,,,false,,,,134757.19999998808,134757,,134756.89999997616,,134767.158,8,400,,,
sequence,flow.Sequence,4_0,2023-09-16T17:24:32.903Z,,0,,,6640,completion,,,,,false,,,,134757.39999997616,134757,128100.407,128108.09999999404,128117,134767.158,8,400,,,
trial,html.Screen,4_1_0,2023-09-16T17:24:36.957Z,,0,1,,4044.141999982123,response,ISIC_9041897.JPG,0,ISIC_0054317.JPG,ISIC_9041897.JPG,false,1,keypress(m),500,138811.59999999404,138811.29999998212,134750.589,134757.5,134767.158,138817.301,8,400,2,,ISIC_0054317.JPG
break,html.Screen,4_1_1,2023-09-16T17:24:36.959Z,,0,,,NaN,,,,,,false,,,,138813.19999998808,138812.59999999404,,138812,,138817.301,8,400,,,
break_continue,html.Screen,4_1_2,2023-09-16T17:24:36.960Z,,0,,,NaN,,,,,,false,,,,138813.79999998212,138813.59999999404,,138813.39999997616,,138817.301,8,400,,,
sequence,flow.Sequence,4_1,2023-09-16T17:24:36.960Z,,0,,,4046.4419999940437,completion,,,,,false,,,,138814.19999998808,138813.59999999404,134750.589,134757.5,134767.158,138817.301,8,400,,,
trial,html.Screen,4_2_0,2023-09-16T17:24:41.862Z,,0,1,,4898.398999988072,response,ISIC_0032526.JPG,10,ISIC_0026694.JPG,ISIC_0032526.JPG,false,1,keypress(m),500,143716,143715.69999998808,138800.685,138814.39999997616,138817.301,143734.128,8,400,3,,ISIC_0026694.JPG
break,html.Screen,4_2_1,2023-09-16T17:24:41.863Z,,0,,,NaN,,,,,,false,,,,143717.59999999404,143717.29999998212,,143717,,143734.128,8,400,,,
break_continue,html.Screen,4_2_2,2023-09-16T17:24:41.864Z,,0,,,NaN,,,,,,false,,,,143718,143717.79999998212,,143717.79999998212,,143734.128,8,400,,,
sequence,flow.Sequence,4_2,2023-09-16T17:24:41.864Z,,0,,,4900.498999982112,completion,,,,,false,,,,143718.19999998808,143717.79999998212,138800.685,138814.39999997616,138817.301,143734.128,8,400,,,
trial,html.Screen,4_3_0,2023-09-16T17:24:49.211Z,,0,1,,7330.872000000003,response,ISIC_8740331.JPG,1,ISIC_0069257.JPG,ISIC_0069257.JPG,false,0,keypress(z),500,151065.29999998212,151065,143717.422,143718.19999998808,143734.128,151067.624,8,400,4,,ISIC_8740331.JPG
break,html.Screen,4_3_1,2023-09-16T17:24:49.212Z,,0,,,NaN,,,,,,false,,,,151066.59999999404,151066.09999999404,,151065.59999999404,,151067.624,8,400,,,
break_continue,html.Screen,4_3_2,2023-09-16T17:24:49.213Z,,0,,,NaN,,,,,,false,,,,151067.09999999404,151067,,151066.69999998808,,151067.624,8,400,,,
sequence,flow.Sequence,4_3,2023-09-16T17:24:49.213Z,,0,,,7332.872000000003,completion,,,,,false,,,,151067.39999997616,151067,143717.422,143718.19999998808,143734.128,151067.624,8,400,,,
trial,html.Screen,4_4_0,2023-09-16T17:24:55.888Z,,0,1,,6674.575999988068,response,ISIC_0060660.JPG,12,ISIC_0028512.JPG,ISIC_0060660.JPG,false,1,keypress(m),500,157742.29999998212,157742.19999998808,151050.976,151067.5,151067.624,157751.014,8,400,5,,ISIC_0028512.JPG
break,html.Screen,4_4_1,2023-09-16T17:24:55.889Z,,0,,,NaN,,,,,,false,,,,157742.79999998212,157742.69999998808,,157742.39999997616,,157751.014,8,400,,,
break_continue,html.Screen,4_4_2,2023-09-16T17:24:55.889Z,,0,,,NaN,,,,,,false,,,,157743,157743,,157742.89999997616,,157751.014,8,400,,,
sequence,flow.Sequence,4_4,2023-09-16T17:24:55.889Z,,0,,,6675.375999999989,completion,,,,,false,,,,157743.09999999404,157743,151050.976,151067.39999997616,151067.624,157751.014,8,400,,,
trial,html.Screen,4_5_0,2023-09-16T17:25:00.921Z,,0,1,,5024.085999994044,response,ISIC_0011446.JPG,3,ISIC_0067830.JPG,ISIC_0067830.JPG,false,0,keypress(z),500,162775.59999999404,162775.09999999404,157734.434,157743.09999999404,157751.014,162784.526,8,400,6,,ISIC_0011446.JPG
break,html.Screen,4_5_1,2023-09-16T17:25:00.923Z,,0,,,NaN,,,,,,false,,,,162777.19999998808,162777,,162776.09999999404,,162784.526,8,400,,,
break_continue,html.Screen,4_5_2,2023-09-16T17:25:00.923Z,,0,,,NaN,,,,,,false,,,,162777.59999999404,162777.5,,162777.39999997616,,162784.526,8,400,,,
sequence,flow.Sequence,4_5,2023-09-16T17:25:00.924Z,,0,,,5026.486000000004,completion,,,,,false,,,,162777.79999998212,162777.5,157734.434,157743.09999999404,157751.014,162784.526,8,400,,,
trial,html.Screen,4_6_0,2023-09-16T17:25:04.991Z,,0,1,,4059.8739999761456,response,ISIC_0682543.JPG,8,ISIC_0072604.JPG,ISIC_0072604.JPG,false,0,keypress(z),500,166844.79999998212,166844.39999997616,162767.909,162777.89999997616,162784.526,166851.82,8,400,7,,ISIC_0682543.JPG
break,html.Screen,4_6_1,2023-09-16T17:25:04.992Z,,0,,,NaN,,,,,,false,,,,166846.09999999404,166845.59999999404,,166845.09999999404,,166851.82,8,400,,,
break_continue,html.Screen,4_6_2,2023-09-16T17:25:04.992Z,,0,,,NaN,,,,,,false,,,,166846.5,166846.39999997616,,166846.29999998212,,166851.82,8,400,,,
sequence,flow.Sequence,4_6,2023-09-16T17:25:04.993Z,,0,,,4061.8739999761456,completion,,,,,false,,,,166846.69999998808,166846.39999997616,162767.909,162777.89999997616,162784.526,166851.82,8,400,,,
trial,html.Screen,4_7_0,2023-09-16T17:25:12.268Z,,0,1,,7270.379999988072,response,ISIC_1814941.JPG,19,ISIC_0011128.JPG,ISIC_0011128.JPG,false,0,keypress(z),500,174122.29999998212,174122.19999998808,166834.747,166846.79999998212,166851.82,174134.817,8,400,8,,ISIC_1814941.JPG
break,html.Screen,4_7_1,2023-09-16T17:25:12.269Z,,0,,,NaN,,,,,,false,,,,174123,174122.79999998212,,174122.5,,174134.817,8,400,,,
break_continue,html.Screen,4_7_2,2023-09-16T17:25:12.269Z,,0,,,NaN,,,,,,false,,,,174123.29999998212,174123.19999998808,,174123.09999999404,,174134.817,8,400,,,
sequence,flow.Sequence,4_7,2023-09-16T17:25:12.269Z,,0,,,7271.379999988072,completion,,,,,false,,,,174123.39999997616,174123.19999998808,166834.747,166846.79999998212,166851.82,174134.817,8,400,,,
trial,html.Screen,4_8_0,2023-09-16T17:25:16.930Z,,0,1,,4649.18299999999,response,ISIC_0009880.JPG,3,ISIC_0062649.JPG,ISIC_0009880.JPG,false,1,keypress(m),500,178784.29999998212,178784,174118.217,174123.5,174134.817,178801.544,8,400,9,,ISIC_0062649.JPG
break,html.Screen,4_8_1,2023-09-16T17:25:16.932Z,,0,,,NaN,,,,,,false,,,,178786,178785.59999999404,,178784.69999998808,,178801.544,8,400,,,
break_continue,html.Screen,4_8_2,2023-09-16T17:25:16.933Z,,0,,,NaN,,,,,,false,,,,178786.59999999404,178786.5,,178786.39999997616,,178801.544,8,400,,,
sequence,flow.Sequence,4_8,2023-09-16T17:25:16.933Z,,0,,,4651.68299999999,completion,,,,,false,,,,178786.89999997616,178786.5,174118.217,174123.5,174134.817,178801.544,8,400,,,
trial,html.Screen,4_9_0,2023-09-16T17:25:21.139Z,,0,1,,4191.355999976164,response,ISIC_1194944.JPG,1,ISIC_7967108.JPG,ISIC_1194944.JPG,false,1,keypress(m),500,182993.19999998808,182992.89999997616,178784.925,178787.09999999404,178801.544,183001.652,8,400,10,,ISIC_7967108.JPG
break,html.Screen,4_9_1,2023-09-16T17:25:21.141Z,,0,,,NaN,,,,,,false,,,,182994.69999998808,182994.19999998808,,182993.59999999404,,183001.652,8,400,,,
break_continue,html.Screen,4_9_2,2023-09-16T17:25:21.141Z,,0,,,NaN,,,,,,false,,,,182995.09999999404,182995,,182994.79999998212,,183001.652,8,400,,,
sequence,flow.Sequence,4_9,2023-09-16T17:25:21.141Z,,0,,,4193.456000000006,completion,,,,,false,,,,182995.29999998212,182995,178784.925,178787.09999999404,178801.544,183001.652,8,400,,,
trial,html.Screen,4_10_0,2023-09-16T17:25:25.244Z,,0,1,,4096.047999988077,response,ISIC_0031077.JPG,0,ISIC_0024792.JPG,ISIC_0024792.JPG,false,0,keypress(z),500,187098,187097.69999998808,182984.989,182995.5,183001.652,187101.745,8,400,11,,ISIC_0031077.JPG
break,html.Screen,4_10_1,2023-09-16T17:25:25.245Z,,0,,,NaN,,,,,,false,,,,187099.09999999404,187098.69999998808,,187098.19999998808,,187101.745,8,400,,,
break_continue,html.Screen,4_10_2,2023-09-16T17:25:25.246Z,,0,,,NaN,,,,,,false,,,,187099.69999998808,187099.5,,187099.29999998212,,187101.745,8,400,,,
sequence,flow.Sequence,4_10,2023-09-16T17:25:25.246Z,,0,,,4097.847999999998,completion,,,,,false,,,,187099.89999997616,187099.5,182984.989,182995.5,183001.652,187101.745,8,400,,,
trial,html.Screen,4_11_0,2023-09-16T17:25:29.083Z,,0,1,,3835.154999976163,response,ISIC_0028534.JPG,22,ISIC_0026652.JPG,ISIC_0028534.JPG,false,1,keypress(m),500,190937.09999999404,190936.89999997616,187085.117,187100,187101.745,190951.928,8,400,12,,ISIC_0026652.JPG
break,html.Screen,4_11_1,2023-09-16T17:25:29.084Z,,0,,,NaN,,,,,,false,,,,190938.19999998808,190937.79999998212,,190937.29999998212,,190951.928,8,400,,,
break_continue,html.Screen,4_11_2,2023-09-16T17:25:29.085Z,,0,,,NaN,,,,,,false,,,,190938.69999998808,190938.59999999404,,190938.39999997616,,190951.928,8,400,,,
sequence,flow.Sequence,4_11,2023-09-16T17:25:29.085Z,,0,,,3836.854999994044,completion,,,,,false,,,,190938.89999997616,190938.59999999404,187085.117,187099.89999997616,187101.745,190951.928,8,400,,,
trial,html.Screen,4_12_0,2023-09-16T17:25:32.313Z,,0,1,,3214.2719999880646,response,ISIC_2680640.JPG,2,ISIC_0059808.JPG,ISIC_2680640.JPG,false,1,keypress(m),500,194166.59999999404,194166.19999998808,190935.281,190939,190951.928,194190.268,8,400,13,,ISIC_0059808.JPG
break,html.Screen,4_12_1,2023-09-16T17:25:32.314Z,,0,,,NaN,,,,,,false,,,,194167.89999997616,194167.39999997616,,194166.89999997616,,194190.268,8,400,,,
break_continue,html.Screen,4_12_2,2023-09-16T17:25:32.315Z,,0,,,NaN,,,,,,false,,,,194168.59999999404,194168.39999997616,,194168.09999999404,,194190.268,8,400,,,
sequence,flow.Sequence,4_12,2023-09-16T17:25:32.315Z,,0,,,3216.4719999761437,completion,,,,,false,,,,194168.79999998212,194168.39999997616,190935.281,190939,190951.928,194190.268,8,400,,,
trial,html.Screen,4_13_0,2023-09-16T17:25:36.156Z,,0,1,,3819.631999976147,response,ISIC_2843245.JPG,28,ISIC_0510617.JPG,ISIC_0510617.JPG,false,0,keypress(z),500,198010.19999998808,198009.89999997616,194152.048,194169,194190.268,198018.641,8,400,14,,ISIC_2843245.JPG
break,html.Screen,4_13_1,2023-09-16T17:25:36.157Z,,0,,,NaN,,,,,,false,,,,198011.19999998808,198010.89999997616,,198010.5,,198018.641,8,400,,,
break_continue,html.Screen,4_13_2,2023-09-16T17:25:36.158Z,,0,,,NaN,,,,,,false,,,,198011.5,198011.39999997616,,198011.39999997616,,198018.641,8,400,,,
sequence,flow.Sequence,4_13,2023-09-16T17:25:36.158Z,,0,,,3821.131999976147,completion,,,,,false,,,,198011.59999999404,198011.39999997616,194152.048,194169,194190.268,198018.641,8,400,,,
trial,html.Screen,4_14_0,2023-09-16T17:25:41.365Z,,0,1,,5200.358999999997,response,ISIC_0063617.JPG,10,ISIC_7354733.JPG,ISIC_0063617.JPG,false,1,keypress(m),500,203219.29999998212,203219,198001.98,198011.69999998808,198018.641,203235.446,8,400,15,,ISIC_7354733.JPG
break,html.Screen,4_14_1,2023-09-16T17:25:41.367Z,,0,,,NaN,,,,,,false,,,,203220.59999999404,203220.19999998808,,203219.59999999404,,203235.446,8,400,,,
break_continue,html.Screen,4_14_2,2023-09-16T17:25:41.367Z,,0,,,NaN,,,,,,false,,,,203221.09999999404,203220.89999997616,,203220.69999998808,,203235.446,8,400,,,
sequence,flow.Sequence,4_14,2023-09-16T17:25:41.367Z,,0,,,5202.258999976155,completion,,,,,false,,,,203221.19999998808,203220.89999997616,198001.98,198011.69999998808,198018.641,203235.446,8,400,,,
trial,html.Screen,4_15_0,2023-09-16T17:25:45.152Z,,0,1,,3770.1539999940433,response,ISIC_9048507.JPG,10,ISIC_1531204.JPG,ISIC_1531204.JPG,false,0,keypress(z),500,207005.89999997616,207005.59999999404,203218.87,203221.29999998212,203235.446,207018.934,8,400,16,,ISIC_9048507.JPG
break,html.Screen,4_15_1,2023-09-16T17:25:45.153Z,,0,,,NaN,,,,,,false,,,,207006.79999998212,207006.5,,207006.19999998808,,207018.934,8,400,,,
break_continue,html.Screen,4_15_2,2023-09-16T17:25:45.153Z,,0,,,NaN,,,,,,false,,,,207007.29999998212,207007.19999998808,,207007,,207018.934,8,400,,,
sequence,flow.Sequence,4_15,2023-09-16T17:25:45.154Z,,0,,,3771.753999988083,completion,,,,,false,,,,207007.39999997616,207007.19999998808,203218.87,203221.29999998212,203235.446,207018.934,8,400,,,
trial,html.Screen,4_16_0,2023-09-16T17:25:49.344Z,,0,1,,4179.065999999992,response,ISIC_7822725.JPG,6,ISIC_0003168.JPG,ISIC_0003168.JPG,false,0,keypress(z),500,211198.29999998212,211198,207002.236,207007.59999999404,207018.934,211202.381,8,400,17,,ISIC_7822725.JPG
break,html.Screen,4_16_1,2023-09-16T17:25:49.346Z,,0,,,NaN,,,,,,false,,,,211199.59999999404,211199.29999998212,,211198.5,,211202.381,8,400,,,
break_continue,html.Screen,4_16_2,2023-09-16T17:25:49.346Z,,0,,,NaN,,,,,,false,,,,211200,211199.79999998212,,211199.69999998808,,211202.381,8,400,,,
sequence,flow.Sequence,4_16,2023-09-16T17:25:49.346Z,,0,,,4180.86599998211,completion,,,,,false,,,,211200.09999999404,211199.79999998212,207002.236,207007.5,207018.934,211202.381,8,400,,,
trial,html.Screen,4_17_0,2023-09-16T17:25:52.802Z,,0,1,,3453.818999988085,response,ISIC_7873541.JPG,14,ISIC_0071388.JPG,ISIC_7873541.JPG,false,1,keypress(m),500,214656.39999997616,214656.19999998808,211185.792,211200.29999998212,211202.381,214669.066,8,400,18,,ISIC_0071388.JPG
break,html.Screen,4_17_1,2023-09-16T17:25:52.803Z,,0,,,NaN,,,,,,false,,,,214657,214656.89999997616,,214656.59999999404,,214669.066,8,400,,,
break_continue,html.Screen,4_17_2,2023-09-16T17:25:52.803Z,,0,,,NaN,,,,,,false,,,,214657.19999998808,214657.19999998808,,214657.09999999404,,214669.066,8,400,,,
sequence,flow.Sequence,4_17,2023-09-16T17:25:52.803Z,,0,,,3454.818999988085,completion,,,,,false,,,,214657.39999997616,214657.19999998808,211185.792,211200.19999998808,211202.381,214669.066,8,400,,,
trial,html.Screen,4_18_0,2023-09-16T17:25:56.406Z,,0,1,,3590.733999982127,response,ISIC_1072321.JPG,29,ISIC_4566439.JPG,ISIC_1072321.JPG,false,1,keypress(m),500,218260,218259.79999998212,214652.394,214657.5,214669.066,218269.374,8,400,19,,ISIC_4566439.JPG
break,html.Screen,4_18_1,2023-09-16T17:25:56.407Z,,0,,,NaN,,,,,,false,,,,218261,218260.69999998808,,218260.19999998808,,218269.374,8,400,,,
break_continue,html.Screen,4_18_2,2023-09-16T17:25:56.408Z,,0,,,NaN,,,,,,false,,,,218261.59999999404,218261.39999997616,,218261.29999998212,,218269.374,8,400,,,
sequence,flow.Sequence,4_18,2023-09-16T17:25:56.408Z,,0,,,3592.3339999761665,completion,,,,,false,,,,218261.79999998212,218261.39999997616,214652.394,214657.5,214669.066,218269.374,8,400,,,
trial,html.Screen,4_19_0,2023-09-16T17:26:00.222Z,,0,1,,3806.225999994029,response,ISIC_0071559.JPG,11,ISIC_7783346.JPG,ISIC_0071559.JPG,false,1,keypress(m),500,222075.89999997616,222075.59999999404,218252.527,218261.89999997616,218269.374,222085.958,8,400,20,,ISIC_7783346.JPG
break,html.Screen,4_19_1,2023-09-16T17:26:00.223Z,,0,,,NaN,,,,,,false,,,,222077.29999998212,222076.79999998212,,222076.19999998808,,222085.958,8,400,,,
break_continue,html.Screen,4_19_2,2023-09-16T17:26:00.224Z,,0,,,NaN,,,,,,false,,,,222077.59999999404,222077.59999999404,,222077.39999997616,,222085.958,8,400,,,
sequence,flow.Sequence,4_19,2023-09-16T17:26:00.224Z,,0,,,3808.225999994029,completion,,,,,false,,,,222077.79999998212,222077.59999999404,218252.527,218261.79999998212,218269.374,222085.958,8,400,,,
trial,html.Screen,4_20_0,2023-09-16T17:26:03.106Z,,0,1,,2873.941999976145,response,ISIC_0028338.JPG,15,ISIC_4377208.JPG,ISIC_0028338.JPG,false,1,keypress(m),500,224960.19999998808,224959.89999997616,222069.348,222078,222085.958,224969.276,8,400,21,,ISIC_4377208.JPG
break,html.Screen,4_20_1,2023-09-16T17:26:03.108Z,,0,,,NaN,,,,,,false,,,,224961.69999998808,224961.09999999404,,224960.5,,224969.276,8,400,,,
break_continue,html.Screen,4_20_2,2023-09-16T17:26:03.108Z,,0,,,NaN,,,,,,false,,,,224962.29999998212,224962.19999998808,,224962,,224969.276,8,400,,,
sequence,flow.Sequence,4_20,2023-09-16T17:26:03.109Z,,0,,,2876.241999988066,completion,,,,,false,,,,224962.79999998212,224962.19999998808,222069.348,222077.89999997616,222085.958,224969.276,8,400,,,
trial,html.Screen,4_21_0,2023-09-16T17:26:06.732Z,,0,1,,3616.2239999999874,response,ISIC_5885403.JPG,5,ISIC_2494956.JPG,ISIC_2494956.JPG,false,0,keypress(z),500,228585.79999998212,228585.5,224952.668,224963.09999999404,224969.276,228602.757,8,400,22,,ISIC_5885403.JPG
break,html.Screen,4_21_1,2023-09-16T17:26:06.733Z,,0,,,NaN,,,,,,false,,,,228587.29999998212,228586.69999998808,,228586.19999998808,,228602.757,8,400,,,
break_continue,html.Screen,4_21_2,2023-09-16T17:26:06.734Z,,0,,,NaN,,,,,,false,,,,228587.89999997616,228587.69999998808,,228587.59999999404,,228602.757,8,400,,,
sequence,flow.Sequence,4_21,2023-09-16T17:26:06.734Z,,0,,,3618.4239999880665,completion,,,,,false,,,,228588.09999999404,228587.69999998808,224952.668,224962.89999997616,224969.276,228602.757,8,400,,,
trial,html.Screen,4_22_0,2023-09-16T17:26:11.062Z,,0,1,,4312.542999982106,response,ISIC_7368239.JPG,23,ISIC_0698821.JPG,ISIC_7368239.JPG,false,1,keypress(m),500,232915.59999999404,232915.29999998212,228586.044,228588.29999998212,228602.757,232919.561,8,400,23,,ISIC_0698821.JPG
break,html.Screen,4_22_1,2023-09-16T17:26:11.063Z,,0,,,NaN,,,,,,false,,,,232917.09999999404,232916.5,,232916,,232919.561,8,400,,,
break_continue,html.Screen,4_22_2,2023-09-16T17:26:11.064Z,,0,,,NaN,,,,,,false,,,,232917.69999998808,232917.39999997616,,232917.29999998212,,232919.561,8,400,,,
sequence,flow.Sequence,4_22,2023-09-16T17:26:11.064Z,,0,,,4314.642999976146,completion,,,,,false,,,,232917.79999998212,232917.39999997616,228586.044,228588.19999998808,228602.757,232919.561,8,400,,,
trial,html.Screen,4_23_0,2023-09-16T17:26:14.994Z,,0,1,,3927.638999988092,response,ISIC_2383335.JPG,4,ISIC_0028618.JPG,ISIC_0028618.JPG,false,0,keypress(z),500,236847.5,236847.19999998808,232902.857,232918,232919.561,236853.312,8,400,24,,ISIC_2383335.JPG
break,html.Screen,4_23_1,2023-09-16T17:26:14.995Z,,0,,,NaN,,,,,,false,,,,236848.69999998808,236848.39999997616,,236847.69999998808,,236853.312,8,400,,,
break_continue,html.Screen,4_23_2,2023-09-16T17:26:14.995Z,,0,,,NaN,,,,,,false,,,,236849.09999999404,236849,,236848.79999998212,,236853.312,8,400,,,
sequence,flow.Sequence,4_23,2023-09-16T17:26:14.995Z,,0,,,3929.439000000013,completion,,,,,false,,,,236849.19999998808,236849,232902.857,232917.89999997616,232919.561,236853.312,8,400,,,
trial,html.Screen,4_24_0,2023-09-16T17:26:24.649Z,,0,1,,9649.487999982113,response,ISIC_0010761.JPG,10,ISIC_0027901.JPG,ISIC_0010761.JPG,false,1,keypress(m),500,246503.19999998808,246502.79999998212,236836.266,236849.29999998212,236853.312,246519.856,8,400,25,,ISIC_0027901.JPG
break,html.Screen,4_24_1,2023-09-16T17:26:24.650Z,,0,,,NaN,,,,,,false,,,,246504.29999998212,246504.09999999404,,246503.59999999404,,246519.856,8,400,,,
break_continue,html.Screen,4_24_2,2023-09-16T17:26:24.651Z,,0,,,NaN,,,,,,false,,,,246504.79999998212,246504.69999998808,,246504.5,,246519.856,8,400,,,
sequence,flow.Sequence,4_24,2023-09-16T17:26:24.651Z,,0,,,9651.387999988074,completion,,,,,false,,,,246505.09999999404,246504.69999998808,236836.266,236849.29999998212,236853.312,246519.856,8,400,,,
trial,html.Screen,4_25_0,2023-09-16T17:26:28.569Z,,0,1,,3902.5439999761584,response,ISIC_0033149.JPG,8,ISIC_6688417.JPG,ISIC_6688417.JPG,false,0,keypress(z),500,250422.59999999404,250422.39999997616,246503.153,246505.19999998808,246519.856,250436.695,8,400,26,,ISIC_0033149.JPG
break,html.Screen,4_25_1,2023-09-16T17:26:28.569Z,,0,,,NaN,,,,,,false,,,,250423.29999998212,250423.09999999404,,250422.69999998808,,250436.695,8,400,,,
break_continue,html.Screen,4_25_2,2023-09-16T17:26:28.570Z,,0,,,NaN,,,,,,false,,,,250423.59999999404,250423.59999999404,,250423.5,,250436.695,8,400,,,
sequence,flow.Sequence,4_25,2023-09-16T17:26:28.570Z,,0,,,3903.7439999940398,completion,,,,,false,,,,250423.69999998808,250423.59999999404,246503.153,246505.19999998808,246519.856,250436.695,8,400,,,
trial,html.Screen,4_26_0,2023-09-16T17:26:31.800Z,,0,1,,3216.204999976151,response,ISIC_8689583.JPG,28,ISIC_0010860.JPG,ISIC_8689583.JPG,false,1,keypress(m),500,253653.59999999404,253652.89999997616,250419.98,250423.79999998212,250436.695,253670.048,8,400,27,,ISIC_0010860.JPG
break,html.Screen,4_26_1,2023-09-16T17:26:31.801Z,,0,,,NaN,,,,,,false,,,,253654.79999998212,253654.59999999404,,253653.79999998212,,253670.048,8,400,,,
break_continue,html.Screen,4_26_2,2023-09-16T17:26:31.801Z,,0,,,NaN,,,,,,false,,,,253655.09999999404,253655,,253655,,253670.048,8,400,,,
sequence,flow.Sequence,4_26,2023-09-16T17:26:31.801Z,,0,,,3218.304999999993,completion,,,,,false,,,,253655.29999998212,253655,250419.98,250423.79999998212,250436.695,253670.048,8,400,,,
trial,html.Screen,4_27_0,2023-09-16T17:26:35.750Z,,0,1,,3933.751999982109,response,ISIC_3777798.JPG,6,ISIC_0030296.JPG,ISIC_3777798.JPG,false,1,keypress(m),500,257604.09999999404,257603.79999998212,253653.349,253655.39999997616,253670.048,257620.16,8,400,28,,ISIC_0030296.JPG
break,html.Screen,4_27_1,2023-09-16T17:26:35.751Z,,0,,,NaN,,,,,,false,,,,257605.29999998212,257605.09999999404,,257604.29999998212,,257620.16,8,400,,,
break_continue,html.Screen,4_27_2,2023-09-16T17:26:35.752Z,,0,,,NaN,,,,,,false,,,,257605.59999999404,257605.5,,257605.29999998212,,257620.16,8,400,,,
sequence,flow.Sequence,4_27,2023-09-16T17:26:35.752Z,,0,,,3935.45199999999,completion,,,,,false,,,,257605.69999998808,257605.5,253653.349,253655.29999998212,253670.048,257620.16,8,400,,,
trial,html.Screen,4_28_0,2023-09-16T17:26:39.524Z,,0,1,,3757.639999982115,response,ISIC_4252285.JPG,14,ISIC_8145260.JPG,ISIC_4252285.JPG,false,1,keypress(m),500,261378.09999999404,261377.79999998212,257603.591,257605.79999998212,257620.16,261387.17,8,400,29,,ISIC_8145260.JPG
break,html.Screen,4_28_1,2023-09-16T17:26:39.525Z,,0,,,NaN,,,,,,false,,,,261379.19999998808,261378.89999997616,,261378.29999998212,,261387.17,8,400,,,
break_continue,html.Screen,4_28_2,2023-09-16T17:26:39.526Z,,0,,,NaN,,,,,,false,,,,261379.69999998808,261379.59999999404,,261379.39999997616,,261387.17,8,400,,,
sequence,flow.Sequence,4_28,2023-09-16T17:26:39.526Z,,0,,,3759.439999994036,completion,,,,,false,,,,261379.79999998212,261379.59999999404,257603.591,257605.79999998212,257620.16,261387.17,8,400,,,
trial,html.Screen,4_29_0,2023-09-16T17:26:44.320Z,,0,1,,4786.929999994027,response,ISIC_0072422.JPG,6,ISIC_0028484.JPG,ISIC_0028484.JPG,false,0,keypress(z),500,266174.2999999821,266174.09999999404,261370.115,261380,261387.17,266187.138,8,400,30,,ISIC_0072422.JPG
break,html.Screen,4_29_1,2023-09-16T17:26:44.321Z,,0,,,NaN,,,,,,false,,,,266175.1999999881,266174.89999997616,,266174.5,,266187.138,8,400,,,
break_continue,html.Screen,4_29_2,2023-09-16T17:26:44.322Z,,0,,,NaN,,,,,,false,,,,266175.6999999881,266175.5,,266175.39999997616,,266187.138,8,400,,,
sequence,flow.Sequence,4_29,2023-09-16T17:26:44.322Z,,0,,,4788.329999999987,completion,,,,,false,,,,266175.89999997616,266175.5,261370.115,261380,261387.17,266187.138,8,400,,,
trial,html.Screen,4_30_0,2023-09-16T17:26:48.118Z,,0,1,,3784.061999988102,response,ISIC_0060341.JPG,27,ISIC_5529924.JPG,ISIC_5529924.JPG,false,0,keypress(z),500,269971.5,269971.1999999881,266170.371,266176,266187.138,269987.058,8,400,31,,ISIC_0060341.JPG
break,html.Screen,4_30_1,2023-09-16T17:26:48.119Z,,0,,,NaN,,,,,,false,,,,269972.39999997616,269972.1999999881,,269971.6999999881,,269987.058,8,400,,,
break_continue,html.Screen,4_30_2,2023-09-16T17:26:48.119Z,,0,,,NaN,,,,,,false,,,,269972.89999997616,269972.7999999821,,269972.59999999404,,269987.058,8,400,,,
sequence,flow.Sequence,4_30,2023-09-16T17:26:48.119Z,,0,,,3785.6619999821414,completion,,,,,false,,,,269973.09999999404,269972.7999999821,266170.371,266176,266187.138,269987.058,8,400,,,
trial,html.Screen,4_31_0,2023-09-16T17:26:51.684Z,,0,1,,3550.341999976139,response,ISIC_0011733.JPG,13,ISIC_8775014.JPG,ISIC_8775014.JPG,false,0,keypress(z),500,273537.59999999404,273537.39999997616,269970.611,269973.1999999881,269987.058,273553.741,8,400,32,,ISIC_0011733.JPG
break,html.Screen,4_31_1,2023-09-16T17:26:51.684Z,,0,,,NaN,,,,,,false,,,,273538.2999999821,273538.09999999404,,273537.7999999821,,273553.741,8,400,,,
break_continue,html.Screen,4_31_2,2023-09-16T17:26:51.685Z,,0,,,NaN,,,,,,false,,,,273538.59999999404,273538.5,,273538.39999997616,,273553.741,8,400,,,
sequence,flow.Sequence,4_31,2023-09-16T17:26:51.685Z,,0,,,3551.441999999981,completion,,,,,false,,,,273538.59999999404,273538.5,269970.611,269973.09999999404,269987.058,273553.741,8,400,,,
trial,html.Screen,4_32_0,2023-09-16T17:26:54.967Z,,0,1,,3267.25900000002,response,ISIC_0032630.JPG,7,ISIC_4148086.JPG,ISIC_4148086.JPG,false,0,keypress(z),500,276821.2999999821,276821,273536.944,273538.6999999881,273553.741,276837.232,8,400,33,,ISIC_0032630.JPG
break,html.Screen,4_32_1,2023-09-16T17:26:54.968Z,,0,,,NaN,,,,,,false,,,,276822,276821.7999999821,,276821.39999997616,,276837.232,8,400,,,
break_continue,html.Screen,4_32_2,2023-09-16T17:26:54.969Z,,0,,,NaN,,,,,,false,,,,276822.39999997616,276822.2999999821,,276822.1999999881,,276837.232,8,400,,,
sequence,flow.Sequence,4_32,2023-09-16T17:26:54.969Z,,0,,,3268.5589999821386,completion,,,,,false,,,,276822.5,276822.2999999821,273536.944,273538.6999999881,273553.741,276837.232,8,400,,,
trial,html.Screen,4_33_0,2023-09-16T17:26:58.526Z,,0,1,,3542.0679999821004,response,ISIC_0028366.JPG,15,ISIC_0000143.JPG,ISIC_0028366.JPG,false,1,keypress(m),500,280379.59999999404,280379.2999999821,276820.492,276822.59999999404,276837.232,280387.282,8,400,34,,ISIC_0000143.JPG
break,html.Screen,4_33_1,2023-09-16T17:26:58.526Z,,0,,,NaN,,,,,,false,,,,280380.2999999821,280380.2999999821,,280379.6999999881,,280387.282,8,400,,,
break_continue,html.Screen,4_33_2,2023-09-16T17:26:58.527Z,,0,,,NaN,,,,,,false,,,,280380.6999999881,280380.5,,280380.39999997616,,280387.282,8,400,,,
sequence,flow.Sequence,4_33,2023-09-16T17:26:58.527Z,,0,,,3543.267999999982,completion,,,,,false,,,,280380.7999999821,280380.5,276820.492,276822.59999999404,276837.232,280387.282,8,400,,,
trial,html.Screen,4_34_0,2023-09-16T17:27:04.143Z,,0,1,,5608.917999988073,response,ISIC_3009564.JPG,5,ISIC_6393611.JPG,ISIC_6393611.JPG,false,0,keypress(z),500,285996.39999997616,285996.1999999881,280370.555,280380.89999997616,280387.282,286004.04,8,400,35,,ISIC_3009564.JPG
break,html.Screen,4_34_1,2023-09-16T17:27:04.144Z,,0,,,NaN,,,,,,false,,,,285997.59999999404,285997.09999999404,,285996.6999999881,,286004.04,8,400,,,
break_continue,html.Screen,4_34_2,2023-09-16T17:27:04.144Z,,0,,,NaN,,,,,,false,,,,285998.09999999404,285997.89999997616,,285997.7999999821,,286004.04,8,400,,,
sequence,flow.Sequence,4_34,2023-09-16T17:27:04.144Z,,0,,,5610.617999976152,completion,,,,,false,,,,285998.39999997616,285997.89999997616,280370.555,280380.89999997616,280387.282,286004.04,8,400,,,
trial,html.Screen,4_35_0,2023-09-16T17:27:09.467Z,,0,1,,5317.0599999940605,response,ISIC_0000406.JPG,1,ISIC_0065796.JPG,ISIC_0065796.JPG,false,0,keypress(z),500,291321.2999999821,291321.09999999404,285987.417,285998.5,286004.04,291337.548,8,400,36,,ISIC_0000406.JPG
break,html.Screen,4_35_1,2023-09-16T17:27:09.468Z,,0,,,NaN,,,,,,false,,,,291322,291321.7999999821,,291321.5,,291337.548,8,400,,,
break_continue,html.Screen,4_35_2,2023-09-16T17:27:09.468Z,,0,,,NaN,,,,,,false,,,,291322.2999999821,291322.1999999881,,291322.1999999881,,291337.548,8,400,,,
sequence,flow.Sequence,4_35,2023-09-16T17:27:09.469Z,,0,,,5318.1599999881,completion,,,,,false,,,,291322.39999997616,291322.1999999881,285987.417,285998.39999997616,286004.04,291337.548,8,400,,,
trial,html.Screen,4_36_0,2023-09-16T17:27:17.026Z,,0,1,,7541.95199999999,response,ISIC_0068413.JPG,15,ISIC_2864893.JPG,ISIC_2864893.JPG,false,0,keypress(z),500,298879.7999999821,298879.5,291320.759,291322.5,291337.548,298887.788,8,400,37,,ISIC_0068413.JPG
break,html.Screen,4_36_1,2023-09-16T17:27:17.027Z,,0,,,NaN,,,,,,false,,,,298880.59999999404,298880.5,,298879.89999997616,,298887.788,8,400,,,
break_continue,html.Screen,4_36_2,2023-09-16T17:27:17.027Z,,0,,,NaN,,,,,,false,,,,298881,298880.89999997616,,298880.7999999821,,298887.788,8,400,,,
sequence,flow.Sequence,4_36,2023-09-16T17:27:17.027Z,,0,,,7543.351999976148,completion,,,,,false,,,,298881.1999999881,298880.89999997616,291320.759,291322.5,291337.548,298887.788,8,400,,,
trial,html.Screen,4_37_0,2023-09-16T17:27:21.167Z,,0,1,,4132.811999994039,response,ISIC_4610600.JPG,14,ISIC_6483504.JPG,ISIC_4610600.JPG,false,1,keypress(m),500,303020.7999999821,303020.59999999404,298871.242,298881.39999997616,298887.788,303037.918,8,400,38,,ISIC_6483504.JPG
break,html.Screen,4_37_1,2023-09-16T17:27:21.168Z,,0,,,NaN,,,,,,false,,,,303021.59999999404,303021.1999999881,,303020.89999997616,,303037.918,8,400,,,
break_continue,html.Screen,4_37_2,2023-09-16T17:27:21.168Z,,0,,,NaN,,,,,,false,,,,303022,303021.89999997616,,303021.6999999881,,303037.918,8,400,,,
sequence,flow.Sequence,4_37,2023-09-16T17:27:21.168Z,,0,,,4134.111999976158,completion,,,,,false,,,,303022,303021.89999997616,298871.242,298881.2999999821,298887.788,303037.918,8,400,,,
trial,html.Screen,4_38_0,2023-09-16T17:27:25.534Z,,0,1,,4349.781999988074,response,ISIC_7268804.JPG,22,ISIC_0327406.JPG,ISIC_7268804.JPG,false,1,keypress(m),500,307388,307387.6999999881,303021.103,303022.09999999404,303037.918,307405.286,8,400,39,,ISIC_0327406.JPG
break,html.Screen,4_38_1,2023-09-16T17:27:25.535Z,,0,,,NaN,,,,,,false,,,,307389,307388.7999999821,,307388.2999999821,,307405.286,8,400,,,
break_continue,html.Screen,4_38_2,2023-09-16T17:27:25.535Z,,0,,,NaN,,,,,,false,,,,307389.39999997616,307389.2999999821,,307389.09999999404,,307405.286,8,400,,,
sequence,flow.Sequence,4_38,2023-09-16T17:27:25.535Z,,0,,,4351.3819999821135,completion,,,,,false,,,,307389.39999997616,307389.2999999821,303021.103,303022.09999999404,303037.918,307405.286,8,400,,,
trial,html.Screen,4_39_0,2023-09-16T17:27:33.550Z,,0,1,,7998.313999994018,response,ISIC_7727830.JPG,6,ISIC_3826001.JPG,ISIC_7727830.JPG,false,1,keypress(m),500,315403.7999999821,315403.59999999404,307387.981,307389.39999997616,307405.286,315428.359,8,400,40,,ISIC_3826001.JPG
break,html.Screen,4_39_1,2023-09-16T17:27:33.551Z,,0,,,NaN,,,,,,false,,,,315405.1999999881,315405,,315404,,315428.359,8,400,,,
break_continue,html.Screen,4_39_2,2023-09-16T17:27:33.552Z,,0,,,NaN,,,,,,false,,,,315405.5,315405.39999997616,,315405.2999999821,,315428.359,8,400,,,
sequence,flow.Sequence,4_39,2023-09-16T17:27:33.552Z,,0,,,8000.113999976136,completion,,,,,false,,,,315405.6999999881,315405.39999997616,307387.981,307389.39999997616,307405.286,315428.359,8,400,,,
trial,html.Screen,4_40_0,2023-09-16T17:27:39.284Z,,0,1,,5709.240999994043,response,ISIC_5242216.JPG,5,ISIC_5964173.JPG,ISIC_5964173.JPG,false,0,keypress(z),500,321137.7999999821,321137.59999999404,315388.014,315405.7999999821,315428.359,321154.929,8,400,41,,ISIC_5242216.JPG
break,html.Screen,4_40_1,2023-09-16T17:27:39.285Z,,0,,,NaN,,,,,,false,,,,321138.5,321138.1999999881,,321137.89999997616,,321154.929,8,400,,,
break_continue,html.Screen,4_40_2,2023-09-16T17:27:39.285Z,,0,,,NaN,,,,,,false,,,,321138.7999999821,321138.7999999821,,321138.59999999404,,321154.929,8,400,,,
sequence,flow.Sequence,4_40,2023-09-16T17:27:39.285Z,,0,,,5710.440999982122,completion,,,,,false,,,,321139,321138.7999999821,315388.014,315405.6999999881,315428.359,321154.929,8,400,,,
trial,html.Screen,4_41_0,2023-09-16T17:27:42.924Z,,0,1,,3622.7709999880753,response,ISIC_0025766.JPG,6,ISIC_0059435.JPG,ISIC_0025766.JPG,false,1,keypress(m),500,324778,324777.6999999881,321138.158,321139.09999999404,321154.929,324788.354,8,400,42,,ISIC_0059435.JPG
break,html.Screen,4_41_1,2023-09-16T17:27:42.925Z,,0,,,NaN,,,,,,false,,,,324779.2999999821,324779.09999999404,,324778.39999997616,,324788.354,8,400,,,
break_continue,html.Screen,4_41_2,2023-09-16T17:27:42.926Z,,0,,,NaN,,,,,,false,,,,324779.6999999881,324779.5,,324779.39999997616,,324788.354,8,400,,,
sequence,flow.Sequence,4_41,2023-09-16T17:27:42.926Z,,0,,,3624.5709999999963,completion,,,,,false,,,,324779.7999999821,324779.5,321138.158,321139.09999999404,321154.929,324788.354,8,400,,,
trial,html.Screen,4_42_0,2023-09-16T17:27:48.249Z,,0,1,,5314.045999976166,response,ISIC_0002119.JPG,15,ISIC_0071492.JPG,ISIC_0002119.JPG,false,1,keypress(m),500,330102.59999999404,330102.39999997616,324771.643,324779.89999997616,324788.354,330105.119,8,400,43,,ISIC_0071492.JPG
break,html.Screen,4_42_1,2023-09-16T17:27:48.250Z,,0,,,NaN,,,,,,false,,,,330103.6999999881,330103.59999999404,,330102.89999997616,,330105.119,8,400,,,
break_continue,html.Screen,4_42_2,2023-09-16T17:27:48.250Z,,0,,,NaN,,,,,,false,,,,330104.09999999404,330104,,330103.7999999821,,330105.119,8,400,,,
sequence,flow.Sequence,4_42,2023-09-16T17:27:48.250Z,,0,,,5315.646000000008,completion,,,,,false,,,,330104.2999999821,330104,324771.643,324779.89999997616,324788.354,330105.119,8,400,,,
trial,html.Screen,4_43_0,2023-09-16T17:27:53.199Z,,0,1,,4947.780999976152,response,ISIC_0012107.JPG,6,ISIC_7380353.JPG,ISIC_7380353.JPG,false,0,keypress(z),500,335053.09999999404,335052.89999997616,330088.498,330104.5,330105.119,335055.221,8,400,44,,ISIC_0012107.JPG
break,html.Screen,4_43_1,2023-09-16T17:27:53.200Z,,0,,,NaN,,,,,,false,,,,335054.09999999404,335054,,335053.39999997616,,335055.221,8,400,,,
break_continue,html.Screen,4_43_2,2023-09-16T17:27:53.200Z,,0,,,NaN,,,,,,false,,,,335054.39999997616,335054.2999999821,,335054.1999999881,,335055.221,8,400,,,
sequence,flow.Sequence,4_43,2023-09-16T17:27:53.200Z,,0,,,4949.180999982113,completion,,,,,false,,,,335054.39999997616,335054.2999999821,330088.498,330104.39999997616,330105.119,335055.221,8,400,,,
trial,html.Screen,4_44_0,2023-09-16T17:27:56.932Z,,0,1,,3730.7789999999804,response,ISIC_0029089.JPG,15,ISIC_0032762.JPG,ISIC_0032762.JPG,false,0,keypress(z),500,338786.09999999404,338786,335038.544,335054.5,335055.221,338788.623,8,400,45,,ISIC_0029089.JPG
break,html.Screen,4_44_1,2023-09-16T17:27:56.933Z,,0,,,NaN,,,,,,false,,,,338786.7999999821,338786.6999999881,,338786.2999999821,,338788.623,8,400,,,
break_continue,html.Screen,4_44_2,2023-09-16T17:27:56.933Z,,0,,,NaN,,,,,,false,,,,338787,338786.89999997616,,338786.89999997616,,338788.623,8,400,,,
sequence,flow.Sequence,4_44,2023-09-16T17:27:56.933Z,,0,,,3731.6789999761386,completion,,,,,false,,,,338787.09999999404,338786.89999997616,335038.544,335054.5,335055.221,338788.623,8,400,,,
trial,html.Screen,4_45_0,2023-09-16T17:28:00.399Z,,0,1,,3464.3769999999786,response,ISIC_0025231.JPG,16,ISIC_0030003.JPG,ISIC_0030003.JPG,false,0,keypress(z),500,342253.2999999821,342253,338771.989,338787.09999999404,338788.623,342255.361,8,400,46,,ISIC_0025231.JPG
break,html.Screen,4_45_1,2023-09-16T17:28:00.400Z,,0,,,NaN,,,,,,false,,,,342253.89999997616,342253.89999997616,,342253.39999997616,,342255.361,8,400,,,
break_continue,html.Screen,4_45_2,2023-09-16T17:28:00.400Z,,0,,,NaN,,,,,,false,,,,342254.1999999881,342254.09999999404,,342254,,342255.361,8,400,,,
sequence,flow.Sequence,4_45,2023-09-16T17:28:00.400Z,,0,,,3465.476999994018,completion,,,,,false,,,,342254.1999999881,342254.09999999404,338771.989,338787.09999999404,338788.623,342255.361,8,400,,,
trial,html.Screen,4_46_0,2023-09-16T17:28:04.024Z,,0,1,,3622.538999976183,response,ISIC_4926448.JPG,6,ISIC_0226072.JPG,ISIC_4926448.JPG,false,1,keypress(m),500,345878.09999999404,345877.89999997616,342238.769,342254.2999999821,342255.361,345888.838,8,400,47,,ISIC_0226072.JPG
break,html.Screen,4_46_1,2023-09-16T17:28:04.025Z,,0,,,NaN,,,,,,false,,,,345878.59999999404,345878.5,,345878.1999999881,,345888.838,8,400,,,
break_continue,html.Screen,4_46_2,2023-09-16T17:28:04.025Z,,0,,,NaN,,,,,,false,,,,345879,345878.89999997616,,345878.7999999821,,345888.838,8,400,,,
sequence,flow.Sequence,4_46,2023-09-16T17:28:04.025Z,,0,,,3623.538999976183,completion,,,,,false,,,,345879.2999999821,345878.89999997616,342238.769,342254.1999999881,342255.361,345888.838,8,400,,,
trial,html.Screen,4_47_0,2023-09-16T17:28:07.899Z,,0,1,,3863.5619999761693,response,ISIC_4468129.JPG,24,ISIC_9256438.JPG,ISIC_9256438.JPG,false,0,keypress(z),500,349752.59999999404,349752.39999997616,345872.063,345879.39999997616,345888.838,349755.543,8,400,48,,ISIC_4468129.JPG
break,html.Screen,4_47_1,2023-09-16T17:28:07.900Z,,0,,,NaN,,,,,,false,,,,349753.59999999404,349753.1999999881,,349752.7999999821,,349755.543,8,400,,,
break_continue,html.Screen,4_47_2,2023-09-16T17:28:07.900Z,,0,,,NaN,,,,,,false,,,,349753.89999997616,349753.7999999821,,349753.7999999821,,349755.543,8,400,,,
sequence,flow.Sequence,4_47,2023-09-16T17:28:07.900Z,,0,,,3864.96199998213,completion,,,,,false,,,,349754,349753.7999999821,345872.063,345879.39999997616,345888.838,349755.543,8,400,,,
trial,html.Screen,4_48_0,2023-09-16T17:28:11.349Z,,0,1,,3447.156999988074,response,ISIC_0027277.JPG,15,ISIC_1558504.JPG,ISIC_0027277.JPG,false,1,keypress(m),500,353202.89999997616,353202.6999999881,349738.944,349754.09999999404,349755.543,353205.615,8,400,49,,ISIC_1558504.JPG
break,html.Screen,4_48_1,2023-09-16T17:28:11.350Z,,0,,,NaN,,,,,,false,,,,353204.09999999404,353204,,353203,,353205.615,8,400,,,
break_continue,html.Screen,4_48_2,2023-09-16T17:28:11.350Z,,0,,,NaN,,,,,,false,,,,353204.39999997616,353204.2999999821,,353204.1999999881,,353205.615,8,400,,,
sequence,flow.Sequence,4_48,2023-09-16T17:28:11.351Z,,0,,,3448.7569999821135,completion,,,,,false,,,,353204.5,353204.2999999821,349738.944,349754.09999999404,349755.543,353205.615,8,400,,,
trial,html.Screen,4_49_0,2023-09-16T17:28:15.742Z,,0,1,,4390.484999994049,response,ISIC_0025531.JPG,31,ISIC_3251486.JPG,ISIC_3251486.JPG,false,0,keypress(z),500,357596.1999999881,357596.09999999404,353188.994,353204.59999999404,353205.615,357605.861,8,400,50,,ISIC_0025531.JPG
break,html.Screen,4_49_1,2023-09-16T17:28:25.737Z,,0,,,10000.668000000005,timeout,,,,,false,,,,367591,367589.461,357589.074,357596.39999997616,357605.861,367606.529,8,400,,,
break_continue,html.Screen,4_49_2,2023-09-16T17:28:27.309Z,,0,,,1547.3709999761777,response,,,,,false,continue,keypress(Space),,369163.5,369153.89999997616,367589.461,367591.5,367606.529,369172.73,8,400,,,
sequence,flow.Sequence,4_49,2023-09-16T17:28:27.309Z,,0,,,15948.284999976167,completion,,,,,false,,,,369163.6999999881,369153.89999997616,353188.994,353204.59999999404,353205.615,369172.73,8,400,,,
trial,html.Screen,4_50_0,2023-09-16T17:28:31.674Z,,0,2,,4355.369999994058,response,ISIC_7604870.JPG,15,ISIC_2975580.JPG,ISIC_7604870.JPG,false,1,keypress(m),500,373528.39999997616,373528.09999999404,369156.359,369163.7999999821,369172.73,373539.49,8,400,1,,ISIC_2975580.JPG
break,html.Screen,4_50_1,2023-09-16T17:28:31.675Z,,0,,,NaN,,,,,,false,,,,373529.09999999404,373528.89999997616,,373528.59999999404,,373539.49,8,400,,,
break_continue,html.Screen,4_50_2,2023-09-16T17:28:31.675Z,,0,,,NaN,,,,,,false,,,,373529.2999999821,373529.2999999821,,373529.1999999881,,373539.49,8,400,,,
sequence,flow.Sequence,4_50,2023-09-16T17:28:31.675Z,,0,,,4356.569999982137,completion,,,,,false,,,,373529.39999997616,373529.2999999821,369156.359,369163.7999999821,369172.73,373539.49,8,400,,,
trial,html.Screen,4_51_0,2023-09-16T17:28:35.754Z,,0,2,,4068.4099999761675,response,ISIC_4102922.JPG,1,ISIC_3981425.JPG,ISIC_4102922.JPG,false,1,keypress(m),500,377608.1999999881,377607.89999997616,373522.783,373529.5,373539.49,377622.927,8,400,2,,ISIC_3981425.JPG
break,html.Screen,4_51_1,2023-09-16T17:28:35.755Z,,0,,,NaN,,,,,,false,,,,377608.6999999881,377608.59999999404,,377608.2999999821,,377622.927,8,400,,,
break_continue,html.Screen,4_51_2,2023-09-16T17:28:35.755Z,,0,,,NaN,,,,,,false,,,,377609.1999999881,377609,,377608.7999999821,,377622.927,8,400,,,
sequence,flow.Sequence,4_51,2023-09-16T17:28:35.755Z,,0,,,4069.5100000000093,completion,,,,,false,,,,377609.2999999821,377609,373522.783,373529.5,373539.49,377622.927,8,400,,,
trial,html.Screen,4_52_0,2023-09-16T17:28:41.419Z,,0,2,,5649.972999976133,response,ISIC_0568867.JPG,6,ISIC_7013005.JPG,ISIC_0568867.JPG,false,1,keypress(m),500,383273.2999999821,383272.89999997616,377606.394,377609.5,377622.927,383289.665,8,400,3,,ISIC_7013005.JPG
break,html.Screen,4_52_1,2023-09-16T17:28:41.420Z,,0,,,NaN,,,,,,false,,,,383274.39999997616,383274.2999999821,,383273.5,,383289.665,8,400,,,
break_continue,html.Screen,4_52_2,2023-09-16T17:28:41.421Z,,0,,,NaN,,,,,,false,,,,383274.7999999821,383274.59999999404,,383274.59999999404,,383289.665,8,400,,,
sequence,flow.Sequence,4_52,2023-09-16T17:28:41.421Z,,0,,,5651.672999994014,completion,,,,,false,,,,383275,383274.59999999404,377606.394,377609.5,377622.927,383289.665,8,400,,,
trial,html.Screen,4_53_0,2023-09-16T17:28:45.080Z,,0,2,,3644.4349999940605,response,ISIC_0031477.JPG,1,ISIC_0030575.JPG,ISIC_0031477.JPG,false,1,keypress(m),500,386934.2999999821,386934.09999999404,383272.982,383275.09999999404,383289.665,386939.831,8,400,4,,ISIC_0030575.JPG
break,html.Screen,4_53_1,2023-09-16T17:28:45.081Z,,0,,,NaN,,,,,,false,,,,386935.2999999821,386935.09999999404,,386934.39999997616,,386939.831,8,400,,,
break_continue,html.Screen,4_53_2,2023-09-16T17:28:45.081Z,,0,,,NaN,,,,,,false,,,,386935.59999999404,386935.5,,386935.2999999821,,386939.831,8,400,,,
sequence,flow.Sequence,4_53,2023-09-16T17:28:45.082Z,,0,,,3645.835000000021,completion,,,,,false,,,,386935.7999999821,386935.5,383272.982,383275.09999999404,383289.665,386939.831,8,400,,,
trial,html.Screen,4_54_0,2023-09-16T17:28:51.588Z,,0,2,,6502.568999976153,response,ISIC_0781380.JPG,17,ISIC_1461507.JPG,ISIC_1461507.JPG,false,0,keypress(z),500,393442.6999999881,393442.39999997616,386923.111,386935.89999997616,386939.831,393456.668,8,400,5,,ISIC_0781380.JPG
break,html.Screen,4_54_1,2023-09-16T17:28:51.590Z,,0,,,NaN,,,,,,false,,,,393444,393443.5,,393442.89999997616,,393456.668,8,400,,,
break_continue,html.Screen,4_54_2,2023-09-16T17:28:51.591Z,,0,,,NaN,,,,,,false,,,,393444.6999999881,393444.5,,393444.39999997616,,393456.668,8,400,,,
sequence,flow.Sequence,4_54,2023-09-16T17:28:51.591Z,,0,,,6504.668999999994,completion,,,,,false,,,,393445,393444.5,386923.111,386935.89999997616,386939.831,393456.668,8,400,,,
trial,html.Screen,4_55_0,2023-09-16T17:28:55.489Z,,0,2,,3885.831999999995,response,ISIC_0069373.JPG,2,ISIC_0060626.JPG,ISIC_0060626.JPG,false,0,keypress(z),500,397342.89999997616,397342.5,393439.977,393445,393456.668,397356.719,8,400,6,,ISIC_0069373.JPG
break,html.Screen,4_55_1,2023-09-16T17:28:55.490Z,,0,,,NaN,,,,,,false,,,,397344.39999997616,397344.1999999881,,397343.09999999404,,397356.719,8,400,,,
break_continue,html.Screen,4_55_2,2023-09-16T17:28:55.491Z,,0,,,NaN,,,,,,false,,,,397344.7999999821,397344.6999999881,,397344.5,,397356.719,8,400,,,
sequence,flow.Sequence,4_55,2023-09-16T17:28:55.491Z,,0,,,3888.031999988074,completion,,,,,false,,,,397344.89999997616,397344.6999999881,393439.977,393445,393456.668,397356.719,8,400,,,
trial,html.Screen,4_56_0,2023-09-16T17:28:59.395Z,,0,2,,3892.080999982136,response,ISIC_8350973.JPG,19,ISIC_0046659.JPG,ISIC_8350973.JPG,false,1,keypress(m),500,401249,401248.7999999821,397340.048,397345,397356.719,401256.828,8,400,7,,ISIC_0046659.JPG
break,html.Screen,4_56_1,2023-09-16T17:28:59.396Z,,0,,,NaN,,,,,,false,,,,401249.7999999821,401249.5,,401249.09999999404,,401256.828,8,400,,,
break_continue,html.Screen,4_56_2,2023-09-16T17:28:59.396Z,,0,,,NaN,,,,,,false,,,,401250.09999999404,401250.09999999404,,401249.89999997616,,401256.828,8,400,,,
sequence,flow.Sequence,4_56,2023-09-16T17:28:59.396Z,,0,,,3893.3809999940568,completion,,,,,false,,,,401250.39999997616,401250.09999999404,397340.048,397344.89999997616,397356.719,401256.828,8,400,,,
trial,html.Screen,4_57_0,2023-09-16T17:29:02.094Z,,0,2,,2690.971999982139,response,ISIC_2355513.JPG,14,ISIC_4834687.JPG,ISIC_4834687.JPG,false,0,keypress(z),500,403948,403947.7999999821,401240.214,401250.39999997616,401256.828,403956.834,8,400,8,,ISIC_2355513.JPG
break,html.Screen,4_57_1,2023-09-16T17:29:02.094Z,,0,,,NaN,,,,,,false,,,,403948.59999999404,403948.39999997616,,403948.09999999404,,403956.834,8,400,,,
break_continue,html.Screen,4_57_2,2023-09-16T17:29:02.095Z,,0,,,NaN,,,,,,false,,,,403948.89999997616,403948.6999999881,,403948.59999999404,,403956.834,8,400,,,
sequence,flow.Sequence,4_57,2023-09-16T17:29:02.095Z,,0,,,2691.8719999880996,completion,,,,,false,,,,403948.89999997616,403948.6999999881,401240.214,401250.39999997616,401256.828,403956.834,8,400,,,
trial,html.Screen,4_58_0,2023-09-16T17:29:05.893Z,,0,2,,3790.765999994066,response,ISIC_0012678.JPG,11,ISIC_0031079.JPG,ISIC_0012678.JPG,false,1,keypress(m),500,407747.7999999821,407747.59999999404,403940.032,403949,403956.834,407756.967,8,400,9,,ISIC_0031079.JPG
break,html.Screen,4_58_1,2023-09-16T17:29:05.894Z,,0,,,NaN,,,,,,false,,,,407748.5,407748.1999999881,,407747.7999999821,,407756.967,8,400,,,
break_continue,html.Screen,4_58_2,2023-09-16T17:29:05.894Z,,0,,,NaN,,,,,,false,,,,407748.6999999881,407748.6999999881,,407748.5,,407756.967,8,400,,,
sequence,flow.Sequence,4_58,2023-09-16T17:29:05.895Z,,0,,,3791.8659999881056,completion,,,,,false,,,,407748.6999999881,407748.6999999881,403940.032,403949,403956.834,407756.967,8,400,,,
trial,html.Screen,4_59_0,2023-09-16T17:29:09.129Z,,0,2,,3225.6329999940353,response,ISIC_0068677.JPG,6,ISIC_0014542.JPG,ISIC_0068677.JPG,false,1,keypress(m),500,410982.6999999881,410982.59999999404,407740.326,407748.7999999821,407756.967,410990.367,8,400,10,,ISIC_0014542.JPG
break,html.Screen,4_59_1,2023-09-16T17:29:09.129Z,,0,,,NaN,,,,,,false,,,,410983.39999997616,410983.2999999821,,410982.89999997616,,410990.367,8,400,,,
break_continue,html.Screen,4_59_2,2023-09-16T17:29:09.130Z,,0,,,NaN,,,,,,false,,,,410983.89999997616,410983.59999999404,,410983.5,,410990.367,8,400,,,
sequence,flow.Sequence,4_59,2023-09-16T17:29:09.130Z,,0,,,3226.6329999940353,completion,,,,,false,,,,410984.1999999881,410983.59999999404,407740.326,407748.6999999881,407756.967,410990.367,8,400,,,
trial,html.Screen,4_60_0,2023-09-16T17:29:12.490Z,,0,2,,3353.3329999880516,response,ISIC_4055833.JPG,29,ISIC_7062293.JPG,ISIC_4055833.JPG,false,1,keypress(m),500,414343.89999997616,414343.6999999881,410973.754,410984.39999997616,410990.367,414357.129,8,400,11,,ISIC_7062293.JPG
break,html.Screen,4_60_1,2023-09-16T17:29:12.490Z,,0,,,NaN,,,,,,false,,,,414344.5,414344.2999999821,,414344,,414357.129,8,400,,,
break_continue,html.Screen,4_60_2,2023-09-16T17:29:12.491Z,,0,,,NaN,,,,,,false,,,,414344.7999999821,414344.6999999881,,414344.59999999404,,414357.129,8,400,,,
sequence,flow.Sequence,4_60,2023-09-16T17:29:12.491Z,,0,,,3354.3329999880516,completion,,,,,false,,,,414344.89999997616,414344.6999999881,410973.754,410984.2999999821,410990.367,414357.129,8,400,,,
trial,html.Screen,4_61_0,2023-09-16T17:29:15.972Z,,0,2,,3469.0709999880637,response,ISIC_0033211.JPG,7,ISIC_5454766.JPG,ISIC_5454766.JPG,false,0,keypress(z),500,417826.59999999404,417826.1999999881,414340.3,414345,414357.129,417840.543,8,400,12,,ISIC_0033211.JPG
break,html.Screen,4_61_1,2023-09-16T17:29:15.973Z,,0,,,NaN,,,,,,false,,,,417827.6999999881,417827.39999997616,,417826.7999999821,,417840.543,8,400,,,
break_continue,html.Screen,4_61_2,2023-09-16T17:29:15.974Z,,0,,,NaN,,,,,,false,,,,417828.1999999881,417828.09999999404,,417827.89999997616,,417840.543,8,400,,,
sequence,flow.Sequence,4_61,2023-09-16T17:29:15.974Z,,0,,,3470.970999994024,completion,,,,,false,,,,417828.39999997616,417828.09999999404,414340.3,414345,414357.129,417840.543,8,400,,,
trial,html.Screen,4_62_0,2023-09-16T17:29:19.084Z,,0,2,,3097.5569999940344,response,ISIC_7766007.JPG,23,ISIC_6915759.JPG,ISIC_7766007.JPG,false,1,keypress(m),500,420938.5,420938.09999999404,417825.105,417828.5,417840.543,420957.257,8,400,13,,ISIC_6915759.JPG
break,html.Screen,4_62_1,2023-09-16T17:29:19.085Z,,0,,,NaN,,,,,,false,,,,420939.2999999821,420939,,420938.59999999404,,420957.257,8,400,,,
break_continue,html.Screen,4_62_2,2023-09-16T17:29:19.085Z,,0,,,NaN,,,,,,false,,,,420939.59999999404,420939.5,,420939.39999997616,,420957.257,8,400,,,
sequence,flow.Sequence,4_62,2023-09-16T17:29:19.085Z,,0,,,3098.956999999995,completion,,,,,false,,,,420939.6999999881,420939.5,417825.105,417828.39999997616,417840.543,420957.257,8,400,,,
trial,html.Screen,4_63_0,2023-09-16T17:29:22.327Z,,0,2,,3223.642999976175,response,ISIC_2349994.JPG,1,ISIC_1814941.JPG,ISIC_2349994.JPG,false,1,keypress(m),500,424181.1999999881,424180.89999997616,420940.628,420939.7999999821,420957.257,424190.671,8,400,14,,ISIC_1814941.JPG
break,html.Screen,4_63_1,2023-09-16T17:29:22.328Z,,0,,,NaN,,,,,,false,,,,424181.59999999404,424181.5,,424181.2999999821,,424190.671,8,400,,,
break_continue,html.Screen,4_63_2,2023-09-16T17:29:22.328Z,,0,,,NaN,,,,,,false,,,,424182,424181.6999999881,,424181.6999999881,,424190.671,8,400,,,
sequence,flow.Sequence,4_63,2023-09-16T17:29:22.328Z,,0,,,3224.442999988096,completion,,,,,false,,,,424182.09999999404,424181.6999999881,420940.628,420939.7999999821,420957.257,424190.671,8,400,,,
trial,html.Screen,4_64_0,2023-09-16T17:29:25.123Z,,0,2,,2785.728999976185,response,ISIC_4597707.JPG,21,ISIC_2758999.JPG,ISIC_2758999.JPG,false,0,keypress(z),500,426976.6999999881,426976.39999997616,424174.059,424182.1999999881,424190.671,426990.89,8,400,15,,ISIC_4597707.JPG
break,html.Screen,4_64_1,2023-09-16T17:29:25.124Z,,0,,,NaN,,,,,,false,,,,426977.6999999881,426977.2999999821,,426976.89999997616,,426990.89,8,400,,,
break_continue,html.Screen,4_64_2,2023-09-16T17:29:25.124Z,,0,,,NaN,,,,,,false,,,,426978.1999999881,426978,,426977.89999997616,,426990.89,8,400,,,
sequence,flow.Sequence,4_64,2023-09-16T17:29:25.124Z,,0,,,2787.329000000027,completion,,,,,false,,,,426978.2999999821,426978,424174.059,424182.1999999881,424190.671,426990.89,8,400,,,
trial,html.Screen,4_65_0,2023-09-16T17:29:27.764Z,,0,2,,2627.009999976144,response,ISIC_3649766.JPG,12,ISIC_3730327.JPG,ISIC_3730327.JPG,false,0,keypress(z),500,429618.09999999404,429617.89999997616,426974.206,426978.5,426990.89,429624.33,8,400,16,,ISIC_3649766.JPG
break,html.Screen,4_65_1,2023-09-16T17:29:27.765Z,,0,,,NaN,,,,,,false,,,,429618.7999999821,429618.59999999404,,429618.2999999821,,429624.33,8,400,,,
break_continue,html.Screen,4_65_2,2023-09-16T17:29:27.765Z,,0,,,NaN,,,,,,false,,,,429619.1999999881,429619.09999999404,,429619,,429624.33,8,400,,,
sequence,flow.Sequence,4_65,2023-09-16T17:29:27.765Z,,0,,,2628.2099999940256,completion,,,,,false,,,,429619.39999997616,429619.09999999404,426974.206,426978.5,426990.89,429624.33,8,400,,,
trial,html.Screen,4_66_0,2023-09-16T17:29:30.446Z,,0,2,,2675.369999988063,response,ISIC_1224329.JPG,13,ISIC_0000452.JPG,ISIC_1224329.JPG,false,1,keypress(m),500,432300,432299.6999999881,429607.523,429619.39999997616,429624.33,432307.977,8,400,17,,ISIC_0000452.JPG
break,html.Screen,4_66_1,2023-09-16T17:29:30.447Z,,0,,,NaN,,,,,,false,,,,432300.6999999881,432300.39999997616,,432300,,432307.977,8,400,,,
break_continue,html.Screen,4_66_2,2023-09-16T17:29:30.447Z,,0,,,NaN,,,,,,false,,,,432301.09999999404,432301,,432300.89999997616,,432307.977,8,400,,,
sequence,flow.Sequence,4_66,2023-09-16T17:29:30.447Z,,0,,,2676.6699999999837,completion,,,,,false,,,,432301.1999999881,432301,429607.523,429619.39999997616,429624.33,432307.977,8,400,,,
trial,html.Screen,4_67_0,2023-09-16T17:29:33.037Z,,0,2,,2583.0229999999865,response,ISIC_0059632.JPG,16,ISIC_3686329.JPG,ISIC_3686329.JPG,false,0,keypress(z),500,434891.1999999881,434891,432290.856,432301.2999999821,432307.977,434907.616,8,400,18,,ISIC_0059632.JPG
break,html.Screen,4_67_1,2023-09-16T17:29:33.039Z,,0,,,NaN,,,,,,false,,,,434892.59999999404,434892.39999997616,,434891.39999997616,,434907.616,8,400,,,
break_continue,html.Screen,4_67_2,2023-09-16T17:29:33.039Z,,0,,,NaN,,,,,,false,,,,434893.1999999881,434892.89999997616,,434892.6999999881,,434907.616,8,400,,,
sequence,flow.Sequence,4_67,2023-09-16T17:29:33.040Z,,0,,,2584.9229999761446,completion,,,,,false,,,,434894,434892.89999997616,432290.856,432301.2999999821,432307.977,434907.616,8,400,,,
trial,html.Screen,4_68_0,2023-09-16T17:29:36.112Z,,0,2,,3057.88400000002,response,ISIC_9401187.JPG,13,ISIC_3124612.JPG,ISIC_3124612.JPG,false,0,keypress(z),500,437965.6999999881,437965.5,434891.017,434894.09999999404,434907.616,437974.264,8,400,19,,ISIC_9401187.JPG
break,html.Screen,4_68_1,2023-09-16T17:29:36.112Z,,0,,,NaN,,,,,,false,,,,437966.39999997616,437966.09999999404,,437965.89999997616,,437974.264,8,400,,,
break_continue,html.Screen,4_68_2,2023-09-16T17:29:36.113Z,,0,,,NaN,,,,,,false,,,,437966.6999999881,437966.59999999404,,437966.59999999404,,437974.264,8,400,,,
sequence,flow.Sequence,4_68,2023-09-16T17:29:36.113Z,,0,,,3058.9839999940596,completion,,,,,false,,,,437966.7999999821,437966.59999999404,434891.017,434894.09999999404,434907.616,437974.264,8,400,,,
trial,html.Screen,4_69_0,2023-09-16T17:29:41.497Z,,0,2,,5376.435999988054,response,ISIC_0030006.JPG,6,ISIC_0025748.JPG,ISIC_0025748.JPG,false,0,keypress(z),500,443350.89999997616,443350.6999999881,437957.731,437966.89999997616,437974.264,443357.819,8,400,20,,ISIC_0030006.JPG
break,html.Screen,4_69_1,2023-09-16T17:29:41.497Z,,0,,,NaN,,,,,,false,,,,443351.39999997616,443351.1999999881,,443351,,443357.819,8,400,,,
break_continue,html.Screen,4_69_2,2023-09-16T17:29:41.498Z,,0,,,NaN,,,,,,false,,,,443351.6999999881,443351.6999999881,,443351.59999999404,,443357.819,8,400,,,
sequence,flow.Sequence,4_69,2023-09-16T17:29:41.498Z,,0,,,5377.435999988054,completion,,,,,false,,,,443351.7999999821,443351.6999999881,437957.731,437966.89999997616,437974.264,443357.819,8,400,,,
trial,html.Screen,4_70_0,2023-09-16T17:29:44.304Z,,0,2,,2800.480999982101,response,ISIC_1977315.JPG,7,ISIC_0057656.JPG,ISIC_1977315.JPG,false,1,keypress(m),500,446158.5,446158.2999999821,443341.122,443351.89999997616,443357.819,446174.501,8,400,21,,ISIC_0057656.JPG
break,html.Screen,4_70_1,2023-09-16T17:29:44.306Z,,0,,,NaN,,,,,,false,,,,446159.59999999404,446159.39999997616,,446158.6999999881,,446174.501,8,400,,,
break_continue,html.Screen,4_70_2,2023-09-16T17:29:44.306Z,,0,,,NaN,,,,,,false,,,,446160,446159.89999997616,,446159.7999999821,,446174.501,8,400,,,
sequence,flow.Sequence,4_70,2023-09-16T17:29:44.306Z,,0,,,2802.0809999761404,completion,,,,,false,,,,446160.1999999881,446159.89999997616,443341.122,443351.89999997616,443357.819,446174.501,8,400,,,
trial,html.Screen,4_71_0,2023-09-16T17:29:48.711Z,,0,2,,4390.298999982129,response,ISIC_0031784.JPG,11,ISIC_4443373.JPG,ISIC_4443373.JPG,false,0,keypress(z),500,450565.1999999881,450564.7999999821,446157.789,446160.2999999821,446174.501,450574.573,8,400,22,,ISIC_0031784.JPG
break,html.Screen,4_71_1,2023-09-16T17:29:48.712Z,,0,,,NaN,,,,,,false,,,,450565.89999997616,450565.7999999821,,450565.2999999821,,450574.573,8,400,,,
break_continue,html.Screen,4_71_2,2023-09-16T17:29:48.712Z,,0,,,NaN,,,,,,false,,,,450566.1999999881,450566.09999999404,,450566.09999999404,,450574.573,8,400,,,
sequence,flow.Sequence,4_71,2023-09-16T17:29:48.712Z,,0,,,4391.59899999405,completion,,,,,false,,,,450566.1999999881,450566.09999999404,446157.789,446160.1999999881,446174.501,450574.573,8,400,,,
trial,html.Screen,4_72_0,2023-09-16T17:29:51.455Z,,0,2,,2734.626999988104,response,ISIC_3837132.JPG,9,ISIC_0059836.JPG,ISIC_0059836.JPG,false,0,keypress(z),500,453309.39999997616,453309.1999999881,450558.02,450566.39999997616,450574.573,453341.445,8,400,23,,ISIC_3837132.JPG
break,html.Screen,4_72_1,2023-09-16T17:29:51.456Z,,0,,,NaN,,,,,,false,,,,453309.7999999821,453309.7999999821,,453309.59999999404,,453341.445,8,400,,,
break_continue,html.Screen,4_72_2,2023-09-16T17:29:51.456Z,,0,,,NaN,,,,,,false,,,,453310.09999999404,453310,,453309.89999997616,,453341.445,8,400,,,
sequence,flow.Sequence,4_72,2023-09-16T17:29:51.456Z,,0,,,2735.427000000025,completion,,,,,false,,,,453310.09999999404,453310,450558.02,450566.39999997616,450574.573,453341.445,8,400,,,
trial,html.Screen,4_73_0,2023-09-16T17:29:57.482Z,,0,2,,5993.954999976151,response,ISIC_0000368.JPG,5,ISIC_3198731.JPG,ISIC_3198731.JPG,false,0,keypress(z),500,459335.6999999881,459335.39999997616,453324.708,453310.2999999821,453341.445,459342.778,8,400,24,,ISIC_0000368.JPG
break,html.Screen,4_73_1,2023-09-16T17:29:57.483Z,,0,,,NaN,,,,,,false,,,,459336.6999999881,459336.39999997616,,459336,,459342.778,8,400,,,
break_continue,html.Screen,4_73_2,2023-09-16T17:29:57.483Z,,0,,,NaN,,,,,,false,,,,459336.89999997616,459336.89999997616,,459336.7999999821,,459342.778,8,400,,,
sequence,flow.Sequence,4_73,2023-09-16T17:29:57.483Z,,0,,,5995.454999976151,completion,,,,,false,,,,459337,459336.89999997616,453324.708,453310.1999999881,453341.445,459342.778,8,400,,,
trial,html.Screen,4_74_0,2023-09-16T17:30:02.941Z,,0,2,,5451.921999988088,response,ISIC_3416107.JPG,6,ISIC_3256887.JPG,ISIC_3416107.JPG,false,1,keypress(m),500,464795,464794.6999999881,459324.943,459337.09999999404,459342.778,464808.546,8,400,25,,ISIC_3256887.JPG
break,html.Screen,4_74_1,2023-09-16T17:30:02.942Z,,0,,,NaN,,,,,,false,,,,464795.5,464795.39999997616,,464795,,464808.546,8,400,,,
break_continue,html.Screen,4_74_2,2023-09-16T17:30:02.942Z,,0,,,NaN,,,,,,false,,,,464795.89999997616,464795.7999999821,,464795.6999999881,,464808.546,8,400,,,
sequence,flow.Sequence,4_74,2023-09-16T17:30:02.942Z,,0,,,5453.021999982127,completion,,,,,false,,,,464796,464795.7999999821,459324.943,459337,459342.778,464808.546,8,400,,,
trial,html.Screen,4_75_0,2023-09-16T17:30:05.719Z,,0,2,,2764.353999976185,response,ISIC_8010862.JPG,18,ISIC_6635590.JPG,ISIC_8010862.JPG,false,1,keypress(m),500,467573.09999999404,467572.89999997616,464791.709,464796.09999999404,464808.546,467575.009,8,400,26,,ISIC_6635590.JPG
break,html.Screen,4_75_1,2023-09-16T17:30:05.720Z,,0,,,NaN,,,,,,false,,,,467573.6999999881,467573.5,,467573.09999999404,,467575.009,8,400,,,
break_continue,html.Screen,4_75_2,2023-09-16T17:30:05.720Z,,0,,,NaN,,,,,,false,,,,467574,467573.7999999821,,467573.7999999821,,467575.009,8,400,,,
sequence,flow.Sequence,4_75,2023-09-16T17:30:05.720Z,,0,,,2765.2539999821456,completion,,,,,false,,,,467574.09999999404,467573.7999999821,464791.709,464796.09999999404,464808.546,467575.009,8,400,,,
trial,html.Screen,4_76_0,2023-09-16T17:30:08.426Z,,0,2,,2704.5909999940195,response,ISIC_6529073.JPG,6,ISIC_8006094.JPG,ISIC_8006094.JPG,false,0,keypress(z),500,470279.89999997616,470279.59999999404,467558.4,467574.1999999881,467575.009,470291.773,8,400,27,,ISIC_6529073.JPG
break,html.Screen,4_76_1,2023-09-16T17:30:08.427Z,,0,,,NaN,,,,,,false,,,,470280.59999999404,470280.39999997616,,470280.1999999881,,470291.773,8,400,,,
break_continue,html.Screen,4_76_2,2023-09-16T17:30:08.427Z,,0,,,NaN,,,,,,false,,,,470280.89999997616,470280.7999999821,,470280.6999999881,,470291.773,8,400,,,
sequence,flow.Sequence,4_76,2023-09-16T17:30:08.427Z,,0,,,2705.7909999820986,completion,,,,,false,,,,470280.89999997616,470280.7999999821,467558.4,467574.09999999404,467575.009,470291.773,8,400,,,
trial,html.Screen,4_77_0,2023-09-16T17:30:11.204Z,,0,2,,2766.1269999761716,response,ISIC_2616719.JPG,12,ISIC_0054341.JPG,ISIC_0054341.JPG,false,0,keypress(z),500,473058.09999999404,473057.89999997616,470275.03,470281,470291.773,473075.237,8,400,28,,ISIC_2616719.JPG
break,html.Screen,4_77_1,2023-09-16T17:30:11.205Z,,0,,,NaN,,,,,,false,,,,473059.5,473059.1999999881,,473058.2999999821,,473075.237,8,400,,,
break_continue,html.Screen,4_77_2,2023-09-16T17:30:11.206Z,,0,,,NaN,,,,,,false,,,,473059.89999997616,473059.7999999821,,473059.59999999404,,473075.237,8,400,,,
sequence,flow.Sequence,4_77,2023-09-16T17:30:11.206Z,,0,,,2768.026999982132,completion,,,,,false,,,,473060,473059.7999999821,470275.03,470281,470291.773,473075.237,8,400,,,
trial,html.Screen,4_78_0,2023-09-16T17:30:14.258Z,,0,2,,3036.062999982096,response,ISIC_9957389.JPG,13,ISIC_0030656.JPG,ISIC_9957389.JPG,false,1,keypress(m),500,476111.6999999881,476111.2999999821,473058.445,473060.09999999404,473075.237,476125.346,8,400,29,,ISIC_0030656.JPG
break,html.Screen,4_78_1,2023-09-16T17:30:14.258Z,,0,,,NaN,,,,,,false,,,,476112.5,476112.2999999821,,476111.89999997616,,476125.346,8,400,,,
break_continue,html.Screen,4_78_2,2023-09-16T17:30:14.259Z,,0,,,NaN,,,,,,false,,,,476113.1999999881,476113,,476112.7999999821,,476125.346,8,400,,,
sequence,flow.Sequence,4_78,2023-09-16T17:30:14.259Z,,0,,,3037.762999999977,completion,,,,,false,,,,476113.2999999821,476113,473058.445,473060.09999999404,473075.237,476125.346,8,400,,,
trial,html.Screen,4_79_0,2023-09-16T17:30:17.801Z,,0,2,,3529.3539999880595,response,ISIC_0054334.JPG,13,ISIC_6310591.JPG,ISIC_6310591.JPG,false,0,keypress(z),500,479654.89999997616,479654.6999999881,476108.524,476114.09999999404,476125.346,479658.763,8,400,30,,ISIC_0054334.JPG
break,html.Screen,4_79_1,2023-09-16T17:30:17.801Z,,0,,,NaN,,,,,,false,,,,479655.5,479655.2999999821,,479655,,479658.763,8,400,,,
break_continue,html.Screen,4_79_2,2023-09-16T17:30:17.802Z,,0,,,NaN,,,,,,false,,,,479655.7999999821,479655.59999999404,,479655.5,,479658.763,8,400,,,
sequence,flow.Sequence,4_79,2023-09-16T17:30:17.802Z,,0,,,3530.25399999402,completion,,,,,false,,,,479655.7999999821,479655.59999999404,476108.524,476114.09999999404,476125.346,479658.763,8,400,,,
trial,html.Screen,4_80_0,2023-09-16T17:30:20.623Z,,0,2,,2817.5369999821414,response,ISIC_8738598.JPG,2,ISIC_4363603.JPG,ISIC_4363603.JPG,false,0,keypress(z),500,482476.89999997616,482476.2999999821,479641.91,479655.7999999821,479658.763,482492.147,8,400,31,,ISIC_8738598.JPG
break,html.Screen,4_80_1,2023-09-16T17:30:20.623Z,,0,,,NaN,,,,,,false,,,,482477.59999999404,482477.2999999821,,482477,,482492.147,8,400,,,
break_continue,html.Screen,4_80_2,2023-09-16T17:30:20.624Z,,0,,,NaN,,,,,,false,,,,482478.09999999404,482477.89999997616,,482477.6999999881,,482492.147,8,400,,,
sequence,flow.Sequence,4_80,2023-09-16T17:30:20.624Z,,0,,,2819.136999976181,completion,,,,,false,,,,482478.2999999821,482477.89999997616,479641.91,479655.7999999821,479658.763,482492.147,8,400,,,
trial,html.Screen,4_81_0,2023-09-16T17:30:23.544Z,,0,2,,2905.6529999821214,response,ISIC_6199335.JPG,11,ISIC_9879693.JPG,ISIC_6199335.JPG,false,1,keypress(m),500,485398.09999999404,485397.7999999821,482475.371,482478.39999997616,482492.147,485408.79,8,400,32,,ISIC_9879693.JPG
break,html.Screen,4_81_1,2023-09-16T17:30:23.545Z,,0,,,NaN,,,,,,false,,,,485398.6999999881,485398.5,,485398.1999999881,,485408.79,8,400,,,
break_continue,html.Screen,4_81_2,2023-09-16T17:30:23.545Z,,0,,,NaN,,,,,,false,,,,485399.09999999404,485399,,485398.89999997616,,485408.79,8,400,,,
sequence,flow.Sequence,4_81,2023-09-16T17:30:23.545Z,,0,,,2906.853000000003,completion,,,,,false,,,,485399.39999997616,485399,482475.371,482478.39999997616,482492.147,485408.79,8,400,,,
trial,html.Screen,4_82_0,2023-09-16T17:30:26.874Z,,0,2,,3318.609999976179,response,ISIC_0072691.JPG,5,ISIC_0061359.JPG,ISIC_0072691.JPG,false,1,keypress(m),500,488727.89999997616,488727.39999997616,485392.188,485399.5,485408.79,488742.218,8,400,33,,ISIC_0061359.JPG
break,html.Screen,4_82_1,2023-09-16T17:30:26.875Z,,0,,,NaN,,,,,,false,,,,488728.89999997616,488728.59999999404,,488728.1999999881,,488742.218,8,400,,,
break_continue,html.Screen,4_82_2,2023-09-16T17:30:26.875Z,,0,,,NaN,,,,,,false,,,,488729.39999997616,488729.1999999881,,488729.09999999404,,488742.218,8,400,,,
sequence,flow.Sequence,4_82,2023-09-16T17:30:26.875Z,,0,,,3320.4099999881,completion,,,,,false,,,,488729.5,488729.1999999881,485392.188,485399.5,485408.79,488742.218,8,400,,,
trial,html.Screen,4_83_0,2023-09-16T17:30:29.561Z,,0,2,,2672.1819999761647,response,ISIC_4139260.JPG,10,ISIC_0000129.JPG,ISIC_0000129.JPG,false,0,keypress(z),500,491414.59999999404,491414.39999997616,488725.467,488729.5,488742.218,491425.546,8,400,34,,ISIC_4139260.JPG
break,html.Screen,4_83_1,2023-09-16T17:30:29.561Z,,0,,,NaN,,,,,,false,,,,491415.1999999881,491415,,491414.7999999821,,491425.546,8,400,,,
break_continue,html.Screen,4_83_2,2023-09-16T17:30:29.561Z,,0,,,NaN,,,,,,false,,,,491415.39999997616,491415.39999997616,,491415.2999999821,,491425.546,8,400,,,
sequence,flow.Sequence,4_83,2023-09-16T17:30:29.562Z,,0,,,2673.1819999761647,completion,,,,,false,,,,491415.59999999404,491415.39999997616,488725.467,488729.5,488742.218,491425.546,8,400,,,
trial,html.Screen,4_84_0,2023-09-16T17:30:32.406Z,,0,2,,2833.853999976185,response,ISIC_2685523.JPG,16,ISIC_6404049.JPG,ISIC_6404049.JPG,false,0,keypress(z),500,494259.59999999404,494259.39999997616,491409.103,491415.6999999881,491425.546,494275.913,8,400,35,,ISIC_2685523.JPG
break,html.Screen,4_84_1,2023-09-16T17:30:32.407Z,,0,,,NaN,,,,,,false,,,,494260.59999999404,494260.39999997616,,494259.6999999881,,494275.913,8,400,,,
break_continue,html.Screen,4_84_2,2023-09-16T17:30:32.407Z,,0,,,NaN,,,,,,false,,,,494260.89999997616,494260.89999997616,,494260.6999999881,,494275.913,8,400,,,
sequence,flow.Sequence,4_84,2023-09-16T17:30:32.407Z,,0,,,2835.353999976185,completion,,,,,false,,,,494261,494260.89999997616,491409.103,491415.6999999881,491425.546,494275.913,8,400,,,
trial,html.Screen,4_85_0,2023-09-16T17:30:36.487Z,,0,2,,4065.186999994039,response,ISIC_0029480.JPG,14,ISIC_8082988.JPG,ISIC_8082988.JPG,false,0,keypress(z),500,498341.39999997616,498341.09999999404,494259.01,494261.09999999404,494275.913,498365.528,8,400,36,,ISIC_0029480.JPG
break,html.Screen,4_85_1,2023-09-16T17:30:36.488Z,,0,,,NaN,,,,,,false,,,,498342.39999997616,498342,,498341.6999999881,,498365.528,8,400,,,
break_continue,html.Screen,4_85_2,2023-09-16T17:30:36.489Z,,0,,,NaN,,,,,,false,,,,498342.89999997616,498342.7999999821,,498342.59999999404,,498365.528,8,400,,,
sequence,flow.Sequence,4_85,2023-09-16T17:30:36.489Z,,0,,,4066.886999982118,completion,,,,,false,,,,498343,498342.7999999821,494259.01,494261.09999999404,494275.913,498365.528,8,400,,,
trial,html.Screen,4_86_0,2023-09-16T17:30:42.509Z,,0,2,,5997.571999994048,response,ISIC_0010416.JPG,32,ISIC_0055608.JPG,ISIC_0010416.JPG,false,1,keypress(m),500,504363.5,504363.09999999404,498326.328,498343.09999999404,498365.528,504375.904,8,400,37,,ISIC_0055608.JPG
break,html.Screen,4_86_1,2023-09-16T17:30:42.510Z,,0,,,NaN,,,,,,false,,,,504364.39999997616,504364.09999999404,,504363.7999999821,,504375.904,8,400,,,
break_continue,html.Screen,4_86_2,2023-09-16T17:30:42.511Z,,0,,,NaN,,,,,,false,,,,504364.6999999881,504364.6999999881,,504364.59999999404,,504375.904,8,400,,,
sequence,flow.Sequence,4_86,2023-09-16T17:30:42.511Z,,0,,,5999.171999988088,completion,,,,,false,,,,504364.7999999821,504364.6999999881,498326.328,498343.09999999404,498365.528,504375.904,8,400,,,
trial,html.Screen,4_87_0,2023-09-16T17:30:46.190Z,,0,2,,3667.2959999880986,response,ISIC_5673994.JPG,11,ISIC_4770073.JPG,ISIC_5673994.JPG,false,1,keypress(m),500,508043.7999999821,508043.1999999881,504359.4,504364.89999997616,504375.904,508059.483,8,400,38,,ISIC_4770073.JPG
break,html.Screen,4_87_1,2023-09-16T17:30:46.191Z,,0,,,NaN,,,,,,false,,,,508044.5,508044.1999999881,,508044,,508059.483,8,400,,,
break_continue,html.Screen,4_87_2,2023-09-16T17:30:46.191Z,,0,,,NaN,,,,,,false,,,,508044.7999999821,508044.6999999881,,508044.59999999404,,508059.483,8,400,,,
sequence,flow.Sequence,4_87,2023-09-16T17:30:46.191Z,,0,,,3668.7959999880986,completion,,,,,false,,,,508044.89999997616,508044.6999999881,504359.4,504364.89999997616,504375.904,508059.483,8,400,,,
trial,html.Screen,4_88_0,2023-09-16T17:30:49.648Z,,0,2,,3442.116999994032,response,ISIC_6710082.JPG,14,ISIC_3485583.JPG,ISIC_3485583.JPG,false,0,keypress(z),500,511501.89999997616,511501.59999999404,508042.631,508045,508059.483,511509.406,8,400,39,,ISIC_6710082.JPG
break,html.Screen,4_88_1,2023-09-16T17:30:49.649Z,,0,,,NaN,,,,,,false,,,,511502.89999997616,511502.6999999881,,511502.09999999404,,511509.406,8,400,,,
break_continue,html.Screen,4_88_2,2023-09-16T17:30:49.650Z,,0,,,NaN,,,,,,false,,,,511503.5,511503.39999997616,,511503.1999999881,,511509.406,8,400,,,
sequence,flow.Sequence,4_88,2023-09-16T17:30:49.650Z,,0,,,3443.9169999761507,completion,,,,,false,,,,511503.6999999881,511503.39999997616,508042.631,508045,508059.483,511509.406,8,400,,,
trial,html.Screen,4_89_0,2023-09-16T17:30:52.856Z,,0,2,,3200.3939999821014,response,ISIC_0002549.JPG,5,ISIC_3751090.JPG,ISIC_3751090.JPG,false,0,keypress(z),500,514710.1999999881,514709.7999999821,511493.332,511503.7999999821,511509.406,514726.114,8,400,40,,ISIC_0002549.JPG
break,html.Screen,4_89_1,2023-09-16T17:30:52.857Z,,0,,,NaN,,,,,,false,,,,514711.1999999881,514710.89999997616,,514710.39999997616,,514726.114,8,400,,,
break_continue,html.Screen,4_89_2,2023-09-16T17:30:52.858Z,,0,,,NaN,,,,,,false,,,,514711.6999999881,514711.6999999881,,514711.39999997616,,514726.114,8,400,,,
sequence,flow.Sequence,4_89,2023-09-16T17:30:52.858Z,,0,,,3202.293999988062,completion,,,,,false,,,,514712,514711.6999999881,511493.332,511503.7999999821,511509.406,514726.114,8,400,,,
trial,html.Screen,4_90_0,2023-09-16T17:30:56.823Z,,0,2,,3950.8859999999986,response,ISIC_6451703.JPG,5,ISIC_5765854.JPG,ISIC_6451703.JPG,false,1,keypress(m),500,518677.2999999821,518677,514709.504,514712.09999999404,514726.114,518692.842,8,400,41,,ISIC_5765854.JPG
break,html.Screen,4_90_1,2023-09-16T17:30:56.824Z,,0,,,NaN,,,,,,false,,,,518678.09999999404,518677.89999997616,,518677.39999997616,,518692.842,8,400,,,
break_continue,html.Screen,4_90_2,2023-09-16T17:30:56.824Z,,0,,,NaN,,,,,,false,,,,518678.2999999821,518678.1999999881,,518678.09999999404,,518692.842,8,400,,,
sequence,flow.Sequence,4_90,2023-09-16T17:30:56.824Z,,0,,,3952.0859999880777,completion,,,,,false,,,,518678.2999999821,518678.1999999881,514709.504,514712.09999999404,514726.114,518692.842,8,400,,,
trial,html.Screen,4_91_0,2023-09-16T17:30:59.407Z,,0,2,,2567.557999976154,response,ISIC_0028723.JPG,6,ISIC_0024652.JPG,ISIC_0028723.JPG,false,1,keypress(m),500,521260.6999999881,521260.39999997616,518676.288,518678.2999999821,518692.842,521276.317,8,400,42,,ISIC_0024652.JPG
break,html.Screen,4_91_1,2023-09-16T17:30:59.408Z,,0,,,NaN,,,,,,false,,,,521261.59999999404,521261.2999999821,,521261,,521276.317,8,400,,,
break_continue,html.Screen,4_91_2,2023-09-16T17:30:59.408Z,,0,,,NaN,,,,,,false,,,,521262,521261.89999997616,,521261.7999999821,,521276.317,8,400,,,
sequence,flow.Sequence,4_91,2023-09-16T17:30:59.408Z,,0,,,2569.057999976154,completion,,,,,false,,,,521262.1999999881,521261.89999997616,518676.288,518678.2999999821,518692.842,521276.317,8,400,,,
trial,html.Screen,4_92_0,2023-09-16T17:31:02.089Z,,0,2,,2666.882999988098,response,ISIC_5762714.JPG,14,ISIC_0000535.JPG,ISIC_0000535.JPG,false,0,keypress(z),500,523943.39999997616,523943.1999999881,521259.87,521262.2999999821,521276.317,523959.862,8,400,43,,ISIC_5762714.JPG
break,html.Screen,4_92_1,2023-09-16T17:31:02.091Z,,0,,,NaN,,,,,,false,,,,523944.59999999404,523944.1999999881,,523943.5,,523959.862,8,400,,,
break_continue,html.Screen,4_92_2,2023-09-16T17:31:02.091Z,,0,,,NaN,,,,,,false,,,,523945.1999999881,523945.09999999404,,523944.89999997616,,523959.862,8,400,,,
sequence,flow.Sequence,4_92,2023-09-16T17:31:02.091Z,,0,,,2668.7829999940586,completion,,,,,false,,,,523945.39999997616,523945.09999999404,521259.87,521262.2999999821,521276.317,523959.862,8,400,,,
trial,html.Screen,4_93_0,2023-09-16T17:31:04.773Z,,0,2,,2667.0379999761353,response,ISIC_4332885.JPG,13,ISIC_1763577.JPG,ISIC_4332885.JPG,false,1,keypress(m),500,526627.1999999881,526626.8999999762,523943.175,523945.7999999821,523959.862,526643.192,8,400,44,,ISIC_1763577.JPG
break,html.Screen,4_93_1,2023-09-16T17:31:04.775Z,,0,,,NaN,,,,,,false,,,,526629.2999999821,526629,,526627.3999999762,,526643.192,8,400,,,
break_continue,html.Screen,4_93_2,2023-09-16T17:31:04.776Z,,0,,,NaN,,,,,,false,,,,526629.6999999881,526629.599999994,,526629.5,,526643.192,8,400,,,
sequence,flow.Sequence,4_93,2023-09-16T17:31:04.776Z,,0,,,2669.7379999940167,completion,,,,,false,,,,526629.7999999821,526629.599999994,523943.175,523945.6999999881,523959.862,526643.192,8,400,,,
trial,html.Screen,4_94_0,2023-09-16T17:31:07.698Z,,0,2,,2908.50799998804,response,ISIC_0429825.JPG,13,ISIC_0030101.JPG,ISIC_0030101.JPG,false,0,keypress(z),500,529552.099999994,529551.6999999881,526626.322,526629.8999999762,526643.192,529559.929,8,400,45,,ISIC_0429825.JPG
break,html.Screen,4_94_1,2023-09-16T17:31:07.700Z,,0,,,NaN,,,,,,false,,,,529553.599999994,529553.099999994,,529552.2999999821,,529559.929,8,400,,,
break_continue,html.Screen,4_94_2,2023-09-16T17:31:07.700Z,,0,,,NaN,,,,,,false,,,,529554.3999999762,529554.1999999881,,529553.8999999762,,529559.929,8,400,,,
sequence,flow.Sequence,4_94,2023-09-16T17:31:07.701Z,,0,,,2911.00799998804,completion,,,,,false,,,,529554.7999999821,529554.1999999881,526626.322,526629.7999999821,526643.192,529559.929,8,400,,,
trial,html.Screen,4_95_0,2023-09-16T17:31:10.506Z,,0,2,,2799.670999994036,response,ISIC_4049598.JPG,6,ISIC_0028874.JPG,ISIC_0028874.JPG,false,0,keypress(z),500,532359.6999999881,532359.599999994,529543.424,529555.1999999881,529559.929,532376.555,8,400,46,,ISIC_4049598.JPG
break,html.Screen,4_95_1,2023-09-16T17:31:10.507Z,,0,,,NaN,,,,,,false,,,,532361.099999994,532360.8999999762,,532359.8999999762,,532376.555,8,400,,,
break_continue,html.Screen,4_95_2,2023-09-16T17:31:10.507Z,,0,,,NaN,,,,,,false,,,,532361.2999999821,532361.1999999881,,532361.099999994,,532376.555,8,400,,,
sequence,flow.Sequence,4_95,2023-09-16T17:31:10.507Z,,0,,,2801.2709999880753,completion,,,,,false,,,,532361.3999999762,532361.1999999881,529543.424,529555.099999994,529559.929,532376.555,8,400,,,
trial,html.Screen,4_96_0,2023-09-16T17:31:13.457Z,,0,2,,2933.7449999820674,response,ISIC_1785627.JPG,15,ISIC_0063742.JPG,ISIC_1785627.JPG,false,1,keypress(m),500,535310.599999994,535310.2999999821,532359.913,532361.5,532376.555,535326.593,8,400,47,,ISIC_0063742.JPG
break,html.Screen,4_96_1,2023-09-16T17:31:13.457Z,,0,,,NaN,,,,,,false,,,,535311.2999999821,535311.099999994,,535310.6999999881,,535326.593,8,400,,,
break_continue,html.Screen,4_96_2,2023-09-16T17:31:13.458Z,,0,,,NaN,,,,,,false,,,,535311.6999999881,535311.599999994,,535311.3999999762,,535326.593,8,400,,,
sequence,flow.Sequence,4_96,2023-09-16T17:31:13.458Z,,0,,,2935.0449999939883,completion,,,,,false,,,,535311.7999999821,535311.599999994,532359.913,532361.3999999762,532376.555,535326.593,8,400,,,
trial,html.Screen,4_97_0,2023-09-16T17:31:16.454Z,,0,2,,2981.3069999761647,response,ISIC_8655206.JPG,15,ISIC_4369035.JPG,ISIC_8655206.JPG,false,1,keypress(m),500,538308.1999999881,538307.8999999762,535309.966,535311.8999999762,535326.593,538310.064,8,400,48,,ISIC_4369035.JPG
break,html.Screen,4_97_1,2023-09-16T17:31:16.455Z,,0,,,NaN,,,,,,false,,,,538308.7999999821,538308.7999999821,,538308.1999999881,,538310.064,8,400,,,
break_continue,html.Screen,4_97_2,2023-09-16T17:31:16.455Z,,0,,,NaN,,,,,,false,,,,538309.099999994,538309,,538309,,538310.064,8,400,,,
sequence,flow.Sequence,4_97,2023-09-16T17:31:16.455Z,,0,,,2982.4070000000065,completion,,,,,false,,,,538309.099999994,538309,535309.966,535311.7999999821,535326.593,538310.064,8,400,,,
trial,html.Screen,4_98_0,2023-09-16T17:31:19.881Z,,0,2,,3425.135999988066,response,ISIC_0029914.JPG,18,ISIC_0030353.JPG,ISIC_0029914.JPG,false,1,keypress(m),500,541735.3999999762,541735.1999999881,538293.271,538309.099999994,538310.064,541743.49,8,400,49,,ISIC_0030353.JPG
break,html.Screen,4_98_1,2023-09-16T17:31:19.883Z,,0,,,NaN,,,,,,false,,,,541736.599999994,541736.099999994,,541735.599999994,,541743.49,8,400,,,
break_continue,html.Screen,4_98_2,2023-09-16T17:31:19.883Z,,0,,,NaN,,,,,,false,,,,541737,541736.7999999821,,541736.6999999881,,541743.49,8,400,,,
sequence,flow.Sequence,4_98,2023-09-16T17:31:19.883Z,,0,,,3426.7359999821056,completion,,,,,false,,,,541737.1999999881,541736.7999999821,538293.271,538309.099999994,538310.064,541743.49,8,400,,,
trial,html.Screen,4_99_0,2023-09-16T17:31:24.639Z,,0,2,,4749.510000000009,response,ISIC_4867043.JPG,13,ISIC_0072021.JPG,ISIC_4867043.JPG,false,1,keypress(m),500,546493.1999999881,546493,541727.254,541737.1999999881,541743.49,546510.284,8,400,50,,ISIC_0072021.JPG
break,html.Screen,4_99_1,2023-09-16T17:31:34.642Z,,0,,,10000.560999999987,timeout,,,,,false,,,,556495.6999999881,556493.912,546493.595,546493.2999999821,546510.284,556510.845,8,400,,,
break_continue,html.Screen,4_99_2,2023-09-16T17:31:35.237Z,,0,,,561.5549999761861,response,,,,,false,continue,keypress(Space),,557091.599999994,557072.3999999762,556493.912,556495.7999999821,556510.845,557093.748,8,400,,,
sequence,flow.Sequence,4_99,2023-09-16T17:31:35.238Z,,0,,,15328.909999976167,completion,,,,,false,,,,557091.6999999881,557072.3999999762,541727.254,541737.1999999881,541743.49,557093.748,8,400,,,
trial,html.Screen,4_100_0,2023-09-16T17:31:42.331Z,,0,3,,7090.951999988058,response,ISIC_0024962.JPG,11,ISIC_7124160.JPG,ISIC_7124160.JPG,false,0,keypress(z),500,564184.8999999762,564184.6999999881,557077.491,557091.6999999881,557093.748,564194.249,8,400,1,,ISIC_0024962.JPG
break,html.Screen,4_100_1,2023-09-16T17:31:42.332Z,,0,,,NaN,,,,,,false,,,,564185.599999994,564185.2999999821,,564185.099999994,,564194.249,8,400,,,
break_continue,html.Screen,4_100_2,2023-09-16T17:31:42.332Z,,0,,,NaN,,,,,,false,,,,564186.099999994,564185.8999999762,,564185.6999999881,,564194.249,8,400,,,
sequence,flow.Sequence,4_100,2023-09-16T17:31:42.332Z,,0,,,7092.151999976137,completion,,,,,false,,,,564186.2999999821,564185.8999999762,557077.491,557091.6999999881,557093.748,564194.249,8,400,,,
trial,html.Screen,4_101_0,2023-09-16T17:31:45.247Z,,0,3,,2906.850999994087,response,ISIC_3466769.JPG,14,ISIC_0010235.JPG,ISIC_3466769.JPG,false,1,keypress(m),500,567101.2999999821,567101.099999994,564177.573,564186.2999999821,564194.249,567110.643,8,400,2,,ISIC_0010235.JPG
break,html.Screen,4_101_1,2023-09-16T17:31:45.248Z,,0,,,NaN,,,,,,false,,,,567101.8999999762,567101.6999999881,,567101.5,,567110.643,8,400,,,
break_continue,html.Screen,4_101_2,2023-09-16T17:31:45.248Z,,0,,,NaN,,,,,,false,,,,567102.1999999881,567102.1999999881,,567102,,567110.643,8,400,,,
sequence,flow.Sequence,4_101,2023-09-16T17:31:45.248Z,,0,,,2907.9509999881266,completion,,,,,false,,,,567102.1999999881,567102.1999999881,564177.573,564186.2999999821,564194.249,567110.643,8,400,,,
trial,html.Screen,4_102_0,2023-09-16T17:31:47.797Z,,0,3,,2540.556999988039,response,ISIC_3893354.JPG,7,ISIC_0056156.JPG,ISIC_3893354.JPG,false,1,keypress(m),500,569651.3999999762,569651.1999999881,567094.023,567102.3999999762,567110.643,569660.769,8,400,3,,ISIC_0056156.JPG
break,html.Screen,4_102_1,2023-09-16T17:31:47.798Z,,0,,,NaN,,,,,,false,,,,569652.099999994,569651.7999999821,,569651.5,,569660.769,8,400,,,
break_continue,html.Screen,4_102_2,2023-09-16T17:31:47.798Z,,0,,,NaN,,,,,,false,,,,569652.3999999762,569652.2999999821,,569652.1999999881,,569660.769,8,400,,,
sequence,flow.Sequence,4_102,2023-09-16T17:31:47.798Z,,0,,,2541.6569999820786,completion,,,,,false,,,,569652.5,569652.2999999821,567094.023,567102.2999999821,567110.643,569660.769,8,400,,,
trial,html.Screen,4_103_0,2023-09-16T17:31:50.523Z,,0,3,,2716.231000000029,response,ISIC_0000022.JPG,7,ISIC_0026208.JPG,ISIC_0026208.JPG,false,0,keypress(z),500,572377.1999999881,572377,569644.01,569652.599999994,569660.769,572394.102,8,400,4,,ISIC_0000022.JPG
break,html.Screen,4_103_1,2023-09-16T17:31:50.524Z,,0,,,NaN,,,,,,false,,,,572378.1999999881,572378.1999999881,,572377.3999999762,,572394.102,8,400,,,
break_continue,html.Screen,4_103_2,2023-09-16T17:31:50.524Z,,0,,,NaN,,,,,,false,,,,572378.5,572378.5,,572378.3999999762,,572394.102,8,400,,,
sequence,flow.Sequence,4_103,2023-09-16T17:31:50.525Z,,0,,,2717.731000000029,completion,,,,,false,,,,572378.599999994,572378.5,569644.01,569652.599999994,569660.769,572394.102,8,400,,,
trial,html.Screen,4_104_0,2023-09-16T17:31:53.848Z,,0,3,,3308.097999988124,response,ISIC_3792196.JPG,12,ISIC_4978039.JPG,ISIC_3792196.JPG,false,1,keypress(m),500,575702.3999999762,575702.1999999881,572361.676,572378.6999999881,572394.102,575710.898,8,400,5,,ISIC_4978039.JPG
break,html.Screen,4_104_1,2023-09-16T17:31:53.849Z,,0,,,NaN,,,,,,false,,,,575703.3999999762,575703,,575702.599999994,,575710.898,8,400,,,
break_continue,html.Screen,4_104_2,2023-09-16T17:31:53.850Z,,0,,,NaN,,,,,,false,,,,575703.7999999821,575703.7999999821,,575703.599999994,,575710.898,8,400,,,
sequence,flow.Sequence,4_104,2023-09-16T17:31:53.850Z,,0,,,3309.6979999821633,completion,,,,,false,,,,575703.8999999762,575703.7999999821,572361.676,572378.6999999881,572394.102,575710.898,8,400,,,
trial,html.Screen,4_105_0,2023-09-16T17:31:56.556Z,,0,3,,2699.201999993995,response,ISIC_0059948.JPG,6,ISIC_3909443.JPG,ISIC_3909443.JPG,false,0,keypress(z),500,578410.3999999762,578410.099999994,575694.163,575704.099999994,575710.898,578444.295,8,400,6,,ISIC_0059948.JPG
break,html.Screen,4_105_1,2023-09-16T17:31:56.557Z,,0,,,NaN,,,,,,false,,,,578411.099999994,578410.7999999821,,578410.599999994,,578444.295,8,400,,,
break_continue,html.Screen,4_105_2,2023-09-16T17:31:56.558Z,,0,,,NaN,,,,,,false,,,,578411.599999994,578411.3999999762,,578411.1999999881,,578444.295,8,400,,,
sequence,flow.Sequence,4_105,2023-09-16T17:31:56.558Z,,0,,,2700.5019999761134,completion,,,,,false,,,,578411.7999999821,578411.3999999762,575694.163,575704,575710.898,578444.295,8,400,,,
trial,html.Screen,4_106_0,2023-09-16T17:31:59.664Z,,0,3,,3073.904999988037,response,ISIC_0000012.JPG,13,ISIC_1798471.JPG,ISIC_0000012.JPG,false,1,keypress(m),500,581518.3999999762,581518.1999999881,578427.657,578411.8999999762,578444.295,581527.758,8,400,7,,ISIC_1798471.JPG
break,html.Screen,4_106_1,2023-09-16T17:31:59.665Z,,0,,,NaN,,,,,,false,,,,581519.1999999881,581518.8999999762,,581518.5,,581527.758,8,400,,,
break_continue,html.Screen,4_106_2,2023-09-16T17:31:59.666Z,,0,,,NaN,,,,,,false,,,,581519.6999999881,581519.5,,581519.3999999762,,581527.758,8,400,,,
sequence,flow.Sequence,4_106,2023-09-16T17:31:59.666Z,,0,,,3075.204999999958,completion,,,,,false,,,,581519.7999999821,581519.5,578427.657,578411.8999999762,578444.295,581527.758,8,400,,,
trial,html.Screen,4_107_0,2023-09-16T17:32:02.389Z,,0,3,,2714.9419999880483,response,ISIC_2299749.JPG,6,ISIC_9895436.JPG,ISIC_9895436.JPG,false,0,keypress(z),500,584242.7999999821,584242.6999999881,581511.037,581520,581527.758,584244.379,8,400,8,,ISIC_2299749.JPG
break,html.Screen,4_107_1,2023-09-16T17:32:02.389Z,,0,,,NaN,,,,,,false,,,,584243.2999999821,584243.1999999881,,584242.8999999762,,584244.379,8,400,,,
break_continue,html.Screen,4_107_2,2023-09-16T17:32:02.389Z,,0,,,NaN,,,,,,false,,,,584243.5,584243.5,,584243.3999999762,,584244.379,8,400,,,
sequence,flow.Sequence,4_107,2023-09-16T17:32:02.390Z,,0,,,2715.7419999999693,completion,,,,,false,,,,584243.6999999881,584243.5,581511.037,581519.8999999762,581527.758,584244.379,8,400,,,
trial,html.Screen,4_108_0,2023-09-16T17:32:05.280Z,,0,3,,2889.7209999940824,response,ISIC_1670165.JPG,15,ISIC_6507412.JPG,ISIC_1670165.JPG,false,1,keypress(m),500,587134.1999999881,587134.099999994,584227.819,584243.6999999881,584244.379,587144.444,8,400,9,,ISIC_6507412.JPG
break,html.Screen,4_108_1,2023-09-16T17:32:05.281Z,,0,,,NaN,,,,,,false,,,,587135,587134.6999999881,,587134.3999999762,,587144.444,8,400,,,
break_continue,html.Screen,4_108_2,2023-09-16T17:32:05.281Z,,0,,,NaN,,,,,,false,,,,587135.1999999881,587135.099999994,,587135,,587144.444,8,400,,,
sequence,flow.Sequence,4_108,2023-09-16T17:32:05.281Z,,0,,,2890.7209999940824,completion,,,,,false,,,,587135.2999999821,587135.099999994,584227.819,584243.6999999881,584244.379,587144.444,8,400,,,
trial,html.Screen,4_109_0,2023-09-16T17:32:09.306Z,,0,3,,4015.7559999880614,response,ISIC_0025081.JPG,7,ISIC_0026868.JPG,ISIC_0025081.JPG,false,1,keypress(m),500,591160.2999999821,591160.1999999881,587127.765,587135.3999999762,587144.444,591184.361,8,400,10,,ISIC_0026868.JPG
break,html.Screen,4_109_1,2023-09-16T17:32:09.307Z,,0,,,NaN,,,,,,false,,,,591161.099999994,591160.7999999821,,591160.599999994,,591184.361,8,400,,,
break_continue,html.Screen,4_109_2,2023-09-16T17:32:09.307Z,,0,,,NaN,,,,,,false,,,,591161.5,591161.2999999821,,591161.1999999881,,591184.361,8,400,,,
sequence,flow.Sequence,4_109,2023-09-16T17:32:09.308Z,,0,,,4016.855999982101,completion,,,,,false,,,,591161.7999999821,591161.2999999821,587127.765,587135.3999999762,587144.444,591184.361,8,400,,,
trial,html.Screen,4_110_0,2023-09-16T17:32:13.556Z,,0,3,,4225.8389999880455,response,ISIC_0274382.JPG,6,ISIC_0028087.JPG,ISIC_0274382.JPG,false,1,keypress(m),500,595410.3999999762,595410.1999999881,591144.486,591162,591184.361,595434.226,8,400,11,,ISIC_0028087.JPG
break,html.Screen,4_110_1,2023-09-16T17:32:13.557Z,,0,,,NaN,,,,,,false,,,,595411.099999994,595410.7999999821,,595410.599999994,,595434.226,8,400,,,
break_continue,html.Screen,4_110_2,2023-09-16T17:32:13.557Z,,0,,,NaN,,,,,,false,,,,595411.1999999881,595411.1999999881,,595411.1999999881,,595434.226,8,400,,,
sequence,flow.Sequence,4_110,2023-09-16T17:32:13.557Z,,0,,,4226.8389999880455,completion,,,,,false,,,,595411.2999999821,595411.1999999881,591144.486,591161.8999999762,591184.361,595434.226,8,400,,,
trial,html.Screen,4_111_0,2023-09-16T17:32:17.354Z,,0,3,,3773.473999988055,response,ISIC_0481702.JPG,6,ISIC_6069236.JPG,ISIC_0481702.JPG,false,1,keypress(m),500,599207.8999999762,599207.6999999881,595394.637,595411.5,595434.226,599211.496,8,400,12,,ISIC_6069236.JPG
break,html.Screen,4_111_1,2023-09-16T17:32:17.354Z,,0,,,NaN,,,,,,false,,,,599208.3999999762,599208.1999999881,,599208,,599211.496,8,400,,,
break_continue,html.Screen,4_111_2,2023-09-16T17:32:17.354Z,,0,,,NaN,,,,,,false,,,,599208.5,599208.3999999762,,599208.3999999762,,599211.496,8,400,,,
sequence,flow.Sequence,4_111,2023-09-16T17:32:17.354Z,,0,,,3774.173999976134,completion,,,,,false,,,,599208.599999994,599208.3999999762,595394.637,595411.5,595434.226,599211.496,8,400,,,
trial,html.Screen,4_112_0,2023-09-16T17:32:20.179Z,,0,3,,2821.6039999939967,response,ISIC_2758999.JPG,1,ISIC_0028415.JPG,ISIC_2758999.JPG,false,1,keypress(m),500,602033.5,602033.099999994,599194.796,599208.599999994,599211.496,602044.952,8,400,13,,ISIC_0028415.JPG
break,html.Screen,4_112_1,2023-09-16T17:32:20.181Z,,0,,,NaN,,,,,,false,,,,602035,602034.7999999821,,602033.7999999821,,602044.952,8,400,,,
break_continue,html.Screen,4_112_2,2023-09-16T17:32:20.182Z,,0,,,NaN,,,,,,false,,,,602035.7999999821,602035.5,,602035.2999999821,,602044.952,8,400,,,
sequence,flow.Sequence,4_112,2023-09-16T17:32:20.182Z,,0,,,2824.003999999957,completion,,,,,false,,,,602036.1999999881,602035.5,599194.796,599208.599999994,599211.496,602044.952,8,400,,,
trial,html.Screen,4_113_0,2023-09-16T17:32:23.840Z,,0,3,,3648.4479999761097,response,ISIC_5164416.JPG,1,ISIC_7951202.JPG,ISIC_5164416.JPG,false,1,keypress(m),500,605693.6999999881,605693.3999999762,602028.202,602036.5,602044.952,605716.585,8,400,14,,ISIC_7951202.JPG
break,html.Screen,4_113_1,2023-09-16T17:32:23.841Z,,0,,,NaN,,,,,,false,,,,605694.6999999881,605694.5,,605693.7999999821,,605716.585,8,400,,,
break_continue,html.Screen,4_113_2,2023-09-16T17:32:23.841Z,,0,,,NaN,,,,,,false,,,,605695,605694.8999999762,,605694.7999999821,,605716.585,8,400,,,
sequence,flow.Sequence,4_113,2023-09-16T17:32:23.841Z,,0,,,3649.9479999761097,completion,,,,,false,,,,605695.1999999881,605694.8999999762,602028.202,602036.5,602044.952,605716.585,8,400,,,
trial,html.Screen,4_114_0,2023-09-16T17:32:27.372Z,,0,3,,3509.4150000000373,response,ISIC_0056444.JPG,17,ISIC_0028394.JPG,ISIC_0028394.JPG,false,0,keypress(z),500,609226.1999999881,609226,605678.269,605695.1999999881,605716.585,609228.337,8,400,15,,ISIC_0056444.JPG
break,html.Screen,4_114_1,2023-09-16T17:32:27.374Z,,0,,,NaN,,,,,,false,,,,609227.2999999821,609226.8999999762,,609226.5,,609228.337,8,400,,,
break_continue,html.Screen,4_114_2,2023-09-16T17:32:27.374Z,,0,,,NaN,,,,,,false,,,,609227.8999999762,609227.6999999881,,609227.5,,609228.337,8,400,,,
sequence,flow.Sequence,4_114,2023-09-16T17:32:27.374Z,,0,,,3511.1149999881163,completion,,,,,false,,,,609228.099999994,609227.6999999881,605678.269,605695.1999999881,605716.585,609228.337,8,400,,,
trial,html.Screen,4_115_0,2023-09-16T17:32:30.467Z,,0,3,,3092.262999993982,response,ISIC_5988539.JPG,8,ISIC_0061735.JPG,ISIC_0061735.JPG,false,0,keypress(z),500,612321,612320.599999994,609211.811,609228.2999999821,609228.337,612328.376,8,400,16,,ISIC_5988539.JPG
break,html.Screen,4_115_1,2023-09-16T17:32:30.468Z,,0,,,NaN,,,,,,false,,,,612321.5,612321.3999999762,,612321.1999999881,,612328.376,8,400,,,
break_continue,html.Screen,4_115_2,2023-09-16T17:32:30.468Z,,0,,,NaN,,,,,,false,,,,612321.8999999762,612321.7999999821,,612321.6999999881,,612328.376,8,400,,,
sequence,flow.Sequence,4_115,2023-09-16T17:32:30.468Z,,0,,,3093.462999982061,completion,,,,,false,,,,612322,612321.7999999821,609211.811,609228.2999999821,609228.337,612328.376,8,400,,,
trial,html.Screen,4_116_0,2023-09-16T17:32:33.120Z,,0,3,,2644.723999993992,response,ISIC_6966001.JPG,10,ISIC_0025382.JPG,ISIC_6966001.JPG,false,1,keypress(m),500,614973.3999999762,614973.099999994,612311.831,612322.099999994,612328.376,614978.786,8,400,17,,ISIC_0025382.JPG
break,html.Screen,4_116_1,2023-09-16T17:32:33.120Z,,0,,,NaN,,,,,,false,,,,614974.1999999881,614974.099999994,,614973.599999994,,614978.786,8,400,,,
break_continue,html.Screen,4_116_2,2023-09-16T17:32:33.121Z,,0,,,NaN,,,,,,false,,,,614974.3999999762,614974.2999999821,,614974.2999999821,,614978.786,8,400,,,
sequence,flow.Sequence,4_116,2023-09-16T17:32:33.121Z,,0,,,2645.923999982071,completion,,,,,false,,,,614974.5,614974.2999999821,612311.831,612322.099999994,612328.376,614978.786,8,400,,,
trial,html.Screen,4_117_0,2023-09-16T17:32:35.605Z,,0,3,,2479.7140000000363,response,ISIC_0028156.JPG,1,ISIC_0060749.JPG,ISIC_0060749.JPG,false,0,keypress(z),500,617458.6999999881,617458.5,614962.62,614974.5,614978.786,617461.852,8,400,18,,ISIC_0028156.JPG
break,html.Screen,4_117_1,2023-09-16T17:32:35.606Z,,0,,,NaN,,,,,,false,,,,617459.599999994,617459.2999999821,,617459,,617461.852,8,400,,,
break_continue,html.Screen,4_117_2,2023-09-16T17:32:35.606Z,,0,,,NaN,,,,,,false,,,,617460,617459.8999999762,,617459.6999999881,,617461.852,8,400,,,
sequence,flow.Sequence,4_117,2023-09-16T17:32:35.606Z,,0,,,2481.1139999761945,completion,,,,,false,,,,617460.099999994,617459.8999999762,614962.62,614974.5,614978.786,617461.852,8,400,,,
trial,html.Screen,4_118_0,2023-09-16T17:32:38.683Z,,0,3,,3074.9479999821633,response,ISIC_8570555.JPG,9,ISIC_0479264.JPG,ISIC_0479264.JPG,false,0,keypress(z),500,620537,620536.7999999821,617445.145,617460.099999994,617461.852,620545.224,8,400,19,,ISIC_8570555.JPG
break,html.Screen,4_118_1,2023-09-16T17:32:38.684Z,,0,,,NaN,,,,,,false,,,,620538,620537.7999999821,,620537.1999999881,,620545.224,8,400,,,
break_continue,html.Screen,4_118_2,2023-09-16T17:32:38.684Z,,0,,,NaN,,,,,,false,,,,620538.1999999881,620538.099999994,,620538.099999994,,620545.224,8,400,,,
sequence,flow.Sequence,4_118,2023-09-16T17:32:38.685Z,,0,,,3076.2479999940842,completion,,,,,false,,,,620538.2999999821,620538.099999994,617445.145,617460.099999994,617461.852,620545.224,8,400,,,
trial,html.Screen,4_119_0,2023-09-16T17:32:41.890Z,,0,3,,3198.375999993994,response,ISIC_0070948.JPG,16,ISIC_0025489.JPG,ISIC_0025489.JPG,false,0,keypress(z),500,623743.6999999881,623743.599999994,620528.616,620538.3999999762,620545.224,623767.769,8,400,20,,ISIC_0070948.JPG
break,html.Screen,4_119_1,2023-09-16T17:32:41.891Z,,0,,,NaN,,,,,,false,,,,623744.3999999762,623744.1999999881,,623743.8999999762,,623767.769,8,400,,,
break_continue,html.Screen,4_119_2,2023-09-16T17:32:41.891Z,,0,,,NaN,,,,,,false,,,,623744.7999999821,623744.6999999881,,623744.599999994,,623767.769,8,400,,,
sequence,flow.Sequence,4_119,2023-09-16T17:32:41.891Z,,0,,,3199.4759999880334,completion,,,,,false,,,,623745,623744.6999999881,620528.616,620538.2999999821,620545.224,623767.769,8,400,,,
trial,html.Screen,4_120_0,2023-09-16T17:32:44.862Z,,0,3,,2948.231000000029,response,ISIC_0061141.JPG,26,ISIC_6966001.JPG,ISIC_6966001.JPG,false,0,keypress(z),500,626716.1999999881,626716,623728.683,623745.099999994,623767.769,626728.787,8,400,21,,ISIC_0061141.JPG
break,html.Screen,4_120_1,2023-09-16T17:32:44.863Z,,0,,,NaN,,,,,,false,,,,626717,626716.6999999881,,626716.3999999762,,626728.787,8,400,,,
break_continue,html.Screen,4_120_2,2023-09-16T17:32:44.864Z,,0,,,NaN,,,,,,false,,,,626717.3999999762,626717.1999999881,,626717.1999999881,,626728.787,8,400,,,
sequence,flow.Sequence,4_120,2023-09-16T17:32:44.864Z,,0,,,2949.430999988108,completion,,,,,false,,,,626717.5,626717.1999999881,623728.683,623745,623767.769,626728.787,8,400,,,
trial,html.Screen,4_121_0,2023-09-16T17:32:47.514Z,,0,3,,2639.212999999989,response,ISIC_0025891.JPG,5,ISIC_9806131.JPG,ISIC_0025891.JPG,false,1,keypress(m),500,629368.1999999881,629368,626712.091,626717.5,626728.787,629378.842,8,400,22,,ISIC_9806131.JPG
break,html.Screen,4_121_1,2023-09-16T17:32:47.515Z,,0,,,NaN,,,,,,false,,,,629369.1999999881,629368.599999994,,629368.3999999762,,629378.842,8,400,,,
break_continue,html.Screen,4_121_2,2023-09-16T17:32:47.516Z,,0,,,NaN,,,,,,false,,,,629369.5,629369.3999999762,,629369.2999999821,,629378.842,8,400,,,
sequence,flow.Sequence,4_121,2023-09-16T17:32:47.516Z,,0,,,2640.612999976147,completion,,,,,false,,,,629369.6999999881,629369.3999999762,626712.091,626717.5,626728.787,629378.842,8,400,,,
trial,html.Screen,4_122_0,2023-09-16T17:32:50.784Z,,0,3,,3259.057999976212,response,ISIC_8425541.JPG,14,ISIC_8278912.JPG,ISIC_8278912.JPG,false,0,keypress(z),500,632638.099999994,632637.8999999762,629362.158,629370,629378.842,632645.79,8,400,23,,ISIC_8425541.JPG
break,html.Screen,4_122_1,2023-09-16T17:32:50.785Z,,0,,,NaN,,,,,,false,,,,632639.1999999881,632638.6999999881,,632638.2999999821,,632645.79,8,400,,,
break_continue,html.Screen,4_122_2,2023-09-16T17:32:50.786Z,,0,,,NaN,,,,,,false,,,,632639.599999994,632639.3999999762,,632639.2999999821,,632645.79,8,400,,,
sequence,flow.Sequence,4_122,2023-09-16T17:32:50.786Z,,0,,,3260.557999976212,completion,,,,,false,,,,632639.6999999881,632639.3999999762,629362.158,629369.7999999821,629378.842,632645.79,8,400,,,
trial,html.Screen,4_123_0,2023-09-16T17:32:53.791Z,,0,3,,2998.909999988042,response,ISIC_0593591.JPG,7,ISIC_0033386.JPG,ISIC_0033386.JPG,false,0,keypress(z),500,635644.7999999821,635644.6999999881,632628.977,632639.7999999821,632645.79,635669.281,8,400,24,,ISIC_0593591.JPG
break,html.Screen,4_123_1,2023-09-16T17:32:53.792Z,,0,,,NaN,,,,,,false,,,,635645.5,635645.5,,635644.8999999762,,635669.281,8,400,,,
break_continue,html.Screen,4_123_2,2023-09-16T17:32:53.792Z,,0,,,NaN,,,,,,false,,,,635645.8999999762,635645.8999999762,,635645.6999999881,,635669.281,8,400,,,
sequence,flow.Sequence,4_123,2023-09-16T17:32:53.792Z,,0,,,3000.109999976121,completion,,,,,false,,,,635646.1999999881,635645.8999999762,632628.977,632639.6999999881,632645.79,635669.281,8,400,,,
trial,html.Screen,4_124_0,2023-09-16T17:32:56.599Z,,0,3,,2783.719000000041,response,ISIC_8388593.JPG,30,ISIC_0192490.JPG,ISIC_0192490.JPG,false,0,keypress(z),500,638453.2999999821,638453,635629.054,635646.1999999881,635669.281,638462.385,8,400,25,,ISIC_8388593.JPG
break,html.Screen,4_124_1,2023-09-16T17:32:56.600Z,,0,,,NaN,,,,,,false,,,,638453.7999999821,638453.599999994,,638453.3999999762,,638462.385,8,400,,,
break_continue,html.Screen,4_124_2,2023-09-16T17:32:56.600Z,,0,,,NaN,,,,,,false,,,,638454.2999999821,638454.1999999881,,638454,,638462.385,8,400,,,
sequence,flow.Sequence,4_124,2023-09-16T17:32:56.601Z,,0,,,2784.91899998812,completion,,,,,false,,,,638454.3999999762,638454.1999999881,635629.054,635646.1999999881,635669.281,638462.385,8,400,,,
trial,html.Screen,4_125_0,2023-09-16T17:33:00.521Z,,0,3,,3912.21499999403,response,ISIC_5220698.JPG,13,ISIC_0066506.JPG,ISIC_0066506.JPG,false,0,keypress(z),500,642374.8999999762,642374.599999994,638445.708,638454.3999999762,638462.385,642379.187,8,400,26,,ISIC_5220698.JPG
break,html.Screen,4_125_1,2023-09-16T17:33:00.522Z,,0,,,NaN,,,,,,false,,,,642376,642375.599999994,,642375.099999994,,642379.187,8,400,,,
break_continue,html.Screen,4_125_2,2023-09-16T17:33:00.523Z,,0,,,NaN,,,,,,false,,,,642376.3999999762,642376.1999999881,,642376.099999994,,642379.187,8,400,,,
