sender,sender_type,sender_id,timestamp,meta,,blockNo,condition,duration,ended_on,img_left,img_reveal,img_right,loser,practice,response,response_action,selection_duration,time_commit,time_end,time_render,time_run,time_show,time_switch,total_blocks,total_trials,trialNo,url,winner
informed_consent,html.Screen,0,2023-10-31T22:18:34.194Z,"{""labjs_version"":""20.2.4"",""labjs_build"":{""flavor"":""production"",""commit"":""f5b4a49f956347addd546a832a3327688c2c0fef""},""location"":""https://run.pavlovia.org/MurrayBennett/melanoma-2afc/?participant=59595&platform=sona"",""userAgent"":""Mozilla/5.0 (Windows NT 10.0; Win64; x64) AppleWebKit/537.36 (KHTML, like Gecko) Chrome/118.0.0.0 Safari/537.36"",""platform"":""Win32"",""language"":""en-US"",""locale"":""en-US"",""timeZone"":""America/Chicago"",""timezoneOffset"":300,""screen_width"":1536,""screen_height"":864,""scroll_width"":1536,""scroll_height"":699,""window_innerWidth"":1536,""window_innerHeight"":747,""devicePixelRatio"":1.25}",,,,6795.323000023842,response,,,,,,consent,click button,,8384.300000011921,8383.600000023842,1338.278,1583.7000000476837,1588.277,8390.118,,,,"{""participant"":""59595"",""platform"":""sona""}",
Welcome,html.Screen,1,2023-10-31T22:19:11.872Z,,,,symmetry,37672.28200003576,response,,,,,,continue,click button,,46063.10000002384,46062.40000003576,8379.991,8384.400000035763,8390.118,46069.231,,,,,
trial,html.Screen,2_0_0,2023-10-31T22:19:18.562Z,,0,0,,6683.569000011921,response,ISIC_6997061.JPG,,ISIC_0069348.JPG,ISIC_0069348.JPG,true,0,keypress(z),500,52752.80000001192,52752.80000001192,46059.163,46063.200000047684,46069.231,52755.011,1,6,1,,ISIC_6997061.JPG
sequence,flow.Sequence,2_0,2023-10-31T22:19:18.562Z,,0,,,6683.569000011921,completion,,,,,true,,,,52753,52752.80000001192,46059.163,46063.200000047684,46069.231,52755.011,1,6,,,
trial,html.Screen,2_1_0,2023-10-31T22:19:24.884Z,,0,0,,6319.389000035764,response,ISIC_0009529.JPG,,ISIC_0057368.JPG,ISIC_0057368.JPG,true,0,keypress(z),500,59074.5,59074.40000003576,52750.851,52753.10000002384,52755.011,59081.77,1,6,2,,ISIC_0009529.JPG
sequence,flow.Sequence,2_1,2023-10-31T22:19:24.884Z,,0,,,6319.389000035764,completion,,,,,true,,,,59074.700000047684,59074.40000003576,52750.851,52753,52755.011,59081.77,1,6,,,
trial,html.Screen,2_2_0,2023-10-31T22:19:31.655Z,,0,0,,6762.830000023845,response,ISIC_9758671.JPG,,ISIC_0064954.JPG,ISIC_9758671.JPG,true,1,keypress(m),500,65844.70000004768,65844.60000002384,59071.577,59074.700000047684,59081.77,65846.663,1,6,3,,ISIC_0064954.JPG
sequence,flow.Sequence,2_2,2023-10-31T22:19:31.655Z,,0,,,6762.830000023845,completion,,,,,true,,,,65844.80000001192,65844.60000002384,59071.577,59074.700000047684,59081.77,65846.663,1,6,,,
trial,html.Screen,2_3_0,2023-10-31T22:19:35.960Z,,0,0,,4303.737000035762,response,ISIC_0005785.JPG,,ISIC_0000080.JPG,ISIC_0005785.JPG,true,1,keypress(m),500,70150.60000002384,70150.40000003576,65842.451,65844.90000003576,65846.663,70154.993,1,6,4,,ISIC_0000080.JPG
sequence,flow.Sequence,2_3,2023-10-31T22:19:35.961Z,,0,,,4303.737000035762,completion,,,,,true,,,,70150.80000001192,70150.40000003576,65842.451,65844.80000001192,65846.663,70154.993,1,6,,,
trial,html.Screen,2_4_0,2023-10-31T22:19:39.641Z,,0,0,,3676.506999999998,response,ISIC_5390060.JPG,,ISIC_7944028.JPG,ISIC_5390060.JPG,true,1,keypress(m),500,73831.60000002384,73831.5,70150.744,70150.80000001192,70154.993,73834.261,1,6,5,,ISIC_7944028.JPG
sequence,flow.Sequence,2_4,2023-10-31T22:19:39.642Z,,0,,,3676.506999999998,completion,,,,,true,,,,73831.70000004768,73831.5,70150.744,70150.80000001192,70154.993,73834.261,1,6,,,
trial,html.Screen,2_5_0,2023-10-31T22:19:43.484Z,,0,0,,3839.439000047685,response,ISIC_0794216.JPG,,ISIC_0010188.JPG,ISIC_0010188.JPG,true,0,keypress(z),500,77673.80000001192,77673.70000004768,73829.945,73831.70000004768,73834.261,77675.845,1,6,6,,ISIC_0794216.JPG
sequence,flow.Sequence,2_5,2023-10-31T22:19:43.484Z,,0,,,3839.439000047685,completion,,,,,true,,,,77673.90000003576,77673.70000004768,73829.945,73831.70000004768,73834.261,77675.845,1,6,,,
loop,flow.Loop,2,2023-10-31T22:19:43.484Z,,,,,31604.469000047684,completion,,,,,true,,,,77673.90000003576,77673.70000004768,46059.163,46063.200000047684,46069.231,77675.845,1,6,,,
exp_instructions,html.Screen,3,2023-10-31T22:19:47.723Z,,,,,4237.255000023841,response,,,,,,continue,keypress(Space),,81913.5,81913.10000002384,77671.633,77674,77675.845,81917.52,,,,,
trial,html.Screen,4_0_0,2023-10-31T22:19:51.021Z,,0,1,,3294.080000023838,response,ISIC_7448231.JPG,5,ISIC_2863397.JPG,ISIC_7448231.JPG,false,1,keypress(m),500,85211.60000002384,85211.60000002384,81913.226,81913.80000001192,81917.52,85213.408,8,400,1,,ISIC_2863397.JPG
break,html.Screen,4_0_1,2023-10-31T22:19:51.022Z,,0,,,NaN,,,,,,false,,,,85211.90000003576,85211.80000001192,,85211.70000004768,,85213.408,8,400,,,
break_continue,html.Screen,4_0_2,2023-10-31T22:19:51.022Z,,0,,,NaN,,,,,,false,,,,85212.20000004768,85212.10000002384,,85212,,85213.408,8,400,,,
sequence,flow.Sequence,4_0,2023-10-31T22:19:51.022Z,,0,,,3294.580000023838,completion,,,,,false,,,,85212.20000004768,85212.10000002384,81913.226,81913.80000001192,81917.52,85213.408,8,400,,,
trial,html.Screen,4_1_0,2023-10-31T22:20:02.521Z,,0,1,,11504.150000000009,timeout,ISIC_2366727.JPG,5,ISIC_0013835.JPG,ISIC_0013835.JPG,false,,,500,96711.70000004768,96711.5,85209.147,85212.20000004768,85213.408,96717.558,8,400,2,,ISIC_2366727.JPG
break,html.Screen,4_1_1,2023-10-31T22:20:02.522Z,,0,,,NaN,,,,,,false,,,,96711.90000003576,96711.90000003576,,96711.70000004768,,96717.558,8,400,,,
break_continue,html.Screen,4_1_2,2023-10-31T22:20:02.522Z,,0,,,NaN,,,,,,false,,,,96712,96712,,96712,,96717.558,8,400,,,
sequence,flow.Sequence,4_1,2023-10-31T22:20:02.522Z,,0,,,11498.592000000004,completion,,,,,false,,,,96712,96712,85209.147,85212.20000004768,85213.408,96717.558,8,400,,,
trial,html.Screen,4_2_0,2023-10-31T22:20:07.131Z,,0,1,,4603.242000011916,response,ISIC_7110699.JPG,5,ISIC_4026569.JPG,ISIC_4026569.JPG,false,0,keypress(z),500,101320.80000001192,101320.80000001192,96713.367,96712.10000002384,96717.558,101327.085,8,400,3,,ISIC_7110699.JPG
break,html.Screen,4_2_1,2023-10-31T22:20:07.131Z,,0,,,NaN,,,,,,false,,,,101321.10000002384,101321,,101320.90000003576,,101327.085,8,400,,,
break_continue,html.Screen,4_2_2,2023-10-31T22:20:07.131Z,,0,,,NaN,,,,,,false,,,,101321.20000004768,101321.10000002384,,101321.10000002384,,101327.085,8,400,,,
sequence,flow.Sequence,4_2,2023-10-31T22:20:07.131Z,,0,,,4603.542000023837,completion,,,,,false,,,,101321.30000001192,101321.10000002384,96713.367,96712.10000002384,96717.558,101327.085,8,400,,,
trial,html.Screen,4_3_0,2023-10-31T22:20:10.620Z,,0,1,,3483.4149999999936,response,ISIC_8796632.JPG,5,ISIC_0010782.JPG,ISIC_0010782.JPG,false,0,keypress(z),500,104810.70000004768,104810.5,101317.487,101321.30000001192,101327.085,104813.439,8,400,4,,ISIC_8796632.JPG
break,html.Screen,4_3_1,2023-10-31T22:20:10.621Z,,0,,,NaN,,,,,,false,,,,104810.90000003576,104810.90000003576,,104810.70000004768,,104813.439,8,400,,,
break_continue,html.Screen,4_3_2,2023-10-31T22:20:10.621Z,,0,,,NaN,,,,,,false,,,,104811,104811,,104811,,104813.439,8,400,,,
sequence,flow.Sequence,4_3,2023-10-31T22:20:10.621Z,,0,,,3483.9149999999936,completion,,,,,false,,,,104811.10000002384,104811,101317.487,101321.30000001192,101327.085,104813.439,8,400,,,
trial,html.Screen,4_4_0,2023-10-31T22:20:17.006Z,,0,1,,6382.961000035764,response,ISIC_9072034.JPG,5,ISIC_2178032.JPG,ISIC_2178032.JPG,false,0,keypress(z),500,111196.5,111196.40000003576,104809.247,104811.20000004768,104813.439,111201.03,8,400,5,,ISIC_9072034.JPG
break,html.Screen,4_4_1,2023-10-31T22:20:17.007Z,,0,,,NaN,,,,,,false,,,,111196.80000001192,111196.70000004768,,111196.60000002384,,111201.03,8,400,,,
break_continue,html.Screen,4_4_2,2023-10-31T22:20:17.007Z,,0,,,NaN,,,,,,false,,,,111196.90000003576,111196.90000003576,,111196.80000001192,,111201.03,8,400,,,
sequence,flow.Sequence,4_4,2023-10-31T22:20:17.007Z,,0,,,6383.461000035764,completion,,,,,false,,,,111196.90000003576,111196.90000003576,104809.247,104811.10000002384,104813.439,111201.03,8,400,,,
trial,html.Screen,4_5_0,2023-10-31T22:20:20.272Z,,0,1,,3261.470000000001,response,ISIC_0356611.JPG,5,ISIC_3433060.JPG,ISIC_3433060.JPG,false,0,keypress(z),500,114462.60000002384,114462.5,111196.744,111197,111201.03,114468.734,8,400,6,,ISIC_0356611.JPG
break,html.Screen,4_5_1,2023-10-31T22:20:20.273Z,,0,,,NaN,,,,,,false,,,,114462.90000003576,114462.70000004768,,114462.60000002384,,114468.734,8,400,,,
break_continue,html.Screen,4_5_2,2023-10-31T22:20:20.273Z,,0,,,NaN,,,,,,false,,,,114463,114462.90000003576,,114462.90000003576,,114468.734,8,400,,,
sequence,flow.Sequence,4_5,2023-10-31T22:20:20.273Z,,0,,,3261.870000035764,completion,,,,,false,,,,114463.10000002384,114462.90000003576,111196.744,111197,111201.03,114468.734,8,400,,,
trial,html.Screen,4_6_0,2023-10-31T22:20:24.355Z,,0,1,,4075.966000047687,response,ISIC_7097665.JPG,6,ISIC_0010971.JPG,ISIC_0010971.JPG,false,0,keypress(z),500,118544.70000004768,118544.70000004768,114459.174,114463.10000002384,114468.734,118546.713,8,400,7,,ISIC_7097665.JPG
break,html.Screen,4_6_1,2023-10-31T22:20:24.355Z,,0,,,NaN,,,,,,false,,,,118545,118544.80000001192,,118544.70000004768,,118546.713,8,400,,,
break_continue,html.Screen,4_6_2,2023-10-31T22:20:24.355Z,,0,,,NaN,,,,,,false,,,,118545.10000002384,118545,,118545,,118546.713,8,400,,,
sequence,flow.Sequence,4_6,2023-10-31T22:20:24.355Z,,0,,,4076.2660000000033,completion,,,,,false,,,,118545.20000004768,118545,114459.174,114463.10000002384,114468.734,118546.713,8,400,,,
trial,html.Screen,4_7_0,2023-10-31T22:20:30.709Z,,0,1,,6351.98700004768,response,ISIC_0000546.JPG,6,ISIC_0776189.JPG,ISIC_0776189.JPG,false,0,keypress(z),500,124898.80000001192,124898.70000004768,118542.469,118545.20000004768,118546.713,124900.94,8,400,8,,ISIC_0000546.JPG
break,html.Screen,4_7_1,2023-10-31T22:20:30.709Z,,0,,,NaN,,,,,,false,,,,124899.10000002384,124899,,124898.90000003576,,124900.94,8,400,,,
break_continue,html.Screen,4_7_2,2023-10-31T22:20:30.709Z,,0,,,NaN,,,,,,false,,,,124899.40000003576,124899.10000002384,,124899.10000002384,,124900.94,8,400,,,
sequence,flow.Sequence,4_7,2023-10-31T22:20:30.709Z,,0,,,6352.3870000238385,completion,,,,,false,,,,124899.5,124899.10000002384,118542.469,118545.20000004768,118546.713,124900.94,8,400,,,
trial,html.Screen,4_8_0,2023-10-31T22:20:38.390Z,,0,1,,7679.059999999998,response,ISIC_0066358.JPG,5,ISIC_0030360.JPG,ISIC_0030360.JPG,false,0,keypress(z),500,132580,132580,124896.803,124899.5,124900.94,132584.426,8,400,9,,ISIC_0066358.JPG
break,html.Screen,4_8_1,2023-10-31T22:20:38.390Z,,0,,,NaN,,,,,,false,,,,132580.30000001192,132580.20000004768,,132580.10000002384,,132584.426,8,400,,,
break_continue,html.Screen,4_8_2,2023-10-31T22:20:38.391Z,,0,,,NaN,,,,,,false,,,,132580.60000002384,132580.60000002384,,132580.5,,132584.426,8,400,,,
sequence,flow.Sequence,4_8,2023-10-31T22:20:38.391Z,,0,,,7679.6600000238395,completion,,,,,false,,,,132580.70000004768,132580.60000002384,124896.803,124899.5,124900.94,132584.426,8,400,,,
trial,html.Screen,4_9_0,2023-10-31T22:20:46.424Z,,0,1,,8029.073999999993,response,ISIC_0004140.JPG,5,ISIC_0065206.JPG,ISIC_0065206.JPG,false,0,keypress(z),500,140613.70000004768,140613.5,132579.96,132580.70000004768,132584.426,140617.607,8,400,10,,ISIC_0004140.JPG
break,html.Screen,4_9_1,2023-10-31T22:20:46.424Z,,0,,,NaN,,,,,,false,,,,140613.90000003576,140613.90000003576,,140613.70000004768,,140617.607,8,400,,,
break_continue,html.Screen,4_9_2,2023-10-31T22:20:46.424Z,,0,,,NaN,,,,,,false,,,,140614.30000001192,140614.10000002384,,140614.10000002384,,140617.607,8,400,,,
sequence,flow.Sequence,4_9,2023-10-31T22:20:46.424Z,,0,,,8029.674000023835,completion,,,,,false,,,,140614.60000002384,140614.10000002384,132579.96,132580.70000004768,132584.426,140617.607,8,400,,,
trial,html.Screen,4_10_0,2023-10-31T22:20:50.762Z,,0,1,,4334.793000035774,response,ISIC_0012334.JPG,5,ISIC_7612992.JPG,ISIC_0012334.JPG,false,1,keypress(m),500,144952.60000002384,144952.40000003576,140613.334,140614.60000002384,140617.607,144955.072,8,400,11,,ISIC_7612992.JPG
break,html.Screen,4_10_1,2023-10-31T22:20:50.763Z,,0,,,NaN,,,,,,false,,,,144952.90000003576,144952.80000001192,,144952.60000002384,,144955.072,8,400,,,
break_continue,html.Screen,4_10_2,2023-10-31T22:20:50.763Z,,0,,,NaN,,,,,,false,,,,144953,144953,,144952.90000003576,,144955.072,8,400,,,
sequence,flow.Sequence,4_10,2023-10-31T22:20:50.763Z,,0,,,4335.393000000011,completion,,,,,false,,,,144953.10000002384,144953,140613.334,140614.60000002384,140617.607,144955.072,8,400,,,
trial,html.Screen,4_11_0,2023-10-31T22:20:54.012Z,,0,1,,3247.4280000000144,response,ISIC_0064376.JPG,5,ISIC_0029581.JPG,ISIC_0064376.JPG,false,1,keypress(m),500,148202.60000002384,148202.5,144950.855,144953.10000002384,144955.072,148205.138,8,400,12,,ISIC_0029581.JPG
break,html.Screen,4_11_1,2023-10-31T22:20:54.013Z,,0,,,NaN,,,,,,false,,,,148202.80000001192,148202.80000001192,,148202.60000002384,,148205.138,8,400,,,
break_continue,html.Screen,4_11_2,2023-10-31T22:20:54.013Z,,0,,,NaN,,,,,,false,,,,148203,148202.90000003576,,148202.90000003576,,148205.138,8,400,,,
sequence,flow.Sequence,4_11,2023-10-31T22:20:54.013Z,,0,,,3247.828000035777,completion,,,,,false,,,,148203,148202.90000003576,144950.855,144953.10000002384,144955.072,148205.138,8,400,,,
trial,html.Screen,4_12_0,2023-10-31T22:20:57.214Z,,0,1,,3198.6620000119146,response,ISIC_0047022.JPG,5,ISIC_5679942.JPG,ISIC_0047022.JPG,false,1,keypress(m),500,151403.90000003576,151403.80000001192,148201.049,148203.10000002384,148205.138,151411.02,8,400,13,,ISIC_5679942.JPG
break,html.Screen,4_12_1,2023-10-31T22:20:57.214Z,,0,,,NaN,,,,,,false,,,,151404.10000002384,151404.10000002384,,151404,,151411.02,8,400,,,
break_continue,html.Screen,4_12_2,2023-10-31T22:20:57.214Z,,0,,,NaN,,,,,,false,,,,151404.20000004768,151404.20000004768,,151404.20000004768,,151411.02,8,400,,,
sequence,flow.Sequence,4_12,2023-10-31T22:20:57.214Z,,0,,,3199.0620000476774,completion,,,,,false,,,,151404.30000001192,151404.20000004768,148201.049,148203.10000002384,148205.138,151411.02,8,400,,,
trial,html.Screen,4_13_0,2023-10-31T22:21:00.592Z,,0,1,,3370.5800000238523,response,ISIC_0033501.JPG,5,ISIC_6673506.JPG,ISIC_6673506.JPG,false,0,keypress(z),500,154781.70000004768,154781.60000002384,151400.843,151404.30000001192,151411.02,154784.307,8,400,14,,ISIC_0033501.JPG
break,html.Screen,4_13_1,2023-10-31T22:21:00.592Z,,0,,,NaN,,,,,,false,,,,154781.90000003576,154781.80000001192,,154781.80000001192,,154784.307,8,400,,,
break_continue,html.Screen,4_13_2,2023-10-31T22:21:00.592Z,,0,,,NaN,,,,,,false,,,,154782.20000004768,154782.10000002384,,154782,,154784.307,8,400,,,
sequence,flow.Sequence,4_13,2023-10-31T22:21:00.592Z,,0,,,3371.0800000238523,completion,,,,,false,,,,154782.20000004768,154782.10000002384,151400.843,151404.30000001192,151411.02,154784.307,8,400,,,
trial,html.Screen,4_14_0,2023-10-31T22:21:03.586Z,,0,1,,2991.1929999999993,response,ISIC_7912104.JPG,5,ISIC_0028655.JPG,ISIC_0028655.JPG,false,0,keypress(z),500,157775.70000004768,157775.5,154780.162,154782.20000004768,154784.307,157780.297,8,400,15,,ISIC_7912104.JPG
break,html.Screen,4_14_1,2023-10-31T22:21:03.586Z,,0,,,NaN,,,,,,false,,,,157775.90000003576,157775.80000001192,,157775.80000001192,,157780.297,8,400,,,
break_continue,html.Screen,4_14_2,2023-10-31T22:21:03.586Z,,0,,,NaN,,,,,,false,,,,157776.10000002384,157776.10000002384,,157776,,157780.297,8,400,,,
sequence,flow.Sequence,4_14,2023-10-31T22:21:03.586Z,,0,,,2991.793000023841,completion,,,,,false,,,,157776.20000004768,157776.10000002384,154780.162,154782.20000004768,154784.307,157780.297,8,400,,,
trial,html.Screen,4_15_0,2023-10-31T22:21:06.676Z,,0,1,,3086.1030000357714,response,ISIC_4436342.JPG,4,ISIC_0033925.JPG,ISIC_4436342.JPG,false,1,keypress(m),500,160866.60000002384,160866.40000003576,157775.871,157776.20000004768,157780.297,160873.381,8,400,16,,ISIC_0033925.JPG
break,html.Screen,4_15_1,2023-10-31T22:21:06.677Z,,0,,,NaN,,,,,,false,,,,160866.90000003576,160866.70000004768,,160866.70000004768,,160873.381,8,400,,,
break_continue,html.Screen,4_15_2,2023-10-31T22:21:06.677Z,,0,,,NaN,,,,,,false,,,,160867.10000002384,160867,,160867,,160873.381,8,400,,,
sequence,flow.Sequence,4_15,2023-10-31T22:21:06.677Z,,0,,,3086.7030000000086,completion,,,,,false,,,,160867.10000002384,160867,157775.871,157776.20000004768,157780.297,160873.381,8,400,,,
trial,html.Screen,4_16_0,2023-10-31T22:21:09.590Z,,0,1,,2906.919000011927,response,ISIC_0064932.JPG,6,ISIC_9445053.JPG,ISIC_9445053.JPG,false,0,keypress(z),500,163780.30000001192,163780.30000001192,160863.375,160867.20000004768,160873.381,163784.459,8,400,17,,ISIC_0064932.JPG
break,html.Screen,4_16_1,2023-10-31T22:21:09.590Z,,0,,,NaN,,,,,,false,,,,163780.5,163780.5,,163780.40000003576,,163784.459,8,400,,,
break_continue,html.Screen,4_16_2,2023-10-31T22:21:09.591Z,,0,,,NaN,,,,,,false,,,,163780.80000001192,163780.70000004768,,163780.60000002384,,163784.459,8,400,,,
sequence,flow.Sequence,4_16,2023-10-31T22:21:09.591Z,,0,,,2907.3190000476898,completion,,,,,false,,,,163780.80000001192,163780.70000004768,160863.375,160867.20000004768,160873.381,163784.459,8,400,,,
trial,html.Screen,4_17_0,2023-10-31T22:21:12.744Z,,0,1,,3149.8410000119184,response,ISIC_8685259.JPG,5,ISIC_6487069.JPG,ISIC_8685259.JPG,false,1,keypress(m),500,166934.40000003576,166934.30000001192,163780.034,163780.90000003576,163784.459,166938.632,8,400,18,,ISIC_6487069.JPG
break,html.Screen,4_17_1,2023-10-31T22:21:12.744Z,,0,,,NaN,,,,,,false,,,,166934.60000002384,166934.5,,166934.40000003576,,166938.632,8,400,,,
break_continue,html.Screen,4_17_2,2023-10-31T22:21:12.745Z,,0,,,NaN,,,,,,false,,,,166934.80000001192,166934.70000004768,,166934.70000004768,,166938.632,8,400,,,
sequence,flow.Sequence,4_17,2023-10-31T22:21:12.745Z,,0,,,3150.241000047681,completion,,,,,false,,,,166934.80000001192,166934.70000004768,163780.034,163780.80000001192,163784.459,166938.632,8,400,,,
trial,html.Screen,4_18_0,2023-10-31T22:21:17.513Z,,0,1,,4764.668000011909,response,ISIC_0060308.JPG,5,ISIC_0024256.JPG,ISIC_0060308.JPG,false,1,keypress(m),500,171703.40000003576,171703.30000001192,166934.357,166934.90000003576,166938.632,171705.144,8,400,19,,ISIC_0024256.JPG
break,html.Screen,4_18_1,2023-10-31T22:21:17.513Z,,0,,,NaN,,,,,,false,,,,171703.60000002384,171703.5,,171703.40000003576,,171705.144,8,400,,,
break_continue,html.Screen,4_18_2,2023-10-31T22:21:17.514Z,,0,,,NaN,,,,,,false,,,,171703.90000003576,171703.80000001192,,171703.70000004768,,171705.144,8,400,,,
sequence,flow.Sequence,4_18,2023-10-31T22:21:17.514Z,,0,,,4765.168000011909,completion,,,,,false,,,,171703.90000003576,171703.80000001192,166934.357,166934.90000003576,166938.632,171705.144,8,400,,,
trial,html.Screen,4_19_0,2023-10-31T22:21:21.195Z,,0,1,,3680.0560000476835,response,ISIC_1752943.JPG,5,ISIC_2673511.JPG,ISIC_1752943.JPG,false,1,keypress(m),500,175385.30000001192,175385.20000004768,171700.843,171703.90000003576,171705.144,175388.557,8,400,20,,ISIC_2673511.JPG
break,html.Screen,4_19_1,2023-10-31T22:21:21.195Z,,0,,,NaN,,,,,,false,,,,175385.60000002384,175385.60000002384,,175385.40000003576,,175388.557,8,400,,,
break_continue,html.Screen,4_19_2,2023-10-31T22:21:21.196Z,,0,,,NaN,,,,,,false,,,,175385.70000004768,175385.70000004768,,175385.60000002384,,175388.557,8,400,,,
sequence,flow.Sequence,4_19,2023-10-31T22:21:21.196Z,,0,,,3680.5560000476835,completion,,,,,false,,,,175385.80000001192,175385.70000004768,171700.843,171703.90000003576,171705.144,175388.557,8,400,,,
trial,html.Screen,4_20_0,2023-10-31T22:21:24.461Z,,0,1,,3262.4429999999993,response,ISIC_0069645.JPG,4,ISIC_2221217.JPG,ISIC_2221217.JPG,false,0,keypress(z),500,178651.10000002384,178651,175384.205,175385.80000001192,175388.557,178655.23,8,400,21,,ISIC_0069645.JPG
break,html.Screen,4_20_1,2023-10-31T22:21:24.461Z,,0,,,NaN,,,,,,false,,,,178651.40000003576,178651.30000001192,,178651.20000004768,,178655.23,8,400,,,
break_continue,html.Screen,4_20_2,2023-10-31T22:21:24.461Z,,0,,,NaN,,,,,,false,,,,178651.5,178651.5,,178651.40000003576,,178655.23,8,400,,,
sequence,flow.Sequence,4_20,2023-10-31T22:21:24.461Z,,0,,,3262.9429999999993,completion,,,,,false,,,,178651.60000002384,178651.5,175384.205,175385.80000001192,175388.557,178655.23,8,400,,,
trial,html.Screen,4_21_0,2023-10-31T22:21:28.511Z,,0,1,,4046.0700000119105,response,ISIC_4116770.JPG,6,ISIC_0062087.JPG,ISIC_0062087.JPG,false,0,keypress(z),500,182701.40000003576,182701.30000001192,178650.882,178651.70000004768,178655.23,182705.324,8,400,22,,ISIC_4116770.JPG
break,html.Screen,4_21_1,2023-10-31T22:21:28.511Z,,0,,,NaN,,,,,,false,,,,182701.60000002384,182701.5,,182701.40000003576,,182705.324,8,400,,,
break_continue,html.Screen,4_21_2,2023-10-31T22:21:28.512Z,,0,,,NaN,,,,,,false,,,,182701.70000004768,182701.70000004768,,182701.60000002384,,182705.324,8,400,,,
sequence,flow.Sequence,4_21,2023-10-31T22:21:28.512Z,,0,,,4046.4700000476732,completion,,,,,false,,,,182701.90000003576,182701.70000004768,178650.882,178651.70000004768,178655.23,182705.324,8,400,,,
trial,html.Screen,4_22_0,2023-10-31T22:21:31.713Z,,0,1,,3197.8760000476905,response,ISIC_5755836.JPG,4,ISIC_0009187.JPG,ISIC_0009187.JPG,false,0,keypress(z),500,185903.20000004768,185903.20000004768,182700.904,182701.90000003576,182705.324,185905.124,8,400,23,,ISIC_5755836.JPG
break,html.Screen,4_22_1,2023-10-31T22:21:31.713Z,,0,,,NaN,,,,,,false,,,,185903.40000003576,185903.30000001192,,185903.20000004768,,185905.124,8,400,,,
break_continue,html.Screen,4_22_2,2023-10-31T22:21:31.713Z,,0,,,NaN,,,,,,false,,,,185903.60000002384,185903.5,,185903.40000003576,,185905.124,8,400,,,
sequence,flow.Sequence,4_22,2023-10-31T22:21:31.713Z,,0,,,3198.1760000000068,completion,,,,,false,,,,185903.70000004768,185903.5,182700.904,182701.90000003576,182705.324,185905.124,8,400,,,
trial,html.Screen,4_23_0,2023-10-31T22:21:34.499Z,,0,1,,2783.976000023831,response,ISIC_7881017.JPG,6,ISIC_2563948.JPG,ISIC_2563948.JPG,false,0,keypress(z),500,188689.10000002384,188689.10000002384,185900.894,185903.70000004768,185905.124,188692.666,8,400,24,,ISIC_7881017.JPG
break,html.Screen,4_23_1,2023-10-31T22:21:34.499Z,,0,,,NaN,,,,,,false,,,,188689.40000003576,188689.30000001192,,188689.20000004768,,188692.666,8,400,,,
break_continue,html.Screen,4_23_2,2023-10-31T22:21:34.499Z,,0,,,NaN,,,,,,false,,,,188689.5,188689.5,,188689.40000003576,,188692.666,8,400,,,
sequence,flow.Sequence,4_23,2023-10-31T22:21:34.499Z,,0,,,2784.3759999999893,completion,,,,,false,,,,188689.60000002384,188689.5,185900.894,185903.70000004768,185905.124,188692.666,8,400,,,
trial,html.Screen,4_24_0,2023-10-31T22:21:37.749Z,,0,1,,3246.1340000119235,response,ISIC_0000179.JPG,5,ISIC_4052597.JPG,ISIC_0000179.JPG,false,1,keypress(m),500,191938.90000003576,191938.80000001192,188688.489,188689.60000002384,188692.666,191942.731,8,400,25,,ISIC_4052597.JPG
break,html.Screen,4_24_1,2023-10-31T22:21:37.749Z,,0,,,NaN,,,,,,false,,,,191939.10000002384,191939,,191938.90000003576,,191942.731,8,400,,,
break_continue,html.Screen,4_24_2,2023-10-31T22:21:37.749Z,,0,,,NaN,,,,,,false,,,,191939.30000001192,191939.30000001192,,191939.10000002384,,191942.731,8,400,,,
sequence,flow.Sequence,4_24,2023-10-31T22:21:37.749Z,,0,,,3246.6340000119235,completion,,,,,false,,,,191939.40000003576,191939.30000001192,188688.489,188689.60000002384,188692.666,191942.731,8,400,,,
trial,html.Screen,4_25_0,2023-10-31T22:21:40.599Z,,0,1,,2846.369000023842,response,ISIC_7662910.JPG,5,ISIC_2784965.JPG,ISIC_7662910.JPG,false,1,keypress(m),500,194789.20000004768,194789.10000002384,191938.364,191939.40000003576,191942.731,194792.65,8,400,26,,ISIC_2784965.JPG
break,html.Screen,4_25_1,2023-10-31T22:21:40.599Z,,0,,,NaN,,,,,,false,,,,194789.40000003576,194789.30000001192,,194789.20000004768,,194792.65,8,400,,,
break_continue,html.Screen,4_25_2,2023-10-31T22:21:40.599Z,,0,,,NaN,,,,,,false,,,,194789.5,194789.5,,194789.5,,194792.65,8,400,,,
sequence,flow.Sequence,4_25,2023-10-31T22:21:40.599Z,,0,,,2846.7690000000002,completion,,,,,false,,,,194789.60000002384,194789.5,191938.364,191939.40000003576,191942.731,194792.65,8,400,,,
trial,html.Screen,4_26_0,2023-10-31T22:21:46.904Z,,0,1,,6301.750000035769,response,ISIC_5248948.JPG,5,ISIC_8002729.JPG,ISIC_5248948.JPG,false,1,keypress(m),500,201094.5,201094.40000003576,194788.407,194789.60000002384,194792.65,201096.874,8,400,27,,ISIC_8002729.JPG
break,html.Screen,4_26_1,2023-10-31T22:21:46.905Z,,0,,,NaN,,,,,,false,,,,201094.70000004768,201094.60000002384,,201094.5,,201096.874,8,400,,,
break_continue,html.Screen,4_26_2,2023-10-31T22:21:46.905Z,,0,,,NaN,,,,,,false,,,,201094.70000004768,201094.70000004768,,201094.70000004768,,201096.874,8,400,,,
sequence,flow.Sequence,4_26,2023-10-31T22:21:46.905Z,,0,,,6302.0500000476895,completion,,,,,false,,,,201094.80000001192,201094.70000004768,194788.407,194789.60000002384,194792.65,201096.874,8,400,,,
trial,html.Screen,4_27_0,2023-10-31T22:21:52.474Z,,0,1,,5567.226000023831,response,ISIC_9754098.JPG,5,ISIC_0004955.JPG,ISIC_9754098.JPG,false,1,keypress(m),500,206664.20000004768,206664.10000002384,201092.717,201094.80000001192,201096.874,206667.684,8,400,28,,ISIC_0004955.JPG
break,html.Screen,4_27_1,2023-10-31T22:21:52.474Z,,0,,,NaN,,,,,,false,,,,206664.40000003576,206664.40000003576,,206664.30000001192,,206667.684,8,400,,,
break_continue,html.Screen,4_27_2,2023-10-31T22:21:52.474Z,,0,,,NaN,,,,,,false,,,,206664.60000002384,206664.5,,206664.40000003576,,206667.684,8,400,,,
sequence,flow.Sequence,4_27,2023-10-31T22:21:52.474Z,,0,,,5567.625999999989,completion,,,,,false,,,,206664.70000004768,206664.5,201092.717,201094.80000001192,201096.874,206667.684,8,400,,,
trial,html.Screen,4_28_0,2023-10-31T22:21:55.404Z,,0,1,,2926.8159999999916,response,ISIC_0032504.JPG,5,ISIC_0025450.JPG,ISIC_0032504.JPG,false,1,keypress(m),500,209594.60000002384,209594.5,206663.365,206665,206667.684,209596.834,8,400,29,,ISIC_0025450.JPG
break,html.Screen,4_28_1,2023-10-31T22:21:55.405Z,,0,,,NaN,,,,,,false,,,,209594.80000001192,209594.80000001192,,209594.70000004768,,209596.834,8,400,,,
break_continue,html.Screen,4_28_2,2023-10-31T22:21:55.405Z,,0,,,NaN,,,,,,false,,,,209595.10000002384,209595.10000002384,,209594.90000003576,,209596.834,8,400,,,
sequence,flow.Sequence,4_28,2023-10-31T22:21:55.405Z,,0,,,2927.4160000238335,completion,,,,,false,,,,209595.10000002384,209595.10000002384,206663.365,206664.70000004768,206667.684,209596.834,8,400,,,
trial,html.Screen,4_29_0,2023-10-31T22:21:57.999Z,,0,1,,2592.06600003576,response,ISIC_6828892.JPG,5,ISIC_1484659.JPG,ISIC_1484659.JPG,false,0,keypress(z),500,212189,212188.90000003576,209592.723,209595.30000001192,209596.834,212192.751,8,400,30,,ISIC_6828892.JPG
break,html.Screen,4_29_1,2023-10-31T22:21:57.999Z,,0,,,NaN,,,,,,false,,,,212189.20000004768,212189.20000004768,,212189,,212192.751,8,400,,,
break_continue,html.Screen,4_29_2,2023-10-31T22:21:57.999Z,,0,,,NaN,,,,,,false,,,,212189.40000003576,212189.30000001192,,212189.20000004768,,212192.751,8,400,,,
sequence,flow.Sequence,4_29,2023-10-31T22:21:57.999Z,,0,,,2592.4660000119184,completion,,,,,false,,,,212189.40000003576,212189.30000001192,209592.723,209595.30000001192,209596.834,212192.751,8,400,,,
trial,html.Screen,4_30_0,2023-10-31T22:22:01.696Z,,0,1,,3693.5490000119316,response,ISIC_0065883.JPG,5,ISIC_5955057.JPG,ISIC_0065883.JPG,false,1,keypress(m),500,215886.30000001192,215886.30000001192,212188.433,212189.40000003576,212192.751,215888.54,8,400,31,,ISIC_5955057.JPG
break,html.Screen,4_30_1,2023-10-31T22:22:01.696Z,,0,,,NaN,,,,,,false,,,,215886.60000002384,215886.5,,215886.40000003576,,215888.54,8,400,,,
break_continue,html.Screen,4_30_2,2023-10-31T22:22:01.697Z,,0,,,NaN,,,,,,false,,,,215886.70000004768,215886.70000004768,,215886.60000002384,,215888.54,8,400,,,
sequence,flow.Sequence,4_30,2023-10-31T22:22:01.697Z,,0,,,3693.9490000476944,completion,,,,,false,,,,215886.80000001192,215886.70000004768,212188.433,212189.40000003576,212192.751,215888.54,8,400,,,
trial,html.Screen,4_31_0,2023-10-31T22:22:04.451Z,,0,1,,2752.1600000476756,response,ISIC_0032624.JPG,5,ISIC_4938638.JPG,ISIC_0032624.JPG,false,1,keypress(m),500,218640.70000004768,218640.70000004768,215884.265,215886.90000003576,215888.54,218642.669,8,400,32,,ISIC_4938638.JPG
break,html.Screen,4_31_1,2023-10-31T22:22:04.451Z,,0,,,NaN,,,,,,false,,,,218641,218641,,218640.80000001192,,218642.669,8,400,,,
break_continue,html.Screen,4_31_2,2023-10-31T22:22:04.451Z,,0,,,NaN,,,,,,false,,,,218641.20000004768,218641.20000004768,,218641.10000002384,,218642.669,8,400,,,
sequence,flow.Sequence,4_31,2023-10-31T22:22:04.451Z,,0,,,2752.6600000476756,completion,,,,,false,,,,218641.30000001192,218641.20000004768,215884.265,215886.90000003576,215888.54,218642.669,8,400,,,
trial,html.Screen,4_32_0,2023-10-31T22:22:07.509Z,,0,1,,3056.5310000476893,response,ISIC_9876515.JPG,6,ISIC_0064694.JPG,ISIC_9876515.JPG,false,1,keypress(m),500,221699.30000001192,221699.20000004768,218638.438,218641.30000001192,218642.669,221701.027,8,400,33,,ISIC_0064694.JPG
break,html.Screen,4_32_1,2023-10-31T22:22:07.509Z,,0,,,NaN,,,,,,false,,,,221699.60000002384,221699.5,,221699.40000003576,,221701.027,8,400,,,
break_continue,html.Screen,4_32_2,2023-10-31T22:22:07.510Z,,0,,,NaN,,,,,,false,,,,221699.80000001192,221699.80000001192,,221699.70000004768,,221701.027,8,400,,,
sequence,flow.Sequence,4_32,2023-10-31T22:22:07.510Z,,0,,,3057.1310000119265,completion,,,,,false,,,,221699.90000003576,221699.80000001192,218638.438,218641.30000001192,218642.669,221701.027,8,400,,,
trial,html.Screen,4_33_0,2023-10-31T22:22:10.327Z,,0,1,,2815.972999999998,response,ISIC_0027171.JPG,5,ISIC_4118762.JPG,ISIC_4118762.JPG,false,0,keypress(z),500,224517.20000004768,224517,221696.762,221699.90000003576,221701.027,224523.597,8,400,34,,ISIC_0027171.JPG
break,html.Screen,4_33_1,2023-10-31T22:22:10.327Z,,0,,,NaN,,,,,,false,,,,224517.30000001192,224517.30000001192,,224517.20000004768,,224523.597,8,400,,,
break_continue,html.Screen,4_33_2,2023-10-31T22:22:10.327Z,,0,,,NaN,,,,,,false,,,,224517.5,224517.40000003576,,224517.40000003576,,224523.597,8,400,,,
sequence,flow.Sequence,4_33,2023-10-31T22:22:10.327Z,,0,,,2816.373000035761,completion,,,,,false,,,,224517.60000002384,224517.40000003576,221696.762,221699.90000003576,221701.027,224523.597,8,400,,,
trial,html.Screen,4_34_0,2023-10-31T22:22:14.936Z,,0,1,,4602.603000047675,response,ISIC_0026103.JPG,6,ISIC_6734679.JPG,ISIC_0026103.JPG,false,1,keypress(m),500,229126.40000003576,229126.20000004768,224513.44,224517.70000004768,224523.597,229130.34,8,400,35,,ISIC_6734679.JPG
break,html.Screen,4_34_1,2023-10-31T22:22:14.936Z,,0,,,NaN,,,,,,false,,,,229126.60000002384,229126.5,,229126.40000003576,,229130.34,8,400,,,
break_continue,html.Screen,4_34_2,2023-10-31T22:22:14.937Z,,0,,,NaN,,,,,,false,,,,229126.70000004768,229126.70000004768,,229126.70000004768,,229130.34,8,400,,,
sequence,flow.Sequence,4_34,2023-10-31T22:22:14.937Z,,0,,,4603.103000047675,completion,,,,,false,,,,229126.90000003576,229126.70000004768,224513.44,224517.70000004768,224523.597,229130.34,8,400,,,
trial,html.Screen,4_35_0,2023-10-31T22:22:18.299Z,,0,1,,3358.7600000238454,response,ISIC_0032494.JPG,5,ISIC_5909451.JPG,ISIC_5909451.JPG,false,0,keypress(z),500,232489.10000002384,232489.10000002384,229126.056,229126.90000003576,229130.34,232492.852,8,400,36,,ISIC_0032494.JPG
break,html.Screen,4_35_1,2023-10-31T22:22:18.299Z,,0,,,NaN,,,,,,false,,,,232489.40000003576,232489.40000003576,,232489.30000001192,,232492.852,8,400,,,
break_continue,html.Screen,4_35_2,2023-10-31T22:22:18.299Z,,0,,,NaN,,,,,,false,,,,232489.5,232489.5,,232489.40000003576,,232492.852,8,400,,,
sequence,flow.Sequence,4_35,2023-10-31T22:22:18.299Z,,0,,,3359.1600000000035,completion,,,,,false,,,,232489.60000002384,232489.5,229126.056,229126.90000003576,229130.34,232492.852,8,400,,,
trial,html.Screen,4_36_0,2023-10-31T22:22:21.741Z,,0,1,,3438.6479999999865,response,ISIC_5313574.JPG,5,ISIC_1175776.JPG,ISIC_5313574.JPG,false,1,keypress(m),500,235931.60000002384,235931.5,232488.455,232489.70000004768,232492.852,235934.36,8,400,37,,ISIC_1175776.JPG
break,html.Screen,4_36_1,2023-10-31T22:22:21.742Z,,0,,,NaN,,,,,,false,,,,235931.90000003576,235931.80000001192,,235931.70000004768,,235934.36,8,400,,,
break_continue,html.Screen,4_36_2,2023-10-31T22:22:21.742Z,,0,,,NaN,,,,,,false,,,,235932,235931.90000003576,,235931.90000003576,,235934.36,8,400,,,
sequence,flow.Sequence,4_36,2023-10-31T22:22:21.742Z,,0,,,3439.0480000357493,completion,,,,,false,,,,235932.10000002384,235931.90000003576,232488.455,232489.70000004768,232492.852,235934.36,8,400,,,
trial,html.Screen,4_37_0,2023-10-31T22:22:24.319Z,,0,1,,2574.740000023856,response,ISIC_0031417.JPG,5,ISIC_0060659.JPG,ISIC_0060659.JPG,false,0,keypress(z),500,238509.30000001192,238509.10000002384,235930.117,235932.10000002384,235934.36,238513.557,8,400,38,,ISIC_0031417.JPG
break,html.Screen,4_37_1,2023-10-31T22:22:24.319Z,,0,,,NaN,,,,,,false,,,,238509.5,238509.40000003576,,238509.30000001192,,238513.557,8,400,,,
break_continue,html.Screen,4_37_2,2023-10-31T22:22:24.319Z,,0,,,NaN,,,,,,false,,,,238509.60000002384,238509.60000002384,,238509.60000002384,,238513.557,8,400,,,
sequence,flow.Sequence,4_37,2023-10-31T22:22:24.320Z,,0,,,2575.240000023856,completion,,,,,false,,,,238509.60000002384,238509.60000002384,235930.117,235932.10000002384,235934.36,238513.557,8,400,,,
trial,html.Screen,4_38_0,2023-10-31T22:22:27.632Z,,0,1,,3309.043000023841,response,ISIC_8509219.JPG,4,ISIC_1568268.JPG,ISIC_8509219.JPG,false,1,keypress(m),500,241822.70000004768,241822.60000002384,238509.347,238509.70000004768,238513.557,241826.205,8,400,39,,ISIC_1568268.JPG
break,html.Screen,4_38_1,2023-10-31T22:22:27.633Z,,0,,,NaN,,,,,,false,,,,241823,241822.90000003576,,241822.80000001192,,241826.205,8,400,,,
break_continue,html.Screen,4_38_2,2023-10-31T22:22:27.633Z,,0,,,NaN,,,,,,false,,,,241823.10000002384,241823.10000002384,,241823,,241826.205,8,400,,,
sequence,flow.Sequence,4_38,2023-10-31T22:22:27.633Z,,0,,,3309.543000023841,completion,,,,,false,,,,241823.10000002384,241823.10000002384,238509.347,238509.70000004768,238513.557,241826.205,8,400,,,
trial,html.Screen,4_39_0,2023-10-31T22:22:30.291Z,,0,1,,2654.6950000357756,response,ISIC_5181177.JPG,5,ISIC_2071966.JPG,ISIC_2071966.JPG,false,0,keypress(z),500,244481.10000002384,244480.90000003576,241821.783,241823.20000004768,241826.205,244484.361,8,400,40,,ISIC_5181177.JPG
break,html.Screen,4_39_1,2023-10-31T22:22:30.291Z,,0,,,NaN,,,,,,false,,,,244481.30000001192,244481.20000004768,,244481.10000002384,,244484.361,8,400,,,
break_continue,html.Screen,4_39_2,2023-10-31T22:22:30.291Z,,0,,,NaN,,,,,,false,,,,244481.5,244481.30000001192,,244481.30000001192,,244484.361,8,400,,,
sequence,flow.Sequence,4_39,2023-10-31T22:22:30.291Z,,0,,,2655.0950000119337,completion,,,,,false,,,,244481.60000002384,244481.30000001192,241821.783,241823.20000004768,241826.205,244484.361,8,400,,,
trial,html.Screen,4_40_0,2023-10-31T22:22:33.428Z,,0,1,,3134.3390000476793,response,ISIC_0027274.JPG,5,ISIC_3193774.JPG,ISIC_3193774.JPG,false,0,keypress(z),500,247618.80000001192,247618.70000004768,244480.107,244481.60000002384,244484.361,247621.835,8,400,41,,ISIC_0027274.JPG
break,html.Screen,4_40_1,2023-10-31T22:22:33.429Z,,0,,,NaN,,,,,,false,,,,247619.10000002384,247619,,247618.90000003576,,247621.835,8,400,,,
break_continue,html.Screen,4_40_2,2023-10-31T22:22:33.429Z,,0,,,NaN,,,,,,false,,,,247619.30000001192,247619.20000004768,,247619.20000004768,,247621.835,8,400,,,
sequence,flow.Sequence,4_40,2023-10-31T22:22:33.429Z,,0,,,3134.8390000476793,completion,,,,,false,,,,247619.30000001192,247619.20000004768,244480.107,244481.60000002384,244484.361,247621.835,8,400,,,
trial,html.Screen,4_41_0,2023-10-31T22:22:36.950Z,,0,1,,3518.565000035771,response,ISIC_9155465.JPG,5,ISIC_7215375.JPG,ISIC_9155465.JPG,false,1,keypress(m),500,251140.5,251140.40000003576,247617.614,247619.30000001192,247621.835,251142.716,8,400,42,,ISIC_7215375.JPG
break,html.Screen,4_41_1,2023-10-31T22:22:36.950Z,,0,,,NaN,,,,,,false,,,,251140.70000004768,251140.70000004768,,251140.60000002384,,251142.716,8,400,,,
break_continue,html.Screen,4_41_2,2023-10-31T22:22:36.951Z,,0,,,NaN,,,,,,false,,,,251140.90000003576,251140.90000003576,,251140.80000001192,,251142.716,8,400,,,
sequence,flow.Sequence,4_41,2023-10-31T22:22:36.951Z,,0,,,3519.065000035771,completion,,,,,false,,,,251141,251140.90000003576,247617.614,247619.30000001192,247621.835,251142.716,8,400,,,
trial,html.Screen,4_42_0,2023-10-31T22:22:42.153Z,,0,1,,5200.384000023856,response,ISIC_0430356.JPG,4,ISIC_2159510.JPG,ISIC_2159510.JPG,false,0,keypress(z),500,256343.20000004768,256343.10000002384,251138.457,251141,251142.716,256346.849,8,400,43,,ISIC_0430356.JPG
break,html.Screen,4_42_1,2023-10-31T22:22:42.153Z,,0,,,NaN,,,,,,false,,,,256343.5,256343.40000003576,,256343.30000001192,,256346.849,8,400,,,
break_continue,html.Screen,4_42_2,2023-10-31T22:22:42.153Z,,0,,,NaN,,,,,,false,,,,256343.70000004768,256343.70000004768,,256343.60000002384,,256346.849,8,400,,,
sequence,flow.Sequence,4_42,2023-10-31T22:22:42.153Z,,0,,,5200.984000047698,completion,,,,,false,,,,256343.80000001192,256343.70000004768,251138.457,251141,251142.716,256346.849,8,400,,,
trial,html.Screen,4_43_0,2023-10-31T22:22:45.195Z,,0,1,,3038.0510000357754,response,ISIC_3824206.JPG,4,ISIC_0929483.JPG,ISIC_0929483.JPG,false,0,keypress(z),500,259385,259384.90000003576,256342.599,256343.80000001192,256346.849,259388.664,8,400,44,,ISIC_3824206.JPG
break,html.Screen,4_43_1,2023-10-31T22:22:45.195Z,,0,,,NaN,,,,,,false,,,,259385.20000004768,259385.20000004768,,259385,,259388.664,8,400,,,
break_continue,html.Screen,4_43_2,2023-10-31T22:22:45.195Z,,0,,,NaN,,,,,,false,,,,259385.40000003576,259385.30000001192,,259385.20000004768,,259388.664,8,400,,,
sequence,flow.Sequence,4_43,2023-10-31T22:22:45.195Z,,0,,,3038.4510000119335,completion,,,,,false,,,,259385.5,259385.30000001192,256342.599,256343.80000001192,256346.849,259388.664,8,400,,,
trial,html.Screen,4_44_0,2023-10-31T22:22:48.956Z,,0,1,,3757.536000047694,response,ISIC_0003281.JPG,6,ISIC_2936321.JPG,ISIC_0003281.JPG,false,1,keypress(m),500,263146.3000000119,263146.2000000477,259384.29,259385.5,259388.664,263152.137,8,400,45,,ISIC_2936321.JPG
break,html.Screen,4_44_1,2023-10-31T22:22:48.956Z,,0,,,NaN,,,,,,false,,,,263146.60000002384,263146.60000002384,,263146.40000003576,,263152.137,8,400,,,
break_continue,html.Screen,4_44_2,2023-10-31T22:22:48.956Z,,0,,,NaN,,,,,,false,,,,263146.8000000119,263146.7000000477,,263146.7000000477,,263152.137,8,400,,,
sequence,flow.Sequence,4_44,2023-10-31T22:22:48.956Z,,0,,,3758.036000047694,completion,,,,,false,,,,263146.8000000119,263146.7000000477,259384.29,259385.5,259388.664,263152.137,8,400,,,
trial,html.Screen,4_45_0,2023-10-31T22:22:52.029Z,,0,1,,3067.263000035775,response,ISIC_0070342.JPG,5,ISIC_6755132.JPG,ISIC_0070342.JPG,false,1,keypress(m),500,266219.5,266219.40000003576,263142.594,263146.8000000119,263152.137,266226.186,8,400,46,,ISIC_6755132.JPG
break,html.Screen,4_45_1,2023-10-31T22:22:52.029Z,,0,,,NaN,,,,,,false,,,,266219.8000000119,266219.7000000477,,266219.60000002384,,266226.186,8,400,,,
break_continue,html.Screen,4_45_2,2023-10-31T22:22:52.029Z,,0,,,NaN,,,,,,false,,,,266219.90000003576,266219.8000000119,,266219.8000000119,,266226.186,8,400,,,
sequence,flow.Sequence,4_45,2023-10-31T22:22:52.030Z,,0,,,3067.663000011933,completion,,,,,false,,,,266219.90000003576,266219.8000000119,263142.594,263146.8000000119,263152.137,266226.186,8,400,,,
trial,html.Screen,4_46_0,2023-10-31T22:22:54.815Z,,0,1,,2779.414000023855,response,ISIC_0031717.JPG,5,ISIC_5568834.JPG,ISIC_0031717.JPG,false,1,keypress(m),500,269005.60000002384,269005.60000002384,266222.215,266220,266226.186,269009.44,8,400,47,,ISIC_5568834.JPG
break,html.Screen,4_46_1,2023-10-31T22:22:54.815Z,,0,,,NaN,,,,,,false,,,,269005.8000000119,269005.8000000119,,269005.60000002384,,269009.44,8,400,,,
break_continue,html.Screen,4_46_2,2023-10-31T22:22:54.816Z,,0,,,NaN,,,,,,false,,,,269006,269005.90000003576,,269005.90000003576,,269009.44,8,400,,,
sequence,flow.Sequence,4_46,2023-10-31T22:22:54.816Z,,0,,,2779.714000035776,completion,,,,,false,,,,269006,269005.90000003576,266222.215,266220,266226.186,269009.44,8,400,,,
trial,html.Screen,4_47_0,2023-10-31T22:22:58.641Z,,0,1,,3821.3600000119186,response,ISIC_0057164.JPG,5,ISIC_4352700.JPG,ISIC_0057164.JPG,false,1,keypress(m),500,272830.90000003576,272830.8000000119,269005.307,269006.10000002384,269009.44,272834.396,8,400,48,,ISIC_4352700.JPG
break,html.Screen,4_47_1,2023-10-31T22:22:58.641Z,,0,,,NaN,,,,,,false,,,,272831.10000002384,272831,,272830.90000003576,,272834.396,8,400,,,
break_continue,html.Screen,4_47_2,2023-10-31T22:22:58.641Z,,0,,,NaN,,,,,,false,,,,272831.3000000119,272831.2000000477,,272831.2000000477,,272834.396,8,400,,,
sequence,flow.Sequence,4_47,2023-10-31T22:22:58.641Z,,0,,,3821.7600000476814,completion,,,,,false,,,,272831.3000000119,272831.2000000477,269005.307,269006,269009.44,272834.396,8,400,,,
trial,html.Screen,4_48_0,2023-10-31T22:23:02.514Z,,0,1,,3870.103999999992,response,ISIC_1228845.JPG,5,ISIC_8659639.JPG,ISIC_8659639.JPG,false,0,keypress(z),500,276704.60000002384,276704.5,272830.161,272831.40000003576,272834.396,276710.592,8,400,49,,ISIC_1228845.JPG
break,html.Screen,4_48_1,2023-10-31T22:23:02.515Z,,0,,,NaN,,,,,,false,,,,276705,276704.8000000119,,276704.8000000119,,276710.592,8,400,,,
break_continue,html.Screen,4_48_2,2023-10-31T22:23:02.515Z,,0,,,NaN,,,,,,false,,,,276705.10000002384,276705,,276705,,276710.592,8,400,,,
sequence,flow.Sequence,4_48,2023-10-31T22:23:02.515Z,,0,,,3870.603999999992,completion,,,,,false,,,,276705.2000000477,276705,272830.161,272831.40000003576,272834.396,276710.592,8,400,,,
trial,html.Screen,4_49_0,2023-10-31T22:23:08.100Z,,0,1,,5579.208000011917,response,ISIC_5122220.JPG,5,ISIC_6550761.JPG,ISIC_6550761.JPG,false,0,keypress(z),500,282289.90000003576,282289.8000000119,276700.97,276705.3000000119,276710.592,282292.752,8,400,50,,ISIC_5122220.JPG
break,html.Screen,4_49_1,2023-10-31T22:23:18.099Z,,0,,,10000.110000000044,timeout,,,,,false,,,,292288.90000003576,292288.695,282288.498,282290,282292.752,292292.862,8,400,,,
break_continue,html.Screen,4_49_2,2023-10-31T22:23:19.443Z,,0,,,1336.03800003574,response,,,,,false,continue,keypress(Space),,293632.90000003576,293628.90000003576,292288.695,292289,292292.862,293640.266,8,400,,,
sequence,flow.Sequence,4_49,2023-10-31T22:23:19.443Z,,0,,,16918.30800003576,completion,,,,,false,,,,293633,293628.90000003576,276700.97,276705.3000000119,276710.592,293640.266,8,400,,,
trial,html.Screen,4_50_0,2023-10-31T22:23:24.132Z,,0,2,,4682.034000011918,response,ISIC_0058837.JPG,6,ISIC_4448959.JPG,ISIC_0058837.JPG,false,1,keypress(m),500,298322.40000003576,298322.3000000119,293630.166,293633.40000003576,293640.266,298326.176,8,400,1,,ISIC_4448959.JPG
break,html.Screen,4_50_1,2023-10-31T22:23:24.132Z,,0,,,NaN,,,,,,false,,,,298322.7000000477,298322.60000002384,,298322.5,,298326.176,8,400,,,
break_continue,html.Screen,4_50_2,2023-10-31T22:23:24.133Z,,0,,,NaN,,,,,,false,,,,298322.90000003576,298322.8000000119,,298322.8000000119,,298326.176,8,400,,,
sequence,flow.Sequence,4_50,2023-10-31T22:23:24.133Z,,0,,,4682.534000011918,completion,,,,,false,,,,298322.90000003576,298322.8000000119,293630.166,293633,293640.266,298326.176,8,400,,,
trial,html.Screen,4_51_0,2023-10-31T22:23:27.270Z,,0,2,,3134.024000047706,response,ISIC_4540332.JPG,5,ISIC_6178099.JPG,ISIC_4540332.JPG,false,1,keypress(m),500,301460.3000000119,301460.2000000477,298321.834,298323,298326.176,301463.648,8,400,2,,ISIC_6178099.JPG
break,html.Screen,4_51_1,2023-10-31T22:23:27.270Z,,0,,,NaN,,,,,,false,,,,301460.60000002384,301460.40000003576,,301460.40000003576,,301463.648,8,400,,,
break_continue,html.Screen,4_51_2,2023-10-31T22:23:27.271Z,,0,,,NaN,,,,,,false,,,,301460.7000000477,301460.60000002384,,301460.60000002384,,301463.648,8,400,,,
sequence,flow.Sequence,4_51,2023-10-31T22:23:27.271Z,,0,,,3134.424000023864,completion,,,,,false,,,,301460.7000000477,301460.60000002384,298321.834,298323,298326.176,301463.648,8,400,,,
trial,html.Screen,4_52_0,2023-10-31T22:23:30.824Z,,0,2,,3550.8520000000135,response,ISIC_0032204.JPG,6,ISIC_0072631.JPG,ISIC_0032204.JPG,false,1,keypress(m),500,305014.60000002384,305014.5,301459.463,301460.8000000119,301463.648,305017.774,8,400,3,,ISIC_0072631.JPG
break,html.Screen,4_52_1,2023-10-31T22:23:30.825Z,,0,,,NaN,,,,,,false,,,,305014.90000003576,305014.8000000119,,305014.60000002384,,305017.774,8,400,,,
break_continue,html.Screen,4_52_2,2023-10-31T22:23:30.825Z,,0,,,NaN,,,,,,false,,,,305015.10000002384,305015,,305014.90000003576,,305017.774,8,400,,,
sequence,flow.Sequence,4_52,2023-10-31T22:23:30.825Z,,0,,,3551.3520000000135,completion,,,,,false,,,,305015.2000000477,305015,301459.463,301460.7000000477,301463.648,305017.774,8,400,,,
trial,html.Screen,4_53_0,2023-10-31T22:23:34.010Z,,0,2,,3182.526000011945,response,ISIC_0056984.JPG,5,ISIC_0056309.JPG,ISIC_0056984.JPG,false,1,keypress(m),500,308200.40000003576,308200.3000000119,305013.464,305015.2000000477,305017.774,308205.242,8,400,4,,ISIC_0056309.JPG
break,html.Screen,4_53_1,2023-10-31T22:23:34.011Z,,0,,,NaN,,,,,,false,,,,308200.7000000477,308200.60000002384,,308200.5,,308205.242,8,400,,,
break_continue,html.Screen,4_53_2,2023-10-31T22:23:34.011Z,,0,,,NaN,,,,,,false,,,,308200.8000000119,308200.7000000477,,308200.7000000477,,308205.242,8,400,,,
sequence,flow.Sequence,4_53,2023-10-31T22:23:34.011Z,,0,,,3182.926000047708,completion,,,,,false,,,,308200.90000003576,308200.7000000477,305013.464,305015.2000000477,305017.774,308205.242,8,400,,,
trial,html.Screen,4_54_0,2023-10-31T22:23:38.332Z,,0,2,,4316.7579999999725,response,ISIC_1432058.JPG,4,ISIC_0031935.JPG,ISIC_1432058.JPG,false,1,keypress(m),500,312522.10000002384,312522,308201.065,308200.90000003576,308205.242,312526.126,8,400,5,,ISIC_0031935.JPG
break,html.Screen,4_54_1,2023-10-31T22:23:38.332Z,,0,,,NaN,,,,,,false,,,,312522.3000000119,312522.2000000477,,312522.2000000477,,312526.126,8,400,,,
break_continue,html.Screen,4_54_2,2023-10-31T22:23:38.332Z,,0,,,NaN,,,,,,false,,,,312522.5,312522.40000003576,,312522.40000003576,,312526.126,8,400,,,
sequence,flow.Sequence,4_54,2023-10-31T22:23:38.332Z,,0,,,4317.158000035735,completion,,,,,false,,,,312522.60000002384,312522.40000003576,308201.065,308200.90000003576,308205.242,312526.126,8,400,,,
trial,html.Screen,4_55_0,2023-10-31T22:23:41.790Z,,0,2,,3454.4740000238526,response,ISIC_0032441.JPG,5,ISIC_4967639.JPG,ISIC_0032441.JPG,false,1,keypress(m),500,315980.60000002384,315980.60000002384,312521.827,312522.60000002384,312526.126,315984.606,8,400,6,,ISIC_4967639.JPG
break,html.Screen,4_55_1,2023-10-31T22:23:41.791Z,,0,,,NaN,,,,,,false,,,,315980.90000003576,315980.7000000477,,315980.7000000477,,315984.606,8,400,,,
break_continue,html.Screen,4_55_2,2023-10-31T22:23:41.791Z,,0,,,NaN,,,,,,false,,,,315981,315980.90000003576,,315980.90000003576,,315984.606,8,400,,,
sequence,flow.Sequence,4_55,2023-10-31T22:23:41.791Z,,0,,,3454.7740000357735,completion,,,,,false,,,,315981,315980.90000003576,312521.827,312522.60000002384,312526.126,315984.606,8,400,,,
trial,html.Screen,4_56_0,2023-10-31T22:23:45.472Z,,0,2,,3677.794000035734,response,ISIC_5699175.JPG,5,ISIC_0029433.JPG,ISIC_0029433.JPG,false,0,keypress(z),500,319662.5,319662.40000003576,315980.186,315981,315984.606,319669.329,8,400,7,,ISIC_5699175.JPG
break,html.Screen,4_56_1,2023-10-31T22:23:45.473Z,,0,,,NaN,,,,,,false,,,,319662.8000000119,319662.60000002384,,319662.60000002384,,319669.329,8,400,,,
break_continue,html.Screen,4_56_2,2023-10-31T22:23:45.473Z,,0,,,NaN,,,,,,false,,,,319662.8000000119,319662.8000000119,,319662.8000000119,,319669.329,8,400,,,
sequence,flow.Sequence,4_56,2023-10-31T22:23:45.473Z,,0,,,3678.194000011892,completion,,,,,false,,,,319663,319662.8000000119,315980.186,315981,315984.606,319669.329,8,400,,,
trial,html.Screen,4_57_0,2023-10-31T22:23:52.753Z,,0,2,,7274.170999999973,response,ISIC_0063289.JPG,5,ISIC_0024512.JPG,ISIC_0063289.JPG,false,1,keypress(m),500,326943.60000002384,326943.5,319659.378,319663,319669.329,326951.069,8,400,8,,ISIC_0024512.JPG
break,html.Screen,4_57_1,2023-10-31T22:23:52.754Z,,0,,,NaN,,,,,,false,,,,326943.90000003576,326943.8000000119,,326943.7000000477,,326951.069,8,400,,,
break_continue,html.Screen,4_57_2,2023-10-31T22:23:52.754Z,,0,,,NaN,,,,,,false,,,,326943.90000003576,326943.90000003576,,326943.90000003576,,326951.069,8,400,,,
sequence,flow.Sequence,4_57,2023-10-31T22:23:52.754Z,,0,,,7274.571000035736,completion,,,,,false,,,,326944,326943.90000003576,319659.378,319663,319669.329,326951.069,8,400,,,
trial,html.Screen,4_58_0,2023-10-31T22:23:56.579Z,,0,2,,3818.131000047666,response,ISIC_0033805.JPG,6,ISIC_4777536.JPG,ISIC_4777536.JPG,false,0,keypress(z),500,330769.3000000119,330769.2000000477,326946.907,326944.10000002384,326951.069,330771.927,8,400,9,,ISIC_0033805.JPG
break,html.Screen,4_58_1,2023-10-31T22:23:56.579Z,,0,,,NaN,,,,,,false,,,,330769.60000002384,330769.5,,330769.5,,330771.927,8,400,,,
break_continue,html.Screen,4_58_2,2023-10-31T22:23:56.580Z,,0,,,NaN,,,,,,false,,,,330769.7000000477,330769.7000000477,,330769.60000002384,,330771.927,8,400,,,
sequence,flow.Sequence,4_58,2023-10-31T22:23:56.580Z,,0,,,3818.631000047666,completion,,,,,false,,,,330769.8000000119,330769.7000000477,326946.907,326944.10000002384,326951.069,330771.927,8,400,,,
trial,html.Screen,4_59_0,2023-10-31T22:24:02.438Z,,0,2,,5855.873000011896,response,ISIC_2507845.JPG,5,ISIC_0061685.JPG,ISIC_0061685.JPG,false,0,keypress(z),500,336627.90000003576,336627.8000000119,330767.656,330769.8000000119,330771.927,336630.284,8,400,10,,ISIC_2507845.JPG
break,html.Screen,4_59_1,2023-10-31T22:24:02.438Z,,0,,,NaN,,,,,,false,,,,336628.3000000119,336628.2000000477,,336628,,336630.284,8,400,,,
break_continue,html.Screen,4_59_2,2023-10-31T22:24:02.438Z,,0,,,NaN,,,,,,false,,,,336628.5,336628.40000003576,,336628.40000003576,,336630.284,8,400,,,
sequence,flow.Sequence,4_59,2023-10-31T22:24:02.438Z,,0,,,5856.473000035738,completion,,,,,false,,,,336628.60000002384,336628.40000003576,330767.656,330769.8000000119,330771.927,336630.284,8,400,,,
trial,html.Screen,4_60_0,2023-10-31T22:24:08.151Z,,0,2,,5710.916000047699,response,ISIC_4240225.JPG,5,ISIC_0024702.JPG,ISIC_0024702.JPG,false,0,keypress(z),500,342341.3000000119,342341.2000000477,336626.13,336628.60000002384,336630.284,342348,8,400,11,,ISIC_4240225.JPG
break,html.Screen,4_60_1,2023-10-31T22:24:08.152Z,,0,,,NaN,,,,,,false,,,,342341.7000000477,342341.5,,342341.40000003576,,342348,8,400,,,
break_continue,html.Screen,4_60_2,2023-10-31T22:24:08.152Z,,0,,,NaN,,,,,,false,,,,342341.90000003576,342341.90000003576,,342341.90000003576,,342348,8,400,,,
sequence,flow.Sequence,4_60,2023-10-31T22:24:08.152Z,,0,,,5711.616000035778,completion,,,,,false,,,,342342,342341.90000003576,336626.13,336628.60000002384,336630.284,342348,8,400,,,
trial,html.Screen,4_61_0,2023-10-31T22:24:11.225Z,,0,2,,3066.5,response,ISIC_8654660.JPG,5,ISIC_2642873.JPG,ISIC_8654660.JPG,false,1,keypress(m),500,345414.60000002384,345414.5,342338.531,342342,342348,345417.762,8,400,12,,ISIC_2642873.JPG
break,html.Screen,4_61_1,2023-10-31T22:24:11.225Z,,0,,,NaN,,,,,,false,,,,345415,345414.90000003576,,345414.8000000119,,345417.762,8,400,,,
break_continue,html.Screen,4_61_2,2023-10-31T22:24:11.225Z,,0,,,NaN,,,,,,false,,,,345415.2000000477,345415.2000000477,,345415.10000002384,,345417.762,8,400,,,
sequence,flow.Sequence,4_61,2023-10-31T22:24:11.225Z,,0,,,3067.2000000476837,completion,,,,,false,,,,345415.3000000119,345415.2000000477,342338.531,342342,342348,345417.762,8,400,,,
trial,html.Screen,4_62_0,2023-10-31T22:24:15.194Z,,0,2,,3966.538000011933,response,ISIC_0066992.JPG,5,ISIC_2769292.JPG,ISIC_0066992.JPG,false,1,keypress(m),500,349384.40000003576,349384.3000000119,345413.576,345415.3000000119,345417.762,349388.639,8,400,13,,ISIC_2769292.JPG
break,html.Screen,4_62_1,2023-10-31T22:24:15.195Z,,0,,,NaN,,,,,,false,,,,349384.7000000477,349384.60000002384,,349384.5,,349388.639,8,400,,,
break_continue,html.Screen,4_62_2,2023-10-31T22:24:15.195Z,,0,,,NaN,,,,,,false,,,,349384.8000000119,349384.8000000119,,349384.8000000119,,349388.639,8,400,,,
sequence,flow.Sequence,4_62,2023-10-31T22:24:15.195Z,,0,,,3967.038000011933,completion,,,,,false,,,,349385.3000000119,349384.8000000119,345413.576,345415.3000000119,345417.762,349388.639,8,400,,,
trial,html.Screen,4_63_0,2023-10-31T22:24:18.508Z,,0,2,,3309.3609999999753,response,ISIC_6674653.JPG,6,ISIC_2050512.JPG,ISIC_2050512.JPG,false,0,keypress(z),500,352698,352698,349384.362,349385.40000003576,349388.639,352701.148,8,400,14,,ISIC_6674653.JPG
break,html.Screen,4_63_1,2023-10-31T22:24:18.508Z,,0,,,NaN,,,,,,false,,,,352698.3000000119,352698.2000000477,,352698.10000002384,,352701.148,8,400,,,
break_continue,html.Screen,4_63_2,2023-10-31T22:24:18.508Z,,0,,,NaN,,,,,,false,,,,352698.3000000119,352698.3000000119,,352698.3000000119,,352701.148,8,400,,,
sequence,flow.Sequence,4_63,2023-10-31T22:24:18.508Z,,0,,,3309.6610000118962,completion,,,,,false,,,,352698.40000003576,352698.3000000119,349384.362,349385.3000000119,349388.639,352701.148,8,400,,,
trial,html.Screen,4_64_0,2023-10-31T22:24:21.406Z,,0,2,,2894.8520000000135,response,ISIC_0000150.JPG,5,ISIC_7164403.JPG,ISIC_0000150.JPG,false,1,keypress(m),500,355596,355596,352696.896,352698.40000003576,352701.148,355602.8,8,400,15,,ISIC_7164403.JPG
break,html.Screen,4_64_1,2023-10-31T22:24:21.406Z,,0,,,NaN,,,,,,false,,,,355596.3000000119,355596.2000000477,,355596.10000002384,,355602.8,8,400,,,
break_continue,html.Screen,4_64_2,2023-10-31T22:24:21.406Z,,0,,,NaN,,,,,,false,,,,355596.5,355596.40000003576,,355596.40000003576,,355602.8,8,400,,,
sequence,flow.Sequence,4_64,2023-10-31T22:24:21.406Z,,0,,,2895.2520000357763,completion,,,,,false,,,,355596.5,355596.40000003576,352696.896,352698.40000003576,352701.148,355602.8,8,400,,,
trial,html.Screen,4_65_0,2023-10-31T22:24:24.559Z,,0,2,,3146.4000000476954,response,ISIC_2331656.JPG,5,ISIC_5178031.JPG,ISIC_2331656.JPG,false,1,keypress(m),500,358749.3000000119,358749.2000000477,355592.777,355596.5,355602.8,358751.147,8,400,16,,ISIC_5178031.JPG
break,html.Screen,4_65_1,2023-10-31T22:24:24.560Z,,0,,,NaN,,,,,,false,,,,358749.60000002384,358749.60000002384,,358749.5,,358751.147,8,400,,,
break_continue,html.Screen,4_65_2,2023-10-31T22:24:24.560Z,,0,,,NaN,,,,,,false,,,,358749.8000000119,358749.8000000119,,358749.7000000477,,358751.147,8,400,,,
sequence,flow.Sequence,4_65,2023-10-31T22:24:24.560Z,,0,,,3147.0000000119326,completion,,,,,false,,,,358749.8000000119,358749.8000000119,355592.777,355596.5,355602.8,358751.147,8,400,,,
trial,html.Screen,4_66_0,2023-10-31T22:24:27.921Z,,0,2,,3360.353000000003,response,ISIC_0059571.JPG,4,ISIC_4034644.JPG,ISIC_0059571.JPG,false,1,keypress(m),500,362111.60000002384,362111.5,358746.914,358749.90000003576,358751.147,362113.726,8,400,17,,ISIC_4034644.JPG
break,html.Screen,4_66_1,2023-10-31T22:24:27.922Z,,0,,,NaN,,,,,,false,,,,362111.8000000119,362111.8000000119,,362111.60000002384,,362113.726,8,400,,,
break_continue,html.Screen,4_66_2,2023-10-31T22:24:27.922Z,,0,,,NaN,,,,,,false,,,,362112,362111.90000003576,,362111.8000000119,,362113.726,8,400,,,
sequence,flow.Sequence,4_66,2023-10-31T22:24:27.922Z,,0,,,3360.7530000357656,completion,,,,,false,,,,362112,362111.90000003576,358746.914,358749.90000003576,358751.147,362113.726,8,400,,,
trial,html.Screen,4_67_0,2023-10-31T22:24:31.940Z,,0,2,,4016.1740000357386,response,ISIC_1644520.JPG,5,ISIC_1985436.JPG,ISIC_1985436.JPG,false,0,keypress(z),500,366130,366129.90000003576,362109.389,362112.10000002384,362113.726,366138.645,8,400,18,,ISIC_1644520.JPG
break,html.Screen,4_67_1,2023-10-31T22:24:31.940Z,,0,,,NaN,,,,,,false,,,,366130.3000000119,366130.2000000477,,366130.10000002384,,366138.645,8,400,,,
break_continue,html.Screen,4_67_2,2023-10-31T22:24:31.940Z,,0,,,NaN,,,,,,false,,,,366130.5,366130.40000003576,,366130.40000003576,,366138.645,8,400,,,
sequence,flow.Sequence,4_67,2023-10-31T22:24:31.940Z,,0,,,4016.6740000357386,completion,,,,,false,,,,366130.60000002384,366130.40000003576,362109.389,362112,362113.726,366138.645,8,400,,,
trial,html.Screen,4_68_0,2023-10-31T22:24:36.181Z,,0,2,,4232.455000023823,response,ISIC_2059085.JPG,5,ISIC_0001581.JPG,ISIC_2059085.JPG,false,1,keypress(m),500,370371.2000000477,370371.10000002384,366134.498,366130.7000000477,366138.645,370378.052,8,400,19,,ISIC_0001581.JPG
break,html.Screen,4_68_1,2023-10-31T22:24:36.181Z,,0,,,NaN,,,,,,false,,,,370371.60000002384,370371.5,,370371.2000000477,,370378.052,8,400,,,
break_continue,html.Screen,4_68_2,2023-10-31T22:24:36.181Z,,0,,,NaN,,,,,,false,,,,370371.7000000477,370371.7000000477,,370371.60000002384,,370378.052,8,400,,,
sequence,flow.Sequence,4_68,2023-10-31T22:24:36.182Z,,0,,,4233.055000047665,completion,,,,,false,,,,370371.7000000477,370371.7000000477,366134.498,366130.60000002384,366138.645,370378.052,8,400,,,
trial,html.Screen,4_69_0,2023-10-31T22:24:40.391Z,,0,2,,4203.348000035738,response,ISIC_0031246.JPG,4,ISIC_4460849.JPG,ISIC_4460849.JPG,false,0,keypress(z),500,374581.5,374581.40000003576,370367.751,370371.8000000119,370378.052,374584.507,8,400,20,,ISIC_0031246.JPG
break,html.Screen,4_69_1,2023-10-31T22:24:40.392Z,,0,,,NaN,,,,,,false,,,,374581.7000000477,374581.7000000477,,374581.60000002384,,374584.507,8,400,,,
break_continue,html.Screen,4_69_2,2023-10-31T22:24:40.392Z,,0,,,NaN,,,,,,false,,,,374582,374582,,374581.8000000119,,374584.507,8,400,,,
sequence,flow.Sequence,4_69,2023-10-31T22:24:40.392Z,,0,,,4203.947999999975,completion,,,,,false,,,,374582,374582,370367.751,370371.8000000119,370378.052,374584.507,8,400,,,
trial,html.Screen,4_70_0,2023-10-31T22:24:43.786Z,,0,2,,3391.5930000238586,response,ISIC_7208412.JPG,6,ISIC_0000392.JPG,ISIC_0000392.JPG,false,0,keypress(z),500,377976.2000000477,377976.10000002384,374580.228,374582.10000002384,374584.507,377980.501,8,400,21,,ISIC_7208412.JPG
break,html.Screen,4_70_1,2023-10-31T22:24:43.786Z,,0,,,NaN,,,,,,false,,,,377976.5,377976.40000003576,,377976.3000000119,,377980.501,8,400,,,
break_continue,html.Screen,4_70_2,2023-10-31T22:24:43.786Z,,0,,,NaN,,,,,,false,,,,377976.7000000477,377976.60000002384,,377976.60000002384,,377980.501,8,400,,,
sequence,flow.Sequence,4_70,2023-10-31T22:24:43.787Z,,0,,,3392.0930000238586,completion,,,,,false,,,,377976.8000000119,377976.60000002384,374580.228,374582.10000002384,374584.507,377980.501,8,400,,,
trial,html.Screen,4_71_0,2023-10-31T22:24:48.012Z,,0,2,,4221.8990000357735,response,ISIC_0024214.JPG,4,ISIC_5510604.JPG,ISIC_0024214.JPG,false,1,keypress(m),500,382202.60000002384,382202.40000003576,377976.037,377976.8000000119,377980.501,382205.299,8,400,22,,ISIC_5510604.JPG
break,html.Screen,4_71_1,2023-10-31T22:24:48.013Z,,0,,,NaN,,,,,,false,,,,382202.8000000119,382202.8000000119,,382202.60000002384,,382205.299,8,400,,,
break_continue,html.Screen,4_71_2,2023-10-31T22:24:48.013Z,,0,,,NaN,,,,,,false,,,,382203,382202.90000003576,,382202.8000000119,,382205.299,8,400,,,
sequence,flow.Sequence,4_71,2023-10-31T22:24:48.013Z,,0,,,4222.3990000357735,completion,,,,,false,,,,382203.40000003576,382202.90000003576,377976.037,377976.8000000119,377980.501,382205.299,8,400,,,
trial,html.Screen,4_72_0,2023-10-31T22:24:54.079Z,,0,2,,6064.101000035764,response,ISIC_0776189.JPG,4,ISIC_0014325.JPG,ISIC_0776189.JPG,false,1,keypress(m),500,388269.5,388269.40000003576,382201.067,382203.5,382205.299,388272,8,400,23,,ISIC_0014325.JPG
break,html.Screen,4_72_1,2023-10-31T22:24:54.080Z,,0,,,NaN,,,,,,false,,,,388269.8000000119,388269.7000000477,,388269.60000002384,,388272,8,400,,,
break_continue,html.Screen,4_72_2,2023-10-31T22:24:54.080Z,,0,,,NaN,,,,,,false,,,,388269.90000003576,388269.90000003576,,388269.8000000119,,388272,8,400,,,
sequence,flow.Sequence,4_72,2023-10-31T22:24:54.080Z,,0,,,6064.601000035764,completion,,,,,false,,,,388269.90000003576,388269.90000003576,382201.067,382203.5,382205.299,388272,8,400,,,
trial,html.Screen,4_73_0,2023-10-31T22:24:57.425Z,,0,2,,3343.2000000476837,response,ISIC_3096949.JPG,5,ISIC_0026329.JPG,ISIC_3096949.JPG,false,1,keypress(m),500,391615.2000000477,391615.2000000477,388267.792,388270,388272,391617.879,8,400,24,,ISIC_0026329.JPG
break,html.Screen,4_73_1,2023-10-31T22:24:57.425Z,,0,,,NaN,,,,,,false,,,,391615.60000002384,391615.5,,391615.3000000119,,391617.879,8,400,,,
break_continue,html.Screen,4_73_2,2023-10-31T22:24:57.426Z,,0,,,NaN,,,,,,false,,,,391615.8000000119,391615.7000000477,,391615.60000002384,,391617.879,8,400,,,
sequence,flow.Sequence,4_73,2023-10-31T22:24:57.426Z,,0,,,3343.7000000476837,completion,,,,,false,,,,391615.8000000119,391615.7000000477,388267.792,388270,388272,391617.879,8,400,,,
trial,html.Screen,4_74_0,2023-10-31T22:25:03.124Z,,0,2,,5695.821000047668,response,ISIC_0232101.JPG,5,ISIC_9332795.JPG,ISIC_9332795.JPG,false,0,keypress(z),500,397313.8000000119,397313.7000000477,391613.591,391615.90000003576,391617.879,397317.889,8,400,25,,ISIC_0232101.JPG
break,html.Screen,4_74_1,2023-10-31T22:25:03.124Z,,0,,,NaN,,,,,,false,,,,397314.10000002384,397314,,397313.90000003576,,397317.889,8,400,,,
break_continue,html.Screen,4_74_2,2023-10-31T22:25:03.124Z,,0,,,NaN,,,,,,false,,,,397314.2000000477,397314.2000000477,,397314.10000002384,,397317.889,8,400,,,
sequence,flow.Sequence,4_74,2023-10-31T22:25:03.124Z,,0,,,5696.321000047668,completion,,,,,false,,,,397314.2000000477,397314.2000000477,391613.591,391615.90000003576,391617.879,397317.889,8,400,,,
trial,html.Screen,4_75_0,2023-10-31T22:25:05.973Z,,0,2,,2844.9110000118962,response,ISIC_0563533.JPG,6,ISIC_6576397.JPG,ISIC_6576397.JPG,false,0,keypress(z),500,400162.90000003576,400162.8000000119,397313.569,397314.3000000119,397317.889,400169.58,8,400,26,,ISIC_0563533.JPG
break,html.Screen,4_75_1,2023-10-31T22:25:05.973Z,,0,,,NaN,,,,,,false,,,,400163.10000002384,400163,,400163,,400169.58,8,400,,,
break_continue,html.Screen,4_75_2,2023-10-31T22:25:05.973Z,,0,,,NaN,,,,,,false,,,,400163.3000000119,400163.2000000477,,400163.2000000477,,400169.58,8,400,,,
sequence,flow.Sequence,4_75,2023-10-31T22:25:05.973Z,,0,,,2845.311000047659,completion,,,,,false,,,,400163.40000003576,400163.2000000477,397313.569,397314.2000000477,397317.889,400169.58,8,400,,,
trial,html.Screen,4_76_0,2023-10-31T22:25:10.519Z,,0,2,,4539.720000011905,response,ISIC_0032823.JPG,5,ISIC_1265382.JPG,ISIC_0032823.JPG,false,1,keypress(m),500,404709.60000002384,404709.3000000119,400159.44,400163.40000003576,400169.58,404713.683,8,400,27,,ISIC_1265382.JPG
break,html.Screen,4_76_1,2023-10-31T22:25:10.520Z,,0,,,NaN,,,,,,false,,,,404709.90000003576,404709.8000000119,,404709.7000000477,,404713.683,8,400,,,
break_continue,html.Screen,4_76_2,2023-10-31T22:25:10.520Z,,0,,,NaN,,,,,,false,,,,404710,404710,,404710,,404713.683,8,400,,,
sequence,flow.Sequence,4_76,2023-10-31T22:25:10.520Z,,0,,,4540.419999999984,completion,,,,,false,,,,404710.10000002384,404710,400159.44,400163.40000003576,400169.58,404713.683,8,400,,,
trial,html.Screen,4_77_0,2023-10-31T22:25:13.225Z,,0,2,,2701.617000011902,response,ISIC_0058046.JPG,5,ISIC_8760203.JPG,ISIC_8760203.JPG,false,0,keypress(z),500,407415.5,407415.3000000119,404709.41,404710.10000002384,404713.683,407417.88,8,400,28,,ISIC_0058046.JPG
break,html.Screen,4_77_1,2023-10-31T22:25:13.225Z,,0,,,NaN,,,,,,false,,,,407415.7000000477,407415.60000002384,,407415.5,,407417.88,8,400,,,
break_continue,html.Screen,4_77_2,2023-10-31T22:25:13.226Z,,0,,,NaN,,,,,,false,,,,407415.8000000119,407415.8000000119,,407415.7000000477,,407417.88,8,400,,,
sequence,flow.Sequence,4_77,2023-10-31T22:25:13.226Z,,0,,,2702.117000011902,completion,,,,,false,,,,407415.90000003576,407415.8000000119,404709.41,404710.10000002384,404713.683,407417.88,8,400,,,
trial,html.Screen,4_78_0,2023-10-31T22:25:18.652Z,,0,2,,5423.920000011916,response,ISIC_0028759.JPG,4,ISIC_9232153.JPG,ISIC_9232153.JPG,false,0,keypress(z),500,412842,412841.8000000119,407413.808,407415.90000003576,407417.88,412847.942,8,400,29,,ISIC_0028759.JPG
break,html.Screen,4_78_1,2023-10-31T22:25:18.652Z,,0,,,NaN,,,,,,false,,,,412842.3000000119,412842.10000002384,,412842.10000002384,,412847.942,8,400,,,
break_continue,html.Screen,4_78_2,2023-10-31T22:25:18.652Z,,0,,,NaN,,,,,,false,,,,412842.40000003576,412842.40000003576,,412842.3000000119,,412847.942,8,400,,,
sequence,flow.Sequence,4_78,2023-10-31T22:25:18.652Z,,0,,,5424.520000035758,completion,,,,,false,,,,412842.40000003576,412842.40000003576,407413.808,407415.90000003576,407417.88,412847.942,8,400,,,
trial,html.Screen,4_79_0,2023-10-31T22:25:21.373Z,,0,2,,2715.258000047703,response,ISIC_5218773.JPG,5,ISIC_0033501.JPG,ISIC_0033501.JPG,false,0,keypress(z),500,415563.40000003576,415563.2000000477,412838.571,412842.40000003576,412847.942,415567.857,8,400,30,,ISIC_5218773.JPG
break,html.Screen,4_79_1,2023-10-31T22:25:21.373Z,,0,,,NaN,,,,,,false,,,,415563.5,415563.5,,415563.40000003576,,415567.857,8,400,,,
break_continue,html.Screen,4_79_2,2023-10-31T22:25:21.374Z,,0,,,NaN,,,,,,false,,,,415563.8000000119,415563.7000000477,,415563.60000002384,,415567.857,8,400,,,
sequence,flow.Sequence,4_79,2023-10-31T22:25:21.374Z,,0,,,2715.758000047703,completion,,,,,false,,,,415563.8000000119,415563.7000000477,412838.571,412842.40000003576,412847.942,415567.857,8,400,,,
trial,html.Screen,4_80_0,2023-10-31T22:25:30.831Z,,0,2,,9453.543000035745,response,ISIC_0028839.JPG,4,ISIC_3941147.JPG,ISIC_3941147.JPG,false,0,keypress(z),500,425021.60000002384,425021.40000003576,415563.604,415563.8000000119,415567.857,425027.371,8,400,31,,ISIC_0028839.JPG
break,html.Screen,4_80_1,2023-10-31T22:25:30.832Z,,0,,,NaN,,,,,,false,,,,425022,425021.8000000119,,425021.7000000477,,425027.371,8,400,,,
break_continue,html.Screen,4_80_2,2023-10-31T22:25:30.832Z,,0,,,NaN,,,,,,false,,,,425022.10000002384,425022,,425022,,425027.371,8,400,,,
sequence,flow.Sequence,4_80,2023-10-31T22:25:30.832Z,,0,,,9454.142999999982,completion,,,,,false,,,,425022.5,425022,415563.604,415563.8000000119,415567.857,425027.371,8,400,,,
trial,html.Screen,4_81_0,2023-10-31T22:25:34.114Z,,0,2,,3277.029000035778,response,ISIC_0057059.JPG,5,ISIC_0238824.JPG,ISIC_0057059.JPG,false,1,keypress(m),500,428304.60000002384,428304.40000003576,425017.854,425022.60000002384,425027.371,428311.369,8,400,32,,ISIC_0238824.JPG
break,html.Screen,4_81_1,2023-10-31T22:25:34.115Z,,0,,,NaN,,,,,,false,,,,428305,428304.8000000119,,428304.7000000477,,428311.369,8,400,,,
break_continue,html.Screen,4_81_2,2023-10-31T22:25:34.115Z,,0,,,NaN,,,,,,false,,,,428305,428305,,428305,,428311.369,8,400,,,
sequence,flow.Sequence,4_81,2023-10-31T22:25:34.115Z,,0,,,3277.6290000000154,completion,,,,,false,,,,428305.10000002384,428305,425017.854,425022.60000002384,425027.371,428311.369,8,400,,,
trial,html.Screen,4_82_0,2023-10-31T22:25:41.060Z,,0,2,,6938.531000035757,response,ISIC_6576397.JPG,5,ISIC_0011695.JPG,ISIC_0011695.JPG,false,0,keypress(z),500,435250,435249.90000003576,428301.147,428305.2000000477,428311.369,435256.363,8,400,33,,ISIC_6576397.JPG
break,html.Screen,4_82_1,2023-10-31T22:25:41.060Z,,0,,,NaN,,,,,,false,,,,435250.2000000477,435250.10000002384,,435250,,435256.363,8,400,,,
break_continue,html.Screen,4_82_2,2023-10-31T22:25:41.060Z,,0,,,NaN,,,,,,false,,,,435250.40000003576,435250.3000000119,,435250.2000000477,,435256.363,8,400,,,
sequence,flow.Sequence,4_82,2023-10-31T22:25:41.060Z,,0,,,6938.931000011915,completion,,,,,false,,,,435250.60000002384,435250.3000000119,428301.147,428305.2000000477,428311.369,435256.363,8,400,,,
trial,html.Screen,4_83_0,2023-10-31T22:25:44.501Z,,0,2,,3435.2370000238298,response,ISIC_4945233.JPG,4,ISIC_0231167.JPG,ISIC_4945233.JPG,false,1,keypress(m),500,438691.60000002384,438691.60000002384,435247.058,435250.60000002384,435256.363,438698.868,8,400,34,,ISIC_0231167.JPG
break,html.Screen,4_83_1,2023-10-31T22:25:44.502Z,,0,,,NaN,,,,,,false,,,,438691.8000000119,438691.8000000119,,438691.7000000477,,438698.868,8,400,,,
break_continue,html.Screen,4_83_2,2023-10-31T22:25:44.502Z,,0,,,NaN,,,,,,false,,,,438692,438691.90000003576,,438691.90000003576,,438698.868,8,400,,,
sequence,flow.Sequence,4_83,2023-10-31T22:25:44.502Z,,0,,,3435.5370000357507,completion,,,,,false,,,,438692,438691.90000003576,435247.058,435250.60000002384,435256.363,438698.868,8,400,,,
trial,html.Screen,4_84_0,2023-10-31T22:25:48.631Z,,0,2,,4121.832000047667,response,ISIC_0065537.JPG,6,ISIC_0064376.JPG,ISIC_0064376.JPG,false,0,keypress(z),500,442820.90000003576,442820.7000000477,438688.769,438692.10000002384,438698.868,442827.519,8,400,35,,ISIC_0065537.JPG
break,html.Screen,4_84_1,2023-10-31T22:25:48.631Z,,0,,,NaN,,,,,,false,,,,442821,442821,,442820.90000003576,,442827.519,8,400,,,
break_continue,html.Screen,4_84_2,2023-10-31T22:25:48.631Z,,0,,,NaN,,,,,,false,,,,442821.10000002384,442821.10000002384,,442821.10000002384,,442827.519,8,400,,,
sequence,flow.Sequence,4_84,2023-10-31T22:25:48.631Z,,0,,,4122.232000023825,completion,,,,,false,,,,442821.3000000119,442821.10000002384,438688.769,438692.10000002384,438698.868,442827.519,8,400,,,
trial,html.Screen,4_85_0,2023-10-31T22:25:51.928Z,,0,2,,3290.6810000477126,response,ISIC_0014059.JPG,5,ISIC_5156491.JPG,ISIC_5156491.JPG,false,0,keypress(z),500,446118.3000000119,446118.2000000477,442817.775,442821.3000000119,442827.519,446122.183,8,400,36,,ISIC_0014059.JPG
break,html.Screen,4_85_1,2023-10-31T22:25:51.928Z,,0,,,NaN,,,,,,false,,,,446118.60000002384,446118.5,,446118.40000003576,,446122.183,8,400,,,
break_continue,html.Screen,4_85_2,2023-10-31T22:25:51.929Z,,0,,,NaN,,,,,,false,,,,446118.7000000477,446118.7000000477,,446118.60000002384,,446122.183,8,400,,,
sequence,flow.Sequence,4_85,2023-10-31T22:25:51.929Z,,0,,,3291.1810000477126,completion,,,,,false,,,,446118.8000000119,446118.7000000477,442817.775,442821.3000000119,442827.519,446122.183,8,400,,,
trial,html.Screen,4_86_0,2023-10-31T22:25:59.162Z,,0,2,,7229.717000035744,response,ISIC_0067012.JPG,5,ISIC_2206284.JPG,ISIC_0067012.JPG,false,1,keypress(m),500,453351.90000003576,453351.90000003576,446117.771,446118.8000000119,446122.183,453355.406,8,400,37,,ISIC_2206284.JPG
break,html.Screen,4_86_1,2023-10-31T22:25:59.162Z,,0,,,NaN,,,,,,false,,,,453352.3000000119,453352.10000002384,,453352,,453355.406,8,400,,,
break_continue,html.Screen,4_86_2,2023-10-31T22:25:59.162Z,,0,,,NaN,,,,,,false,,,,453352.40000003576,453352.40000003576,,453352.3000000119,,453355.406,8,400,,,
sequence,flow.Sequence,4_86,2023-10-31T22:25:59.162Z,,0,,,7230.217000035744,completion,,,,,false,,,,453352.60000002384,453352.40000003576,446117.771,446118.8000000119,446122.183,453355.406,8,400,,,
trial,html.Screen,4_87_0,2023-10-31T22:26:02.124Z,,0,2,,2958.4940000357456,response,ISIC_0027170.JPG,5,ISIC_4654443.JPG,ISIC_0027170.JPG,false,1,keypress(m),500,456314,456313.90000003576,453351.167,453352.60000002384,453355.406,456317.966,8,400,38,,ISIC_4654443.JPG
break,html.Screen,4_87_1,2023-10-31T22:26:02.124Z,,0,,,NaN,,,,,,false,,,,456314.2000000477,456314.10000002384,,456314,,456317.966,8,400,,,
break_continue,html.Screen,4_87_2,2023-10-31T22:26:02.124Z,,0,,,NaN,,,,,,false,,,,456314.3000000119,456314.3000000119,,456314.3000000119,,456317.966,8,400,,,
sequence,flow.Sequence,4_87,2023-10-31T22:26:02.124Z,,0,,,2958.8940000119037,completion,,,,,false,,,,456314.3000000119,456314.3000000119,453351.167,453352.60000002384,453355.406,456317.966,8,400,,,
trial,html.Screen,4_88_0,2023-10-31T22:26:06.862Z,,0,2,,4733.634000023827,response,ISIC_7013005.JPG,6,ISIC_0071050.JPG,ISIC_0071050.JPG,false,0,keypress(z),500,461051.7000000477,461051.60000002384,456313.678,456314.40000003576,456317.966,461055.454,8,400,39,,ISIC_7013005.JPG
break,html.Screen,4_88_1,2023-10-31T22:26:06.862Z,,0,,,NaN,,,,,,false,,,,461051.90000003576,461051.90000003576,,461051.7000000477,,461055.454,8,400,,,
break_continue,html.Screen,4_88_2,2023-10-31T22:26:06.862Z,,0,,,NaN,,,,,,false,,,,461052.10000002384,461052,,461052,,461055.454,8,400,,,
sequence,flow.Sequence,4_88,2023-10-31T22:26:06.862Z,,0,,,4734.033999999985,completion,,,,,false,,,,461052.2000000477,461052,456313.678,456314.40000003576,456317.966,461055.454,8,400,,,
trial,html.Screen,4_89_0,2023-10-31T22:26:10.607Z,,0,2,,3741.146000023815,response,ISIC_4401524.JPG,5,ISIC_0302804.JPG,ISIC_0302804.JPG,false,0,keypress(z),500,464796.7000000477,464796.60000002384,461051.121,461052.3000000119,461055.454,464801.433,8,400,40,,ISIC_4401524.JPG
break,html.Screen,4_89_1,2023-10-31T22:26:10.607Z,,0,,,NaN,,,,,,false,,,,464797.10000002384,464797,,464796.8000000119,,464801.433,8,400,,,
break_continue,html.Screen,4_89_2,2023-10-31T22:26:10.608Z,,0,,,NaN,,,,,,false,,,,464797.7000000477,464797.2000000477,,464797.10000002384,,464801.433,8,400,,,
sequence,flow.Sequence,4_89,2023-10-31T22:26:10.608Z,,0,,,3741.7460000476567,completion,,,,,false,,,,464797.8000000119,464797.2000000477,461051.121,461052.2000000477,461055.454,464801.433,8,400,,,
trial,html.Screen,4_90_0,2023-10-31T22:26:13.746Z,,0,2,,3134.4670000357437,response,ISIC_4130167.JPG,5,ISIC_8263741.JPG,ISIC_8263741.JPG,false,0,keypress(z),500,467935.90000003576,467935.90000003576,464797.019,464797.90000003576,464801.433,467938.723,8,400,41,,ISIC_4130167.JPG
break,html.Screen,4_90_1,2023-10-31T22:26:13.746Z,,0,,,NaN,,,,,,false,,,,467936.3000000119,467936.2000000477,,467936.10000002384,,467938.723,8,400,,,
break_continue,html.Screen,4_90_2,2023-10-31T22:26:13.746Z,,0,,,NaN,,,,,,false,,,,467936.40000003576,467936.40000003576,,467936.40000003576,,467938.723,8,400,,,
sequence,flow.Sequence,4_90,2023-10-31T22:26:13.746Z,,0,,,3134.9670000357437,completion,,,,,false,,,,467936.5,467936.40000003576,464797.019,464797.90000003576,464801.433,467938.723,8,400,,,
trial,html.Screen,4_91_0,2023-10-31T22:26:17.044Z,,0,2,,3295.077000011923,response,ISIC_6210962.JPG,6,ISIC_9021685.JPG,ISIC_9021685.JPG,false,0,keypress(z),500,471233.90000003576,471233.8000000119,467934.512,467936.5,467938.723,471239.702,8,400,42,,ISIC_6210962.JPG
break,html.Screen,4_91_1,2023-10-31T22:26:17.044Z,,0,,,NaN,,,,,,false,,,,471234.2000000477,471234.10000002384,,471234,,471239.702,8,400,,,
break_continue,html.Screen,4_91_2,2023-10-31T22:26:17.044Z,,0,,,NaN,,,,,,false,,,,471234.40000003576,471234.3000000119,,471234.2000000477,,471239.702,8,400,,,
sequence,flow.Sequence,4_91,2023-10-31T22:26:17.044Z,,0,,,3295.577000011923,completion,,,,,false,,,,471234.5,471234.3000000119,467934.512,467936.5,467938.723,471239.702,8,400,,,
trial,html.Screen,4_92_0,2023-10-31T22:26:19.878Z,,0,2,,2828.3980000238516,response,ISIC_0027646.JPG,5,ISIC_8298434.JPG,ISIC_8298434.JPG,false,0,keypress(z),500,474068.3000000119,474068.10000002384,471230.378,471234.5,471239.702,474072.101,8,400,43,,ISIC_0027646.JPG
break,html.Screen,4_92_1,2023-10-31T22:26:19.878Z,,0,,,NaN,,,,,,false,,,,474068.5,474068.40000003576,,474068.3000000119,,474072.101,8,400,,,
break_continue,html.Screen,4_92_2,2023-10-31T22:26:19.878Z,,0,,,NaN,,,,,,false,,,,474068.60000002384,474068.5,,474068.5,,474072.101,8,400,,,
sequence,flow.Sequence,4_92,2023-10-31T22:26:19.878Z,,0,,,2828.79800000001,completion,,,,,false,,,,474068.60000002384,474068.5,471230.378,471234.5,471239.702,474072.101,8,400,,,
trial,html.Screen,4_93_0,2023-10-31T22:26:23.112Z,,0,2,,3229.898999999976,response,ISIC_2143002.JPG,5,ISIC_3601224.JPG,ISIC_3601224.JPG,false,0,keypress(z),500,477302,477302,474067.858,474068.60000002384,474072.101,477305.58,8,400,44,,ISIC_2143002.JPG
break,html.Screen,4_93_1,2023-10-31T22:26:23.112Z,,0,,,NaN,,,,,,false,,,,477302.3000000119,477302.2000000477,,477302.10000002384,,477305.58,8,400,,,
break_continue,html.Screen,4_93_2,2023-10-31T22:26:23.112Z,,0,,,NaN,,,,,,false,,,,477302.60000002384,477302.5,,477302.40000003576,,477305.58,8,400,,,
sequence,flow.Sequence,4_93,2023-10-31T22:26:23.112Z,,0,,,3230.398999999976,completion,,,,,false,,,,477302.60000002384,477302.5,474067.858,474068.60000002384,474072.101,477305.58,8,400,,,
trial,html.Screen,4_94_0,2023-10-31T22:26:26.218Z,,0,2,,3102.6200000476674,response,ISIC_6373500.JPG,5,ISIC_0057192.JPG,ISIC_0057192.JPG,false,0,keypress(z),500,480408.2000000477,480408.2000000477,477301.163,477302.7000000477,477305.58,480414.859,8,400,45,,ISIC_6373500.JPG
break,html.Screen,4_94_1,2023-10-31T22:26:26.218Z,,0,,,NaN,,,,,,false,,,,480408.5,480408.5,,480408.40000003576,,480414.859,8,400,,,
break_continue,html.Screen,4_94_2,2023-10-31T22:26:26.218Z,,0,,,NaN,,,,,,false,,,,480408.60000002384,480408.60000002384,,480408.60000002384,,480414.859,8,400,,,
sequence,flow.Sequence,4_94,2023-10-31T22:26:26.219Z,,0,,,3103.0200000238256,completion,,,,,false,,,,480408.7000000477,480408.60000002384,477301.163,477302.60000002384,477305.58,480414.859,8,400,,,
trial,html.Screen,4_95_0,2023-10-31T22:26:29.884Z,,0,2,,3659.341000047687,response,ISIC_7013005.JPG,5,ISIC_0025779.JPG,ISIC_7013005.JPG,false,1,keypress(m),500,484074.3000000119,484074.2000000477,480405.35,480408.8000000119,480414.859,484076.24,8,400,46,,ISIC_0025779.JPG
break,html.Screen,4_95_1,2023-10-31T22:26:29.884Z,,0,,,NaN,,,,,,false,,,,484074.5,484074.5,,484074.40000003576,,484076.24,8,400,,,
break_continue,html.Screen,4_95_2,2023-10-31T22:26:29.885Z,,0,,,NaN,,,,,,false,,,,484074.8000000119,484074.7000000477,,484074.7000000477,,484076.24,8,400,,,
sequence,flow.Sequence,4_95,2023-10-31T22:26:29.885Z,,0,,,3659.841000047687,completion,,,,,false,,,,484074.90000003576,484074.7000000477,480405.35,480408.7000000477,480414.859,484076.24,8,400,,,
trial,html.Screen,4_96_0,2023-10-31T22:26:32.847Z,,0,2,,2960.5600000119302,response,ISIC_0231167.JPG,5,ISIC_6375439.JPG,ISIC_6375439.JPG,false,0,keypress(z),500,487036.8000000119,487036.8000000119,484072.046,484074.90000003576,484076.24,487038.766,8,400,47,,ISIC_0231167.JPG
break,html.Screen,4_96_1,2023-10-31T22:26:32.847Z,,0,,,NaN,,,,,,false,,,,487037.10000002384,487037,,487036.90000003576,,487038.766,8,400,,,
break_continue,html.Screen,4_96_2,2023-10-31T22:26:32.847Z,,0,,,NaN,,,,,,false,,,,487037.3000000119,487037.3000000119,,487037.3000000119,,487038.766,8,400,,,
sequence,flow.Sequence,4_96,2023-10-31T22:26:32.847Z,,0,,,2961.0600000119302,completion,,,,,false,,,,487037.40000003576,487037.3000000119,484072.046,484074.90000003576,484076.24,487038.766,8,400,,,
trial,html.Screen,4_97_0,2023-10-31T22:26:36.609Z,,0,2,,3759.9340000476805,response,ISIC_0011733.JPG,6,ISIC_0057594.JPG,ISIC_0057594.JPG,false,0,keypress(z),500,490798.8000000119,490798.7000000477,487034.52,487037.40000003576,487038.766,490801.247,8,400,48,,ISIC_0011733.JPG
break,html.Screen,4_97_1,2023-10-31T22:26:36.609Z,,0,,,NaN,,,,,,false,,,,490799.10000002384,490799,,490798.90000003576,,490801.247,8,400,,,
break_continue,html.Screen,4_97_2,2023-10-31T22:26:36.609Z,,0,,,NaN,,,,,,false,,,,490799.3000000119,490799.2000000477,,490799.2000000477,,490801.247,8,400,,,
sequence,flow.Sequence,4_97,2023-10-31T22:26:36.609Z,,0,,,3760.4340000476805,completion,,,,,false,,,,490799.40000003576,490799.2000000477,487034.52,487037.40000003576,487038.766,490801.247,8,400,,,
trial,html.Screen,4_98_0,2023-10-31T22:26:40.339Z,,0,2,,3728.153000035789,response,ISIC_0034000.JPG,5,ISIC_0024802.JPG,ISIC_0024802.JPG,false,0,keypress(z),500,494529.5,494529.40000003576,490797.031,490799.5,490801.247,494536.336,8,400,49,,ISIC_0034000.JPG
break,html.Screen,4_98_1,2023-10-31T22:26:40.340Z,,0,,,NaN,,,,,,false,,,,494529.8000000119,494529.7000000477,,494529.60000002384,,494536.336,8,400,,,
break_continue,html.Screen,4_98_2,2023-10-31T22:26:40.340Z,,0,,,NaN,,,,,,false,,,,494530,494529.90000003576,,494529.90000003576,,494536.336,8,400,,,
sequence,flow.Sequence,4_98,2023-10-31T22:26:40.340Z,,0,,,3728.653000035789,completion,,,,,false,,,,494530,494529.90000003576,490797.031,490799.40000003576,490801.247,494536.336,8,400,,,
trial,html.Screen,4_99_0,2023-10-31T22:26:43.286Z,,0,2,,2939.5640000357525,response,ISIC_4153542.JPG,4,ISIC_0010266.JPG,ISIC_0010266.JPG,false,0,keypress(z),500,497476.10000002384,497475.90000003576,494526.202,494530.60000002384,494536.336,497480.433,8,400,50,,ISIC_4153542.JPG
break,html.Screen,4_99_1,2023-10-31T22:26:53.287Z,,0,,,10000.032999999996,timeout,,,,,false,,,,507476.7000000477,507476.267,497476.225,497476.2000000477,497480.433,507480.466,8,400,,,
break_continue,html.Screen,4_99_2,2023-10-31T22:26:56.340Z,,0,,,3043.134000023827,response,,,,,false,continue,keypress(Space),,510529.7000000477,510523.60000002384,507476.267,507476.8000000119,507480.466,510535.791,8,400,,,
sequence,flow.Sequence,4_99,2023-10-31T22:26:56.340Z,,0,,,15987.264000023832,completion,,,,,false,,,,510529.8000000119,510523.60000002384,494526.202,494530.60000002384,494536.336,510535.791,8,400,,,
trial,html.Screen,4_100_0,2023-10-31T22:27:00.709Z,,0,3,,4363.509000011894,response,ISIC_1962844.JPG,5,ISIC_6714923.JPG,ISIC_6714923.JPG,false,0,keypress(z),500,514899.40000003576,514899.3000000119,510529.907,510529.90000003576,510535.791,514901.31,8,400,1,,ISIC_1962844.JPG
break,html.Screen,4_100_1,2023-10-31T22:27:00.710Z,,0,,,NaN,,,,,,false,,,,514899.7000000477,514899.60000002384,,514899.5,,514901.31,8,400,,,
break_continue,html.Screen,4_100_2,2023-10-31T22:27:00.710Z,,0,,,NaN,,,,,,false,,,,514899.90000003576,514899.8000000119,,514899.7000000477,,514901.31,8,400,,,
sequence,flow.Sequence,4_100,2023-10-31T22:27:00.710Z,,0,,,4364.009000011894,completion,,,,,false,,,,514899.90000003576,514899.8000000119,510529.907,510529.90000003576,510535.791,514901.31,8,400,,,
trial,html.Screen,4_101_0,2023-10-31T22:27:05.543Z,,0,3,,4831.690000000002,response,ISIC_0068106.JPG,4,ISIC_8423326.JPG,ISIC_0068106.JPG,false,1,keypress(m),500,519733.10000002384,519733,514897.046,514899.90000003576,514901.31,519734.68,8,400,2,,ISIC_8423326.JPG
break,html.Screen,4_101_1,2023-10-31T22:27:05.543Z,,0,,,NaN,,,,,,false,,,,519733.3000000119,519733.3000000119,,519733.2000000477,,519734.68,8,400,,,
break_continue,html.Screen,4_101_2,2023-10-31T22:27:05.544Z,,0,,,NaN,,,,,,false,,,,519734.2000000477,519734.2000000477,,519734.10000002384,,519734.68,8,400,,,
sequence,flow.Sequence,4_101,2023-10-31T22:27:05.544Z,,0,,,4832.890000047686,completion,,,,,false,,,,519734.40000003576,519734.2000000477,514897.046,514899.90000003576,514901.31,519734.68,8,400,,,
trial,html.Screen,4_102_0,2023-10-31T22:27:08.377Z,,0,3,,2832.820000000007,response,ISIC_0000518.JPG,6,ISIC_8357415.JPG,ISIC_0000518.JPG,false,1,keypress(m),500,522567.60000002384,522567.5,519730.363,519734.40000003576,519734.68,522572.115,8,400,3,,ISIC_8357415.JPG
break,html.Screen,4_102_1,2023-10-31T22:27:08.378Z,,0,,,NaN,,,,,,false,,,,522567.8000000119,522567.8000000119,,522567.7000000477,,522572.115,8,400,,,
break_continue,html.Screen,4_102_2,2023-10-31T22:27:08.378Z,,0,,,NaN,,,,,,false,,,,522568,522567.90000003576,,522567.8000000119,,522572.115,8,400,,,
sequence,flow.Sequence,4_102,2023-10-31T22:27:08.378Z,,0,,,2833.2200000357698,completion,,,,,false,,,,522568,522567.90000003576,519730.363,519734.40000003576,519734.68,522572.115,8,400,,,
trial,html.Screen,4_103_0,2023-10-31T22:27:13.051Z,,0,3,,4669.18500001193,response,ISIC_0016050.JPG,5,ISIC_0028031.JPG,ISIC_0028031.JPG,false,0,keypress(z),500,527241.4000000358,527241.3000000119,522567.846,522568.10000002384,522572.115,527242.977,8,400,4,,ISIC_0016050.JPG
break,html.Screen,4_103_1,2023-10-31T22:27:13.052Z,,0,,,NaN,,,,,,false,,,,527241.8000000119,527241.6000000238,,527241.4000000358,,527242.977,8,400,,,
break_continue,html.Screen,4_103_2,2023-10-31T22:27:13.052Z,,0,,,NaN,,,,,,false,,,,527242.1000000238,527242,,527242,,527242.977,8,400,,,
sequence,flow.Sequence,4_103,2023-10-31T22:27:13.052Z,,0,,,4669.885000000009,completion,,,,,false,,,,527242.1000000238,527242,522567.846,522568.10000002384,522572.115,527242.977,8,400,,,
trial,html.Screen,4_104_0,2023-10-31T22:27:17.053Z,,0,3,,4000.4230000358075,response,ISIC_0034232.JPG,5,ISIC_0030913.JPG,ISIC_0034232.JPG,false,1,keypress(m),500,531243.5,531243.4000000358,527238.694,527242.2000000477,527242.977,531247.11,8,400,5,,ISIC_0030913.JPG
break,html.Screen,4_104_1,2023-10-31T22:27:17.054Z,,0,,,NaN,,,,,,false,,,,531243.9000000358,531243.8000000119,,531243.6000000238,,531247.11,8,400,,,
break_continue,html.Screen,4_104_2,2023-10-31T22:27:17.054Z,,0,,,NaN,,,,,,false,,,,531244.1000000238,531244.1000000238,,531244,,531247.11,8,400,,,
sequence,flow.Sequence,4_104,2023-10-31T22:27:17.054Z,,0,,,4001.1230000238866,completion,,,,,false,,,,531244.1000000238,531244.1000000238,527238.694,527242.2000000477,527242.977,531247.11,8,400,,,
trial,html.Screen,4_105_0,2023-10-31T22:27:21.376Z,,0,3,,4318.490000023856,response,ISIC_8613657.JPG,5,ISIC_0066114.JPG,ISIC_0066114.JPG,false,0,keypress(z),500,535565.7000000477,535565.6000000238,531242.886,531244.2000000477,531247.11,535567.975,8,400,6,,ISIC_8613657.JPG
break,html.Screen,4_105_1,2023-10-31T22:27:21.376Z,,0,,,NaN,,,,,,false,,,,535566.1000000238,535565.9000000358,,535565.8000000119,,535567.975,8,400,,,
break_continue,html.Screen,4_105_2,2023-10-31T22:27:21.376Z,,0,,,NaN,,,,,,false,,,,535566.2000000477,535566.2000000477,,535566.1000000238,,535567.975,8,400,,,
sequence,flow.Sequence,4_105,2023-10-31T22:27:21.376Z,,0,,,4319.090000047698,completion,,,,,false,,,,535566.2000000477,535566.2000000477,531242.886,531244.2000000477,531247.11,535567.975,8,400,,,
trial,html.Screen,4_106_0,2023-10-31T22:27:25.906Z,,0,3,,4528.025000000023,response,ISIC_0874261.JPG,5,ISIC_0024298.JPG,ISIC_0024298.JPG,false,0,keypress(z),500,540096.1000000238,540096,535563.727,535566.3000000119,535567.975,540102.55,8,400,7,,ISIC_0874261.JPG
break,html.Screen,4_106_1,2023-10-31T22:27:25.906Z,,0,,,NaN,,,,,,false,,,,540096.4000000358,540096.2000000477,,540096.1000000238,,540102.55,8,400,,,
break_continue,html.Screen,4_106_2,2023-10-31T22:27:25.906Z,,0,,,NaN,,,,,,false,,,,540096.5,540096.4000000358,,540096.4000000358,,540102.55,8,400,,,
sequence,flow.Sequence,4_106,2023-10-31T22:27:25.906Z,,0,,,4528.425000035786,completion,,,,,false,,,,540096.6000000238,540096.4000000358,535563.727,535566.3000000119,535567.975,540102.55,8,400,,,
trial,html.Screen,4_107_0,2023-10-31T22:27:33.956Z,,0,3,,8043.850000035716,response,ISIC_2399613.JPG,5,ISIC_0011348.JPG,ISIC_0011348.JPG,false,0,keypress(z),500,548146.5,548146.4000000358,540092.946,540096.7000000477,540102.55,548152.312,8,400,8,,ISIC_2399613.JPG
break,html.Screen,4_107_1,2023-10-31T22:27:33.957Z,,0,,,NaN,,,,,,false,,,,548146.9000000358,548146.8000000119,,548146.5,,548152.312,8,400,,,
break_continue,html.Screen,4_107_2,2023-10-31T22:27:33.957Z,,0,,,NaN,,,,,,false,,,,548147,548147,,548147,,548152.312,8,400,,,
sequence,flow.Sequence,4_107,2023-10-31T22:27:33.957Z,,0,,,8044.449999999953,completion,,,,,false,,,,548147.2000000477,548147,540092.946,540096.7000000477,540102.55,548152.312,8,400,,,
trial,html.Screen,4_108_0,2023-10-31T22:27:37.142Z,,0,3,,3179.5880000357283,response,ISIC_0009959.JPG,5,ISIC_5921777.JPG,ISIC_5921777.JPG,false,0,keypress(z),500,551331.9000000358,551331.9000000358,548142.937,548147.2000000477,548152.312,551334.615,8,400,9,,ISIC_0009959.JPG
break,html.Screen,4_108_1,2023-10-31T22:27:37.142Z,,0,,,NaN,,,,,,false,,,,551332.2000000477,551332.1000000238,,551332,,551334.615,8,400,,,
break_continue,html.Screen,4_108_2,2023-10-31T22:27:37.142Z,,0,,,NaN,,,,,,false,,,,551332.4000000358,551332.4000000358,,551332.3000000119,,551334.615,8,400,,,
sequence,flow.Sequence,4_108,2023-10-31T22:27:37.142Z,,0,,,3180.0880000357283,completion,,,,,false,,,,551332.5,551332.4000000358,548142.937,548147.2000000477,548152.312,551334.615,8,400,,,
trial,html.Screen,4_109_0,2023-10-31T22:27:41.353Z,,0,3,,4208.18500001193,response,ISIC_0024527.JPG,5,ISIC_6535558.JPG,ISIC_0024527.JPG,false,1,keypress(m),500,555543,555542.8000000119,551330.472,551332.5,551334.615,555547.156,8,400,10,,ISIC_6535558.JPG
break,html.Screen,4_109_1,2023-10-31T22:27:41.353Z,,0,,,NaN,,,,,,false,,,,555543.3000000119,555543.2000000477,,555543,,555547.156,8,400,,,
break_continue,html.Screen,4_109_2,2023-10-31T22:27:41.353Z,,0,,,NaN,,,,,,false,,,,555543.5,555543.5,,555543.4000000358,,555547.156,8,400,,,
sequence,flow.Sequence,4_109,2023-10-31T22:27:41.353Z,,0,,,4208.885000000009,completion,,,,,false,,,,555543.5,555543.5,551330.472,551332.5,551334.615,555547.156,8,400,,,
trial,html.Screen,4_110_0,2023-10-31T22:27:50.843Z,,0,3,,9485.444000023883,response,ISIC_2721699.JPG,5,ISIC_0069193.JPG,ISIC_0069193.JPG,false,0,keypress(z),500,565032.7000000477,565032.6000000238,555542.917,555543.6000000238,555547.156,565034.634,8,400,11,,ISIC_2721699.JPG
break,html.Screen,4_110_1,2023-10-31T22:27:50.843Z,,0,,,NaN,,,,,,false,,,,565033,565032.9000000358,,565032.8000000119,,565034.634,8,400,,,
break_continue,html.Screen,4_110_2,2023-10-31T22:27:50.843Z,,0,,,NaN,,,,,,false,,,,565033.1000000238,565033,,565033,,565034.634,8,400,,,
sequence,flow.Sequence,4_110,2023-10-31T22:27:50.843Z,,0,,,9485.844000000041,completion,,,,,false,,,,565033.1000000238,565033,555542.917,555543.6000000238,555547.156,565034.634,8,400,,,
trial,html.Screen,4_111_0,2023-10-31T22:27:54.141Z,,0,3,,3296.266000035801,response,ISIC_0033171.JPG,5,ISIC_0031625.JPG,ISIC_0033171.JPG,false,1,keypress(m),500,568331.1000000238,568330.9000000358,565030.408,565033.1000000238,565034.634,568334.667,8,400,12,,ISIC_0031625.JPG
break,html.Screen,4_111_1,2023-10-31T22:27:54.141Z,,0,,,NaN,,,,,,false,,,,568331.3000000119,568331.2000000477,,568331.1000000238,,568334.667,8,400,,,
break_continue,html.Screen,4_111_2,2023-10-31T22:27:54.141Z,,0,,,NaN,,,,,,false,,,,568331.5,568331.4000000358,,568331.3000000119,,568334.667,8,400,,,
sequence,flow.Sequence,4_111,2023-10-31T22:27:54.141Z,,0,,,3296.766000035801,completion,,,,,false,,,,568331.5,568331.4000000358,565030.408,565033.1000000238,565034.634,568334.667,8,400,,,
trial,html.Screen,4_112_0,2023-10-31T22:27:58.606Z,,0,3,,4461.533000047668,response,ISIC_0010050.JPG,5,ISIC_0024846.JPG,ISIC_0010050.JPG,false,1,keypress(m),500,572796.3000000119,572796.2000000477,568330.391,568331.5,568334.667,572803.163,8,400,13,,ISIC_0024846.JPG
break,html.Screen,4_112_1,2023-10-31T22:27:58.607Z,,0,,,NaN,,,,,,false,,,,572796.7000000477,572796.6000000238,,572796.4000000358,,572803.163,8,400,,,
break_continue,html.Screen,4_112_2,2023-10-31T22:27:58.607Z,,0,,,NaN,,,,,,false,,,,572796.8000000119,572796.8000000119,,572796.8000000119,,572803.163,8,400,,,
sequence,flow.Sequence,4_112,2023-10-31T22:27:58.607Z,,0,,,4462.133000011905,completion,,,,,false,,,,572796.8000000119,572796.8000000119,568330.391,568331.5,568334.667,572803.163,8,400,,,
trial,html.Screen,4_113_0,2023-10-31T22:28:01.360Z,,0,3,,2746.9370000238996,response,ISIC_5174685.JPG,5,ISIC_0013365.JPG,ISIC_0013365.JPG,false,0,keypress(z),500,575550.3000000119,575550.1000000238,572792.927,572797,572803.163,575556.431,8,400,14,,ISIC_5174685.JPG
break,html.Screen,4_113_1,2023-10-31T22:28:01.360Z,,0,,,NaN,,,,,,false,,,,575550.5,575550.5,,575550.4000000358,,575556.431,8,400,,,
break_continue,html.Screen,4_113_2,2023-10-31T22:28:01.361Z,,0,,,NaN,,,,,,false,,,,575550.8000000119,575550.7000000477,,575550.6000000238,,575556.431,8,400,,,
sequence,flow.Sequence,4_113,2023-10-31T22:28:01.361Z,,0,,,2747.5370000477415,completion,,,,,false,,,,575550.9000000358,575550.7000000477,572792.927,572796.9000000358,572803.163,575556.431,8,400,,,
trial,html.Screen,4_114_0,2023-10-31T22:28:04.450Z,,0,3,,3083.5690000000177,response,ISIC_0010614.JPG,6,ISIC_0065128.JPG,ISIC_0065128.JPG,false,0,keypress(z),500,578640.1000000238,578640,575547.1,575550.9000000358,575556.431,578642.991,8,400,15,,ISIC_0010614.JPG
break,html.Screen,4_114_1,2023-10-31T22:28:04.450Z,,0,,,NaN,,,,,,false,,,,578640.4000000358,578640.3000000119,,578640.1000000238,,578642.991,8,400,,,
break_continue,html.Screen,4_114_2,2023-10-31T22:28:04.450Z,,0,,,NaN,,,,,,false,,,,578640.6000000238,578640.5,,578640.4000000358,,578642.991,8,400,,,
sequence,flow.Sequence,4_114,2023-10-31T22:28:04.450Z,,0,,,3084.0690000000177,completion,,,,,false,,,,578640.6000000238,578640.5,575547.1,575550.9000000358,575556.431,578642.991,8,400,,,
trial,html.Screen,4_115_0,2023-10-31T22:28:07.443Z,,0,3,,2989.9090000357246,response,ISIC_0029591.JPG,5,ISIC_5964173.JPG,ISIC_0029591.JPG,false,1,keypress(m),500,581633.1000000238,581632.9000000358,578638.804,578640.6000000238,578642.991,581634.639,8,400,16,,ISIC_5964173.JPG
break,html.Screen,4_115_1,2023-10-31T22:28:07.443Z,,0,,,NaN,,,,,,false,,,,581633.3000000119,581633.2000000477,,581633.1000000238,,581634.639,8,400,,,
break_continue,html.Screen,4_115_2,2023-10-31T22:28:07.443Z,,0,,,NaN,,,,,,false,,,,581633.4000000358,581633.4000000358,,581633.4000000358,,581634.639,8,400,,,
sequence,flow.Sequence,4_115,2023-10-31T22:28:07.443Z,,0,,,2990.4090000357246,completion,,,,,false,,,,581633.4000000358,581633.4000000358,578638.804,578640.6000000238,578642.991,581634.639,8,400,,,
trial,html.Screen,4_116_0,2023-10-31T22:28:10.708Z,,0,3,,3263.9610000238754,response,ISIC_0013497.JPG,5,ISIC_8978290.JPG,ISIC_0013497.JPG,false,1,keypress(m),500,584898.6000000238,584898.6000000238,581630.429,581633.5,581634.639,584901.322,8,400,17,,ISIC_8978290.JPG
break,html.Screen,4_116_1,2023-10-31T22:28:10.709Z,,0,,,NaN,,,,,,false,,,,584898.8000000119,584898.8000000119,,584898.7000000477,,584901.322,8,400,,,
break_continue,html.Screen,4_116_2,2023-10-31T22:28:10.709Z,,0,,,NaN,,,,,,false,,,,584899.1000000238,584899,,584898.9000000358,,584901.322,8,400,,,
sequence,flow.Sequence,4_116,2023-10-31T22:28:10.709Z,,0,,,3264.3610000000335,completion,,,,,false,,,,584899.1000000238,584899,581630.429,581633.5,581634.639,584901.322,8,400,,,
trial,html.Screen,4_117_0,2023-10-31T22:28:14.166Z,,0,3,,3454.87800004764,response,ISIC_0878793.JPG,5,ISIC_6539127.JPG,ISIC_6539127.JPG,false,0,keypress(z),500,588356.4000000358,588356.2000000477,584897.064,584899.2000000477,584901.322,588359.734,8,400,18,,ISIC_0878793.JPG
break,html.Screen,4_117_1,2023-10-31T22:28:14.166Z,,0,,,NaN,,,,,,false,,,,588356.6000000238,588356.5,,588356.4000000358,,588359.734,8,400,,,
break_continue,html.Screen,4_117_2,2023-10-31T22:28:14.167Z,,0,,,NaN,,,,,,false,,,,588356.7000000477,588356.7000000477,,588356.6000000238,,588359.734,8,400,,,
sequence,flow.Sequence,4_117,2023-10-31T22:28:14.167Z,,0,,,3455.37800004764,completion,,,,,false,,,,588356.8000000119,588356.7000000477,584897.064,584899.2000000477,584901.322,588359.734,8,400,,,
trial,html.Screen,4_118_0,2023-10-31T22:28:16.856Z,,0,3,,2686.366000023787,response,ISIC_0437978.JPG,4,ISIC_0066854.JPG,ISIC_0066854.JPG,false,0,keypress(z),500,591046.2000000477,591046.1000000238,588355.438,588356.8000000119,588359.734,591053.062,8,400,19,,ISIC_0437978.JPG
break,html.Screen,4_118_1,2023-10-31T22:28:16.856Z,,0,,,NaN,,,,,,false,,,,591046.5,591046.4000000358,,591046.3000000119,,591053.062,8,400,,,
break_continue,html.Screen,4_118_2,2023-10-31T22:28:16.856Z,,0,,,NaN,,,,,,false,,,,591046.6000000238,591046.6000000238,,591046.5,,591053.062,8,400,,,
sequence,flow.Sequence,4_118,2023-10-31T22:28:16.857Z,,0,,,2686.866000023787,completion,,,,,false,,,,591046.7000000477,591046.6000000238,588355.438,588356.8000000119,588359.734,591053.062,8,400,,,
trial,html.Screen,4_119_0,2023-10-31T22:28:19.819Z,,0,3,,2955.5380000238074,response,ISIC_6384906.JPG,4,ISIC_6681802.JPG,ISIC_6681802.JPG,false,0,keypress(z),500,594008.9000000358,594008.6000000238,591042.922,591046.7000000477,591053.062,594015.528,8,400,20,,ISIC_6384906.JPG
break,html.Screen,4_119_1,2023-10-31T22:28:19.819Z,,0,,,NaN,,,,,,false,,,,594009.2000000477,594009.1000000238,,594008.9000000358,,594015.528,8,400,,,
break_continue,html.Screen,4_119_2,2023-10-31T22:28:19.819Z,,0,,,NaN,,,,,,false,,,,594009.3000000119,594009.3000000119,,594009.2000000477,,594015.528,8,400,,,
sequence,flow.Sequence,4_119,2023-10-31T22:28:19.819Z,,0,,,2956.2380000118865,completion,,,,,false,,,,594009.3000000119,594009.3000000119,591042.922,591046.7000000477,591053.062,594015.528,8,400,,,
trial,html.Screen,4_120_0,2023-10-31T22:28:22.925Z,,0,3,,3099.4719999999506,response,ISIC_3046905.JPG,6,ISIC_8835545.JPG,ISIC_8835545.JPG,false,0,keypress(z),500,597115.1000000238,597115,594005.465,594009.4000000358,594015.528,597118.047,8,400,21,,ISIC_3046905.JPG
break,html.Screen,4_120_1,2023-10-31T22:28:22.925Z,,0,,,NaN,,,,,,false,,,,597115.5,597115.4000000358,,597115.2000000477,,597118.047,8,400,,,
break_continue,html.Screen,4_120_2,2023-10-31T22:28:22.926Z,,0,,,NaN,,,,,,false,,,,597115.7000000477,597115.7000000477,,597115.6000000238,,597118.047,8,400,,,
sequence,flow.Sequence,4_120,2023-10-31T22:28:22.926Z,,0,,,3100.1720000476344,completion,,,,,false,,,,597115.7000000477,597115.7000000477,594005.465,594009.4000000358,594015.528,597118.047,8,400,,,
trial,html.Screen,4_121_0,2023-10-31T22:28:26.127Z,,0,3,,3199.4529999999795,response,ISIC_0030995.JPG,6,ISIC_0060741.JPG,ISIC_0030995.JPG,false,1,keypress(m),500,600317.6000000238,600317.5,597113.802,597115.8000000119,597118.047,600326.431,8,400,22,,ISIC_0060741.JPG
break,html.Screen,4_121_1,2023-10-31T22:28:26.128Z,,0,,,NaN,,,,,,false,,,,600318,600317.8000000119,,600317.7000000477,,600326.431,8,400,,,
break_continue,html.Screen,4_121_2,2023-10-31T22:28:26.128Z,,0,,,NaN,,,,,,false,,,,600318.1000000238,600318.1000000238,,600318.1000000238,,600326.431,8,400,,,
sequence,flow.Sequence,4_121,2023-10-31T22:28:26.128Z,,0,,,3200.0530000238214,completion,,,,,false,,,,600318.1000000238,600318.1000000238,597113.802,597115.8000000119,597118.047,600326.431,8,400,,,
trial,html.Screen,4_122_0,2023-10-31T22:28:29.361Z,,0,3,,3224.9690000357805,response,ISIC_0030353.JPG,4,ISIC_9574191.JPG,ISIC_0030353.JPG,false,1,keypress(m),500,603551.6000000238,603551.4000000358,600323.553,600318.7000000477,600326.431,603555.53,8,400,23,,ISIC_9574191.JPG
break,html.Screen,4_122_1,2023-10-31T22:28:29.362Z,,0,,,NaN,,,,,,false,,,,603552,603551.9000000358,,603551.6000000238,,603555.53,8,400,,,
break_continue,html.Screen,4_122_2,2023-10-31T22:28:29.362Z,,0,,,NaN,,,,,,false,,,,603552.2000000477,603552.1000000238,,603552.1000000238,,603555.53,8,400,,,
sequence,flow.Sequence,4_122,2023-10-31T22:28:29.362Z,,0,,,3225.6690000238596,completion,,,,,false,,,,603552.3000000119,603552.1000000238,600323.553,600318.2000000477,600326.431,603555.53,8,400,,,
trial,html.Screen,4_123_0,2023-10-31T22:28:32.755Z,,0,3,,3389.969999999972,response,ISIC_0029198.JPG,5,ISIC_0067097.JPG,ISIC_0029198.JPG,false,1,keypress(m),500,606945.6000000238,606945.5,603551.255,603552.5,603555.53,606947.249,8,400,24,,ISIC_0067097.JPG
break,html.Screen,4_123_1,2023-10-31T22:28:32.756Z,,0,,,NaN,,,,,,false,,,,606945.9000000358,606945.8000000119,,606945.8000000119,,606947.249,8,400,,,
break_continue,html.Screen,4_123_2,2023-10-31T22:28:32.756Z,,0,,,NaN,,,,,,false,,,,606946.1000000238,606946.1000000238,,606946,,606947.249,8,400,,,
sequence,flow.Sequence,4_123,2023-10-31T22:28:32.756Z,,0,,,3390.570000023814,completion,,,,,false,,,,606946.2000000477,606946.1000000238,603551.255,603552.4000000358,603555.53,606947.249,8,400,,,
trial,html.Screen,4_124_0,2023-10-31T22:28:35.365Z,,0,3,,2608.0510000119684,response,ISIC_2479134.JPG,5,ISIC_0014788.JPG,ISIC_0014788.JPG,false,0,keypress(z),500,609555.4000000358,609555.3000000119,606942.952,606946.2000000477,606947.249,609559.698,8,400,25,,ISIC_2479134.JPG
break,html.Screen,4_124_1,2023-10-31T22:28:35.365Z,,0,,,NaN,,,,,,false,,,,609555.7000000477,609555.6000000238,,609555.6000000238,,609559.698,8,400,,,
break_continue,html.Screen,4_124_2,2023-10-31T22:28:35.366Z,,0,,,NaN,,,,,,false,,,,609555.8000000119,609555.8000000119,,609555.7000000477,,609559.698,8,400,,,
sequence,flow.Sequence,4_124,2023-10-31T22:28:35.366Z,,0,,,2608.5510000119684,completion,,,,,false,,,,609556,609555.8000000119,606942.952,606946.2000000477,606947.249,609559.698,8,400,,,
trial,html.Screen,4_125_0,2023-10-31T22:28:38.311Z,,0,3,,2941.202000035788,response,ISIC_0032780.JPG,4,ISIC_5732201.JPG,ISIC_0032780.JPG,false,1,keypress(m),500,612500.9000000358,612500.9000000358,609555.421,609556,609559.698,612509.673,8,400,26,,ISIC_5732201.JPG
break,html.Screen,4_125_1,2023-10-31T22:28:38.311Z,,0,,,NaN,,,,,,false,,,,612501.2000000477,612501.1000000238,,612501,,612509.673,8,400,,,
break_continue,html.Screen,4_125_2,2023-10-31T22:28:38.311Z,,0,,,NaN,,,,,,false,,,,612501.3000000119,612501.2000000477,,612501.2000000477,,612509.673,8,400,,,
