sender,sender_type,sender_id,timestamp,meta,,blockNo,condition,duration,ended_on,img_left,img_reveal,img_right,loser,practice,response,response_action,selection_duration,time_commit,time_end,time_render,time_run,time_show,time_switch,total_blocks,total_trials,trialNo,url,winner
informed_consent,html.Screen,0,2023-10-31T17:11:04.431Z,"{""labjs_version"":""20.2.4"",""labjs_build"":{""flavor"":""production"",""commit"":""f5b4a49f956347addd546a832a3327688c2c0fef""},""location"":""https://run.pavlovia.org/MurrayBennett/melanoma-2afc/?participant=66505&platform=sona"",""userAgent"":""Mozilla/5.0 (Macintosh; Intel Mac OS X 10_15_7) AppleWebKit/605.1.15 (KHTML, like Gecko) Version/16.4 Safari/605.1.15"",""platform"":""MacIntel"",""language"":""en-US"",""locale"":""en-US"",""timeZone"":""America/Chicago"",""timezoneOffset"":300,""screen_width"":1440,""screen_height"":900,""scroll_width"":1440,""scroll_height"":772,""window_innerWidth"":1440,""window_innerHeight"":820,""devicePixelRatio"":2}",,,,15886,response,,,,,,consent,click button,,17757,17761,1875,1871,1893,17800,,,,"{""participant"":""66505"",""platform"":""sona""}",
Welcome,html.Screen,1,2023-10-31T17:11:05.746Z,,,,symmetry,1312,response,,,,,,continue,click button,,19072,19078,17766,17757,17800,19116,,,,,
trial,html.Screen,2_0_0,2023-10-31T17:11:17.242Z,,0,0,,11518,timeout,ISIC_0069348.JPG,,ISIC_6997061.JPG,,true,,,500,30569,30568,19083,19072,19116,30634,1,6,1,,
sequence,flow.Sequence,2_0,2023-10-31T17:11:17.243Z,,0,,,11452,completion,,,,,true,,,,30570,30568,19083,19072,19116,30634,1,6,,,
trial,html.Screen,2_1_0,2023-10-31T17:11:26.639Z,,0,0,,9365,response,ISIC_0009529.JPG,,ISIC_0057368.JPG,ISIC_0009529.JPG,true,1,keypress(m),500,39965,39965,30600,30570,30634,40017,1,6,2,,ISIC_0057368.JPG
sequence,flow.Sequence,2_1,2023-10-31T17:11:26.639Z,,0,,,9331,completion,,,,,true,,,,39966,39965,30600,30570,30634,40017,1,6,,,
trial,html.Screen,2_2_0,2023-10-31T17:11:31.399Z,,0,0,,4741,response,ISIC_9758671.JPG,,ISIC_0064954.JPG,ISIC_0064954.JPG,true,0,keypress(z),500,44726,44725,39984,39966,40017,44767,1,6,3,,ISIC_9758671.JPG
sequence,flow.Sequence,2_2,2023-10-31T17:11:31.399Z,,0,,,4708,completion,,,,,true,,,,44726,44725,39984,39966,40017,44767,1,6,,,
trial,html.Screen,2_3_0,2023-10-31T17:11:36.152Z,,0,0,,4745,response,ISIC_0000080.JPG,,ISIC_0005785.JPG,ISIC_0005785.JPG,true,0,keypress(z),500,49480.00000000001,49479,44734,44727.00000000001,44767,49534,1,6,4,,ISIC_0000080.JPG
sequence,flow.Sequence,2_3,2023-10-31T17:11:36.153Z,,0,,,4712,completion,,,,,true,,,,49480.00000000001,49479,44734,44726,44767,49534,1,6,,,
trial,html.Screen,2_4_0,2023-10-31T17:11:41.258Z,,0,0,,5084,response,ISIC_7944028.JPG,,ISIC_5390060.JPG,ISIC_5390060.JPG,true,0,keypress(z),500,54586,54585,49501,49481,49534,54634,1,6,5,,ISIC_7944028.JPG
sequence,flow.Sequence,2_4,2023-10-31T17:11:41.259Z,,0,,,5051,completion,,,,,true,,,,54586,54585,49501,49480.00000000001,49534,54634,1,6,,,
trial,html.Screen,2_5_0,2023-10-31T17:11:44.409Z,,0,0,,3135.0000000000073,response,ISIC_0010188.JPG,,ISIC_0794216.JPG,ISIC_0010188.JPG,true,1,keypress(m),500,57737,57736.00000000001,54601,54586,54634,57784,1,6,6,,ISIC_0794216.JPG
sequence,flow.Sequence,2_5,2023-10-31T17:11:44.410Z,,0,,,3102.0000000000073,completion,,,,,true,,,,57737,57736.00000000001,54601,54586,54634,57784,1,6,,,
loop,flow.Loop,2,2023-10-31T17:11:44.410Z,,,,,38620.00000000001,completion,,,,,true,,,,57738,57736.00000000001,19083,19072,19116,57784,1,6,,,
exp_instructions,html.Screen,3,2023-10-31T17:11:54.196Z,,,,,9780,response,,,,,,continue,keypress(Space),,67524,67531,57751,57738,57784,67567,,,,,
trial,html.Screen,4_0_0,2023-10-31T17:11:58.800Z,,0,1,,4593,response,ISIC_4961708.JPG,8,ISIC_1166678.JPG,ISIC_4961708.JPG,false,1,keypress(m),500,72128,72127,67534,67524,67567,72168,8,400,1,,ISIC_1166678.JPG
break,html.Screen,4_0_1,2023-10-31T17:11:58.802Z,,0,,,NaN,,,,,,false,,,,72130,72130,,72128,,72168,8,400,,,
break_continue,html.Screen,4_0_2,2023-10-31T17:11:58.803Z,,0,,,NaN,,,,,,false,,,,72131,72130,,72130,,72168,8,400,,,
sequence,flow.Sequence,4_0,2023-10-31T17:11:58.803Z,,0,,,4563,completion,,,,,false,,,,72131,72130,67534,67524,67567,72168,8,400,,,
trial,html.Screen,4_1_0,2023-10-31T17:12:01.627Z,,0,1,,2821,response,ISIC_3696488.JPG,5,ISIC_3564136.JPG,ISIC_3696488.JPG,false,1,keypress(m),500,74956,74955,72134,72131,72168,75002,8,400,2,,ISIC_3564136.JPG
break,html.Screen,4_1_1,2023-10-31T17:12:01.629Z,,0,,,NaN,,,,,,false,,,,74957.00000000001,74957.00000000001,,74956,,75002,8,400,,,
break_continue,html.Screen,4_1_2,2023-10-31T17:12:01.630Z,,0,,,NaN,,,,,,false,,,,74958,74957.00000000001,,74957.00000000001,,75002,8,400,,,
sequence,flow.Sequence,4_1,2023-10-31T17:12:01.630Z,,0,,,2789.0000000000146,completion,,,,,false,,,,74958,74957.00000000001,72134,72131,72168,75002,8,400,,,
trial,html.Screen,4_2_0,2023-10-31T17:12:04.648Z,,0,1,,3008,response,ISIC_7167811.JPG,8,ISIC_7809510.JPG,ISIC_7809510.JPG,false,0,keypress(z),500,77976,77976,74968,74958,75002,78017,8,400,3,,ISIC_7167811.JPG
break,html.Screen,4_2_1,2023-10-31T17:12:04.649Z,,0,,,NaN,,,,,,false,,,,77977,77977,,77977,,78017,8,400,,,
break_continue,html.Screen,4_2_2,2023-10-31T17:12:04.650Z,,0,,,NaN,,,,,,false,,,,77978.00000000001,77978.00000000001,,77978.00000000001,,78017,8,400,,,
sequence,flow.Sequence,4_2,2023-10-31T17:12:04.650Z,,0,,,2976.0000000000146,completion,,,,,false,,,,77978.00000000001,77978.00000000001,74968,74958,75002,78017,8,400,,,
trial,html.Screen,4_3_0,2023-10-31T17:12:07.199Z,,0,1,,2541,response,ISIC_5287748.JPG,10,ISIC_0063492.JPG,ISIC_0063492.JPG,false,0,keypress(z),500,80527,80526,77985,77978.00000000001,78017,80568,8,400,4,,ISIC_5287748.JPG
break,html.Screen,4_3_1,2023-10-31T17:12:07.200Z,,0,,,NaN,,,,,,false,,,,80529,80528,,80528,,80568,8,400,,,
break_continue,html.Screen,4_3_2,2023-10-31T17:12:07.201Z,,0,,,NaN,,,,,,false,,,,80529,80529,,80529,,80568,8,400,,,
sequence,flow.Sequence,4_3,2023-10-31T17:12:07.201Z,,0,,,2512,completion,,,,,false,,,,80530,80529,77985,77978.00000000001,78017,80568,8,400,,,
trial,html.Screen,4_4_0,2023-10-31T17:12:09.699Z,,0,1,,2492,response,ISIC_0003281.JPG,13,ISIC_6072777.JPG,ISIC_0003281.JPG,false,1,keypress(m),500,83028,83027,80535,80530,80568,83068,8,400,5,,ISIC_6072777.JPG
break,html.Screen,4_4_1,2023-10-31T17:12:09.701Z,,0,,,NaN,,,,,,false,,,,83030,83029,,83028,,83068,8,400,,,
break_continue,html.Screen,4_4_2,2023-10-31T17:12:09.702Z,,0,,,NaN,,,,,,false,,,,83030,83030,,83030,,83068,8,400,,,
sequence,flow.Sequence,4_4,2023-10-31T17:12:09.702Z,,0,,,2462,completion,,,,,false,,,,83031,83030,80535,80530,80568,83068,8,400,,,
trial,html.Screen,4_5_0,2023-10-31T17:12:12.280Z,,0,1,,2572,response,ISIC_4713698.JPG,9,ISIC_2916754.JPG,ISIC_2916754.JPG,false,0,keypress(z),500,85608,85607,83035,83031,83068,85652,8,400,6,,ISIC_4713698.JPG
break,html.Screen,4_5_1,2023-10-31T17:12:12.281Z,,0,,,NaN,,,,,,false,,,,85610,85609.00000000001,,85609.00000000001,,85652,8,400,,,
break_continue,html.Screen,4_5_2,2023-10-31T17:12:12.282Z,,0,,,NaN,,,,,,false,,,,85610,85610,,85610,,85652,8,400,,,
sequence,flow.Sequence,4_5,2023-10-31T17:12:12.282Z,,0,,,2542,completion,,,,,false,,,,85611,85610,83035,83031,83068,85652,8,400,,,
trial,html.Screen,4_6_0,2023-10-31T17:12:15.427Z,,0,1,,3136,response,ISIC_1075605.JPG,9,ISIC_0063745.JPG,ISIC_0063745.JPG,false,0,keypress(z),500,88756,88755,85619,85611,85652,88801,8,400,7,,ISIC_1075605.JPG
break,html.Screen,4_6_1,2023-10-31T17:12:15.428Z,,0,,,NaN,,,,,,false,,,,88757,88757,,88756,,88801,8,400,,,
break_continue,html.Screen,4_6_2,2023-10-31T17:12:15.429Z,,0,,,NaN,,,,,,false,,,,88757,88757,,88757,,88801,8,400,,,
sequence,flow.Sequence,4_6,2023-10-31T17:12:15.429Z,,0,,,3105,completion,,,,,false,,,,88758,88757,85619,85611,85652,88801,8,400,,,
trial,html.Screen,4_7_0,2023-10-31T17:12:18.234Z,,0,1,,2794,response,ISIC_7144739.JPG,9,ISIC_0060342.JPG,ISIC_0060342.JPG,false,0,keypress(z),500,91563,91563,88769,88758,88801,91602,8,400,8,,ISIC_7144739.JPG
break,html.Screen,4_7_1,2023-10-31T17:12:18.236Z,,0,,,NaN,,,,,,false,,,,91564,91564,,91563,,91602,8,400,,,
break_continue,html.Screen,4_7_2,2023-10-31T17:12:18.236Z,,0,,,NaN,,,,,,false,,,,91565,91565,,91564,,91602,8,400,,,
sequence,flow.Sequence,4_7,2023-10-31T17:12:18.236Z,,0,,,2764,completion,,,,,false,,,,91565,91565,88769,88758,88801,91602,8,400,,,
trial,html.Screen,4_8_0,2023-10-31T17:12:21.244Z,,0,1,,3004,response,ISIC_0028156.JPG,5,ISIC_0014708.JPG,ISIC_0028156.JPG,false,1,keypress(m),500,94573.00000000001,94572,91568,91565,91602,94618,8,400,9,,ISIC_0014708.JPG
break,html.Screen,4_8_1,2023-10-31T17:12:21.245Z,,0,,,NaN,,,,,,false,,,,94574,94574,,94573.00000000001,,94618,8,400,,,
break_continue,html.Screen,4_8_2,2023-10-31T17:12:21.246Z,,0,,,NaN,,,,,,false,,,,94575,94575,,94574,,94618,8,400,,,
sequence,flow.Sequence,4_8,2023-10-31T17:12:21.246Z,,0,,,2973,completion,,,,,false,,,,94575,94575,91568,91565,91602,94618,8,400,,,
trial,html.Screen,4_9_0,2023-10-31T17:12:23.870Z,,0,1,,2614,response,ISIC_0010852.JPG,6,ISIC_8184471.JPG,ISIC_0010852.JPG,false,1,keypress(m),500,97199,97199,94585,94575,94618,97252,8,400,10,,ISIC_8184471.JPG
break,html.Screen,4_9_1,2023-10-31T17:12:23.872Z,,0,,,NaN,,,,,,false,,,,97201.00000000001,97200,,97200,,97252,8,400,,,
break_continue,html.Screen,4_9_2,2023-10-31T17:12:23.872Z,,0,,,NaN,,,,,,false,,,,97201.00000000001,97201.00000000001,,97201.00000000001,,97252,8,400,,,
sequence,flow.Sequence,4_9,2023-10-31T17:12:23.872Z,,0,,,2583.0000000000146,completion,,,,,false,,,,97201.00000000001,97201.00000000001,94585,94575,94618,97252,8,400,,,
trial,html.Screen,4_10_0,2023-10-31T17:12:26.697Z,,0,1,,2807,response,ISIC_0028505.JPG,11,ISIC_0489267.JPG,ISIC_0028505.JPG,false,1,keypress(m),500,100027,100026,97219,97202,97252,100068,8,400,11,,ISIC_0489267.JPG
break,html.Screen,4_10_1,2023-10-31T17:12:26.699Z,,0,,,NaN,,,,,,false,,,,100028,100028,,100027,,100068,8,400,,,
break_continue,html.Screen,4_10_2,2023-10-31T17:12:26.699Z,,0,,,NaN,,,,,,false,,,,100028,100028,,100028,,100068,8,400,,,
sequence,flow.Sequence,4_10,2023-10-31T17:12:26.699Z,,0,,,2776,completion,,,,,false,,,,100028,100028,97219,97201.00000000001,97252,100068,8,400,,,
trial,html.Screen,4_11_0,2023-10-31T17:12:30.504Z,,0,1,,3797,response,ISIC_0059170.JPG,6,ISIC_6326803.JPG,ISIC_6326803.JPG,false,0,keypress(z),500,103833,103833,100036,100029,100068,103886,8,400,12,,ISIC_0059170.JPG
break,html.Screen,4_11_1,2023-10-31T17:12:30.506Z,,0,,,NaN,,,,,,false,,,,103835.00000000001,103835.00000000001,,103834,,103886,8,400,,,
break_continue,html.Screen,4_11_2,2023-10-31T17:12:30.506Z,,0,,,NaN,,,,,,false,,,,103835.00000000001,103835.00000000001,,103835.00000000001,,103886,8,400,,,
sequence,flow.Sequence,4_11,2023-10-31T17:12:30.506Z,,0,,,3767.0000000000146,completion,,,,,false,,,,103835.00000000001,103835.00000000001,100036,100029,100068,103886,8,400,,,
trial,html.Screen,4_12_0,2023-10-31T17:12:33.308Z,,0,1,,2784,response,ISIC_0659400.JPG,13,ISIC_2746860.JPG,ISIC_2746860.JPG,false,0,keypress(z),500,106638,106637,103853,103836,103886,106686,8,400,13,,ISIC_0659400.JPG
break,html.Screen,4_12_1,2023-10-31T17:12:33.310Z,,0,,,NaN,,,,,,false,,,,106639,106639,,106638,,106686,8,400,,,
break_continue,html.Screen,4_12_2,2023-10-31T17:12:33.310Z,,0,,,NaN,,,,,,false,,,,106639,106639,,106639,,106686,8,400,,,
sequence,flow.Sequence,4_12,2023-10-31T17:12:33.310Z,,0,,,2753,completion,,,,,false,,,,106640,106639,103853,103836,103886,106686,8,400,,,
trial,html.Screen,4_13_0,2023-10-31T17:12:36.259Z,,0,1,,2936,response,ISIC_8154363.JPG,8,ISIC_7400458.JPG,ISIC_7400458.JPG,false,0,keypress(z),500,109589,109589,106653,106640,106686,109636,8,400,14,,ISIC_8154363.JPG
break,html.Screen,4_13_1,2023-10-31T17:12:36.260Z,,0,,,NaN,,,,,,false,,,,109589,109589,,109589,,109636,8,400,,,
break_continue,html.Screen,4_13_2,2023-10-31T17:12:36.260Z,,0,,,NaN,,,,,,false,,,,109589,109589,,109589,,109636,8,400,,,
sequence,flow.Sequence,4_13,2023-10-31T17:12:36.260Z,,0,,,2903,completion,,,,,false,,,,109589,109589,106653,106640,106686,109636,8,400,,,
trial,html.Screen,4_14_0,2023-10-31T17:12:39.274Z,,0,1,,3000.0000000000146,response,ISIC_7455460.JPG,8,ISIC_4088647.JPG,ISIC_4088647.JPG,false,0,keypress(z),500,112603.00000000001,112603.00000000001,109603,109589,109636,112653,8,400,15,,ISIC_7455460.JPG
break,html.Screen,4_14_1,2023-10-31T17:12:39.275Z,,0,,,NaN,,,,,,false,,,,112605,112604,,112604,,112653,8,400,,,
break_continue,html.Screen,4_14_2,2023-10-31T17:12:39.276Z,,0,,,NaN,,,,,,false,,,,112605,112605,,112605,,112653,8,400,,,
sequence,flow.Sequence,4_14,2023-10-31T17:12:39.276Z,,0,,,2969,completion,,,,,false,,,,112605,112605,109603,109589,109636,112653,8,400,,,
trial,html.Screen,4_15_0,2023-10-31T17:12:42.245Z,,0,1,,2954,response,ISIC_0009911.JPG,2,ISIC_0025327.JPG,ISIC_0025327.JPG,false,0,keypress(z),500,115574,115574,112620,112605,112653,115619,8,400,16,,ISIC_0009911.JPG
break,html.Screen,4_15_1,2023-10-31T17:12:42.245Z,,0,,,NaN,,,,,,false,,,,115575,115575,,115574,,115619,8,400,,,
break_continue,html.Screen,4_15_2,2023-10-31T17:12:42.246Z,,0,,,NaN,,,,,,false,,,,115576.00000000001,115575,,115575,,115619,8,400,,,
sequence,flow.Sequence,4_15,2023-10-31T17:12:42.246Z,,0,,,2922,completion,,,,,false,,,,115576.00000000001,115575,112620,112605,112653,115619,8,400,,,
trial,html.Screen,4_16_0,2023-10-31T17:12:45.539Z,,0,1,,3282.0000000000146,response,ISIC_0069486.JPG,13,ISIC_7724764.JPG,ISIC_7724764.JPG,false,0,keypress(z),500,118869,118868.00000000001,115586,115576.00000000001,115619,118919,8,400,17,,ISIC_0069486.JPG
break,html.Screen,4_16_1,2023-10-31T17:12:45.540Z,,0,,,NaN,,,,,,false,,,,118870,118870,,118869,,118919,8,400,,,
break_continue,html.Screen,4_16_2,2023-10-31T17:12:45.541Z,,0,,,NaN,,,,,,false,,,,118870,118870,,118870,,118919,8,400,,,
sequence,flow.Sequence,4_16,2023-10-31T17:12:45.541Z,,0,,,3251,completion,,,,,false,,,,118871.00000000001,118870,115586,115576.00000000001,115619,118919,8,400,,,
trial,html.Screen,4_17_0,2023-10-31T17:12:49.512Z,,0,1,,3956.0000000000146,response,ISIC_0024589.JPG,10,ISIC_7626256.JPG,ISIC_7626256.JPG,false,0,keypress(z),500,122842,122841.00000000001,118885,118871.00000000001,118919,122886,8,400,18,,ISIC_0024589.JPG
break,html.Screen,4_17_1,2023-10-31T17:12:49.513Z,,0,,,NaN,,,,,,false,,,,122843,122843,,122842,,122886,8,400,,,
break_continue,html.Screen,4_17_2,2023-10-31T17:12:49.514Z,,0,,,NaN,,,,,,false,,,,122844.00000000001,122844.00000000001,,122843,,122886,8,400,,,
sequence,flow.Sequence,4_17,2023-10-31T17:12:49.514Z,,0,,,3925.0000000000146,completion,,,,,false,,,,122844.00000000001,122844.00000000001,118885,118871.00000000001,118919,122886,8,400,,,
trial,html.Screen,4_18_0,2023-10-31T17:12:51.991Z,,0,1,,2468,response,ISIC_4087267.JPG,5,ISIC_9312264.JPG,ISIC_9312264.JPG,false,0,keypress(z),500,125321,125321,122853,122844.00000000001,122886,125370,8,400,19,,ISIC_4087267.JPG
break,html.Screen,4_18_1,2023-10-31T17:12:51.993Z,,0,,,NaN,,,,,,false,,,,125323.00000000001,125322,,125322,,125370,8,400,,,
break_continue,html.Screen,4_18_2,2023-10-31T17:12:51.994Z,,0,,,NaN,,,,,,false,,,,125324,125323.00000000001,,125323.00000000001,,125370,8,400,,,
sequence,flow.Sequence,4_18,2023-10-31T17:12:51.994Z,,0,,,2437.0000000000146,completion,,,,,false,,,,125324,125323.00000000001,122853,122844.00000000001,122886,125370,8,400,,,
trial,html.Screen,4_19_0,2023-10-31T17:12:54.519Z,,0,1,,2513,response,ISIC_5942564.JPG,8,ISIC_5974838.JPG,ISIC_5942564.JPG,false,1,keypress(m),500,127849,127849,125336,125324,125370,127903,8,400,20,,ISIC_5974838.JPG
break,html.Screen,4_19_1,2023-10-31T17:12:54.521Z,,0,,,NaN,,,,,,false,,,,127851,127850.00000000001,,127850.00000000001,,127903,8,400,,,
break_continue,html.Screen,4_19_2,2023-10-31T17:12:54.521Z,,0,,,NaN,,,,,,false,,,,127851,127851,,127851,,127903,8,400,,,
sequence,flow.Sequence,4_19,2023-10-31T17:12:54.521Z,,0,,,2481,completion,,,,,false,,,,127851,127851,125336,125324,125370,127903,8,400,,,
trial,html.Screen,4_20_0,2023-10-31T17:12:57.073Z,,0,1,,2532.9999999999854,response,ISIC_4359258.JPG,9,ISIC_7397447.JPG,ISIC_4359258.JPG,false,1,keypress(m),500,130402.99999999999,130402.99999999999,127870,127851,127903,130453,8,400,21,,ISIC_7397447.JPG
break,html.Screen,4_20_1,2023-10-31T17:12:57.075Z,,0,,,NaN,,,,,,false,,,,130405,130404,,130404,,130453,8,400,,,
break_continue,html.Screen,4_20_2,2023-10-31T17:12:57.075Z,,0,,,NaN,,,,,,false,,,,130405,130405,,130405,,130453,8,400,,,
sequence,flow.Sequence,4_20,2023-10-31T17:12:57.075Z,,0,,,2502,completion,,,,,false,,,,130406,130405,127870,127851,127903,130453,8,400,,,
trial,html.Screen,4_21_0,2023-10-31T17:12:59.645Z,,0,1,,2555,response,ISIC_0054239.JPG,8,ISIC_4398011.JPG,ISIC_4398011.JPG,false,0,keypress(z),500,132975,132975,130420,130406,130453,133020,8,400,22,,ISIC_0054239.JPG
break,html.Screen,4_21_1,2023-10-31T17:12:59.646Z,,0,,,NaN,,,,,,false,,,,132977,132976,,132976,,133020,8,400,,,
break_continue,html.Screen,4_21_2,2023-10-31T17:12:59.647Z,,0,,,NaN,,,,,,false,,,,132977,132977,,132977,,133020,8,400,,,
sequence,flow.Sequence,4_21,2023-10-31T17:12:59.647Z,,0,,,2524,completion,,,,,false,,,,132977,132977,130420,130406,130453,133020,8,400,,,
trial,html.Screen,4_22_0,2023-10-31T17:13:04.400Z,,0,1,,4742,response,ISIC_0067235.JPG,5,ISIC_0001104.JPG,ISIC_0067235.JPG,false,1,keypress(m),500,137730,137729,132987,132977,133020,137770,8,400,23,,ISIC_0001104.JPG
break,html.Screen,4_22_1,2023-10-31T17:13:04.401Z,,0,,,NaN,,,,,,false,,,,137731,137731,,137730,,137770,8,400,,,
break_continue,html.Screen,4_22_2,2023-10-31T17:13:04.401Z,,0,,,NaN,,,,,,false,,,,137732,137732,,137731,,137770,8,400,,,
sequence,flow.Sequence,4_22,2023-10-31T17:13:04.401Z,,0,,,4712,completion,,,,,false,,,,137732,137732,132987,132977,133020,137770,8,400,,,
trial,html.Screen,4_23_0,2023-10-31T17:13:07.442Z,,0,1,,3035,response,ISIC_3826102.JPG,8,ISIC_0011095.JPG,ISIC_3826102.JPG,false,1,keypress(m),500,140772,140772,137737,137732,137770,140820,8,400,24,,ISIC_0011095.JPG
break,html.Screen,4_23_1,2023-10-31T17:13:07.443Z,,0,,,NaN,,,,,,false,,,,140773,140773,,140772,,140820,8,400,,,
break_continue,html.Screen,4_23_2,2023-10-31T17:13:07.443Z,,0,,,NaN,,,,,,false,,,,140774,140774,,140774,,140820,8,400,,,
sequence,flow.Sequence,4_23,2023-10-31T17:13:07.444Z,,0,,,3004,completion,,,,,false,,,,140774,140774,137737,137732,137770,140820,8,400,,,
trial,html.Screen,4_24_0,2023-10-31T17:13:10.285Z,,0,1,,2828,response,ISIC_4434803.JPG,7,ISIC_3496800.JPG,ISIC_4434803.JPG,false,1,keypress(m),500,143616,143615,140787,140775,140820,143671,8,400,25,,ISIC_3496800.JPG
break,html.Screen,4_24_1,2023-10-31T17:13:10.287Z,,0,,,NaN,,,,,,false,,,,143617,143617,,143616,,143671,8,400,,,
break_continue,html.Screen,4_24_2,2023-10-31T17:13:10.287Z,,0,,,NaN,,,,,,false,,,,143618,143618,,143618,,143671,8,400,,,
sequence,flow.Sequence,4_24,2023-10-31T17:13:10.287Z,,0,,,2798,completion,,,,,false,,,,143618,143618,140787,140774,140820,143671,8,400,,,
trial,html.Screen,4_25_0,2023-10-31T17:13:12.738Z,,0,1,,2431,response,ISIC_7162343.JPG,13,ISIC_4042619.JPG,ISIC_4042619.JPG,false,0,keypress(z),500,146069.00000000003,146068,143637,143618,143671,146120,8,400,26,,ISIC_7162343.JPG
break,html.Screen,4_25_1,2023-10-31T17:13:12.739Z,,0,,,NaN,,,,,,false,,,,146070,146070,,146069.00000000003,,146120,8,400,,,
break_continue,html.Screen,4_25_2,2023-10-31T17:13:12.739Z,,0,,,NaN,,,,,,false,,,,146070,146070,,146070,,146120,8,400,,,
sequence,flow.Sequence,4_25,2023-10-31T17:13:12.740Z,,0,,,2399,completion,,,,,false,,,,146070,146070,143637,143618,143671,146120,8,400,,,
trial,html.Screen,4_26_0,2023-10-31T17:13:15.374Z,,0,1,,2617,response,ISIC_9271800.JPG,12,ISIC_2714572.JPG,ISIC_9271800.JPG,false,1,keypress(m),500,148705,148704,146087,146070,146120,148754,8,400,27,,ISIC_2714572.JPG
break,html.Screen,4_26_1,2023-10-31T17:13:15.375Z,,0,,,NaN,,,,,,false,,,,148705,148705,,148705,,148754,8,400,,,
break_continue,html.Screen,4_26_2,2023-10-31T17:13:15.375Z,,0,,,NaN,,,,,,false,,,,148706.00000000003,148706.00000000003,,148706.00000000003,,148754,8,400,,,
sequence,flow.Sequence,4_26,2023-10-31T17:13:15.375Z,,0,,,2586.000000000029,completion,,,,,false,,,,148706.00000000003,148706.00000000003,146087,146070,146120,148754,8,400,,,
trial,html.Screen,4_27_0,2023-10-31T17:13:18.398Z,,0,1,,3008,response,ISIC_6778515.JPG,8,ISIC_0030391.JPG,ISIC_6778515.JPG,false,1,keypress(m),500,151729,151729,148721,148706.00000000003,148754,151771,8,400,28,,ISIC_0030391.JPG
break,html.Screen,4_27_1,2023-10-31T17:13:18.400Z,,0,,,NaN,,,,,,false,,,,151731,151730,,151730,,151771,8,400,,,
break_continue,html.Screen,4_27_2,2023-10-31T17:13:18.400Z,,0,,,NaN,,,,,,false,,,,151731,151731,,151731,,151771,8,400,,,
sequence,flow.Sequence,4_27,2023-10-31T17:13:18.400Z,,0,,,2977,completion,,,,,false,,,,151731,151731,148721,148706.00000000003,148754,151771,8,400,,,
trial,html.Screen,4_28_0,2023-10-31T17:13:21.258Z,,0,1,,2851,response,ISIC_8348712.JPG,10,ISIC_0024208.JPG,ISIC_8348712.JPG,false,1,keypress(m),500,154589,154588,151737,151731,151771,154637,8,400,29,,ISIC_0024208.JPG
break,html.Screen,4_28_1,2023-10-31T17:13:21.259Z,,0,,,NaN,,,,,,false,,,,154590,154590,,154589,,154637,8,400,,,
break_continue,html.Screen,4_28_2,2023-10-31T17:13:21.259Z,,0,,,NaN,,,,,,false,,,,154591,154590,,154590,,154637,8,400,,,
sequence,flow.Sequence,4_28,2023-10-31T17:13:21.260Z,,0,,,2819,completion,,,,,false,,,,154591,154590,151737,151731,151771,154637,8,400,,,
trial,html.Screen,4_29_0,2023-10-31T17:13:24.420Z,,0,1,,3147,response,ISIC_6870208.JPG,6,ISIC_1497525.JPG,ISIC_1497525.JPG,false,0,keypress(z),500,157751,157751,154604,154591,154637,157804,8,400,30,,ISIC_6870208.JPG
break,html.Screen,4_29_1,2023-10-31T17:13:24.421Z,,0,,,NaN,,,,,,false,,,,157753,157752,,157752,,157804,8,400,,,
break_continue,html.Screen,4_29_2,2023-10-31T17:13:24.422Z,,0,,,NaN,,,,,,false,,,,157753,157753,,157753,,157804,8,400,,,
sequence,flow.Sequence,4_29,2023-10-31T17:13:24.422Z,,0,,,3116,completion,,,,,false,,,,157753,157753,154604,154591,154637,157804,8,400,,,
trial,html.Screen,4_30_0,2023-10-31T17:13:27.138Z,,0,1,,2698,response,ISIC_6271218.JPG,11,ISIC_0056201.JPG,ISIC_0056201.JPG,false,0,keypress(z),500,160469,160469,157771,157753,157804,160521,8,400,31,,ISIC_6271218.JPG
break,html.Screen,4_30_1,2023-10-31T17:13:27.139Z,,0,,,NaN,,,,,,false,,,,160471,160470,,160470,,160521,8,400,,,
break_continue,html.Screen,4_30_2,2023-10-31T17:13:27.140Z,,0,,,NaN,,,,,,false,,,,160471,160471,,160471,,160521,8,400,,,
sequence,flow.Sequence,4_30,2023-10-31T17:13:27.140Z,,0,,,2667,completion,,,,,false,,,,160471,160471,157771,157753,157804,160521,8,400,,,
trial,html.Screen,4_31_0,2023-10-31T17:13:29.992Z,,0,1,,2835,response,ISIC_6271218.JPG,5,ISIC_0055474.JPG,ISIC_0055474.JPG,false,0,keypress(z),500,163323,163323,160488,160471,160521,163371,8,400,32,,ISIC_6271218.JPG
break,html.Screen,4_31_1,2023-10-31T17:13:29.993Z,,0,,,NaN,,,,,,false,,,,163324,163324,,163324,,163371,8,400,,,
break_continue,html.Screen,4_31_2,2023-10-31T17:13:29.993Z,,0,,,NaN,,,,,,false,,,,163325.00000000003,163325.00000000003,,163325.00000000003,,163371,8,400,,,
sequence,flow.Sequence,4_31,2023-10-31T17:13:29.994Z,,0,,,2804.000000000029,completion,,,,,false,,,,163325.00000000003,163325.00000000003,160488,160471,160521,163371,8,400,,,
trial,html.Screen,4_32_0,2023-10-31T17:13:34.686Z,,0,1,,4679,response,ISIC_3552318.JPG,9,ISIC_0060760.JPG,ISIC_3552318.JPG,false,1,keypress(m),500,168017,168017,163338,163325.00000000003,163371,168054,8,400,33,,ISIC_0060760.JPG
break,html.Screen,4_32_1,2023-10-31T17:13:34.687Z,,0,,,NaN,,,,,,false,,,,168019,168018,,168018,,168054,8,400,,,
break_continue,html.Screen,4_32_2,2023-10-31T17:13:34.687Z,,0,,,NaN,,,,,,false,,,,168019,168019,,168019,,168054,8,400,,,
sequence,flow.Sequence,4_32,2023-10-31T17:13:34.688Z,,0,,,4648,completion,,,,,false,,,,168019,168019,163338,163325.00000000003,163371,168054,8,400,,,
trial,html.Screen,4_33_0,2023-10-31T17:13:37.519Z,,0,1,,2828,response,ISIC_7277310.JPG,10,ISIC_8516223.JPG,ISIC_7277310.JPG,false,1,keypress(m),500,170851,170851,168023,168019,168054,170888,8,400,34,,ISIC_8516223.JPG
break,html.Screen,4_33_1,2023-10-31T17:13:37.521Z,,0,,,NaN,,,,,,false,,,,170852,170852,,170851,,170888,8,400,,,
break_continue,html.Screen,4_33_2,2023-10-31T17:13:37.521Z,,0,,,NaN,,,,,,false,,,,170853,170853,,170853,,170888,8,400,,,
sequence,flow.Sequence,4_33,2023-10-31T17:13:37.522Z,,0,,,2799,completion,,,,,false,,,,170853,170853,168023,168019,168054,170888,8,400,,,
trial,html.Screen,4_34_0,2023-10-31T17:13:40.864Z,,0,1,,3339,response,ISIC_0062505.JPG,9,ISIC_0026812.JPG,ISIC_0026812.JPG,false,0,keypress(z),500,174195,174195,170856,170854,170888,174238,8,400,35,,ISIC_0062505.JPG
break,html.Screen,4_34_1,2023-10-31T17:13:40.865Z,,0,,,NaN,,,,,,false,,,,174197,174197,,174196,,174238,8,400,,,
break_continue,html.Screen,4_34_2,2023-10-31T17:13:40.866Z,,0,,,NaN,,,,,,false,,,,174197,174197,,174197,,174238,8,400,,,
sequence,flow.Sequence,4_34,2023-10-31T17:13:40.866Z,,0,,,3309,completion,,,,,false,,,,174198,174197,170856,170854,170888,174238,8,400,,,
trial,html.Screen,4_35_0,2023-10-31T17:13:44.195Z,,0,1,,3322.000000000029,response,ISIC_0010719.JPG,11,ISIC_4907595.JPG,ISIC_0010719.JPG,false,1,keypress(m),500,177527.00000000003,177527.00000000003,174205,174198,174238,177572,8,400,36,,ISIC_4907595.JPG
break,html.Screen,4_35_1,2023-10-31T17:13:44.196Z,,0,,,NaN,,,,,,false,,,,177528,177528,,177528,,177572,8,400,,,
break_continue,html.Screen,4_35_2,2023-10-31T17:13:44.197Z,,0,,,NaN,,,,,,false,,,,177529,177529,,177529,,177572,8,400,,,
sequence,flow.Sequence,4_35,2023-10-31T17:13:44.197Z,,0,,,3291,completion,,,,,false,,,,177529,177529,174205,174198,174238,177572,8,400,,,
trial,html.Screen,4_36_0,2023-10-31T17:13:47.914Z,,0,1,,3707,response,ISIC_9157162.JPG,10,ISIC_8036175.JPG,ISIC_9157162.JPG,false,1,keypress(m),500,181246,181245,177538,177529,177572,181288,8,400,37,,ISIC_8036175.JPG
break,html.Screen,4_36_1,2023-10-31T17:13:47.915Z,,0,,,NaN,,,,,,false,,,,181247,181247,,181246,,181288,8,400,,,
break_continue,html.Screen,4_36_2,2023-10-31T17:13:47.915Z,,0,,,NaN,,,,,,false,,,,181247,181247,,181247,,181288,8,400,,,
sequence,flow.Sequence,4_36,2023-10-31T17:13:47.916Z,,0,,,3675,completion,,,,,false,,,,181248,181247,177538,177529,177572,181288,8,400,,,
trial,html.Screen,4_37_0,2023-10-31T17:13:50.602Z,,0,1,,2679,response,ISIC_0032938.JPG,9,ISIC_8711983.JPG,ISIC_8711983.JPG,false,0,keypress(z),500,183934,183934,181255,181248,181288,183988,8,400,38,,ISIC_0032938.JPG
break,html.Screen,4_37_1,2023-10-31T17:13:50.603Z,,0,,,NaN,,,,,,false,,,,183936,183935,,183934,,183988,8,400,,,
break_continue,html.Screen,4_37_2,2023-10-31T17:13:50.604Z,,0,,,NaN,,,,,,false,,,,183936,183936,,183936,,183988,8,400,,,
sequence,flow.Sequence,4_37,2023-10-31T17:13:50.604Z,,0,,,2648,completion,,,,,false,,,,183936,183936,181255,181248,181288,183988,8,400,,,
trial,html.Screen,4_38_0,2023-10-31T17:13:53.794Z,,0,1,,3171,response,ISIC_0057759.JPG,5,ISIC_6710411.JPG,ISIC_0057759.JPG,false,1,keypress(m),500,187126,187126,183955,183936,183988,187171,8,400,39,,ISIC_6710411.JPG
break,html.Screen,4_38_1,2023-10-31T17:13:53.795Z,,0,,,NaN,,,,,,false,,,,187127,187127,,187127,,187171,8,400,,,
break_continue,html.Screen,4_38_2,2023-10-31T17:13:53.796Z,,0,,,NaN,,,,,,false,,,,187128,187128,,187128,,187171,8,400,,,
sequence,flow.Sequence,4_38,2023-10-31T17:13:53.796Z,,0,,,3140,completion,,,,,false,,,,187128,187128,183955,183936,183988,187171,8,400,,,
trial,html.Screen,4_39_0,2023-10-31T17:13:59.248Z,,0,1,,5441,response,ISIC_6978997.JPG,10,ISIC_4329176.JPG,ISIC_6978997.JPG,false,1,keypress(m),500,192581.00000000003,192580,187139,187128,187171,192622,8,400,40,,ISIC_4329176.JPG
break,html.Screen,4_39_1,2023-10-31T17:13:59.249Z,,0,,,NaN,,,,,,false,,,,192582,192581.00000000003,,192581.00000000003,,192622,8,400,,,
break_continue,html.Screen,4_39_2,2023-10-31T17:13:59.249Z,,0,,,NaN,,,,,,false,,,,192582,192582,,192582,,192622,8,400,,,
sequence,flow.Sequence,4_39,2023-10-31T17:13:59.250Z,,0,,,5411,completion,,,,,false,,,,192582,192582,187139,187128,187171,192622,8,400,,,
trial,html.Screen,4_40_0,2023-10-31T17:14:02.160Z,,0,1,,2904,response,ISIC_9286292.JPG,9,ISIC_5081382.JPG,ISIC_5081382.JPG,false,0,keypress(z),500,195493,195492,192588,192582,192622,195539,8,400,41,,ISIC_9286292.JPG
break,html.Screen,4_40_1,2023-10-31T17:14:02.161Z,,0,,,NaN,,,,,,false,,,,195494,195494,,195493,,195539,8,400,,,
break_continue,html.Screen,4_40_2,2023-10-31T17:14:02.162Z,,0,,,NaN,,,,,,false,,,,195494,195494,,195494,,195539,8,400,,,
sequence,flow.Sequence,4_40,2023-10-31T17:14:02.162Z,,0,,,2872,completion,,,,,false,,,,195494,195494,192588,192582,192622,195539,8,400,,,
trial,html.Screen,4_41_0,2023-10-31T17:14:05.193Z,,0,1,,3020,response,ISIC_5722914.JPG,10,ISIC_0031705.JPG,ISIC_0031705.JPG,false,0,keypress(z),500,198525,198525,195505,195495,195539,198572,8,400,42,,ISIC_5722914.JPG
break,html.Screen,4_41_1,2023-10-31T17:14:05.194Z,,0,,,NaN,,,,,,false,,,,198527.00000000003,198526,,198526,,198572,8,400,,,
break_continue,html.Screen,4_41_2,2023-10-31T17:14:05.194Z,,0,,,NaN,,,,,,false,,,,198527.00000000003,198527.00000000003,,198527.00000000003,,198572,8,400,,,
sequence,flow.Sequence,4_41,2023-10-31T17:14:05.194Z,,0,,,2988.000000000029,completion,,,,,false,,,,198527.00000000003,198527.00000000003,195505,195495,195539,198572,8,400,,,
trial,html.Screen,4_42_0,2023-10-31T17:14:08.195Z,,0,1,,2989,response,ISIC_1470934.JPG,5,ISIC_6532137.JPG,ISIC_1470934.JPG,false,1,keypress(m),500,201528,201528,198539,198527.00000000003,198572,201572,8,400,43,,ISIC_6532137.JPG
break,html.Screen,4_42_1,2023-10-31T17:14:08.196Z,,0,,,NaN,,,,,,false,,,,201529,201529,,201528,,201572,8,400,,,
break_continue,html.Screen,4_42_2,2023-10-31T17:14:08.197Z,,0,,,NaN,,,,,,false,,,,201530,201530,,201530,,201572,8,400,,,
sequence,flow.Sequence,4_42,2023-10-31T17:14:08.197Z,,0,,,2958,completion,,,,,false,,,,201530,201530,198539,198527.00000000003,198572,201572,8,400,,,
trial,html.Screen,4_43_0,2023-10-31T17:14:10.878Z,,0,1,,2671,response,ISIC_0679494.JPG,9,ISIC_0034117.JPG,ISIC_0034117.JPG,false,0,keypress(z),500,204211,204210,201539,201530,201572,204256,8,400,44,,ISIC_0679494.JPG
break,html.Screen,4_43_1,2023-10-31T17:14:10.879Z,,0,,,NaN,,,,,,false,,,,204212.00000000003,204212.00000000003,,204211,,204256,8,400,,,
break_continue,html.Screen,4_43_2,2023-10-31T17:14:10.879Z,,0,,,NaN,,,,,,false,,,,204212.00000000003,204212.00000000003,,204212.00000000003,,204256,8,400,,,
sequence,flow.Sequence,4_43,2023-10-31T17:14:10.879Z,,0,,,2640.000000000029,completion,,,,,false,,,,204213,204212.00000000003,201539,201530,201572,204256,8,400,,,
trial,html.Screen,4_44_0,2023-10-31T17:14:13.740Z,,0,1,,2850,response,ISIC_0025343.JPG,11,ISIC_1948545.JPG,ISIC_1948545.JPG,false,0,keypress(z),500,207073,207072,204222,204213,204256,207123,8,400,45,,ISIC_0025343.JPG
break,html.Screen,4_44_1,2023-10-31T17:14:13.741Z,,0,,,NaN,,,,,,false,,,,207074,207074,,207073,,207123,8,400,,,
break_continue,html.Screen,4_44_2,2023-10-31T17:14:13.742Z,,0,,,NaN,,,,,,false,,,,207075.00000000003,207075.00000000003,,207075.00000000003,,207123,8,400,,,
sequence,flow.Sequence,4_44,2023-10-31T17:14:13.742Z,,0,,,2819.000000000029,completion,,,,,false,,,,207075.00000000003,207075.00000000003,204222,204213,204256,207123,8,400,,,
trial,html.Screen,4_45_0,2023-10-31T17:14:17.105Z,,0,1,,3349.000000000029,response,ISIC_7545432.JPG,5,ISIC_6065301.JPG,ISIC_7545432.JPG,false,1,keypress(m),500,210439,210438.00000000003,207089,207075.00000000003,207123,210489,8,400,46,,ISIC_6065301.JPG
break,html.Screen,4_45_1,2023-10-31T17:14:17.107Z,,0,,,NaN,,,,,,false,,,,210440,210440,,210439,,210489,8,400,,,
break_continue,html.Screen,4_45_2,2023-10-31T17:14:17.107Z,,0,,,NaN,,,,,,false,,,,210440,210440,,210440,,210489,8,400,,,
sequence,flow.Sequence,4_45,2023-10-31T17:14:17.107Z,,0,,,3317,completion,,,,,false,,,,210440,210440,207089,207075.00000000003,207123,210489,8,400,,,
trial,html.Screen,4_46_0,2023-10-31T17:14:20.006Z,,0,1,,2882,response,ISIC_8265105.JPG,4,ISIC_8893501.JPG,ISIC_8893501.JPG,false,0,keypress(z),500,213339,213338,210456,210440,210489,213389,8,400,47,,ISIC_8265105.JPG
break,html.Screen,4_46_1,2023-10-31T17:14:20.007Z,,0,,,NaN,,,,,,false,,,,213340,213340,,213339,,213389,8,400,,,
break_continue,html.Screen,4_46_2,2023-10-31T17:14:20.007Z,,0,,,NaN,,,,,,false,,,,213341,213340,,213340,,213389,8,400,,,
sequence,flow.Sequence,4_46,2023-10-31T17:14:20.007Z,,0,,,2851,completion,,,,,false,,,,213341,213340,210456,210440,210489,213389,8,400,,,
trial,html.Screen,4_47_0,2023-10-31T17:14:22.939Z,,0,1,,2916,response,ISIC_1869829.JPG,10,ISIC_0004455.JPG,ISIC_1869829.JPG,false,1,keypress(m),500,216272,216272,213356,213341,213389,216323,8,400,48,,ISIC_0004455.JPG
break,html.Screen,4_47_1,2023-10-31T17:14:22.940Z,,0,,,NaN,,,,,,false,,,,216274,216273,,216273,,216323,8,400,,,
break_continue,html.Screen,4_47_2,2023-10-31T17:14:22.940Z,,0,,,NaN,,,,,,false,,,,216274,216274,,216274,,216323,8,400,,,
sequence,flow.Sequence,4_47,2023-10-31T17:14:22.941Z,,0,,,2885,completion,,,,,false,,,,216274,216274,213356,213341,213389,216323,8,400,,,
trial,html.Screen,4_48_0,2023-10-31T17:14:26.023Z,,0,1,,3067,response,ISIC_8380904.JPG,6,ISIC_8733745.JPG,ISIC_8733745.JPG,false,0,keypress(z),500,219357,219356,216289,216274,216323,219406,8,400,49,,ISIC_8380904.JPG
break,html.Screen,4_48_1,2023-10-31T17:14:26.025Z,,0,,,NaN,,,,,,false,,,,219358,219358,,219357,,219406,8,400,,,
break_continue,html.Screen,4_48_2,2023-10-31T17:14:26.025Z,,0,,,NaN,,,,,,false,,,,219358,219358,,219358,,219406,8,400,,,
sequence,flow.Sequence,4_48,2023-10-31T17:14:26.025Z,,0,,,3035,completion,,,,,false,,,,219359,219358,216289,216274,216323,219406,8,400,,,
trial,html.Screen,4_49_0,2023-10-31T17:14:28.786Z,,0,1,,2746,response,ISIC_6771810.JPG,9,ISIC_0033274.JPG,ISIC_6771810.JPG,false,1,keypress(m),500,222120,222119,219373,219359,219406,222173,8,400,50,,ISIC_0033274.JPG
break,html.Screen,4_49_1,2023-10-31T17:14:38.806Z,,0,,,10000,timeout,,,,,false,,,,232140.00000000003,232139,222139,222120,222173,232173,8,400,,,
break_continue,html.Screen,4_49_2,2023-10-31T17:14:40.635Z,,0,,,1839,response,,,,,false,continue,keypress(Space),,233969,233978,232139,232140.00000000003,232173,234023,8,400,,,
sequence,flow.Sequence,4_49,2023-10-31T17:14:40.635Z,,0,,,14572,completion,,,,,false,,,,233969,233978,219373,219359,219406,234023,8,400,,,
trial,html.Screen,4_50_0,2023-10-31T17:14:45.579Z,,0,2,,4923,response,ISIC_0056047.JPG,7,ISIC_2000319.JPG,ISIC_0056047.JPG,false,1,keypress(m),500,238913,238912,233989,233969,234023,238957,8,400,1,,ISIC_2000319.JPG
break,html.Screen,4_50_1,2023-10-31T17:14:45.580Z,,0,,,NaN,,,,,,false,,,,238914.00000000003,238914.00000000003,,238913,,238957,8,400,,,
break_continue,html.Screen,4_50_2,2023-10-31T17:14:45.581Z,,0,,,NaN,,,,,,false,,,,238915,238915,,238915,,238957,8,400,,,
sequence,flow.Sequence,4_50,2023-10-31T17:14:45.581Z,,0,,,4892,completion,,,,,false,,,,238915,238915,233989,233969,234023,238957,8,400,,,
trial,html.Screen,4_51_0,2023-10-31T17:14:48.378Z,,0,2,,2788.000000000029,response,ISIC_0292775.JPG,8,ISIC_6032520.JPG,ISIC_6032520.JPG,false,0,keypress(z),500,241712.00000000003,241712.00000000003,238924,238915,238957,241757,8,400,2,,ISIC_0292775.JPG
break,html.Screen,4_51_1,2023-10-31T17:14:48.379Z,,0,,,NaN,,,,,,false,,,,241714,241713,,241712.00000000003,,241757,8,400,,,
break_continue,html.Screen,4_51_2,2023-10-31T17:14:48.380Z,,0,,,NaN,,,,,,false,,,,241714,241714,,241714,,241757,8,400,,,
sequence,flow.Sequence,4_51,2023-10-31T17:14:48.380Z,,0,,,2757,completion,,,,,false,,,,241714,241714,238924,238915,238957,241757,8,400,,,
trial,html.Screen,4_52_0,2023-10-31T17:14:51.162Z,,0,2,,2771,response,ISIC_1037315.JPG,12,ISIC_2421696.JPG,ISIC_1037315.JPG,false,1,keypress(m),500,244496,244495,241724,241714,241757,244539,8,400,3,,ISIC_2421696.JPG
break,html.Screen,4_52_1,2023-10-31T17:14:51.163Z,,0,,,NaN,,,,,,false,,,,244497,244497,,244496,,244539,8,400,,,
break_continue,html.Screen,4_52_2,2023-10-31T17:14:51.163Z,,0,,,NaN,,,,,,false,,,,244498.00000000003,244498.00000000003,,244498.00000000003,,244539,8,400,,,
sequence,flow.Sequence,4_52,2023-10-31T17:14:51.164Z,,0,,,2741.000000000029,completion,,,,,false,,,,244498.00000000003,244498.00000000003,241724,241714,241757,244539,8,400,,,
trial,html.Screen,4_53_0,2023-10-31T17:14:54.042Z,,0,2,,2870,response,ISIC_0027663.JPG,9,ISIC_1379601.JPG,ISIC_1379601.JPG,false,0,keypress(z),500,247377,247376,244506,244498.00000000003,244539,247424,8,400,4,,ISIC_0027663.JPG
break,html.Screen,4_53_1,2023-10-31T17:14:54.043Z,,0,,,NaN,,,,,,false,,,,247378,247378,,247377,,247424,8,400,,,
break_continue,html.Screen,4_53_2,2023-10-31T17:14:54.044Z,,0,,,NaN,,,,,,false,,,,247378,247378,,247378,,247424,8,400,,,
sequence,flow.Sequence,4_53,2023-10-31T17:14:54.044Z,,0,,,2839,completion,,,,,false,,,,247379.00000000003,247378,244506,244498.00000000003,244539,247424,8,400,,,
trial,html.Screen,4_54_0,2023-10-31T17:14:56.641Z,,0,2,,2586,response,ISIC_0032149.JPG,7,ISIC_0033586.JPG,ISIC_0032149.JPG,false,1,keypress(m),500,249976,249976,247390,247379.00000000003,247424,250024,8,400,5,,ISIC_0033586.JPG
break,html.Screen,4_54_1,2023-10-31T17:14:56.643Z,,0,,,NaN,,,,,,false,,,,249977,249977,,249977,,250024,8,400,,,
break_continue,html.Screen,4_54_2,2023-10-31T17:14:56.643Z,,0,,,NaN,,,,,,false,,,,249978,249978,,249978,,250024,8,400,,,
sequence,flow.Sequence,4_54,2023-10-31T17:14:56.643Z,,0,,,2554,completion,,,,,false,,,,249978,249978,247390,247379.00000000003,247424,250024,8,400,,,
trial,html.Screen,4_55_0,2023-10-31T17:14:59.136Z,,0,2,,2480,response,ISIC_0000539.JPG,2,ISIC_3123377.JPG,ISIC_3123377.JPG,false,0,keypress(z),500,252471,252470,249990,249978,250024,252524,8,400,6,,ISIC_0000539.JPG
break,html.Screen,4_55_1,2023-10-31T17:14:59.137Z,,0,,,NaN,,,,,,false,,,,252472,252472,,252471,,252524,8,400,,,
break_continue,html.Screen,4_55_2,2023-10-31T17:14:59.137Z,,0,,,NaN,,,,,,false,,,,252472,252472,,252472,,252524,8,400,,,
sequence,flow.Sequence,4_55,2023-10-31T17:14:59.137Z,,0,,,2448,completion,,,,,false,,,,252472,252472,249990,249978,250024,252524,8,400,,,
trial,html.Screen,4_56_0,2023-10-31T17:15:01.799Z,,0,2,,2642,response,ISIC_0963536.JPG,11,ISIC_0059485.JPG,ISIC_0963536.JPG,false,1,keypress(m),500,255134,255133,252491,252472,252524,255174,8,400,7,,ISIC_0059485.JPG
break,html.Screen,4_56_1,2023-10-31T17:15:01.800Z,,0,,,NaN,,,,,,false,,,,255135.00000000003,255135.00000000003,,255134,,255174,8,400,,,
break_continue,html.Screen,4_56_2,2023-10-31T17:15:01.800Z,,0,,,NaN,,,,,,false,,,,255135.00000000003,255135.00000000003,,255135.00000000003,,255174,8,400,,,
sequence,flow.Sequence,4_56,2023-10-31T17:15:01.800Z,,0,,,2611.000000000029,completion,,,,,false,,,,255135.00000000003,255135.00000000003,252491,252472,252524,255174,8,400,,,
trial,html.Screen,4_57_0,2023-10-31T17:15:04.363Z,,0,2,,2557,response,ISIC_0010164.JPG,8,ISIC_0059435.JPG,ISIC_0010164.JPG,false,1,keypress(m),500,257697.99999999997,257697,255140,255135.00000000003,255174,257741,8,400,8,,ISIC_0059435.JPG
break,html.Screen,4_57_1,2023-10-31T17:15:04.364Z,,0,,,NaN,,,,,,false,,,,257699,257699,,257697.99999999997,,257741,8,400,,,
break_continue,html.Screen,4_57_2,2023-10-31T17:15:04.364Z,,0,,,NaN,,,,,,false,,,,257699,257699,,257699,,257741,8,400,,,
sequence,flow.Sequence,4_57,2023-10-31T17:15:04.365Z,,0,,,2525,completion,,,,,false,,,,257700,257699,255140,255135.00000000003,255174,257741,8,400,,,
trial,html.Screen,4_58_0,2023-10-31T17:15:07.018Z,,0,2,,2645.000000000029,response,ISIC_7373074.JPG,10,ISIC_9483306.JPG,ISIC_9483306.JPG,false,0,keypress(z),500,260353,260352.00000000003,257707,257700,257741,260390,8,400,9,,ISIC_7373074.JPG
break,html.Screen,4_58_1,2023-10-31T17:15:07.019Z,,0,,,NaN,,,,,,false,,,,260353.99999999997,260353.99999999997,,260353,,260390,8,400,,,
break_continue,html.Screen,4_58_2,2023-10-31T17:15:07.019Z,,0,,,NaN,,,,,,false,,,,260353.99999999997,260353.99999999997,,260353.99999999997,,260390,8,400,,,
sequence,flow.Sequence,4_58,2023-10-31T17:15:07.020Z,,0,,,2612.999999999971,completion,,,,,false,,,,260355.00000000003,260353.99999999997,257707,257700,257741,260390,8,400,,,
trial,html.Screen,4_59_0,2023-10-31T17:15:09.661Z,,0,2,,2639,response,ISIC_2732573.JPG,10,ISIC_3799267.JPG,ISIC_3799267.JPG,false,0,keypress(z),500,262996,262996,260357,260355.00000000003,260390,263041,8,400,10,,ISIC_2732573.JPG
break,html.Screen,4_59_1,2023-10-31T17:15:09.662Z,,0,,,NaN,,,,,,false,,,,262998,262997,,262997,,263041,8,400,,,
break_continue,html.Screen,4_59_2,2023-10-31T17:15:09.663Z,,0,,,NaN,,,,,,false,,,,262998,262998,,262998,,263041,8,400,,,
sequence,flow.Sequence,4_59,2023-10-31T17:15:09.663Z,,0,,,2608,completion,,,,,false,,,,262998,262998,260357,260355.00000000003,260390,263041,8,400,,,
trial,html.Screen,4_60_0,2023-10-31T17:15:12.774Z,,0,2,,3101,response,ISIC_0012048.JPG,10,ISIC_0058198.JPG,ISIC_0012048.JPG,false,1,keypress(m),500,266110,266109,263008,262998,263041,266158,8,400,11,,ISIC_0058198.JPG
break,html.Screen,4_60_1,2023-10-31T17:15:12.776Z,,0,,,NaN,,,,,,false,,,,266111,266111,,266110,,266158,8,400,,,
break_continue,html.Screen,4_60_2,2023-10-31T17:15:12.776Z,,0,,,NaN,,,,,,false,,,,266111,266111,,266111,,266158,8,400,,,
sequence,flow.Sequence,4_60,2023-10-31T17:15:12.776Z,,0,,,3070,completion,,,,,false,,,,266112,266111,263008,262998,263041,266158,8,400,,,
trial,html.Screen,4_61_0,2023-10-31T17:15:16.161Z,,0,2,,3372,response,ISIC_9182492.JPG,10,ISIC_6952773.JPG,ISIC_9182492.JPG,false,1,keypress(m),500,269496,269496,266124,266112,266158,269541,8,400,12,,ISIC_6952773.JPG
break,html.Screen,4_61_1,2023-10-31T17:15:16.162Z,,0,,,NaN,,,,,,false,,,,269498,269497,,269497,,269541,8,400,,,
break_continue,html.Screen,4_61_2,2023-10-31T17:15:16.162Z,,0,,,NaN,,,,,,false,,,,269498,269498,,269498,,269541,8,400,,,
sequence,flow.Sequence,4_61,2023-10-31T17:15:16.163Z,,0,,,3340,completion,,,,,false,,,,269498,269498,266124,266112,266158,269541,8,400,,,
trial,html.Screen,4_62_0,2023-10-31T17:15:19.928Z,,0,2,,3756,response,ISIC_4069836.JPG,4,ISIC_0008816.JPG,ISIC_0008816.JPG,false,0,keypress(z),500,273264,273264,269508,269498,269541,273307,8,400,13,,ISIC_4069836.JPG
break,html.Screen,4_62_1,2023-10-31T17:15:19.930Z,,0,,,NaN,,,,,,false,,,,273265,273265,,273264,,273307,8,400,,,
break_continue,html.Screen,4_62_2,2023-10-31T17:15:19.930Z,,0,,,NaN,,,,,,false,,,,273266,273266,,273265,,273307,8,400,,,
sequence,flow.Sequence,4_62,2023-10-31T17:15:19.930Z,,0,,,3725,completion,,,,,false,,,,273266,273266,269508,269498,269541,273307,8,400,,,
trial,html.Screen,4_63_0,2023-10-31T17:15:24.172Z,,0,2,,4234,response,ISIC_2483825.JPG,11,ISIC_0015035.JPG,ISIC_2483825.JPG,false,1,keypress(m),500,277508,277508,273274,273266,273307,277558,8,400,14,,ISIC_0015035.JPG
break,html.Screen,4_63_1,2023-10-31T17:15:24.173Z,,0,,,NaN,,,,,,false,,,,277509,277509,,277508,,277558,8,400,,,
break_continue,html.Screen,4_63_2,2023-10-31T17:15:24.174Z,,0,,,NaN,,,,,,false,,,,277510,277509,,277509,,277558,8,400,,,
sequence,flow.Sequence,4_63,2023-10-31T17:15:24.174Z,,0,,,4202,completion,,,,,false,,,,277510,277509,273274,273266,273307,277558,8,400,,,
trial,html.Screen,4_64_0,2023-10-31T17:15:26.928Z,,0,2,,2739.000000000058,response,ISIC_6877295.JPG,9,ISIC_0030481.JPG,ISIC_6877295.JPG,false,1,keypress(m),500,280264,280263.00000000006,277524,277510,277558,280308,8,400,15,,ISIC_0030481.JPG
break,html.Screen,4_64_1,2023-10-31T17:15:26.929Z,,0,,,NaN,,,,,,false,,,,280265,280265,,280264,,280308,8,400,,,
break_continue,html.Screen,4_64_2,2023-10-31T17:15:26.930Z,,0,,,NaN,,,,,,false,,,,280266,280265,,280265,,280308,8,400,,,
sequence,flow.Sequence,4_64,2023-10-31T17:15:26.930Z,,0,,,2707,completion,,,,,false,,,,280266,280265,277524,277510,277558,280308,8,400,,,
trial,html.Screen,4_65_0,2023-10-31T17:15:30.408Z,,0,2,,3468,response,ISIC_4352700.JPG,8,ISIC_0032532.JPG,ISIC_4352700.JPG,false,1,keypress(m),500,283744,283743,280275,280266,280308,283792,8,400,16,,ISIC_0032532.JPG
break,html.Screen,4_65_1,2023-10-31T17:15:30.409Z,,0,,,NaN,,,,,,false,,,,283745,283745,,283744,,283792,8,400,,,
break_continue,html.Screen,4_65_2,2023-10-31T17:15:30.410Z,,0,,,NaN,,,,,,false,,,,283746,283745,,283745,,283792,8,400,,,
sequence,flow.Sequence,4_65,2023-10-31T17:15:30.410Z,,0,,,3437,completion,,,,,false,,,,283746,283745,280275,280266,280308,283792,8,400,,,
trial,html.Screen,4_66_0,2023-10-31T17:15:35.182Z,,0,2,,4759,response,ISIC_0030089.JPG,11,ISIC_8433108.JPG,ISIC_8433108.JPG,false,0,keypress(z),500,288518,288517,283758,283746,283792,288559,8,400,17,,ISIC_0030089.JPG
break,html.Screen,4_66_1,2023-10-31T17:15:35.183Z,,0,,,NaN,,,,,,false,,,,288519,288519,,288518,,288559,8,400,,,
break_continue,html.Screen,4_66_2,2023-10-31T17:15:35.183Z,,0,,,NaN,,,,,,false,,,,288520,288520,,288519,,288559,8,400,,,
sequence,flow.Sequence,4_66,2023-10-31T17:15:35.184Z,,0,,,4728,completion,,,,,false,,,,288520,288520,283758,283746,283792,288559,8,400,,,
trial,html.Screen,4_67_0,2023-10-31T17:15:38.232Z,,0,2,,3042,response,ISIC_0061735.JPG,4,ISIC_8086526.JPG,ISIC_0061735.JPG,false,1,keypress(m),500,291569,291568,288526,288520,288559,291609,8,400,18,,ISIC_8086526.JPG
break,html.Screen,4_67_1,2023-10-31T17:15:38.234Z,,0,,,NaN,,,,,,false,,,,291570,291570,,291569,,291609,8,400,,,
break_continue,html.Screen,4_67_2,2023-10-31T17:15:38.234Z,,0,,,NaN,,,,,,false,,,,291571,291571,,291570,,291609,8,400,,,
sequence,flow.Sequence,4_67,2023-10-31T17:15:38.235Z,,0,,,3012,completion,,,,,false,,,,291571,291571,288526,288520,288559,291609,8,400,,,
trial,html.Screen,4_68_0,2023-10-31T17:15:41.041Z,,0,2,,2801.000000000058,response,ISIC_5673994.JPG,3,ISIC_8622365.JPG,ISIC_8622365.JPG,false,0,keypress(z),500,294377,294376.00000000006,291575,291571,291609,294425,8,400,19,,ISIC_5673994.JPG
break,html.Screen,4_68_1,2023-10-31T17:15:41.042Z,,0,,,NaN,,,,,,false,,,,294378,294378,,294377,,294425,8,400,,,
break_continue,html.Screen,4_68_2,2023-10-31T17:15:41.042Z,,0,,,NaN,,,,,,false,,,,294379,294379,,294379,,294425,8,400,,,
sequence,flow.Sequence,4_68,2023-10-31T17:15:41.043Z,,0,,,2770,completion,,,,,false,,,,294379,294379,291575,291571,291609,294425,8,400,,,
trial,html.Screen,4_69_0,2023-10-31T17:15:43.777Z,,0,2,,2721,response,ISIC_0011238.JPG,9,ISIC_4530249.JPG,ISIC_0011238.JPG,false,1,keypress(m),500,297114.00000000006,297113,294392,294379,294425,297159,8,400,20,,ISIC_4530249.JPG
break,html.Screen,4_69_1,2023-10-31T17:15:43.779Z,,0,,,NaN,,,,,,false,,,,297115,297115,,297114.00000000006,,297159,8,400,,,
break_continue,html.Screen,4_69_2,2023-10-31T17:15:43.779Z,,0,,,NaN,,,,,,false,,,,297116,297116,,297116,,297159,8,400,,,
sequence,flow.Sequence,4_69,2023-10-31T17:15:43.779Z,,0,,,2691,completion,,,,,false,,,,297116,297116,294392,294379,294425,297159,8,400,,,
trial,html.Screen,4_70_0,2023-10-31T17:15:46.624Z,,0,2,,2835,response,ISIC_4237064.JPG,2,ISIC_0072393.JPG,ISIC_0072393.JPG,false,0,keypress(z),500,299961,299960,297125,297116,297159,300009,8,400,21,,ISIC_4237064.JPG
break,html.Screen,4_70_1,2023-10-31T17:15:46.625Z,,0,,,NaN,,,,,,false,,,,299962,299962,,299961,,300009,8,400,,,
break_continue,html.Screen,4_70_2,2023-10-31T17:15:46.626Z,,0,,,NaN,,,,,,false,,,,299963,299962,,299962,,300009,8,400,,,
sequence,flow.Sequence,4_70,2023-10-31T17:15:46.626Z,,0,,,2803,completion,,,,,false,,,,299963,299962,297125,297116,297159,300009,8,400,,,
trial,html.Screen,4_71_0,2023-10-31T17:15:50.783Z,,0,2,,4144,response,ISIC_0070092.JPG,7,ISIC_0068576.JPG,ISIC_0070092.JPG,false,1,keypress(m),500,304120,304120,299976,299963,300009,304159,8,400,22,,ISIC_0068576.JPG
break,html.Screen,4_71_1,2023-10-31T17:15:50.784Z,,0,,,NaN,,,,,,false,,,,304121,304121,,304120,,304159,8,400,,,
break_continue,html.Screen,4_71_2,2023-10-31T17:15:50.785Z,,0,,,NaN,,,,,,false,,,,304122,304122,,304121,,304159,8,400,,,
sequence,flow.Sequence,4_71,2023-10-31T17:15:50.785Z,,0,,,4113,completion,,,,,false,,,,304122,304122,299976,299963,300009,304159,8,400,,,
trial,html.Screen,4_72_0,2023-10-31T17:15:53.511Z,,0,2,,2722,response,ISIC_3116288.JPG,13,ISIC_0013767.JPG,ISIC_0013767.JPG,false,0,keypress(z),500,306848,306847,304125,304122,304159,306892,8,400,23,,ISIC_3116288.JPG
break,html.Screen,4_72_1,2023-10-31T17:15:53.512Z,,0,,,NaN,,,,,,false,,,,306849,306848,,306848,,306892,8,400,,,
break_continue,html.Screen,4_72_2,2023-10-31T17:15:53.512Z,,0,,,NaN,,,,,,false,,,,306849,306849,,306849,,306892,8,400,,,
sequence,flow.Sequence,4_72,2023-10-31T17:15:53.512Z,,0,,,2690,completion,,,,,false,,,,306849,306849,304125,304122,304159,306892,8,400,,,
trial,html.Screen,4_73_0,2023-10-31T17:15:56.496Z,,0,2,,2974,response,ISIC_7951202.JPG,7,ISIC_9445196.JPG,ISIC_9445196.JPG,false,0,keypress(z),500,309833,309833,306859,306850,306892,309876,8,400,24,,ISIC_7951202.JPG
break,html.Screen,4_73_1,2023-10-31T17:15:56.497Z,,0,,,NaN,,,,,,false,,,,309834,309834,,309833,,309876,8,400,,,
break_continue,html.Screen,4_73_2,2023-10-31T17:15:56.498Z,,0,,,NaN,,,,,,false,,,,309835,309835,,309834,,309876,8,400,,,
sequence,flow.Sequence,4_73,2023-10-31T17:15:56.498Z,,0,,,2943,completion,,,,,false,,,,309835,309835,306859,306849,306892,309876,8,400,,,
trial,html.Screen,4_74_0,2023-10-31T17:15:59.819Z,,0,2,,3313,response,ISIC_0033787.JPG,11,ISIC_9226193.JPG,ISIC_0033787.JPG,false,1,keypress(m),500,313157,313156,309843,309835,309876,313209,8,400,25,,ISIC_9226193.JPG
break,html.Screen,4_74_1,2023-10-31T17:15:59.821Z,,0,,,NaN,,,,,,false,,,,313158,313158,,313157,,313209,8,400,,,
break_continue,html.Screen,4_74_2,2023-10-31T17:15:59.821Z,,0,,,NaN,,,,,,false,,,,313158,313158,,313158,,313209,8,400,,,
sequence,flow.Sequence,4_74,2023-10-31T17:15:59.821Z,,0,,,3282,completion,,,,,false,,,,313158,313158,309843,309835,309876,313209,8,400,,,
trial,html.Screen,4_75_0,2023-10-31T17:16:03.425Z,,0,2,,3586,response,ISIC_3365692.JPG,13,ISIC_0028929.JPG,ISIC_0028929.JPG,false,0,keypress(z),500,316763.00000000006,316762,313176,313159,313209,316826,8,400,26,,ISIC_3365692.JPG
break,html.Screen,4_75_1,2023-10-31T17:16:03.427Z,,0,,,NaN,,,,,,false,,,,316764,316764,,316763.00000000006,,316826,8,400,,,
break_continue,html.Screen,4_75_2,2023-10-31T17:16:03.427Z,,0,,,NaN,,,,,,false,,,,316764,316764,,316764,,316826,8,400,,,
sequence,flow.Sequence,4_75,2023-10-31T17:16:03.427Z,,0,,,3555,completion,,,,,false,,,,316764,316764,313176,313159,313209,316826,8,400,,,
trial,html.Screen,4_76_0,2023-10-31T17:16:06.940Z,,0,2,,3484,response,ISIC_0033174.JPG,4,ISIC_0046504.JPG,ISIC_0046504.JPG,false,0,keypress(z),500,320277,320277,316793,316765,316826,320326,8,400,27,,ISIC_0033174.JPG
break,html.Screen,4_76_1,2023-10-31T17:16:06.941Z,,0,,,NaN,,,,,,false,,,,320279,320278,,320278,,320326,8,400,,,
break_continue,html.Screen,4_76_2,2023-10-31T17:16:06.942Z,,0,,,NaN,,,,,,false,,,,320279,320279,,320279,,320326,8,400,,,
sequence,flow.Sequence,4_76,2023-10-31T17:16:06.942Z,,0,,,3453,completion,,,,,false,,,,320279,320279,316793,316765,316826,320326,8,400,,,
trial,html.Screen,4_77_0,2023-10-31T17:16:09.749Z,,0,2,,2793,response,ISIC_0033479.JPG,6,ISIC_0071338.JPG,ISIC_0033479.JPG,false,1,keypress(m),500,323086,323086,320293,320280.00000000006,320326,323142,8,400,28,,ISIC_0071338.JPG
break,html.Screen,4_77_1,2023-10-31T17:16:09.749Z,,0,,,NaN,,,,,,false,,,,323087,323087,,323086,,323142,8,400,,,
break_continue,html.Screen,4_77_2,2023-10-31T17:16:09.749Z,,0,,,NaN,,,,,,false,,,,323087,323087,,323087,,323142,8,400,,,
sequence,flow.Sequence,4_77,2023-10-31T17:16:09.750Z,,0,,,2761,completion,,,,,false,,,,323087,323087,320293,320280.00000000006,320326,323142,8,400,,,
trial,html.Screen,4_78_0,2023-10-31T17:16:12.581Z,,0,2,,2808,response,ISIC_0028420.JPG,8,ISIC_0058768.JPG,ISIC_0058768.JPG,false,0,keypress(z),500,325919,325918,323110,323087,323142,325960,8,400,29,,ISIC_0028420.JPG
break,html.Screen,4_78_1,2023-10-31T17:16:12.582Z,,0,,,NaN,,,,,,false,,,,325920,325919,,325919,,325960,8,400,,,
break_continue,html.Screen,4_78_2,2023-10-31T17:16:12.583Z,,0,,,NaN,,,,,,false,,,,325920,325920,,325920,,325960,8,400,,,
sequence,flow.Sequence,4_78,2023-10-31T17:16:12.583Z,,0,,,2778,completion,,,,,false,,,,325920,325920,323110,323087,323142,325960,8,400,,,
trial,html.Screen,4_79_0,2023-10-31T17:16:15.585Z,,0,2,,2996,response,ISIC_2259861.JPG,8,ISIC_2151856.JPG,ISIC_2259861.JPG,false,1,keypress(m),500,328923,328922,325926,325921,325960,328976,8,400,30,,ISIC_2151856.JPG
break,html.Screen,4_79_1,2023-10-31T17:16:15.586Z,,0,,,NaN,,,,,,false,,,,328924.00000000006,328924.00000000006,,328923,,328976,8,400,,,
break_continue,html.Screen,4_79_2,2023-10-31T17:16:15.587Z,,0,,,NaN,,,,,,false,,,,328924.00000000006,328924.00000000006,,328924.00000000006,,328976,8,400,,,
sequence,flow.Sequence,4_79,2023-10-31T17:16:15.587Z,,0,,,2964.000000000058,completion,,,,,false,,,,328925,328924.00000000006,325926,325920,325960,328976,8,400,,,
trial,html.Screen,4_80_0,2023-10-31T17:16:19.248Z,,0,2,,3642,response,ISIC_9141065.JPG,4,ISIC_7164403.JPG,ISIC_7164403.JPG,false,0,keypress(z),500,332586,332585,328943,328925,328976,332627,8,400,31,,ISIC_9141065.JPG
break,html.Screen,4_80_1,2023-10-31T17:16:19.251Z,,0,,,NaN,,,,,,false,,,,332589,332588,,332586,,332627,8,400,,,
break_continue,html.Screen,4_80_2,2023-10-31T17:16:19.251Z,,0,,,NaN,,,,,,false,,,,332589,332589,,332589,,332627,8,400,,,
sequence,flow.Sequence,4_80,2023-10-31T17:16:19.251Z,,0,,,3613,completion,,,,,false,,,,332589,332589,328943,328925,328976,332627,8,400,,,
trial,html.Screen,4_81_0,2023-10-31T17:16:22.088Z,,0,2,,2832,response,ISIC_0026559.JPG,3,ISIC_6507640.JPG,ISIC_0026559.JPG,false,1,keypress(m),500,335426,335425,332593,332589,332627,335477,8,400,32,,ISIC_6507640.JPG
break,html.Screen,4_81_1,2023-10-31T17:16:22.090Z,,0,,,NaN,,,,,,false,,,,335428,335427,,335426,,335477,8,400,,,
break_continue,html.Screen,4_81_2,2023-10-31T17:16:22.090Z,,0,,,NaN,,,,,,false,,,,335428,335428,,335428,,335477,8,400,,,
sequence,flow.Sequence,4_81,2023-10-31T17:16:22.091Z,,0,,,2801,completion,,,,,false,,,,335429.00000000006,335428,332593,332589,332627,335477,8,400,,,
trial,html.Screen,4_82_0,2023-10-31T17:16:27.029Z,,0,2,,4923,response,ISIC_5367118.JPG,9,ISIC_6440229.JPG,ISIC_5367118.JPG,false,1,keypress(m),500,340367,340366,335443,335429.00000000006,335477,340410,8,400,33,,ISIC_6440229.JPG
break,html.Screen,4_82_1,2023-10-31T17:16:27.030Z,,0,,,NaN,,,,,,false,,,,340368,340368,,340367,,340410,8,400,,,
break_continue,html.Screen,4_82_2,2023-10-31T17:16:27.030Z,,0,,,NaN,,,,,,false,,,,340369,340368,,340368,,340410,8,400,,,
sequence,flow.Sequence,4_82,2023-10-31T17:16:27.031Z,,0,,,4891,completion,,,,,false,,,,340369,340368,335443,335429.00000000006,335477,340410,8,400,,,
trial,html.Screen,4_83_0,2023-10-31T17:16:30.076Z,,0,2,,3037,response,ISIC_5410481.JPG,6,ISIC_0000387.JPG,ISIC_5410481.JPG,false,1,keypress(m),500,343414,343414,340377,340369,340410,343460,8,400,34,,ISIC_0000387.JPG
break,html.Screen,4_83_1,2023-10-31T17:16:30.077Z,,0,,,NaN,,,,,,false,,,,343416,343415,,343415,,343460,8,400,,,
break_continue,html.Screen,4_83_2,2023-10-31T17:16:30.078Z,,0,,,NaN,,,,,,false,,,,343416,343416,,343416,,343460,8,400,,,
sequence,flow.Sequence,4_83,2023-10-31T17:16:30.078Z,,0,,,3006,completion,,,,,false,,,,343417.00000000006,343416,340377,340369,340410,343460,8,400,,,
trial,html.Screen,4_84_0,2023-10-31T17:16:34.253Z,,0,2,,4164,response,ISIC_8637134.JPG,5,ISIC_0071050.JPG,ISIC_0071050.JPG,false,0,keypress(z),500,347591,347591,343427,343417.00000000006,343460,347644,8,400,35,,ISIC_8637134.JPG
break,html.Screen,4_84_1,2023-10-31T17:16:34.254Z,,0,,,NaN,,,,,,false,,,,347593,347593,,347592,,347644,8,400,,,
break_continue,html.Screen,4_84_2,2023-10-31T17:16:34.255Z,,0,,,NaN,,,,,,false,,,,347593,347593,,347593,,347644,8,400,,,
sequence,flow.Sequence,4_84,2023-10-31T17:16:34.255Z,,0,,,4133,completion,,,,,false,,,,347593,347593,343427,343417.00000000006,343460,347644,8,400,,,
trial,html.Screen,4_85_0,2023-10-31T17:16:37.378Z,,0,2,,3106,response,ISIC_8138363.JPG,12,ISIC_0011948.JPG,ISIC_0011948.JPG,false,0,keypress(z),500,350716,350716,347610,347593,347644,350760,8,400,36,,ISIC_8138363.JPG
break,html.Screen,4_85_1,2023-10-31T17:16:37.379Z,,0,,,NaN,,,,,,false,,,,350718,350717,,350717,,350760,8,400,,,
break_continue,html.Screen,4_85_2,2023-10-31T17:16:37.380Z,,0,,,NaN,,,,,,false,,,,350718,350718,,350718,,350760,8,400,,,
sequence,flow.Sequence,4_85,2023-10-31T17:16:37.380Z,,0,,,3074,completion,,,,,false,,,,350718,350718,347610,347593,347644,350760,8,400,,,
trial,html.Screen,4_86_0,2023-10-31T17:16:41.120Z,,0,2,,3731,response,ISIC_0026398.JPG,8,ISIC_0059170.JPG,ISIC_0026398.JPG,false,1,keypress(m),500,354459,354458,350727,350719,350760,354511,8,400,37,,ISIC_0059170.JPG
break,html.Screen,4_86_1,2023-10-31T17:16:41.121Z,,0,,,NaN,,,,,,false,,,,354460,354459,,354459,,354511,8,400,,,
break_continue,html.Screen,4_86_2,2023-10-31T17:16:41.121Z,,0,,,NaN,,,,,,false,,,,354460,354460,,354460,,354511,8,400,,,
sequence,flow.Sequence,4_86,2023-10-31T17:16:41.122Z,,0,,,3700,completion,,,,,false,,,,354460,354460,350727,350719,350760,354511,8,400,,,
trial,html.Screen,4_87_0,2023-10-31T17:16:44.774Z,,0,2,,3636,response,ISIC_0014809.JPG,14,ISIC_1488727.JPG,ISIC_1488727.JPG,false,0,keypress(z),500,358113,358113,354477,354461,354511,358161,8,400,38,,ISIC_0014809.JPG
break,html.Screen,4_87_1,2023-10-31T17:16:44.775Z,,0,,,NaN,,,,,,false,,,,358114.00000000006,358114.00000000006,,358113,,358161,8,400,,,
break_continue,html.Screen,4_87_2,2023-10-31T17:16:44.776Z,,0,,,NaN,,,,,,false,,,,358115,358115,,358114.00000000006,,358161,8,400,,,
sequence,flow.Sequence,4_87,2023-10-31T17:16:44.776Z,,0,,,3604,completion,,,,,false,,,,358115,358115,354477,354460,354511,358161,8,400,,,
trial,html.Screen,4_88_0,2023-10-31T17:16:47.742Z,,0,2,,2954,response,ISIC_0033017.JPG,6,ISIC_0919467.JPG,ISIC_0919467.JPG,false,0,keypress(z),500,361081,361081,358127,358115,358161,361128,8,400,39,,ISIC_0033017.JPG
break,html.Screen,4_88_1,2023-10-31T17:16:47.743Z,,0,,,NaN,,,,,,false,,,,361082,361082,,361082,,361128,8,400,,,
break_continue,html.Screen,4_88_2,2023-10-31T17:16:47.744Z,,0,,,NaN,,,,,,false,,,,361083,361083,,361083,,361128,8,400,,,
sequence,flow.Sequence,4_88,2023-10-31T17:16:47.744Z,,0,,,2922,completion,,,,,false,,,,361083,361083,358127,358115,358161,361128,8,400,,,
trial,html.Screen,4_89_0,2023-10-31T17:16:50.231Z,,0,2,,2476,response,ISIC_5702591.JPG,5,ISIC_7503950.JPG,ISIC_5702591.JPG,false,1,keypress(m),500,363570,363570,361094,361084,361128,363611,8,400,40,,ISIC_7503950.JPG
break,html.Screen,4_89_1,2023-10-31T17:16:50.232Z,,0,,,NaN,,,,,,false,,,,363571,363571,,363570,,363611,8,400,,,
break_continue,html.Screen,4_89_2,2023-10-31T17:16:50.233Z,,0,,,NaN,,,,,,false,,,,363572,363572,,363572,,363611,8,400,,,
sequence,flow.Sequence,4_89,2023-10-31T17:16:50.233Z,,0,,,2444,completion,,,,,false,,,,363572,363572,361094,361083,361128,363611,8,400,,,
trial,html.Screen,4_90_0,2023-10-31T17:16:52.743Z,,0,2,,2504,response,ISIC_0002349.JPG,6,ISIC_0000538.JPG,ISIC_0002349.JPG,false,1,keypress(m),500,366082,366081,363577,363572,363611,366128,8,400,41,,ISIC_0000538.JPG
break,html.Screen,4_90_1,2023-10-31T17:16:52.744Z,,0,,,NaN,,,,,,false,,,,366083,366083,,366082,,366128,8,400,,,
break_continue,html.Screen,4_90_2,2023-10-31T17:16:52.744Z,,0,,,NaN,,,,,,false,,,,366084,366083,,366083,,366128,8,400,,,
sequence,flow.Sequence,4_90,2023-10-31T17:16:52.745Z,,0,,,2472,completion,,,,,false,,,,366084,366083,363577,363572,363611,366128,8,400,,,
trial,html.Screen,4_91_0,2023-10-31T17:16:54.837Z,,0,2,,2082,response,ISIC_9905633.JPG,11,ISIC_2153401.JPG,ISIC_2153401.JPG,false,0,keypress(z),500,368176,368176,366094,366084,366128,368211,8,400,42,,ISIC_9905633.JPG
break,html.Screen,4_91_1,2023-10-31T17:16:54.838Z,,0,,,NaN,,,,,,false,,,,368177,368177,,368176,,368211,8,400,,,
break_continue,html.Screen,4_91_2,2023-10-31T17:16:54.838Z,,0,,,NaN,,,,,,false,,,,368178,368177,,368177,,368211,8,400,,,
sequence,flow.Sequence,4_91,2023-10-31T17:16:54.838Z,,0,,,2049,completion,,,,,false,,,,368178,368177,366094,366084,366128,368211,8,400,,,
trial,html.Screen,4_92_0,2023-10-31T17:16:59.085Z,,0,2,,4242,response,ISIC_3898738.JPG,11,ISIC_0032357.JPG,ISIC_3898738.JPG,false,1,keypress(m),500,372424.00000000006,372423,368181,368178,368211,372478,8,400,43,,ISIC_0032357.JPG
break,html.Screen,4_92_1,2023-10-31T17:16:59.086Z,,0,,,NaN,,,,,,false,,,,372425,372425,,372424.00000000006,,372478,8,400,,,
break_continue,html.Screen,4_92_2,2023-10-31T17:16:59.086Z,,0,,,NaN,,,,,,false,,,,372426,372426,,372425,,372478,8,400,,,
sequence,flow.Sequence,4_92,2023-10-31T17:16:59.086Z,,0,,,4215,completion,,,,,false,,,,372426,372426,368181,368178,368211,372478,8,400,,,
trial,html.Screen,4_93_0,2023-10-31T17:17:03.040Z,,0,2,,3934,response,ISIC_2750230.JPG,10,ISIC_4589609.JPG,ISIC_2750230.JPG,false,1,keypress(m),500,376380,376379,372445,372426,372478,376428,8,400,44,,ISIC_4589609.JPG
break,html.Screen,4_93_1,2023-10-31T17:17:03.042Z,,0,,,NaN,,,,,,false,,,,376381,376381,,376380,,376428,8,400,,,
break_continue,html.Screen,4_93_2,2023-10-31T17:17:03.042Z,,0,,,NaN,,,,,,false,,,,376382,376381,,376381,,376428,8,400,,,
sequence,flow.Sequence,4_93,2023-10-31T17:17:03.042Z,,0,,,3903,completion,,,,,false,,,,376382,376381,372445,372426,372478,376428,8,400,,,
trial,html.Screen,4_94_0,2023-10-31T17:17:06.058Z,,0,2,,3003,response,ISIC_7928137.JPG,3,ISIC_0000305.JPG,ISIC_0000305.JPG,false,0,keypress(z),500,379398,379398,376395,376382,376428,379445,8,400,45,,ISIC_7928137.JPG
break,html.Screen,4_94_1,2023-10-31T17:17:06.060Z,,0,,,NaN,,,,,,false,,,,379399,379399,,379399,,379445,8,400,,,
break_continue,html.Screen,4_94_2,2023-10-31T17:17:06.060Z,,0,,,NaN,,,,,,false,,,,379400.00000000006,379400.00000000006,,379400.00000000006,,379445,8,400,,,
sequence,flow.Sequence,4_94,2023-10-31T17:17:06.060Z,,0,,,2972.000000000058,completion,,,,,false,,,,379400.00000000006,379400.00000000006,376395,376382,376428,379445,8,400,,,
trial,html.Screen,4_95_0,2023-10-31T17:17:09.705Z,,0,2,,3633,response,ISIC_7329395.JPG,5,ISIC_5578611.JPG,ISIC_7329395.JPG,false,1,keypress(m),500,383045,383045,379412,379400.00000000006,379445,383095,8,400,46,,ISIC_5578611.JPG
break,html.Screen,4_95_1,2023-10-31T17:17:09.707Z,,0,,,NaN,,,,,,false,,,,383047,383046,,383046,,383095,8,400,,,
break_continue,html.Screen,4_95_2,2023-10-31T17:17:09.707Z,,0,,,NaN,,,,,,false,,,,383047,383047,,383047,,383095,8,400,,,
sequence,flow.Sequence,4_95,2023-10-31T17:17:09.707Z,,0,,,3602,completion,,,,,false,,,,383047,383047,379412,379400.00000000006,379445,383095,8,400,,,
trial,html.Screen,4_96_0,2023-10-31T17:17:12.868Z,,0,2,,3145,response,ISIC_0068223.JPG,7,ISIC_5102688.JPG,ISIC_5102688.JPG,false,0,keypress(z),500,386208,386207,383062,383047,383095,386262,8,400,47,,ISIC_0068223.JPG
break,html.Screen,4_96_1,2023-10-31T17:17:12.869Z,,0,,,NaN,,,,,,false,,,,386209,386209,,386208,,386262,8,400,,,
break_continue,html.Screen,4_96_2,2023-10-31T17:17:12.869Z,,0,,,NaN,,,,,,false,,,,386209,386209,,386209,,386262,8,400,,,
sequence,flow.Sequence,4_96,2023-10-31T17:17:12.870Z,,0,,,3114,completion,,,,,false,,,,386210.00000000006,386209,383062,383047,383095,386262,8,400,,,
trial,html.Screen,4_97_0,2023-10-31T17:17:15.889Z,,0,2,,3001,response,ISIC_2736880.JPG,10,ISIC_0067808.JPG,ISIC_0067808.JPG,false,0,keypress(z),500,389230,389229,386228,386210.00000000006,386262,389278,8,400,48,,ISIC_2736880.JPG
break,html.Screen,4_97_1,2023-10-31T17:17:15.891Z,,0,,,NaN,,,,,,false,,,,389231,389230,,389230,,389278,8,400,,,
break_continue,html.Screen,4_97_2,2023-10-31T17:17:15.891Z,,0,,,NaN,,,,,,false,,,,389231,389231,,389231,,389278,8,400,,,
sequence,flow.Sequence,4_97,2023-10-31T17:17:15.891Z,,0,,,2969,completion,,,,,false,,,,389231,389231,386228,386210.00000000006,386262,389278,8,400,,,
trial,html.Screen,4_98_0,2023-10-31T17:17:18.668Z,,0,2,,2762,response,ISIC_6155782.JPG,5,ISIC_0592973.JPG,ISIC_6155782.JPG,false,1,keypress(m),500,392008,392007,389245,389232,389278,392062,8,400,49,,ISIC_0592973.JPG
break,html.Screen,4_98_1,2023-10-31T17:17:18.669Z,,0,,,NaN,,,,,,false,,,,392009,392009,,392008,,392062,8,400,,,
break_continue,html.Screen,4_98_2,2023-10-31T17:17:18.669Z,,0,,,NaN,,,,,,false,,,,392010,392010,,392009,,392062,8,400,,,
sequence,flow.Sequence,4_98,2023-10-31T17:17:18.670Z,,0,,,2732,completion,,,,,false,,,,392010,392010,389245,389231,389278,392062,8,400,,,
trial,html.Screen,4_99_0,2023-10-31T17:17:22.402Z,,0,2,,3713,response,ISIC_0055742.JPG,8,ISIC_0024296.JPG,ISIC_0024296.JPG,false,0,keypress(z),500,395743,395742,392029,392010,392062,395795,8,400,50,,ISIC_0055742.JPG
break,html.Screen,4_99_1,2023-10-31T17:17:32.422Z,,0,,,10001,timeout,,,,,false,,,,405763.00000000006,405762,395762,395743,395795,405796,8,400,,,
break_continue,html.Screen,4_99_2,2023-10-31T17:17:34.234Z,,0,,,1827,response,,,,,false,continue,keypress(Space),,407575,407589,405762,405763.00000000006,405796,407629,8,400,,,
sequence,flow.Sequence,4_99,2023-10-31T17:17:34.234Z,,0,,,15527,completion,,,,,false,,,,407575,407589,392029,392010,392062,407629,8,400,,,
trial,html.Screen,4_100_0,2023-10-31T17:17:37.053Z,,0,3,,2798,response,ISIC_8636706.JPG,5,ISIC_1509635.JPG,ISIC_8636706.JPG,false,1,keypress(m),500,410394,410394,407596,407575,407629,410446,8,400,1,,ISIC_1509635.JPG
break,html.Screen,4_100_1,2023-10-31T17:17:37.055Z,,0,,,NaN,,,,,,false,,,,410396,410395,,410394,,410446,8,400,,,
break_continue,html.Screen,4_100_2,2023-10-31T17:17:37.055Z,,0,,,NaN,,,,,,false,,,,410396,410396,,410396,,410446,8,400,,,
sequence,flow.Sequence,4_100,2023-10-31T17:17:37.055Z,,0,,,2767,completion,,,,,false,,,,410396,410396,407596,407575,407629,410446,8,400,,,
trial,html.Screen,4_101_0,2023-10-31T17:17:39.555Z,,0,3,,2483,response,ISIC_0356611.JPG,9,ISIC_2337650.JPG,ISIC_2337650.JPG,false,0,keypress(z),500,412896,412895,410412,410396,410446,412945,8,400,2,,ISIC_0356611.JPG
break,html.Screen,4_101_1,2023-10-31T17:17:39.556Z,,0,,,NaN,,,,,,false,,,,412897,412897,,412896,,412945,8,400,,,
break_continue,html.Screen,4_101_2,2023-10-31T17:17:39.556Z,,0,,,NaN,,,,,,false,,,,412897,412897,,412897,,412945,8,400,,,
sequence,flow.Sequence,4_101,2023-10-31T17:17:39.557Z,,0,,,2451,completion,,,,,false,,,,412898,412897,410412,410396,410446,412945,8,400,,,
trial,html.Screen,4_102_0,2023-10-31T17:17:42.061Z,,0,3,,2490,response,ISIC_8253326.JPG,9,ISIC_0653706.JPG,ISIC_8253326.JPG,false,1,keypress(m),500,415402,415402,412912,412898,412945,415446,8,400,3,,ISIC_0653706.JPG
break,html.Screen,4_102_1,2023-10-31T17:17:42.062Z,,0,,,NaN,,,,,,false,,,,415403,415403,,415402,,415446,8,400,,,
break_continue,html.Screen,4_102_2,2023-10-31T17:17:42.063Z,,0,,,NaN,,,,,,false,,,,415404,415404,,415404,,415446,8,400,,,
sequence,flow.Sequence,4_102,2023-10-31T17:17:42.063Z,,0,,,2459,completion,,,,,false,,,,415404,415404,412912,412898,412945,415446,8,400,,,
trial,html.Screen,4_103_0,2023-10-31T17:17:44.811Z,,0,3,,2739,response,ISIC_8064866.JPG,9,ISIC_7826557.JPG,ISIC_8064866.JPG,false,1,keypress(m),500,418152,418151,415412,415404,415446,418196,8,400,4,,ISIC_7826557.JPG
break,html.Screen,4_103_1,2023-10-31T17:17:44.812Z,,0,,,NaN,,,,,,false,,,,418153,418153,,418152,,418196,8,400,,,
break_continue,html.Screen,4_103_2,2023-10-31T17:17:44.812Z,,0,,,NaN,,,,,,false,,,,418153,418153,,418153,,418196,8,400,,,
sequence,flow.Sequence,4_103,2023-10-31T17:17:44.812Z,,0,,,2707,completion,,,,,false,,,,418154,418153,415412,415404,415446,418196,8,400,,,
trial,html.Screen,4_104_0,2023-10-31T17:17:47.890Z,,0,3,,3068,response,ISIC_0029803.JPG,12,ISIC_0034304.JPG,ISIC_0029803.JPG,false,1,keypress(m),500,421231,421231,418163,418154,418196,421280,8,400,5,,ISIC_0034304.JPG
break,html.Screen,4_104_1,2023-10-31T17:17:47.891Z,,0,,,NaN,,,,,,false,,,,421233,421232,,421232,,421280,8,400,,,
break_continue,html.Screen,4_104_2,2023-10-31T17:17:47.892Z,,0,,,NaN,,,,,,false,,,,421233,421233,,421233,,421280,8,400,,,
sequence,flow.Sequence,4_104,2023-10-31T17:17:47.892Z,,0,,,3037,completion,,,,,false,,,,421233,421233,418163,418154,418196,421280,8,400,,,
trial,html.Screen,4_105_0,2023-10-31T17:17:50.720Z,,0,3,,2815.000000000058,response,ISIC_0001138.JPG,6,ISIC_9618489.JPG,ISIC_9618489.JPG,false,0,keypress(z),500,424062,424061.00000000006,421246,421233,421280,424113,8,400,6,,ISIC_0001138.JPG
break,html.Screen,4_105_1,2023-10-31T17:17:50.722Z,,0,,,NaN,,,,,,false,,,,424063,424063,,424062,,424113,8,400,,,
break_continue,html.Screen,4_105_2,2023-10-31T17:17:50.722Z,,0,,,NaN,,,,,,false,,,,424063,424063,,424063,,424113,8,400,,,
sequence,flow.Sequence,4_105,2023-10-31T17:17:50.722Z,,0,,,2783,completion,,,,,false,,,,424064,424063,421246,421233,421280,424113,8,400,,,
trial,html.Screen,4_106_0,2023-10-31T17:17:53.569Z,,0,3,,2830,response,ISIC_3397174.JPG,11,ISIC_1264576.JPG,ISIC_1264576.JPG,false,0,keypress(z),500,426910,426910,424080,424064,424113,426963,8,400,7,,ISIC_3397174.JPG
break,html.Screen,4_106_1,2023-10-31T17:17:53.570Z,,0,,,NaN,,,,,,false,,,,426912.00000000006,426911,,426911,,426963,8,400,,,
break_continue,html.Screen,4_106_2,2023-10-31T17:17:53.570Z,,0,,,NaN,,,,,,false,,,,426912.00000000006,426912.00000000006,,426912.00000000006,,426963,8,400,,,
sequence,flow.Sequence,4_106,2023-10-31T17:17:53.571Z,,0,,,2799.000000000058,completion,,,,,false,,,,426912.00000000006,426912.00000000006,424080,424064,424113,426963,8,400,,,
trial,html.Screen,4_107_0,2023-10-31T17:17:56.650Z,,0,3,,3061,response,ISIC_7231192.JPG,7,ISIC_7364041.JPG,ISIC_7364041.JPG,false,0,keypress(z),500,429992,429991,426930,426912.00000000006,426963,430046,8,400,8,,ISIC_7231192.JPG
break,html.Screen,4_107_1,2023-10-31T17:17:56.651Z,,0,,,NaN,,,,,,false,,,,429993,429993,,429992,,430046,8,400,,,
break_continue,html.Screen,4_107_2,2023-10-31T17:17:56.652Z,,0,,,NaN,,,,,,false,,,,429993,429993,,429993,,430046,8,400,,,
sequence,flow.Sequence,4_107,2023-10-31T17:17:56.652Z,,0,,,3030,completion,,,,,false,,,,429994,429993,426930,426912.00000000006,426963,430046,8,400,,,
trial,html.Screen,4_108_0,2023-10-31T17:17:59.306Z,,0,3,,2634,response,ISIC_0010658.JPG,5,ISIC_0014114.JPG,ISIC_0014114.JPG,false,0,keypress(z),500,432648,432647,430013,429994,430046,432697,8,400,9,,ISIC_0010658.JPG
break,html.Screen,4_108_1,2023-10-31T17:17:59.307Z,,0,,,NaN,,,,,,false,,,,432649,432649,,432648,,432697,8,400,,,
break_continue,html.Screen,4_108_2,2023-10-31T17:17:59.308Z,,0,,,NaN,,,,,,false,,,,432650.00000000006,432649,,432649,,432697,8,400,,,
sequence,flow.Sequence,4_108,2023-10-31T17:17:59.308Z,,0,,,2603,completion,,,,,false,,,,432650.00000000006,432649,430013,429994,430046,432697,8,400,,,
trial,html.Screen,4_109_0,2023-10-31T17:18:02.004Z,,0,3,,2682,response,ISIC_8441905.JPG,5,ISIC_4789784.JPG,ISIC_4789784.JPG,false,0,keypress(z),500,435346,435345,432663,432650.00000000006,432697,435397,8,400,10,,ISIC_8441905.JPG
break,html.Screen,4_109_1,2023-10-31T17:18:02.005Z,,0,,,NaN,,,,,,false,,,,435347.00000000006,435347.00000000006,,435346,,435397,8,400,,,
break_continue,html.Screen,4_109_2,2023-10-31T17:18:02.006Z,,0,,,NaN,,,,,,false,,,,435348,435348,,435348,,435397,8,400,,,
sequence,flow.Sequence,4_109,2023-10-31T17:18:02.006Z,,0,,,2651,completion,,,,,false,,,,435348,435348,432663,432650.00000000006,432697,435397,8,400,,,
trial,html.Screen,4_110_0,2023-10-31T17:18:05.259Z,,0,3,,3237,response,ISIC_0028465.JPG,8,ISIC_0028612.JPG,ISIC_0028465.JPG,false,1,keypress(m),500,438601,438600,435363,435348,435397,438647,8,400,11,,ISIC_0028612.JPG
break,html.Screen,4_110_1,2023-10-31T17:18:05.260Z,,0,,,NaN,,,,,,false,,,,438602.00000000006,438602.00000000006,,438601,,438647,8,400,,,
break_continue,html.Screen,4_110_2,2023-10-31T17:18:05.260Z,,0,,,NaN,,,,,,false,,,,438603,438602.00000000006,,438602.00000000006,,438647,8,400,,,
sequence,flow.Sequence,4_110,2023-10-31T17:18:05.261Z,,0,,,3205.000000000058,completion,,,,,false,,,,438603,438602.00000000006,435363,435348,435397,438647,8,400,,,
trial,html.Screen,4_111_0,2023-10-31T17:18:08.529Z,,0,3,,3258,response,ISIC_3304982.JPG,4,ISIC_5220698.JPG,ISIC_5220698.JPG,false,0,keypress(z),500,441871,441871,438613,438603,438647,441913,8,400,12,,ISIC_3304982.JPG
break,html.Screen,4_111_1,2023-10-31T17:18:08.530Z,,0,,,NaN,,,,,,false,,,,441872,441872,,441872,,441913,8,400,,,
break_continue,html.Screen,4_111_2,2023-10-31T17:18:08.531Z,,0,,,NaN,,,,,,false,,,,441873,441873,,441873,,441913,8,400,,,
sequence,flow.Sequence,4_111,2023-10-31T17:18:08.531Z,,0,,,3226,completion,,,,,false,,,,441873,441873,438613,438603,438647,441913,8,400,,,
trial,html.Screen,4_112_0,2023-10-31T17:18:11.980Z,,0,3,,3441,response,ISIC_0028945.JPG,10,ISIC_0030541.JPG,ISIC_0028945.JPG,false,1,keypress(m),500,445322,445321,441880,441873,441913,445364,8,400,13,,ISIC_0030541.JPG
break,html.Screen,4_112_1,2023-10-31T17:18:11.981Z,,0,,,NaN,,,,,,false,,,,445323.00000000006,445323.00000000006,,445322,,445364,8,400,,,
break_continue,html.Screen,4_112_2,2023-10-31T17:18:11.981Z,,0,,,NaN,,,,,,false,,,,445324,445323.00000000006,,445323.00000000006,,445364,8,400,,,
sequence,flow.Sequence,4_112,2023-10-31T17:18:11.982Z,,0,,,3410.000000000058,completion,,,,,false,,,,445324,445323.00000000006,441880,441873,441913,445364,8,400,,,
trial,html.Screen,4_113_0,2023-10-31T17:18:16.834Z,,0,3,,4845,response,ISIC_0032447.JPG,12,ISIC_0027327.JPG,ISIC_0032447.JPG,false,1,keypress(m),500,450176,450175,445330,445324,445364,450230,8,400,14,,ISIC_0027327.JPG
break,html.Screen,4_113_1,2023-10-31T17:18:16.835Z,,0,,,NaN,,,,,,false,,,,450177,450177,,450176,,450230,8,400,,,
break_continue,html.Screen,4_113_2,2023-10-31T17:18:16.835Z,,0,,,NaN,,,,,,false,,,,450178,450178,,450177,,450230,8,400,,,
sequence,flow.Sequence,4_113,2023-10-31T17:18:16.835Z,,0,,,4814,completion,,,,,false,,,,450178,450178,445330,445324,445364,450230,8,400,,,
trial,html.Screen,4_114_0,2023-10-31T17:18:19.573Z,,0,3,,2718,response,ISIC_0274382.JPG,10,ISIC_0010723.JPG,ISIC_0010723.JPG,false,0,keypress(z),500,452915,452915,450197,450178,450230,452964,8,400,15,,ISIC_0274382.JPG
break,html.Screen,4_114_1,2023-10-31T17:18:19.574Z,,0,,,NaN,,,,,,false,,,,452917.00000000006,452916,,452915,,452964,8,400,,,
break_continue,html.Screen,4_114_2,2023-10-31T17:18:19.575Z,,0,,,NaN,,,,,,false,,,,452917.00000000006,452917.00000000006,,452917.00000000006,,452964,8,400,,,
sequence,flow.Sequence,4_114,2023-10-31T17:18:19.575Z,,0,,,2687.000000000058,completion,,,,,false,,,,452917.00000000006,452917.00000000006,450197,450178,450230,452964,8,400,,,
trial,html.Screen,4_115_0,2023-10-31T17:18:22.802Z,,0,3,,3214,response,ISIC_0027193.JPG,9,ISIC_0653633.JPG,ISIC_0653633.JPG,false,0,keypress(z),500,456144,456144,452930,452918,452964,456196,8,400,16,,ISIC_0027193.JPG
break,html.Screen,4_115_1,2023-10-31T17:18:22.803Z,,0,,,NaN,,,,,,false,,,,456145,456145,,456145,,456196,8,400,,,
break_continue,html.Screen,4_115_2,2023-10-31T17:18:22.803Z,,0,,,NaN,,,,,,false,,,,456146,456146,,456146,,456196,8,400,,,
sequence,flow.Sequence,4_115,2023-10-31T17:18:22.803Z,,0,,,3182,completion,,,,,false,,,,456146,456146,452930,452917.00000000006,452964,456196,8,400,,,
trial,html.Screen,4_116_0,2023-10-31T17:18:26.459Z,,0,3,,3637,response,ISIC_6118204.JPG,11,ISIC_0064784.JPG,ISIC_0064784.JPG,false,0,keypress(z),500,459802,459801,456164,456146,456196,459847,8,400,17,,ISIC_6118204.JPG
break,html.Screen,4_116_1,2023-10-31T17:18:26.461Z,,0,,,NaN,,,,,,false,,,,459803,459803,,459802,,459847,8,400,,,
break_continue,html.Screen,4_116_2,2023-10-31T17:18:26.461Z,,0,,,NaN,,,,,,false,,,,459804.00000000006,459804.00000000006,,459804.00000000006,,459847,8,400,,,
sequence,flow.Sequence,4_116,2023-10-31T17:18:26.461Z,,0,,,3608.000000000058,completion,,,,,false,,,,459804.00000000006,459804.00000000006,456164,456146,456196,459847,8,400,,,
trial,html.Screen,4_117_0,2023-10-31T17:18:29.846Z,,0,3,,3375,response,ISIC_4554381.JPG,4,ISIC_0463755.JPG,ISIC_4554381.JPG,false,1,keypress(m),500,463189,463188,459813,459804.00000000006,459847,463231,8,400,18,,ISIC_0463755.JPG
break,html.Screen,4_117_1,2023-10-31T17:18:29.847Z,,0,,,NaN,,,,,,false,,,,463190,463190,,463189,,463231,8,400,,,
break_continue,html.Screen,4_117_2,2023-10-31T17:18:29.848Z,,0,,,NaN,,,,,,false,,,,463191.00000000006,463191.00000000006,,463190,,463231,8,400,,,
sequence,flow.Sequence,4_117,2023-10-31T17:18:29.848Z,,0,,,3344.000000000058,completion,,,,,false,,,,463191.00000000006,463191.00000000006,459813,459804.00000000006,459847,463231,8,400,,,
trial,html.Screen,4_118_0,2023-10-31T17:18:33.184Z,,0,3,,3329,response,ISIC_9331097.JPG,9,ISIC_0007678.JPG,ISIC_9331097.JPG,false,1,keypress(m),500,466527,466526,463197,463191.00000000006,463231,466564,8,400,19,,ISIC_0007678.JPG
break,html.Screen,4_118_1,2023-10-31T17:18:33.185Z,,0,,,NaN,,,,,,false,,,,466528,466528,,466527,,466564,8,400,,,
break_continue,html.Screen,4_118_2,2023-10-31T17:18:33.186Z,,0,,,NaN,,,,,,false,,,,466529,466529,,466528,,466564,8,400,,,
sequence,flow.Sequence,4_118,2023-10-31T17:18:33.186Z,,0,,,3298,completion,,,,,false,,,,466529,466529,463197,463191.00000000006,463231,466564,8,400,,,
trial,html.Screen,4_119_0,2023-10-31T17:18:35.933Z,,0,3,,2745,response,ISIC_0296109.JPG,8,ISIC_5081382.JPG,ISIC_0296109.JPG,false,1,keypress(m),500,469276,469276,466531,466529,466564,469331,8,400,20,,ISIC_5081382.JPG
break,html.Screen,4_119_1,2023-10-31T17:18:35.934Z,,0,,,NaN,,,,,,false,,,,469277,469277,,469277,,469331,8,400,,,
break_continue,html.Screen,4_119_2,2023-10-31T17:18:35.935Z,,0,,,NaN,,,,,,false,,,,469278,469278,,469278,,469331,8,400,,,
sequence,flow.Sequence,4_119,2023-10-31T17:18:35.935Z,,0,,,2714,completion,,,,,false,,,,469278,469278,466531,466529,466564,469331,8,400,,,
trial,html.Screen,4_120_0,2023-10-31T17:18:38.712Z,,0,3,,2757,response,ISIC_0031365.JPG,3,ISIC_6733338.JPG,ISIC_0031365.JPG,false,1,keypress(m),500,472056,472055,469298,469278,469331,472098,8,400,21,,ISIC_6733338.JPG
break,html.Screen,4_120_1,2023-10-31T17:18:38.714Z,,0,,,NaN,,,,,,false,,,,472057,472057,,472056,,472098,8,400,,,
break_continue,html.Screen,4_120_2,2023-10-31T17:18:38.714Z,,0,,,NaN,,,,,,false,,,,472057,472057,,472057,,472098,8,400,,,
sequence,flow.Sequence,4_120,2023-10-31T17:18:38.714Z,,0,,,2726,completion,,,,,false,,,,472058,472057,469298,469278,469331,472098,8,400,,,
trial,html.Screen,4_121_0,2023-10-31T17:18:41.874Z,,0,3,,3153,response,ISIC_2809019.JPG,10,ISIC_6938608.JPG,ISIC_6938608.JPG,false,0,keypress(z),500,475218,475217,472064,472058,472098,475264,8,400,22,,ISIC_2809019.JPG
break,html.Screen,4_121_1,2023-10-31T17:18:41.876Z,,0,,,NaN,,,,,,false,,,,475219,475219,,475218,,475264,8,400,,,
break_continue,html.Screen,4_121_2,2023-10-31T17:18:41.876Z,,0,,,NaN,,,,,,false,,,,475219,475219,,475219,,475264,8,400,,,
sequence,flow.Sequence,4_121,2023-10-31T17:18:41.876Z,,0,,,3121,completion,,,,,false,,,,475220,475219,472064,472058,472098,475264,8,400,,,
trial,html.Screen,4_122_0,2023-10-31T17:18:45.520Z,,0,3,,3632,response,ISIC_0062058.JPG,7,ISIC_0257447.JPG,ISIC_0062058.JPG,false,1,keypress(m),500,478863,478863,475231,475220,475264,478915,8,400,23,,ISIC_0257447.JPG
break,html.Screen,4_122_1,2023-10-31T17:18:45.521Z,,0,,,NaN,,,,,,false,,,,478864.00000000006,478864.00000000006,,478863,,478915,8,400,,,
break_continue,html.Screen,4_122_2,2023-10-31T17:18:45.521Z,,0,,,NaN,,,,,,false,,,,478865,478865,,478865,,478915,8,400,,,
sequence,flow.Sequence,4_122,2023-10-31T17:18:45.522Z,,0,,,3601,completion,,,,,false,,,,478865,478865,475231,475220,475264,478915,8,400,,,
trial,html.Screen,4_123_0,2023-10-31T17:18:48.249Z,,0,3,,2711,response,ISIC_1161370.JPG,10,ISIC_5318217.JPG,ISIC_5318217.JPG,false,0,keypress(z),500,481593,481592,478881,478865,478915,481631,8,400,24,,ISIC_1161370.JPG
break,html.Screen,4_123_1,2023-10-31T17:18:48.250Z,,0,,,NaN,,,,,,false,,,,481594,481594,,481593,,481631,8,400,,,
break_continue,html.Screen,4_123_2,2023-10-31T17:18:48.251Z,,0,,,NaN,,,,,,false,,,,481594,481594,,481594,,481631,8,400,,,
sequence,flow.Sequence,4_123,2023-10-31T17:18:48.251Z,,0,,,2679,completion,,,,,false,,,,481595,481594,478881,478865,478915,481631,8,400,,,
trial,html.Screen,4_124_0,2023-10-31T17:18:51.130Z,,0,3,,2876,response,ISIC_3676643.JPG,6,ISIC_8634334.JPG,ISIC_8634334.JPG,false,0,keypress(z),500,484474,484473,481597,481595,481631,484515,8,400,25,,ISIC_3676643.JPG
break,html.Screen,4_124_1,2023-10-31T17:18:51.131Z,,0,,,NaN,,,,,,false,,,,484475,484475,,484474,,484515,8,400,,,
break_continue,html.Screen,4_124_2,2023-10-31T17:18:51.132Z,,0,,,NaN,,,,,,false,,,,484476,484475,,484475,,484515,8,400,,,
sequence,flow.Sequence,4_124,2023-10-31T17:18:51.132Z,,0,,,2844,completion,,,,,false,,,,484476,484475,481597,481595,481631,484515,8,400,,,
trial,html.Screen,4_125_0,2023-10-31T17:18:54.254Z,,0,3,,3116.000000000058,response,ISIC_8967786.JPG,8,ISIC_7296463.JPG,ISIC_8967786.JPG,false,1,keypress(m),500,487598,487597.00000000006,484481,484476,484515,487648,8,400,26,,ISIC_7296463.JPG
break,html.Screen,4_125_1,2023-10-31T17:18:54.255Z,,0,,,NaN,,,,,,false,,,,487599,487599,,487598,,487648,8,400,,,
break_continue,html.Screen,4_125_2,2023-10-31T17:18:54.255Z,,0,,,NaN,,,,,,false,,,,487599,487599,,487599,,487648,8,400,,,
sequence,flow.Sequence,4_125,2023-10-31T17:18:54.256Z,,0,,,3084,completion,,,,,false,,,,487600,487599,484481,484476,484515,487648,8,400,,,
trial,html.Screen,4_126_0,2023-10-31T17:18:57.840Z,,0,3,,3568,response,ISIC_0011343.JPG,8,ISIC_4066726.JPG,ISIC_0011343.JPG,false,1,keypress(m),500,491184,491183,487615,487600,487648,491232,8,400,27,,ISIC_4066726.JPG
break,html.Screen,4_126_1,2023-10-31T17:18:57.841Z,,0,,,NaN,,,,,,false,,,,491185,491185,,491184,,491232,8,400,,,
break_continue,html.Screen,4_126_2,2023-10-31T17:18:57.842Z,,0,,,NaN,,,,,,false,,,,491186.00000000006,491186.00000000006,,491185,,491232,8,400,,,
sequence,flow.Sequence,4_126,2023-10-31T17:18:57.842Z,,0,,,3538.000000000058,completion,,,,,false,,,,491186.00000000006,491186.00000000006,487615,487600,487648,491232,8,400,,,
trial,html.Screen,4_127_0,2023-10-31T17:19:00.894Z,,0,3,,3039,response,ISIC_0064124.JPG,7,ISIC_8041550.JPG,ISIC_0064124.JPG,false,1,keypress(m),500,494238,494237,491198,491186.00000000006,491232,494282,8,400,28,,ISIC_8041550.JPG
break,html.Screen,4_127_1,2023-10-31T17:19:00.895Z,,0,,,NaN,,,,,,false,,,,494239.00000000006,494239.00000000006,,494238,,494282,8,400,,,
break_continue,html.Screen,4_127_2,2023-10-31T17:19:00.895Z,,0,,,NaN,,,,,,false,,,,494239.00000000006,494239.00000000006,,494239.00000000006,,494282,8,400,,,
sequence,flow.Sequence,4_127,2023-10-31T17:19:00.895Z,,0,,,3007.000000000058,completion,,,,,false,,,,494240,494239.00000000006,491198,491186.00000000006,491232,494282,8,400,,,
trial,html.Screen,4_128_0,2023-10-31T17:19:03.744Z,,0,3,,2839,response,ISIC_6626544.JPG,9,ISIC_4212044.JPG,ISIC_6626544.JPG,false,1,keypress(m),500,497088,497087,494248,494240,494282,497132,8,400,29,,ISIC_4212044.JPG
break,html.Screen,4_128_1,2023-10-31T17:19:03.745Z,,0,,,NaN,,,,,,false,,,,497089,497089,,497088,,497132,8,400,,,
break_continue,html.Screen,4_128_2,2023-10-31T17:19:03.745Z,,0,,,NaN,,,,,,false,,,,497090.00000000006,497089,,497089,,497132,8,400,,,
sequence,flow.Sequence,4_128,2023-10-31T17:19:03.745Z,,0,,,2807,completion,,,,,false,,,,497090.00000000006,497089,494248,494240,494282,497132,8,400,,,
trial,html.Screen,4_129_0,2023-10-31T17:19:06.590Z,,0,3,,2835,response,ISIC_0033213.JPG,9,ISIC_0010385.JPG,ISIC_0010385.JPG,false,0,keypress(z),500,499935,499934,497099,497090.00000000006,497132,499982,8,400,30,,ISIC_0033213.JPG
break,html.Screen,4_129_1,2023-10-31T17:19:06.592Z,,0,,,NaN,,,,,,false,,,,499936.00000000006,499936.00000000006,,499935,,499982,8,400,,,
break_continue,html.Screen,4_129_2,2023-10-31T17:19:06.592Z,,0,,,NaN,,,,,,false,,,,499936.00000000006,499936.00000000006,,499936.00000000006,,499982,8,400,,,
sequence,flow.Sequence,4_129,2023-10-31T17:19:06.592Z,,0,,,2804.000000000058,completion,,,,,false,,,,499937,499936.00000000006,497099,497090.00000000006,497132,499982,8,400,,,
trial,html.Screen,4_130_0,2023-10-31T17:19:09.394Z,,0,3,,2789,response,ISIC_0071647.JPG,4,ISIC_4980328.JPG,ISIC_0071647.JPG,false,1,keypress(m),500,502739.00000000006,502738,499949,499937,499982,502782,8,400,31,,ISIC_4980328.JPG
break,html.Screen,4_130_1,2023-10-31T17:19:09.395Z,,0,,,NaN,,,,,,false,,,,502740,502740,,502739.00000000006,,502782,8,400,,,
break_continue,html.Screen,4_130_2,2023-10-31T17:19:09.396Z,,0,,,NaN,,,,,,false,,,,502740,502740,,502740,,502782,8,400,,,
sequence,flow.Sequence,4_130,2023-10-31T17:19:09.396Z,,0,,,2758,completion,,,,,false,,,,502740,502740,499949,499937,499982,502782,8,400,,,
trial,html.Screen,4_131_0,2023-10-31T17:19:12.776Z,,0,3,,3372,response,ISIC_6447663.JPG,7,ISIC_9738202.JPG,ISIC_6447663.JPG,false,1,keypress(m),500,506121.00000000006,506120,502748,502740,502782,506166,8,400,32,,ISIC_9738202.JPG
break,html.Screen,4_131_1,2023-10-31T17:19:12.778Z,,0,,,NaN,,,,,,false,,,,506122,506122,,506121.00000000006,,506166,8,400,,,
break_continue,html.Screen,4_131_2,2023-10-31T17:19:12.778Z,,0,,,NaN,,,,,,false,,,,506123,506122,,506122,,506166,8,400,,,
sequence,flow.Sequence,4_131,2023-10-31T17:19:12.778Z,,0,,,3340,completion,,,,,false,,,,506123,506122,502748,502740,502782,506166,8,400,,,
trial,html.Screen,4_132_0,2023-10-31T17:19:15.960Z,,0,3,,3172.000000000058,response,ISIC_0025550.JPG,6,ISIC_4314089.JPG,ISIC_0025550.JPG,false,1,keypress(m),500,509305,509304.00000000006,506132,506123,506166,509349,8,400,33,,ISIC_4314089.JPG
break,html.Screen,4_132_1,2023-10-31T17:19:15.962Z,,0,,,NaN,,,,,,false,,,,509306,509306,,509305,,509349,8,400,,,
break_continue,html.Screen,4_132_2,2023-10-31T17:19:15.962Z,,0,,,NaN,,,,,,false,,,,509307,509307,,509307,,509349,8,400,,,
sequence,flow.Sequence,4_132,2023-10-31T17:19:15.962Z,,0,,,3141,completion,,,,,false,,,,509307,509307,506132,506123,506166,509349,8,400,,,
trial,html.Screen,4_133_0,2023-10-31T17:19:18.674Z,,0,3,,2703,response,ISIC_0028746.JPG,7,ISIC_4708642.JPG,ISIC_0028746.JPG,false,1,keypress(m),500,512019,512019,509316,509307,509349,512066,8,400,34,,ISIC_4708642.JPG
break,html.Screen,4_133_1,2023-10-31T17:19:18.675Z,,0,,,NaN,,,,,,false,,,,512020,512020,,512019,,512066,8,400,,,
break_continue,html.Screen,4_133_2,2023-10-31T17:19:18.675Z,,0,,,NaN,,,,,,false,,,,512020,512020,,512020,,512066,8,400,,,
sequence,flow.Sequence,4_133,2023-10-31T17:19:18.676Z,,0,,,2671,completion,,,,,false,,,,512020,512020,509316,509307,509349,512066,8,400,,,
trial,html.Screen,4_134_0,2023-10-31T17:19:21.995Z,,0,3,,3306.000000000058,response,ISIC_6606767.JPG,4,ISIC_0066882.JPG,ISIC_0066882.JPG,false,0,keypress(z),500,515340.00000000006,515339.00000000006,512033,512020.99999999994,512066,515383,8,400,35,,ISIC_6606767.JPG
break,html.Screen,4_134_1,2023-10-31T17:19:21.996Z,,0,,,NaN,,,,,,false,,,,515341,515341,,515340.00000000006,,515383,8,400,,,
break_continue,html.Screen,4_134_2,2023-10-31T17:19:21.997Z,,0,,,NaN,,,,,,false,,,,515341,515341,,515341,,515383,8,400,,,
sequence,flow.Sequence,4_134,2023-10-31T17:19:21.997Z,,0,,,3275,completion,,,,,false,,,,515342,515341,512033,512020,512066,515383,8,400,,,
trial,html.Screen,4_135_0,2023-10-31T17:19:25.758Z,,0,3,,3754.000000000058,response,ISIC_0059846.JPG,7,ISIC_7583134.JPG,ISIC_7583134.JPG,false,0,keypress(z),500,519103.00000000006,519103.00000000006,515349,515342,515383,519149,8,400,36,,ISIC_0059846.JPG
break,html.Screen,4_135_1,2023-10-31T17:19:25.759Z,,0,,,NaN,,,,,,false,,,,519104.00000000006,519104.00000000006,,519104.00000000006,,519149,8,400,,,
break_continue,html.Screen,4_135_2,2023-10-31T17:19:25.760Z,,0,,,NaN,,,,,,false,,,,519105,519105,,519105,,519149,8,400,,,
sequence,flow.Sequence,4_135,2023-10-31T17:19:25.760Z,,0,,,3722,completion,,,,,false,,,,519105,519105,515349,515342,515383,519149,8,400,,,
trial,html.Screen,4_136_0,2023-10-31T17:19:29.998Z,,0,3,,4226.999999999942,response,ISIC_8029613.JPG,4,ISIC_0029363.JPG,ISIC_0029363.JPG,false,0,keypress(z),500,523342.99999999994,523342.99999999994,519116,519105,519149,523383,8,400,37,,ISIC_8029613.JPG
break,html.Screen,4_136_1,2023-10-31T17:19:29.999Z,,0,,,NaN,,,,,,false,,,,523345,523344.00000000006,,523344.00000000006,,523383,8,400,,,
break_continue,html.Screen,4_136_2,2023-10-31T17:19:30.000Z,,0,,,NaN,,,,,,false,,,,523345,523345,,523345,,523383,8,400,,,
sequence,flow.Sequence,4_136,2023-10-31T17:19:30.000Z,,0,,,4196,completion,,,,,false,,,,523345,523345,519116,519105,519149,523383,8,400,,,
trial,html.Screen,4_137_0,2023-10-31T17:19:32.791Z,,0,3,,2787,response,ISIC_0034117.JPG,11,ISIC_0011040.JPG,ISIC_0034117.JPG,false,1,keypress(m),500,526136,526136,523349,523345,523383,526183,8,400,38,,ISIC_0011040.JPG
break,html.Screen,4_137_1,2023-10-31T17:19:32.792Z,,0,,,NaN,,,,,,false,,,,526138,526137,,526137,,526183,8,400,,,
break_continue,html.Screen,4_137_2,2023-10-31T17:19:32.793Z,,0,,,NaN,,,,,,false,,,,526138,526138,,526138,,526183,8,400,,,
sequence,flow.Sequence,4_137,2023-10-31T17:19:32.793Z,,0,,,2755,completion,,,,,false,,,,526138,526138,523349,523345,523383,526183,8,400,,,
trial,html.Screen,4_138_0,2023-10-31T17:19:36.236Z,,0,3,,3431,response,ISIC_0028508.JPG,10,ISIC_0030313.JPG,ISIC_0028508.JPG,false,1,keypress(m),500,529582,529581,526150,526138,526183,529633,8,400,39,,ISIC_0030313.JPG
break,html.Screen,4_138_1,2023-10-31T17:19:36.238Z,,0,,,NaN,,,,,,false,,,,529583,529583,,529582,,529633,8,400,,,
break_continue,html.Screen,4_138_2,2023-10-31T17:19:36.238Z,,0,,,NaN,,,,,,false,,,,529583,529583,,529583,,529633,8,400,,,
sequence,flow.Sequence,4_138,2023-10-31T17:19:36.238Z,,0,,,3400,completion,,,,,false,,,,529584.0000000001,529583,526150,526138,526183,529633,8,400,,,
trial,html.Screen,4_139_0,2023-10-31T17:19:39.101Z,,0,3,,2847,response,ISIC_2507845.JPG,7,ISIC_5206218.JPG,ISIC_5206218.JPG,false,0,keypress(z),500,532447,532446,529599,529584.0000000001,529633,532499,8,400,40,,ISIC_2507845.JPG
break,html.Screen,4_139_1,2023-10-31T17:19:39.102Z,,0,,,NaN,,,,,,false,,,,532448,532448,,532447,,532499,8,400,,,
break_continue,html.Screen,4_139_2,2023-10-31T17:19:39.103Z,,0,,,NaN,,,,,,false,,,,532448,532448,,532448,,532499,8,400,,,
sequence,flow.Sequence,4_139,2023-10-31T17:19:39.103Z,,0,,,2815,completion,,,,,false,,,,532448,532448,529599,529584.0000000001,529633,532499,8,400,,,
trial,html.Screen,4_140_0,2023-10-31T17:19:43.457Z,,0,3,,4335,response,ISIC_5102688.JPG,11,ISIC_0030492.JPG,ISIC_5102688.JPG,false,1,keypress(m),500,536802,536802,532467,532449,532499,536850,8,400,41,,ISIC_0030492.JPG
break,html.Screen,4_140_1,2023-10-31T17:19:43.458Z,,0,,,NaN,,,,,,false,,,,536804,536803,,536803,,536850,8,400,,,
break_continue,html.Screen,4_140_2,2023-10-31T17:19:43.459Z,,0,,,NaN,,,,,,false,,,,536804,536804,,536804,,536850,8,400,,,
sequence,flow.Sequence,4_140,2023-10-31T17:19:43.459Z,,0,,,4305,completion,,,,,false,,,,536805.0000000001,536804,532467,532449,532499,536850,8,400,,,
trial,html.Screen,4_141_0,2023-10-31T17:19:46.190Z,,0,3,,2720,response,ISIC_0027751.JPG,2,ISIC_9439742.JPG,ISIC_0027751.JPG,false,1,keypress(m),500,539536,539536,536816,536805.0000000001,536850,539600,8,400,42,,ISIC_9439742.JPG
break,html.Screen,4_141_1,2023-10-31T17:19:46.191Z,,0,,,NaN,,,,,,false,,,,539537,539537,,539536,,539600,8,400,,,
break_continue,html.Screen,4_141_2,2023-10-31T17:19:46.192Z,,0,,,NaN,,,,,,false,,,,539538,539538,,539537,,539600,8,400,,,
sequence,flow.Sequence,4_141,2023-10-31T17:19:46.192Z,,0,,,2688,completion,,,,,false,,,,539538,539538,536816,536805.0000000001,536850,539600,8,400,,,
trial,html.Screen,4_142_0,2023-10-31T17:19:49.845Z,,0,3,,3624,response,ISIC_0845105.JPG,5,ISIC_0813423.JPG,ISIC_0845105.JPG,false,1,keypress(m),500,543191,543191,539567,539538,539600,543233,8,400,43,,ISIC_0813423.JPG
break,html.Screen,4_142_1,2023-10-31T17:19:49.847Z,,0,,,NaN,,,,,,false,,,,543193,543192,,543192,,543233,8,400,,,
break_continue,html.Screen,4_142_2,2023-10-31T17:19:49.847Z,,0,,,NaN,,,,,,false,,,,543193,543193,,543193,,543233,8,400,,,
sequence,flow.Sequence,4_142,2023-10-31T17:19:49.847Z,,0,,,3593,completion,,,,,false,,,,543193,543193,539567,539538,539600,543233,8,400,,,
trial,html.Screen,4_143_0,2023-10-31T17:19:52.192Z,,0,3,,2337,response,ISIC_1105263.JPG,7,ISIC_0010349.JPG,ISIC_1105263.JPG,false,1,keypress(m),500,545538,545537,543200,543193,543233,545583,8,400,44,,ISIC_0010349.JPG
break,html.Screen,4_143_1,2023-10-31T17:19:52.193Z,,0,,,NaN,,,,,,false,,,,545539,545539,,545538,,545583,8,400,,,
break_continue,html.Screen,4_143_2,2023-10-31T17:19:52.193Z,,0,,,NaN,,,,,,false,,,,545540,545539,,545539,,545583,8,400,,,
sequence,flow.Sequence,4_143,2023-10-31T17:19:52.194Z,,0,,,2306,completion,,,,,false,,,,545540,545539,543200,543193,543233,545583,8,400,,,
trial,html.Screen,4_144_0,2023-10-31T17:19:54.843Z,,0,3,,2639,response,ISIC_6336926.JPG,16,ISIC_9989485.JPG,ISIC_6336926.JPG,false,1,keypress(m),500,548189,548189,545550,545540,545583,548234,8,400,45,,ISIC_9989485.JPG
break,html.Screen,4_144_1,2023-10-31T17:19:54.844Z,,0,,,NaN,,,,,,false,,,,548190,548190,,548189,,548234,8,400,,,
break_continue,html.Screen,4_144_2,2023-10-31T17:19:54.845Z,,0,,,NaN,,,,,,false,,,,548191,548191,,548191,,548234,8,400,,,
sequence,flow.Sequence,4_144,2023-10-31T17:19:54.845Z,,0,,,2608,completion,,,,,false,,,,548191,548191,545550,545540,545583,548234,8,400,,,
trial,html.Screen,4_145_0,2023-10-31T17:19:57.328Z,,0,3,,2474,response,ISIC_7284399.JPG,6,ISIC_0030981.JPG,ISIC_7284399.JPG,false,1,keypress(m),500,550674,550674,548200,548191,548234,550717,8,400,46,,ISIC_0030981.JPG
break,html.Screen,4_145_1,2023-10-31T17:19:57.329Z,,0,,,NaN,,,,,,false,,,,550675.0000000001,550675.0000000001,,550675.0000000001,,550717,8,400,,,
break_continue,html.Screen,4_145_2,2023-10-31T17:19:57.330Z,,0,,,NaN,,,,,,false,,,,550676,550676,,550676,,550717,8,400,,,
sequence,flow.Sequence,4_145,2023-10-31T17:19:57.330Z,,0,,,2442,completion,,,,,false,,,,550676,550676,548200,548191,548234,550717,8,400,,,
trial,html.Screen,4_146_0,2023-10-31T17:20:00.398Z,,0,3,,3060,response,ISIC_0005655.JPG,10,ISIC_0011238.JPG,ISIC_0011238.JPG,false,0,keypress(z),500,553745,553744,550684,550676,550717,553784,8,400,47,,ISIC_0005655.JPG
break,html.Screen,4_146_1,2023-10-31T17:20:00.400Z,,0,,,NaN,,,,,,false,,,,553746,553746,,553745,,553784,8,400,,,
break_continue,html.Screen,4_146_2,2023-10-31T17:20:00.400Z,,0,,,NaN,,,,,,false,,,,553747,553746,,553746,,553784,8,400,,,
sequence,flow.Sequence,4_146,2023-10-31T17:20:00.400Z,,0,,,3029,completion,,,,,false,,,,553747,553746,550684,550676,550717,553784,8,400,,,
trial,html.Screen,4_147_0,2023-10-31T17:20:03.491Z,,0,3,,3087,response,ISIC_0072733.JPG,10,ISIC_0058501.JPG,ISIC_0072733.JPG,false,1,keypress(m),500,556837,556837,553750,553747,553784,556884,8,400,48,,ISIC_0058501.JPG
break,html.Screen,4_147_1,2023-10-31T17:20:03.492Z,,0,,,NaN,,,,,,false,,,,556839,556838,,556838,,556884,8,400,,,
break_continue,html.Screen,4_147_2,2023-10-31T17:20:03.493Z,,0,,,NaN,,,,,,false,,,,556839,556839,,556839,,556884,8,400,,,
sequence,flow.Sequence,4_147,2023-10-31T17:20:03.493Z,,0,,,3055,completion,,,,,false,,,,556839,556839,553750,553747,553784,556884,8,400,,,
trial,html.Screen,4_148_0,2023-10-31T17:20:06.702Z,,0,3,,3199,response,ISIC_6507640.JPG,9,ISIC_0059722.JPG,ISIC_0059722.JPG,false,0,keypress(z),500,560049,560049,556850,556840,556884,560100,8,400,49,,ISIC_6507640.JPG
break,html.Screen,4_148_1,2023-10-31T17:20:06.704Z,,0,,,NaN,,,,,,false,,,,560051,560050.0000000001,,560049,,560100,8,400,,,
break_continue,html.Screen,4_148_2,2023-10-31T17:20:06.704Z,,0,,,NaN,,,,,,false,,,,560051,560051,,560051,,560100,8,400,,,
sequence,flow.Sequence,4_148,2023-10-31T17:20:06.705Z,,0,,,3167,completion,,,,,false,,,,560051,560051,556850,556840,556884,560100,8,400,,,
trial,html.Screen,4_149_0,2023-10-31T17:20:10.531Z,,0,3,,3811,response,ISIC_0001129.JPG,14,ISIC_0010895.JPG,ISIC_0001129.JPG,false,1,keypress(m),500,563878,563878,560067,560051,560100,563918,8,400,50,,ISIC_0010895.JPG
break,html.Screen,4_149_1,2023-10-31T17:20:20.538Z,,0,,,10000,timeout,,,,,false,,,,573885,573884,563883,563878,563918,573918,8,400,,,
break_continue,html.Screen,4_149_2,2023-10-31T17:20:21.409Z,,0,,,889,response,,,,,false,continue,keypress(Space),,574756,574773,573884,573885,573918,574801,8,400,,,
sequence,flow.Sequence,4_149,2023-10-31T17:20:21.409Z,,0,,,14673,completion,,,,,false,,,,574756,574773,560067,560051,560100,574801,8,400,,,
trial,html.Screen,4_150_0,2023-10-31T17:20:24.210Z,,0,4,,2790,response,ISIC_0064982.JPG,5,ISIC_0061158.JPG,ISIC_0061158.JPG,false,0,keypress(z),500,577557,577557,574767,574757.0000000001,574801,577601,8,400,1,,ISIC_0064982.JPG
break,html.Screen,4_150_1,2023-10-31T17:20:24.210Z,,0,,,NaN,,,,,,false,,,,577558,577558,,577557,,577601,8,400,,,
break_continue,html.Screen,4_150_2,2023-10-31T17:20:24.211Z,,0,,,NaN,,,,,,false,,,,577558,577558,,577558,,577601,8,400,,,
sequence,flow.Sequence,4_150,2023-10-31T17:20:24.211Z,,0,,,2757,completion,,,,,false,,,,577558,577558,574767,574756,574801,577601,8,400,,,
trial,html.Screen,4_151_0,2023-10-31T17:20:26.892Z,,0,4,,2671,response,ISIC_0068126.JPG,8,ISIC_1423737.JPG,ISIC_1423737.JPG,false,0,keypress(z),500,580239,580239,577568,577558,577601,580284,8,400,2,,ISIC_0068126.JPG
break,html.Screen,4_151_1,2023-10-31T17:20:26.893Z,,0,,,NaN,,,,,,false,,,,580240,580240,,580239,,580284,8,400,,,
break_continue,html.Screen,4_151_2,2023-10-31T17:20:26.893Z,,0,,,NaN,,,,,,false,,,,580241,580241,,580240,,580284,8,400,,,
sequence,flow.Sequence,4_151,2023-10-31T17:20:26.894Z,,0,,,2640,completion,,,,,false,,,,580241,580241,577568,577558,577601,580284,8,400,,,
trial,html.Screen,4_152_0,2023-10-31T17:20:29.602Z,,0,4,,2698,response,ISIC_5059476.JPG,10,ISIC_0061735.JPG,ISIC_0061735.JPG,false,0,keypress(z),500,582949,582949,580251,580241,580284,583001,8,400,3,,ISIC_5059476.JPG
break,html.Screen,4_152_1,2023-10-31T17:20:29.603Z,,0,,,NaN,,,,,,false,,,,582950,582950,,582949,,583001,8,400,,,
break_continue,html.Screen,4_152_2,2023-10-31T17:20:29.603Z,,0,,,NaN,,,,,,false,,,,582951,582951,,582950,,583001,8,400,,,
sequence,flow.Sequence,4_152,2023-10-31T17:20:29.603Z,,0,,,2667,completion,,,,,false,,,,582951,582951,580251,580241,580284,583001,8,400,,,
trial,html.Screen,4_153_0,2023-10-31T17:20:32.138Z,,0,4,,2517,response,ISIC_7164403.JPG,10,ISIC_8051628.JPG,ISIC_7164403.JPG,false,1,keypress(m),500,585486,585485,582968,582951,583001,585535,8,400,4,,ISIC_8051628.JPG
break,html.Screen,4_153_1,2023-10-31T17:20:32.139Z,,0,,,NaN,,,,,,false,,,,585487,585487,,585486,,585535,8,400,,,
break_continue,html.Screen,4_153_2,2023-10-31T17:20:32.140Z,,0,,,NaN,,,,,,false,,,,585488,585487,,585487,,585535,8,400,,,
sequence,flow.Sequence,4_153,2023-10-31T17:20:32.140Z,,0,,,2486,completion,,,,,false,,,,585488,585487,582968,582951,583001,585535,8,400,,,
trial,html.Screen,4_154_0,2023-10-31T17:20:34.637Z,,0,4,,2482,response,ISIC_9439742.JPG,9,ISIC_0033122.JPG,ISIC_9439742.JPG,false,1,keypress(m),500,587985,587984,585502,585488,585535,588035,8,400,5,,ISIC_0033122.JPG
break,html.Screen,4_154_1,2023-10-31T17:20:34.638Z,,0,,,NaN,,,,,,false,,,,587986,587986,,587985,,588035,8,400,,,
break_continue,html.Screen,4_154_2,2023-10-31T17:20:34.639Z,,0,,,NaN,,,,,,false,,,,587986,587986,,587986,,588035,8,400,,,
sequence,flow.Sequence,4_154,2023-10-31T17:20:34.639Z,,0,,,2451,completion,,,,,false,,,,587986,587986,585502,585488,585535,588035,8,400,,,
trial,html.Screen,4_155_0,2023-10-31T17:20:37.320Z,,0,4,,2665,response,ISIC_4666619.JPG,9,ISIC_9181399.JPG,ISIC_9181399.JPG,false,0,keypress(z),500,590668,590667,588002,587987,588035,590718,8,400,6,,ISIC_4666619.JPG
break,html.Screen,4_155_1,2023-10-31T17:20:37.321Z,,0,,,NaN,,,,,,false,,,,590669,590669,,590668,,590718,8,400,,,
break_continue,html.Screen,4_155_2,2023-10-31T17:20:37.322Z,,0,,,NaN,,,,,,false,,,,590669,590669,,590669,,590718,8,400,,,
sequence,flow.Sequence,4_155,2023-10-31T17:20:37.322Z,,0,,,2634,completion,,,,,false,,,,590670,590669,588002,587987,588035,590718,8,400,,,
trial,html.Screen,4_156_0,2023-10-31T17:20:39.989Z,,0,4,,2651,response,ISIC_0028061.JPG,8,ISIC_8709211.JPG,ISIC_8709211.JPG,false,0,keypress(z),500,593337,593336,590685,590670,590718,593401,8,400,7,,ISIC_0028061.JPG
break,html.Screen,4_156_1,2023-10-31T17:20:39.990Z,,0,,,NaN,,,,,,false,,,,593338,593338,,593337,,593401,8,400,,,
break_continue,html.Screen,4_156_2,2023-10-31T17:20:39.990Z,,0,,,NaN,,,,,,false,,,,593338,593338,,593338,,593401,8,400,,,
sequence,flow.Sequence,4_156,2023-10-31T17:20:39.990Z,,0,,,2620,completion,,,,,false,,,,593338,593338,590685,590670,590718,593401,8,400,,,
