sender,sender_type,sender_id,timestamp,meta,,blockNo,condition,duration,ended_on,img_left,img_reveal,img_right,loser,practice,response,response_action,selection_duration,time_commit,time_end,time_render,time_run,time_show,time_switch,total_blocks,total_trials,trialNo,url,winner
informed_consent,html.Screen,0,2023-10-31T16:53:35.920Z,"{""labjs_version"":""20.2.4"",""labjs_build"":{""flavor"":""production"",""commit"":""f5b4a49f956347addd546a832a3327688c2c0fef""},""location"":""https://run.pavlovia.org/MurrayBennett/melanoma-2afc/?participant=66772&platform=sona"",""userAgent"":""Mozilla/5.0 (Macintosh; Intel Mac OS X 10_15_7) AppleWebKit/537.36 (KHTML, like Gecko) Chrome/116.0.0.0 Safari/537.36"",""platform"":""MacIntel"",""language"":""en-US"",""locale"":""en-US"",""timeZone"":""America/Chicago"",""timezoneOffset"":300,""screen_width"":1440,""screen_height"":900,""scroll_width"":1440,""scroll_height"":735,""window_innerWidth"":1440,""window_innerHeight"":783,""devicePixelRatio"":2}",,,,3288.714999988079,response,,,,,,consent,click button,,6290.199999988079,6286.699999988079,2781.327,3004,2997.985,6298.642,,,,"{""participant"":""66772"",""platform"":""sona""}",
Welcome,html.Screen,1,2023-10-31T16:53:37.304Z,,,,asymmetry,1371.5579999880792,response,,,,,,continue,click button,,7673.699999988079,7670.199999988079,6281.976,6290.5999999940395,6298.642,7681.92,,,,,
trial,html.Screen,2_0_0,2023-10-31T16:53:46.367Z,,0,0,,9054.47999999106,response,ISIC_6997061.JPG,,ISIC_0069348.JPG,ISIC_0069348.JPG,true,0,keypress(z),500,16737.09999999404,16736.39999999106,7665.254,7674,7681.92,16748.967,1,6,1,,ISIC_6997061.JPG
sequence,flow.Sequence,2_0,2023-10-31T16:53:46.367Z,,0,,,9054.47999999106,completion,,,,,true,,,,16737.59999999404,16736.39999999106,7665.254,7674,7681.92,16748.967,1,6,,,
trial,html.Screen,2_1_0,2023-10-31T16:53:53.784Z,,0,0,,7405.032999999999,response,ISIC_0009529.JPG,,ISIC_0057368.JPG,ISIC_0057368.JPG,true,0,keypress(z),500,24154.59999999404,24154,16732.301,16737.79999999702,16748.967,24165.337,1,6,2,,ISIC_0009529.JPG
sequence,flow.Sequence,2_1,2023-10-31T16:53:53.784Z,,0,,,7405.032999999999,completion,,,,,true,,,,24155,24154,16732.301,16737.79999999702,16748.967,24165.337,1,6,,,
trial,html.Screen,2_2_0,2023-10-31T16:53:58.990Z,,0,0,,5195.06299999106,response,ISIC_0064954.JPG,,ISIC_9758671.JPG,ISIC_0064954.JPG,true,1,keypress(m),500,29361,29360.39999999106,24148.671,24155.29999999702,24165.337,29366.066,1,6,3,,ISIC_9758671.JPG
sequence,flow.Sequence,2_2,2023-10-31T16:53:58.990Z,,0,,,5195.06299999106,completion,,,,,true,,,,29361.39999999106,29360.39999999106,24148.671,24155.09999999404,24165.337,29366.066,1,6,,,
trial,html.Screen,2_3_0,2023-10-31T16:54:02.561Z,,0,0,,3565.8339999910604,response,ISIC_0000080.JPG,,ISIC_0005785.JPG,ISIC_0005785.JPG,true,0,keypress(z),500,32932.5,32931.89999999106,29349.4,29361.69999998808,29366.066,32949.256,1,6,4,,ISIC_0000080.JPG
sequence,flow.Sequence,2_3,2023-10-31T16:54:02.562Z,,0,,,3565.8339999910604,completion,,,,,true,,,,32933.19999998808,32931.89999999106,29349.4,29361.59999999404,29366.066,32949.256,1,6,,,
trial,html.Screen,2_4_0,2023-10-31T16:54:05.976Z,,0,0,,3397.443999988078,response,ISIC_5390060.JPG,,ISIC_7944028.JPG,ISIC_5390060.JPG,true,1,keypress(m),500,36347.19999998808,36346.69999998808,32932.59,32933.39999999106,32949.256,36349.855,1,6,5,,ISIC_7944028.JPG
sequence,flow.Sequence,2_4,2023-10-31T16:54:05.976Z,,0,,,3397.443999988078,completion,,,,,true,,,,36347.5,36346.69999998808,32932.59,32933.29999999702,32949.256,36349.855,1,6,,,
trial,html.Screen,2_5_0,2023-10-31T16:54:12.654Z,,0,0,,6674.744999994036,response,ISIC_0794216.JPG,,ISIC_0010188.JPG,ISIC_0794216.JPG,true,1,keypress(m),500,43025.19999998808,43024.59999999404,36333.189,36347.79999999702,36349.855,43032.921,1,6,6,,ISIC_0010188.JPG
sequence,flow.Sequence,2_5,2023-10-31T16:54:12.654Z,,0,,,6674.744999994036,completion,,,,,true,,,,43025.69999998808,43024.59999999404,36333.189,36347.69999998808,36349.855,43032.921,1,6,,,
loop,flow.Loop,2,2023-10-31T16:54:12.655Z,,,,,35342.67999999404,completion,,,,,true,,,,43026.19999998808,43024.59999999404,7665.254,7673.899999991059,7681.92,43032.921,1,6,,,
exp_instructions,html.Screen,3,2023-10-31T16:54:24.204Z,,,,,11536.778999988077,response,,,,,,continue,keypress(Space),,54576,54569.69999998808,43016.255,43026.29999999702,43032.921,54583.138,,,,,
trial,html.Screen,4_0_0,2023-10-31T16:54:32.867Z,,0,1,,8655.46199999404,response,ISIC_0026730.JPG,7,ISIC_3372067.JPG,ISIC_0026730.JPG,false,1,keypress(m),500,63238.79999999702,63238.59999999404,54566.472,54576.29999999702,54583.138,63249.458,8,400,1,,ISIC_3372067.JPG
break,html.Screen,4_0_1,2023-10-31T16:54:32.867Z,,0,,,NaN,,,,,,false,,,,63239.69999998808,63239.39999999106,,63239,,63249.458,8,400,,,
break_continue,html.Screen,4_0_2,2023-10-31T16:54:32.868Z,,0,,,NaN,,,,,,false,,,,63239.89999999106,63239.89999999106,,63239.69999998808,,63249.458,8,400,,,
sequence,flow.Sequence,4_0,2023-10-31T16:54:32.868Z,,0,,,8656.76199999106,completion,,,,,false,,,,63240.09999999404,63239.89999999106,54566.472,54576.19999998808,54583.138,63249.458,8,400,,,
trial,html.Screen,4_1_0,2023-10-31T16:54:36.921Z,,0,1,,4043.341999997021,response,ISIC_0072604.JPG,8,ISIC_4446385.JPG,ISIC_4446385.JPG,false,0,keypress(z),500,67293.29999999702,67292.79999999702,63232.792,63240.09999999404,63249.458,67300.844,8,400,2,,ISIC_0072604.JPG
break,html.Screen,4_1_1,2023-10-31T16:54:36.922Z,,0,,,NaN,,,,,,false,,,,67294.29999999702,67294.19999998808,,67293.59999999404,,67300.844,8,400,,,
break_continue,html.Screen,4_1_2,2023-10-31T16:54:36.922Z,,0,,,NaN,,,,,,false,,,,67294.69999998808,67294.59999999404,,67294.59999999404,,67300.844,8,400,,,
sequence,flow.Sequence,4_1,2023-10-31T16:54:36.922Z,,0,,,4045.141999994041,completion,,,,,false,,,,67295,67294.59999999404,63232.792,63240.09999999404,63249.458,67300.844,8,400,,,
trial,html.Screen,4_2_0,2023-10-31T16:54:40.913Z,,0,1,,3984.055999991062,response,ISIC_0002118.JPG,6,ISIC_2085855.JPG,ISIC_0002118.JPG,false,1,keypress(m),500,71285.29999999702,71284.89999999106,67284.178,67295.09999999404,67300.844,71300.684,8,400,3,,ISIC_2085855.JPG
break,html.Screen,4_2_1,2023-10-31T16:54:40.913Z,,0,,,NaN,,,,,,false,,,,71286,71285.79999999702,,71285.5,,71300.684,8,400,,,
break_continue,html.Screen,4_2_2,2023-10-31T16:54:40.914Z,,0,,,NaN,,,,,,false,,,,71286.19999998808,71286.09999999404,,71286,,71300.684,8,400,,,
sequence,flow.Sequence,4_2,2023-10-31T16:54:40.914Z,,0,,,3985.255999994042,completion,,,,,false,,,,71286.19999998808,71286.09999999404,67284.178,67295.09999999404,67300.844,71300.684,8,400,,,
trial,html.Screen,4_3_0,2023-10-31T16:54:44.901Z,,0,1,,3972.5159999880852,response,ISIC_2740756.JPG,9,ISIC_4607215.JPG,ISIC_4607215.JPG,false,0,keypress(z),500,75273.59999999404,75273.19999998808,71284.018,71286.29999999702,71300.684,75284.663,8,400,4,,ISIC_2740756.JPG
break,html.Screen,4_3_1,2023-10-31T16:54:44.902Z,,0,,,NaN,,,,,,false,,,,75274.39999999106,75274.19999998808,,75273.79999999702,,75284.663,8,400,,,
break_continue,html.Screen,4_3_2,2023-10-31T16:54:44.903Z,,0,,,NaN,,,,,,false,,,,75275.59999999404,75275.39999999106,,75275.39999999106,,75284.663,8,400,,,
sequence,flow.Sequence,4_3,2023-10-31T16:54:44.903Z,,0,,,3974.7159999910655,completion,,,,,false,,,,75275.69999998808,75275.39999999106,71284.018,71286.29999999702,71300.684,75284.663,8,400,,,
trial,html.Screen,4_4_0,2023-10-31T16:54:48.748Z,,0,1,,3836.1369999970193,response,ISIC_4684860.JPG,8,ISIC_0058730.JPG,ISIC_0058730.JPG,false,0,keypress(z),500,79121.19999998808,79120.79999999702,75267.997,75275.79999999702,75284.663,79134.509,8,400,5,,ISIC_4684860.JPG
break,html.Screen,4_4_1,2023-10-31T16:54:48.749Z,,0,,,NaN,,,,,,false,,,,79122.19999998808,79122,,79121.5,,79134.509,8,400,,,
break_continue,html.Screen,4_4_2,2023-10-31T16:54:48.750Z,,0,,,NaN,,,,,,false,,,,79122.59999999404,79122.39999999106,,79122.39999999106,,79134.509,8,400,,,
sequence,flow.Sequence,4_4,2023-10-31T16:54:48.750Z,,0,,,3837.736999991059,completion,,,,,false,,,,79122.79999999702,79122.39999999106,75267.997,75275.79999999702,75284.663,79134.509,8,400,,,
trial,html.Screen,4_5_0,2023-10-31T16:54:55.150Z,,0,1,,6387.790999997014,response,ISIC_1519891.JPG,7,ISIC_8077943.JPG,ISIC_8077943.JPG,false,0,keypress(z),500,85522.89999999106,85522.29999999702,79117.843,79122.89999999106,79134.509,85534.872,8,400,6,,ISIC_1519891.JPG
break,html.Screen,4_5_1,2023-10-31T16:54:55.151Z,,0,,,NaN,,,,,,false,,,,85524.09999999404,85523.69999998808,,85523.29999999702,,85534.872,8,400,,,
break_continue,html.Screen,4_5_2,2023-10-31T16:54:55.152Z,,0,,,NaN,,,,,,false,,,,85524.89999999106,85524.69999998808,,85524.5,,85534.872,8,400,,,
sequence,flow.Sequence,4_5,2023-10-31T16:54:55.152Z,,0,,,6390.190999988074,completion,,,,,false,,,,85525.39999999106,85524.69999998808,79117.843,79122.89999999106,79134.509,85534.872,8,400,,,
trial,html.Screen,4_6_0,2023-10-31T16:54:59.222Z,,0,1,,4059.827999988076,response,ISIC_9152137.JPG,8,ISIC_0027867.JPG,ISIC_0027867.JPG,false,0,keypress(z),500,89595.19999998808,89594.69999998808,85518.206,85525.59999999404,85534.872,89601.376,8,400,7,,ISIC_9152137.JPG
break,html.Screen,4_6_1,2023-10-31T16:54:59.223Z,,0,,,NaN,,,,,,false,,,,89596.19999998808,89596,,89595.5,,89601.376,8,400,,,
break_continue,html.Screen,4_6_2,2023-10-31T16:54:59.223Z,,0,,,NaN,,,,,,false,,,,89596.5,89596.39999999106,,89596.29999999702,,89601.376,8,400,,,
sequence,flow.Sequence,4_6,2023-10-31T16:54:59.223Z,,0,,,4061.5279999910563,completion,,,,,false,,,,89596.69999998808,89596.39999999106,85518.206,85525.39999999106,85534.872,89601.376,8,400,,,
trial,html.Screen,4_7_0,2023-10-31T16:55:03.611Z,,0,1,,4383.123999999996,response,ISIC_0009924.JPG,8,ISIC_0016112.JPG,ISIC_0016112.JPG,false,0,keypress(z),500,93985,93984.5,89584.71,89597,89601.376,94001.2,8,400,8,,ISIC_0009924.JPG
break,html.Screen,4_7_1,2023-10-31T16:55:03.613Z,,0,,,NaN,,,,,,false,,,,93986.09999999404,93985.79999999702,,93985.29999999702,,94001.2,8,400,,,
break_continue,html.Screen,4_7_2,2023-10-31T16:55:03.613Z,,0,,,NaN,,,,,,false,,,,93986.39999999106,93986.29999999702,,93986.19999998808,,94001.2,8,400,,,
sequence,flow.Sequence,4_7,2023-10-31T16:55:03.613Z,,0,,,4384.923999997016,completion,,,,,false,,,,93986.69999998808,93986.29999999702,89584.71,89596.89999999106,89601.376,94001.2,8,400,,,
trial,html.Screen,4_8_0,2023-10-31T16:55:06.946Z,,0,1,,3317.999999988082,response,ISIC_0067597.JPG,5,ISIC_2546644.JPG,ISIC_0067597.JPG,false,1,keypress(m),500,97319.59999999404,97319.19999998808,93984.534,93986.79999999702,94001.2,97335.535,8,400,9,,ISIC_2546644.JPG
break,html.Screen,4_8_1,2023-10-31T16:55:06.947Z,,0,,,NaN,,,,,,false,,,,97320.89999999106,97320.5,,97319.89999999106,,97335.535,8,400,,,
break_continue,html.Screen,4_8_2,2023-10-31T16:55:06.948Z,,0,,,NaN,,,,,,false,,,,97321.29999999702,97321.09999999404,,97321,,97335.535,8,400,,,
sequence,flow.Sequence,4_8,2023-10-31T16:55:06.948Z,,0,,,3319.8999999940424,completion,,,,,false,,,,97321.5,97321.09999999404,93984.534,93986.79999999702,94001.2,97335.535,8,400,,,
trial,html.Screen,4_9_0,2023-10-31T16:55:10.986Z,,0,1,,4023.4649999999965,response,ISIC_0064180.JPG,8,ISIC_5063476.JPG,ISIC_0064180.JPG,false,1,keypress(m),500,101359.39999999106,101359,97318.869,97321.69999998808,97335.535,101368.707,8,400,10,,ISIC_5063476.JPG
break,html.Screen,4_9_1,2023-10-31T16:55:10.987Z,,0,,,NaN,,,,,,false,,,,101360.59999999404,101360.29999999702,,101359.89999999106,,101368.707,8,400,,,
break_continue,html.Screen,4_9_2,2023-10-31T16:55:10.987Z,,0,,,NaN,,,,,,false,,,,101361,101360.89999999106,,101360.69999998808,,101368.707,8,400,,,
sequence,flow.Sequence,4_9,2023-10-31T16:55:10.987Z,,0,,,4025.364999991056,completion,,,,,false,,,,101361.09999999404,101360.89999999106,97318.869,97321.5,97335.535,101368.707,8,400,,,
trial,html.Screen,4_10_0,2023-10-31T16:55:14.080Z,,0,1,,3085.1929999910644,response,ISIC_0009955.JPG,7,ISIC_5194331.JPG,ISIC_0009955.JPG,false,1,keypress(m),500,104454.29999999702,104453.89999999106,101352.041,101361.29999999702,101368.707,104468.583,8,400,11,,ISIC_5194331.JPG
break,html.Screen,4_10_1,2023-10-31T16:55:14.081Z,,0,,,NaN,,,,,,false,,,,104455,104454.89999999106,,104454.5,,104468.583,8,400,,,
break_continue,html.Screen,4_10_2,2023-10-31T16:55:14.081Z,,0,,,NaN,,,,,,false,,,,104455.39999999106,104455.29999999702,,104455.19999998808,,104468.583,8,400,,,
sequence,flow.Sequence,4_10,2023-10-31T16:55:14.082Z,,0,,,3086.592999997025,completion,,,,,false,,,,104455.5,104455.29999999702,101352.041,101361.29999999702,101368.707,104468.583,8,400,,,
trial,html.Screen,4_11_0,2023-10-31T16:55:17.716Z,,0,1,,3621.3169999910606,response,ISIC_2565986.JPG,5,ISIC_0000513.JPG,ISIC_2565986.JPG,false,1,keypress(m),500,108090.39999999106,108089.89999999106,104451.917,104455.69999998808,104468.583,108102.519,8,400,12,,ISIC_0000513.JPG
break,html.Screen,4_11_1,2023-10-31T16:55:17.717Z,,0,,,NaN,,,,,,false,,,,108091.19999998808,108091.09999999404,,108090.59999999404,,108102.519,8,400,,,
break_continue,html.Screen,4_11_2,2023-10-31T16:55:17.718Z,,0,,,NaN,,,,,,false,,,,108091.69999998808,108091.5,,108091.39999999106,,108102.519,8,400,,,
sequence,flow.Sequence,4_11,2023-10-31T16:55:17.718Z,,0,,,3622.9170000000013,completion,,,,,false,,,,108091.79999999702,108091.5,104451.917,104455.59999999404,104468.583,108102.519,8,400,,,
trial,html.Screen,4_12_0,2023-10-31T16:55:21.193Z,,0,1,,3463.9809999999998,response,ISIC_0014548.JPG,7,ISIC_0958701.JPG,ISIC_0958701.JPG,false,0,keypress(z),500,111567,111566.5,108085.853,108091.89999999106,108102.519,111569.047,8,400,13,,ISIC_0014548.JPG
break,html.Screen,4_12_1,2023-10-31T16:55:21.194Z,,0,,,NaN,,,,,,false,,,,111568,111567.79999999702,,111567.29999999702,,111569.047,8,400,,,
break_continue,html.Screen,4_12_2,2023-10-31T16:55:21.194Z,,0,,,NaN,,,,,,false,,,,111568.29999999702,111568.19999998808,,111568.09999999404,,111569.047,8,400,,,
sequence,flow.Sequence,4_12,2023-10-31T16:55:21.194Z,,0,,,3465.680999988079,completion,,,,,false,,,,111568.59999999404,111568.19999998808,108085.853,108091.89999999106,108102.519,111569.047,8,400,,,
trial,html.Screen,4_13_0,2023-10-31T16:55:25.069Z,,0,1,,3873.3529999910534,response,ISIC_0064427.JPG,8,ISIC_0029910.JPG,ISIC_0029910.JPG,false,0,keypress(z),500,115442.89999999106,115442.39999999106,111552.381,111568.69999998808,111569.047,115452.225,8,400,14,,ISIC_0064427.JPG
break,html.Screen,4_13_1,2023-10-31T16:55:25.070Z,,0,,,NaN,,,,,,false,,,,115443.89999999106,115443.69999998808,,115443.19999998808,,115452.225,8,400,,,
break_continue,html.Screen,4_13_2,2023-10-31T16:55:25.070Z,,0,,,NaN,,,,,,false,,,,115444.29999999702,115444.19999998808,,115444.09999999404,,115452.225,8,400,,,
sequence,flow.Sequence,4_13,2023-10-31T16:55:25.070Z,,0,,,3875.152999988073,completion,,,,,false,,,,115444.39999999106,115444.19999998808,111552.381,111568.69999998808,111569.047,115452.225,8,400,,,
trial,html.Screen,4_14_0,2023-10-31T16:55:28.771Z,,0,1,,3693.274999999994,response,ISIC_5810196.JPG,6,ISIC_4141315.JPG,ISIC_4141315.JPG,false,0,keypress(z),500,119145.89999999106,119145.5,115435.559,115444.59999999404,115452.225,119153.025,8,400,15,,ISIC_5810196.JPG
break,html.Screen,4_14_1,2023-10-31T16:55:28.772Z,,0,,,NaN,,,,,,false,,,,119146.89999999106,119146.69999998808,,119146.19999998808,,119153.025,8,400,,,
break_continue,html.Screen,4_14_2,2023-10-31T16:55:28.773Z,,0,,,NaN,,,,,,false,,,,119147.29999999702,119147.09999999404,,119147,,119153.025,8,400,,,
sequence,flow.Sequence,4_14,2023-10-31T16:55:28.773Z,,0,,,3694.8749999940337,completion,,,,,false,,,,119147.5,119147.09999999404,115435.559,115444.5,115452.225,119153.025,8,400,,,
trial,html.Screen,4_15_0,2023-10-31T16:55:33.354Z,,0,1,,4574.674999988085,response,ISIC_0222117.JPG,7,ISIC_0032975.JPG,ISIC_0032975.JPG,false,0,keypress(z),500,123728.19999998808,123727.69999998808,119136.359,119147.59999999404,119153.025,123736.175,8,400,16,,ISIC_0222117.JPG
break,html.Screen,4_15_1,2023-10-31T16:55:33.355Z,,0,,,NaN,,,,,,false,,,,123729.19999998808,123729,,123728.59999999404,,123736.175,8,400,,,
break_continue,html.Screen,4_15_2,2023-10-31T16:55:33.355Z,,0,,,NaN,,,,,,false,,,,123729.59999999404,123729.5,,123729.39999999106,,123736.175,8,400,,,
sequence,flow.Sequence,4_15,2023-10-31T16:55:33.355Z,,0,,,4576.475000000006,completion,,,,,false,,,,123729.69999998808,123729.5,119136.359,119147.5,119153.025,123736.175,8,400,,,
trial,html.Screen,4_16_0,2023-10-31T16:55:37.888Z,,0,1,,4526.224999991056,response,ISIC_0905367.JPG,8,ISIC_1638357.JPG,ISIC_0905367.JPG,false,1,keypress(m),500,128262.89999999106,128262.39999999106,123719.509,123729.89999999106,123736.175,128270.218,8,400,17,,ISIC_1638357.JPG
break,html.Screen,4_16_1,2023-10-31T16:55:37.889Z,,0,,,NaN,,,,,,false,,,,128263.89999999106,128263.69999998808,,128263.19999998808,,128270.218,8,400,,,
break_continue,html.Screen,4_16_2,2023-10-31T16:55:37.889Z,,0,,,NaN,,,,,,false,,,,128264.19999998808,128264.09999999404,,128263.89999999106,,128270.218,8,400,,,
sequence,flow.Sequence,4_16,2023-10-31T16:55:37.890Z,,0,,,4527.924999994037,completion,,,,,false,,,,128264.39999999106,128264.09999999404,123719.509,123729.89999999106,123736.175,128270.218,8,400,,,
trial,html.Screen,4_17_0,2023-10-31T16:55:40.951Z,,0,1,,3055.2820000000065,response,ISIC_9983696.JPG,8,ISIC_4679971.JPG,ISIC_9983696.JPG,false,1,keypress(m),500,131326,131325.5,128253.552,128264.59999999404,128270.218,131336.762,8,400,18,,ISIC_4679971.JPG
break,html.Screen,4_17_1,2023-10-31T16:55:40.952Z,,0,,,NaN,,,,,,false,,,,131327.09999999404,131326.79999999702,,131326.29999999702,,131336.762,8,400,,,
break_continue,html.Screen,4_17_2,2023-10-31T16:55:40.953Z,,0,,,NaN,,,,,,false,,,,131327.5,131327.39999999106,,131327.19999998808,,131336.762,8,400,,,
sequence,flow.Sequence,4_17,2023-10-31T16:55:40.953Z,,0,,,3057.181999991066,completion,,,,,false,,,,131327.79999999702,131327.39999999106,128253.552,128264.59999999404,128270.218,131336.762,8,400,,,
trial,html.Screen,4_18_0,2023-10-31T16:55:44.350Z,,0,1,,3387.738000000012,response,ISIC_0032638.JPG,9,ISIC_3633306.JPG,ISIC_3633306.JPG,false,0,keypress(z),500,134725,134724.5,131320.096,131327.89999999106,131336.762,134736.626,8,400,19,,ISIC_0032638.JPG
break,html.Screen,4_18_1,2023-10-31T16:55:44.351Z,,0,,,NaN,,,,,,false,,,,134726.09999999404,134725.89999999106,,134725.29999999702,,134736.626,8,400,,,
break_continue,html.Screen,4_18_2,2023-10-31T16:55:44.351Z,,0,,,NaN,,,,,,false,,,,134726.39999999106,134726.29999999702,,134726.09999999404,,134736.626,8,400,,,
sequence,flow.Sequence,4_18,2023-10-31T16:55:44.351Z,,0,,,3389.537999997032,completion,,,,,false,,,,134726.59999999404,134726.29999999702,131320.096,131327.79999999702,131336.762,134736.626,8,400,,,
trial,html.Screen,4_19_0,2023-10-31T16:55:47.572Z,,0,1,,3210.1739999970305,response,ISIC_8048162.JPG,9,ISIC_0014264.JPG,ISIC_8048162.JPG,false,1,keypress(m),500,137947.19999998808,137946.79999999702,134719.96,134726.79999999702,134736.626,137953.164,8,400,20,,ISIC_0014264.JPG
break,html.Screen,4_19_1,2023-10-31T16:55:47.573Z,,0,,,NaN,,,,,,false,,,,137948.19999998808,137948.09999999404,,137947.59999999404,,137953.164,8,400,,,
break_continue,html.Screen,4_19_2,2023-10-31T16:55:47.573Z,,0,,,NaN,,,,,,false,,,,137948.59999999404,137948.5,,137948.29999999702,,137953.164,8,400,,,
sequence,flow.Sequence,4_19,2023-10-31T16:55:47.574Z,,0,,,3211.8740000000107,completion,,,,,false,,,,137948.79999999702,137948.5,134719.96,134726.69999998808,134736.626,137953.164,8,400,,,
trial,html.Screen,4_20_0,2023-10-31T16:55:52.218Z,,0,1,,4639.33600000001,response,ISIC_0028462.JPG,8,ISIC_0004794.JPG,ISIC_0004794.JPG,false,0,keypress(z),500,142593,142592.5,137936.498,137948.89999999106,137953.164,142603.745,8,400,21,,ISIC_0028462.JPG
break,html.Screen,4_20_1,2023-10-31T16:55:52.218Z,,0,,,NaN,,,,,,false,,,,142593.79999999702,142593.59999999404,,142593.19999998808,,142603.745,8,400,,,
break_continue,html.Screen,4_20_2,2023-10-31T16:55:52.219Z,,0,,,NaN,,,,,,false,,,,142594.19999998808,142594.09999999404,,142594,,142603.745,8,400,,,
sequence,flow.Sequence,4_20,2023-10-31T16:55:52.219Z,,0,,,4640.93599999405,completion,,,,,false,,,,142594.39999999106,142594.09999999404,137936.498,137948.79999999702,137953.164,142603.745,8,400,,,
trial,html.Screen,4_21_0,2023-10-31T16:55:56.496Z,,0,1,,4267.154999991064,response,ISIC_3857463.JPG,8,ISIC_0028910.JPG,ISIC_3857463.JPG,false,1,keypress(m),500,146871.29999999702,146870.89999999106,142587.079,142594.5,142603.745,146886.907,8,400,22,,ISIC_0028910.JPG
break,html.Screen,4_21_1,2023-10-31T16:55:56.497Z,,0,,,NaN,,,,,,false,,,,146872.39999999106,146872.19999998808,,146871.69999998808,,146886.907,8,400,,,
break_continue,html.Screen,4_21_2,2023-10-31T16:55:56.497Z,,0,,,NaN,,,,,,false,,,,146872.69999998808,146872.59999999404,,146872.5,,146886.907,8,400,,,
sequence,flow.Sequence,4_21,2023-10-31T16:55:56.497Z,,0,,,4268.854999994044,completion,,,,,false,,,,146872.89999999106,146872.59999999404,142587.079,142594.5,142603.745,146886.907,8,400,,,
trial,html.Screen,4_22_0,2023-10-31T16:55:59.574Z,,0,1,,3062.492999991053,response,ISIC_3945116.JPG,5,ISIC_0072694.JPG,ISIC_0072694.JPG,false,0,keypress(z),500,149949.79999999702,149949.39999999106,146870.241,146873.09999999404,146886.907,149954.284,8,400,23,,ISIC_3945116.JPG
break,html.Screen,4_22_1,2023-10-31T16:55:59.575Z,,0,,,NaN,,,,,,false,,,,149950.89999999106,149950.69999998808,,149950.19999998808,,149954.284,8,400,,,
break_continue,html.Screen,4_22_2,2023-10-31T16:55:59.575Z,,0,,,NaN,,,,,,false,,,,149951.19999998808,149951.09999999404,,149950.89999999106,,149954.284,8,400,,,
sequence,flow.Sequence,4_22,2023-10-31T16:55:59.576Z,,0,,,3064.192999994033,completion,,,,,false,,,,149951.39999999106,149951.09999999404,146870.241,146873.09999999404,146886.907,149954.284,8,400,,,
trial,html.Screen,4_23_0,2023-10-31T16:56:03.330Z,,0,1,,3750.8159999940253,response,ISIC_7466175.JPG,8,ISIC_5237059.JPG,ISIC_5237059.JPG,false,0,keypress(z),500,153705.59999999404,153705.09999999404,149937.618,149951.5,149954.284,153720.8,8,400,24,,ISIC_7466175.JPG
break,html.Screen,4_23_1,2023-10-31T16:56:03.331Z,,0,,,NaN,,,,,,false,,,,153706.5,153706.39999999106,,153705.79999999702,,153720.8,8,400,,,
break_continue,html.Screen,4_23_2,2023-10-31T16:56:03.331Z,,0,,,NaN,,,,,,false,,,,153706.89999999106,153706.69999998808,,153706.59999999404,,153720.8,8,400,,,
sequence,flow.Sequence,4_23,2023-10-31T16:56:03.331Z,,0,,,3752.415999988065,completion,,,,,false,,,,153707.09999999404,153706.69999998808,149937.618,149951.5,149954.284,153720.8,8,400,,,
trial,html.Screen,4_24_0,2023-10-31T16:56:06.646Z,,0,1,,3300.7000000000116,response,ISIC_1615485.JPG,6,ISIC_0063715.JPG,ISIC_1615485.JPG,false,1,keypress(m),500,157021.89999999106,157021.5,153704.134,153707.19999998808,153720.8,157037.334,8,400,25,,ISIC_0063715.JPG
break,html.Screen,4_24_1,2023-10-31T16:56:06.647Z,,0,,,NaN,,,,,,false,,,,157022.89999999106,157022.69999998808,,157022.19999998808,,157037.334,8,400,,,
break_continue,html.Screen,4_24_2,2023-10-31T16:56:06.647Z,,0,,,NaN,,,,,,false,,,,157023.19999998808,157023.09999999404,,157023,,157037.334,8,400,,,
sequence,flow.Sequence,4_24,2023-10-31T16:56:06.647Z,,0,,,3302.299999994051,completion,,,,,false,,,,157023.29999999702,157023.09999999404,153704.134,153707.19999998808,153720.8,157037.334,8,400,,,
trial,html.Screen,4_25_0,2023-10-31T16:56:09.666Z,,0,1,,3004.0659999910567,response,ISIC_4103653.JPG,9,ISIC_4298761.JPG,ISIC_4298761.JPG,false,0,keypress(z),500,160041.79999999702,160041.39999999106,157020.668,157023.5,157037.334,160054.597,8,400,26,,ISIC_4103653.JPG
break,html.Screen,4_25_1,2023-10-31T16:56:09.667Z,,0,,,NaN,,,,,,false,,,,160042.69999998808,160042.59999999404,,160042.09999999404,,160054.597,8,400,,,
break_continue,html.Screen,4_25_2,2023-10-31T16:56:09.667Z,,0,,,NaN,,,,,,false,,,,160043.09999999404,160043,,160042.89999999106,,160054.597,8,400,,,
sequence,flow.Sequence,4_25,2023-10-31T16:56:09.667Z,,0,,,3005.6659999999974,completion,,,,,false,,,,160043.29999999702,160043,157020.668,157023.5,157037.334,160054.597,8,400,,,
trial,html.Screen,4_26_0,2023-10-31T16:56:13.369Z,,0,1,,3690.0029999940307,response,ISIC_6954782.JPG,8,ISIC_0029933.JPG,ISIC_0029933.JPG,false,0,keypress(z),500,163745,163744.59999999404,160037.931,160043.5,160054.597,163771.115,8,400,27,,ISIC_6954782.JPG
break,html.Screen,4_26_1,2023-10-31T16:56:13.370Z,,0,,,NaN,,,,,,false,,,,163746,163745.79999999702,,163745.29999999702,,163771.115,8,400,,,
break_continue,html.Screen,4_26_2,2023-10-31T16:56:13.370Z,,0,,,NaN,,,,,,false,,,,163746.29999999702,163746.29999999702,,163746.09999999404,,163771.115,8,400,,,
sequence,flow.Sequence,4_26,2023-10-31T16:56:13.370Z,,0,,,3691.702999997011,completion,,,,,false,,,,163746.59999999404,163746.29999999702,160037.931,160043.39999999106,160054.597,163771.115,8,400,,,
trial,html.Screen,4_27_0,2023-10-31T16:56:16.401Z,,0,1,,3006.0849999880884,response,ISIC_0000552.JPG,7,ISIC_0012107.JPG,ISIC_0012107.JPG,false,0,keypress(z),500,166777.69999998808,166777.19999998808,163754.449,163746.69999998808,163771.115,166787.661,8,400,28,,ISIC_0000552.JPG
break,html.Screen,4_27_1,2023-10-31T16:56:16.402Z,,0,,,NaN,,,,,,false,,,,166778.59999999404,166778.39999999106,,166778,,166787.661,8,400,,,
break_continue,html.Screen,4_27_2,2023-10-31T16:56:16.403Z,,0,,,NaN,,,,,,false,,,,166779,166778.89999999106,,166778.79999999702,,166787.661,8,400,,,
sequence,flow.Sequence,4_27,2023-10-31T16:56:16.403Z,,0,,,3007.7849999910686,completion,,,,,false,,,,166779.19999998808,166778.89999999106,163754.449,163746.59999999404,163771.115,166787.661,8,400,,,
trial,html.Screen,4_28_0,2023-10-31T16:56:19.575Z,,0,1,,3163.2389999910665,response,ISIC_8543040.JPG,8,ISIC_0067390.JPG,ISIC_0067390.JPG,false,0,keypress(z),500,169951.29999999702,169950.89999999106,166770.995,166779.29999999702,166787.661,169971.757,8,400,29,,ISIC_8543040.JPG
break,html.Screen,4_28_1,2023-10-31T16:56:19.576Z,,0,,,NaN,,,,,,false,,,,169952.29999999702,169952,,169951.59999999404,,169971.757,8,400,,,
break_continue,html.Screen,4_28_2,2023-10-31T16:56:19.576Z,,0,,,NaN,,,,,,false,,,,169952.59999999404,169952.5,,169952.39999999106,,169971.757,8,400,,,
sequence,flow.Sequence,4_28,2023-10-31T16:56:19.576Z,,0,,,3164.839000000007,completion,,,,,false,,,,169952.79999999702,169952.5,166770.995,166779.29999999702,166787.661,169971.757,8,400,,,
trial,html.Screen,4_29_0,2023-10-31T16:56:22.856Z,,0,1,,3260.7429999999877,response,ISIC_0030704.JPG,7,ISIC_0031422.JPG,ISIC_0031422.JPG,false,0,keypress(z),500,173233.09999999404,173232.5,169955.091,169952.89999999106,169971.757,173238.293,8,400,30,,ISIC_0030704.JPG
break,html.Screen,4_29_1,2023-10-31T16:56:22.858Z,,0,,,NaN,,,,,,false,,,,173234.39999999106,173234.09999999404,,173233.5,,173238.293,8,400,,,
break_continue,html.Screen,4_29_2,2023-10-31T16:56:22.858Z,,0,,,NaN,,,,,,false,,,,173234.79999999702,173234.69999998808,,173234.59999999404,,173238.293,8,400,,,
sequence,flow.Sequence,4_29,2023-10-31T16:56:22.858Z,,0,,,3262.9429999880667,completion,,,,,false,,,,173235,173234.69999998808,169955.091,169952.89999999106,169971.757,173238.293,8,400,,,
trial,html.Screen,4_30_0,2023-10-31T16:56:25.646Z,,0,1,,2784.0069999970146,response,ISIC_0026685.JPG,8,ISIC_1453146.JPG,ISIC_1453146.JPG,false,0,keypress(z),500,176022.89999999106,176022.29999999702,173221.627,173235.19999998808,173238.293,176038.181,8,400,31,,ISIC_0026685.JPG
break,html.Screen,4_30_1,2023-10-31T16:56:25.647Z,,0,,,NaN,,,,,,false,,,,176023.89999999106,176023.69999998808,,176023.09999999404,,176038.181,8,400,,,
break_continue,html.Screen,4_30_2,2023-10-31T16:56:25.648Z,,0,,,NaN,,,,,,false,,,,176024.29999999702,176024.19999998808,,176024.09999999404,,176038.181,8,400,,,
sequence,flow.Sequence,4_30,2023-10-31T16:56:25.648Z,,0,,,2785.906999988074,completion,,,,,false,,,,176024.5,176024.19999998808,173221.627,173235.09999999404,173238.293,176038.181,8,400,,,
trial,html.Screen,4_31_0,2023-10-31T16:56:28.424Z,,0,1,,2762.1189999970084,response,ISIC_3395488.JPG,6,ISIC_4538489.JPG,ISIC_3395488.JPG,false,1,keypress(m),500,178800.79999999702,178800.29999999702,176021.515,176024.69999998808,176038.181,178804.737,8,400,32,,ISIC_4538489.JPG
break,html.Screen,4_31_1,2023-10-31T16:56:28.425Z,,0,,,NaN,,,,,,false,,,,178801.79999999702,178801.69999998808,,178801.19999998808,,178804.737,8,400,,,
break_continue,html.Screen,4_31_2,2023-10-31T16:56:28.425Z,,0,,,NaN,,,,,,false,,,,178802.29999999702,178802.09999999404,,178802,,178804.737,8,400,,,
sequence,flow.Sequence,4_31,2023-10-31T16:56:28.426Z,,0,,,2763.918999994028,completion,,,,,false,,,,178802.5,178802.09999999404,176021.515,176024.59999999404,176038.181,178804.737,8,400,,,
trial,html.Screen,4_32_0,2023-10-31T16:56:31.504Z,,0,1,,3075.2630000000063,response,ISIC_8509219.JPG,8,ISIC_0027043.JPG,ISIC_8509219.JPG,false,1,keypress(m),500,181880.5,181880,178788.071,178802.59999999404,178804.737,181888.737,8,400,33,,ISIC_0027043.JPG
break,html.Screen,4_32_1,2023-10-31T16:56:31.505Z,,0,,,NaN,,,,,,false,,,,181881.5,181881.39999999106,,181880.89999999106,,181888.737,8,400,,,
break_continue,html.Screen,4_32_2,2023-10-31T16:56:31.505Z,,0,,,NaN,,,,,,false,,,,181881.89999999106,181881.69999998808,,181881.69999998808,,181888.737,8,400,,,
sequence,flow.Sequence,4_32,2023-10-31T16:56:31.505Z,,0,,,3076.9629999880854,completion,,,,,false,,,,181882.09999999404,181881.69999998808,178788.071,178802.59999999404,178804.737,181888.737,8,400,,,
trial,html.Screen,4_33_0,2023-10-31T16:56:34.576Z,,0,1,,3063.4629999880854,response,ISIC_4384861.JPG,8,ISIC_1739667.JPG,ISIC_4384861.JPG,false,1,keypress(m),500,184952.79999999702,184952.19999998808,181872.071,181882.19999998808,181888.737,184955.281,8,400,34,,ISIC_1739667.JPG
break,html.Screen,4_33_1,2023-10-31T16:56:34.577Z,,0,,,NaN,,,,,,false,,,,184953.79999999702,184953.5,,184953.09999999404,,184955.281,8,400,,,
break_continue,html.Screen,4_33_2,2023-10-31T16:56:34.577Z,,0,,,NaN,,,,,,false,,,,184954.09999999404,184954,,184953.89999999106,,184955.281,8,400,,,
sequence,flow.Sequence,4_33,2023-10-31T16:56:34.577Z,,0,,,3065.2630000000063,completion,,,,,false,,,,184954.29999999702,184954,181872.071,181882.19999998808,181888.737,184955.281,8,400,,,
trial,html.Screen,4_34_0,2023-10-31T16:56:37.398Z,,0,1,,2819.418999988091,response,ISIC_8957571.JPG,5,ISIC_9912475.JPG,ISIC_8957571.JPG,false,1,keypress(m),500,187775.29999999702,187774.69999998808,184938.615,184954.39999999106,184955.281,187788.501,8,400,35,,ISIC_9912475.JPG
break,html.Screen,4_34_1,2023-10-31T16:56:37.399Z,,0,,,NaN,,,,,,false,,,,187776.29999999702,187776.09999999404,,187775.59999999404,,187788.501,8,400,,,
break_continue,html.Screen,4_34_2,2023-10-31T16:56:37.399Z,,0,,,NaN,,,,,,false,,,,187776.59999999404,187776.5,,187776.29999999702,,187788.501,8,400,,,
sequence,flow.Sequence,4_34,2023-10-31T16:56:37.400Z,,0,,,2821.219000000012,completion,,,,,false,,,,187776.79999999702,187776.5,184938.615,184954.29999999702,184955.281,187788.501,8,400,,,
trial,html.Screen,4_35_0,2023-10-31T16:56:40.636Z,,0,1,,3224.89899999107,response,ISIC_0060233.JPG,7,ISIC_0010319.JPG,ISIC_0060233.JPG,false,1,keypress(m),500,191013.79999999702,191013.39999999106,187771.835,187776.89999999106,187788.501,191022.535,8,400,36,,ISIC_0010319.JPG
break,html.Screen,4_35_1,2023-10-31T16:56:40.637Z,,0,,,NaN,,,,,,false,,,,191014.79999999702,191014.59999999404,,191014.09999999404,,191022.535,8,400,,,
break_continue,html.Screen,4_35_2,2023-10-31T16:56:40.638Z,,0,,,NaN,,,,,,false,,,,191015.09999999404,191015,,191014.89999999106,,191022.535,8,400,,,
sequence,flow.Sequence,4_35,2023-10-31T16:56:40.638Z,,0,,,3226.4990000000107,completion,,,,,false,,,,191015.29999999702,191015,187771.835,187776.89999999106,187788.501,191022.535,8,400,,,
trial,html.Screen,4_36_0,2023-10-31T16:56:43.624Z,,0,1,,2977.9649999999965,response,ISIC_8765068.JPG,8,ISIC_4398011.JPG,ISIC_4398011.JPG,false,0,keypress(z),500,194001,194000.5,191005.869,191015.5,191022.535,194005.749,8,400,37,,ISIC_8765068.JPG
break,html.Screen,4_36_1,2023-10-31T16:56:43.625Z,,0,,,NaN,,,,,,false,,,,194002,194001.79999999702,,194001.29999999702,,194005.749,8,400,,,
break_continue,html.Screen,4_36_2,2023-10-31T16:56:43.625Z,,0,,,NaN,,,,,,false,,,,194002.29999999702,194002.19999998808,,194002.09999999404,,194005.749,8,400,,,
sequence,flow.Sequence,4_36,2023-10-31T16:56:43.625Z,,0,,,2979.6649999880756,completion,,,,,false,,,,194002.5,194002.19999998808,191005.869,191015.5,191022.535,194005.749,8,400,,,
trial,html.Screen,4_37_0,2023-10-31T16:56:46.474Z,,0,1,,2845.350999994029,response,ISIC_7507286.JPG,8,ISIC_0033479.JPG,ISIC_7507286.JPG,false,1,keypress(m),500,196851.59999999404,196851.09999999404,193989.083,194002.69999998808,194005.749,196855.635,8,400,38,,ISIC_0033479.JPG
break,html.Screen,4_37_1,2023-10-31T16:56:46.475Z,,0,,,NaN,,,,,,false,,,,196852.59999999404,196852.39999999106,,196851.89999999106,,196855.635,8,400,,,
break_continue,html.Screen,4_37_2,2023-10-31T16:56:46.475Z,,0,,,NaN,,,,,,false,,,,196852.89999999106,196852.79999999702,,196852.69999998808,,196855.635,8,400,,,
sequence,flow.Sequence,4_37,2023-10-31T16:56:46.476Z,,0,,,2847.050999997009,completion,,,,,false,,,,196853.09999999404,196852.79999999702,193989.083,194002.59999999404,194005.749,196855.635,8,400,,,
trial,html.Screen,4_38_0,2023-10-31T16:56:49.711Z,,0,1,,3232.3649999999907,response,ISIC_0026258.JPG,7,ISIC_5960641.JPG,ISIC_5960641.JPG,false,0,keypress(z),500,200088.5,200088,196838.969,196853.19999998808,196855.635,200089.691,8,400,39,,ISIC_0026258.JPG
break,html.Screen,4_38_1,2023-10-31T16:56:49.712Z,,0,,,NaN,,,,,,false,,,,200089.5,200089.39999999106,,200088.89999999106,,200089.691,8,400,,,
break_continue,html.Screen,4_38_2,2023-10-31T16:56:49.712Z,,0,,,NaN,,,,,,false,,,,200089.89999999106,200089.69999998808,,200089.59999999404,,200089.691,8,400,,,
sequence,flow.Sequence,4_38,2023-10-31T16:56:49.712Z,,0,,,3234.0649999880698,completion,,,,,false,,,,200090,200089.69999998808,196838.969,196853.19999998808,196855.635,200089.691,8,400,,,
trial,html.Screen,4_39_0,2023-10-31T16:56:52.425Z,,0,1,,2712.2089999910677,response,ISIC_0033464.JPG,6,ISIC_0031397.JPG,ISIC_0031397.JPG,false,0,keypress(z),500,202802.39999999106,202801.89999999106,200073.025,200090.19999998808,200089.691,202806.249,8,400,40,,ISIC_0033464.JPG
break,html.Screen,4_39_1,2023-10-31T16:56:52.426Z,,0,,,NaN,,,,,,false,,,,202803.39999999106,202803.19999998808,,202802.69999998808,,202806.249,8,400,,,
break_continue,html.Screen,4_39_2,2023-10-31T16:56:52.426Z,,0,,,NaN,,,,,,false,,,,202803.79999999702,202803.69999998808,,202803.5,,202806.249,8,400,,,
sequence,flow.Sequence,4_39,2023-10-31T16:56:52.426Z,,0,,,2714.0089999880875,completion,,,,,false,,,,202804,202803.69999998808,200073.025,200090.09999999404,200089.691,202806.249,8,400,,,
trial,html.Screen,4_40_0,2023-10-31T16:56:55.744Z,,0,1,,3314.9509999880684,response,ISIC_2935987.JPG,5,ISIC_0071647.JPG,ISIC_0071647.JPG,false,0,keypress(z),500,206121.69999998808,206121.19999998808,202789.583,202804.09999999404,202806.249,206122.783,8,400,41,,ISIC_2935987.JPG
break,html.Screen,4_40_1,2023-10-31T16:56:55.745Z,,0,,,NaN,,,,,,false,,,,206122.79999999702,206122.59999999404,,206122,,206122.783,8,400,,,
break_continue,html.Screen,4_40_2,2023-10-31T16:56:55.745Z,,0,,,NaN,,,,,,false,,,,206123.09999999404,206122.89999999106,,206122.79999999702,,206122.783,8,400,,,
sequence,flow.Sequence,4_40,2023-10-31T16:56:55.745Z,,0,,,3316.6509999910486,completion,,,,,false,,,,206123.29999999702,206122.89999999106,202789.583,202804.09999999404,202806.249,206122.783,8,400,,,
trial,html.Screen,4_41_0,2023-10-31T16:56:59.683Z,,0,1,,3938.3169999940437,response,ISIC_0071132.JPG,8,ISIC_0030922.JPG,ISIC_0030922.JPG,false,0,keypress(z),500,210061.59999999404,210061.09999999404,206106.117,206123.29999999702,206122.783,210073.413,8,400,42,,ISIC_0071132.JPG
break,html.Screen,4_41_1,2023-10-31T16:56:59.684Z,,0,,,NaN,,,,,,false,,,,210062.59999999404,210062.39999999106,,210061.89999999106,,210073.413,8,400,,,
break_continue,html.Screen,4_41_2,2023-10-31T16:56:59.685Z,,0,,,NaN,,,,,,false,,,,210062.89999999106,210062.79999999702,,210062.69999998808,,210073.413,8,400,,,
sequence,flow.Sequence,4_41,2023-10-31T16:56:59.685Z,,0,,,3940.016999997024,completion,,,,,false,,,,210063.09999999404,210062.79999999702,206106.117,206123.29999999702,206122.783,210073.413,8,400,,,
trial,html.Screen,4_42_0,2023-10-31T16:57:02.879Z,,0,1,,3183.5869999999995,response,ISIC_0033856.JPG,8,ISIC_3637551.JPG,ISIC_0033856.JPG,false,1,keypress(m),500,213257.5,213257,210056.747,210063.29999999702,210073.413,213273.285,8,400,43,,ISIC_3637551.JPG
break,html.Screen,4_42_1,2023-10-31T16:57:02.880Z,,0,,,NaN,,,,,,false,,,,213258.5,213258.39999999106,,213257.79999999702,,213273.285,8,400,,,
break_continue,html.Screen,4_42_2,2023-10-31T16:57:02.881Z,,0,,,NaN,,,,,,false,,,,213258.89999999106,213258.79999999702,,213258.59999999404,,213273.285,8,400,,,
sequence,flow.Sequence,4_42,2023-10-31T16:57:02.881Z,,0,,,3185.3869999970193,completion,,,,,false,,,,213259,213258.79999999702,210056.747,210063.19999998808,210073.413,213273.285,8,400,,,
trial,html.Screen,4_43_0,2023-10-31T16:57:05.728Z,,0,1,,2832.814999994036,response,ISIC_9023152.JPG,7,ISIC_8033373.JPG,ISIC_8033373.JPG,false,0,keypress(z),500,216106.5,216106.09999999404,213256.619,213259.19999998808,213273.285,216123.171,8,400,44,,ISIC_9023152.JPG
break,html.Screen,4_43_1,2023-10-31T16:57:05.729Z,,0,,,NaN,,,,,,false,,,,216107.39999999106,216107.19999998808,,216106.79999999702,,216123.171,8,400,,,
break_continue,html.Screen,4_43_2,2023-10-31T16:57:05.729Z,,0,,,NaN,,,,,,false,,,,216107.79999999702,216107.69999998808,,216107.5,,216123.171,8,400,,,
sequence,flow.Sequence,4_43,2023-10-31T16:57:05.730Z,,0,,,2834.4149999880756,completion,,,,,false,,,,216108,216107.69999998808,213256.619,213259.19999998808,213273.285,216123.171,8,400,,,
trial,html.Screen,4_44_0,2023-10-31T16:57:08.743Z,,0,1,,2997.9289999940374,response,ISIC_0028579.JPG,8,ISIC_2946577.JPG,ISIC_0028579.JPG,false,1,keypress(m),500,219121.59999999404,219121.09999999404,216106.505,216108.09999999404,216123.171,219123.051,8,400,45,,ISIC_2946577.JPG
break,html.Screen,4_44_1,2023-10-31T16:57:08.744Z,,0,,,NaN,,,,,,false,,,,219122.5,219122.39999999106,,219121.79999999702,,219123.051,8,400,,,
break_continue,html.Screen,4_44_2,2023-10-31T16:57:08.744Z,,0,,,NaN,,,,,,false,,,,219122.89999999106,219122.79999999702,,219122.59999999404,,219123.051,8,400,,,
sequence,flow.Sequence,4_44,2023-10-31T16:57:08.745Z,,0,,,2999.6289999970177,completion,,,,,false,,,,219123.09999999404,219122.79999999702,216106.505,216108.09999999404,216123.171,219123.051,8,400,,,
trial,html.Screen,4_45_0,2023-10-31T16:57:11.675Z,,0,1,,2929.8489999910526,response,ISIC_0064557.JPG,5,ISIC_5327271.JPG,ISIC_0064557.JPG,false,1,keypress(m),500,222053.29999999702,222052.89999999106,219106.385,219123.29999999702,219123.051,222057.025,8,400,46,,ISIC_5327271.JPG
break,html.Screen,4_45_1,2023-10-31T16:57:11.676Z,,0,,,NaN,,,,,,false,,,,222054.29999999702,222054.09999999404,,222053.59999999404,,222057.025,8,400,,,
break_continue,html.Screen,4_45_2,2023-10-31T16:57:11.676Z,,0,,,NaN,,,,,,false,,,,222054.59999999404,222054.5,,222054.39999999106,,222057.025,8,400,,,
sequence,flow.Sequence,4_45,2023-10-31T16:57:11.676Z,,0,,,2931.4489999999932,completion,,,,,false,,,,222054.79999999702,222054.5,219106.385,219123.29999999702,219123.051,222057.025,8,400,,,
trial,html.Screen,4_46_0,2023-10-31T16:57:14.584Z,,0,1,,2904.674999988085,response,ISIC_0056655.JPG,7,ISIC_4363398.JPG,ISIC_0056655.JPG,false,1,keypress(m),500,224962.19999998808,224961.69999998808,222040.359,222055,222057.025,224973.575,8,400,47,,ISIC_4363398.JPG
break,html.Screen,4_46_1,2023-10-31T16:57:14.585Z,,0,,,NaN,,,,,,false,,,,224963.19999998808,224963,,224962.5,,224973.575,8,400,,,
break_continue,html.Screen,4_46_2,2023-10-31T16:57:14.585Z,,0,,,NaN,,,,,,false,,,,224963.59999999404,224963.5,,224963.39999999106,,224973.575,8,400,,,
sequence,flow.Sequence,4_46,2023-10-31T16:57:14.585Z,,0,,,2906.475000000006,completion,,,,,false,,,,224963.69999998808,224963.5,222040.359,222055,222057.025,224973.575,8,400,,,
trial,html.Screen,4_47_0,2023-10-31T16:57:17.768Z,,0,1,,3172.8249999910477,response,ISIC_4634128.JPG,5,ISIC_8147542.JPG,ISIC_4634128.JPG,false,1,keypress(m),500,228146.79999999702,228146.39999999106,224956.909,224963.89999999106,224973.575,228156.781,8,400,48,,ISIC_8147542.JPG
break,html.Screen,4_47_1,2023-10-31T16:57:17.769Z,,0,,,NaN,,,,,,false,,,,228147.89999999106,228147.69999998808,,228147.19999998808,,228156.781,8,400,,,
break_continue,html.Screen,4_47_2,2023-10-31T16:57:17.769Z,,0,,,NaN,,,,,,false,,,,228148.29999999702,228148.09999999404,,228148,,228156.781,8,400,,,
sequence,flow.Sequence,4_47,2023-10-31T16:57:17.770Z,,0,,,3174.524999994028,completion,,,,,false,,,,228148.39999999106,228148.09999999404,224956.909,224963.89999999106,224973.575,228156.781,8,400,,,
trial,html.Screen,4_48_0,2023-10-31T16:57:20.908Z,,0,1,,3130.118999991071,response,ISIC_0033485.JPG,7,ISIC_9625295.JPG,ISIC_9625295.JPG,false,0,keypress(z),500,231287.39999999106,231286.89999999106,228140.115,228148.59999999404,228156.781,231290.822,8,400,49,,ISIC_0033485.JPG
break,html.Screen,4_48_1,2023-10-31T16:57:20.910Z,,0,,,NaN,,,,,,false,,,,231288.39999999106,231288.29999999702,,231287.69999998808,,231290.822,8,400,,,
break_continue,html.Screen,4_48_2,2023-10-31T16:57:20.910Z,,0,,,NaN,,,,,,false,,,,231288.89999999106,231288.79999999702,,231288.59999999404,,231290.822,8,400,,,
sequence,flow.Sequence,4_48,2023-10-31T16:57:20.910Z,,0,,,3132.0189999970316,completion,,,,,false,,,,231289.09999999404,231288.79999999702,228140.115,228148.5,228156.781,231290.822,8,400,,,
trial,html.Screen,4_49_0,2023-10-31T16:57:23.584Z,,0,1,,2671.977999997034,response,ISIC_9207137.JPG,5,ISIC_2294790.JPG,ISIC_9207137.JPG,false,1,keypress(m),500,233963.39999999106,233962.79999999702,231274.156,231289.19999998808,231290.822,233974.048,8,400,50,,ISIC_2294790.JPG
break,html.Screen,4_49_1,2023-10-31T16:57:33.580Z,,0,,,10000.481999999989,timeout,,,,,false,,,,243959.59999999404,243957.864,233957.382,233963.79999999702,233974.048,243974.53,8,400,,,
break_continue,html.Screen,4_49_2,2023-10-31T16:57:35.979Z,,0,,,2370.8699999910605,response,,,,,false,continue,keypress(Space),,246358.29999999702,246345.39999999106,243957.864,243959.69999998808,243974.53,246374.434,8,400,,,
sequence,flow.Sequence,4_49,2023-10-31T16:57:35.979Z,,0,,,15054.577999991074,completion,,,,,false,,,,246358.5,246345.39999999106,231274.156,231289.19999998808,231290.822,246374.434,8,400,,,
trial,html.Screen,4_50_0,2023-10-31T16:57:39.536Z,,0,2,,3540.8659999970114,response,ISIC_0013702.JPG,8,ISIC_0057009.JPG,ISIC_0057009.JPG,false,0,keypress(z),500,249915.79999999702,249915.29999999702,246357.768,246358.79999999702,246374.434,249924.292,8,400,1,,ISIC_0013702.JPG
break,html.Screen,4_50_1,2023-10-31T16:57:39.537Z,,0,,,NaN,,,,,,false,,,,249916.79999999702,249916.59999999404,,249916.09999999404,,249924.292,8,400,,,
break_continue,html.Screen,4_50_2,2023-10-31T16:57:39.538Z,,0,,,NaN,,,,,,false,,,,249917.19999998808,249917.09999999404,,249916.89999999106,,249924.292,8,400,,,
sequence,flow.Sequence,4_50,2023-10-31T16:57:39.538Z,,0,,,3542.665999994031,completion,,,,,false,,,,249917.39999999106,249917.09999999404,246357.768,246358.69999998808,246374.434,249924.292,8,400,,,
trial,html.Screen,4_51_0,2023-10-31T16:57:42.687Z,,0,2,,3142.307999994053,response,ISIC_7550510.JPG,8,ISIC_0058040.JPG,ISIC_0058040.JPG,false,0,keypress(z),500,253067.09999999404,253066.59999999404,249907.626,249917.5,249924.292,253074.964,8,400,2,,ISIC_7550510.JPG
break,html.Screen,4_51_1,2023-10-31T16:57:42.688Z,,0,,,NaN,,,,,,false,,,,253068.09999999404,253067.89999999106,,253067.39999999106,,253074.964,8,400,,,
break_continue,html.Screen,4_51_2,2023-10-31T16:57:42.689Z,,0,,,NaN,,,,,,false,,,,253068.5,253068.39999999106,,253068.19999998808,,253074.964,8,400,,,
sequence,flow.Sequence,4_51,2023-10-31T16:57:42.689Z,,0,,,3144.1079999910726,completion,,,,,false,,,,253068.69999998808,253068.39999999106,249907.626,249917.5,249924.292,253074.964,8,400,,,
trial,html.Screen,4_52_0,2023-10-31T16:57:46.132Z,,0,2,,3436.6359999940323,response,ISIC_7883190.JPG,9,ISIC_0053760.JPG,ISIC_0053760.JPG,false,0,keypress(z),500,256512,256511.59999999404,253058.298,253068.89999999106,253074.964,256524.826,8,400,3,,ISIC_7883190.JPG
break,html.Screen,4_52_1,2023-10-31T16:57:46.133Z,,0,,,NaN,,,,,,false,,,,256513,256512.79999999702,,256512.39999999106,,256524.826,8,400,,,
break_continue,html.Screen,4_52_2,2023-10-31T16:57:46.133Z,,0,,,NaN,,,,,,false,,,,256513.39999999106,256513.29999999702,,256513.19999998808,,256524.826,8,400,,,
sequence,flow.Sequence,4_52,2023-10-31T16:57:46.134Z,,0,,,3438.3359999970126,completion,,,,,false,,,,256513.69999998808,256513.29999999702,253058.298,253068.79999999702,253074.964,256524.826,8,400,,,
trial,html.Screen,4_53_0,2023-10-31T16:57:49.092Z,,0,2,,2947.5739999910584,response,ISIC_2502558.JPG,8,ISIC_0192490.JPG,ISIC_2502558.JPG,false,1,keypress(m),500,259472.5,259472.39999999106,256508.16,256513.79999999702,256524.826,259474.708,8,400,4,,ISIC_0192490.JPG
break,html.Screen,4_53_1,2023-10-31T16:57:49.093Z,,0,,,NaN,,,,,,false,,,,259473.09999999404,259473,,259472.69999998808,,259474.708,8,400,,,
break_continue,html.Screen,4_53_2,2023-10-31T16:57:49.093Z,,0,,,NaN,,,,,,false,,,,259473.29999999702,259473.19999998808,,259473.19999998808,,259474.708,8,400,,,
sequence,flow.Sequence,4_53,2023-10-31T16:57:49.093Z,,0,,,2948.373999988078,completion,,,,,false,,,,259473.29999999702,259473.19999998808,256508.16,256513.79999999702,256524.826,259474.708,8,400,,,
trial,html.Screen,4_54_0,2023-10-31T16:57:52.024Z,,0,2,,2928.8919999940263,response,ISIC_0588855.JPG,6,ISIC_2202486.JPG,ISIC_0588855.JPG,false,1,keypress(m),500,262404.09999999404,262403.59999999404,259458.042,259473.5,259474.708,262408.679,8,400,5,,ISIC_2202486.JPG
break,html.Screen,4_54_1,2023-10-31T16:57:52.025Z,,0,,,NaN,,,,,,false,,,,262405.09999999404,262404.89999999106,,262404.39999999106,,262408.679,8,400,,,
break_continue,html.Screen,4_54_2,2023-10-31T16:57:52.025Z,,0,,,NaN,,,,,,false,,,,262405.39999999106,262405.299999997,,262405.09999999404,,262408.679,8,400,,,
sequence,flow.Sequence,4_54,2023-10-31T16:57:52.025Z,,0,,,2930.5919999970065,completion,,,,,false,,,,262405.59999999404,262405.299999997,259458.042,259473.5,259474.708,262408.679,8,400,,,
trial,html.Screen,4_55_0,2023-10-31T16:57:55.167Z,,0,2,,3138.3209999999963,response,ISIC_8292179.JPG,6,ISIC_0027061.JPG,ISIC_8292179.JPG,false,1,keypress(m),500,265547.299999997,265547,262392.013,262406.6999999881,262408.679,265558.553,8,400,6,,ISIC_0027061.JPG
break,html.Screen,4_55_1,2023-10-31T16:57:55.168Z,,0,,,NaN,,,,,,false,,,,265548.5,265548.299999997,,265547.6999999881,,265558.553,8,400,,,
break_continue,html.Screen,4_55_2,2023-10-31T16:57:55.169Z,,0,,,NaN,,,,,,false,,,,265548.799999997,265548.6999999881,,265548.6999999881,,265558.553,8,400,,,
sequence,flow.Sequence,4_55,2023-10-31T16:57:55.169Z,,0,,,3140.0209999880753,completion,,,,,false,,,,265549,265548.6999999881,262392.013,262406.59999999404,262408.679,265558.553,8,400,,,
trial,html.Screen,4_56_0,2023-10-31T16:57:58.365Z,,0,2,,3186.6469999880646,response,ISIC_0063753.JPG,8,ISIC_2739547.JPG,ISIC_0063753.JPG,false,1,keypress(m),500,268745.59999999404,268745.1999999881,265541.887,265549.1999999881,265558.553,268758.425,8,400,7,,ISIC_2739547.JPG
break,html.Screen,4_56_1,2023-10-31T16:57:58.366Z,,0,,,NaN,,,,,,false,,,,268746.59999999404,268746.39999999106,,268745.89999999106,,268758.425,8,400,,,
break_continue,html.Screen,4_56_2,2023-10-31T16:57:58.367Z,,0,,,NaN,,,,,,false,,,,268746.89999999106,268746.799999997,,268746.6999999881,,268758.425,8,400,,,
sequence,flow.Sequence,4_56,2023-10-31T16:57:58.367Z,,0,,,3188.2469999970053,completion,,,,,false,,,,268747.09999999404,268746.799999997,265541.887,265549.09999999404,265558.553,268758.425,8,400,,,
trial,html.Screen,4_57_0,2023-10-31T16:58:02.084Z,,0,2,,3705.3749999970314,response,ISIC_0006672.JPG,8,ISIC_0032171.JPG,ISIC_0032171.JPG,false,0,keypress(z),500,272464.299999997,272463.799999997,268741.759,268747.1999999881,268758.425,272475.728,8,400,8,,ISIC_0006672.JPG
break,html.Screen,4_57_1,2023-10-31T16:58:02.085Z,,0,,,NaN,,,,,,false,,,,272465.299999997,272465.09999999404,,272464.59999999404,,272475.728,8,400,,,
break_continue,html.Screen,4_57_2,2023-10-31T16:58:02.085Z,,0,,,NaN,,,,,,false,,,,272465.6999999881,272465.5,,272465.5,,272475.728,8,400,,,
sequence,flow.Sequence,4_57,2023-10-31T16:58:02.085Z,,0,,,3707.0750000000116,completion,,,,,false,,,,272465.6999999881,272465.5,268741.759,268747.1999999881,268758.425,272475.728,8,400,,,
trial,html.Screen,4_58_0,2023-10-31T16:58:04.871Z,,0,2,,2775.571999997017,response,ISIC_0069591.JPG,7,ISIC_1519891.JPG,ISIC_0069591.JPG,false,1,keypress(m),500,275251.799999997,275251.299999997,272459.062,272465.89999999106,272475.728,275258.95,8,400,9,,ISIC_1519891.JPG
break,html.Screen,4_58_1,2023-10-31T16:58:04.872Z,,0,,,NaN,,,,,,false,,,,275252.799999997,275252.59999999404,,275252.09999999404,,275258.95,8,400,,,
break_continue,html.Screen,4_58_2,2023-10-31T16:58:04.872Z,,0,,,NaN,,,,,,false,,,,275253.1999999881,275253.09999999404,,275252.89999999106,,275258.95,8,400,,,
sequence,flow.Sequence,4_58,2023-10-31T16:58:04.873Z,,0,,,2777.3719999940367,completion,,,,,false,,,,275253.299999997,275253.09999999404,272459.062,272465.89999999106,272475.728,275258.95,8,400,,,
trial,html.Screen,4_59_0,2023-10-31T16:58:08.206Z,,0,2,,3327.5499999999884,response,ISIC_0026266.JPG,6,ISIC_2987677.JPG,ISIC_0026266.JPG,false,1,keypress(m),500,278587,278586.5,275242.284,275253.5,275258.95,278592.15,8,400,10,,ISIC_2987677.JPG
break,html.Screen,4_59_1,2023-10-31T16:58:08.207Z,,0,,,NaN,,,,,,false,,,,278588.09999999404,278587.89999999106,,278587.299999997,,278592.15,8,400,,,
break_continue,html.Screen,4_59_2,2023-10-31T16:58:08.208Z,,0,,,NaN,,,,,,false,,,,278588.39999999106,278588.299999997,,278588.1999999881,,278592.15,8,400,,,
sequence,flow.Sequence,4_59,2023-10-31T16:58:08.208Z,,0,,,3329.349999997008,completion,,,,,false,,,,278588.59999999404,278588.299999997,275242.284,275253.39999999106,275258.95,278592.15,8,400,,,
trial,html.Screen,4_60_0,2023-10-31T16:58:11.043Z,,0,2,,2831.1499999969965,response,ISIC_2139752.JPG,6,ISIC_2619533.JPG,ISIC_2139752.JPG,false,1,keypress(m),500,281423.89999999106,281423.299999997,278575.484,278588.799999997,278592.15,281425.37,8,400,11,,ISIC_2619533.JPG
break,html.Screen,4_60_1,2023-10-31T16:58:11.044Z,,0,,,NaN,,,,,,false,,,,281424.89999999106,281424.6999999881,,281424.1999999881,,281425.37,8,400,,,
break_continue,html.Screen,4_60_2,2023-10-31T16:58:11.044Z,,0,,,NaN,,,,,,false,,,,281425.1999999881,281425.09999999404,,281425,,281425.37,8,400,,,
sequence,flow.Sequence,4_60,2023-10-31T16:58:11.045Z,,0,,,2832.9499999940163,completion,,,,,false,,,,281425.5,281425.09999999404,278575.484,278588.799999997,278592.15,281425.37,8,400,,,
trial,html.Screen,4_61_0,2023-10-31T16:58:15.258Z,,0,2,,4213.329999988084,response,ISIC_0070009.JPG,9,ISIC_0054728.JPG,ISIC_0070009.JPG,false,1,keypress(m),500,285639.299999997,285638.6999999881,281408.704,281425.59999999404,281425.37,285642.74,8,400,12,,ISIC_0054728.JPG
break,html.Screen,4_61_1,2023-10-31T16:58:15.259Z,,0,,,NaN,,,,,,false,,,,285640.5,285640.1999999881,,285639.59999999404,,285642.74,8,400,,,
break_continue,html.Screen,4_61_2,2023-10-31T16:58:15.260Z,,0,,,NaN,,,,,,false,,,,285640.799999997,285640.6999999881,,285640.59999999404,,285642.74,8,400,,,
sequence,flow.Sequence,4_61,2023-10-31T16:58:15.260Z,,0,,,4215.329999988084,completion,,,,,false,,,,285640.89999999106,285640.6999999881,281408.704,281425.5,281425.37,285642.74,8,400,,,
trial,html.Screen,4_62_0,2023-10-31T16:58:18.129Z,,0,2,,2866.7600000000093,response,ISIC_0054963.JPG,5,ISIC_0029562.JPG,ISIC_0054963.JPG,false,1,keypress(m),500,288510,288509.5,285626.074,285641.1999999881,285642.74,288525.958,8,400,13,,ISIC_0029562.JPG
break,html.Screen,4_62_1,2023-10-31T16:58:18.130Z,,0,,,NaN,,,,,,false,,,,288510.89999999106,288510.6999999881,,288510.299999997,,288525.958,8,400,,,
break_continue,html.Screen,4_62_2,2023-10-31T16:58:18.130Z,,0,,,NaN,,,,,,false,,,,288511.299999997,288511.1999999881,,288511.09999999404,,288525.958,8,400,,,
sequence,flow.Sequence,4_62,2023-10-31T16:58:18.130Z,,0,,,2868.4599999880884,completion,,,,,false,,,,288511.39999999106,288511.1999999881,285626.074,285641.09999999404,285642.74,288525.958,8,400,,,
trial,html.Screen,4_63_0,2023-10-31T16:58:22.136Z,,0,2,,3991.3419999970356,response,ISIC_0010757.JPG,8,ISIC_0011488.JPG,ISIC_0011488.JPG,false,0,keypress(z),500,292517.6999999881,292517.299999997,288509.292,288511.59999999404,288525.958,292525.798,8,400,14,,ISIC_0010757.JPG
break,html.Screen,4_63_1,2023-10-31T16:58:22.137Z,,0,,,NaN,,,,,,false,,,,292518.6999999881,292518.5,,292518,,292525.798,8,400,,,
break_continue,html.Screen,4_63_2,2023-10-31T16:58:22.138Z,,0,,,NaN,,,,,,false,,,,292519.09999999404,292518.89999999106,,292518.799999997,,292525.798,8,400,,,
sequence,flow.Sequence,4_63,2023-10-31T16:58:22.138Z,,0,,,3992.941999991075,completion,,,,,false,,,,292519.1999999881,292518.89999999106,288509.292,288511.5,288525.958,292525.798,8,400,,,
trial,html.Screen,4_64_0,2023-10-31T16:58:25.183Z,,0,2,,3038.00199999701,response,ISIC_0024280.JPG,6,ISIC_7452410.JPG,ISIC_0024280.JPG,false,1,keypress(m),500,295564.299999997,295563.799999997,292509.132,292519.299999997,292525.798,295593.176,8,400,15,,ISIC_7452410.JPG
break,html.Screen,4_64_1,2023-10-31T16:58:25.184Z,,0,,,NaN,,,,,,false,,,,295565.299999997,295565.09999999404,,295564.59999999404,,295593.176,8,400,,,
break_continue,html.Screen,4_64_2,2023-10-31T16:58:25.184Z,,0,,,NaN,,,,,,false,,,,295565.59999999404,295565.5,,295565.39999999106,,295593.176,8,400,,,
sequence,flow.Sequence,4_64,2023-10-31T16:58:25.184Z,,0,,,3039.70199999999,completion,,,,,false,,,,295565.799999997,295565.5,292509.132,292519.299999997,292525.798,295593.176,8,400,,,
trial,html.Screen,4_65_0,2023-10-31T16:58:28.583Z,,0,2,,3370.623999997042,response,ISIC_4596803.JPG,8,ISIC_0429825.JPG,ISIC_0429825.JPG,false,0,keypress(z),500,298964.1999999881,298963.799999997,295576.51,295566,295593.176,298976.374,8,400,16,,ISIC_4596803.JPG
break,html.Screen,4_65_1,2023-10-31T16:58:28.584Z,,0,,,NaN,,,,,,false,,,,298965.299999997,298965.09999999404,,298964.59999999404,,298976.374,8,400,,,
break_continue,html.Screen,4_65_2,2023-10-31T16:58:28.584Z,,0,,,NaN,,,,,,false,,,,298965.59999999404,298965.5,,298965.39999999106,,298976.374,8,400,,,
sequence,flow.Sequence,4_65,2023-10-31T16:58:28.584Z,,0,,,3372.3240000000224,completion,,,,,false,,,,298965.6999999881,298965.5,295576.51,295565.89999999106,295593.176,298976.374,8,400,,,
trial,html.Screen,4_66_0,2023-10-31T16:58:31.765Z,,0,2,,3169.925999997009,response,ISIC_9061511.JPG,7,ISIC_8993666.JPG,ISIC_9061511.JPG,false,1,keypress(m),500,302146.799999997,302146.299999997,298959.708,298965.89999999106,298976.374,302159.58,8,400,17,,ISIC_8993666.JPG
break,html.Screen,4_66_1,2023-10-31T16:58:31.766Z,,0,,,NaN,,,,,,false,,,,302147.6999999881,302147.5,,302147,,302159.58,8,400,,,
break_continue,html.Screen,4_66_2,2023-10-31T16:58:31.766Z,,0,,,NaN,,,,,,false,,,,302148.09999999404,302148,,302147.799999997,,302159.58,8,400,,,
sequence,flow.Sequence,4_66,2023-10-31T16:58:31.766Z,,0,,,3171.6259999999893,completion,,,,,false,,,,302148.299999997,302148,298959.708,298965.89999999106,298976.374,302159.58,8,400,,,
trial,html.Screen,4_67_0,2023-10-31T16:58:34.956Z,,0,2,,3178.0199999940232,response,ISIC_1807276.JPG,9,ISIC_7570343.JPG,ISIC_1807276.JPG,false,1,keypress(m),500,305338.09999999404,305337.59999999404,302142.914,302148.39999999106,302159.58,305343.589,8,400,18,,ISIC_7570343.JPG
break,html.Screen,4_67_1,2023-10-31T16:58:34.957Z,,0,,,NaN,,,,,,false,,,,305339.09999999404,305338.89999999106,,305338.39999999106,,305343.589,8,400,,,
break_continue,html.Screen,4_67_2,2023-10-31T16:58:34.958Z,,0,,,NaN,,,,,,false,,,,305339.39999999106,305339.299999997,,305339.1999999881,,305343.589,8,400,,,
sequence,flow.Sequence,4_67,2023-10-31T16:58:34.958Z,,0,,,3179.7199999970035,completion,,,,,false,,,,305339.59999999404,305339.299999997,302142.914,302148.39999999106,302159.58,305343.589,8,400,,,
trial,html.Screen,4_68_0,2023-10-31T16:58:37.744Z,,0,2,,2782.2109999970417,response,ISIC_0014469.JPG,7,ISIC_8082460.JPG,ISIC_8082460.JPG,false,0,keypress(z),500,308126.1999999881,308125.799999997,305326.923,305339.799999997,305343.589,308143.477,8,400,19,,ISIC_0014469.JPG
break,html.Screen,4_68_1,2023-10-31T16:58:37.745Z,,0,,,NaN,,,,,,false,,,,308127.39999999106,308127.09999999404,,308126.59999999404,,308143.477,8,400,,,
break_continue,html.Screen,4_68_2,2023-10-31T16:58:37.746Z,,0,,,NaN,,,,,,false,,,,308127.799999997,308127.6999999881,,308127.5,,308143.477,8,400,,,
sequence,flow.Sequence,4_68,2023-10-31T16:58:37.746Z,,0,,,2784.110999988101,completion,,,,,false,,,,308128,308127.6999999881,305326.923,305339.799999997,305343.589,308143.477,8,400,,,
trial,html.Screen,4_69_0,2023-10-31T16:58:41.557Z,,0,2,,3795.3229999970063,response,ISIC_0012756.JPG,8,ISIC_5578611.JPG,ISIC_0012756.JPG,false,1,keypress(m),500,311939.39999999106,311938.799999997,308126.811,308128.1999999881,308143.477,311943.325,8,400,20,,ISIC_5578611.JPG
break,html.Screen,4_69_1,2023-10-31T16:58:41.558Z,,0,,,NaN,,,,,,false,,,,311940.39999999106,311940.1999999881,,311939.6999999881,,311943.325,8,400,,,
break_continue,html.Screen,4_69_2,2023-10-31T16:58:41.559Z,,0,,,NaN,,,,,,false,,,,311940.799999997,311940.59999999404,,311940.5,,311943.325,8,400,,,
sequence,flow.Sequence,4_69,2023-10-31T16:58:41.559Z,,0,,,3797.122999994026,completion,,,,,false,,,,311941,311940.59999999404,308126.811,308128.09999999404,308143.477,311943.325,8,400,,,
trial,html.Screen,4_70_0,2023-10-31T16:58:44.729Z,,0,2,,3167.5749999910477,response,ISIC_0011130.JPG,7,ISIC_0014133.JPG,ISIC_0011130.JPG,false,1,keypress(m),500,315111.5,315110.89999999106,311926.659,311941.09999999404,311943.325,315127.306,8,400,21,,ISIC_0014133.JPG
break,html.Screen,4_70_1,2023-10-31T16:58:44.730Z,,0,,,NaN,,,,,,false,,,,315112.39999999106,315112.1999999881,,315111.6999999881,,315127.306,8,400,,,
break_continue,html.Screen,4_70_2,2023-10-31T16:58:44.731Z,,0,,,NaN,,,,,,false,,,,315112.89999999106,315112.6999999881,,315112.59999999404,,315127.306,8,400,,,
sequence,flow.Sequence,4_70,2023-10-31T16:58:44.731Z,,0,,,3169.3749999880674,completion,,,,,false,,,,315112.89999999106,315112.6999999881,311926.659,311941,311943.325,315127.306,8,400,,,
trial,html.Screen,4_71_0,2023-10-31T16:58:47.901Z,,0,2,,3155.593999991077,response,ISIC_8483458.JPG,5,ISIC_1632696.JPG,ISIC_1632696.JPG,false,0,keypress(z),500,318283.39999999106,318282.89999999106,315110.64,315113.09999999404,315127.306,318293.846,8,400,22,,ISIC_8483458.JPG
break,html.Screen,4_71_1,2023-10-31T16:58:47.902Z,,0,,,NaN,,,,,,false,,,,318284.299999997,318284.09999999404,,318283.59999999404,,318293.846,8,400,,,
break_continue,html.Screen,4_71_2,2023-10-31T16:58:47.902Z,,0,,,NaN,,,,,,false,,,,318284.799999997,318284.59999999404,,318284.5,,318293.846,8,400,,,
sequence,flow.Sequence,4_71,2023-10-31T16:58:47.903Z,,0,,,3157.2939999940572,completion,,,,,false,,,,318285,318284.59999999404,315110.64,315113.09999999404,315127.306,318293.846,8,400,,,
trial,html.Screen,4_72_0,2023-10-31T16:58:51.140Z,,0,2,,3228.453999997,response,ISIC_0650126.JPG,7,ISIC_5581936.JPG,ISIC_0650126.JPG,false,1,keypress(m),500,321522.89999999106,321522.299999997,318277.18,318285.09999999404,318293.846,321527.05,8,400,23,,ISIC_5581936.JPG
break,html.Screen,4_72_1,2023-10-31T16:58:51.141Z,,0,,,NaN,,,,,,false,,,,321523.799999997,321523.6999999881,,321523.1999999881,,321527.05,8,400,,,
break_continue,html.Screen,4_72_2,2023-10-31T16:58:51.142Z,,0,,,NaN,,,,,,false,,,,321524.1999999881,321524.09999999404,,321524,,321527.05,8,400,,,
sequence,flow.Sequence,4_72,2023-10-31T16:58:51.142Z,,0,,,3230.25399999402,completion,,,,,false,,,,321524.39999999106,321524.09999999404,318277.18,318285.09999999404,318293.846,321527.05,8,400,,,
trial,html.Screen,4_73_0,2023-10-31T16:58:54.250Z,,0,2,,3104.7499999970314,response,ISIC_0000146.JPG,8,ISIC_0027069.JPG,ISIC_0000146.JPG,false,1,keypress(m),500,324632.299999997,324631.799999997,321510.384,321524.5,321527.05,324644.427,8,400,24,,ISIC_0027069.JPG
break,html.Screen,4_73_1,2023-10-31T16:58:54.251Z,,0,,,NaN,,,,,,false,,,,324633.299999997,324633.09999999404,,324632.5,,324644.427,8,400,,,
break_continue,html.Screen,4_73_2,2023-10-31T16:58:54.251Z,,0,,,NaN,,,,,,false,,,,324633.6999999881,324633.5,,324633.39999999106,,324644.427,8,400,,,
sequence,flow.Sequence,4_73,2023-10-31T16:58:54.251Z,,0,,,3106.4500000000116,completion,,,,,false,,,,324633.799999997,324633.5,321510.384,321524.5,321527.05,324644.427,8,400,,,
trial,html.Screen,4_74_0,2023-10-31T16:58:57.331Z,,0,2,,3068.6729999940144,response,ISIC_7491389.JPG,8,ISIC_0897248.JPG,ISIC_7491389.JPG,false,1,keypress(m),500,327713.59999999404,327713.09999999404,324627.761,324634,324644.427,327727.637,8,400,25,,ISIC_0897248.JPG
break,html.Screen,4_74_1,2023-10-31T16:58:57.332Z,,0,,,NaN,,,,,,false,,,,327714.5,327714.299999997,,327713.799999997,,327727.637,8,400,,,
break_continue,html.Screen,4_74_2,2023-10-31T16:58:57.332Z,,0,,,NaN,,,,,,false,,,,327714.799999997,327714.799999997,,327714.59999999404,,327727.637,8,400,,,
sequence,flow.Sequence,4_74,2023-10-31T16:58:57.332Z,,0,,,3070.3729999969946,completion,,,,,false,,,,327715,327714.799999997,324627.761,324633.89999999106,324644.427,327727.637,8,400,,,
trial,html.Screen,4_75_0,2023-10-31T16:59:00.373Z,,0,2,,3027.363000000012,response,ISIC_0070422.JPG,6,ISIC_0027696.JPG,ISIC_0070422.JPG,false,1,keypress(m),500,330755.39999999106,330755,327710.971,327715.09999999404,327727.637,330760.849,8,400,26,,ISIC_0027696.JPG
break,html.Screen,4_75_1,2023-10-31T16:59:00.374Z,,0,,,NaN,,,,,,false,,,,330756.5,330756.1999999881,,330755.6999999881,,330760.849,8,400,,,
break_continue,html.Screen,4_75_2,2023-10-31T16:59:00.374Z,,0,,,NaN,,,,,,false,,,,330756.89999999106,330756.6999999881,,330756.6999999881,,330760.849,8,400,,,
sequence,flow.Sequence,4_75,2023-10-31T16:59:00.374Z,,0,,,3029.062999988091,completion,,,,,false,,,,330757.09999999404,330756.6999999881,327710.971,327715.09999999404,327727.637,330760.849,8,400,,,
trial,html.Screen,4_76_0,2023-10-31T16:59:03.011Z,,0,2,,2632.8509999880916,response,ISIC_1351604.JPG,8,ISIC_9859873.JPG,ISIC_9859873.JPG,false,0,keypress(z),500,333393.89999999106,333393.6999999881,330744.183,330757.299999997,330760.849,333410.743,8,400,27,,ISIC_1351604.JPG
break,html.Screen,4_76_1,2023-10-31T16:59:03.011Z,,0,,,NaN,,,,,,false,,,,333394.299999997,333394.1999999881,,333394,,333410.743,8,400,,,
break_continue,html.Screen,4_76_2,2023-10-31T16:59:03.011Z,,0,,,NaN,,,,,,false,,,,333394.299999997,333394.299999997,,333394.299999997,,333410.743,8,400,,,
sequence,flow.Sequence,4_76,2023-10-31T16:59:03.011Z,,0,,,2633.4509999970323,completion,,,,,false,,,,333394.39999999106,333394.299999997,330744.183,330757.1999999881,330760.849,333410.743,8,400,,,
trial,html.Screen,4_77_0,2023-10-31T16:59:05.704Z,,0,2,,2675.4569999880623,response,ISIC_0062576.JPG,8,ISIC_2772066.JPG,ISIC_0062576.JPG,false,1,keypress(m),500,336086.799999997,336086.1999999881,333394.077,333394.39999999106,333410.743,336094.829,8,400,28,,ISIC_2772066.JPG
break,html.Screen,4_77_1,2023-10-31T16:59:05.705Z,,0,,,NaN,,,,,,false,,,,336087.6999999881,336087.5,,336087.09999999404,,336094.829,8,400,,,
break_continue,html.Screen,4_77_2,2023-10-31T16:59:05.705Z,,0,,,NaN,,,,,,false,,,,336088.299999997,336088.09999999404,,336088,,336094.829,8,400,,,
sequence,flow.Sequence,4_77,2023-10-31T16:59:05.705Z,,0,,,2677.3569999940228,completion,,,,,false,,,,336088.39999999106,336088.09999999404,333394.077,333394.39999999106,333410.743,336094.829,8,400,,,
trial,html.Screen,4_78_0,2023-10-31T16:59:08.638Z,,0,2,,2926.2709999940125,response,ISIC_9786863.JPG,7,ISIC_0003664.JPG,ISIC_9786863.JPG,false,1,keypress(m),500,339021.59999999404,339021.09999999404,336078.163,336088.59999999404,336094.829,339028.045,8,400,29,,ISIC_0003664.JPG
break,html.Screen,4_78_1,2023-10-31T16:59:08.639Z,,0,,,NaN,,,,,,false,,,,339022.5,339022.39999999106,,339021.799999997,,339028.045,8,400,,,
break_continue,html.Screen,4_78_2,2023-10-31T16:59:08.640Z,,0,,,NaN,,,,,,false,,,,339022.89999999106,339022.799999997,,339022.6999999881,,339028.045,8,400,,,
sequence,flow.Sequence,4_78,2023-10-31T16:59:08.640Z,,0,,,2927.9709999969928,completion,,,,,false,,,,339023.09999999404,339022.799999997,336078.163,336088.59999999404,336094.829,339028.045,8,400,,,
trial,html.Screen,4_79_0,2023-10-31T16:59:11.771Z,,0,2,,3126.054999994056,response,ISIC_0057089.JPG,6,ISIC_0010760.JPG,ISIC_0057089.JPG,false,1,keypress(m),500,342154.59999999404,342154.09999999404,339011.379,339023.299999997,339028.045,342161.253,8,400,30,,ISIC_0010760.JPG
break,html.Screen,4_79_1,2023-10-31T16:59:11.772Z,,0,,,NaN,,,,,,false,,,,342155.59999999404,342155.39999999106,,342154.89999999106,,342161.253,8,400,,,
break_continue,html.Screen,4_79_2,2023-10-31T16:59:11.773Z,,0,,,NaN,,,,,,false,,,,342155.89999999106,342155.799999997,,342155.6999999881,,342161.253,8,400,,,
sequence,flow.Sequence,4_79,2023-10-31T16:59:11.773Z,,0,,,3127.754999997036,completion,,,,,false,,,,342156,342155.799999997,339011.379,339023.1999999881,339028.045,342161.253,8,400,,,
trial,html.Screen,4_80_0,2023-10-31T16:59:14.459Z,,0,2,,2680.3469999940135,response,ISIC_0003910.JPG,7,ISIC_0054925.JPG,ISIC_0054925.JPG,false,0,keypress(z),500,344842.1999999881,344841.59999999404,342144.587,342156.299999997,342161.253,344845.291,8,400,31,,ISIC_0003910.JPG
break,html.Screen,4_80_1,2023-10-31T16:59:14.460Z,,0,,,NaN,,,,,,false,,,,344843.1999999881,344843.09999999404,,344842.5,,344845.291,8,400,,,
break_continue,html.Screen,4_80_2,2023-10-31T16:59:14.460Z,,0,,,NaN,,,,,,false,,,,344843.59999999404,344843.5,,344843.39999999106,,344845.291,8,400,,,
sequence,flow.Sequence,4_80,2023-10-31T16:59:14.460Z,,0,,,2682.246999999974,completion,,,,,false,,,,344843.799999997,344843.5,342144.587,342156.1999999881,342161.253,344845.291,8,400,,,
trial,html.Screen,4_81_0,2023-10-31T16:59:17.010Z,,0,2,,2547.308999994013,response,ISIC_0000072.JPG,8,ISIC_0027838.JPG,ISIC_0027838.JPG,false,0,keypress(z),500,347393.09999999404,347392.59999999404,344828.625,344844,344845.291,347395.189,8,400,32,,ISIC_0000072.JPG
break,html.Screen,4_81_1,2023-10-31T16:59:17.010Z,,0,,,NaN,,,,,,false,,,,347394,347393.89999999106,,347393.39999999106,,347395.189,8,400,,,
break_continue,html.Screen,4_81_2,2023-10-31T16:59:17.011Z,,0,,,NaN,,,,,,false,,,,347394.39999999106,347394.299999997,,347394.1999999881,,347395.189,8,400,,,
sequence,flow.Sequence,4_81,2023-10-31T16:59:17.011Z,,0,,,2549.008999996993,completion,,,,,false,,,,347394.59999999404,347394.299999997,344828.625,344843.89999999106,344845.291,347395.189,8,400,,,
trial,html.Screen,4_82_0,2023-10-31T16:59:20.371Z,,0,2,,3358.810999999987,response,ISIC_0061803.JPG,4,ISIC_0032001.JPG,ISIC_0061803.JPG,false,1,keypress(m),500,350754.5,350754,347378.523,347394.6999999881,347395.189,350761.721,8,400,33,,ISIC_0032001.JPG
break,html.Screen,4_82_1,2023-10-31T16:59:20.372Z,,0,,,NaN,,,,,,false,,,,350755.5,350755.299999997,,350754.799999997,,350761.721,8,400,,,
break_continue,html.Screen,4_82_2,2023-10-31T16:59:20.372Z,,0,,,NaN,,,,,,false,,,,350755.799999997,350755.6999999881,,350755.59999999404,,350761.721,8,400,,,
sequence,flow.Sequence,4_82,2023-10-31T16:59:20.372Z,,0,,,3360.510999988066,completion,,,,,false,,,,350756,350755.6999999881,347378.523,347394.59999999404,347395.189,350761.721,8,400,,,
trial,html.Screen,4_83_0,2023-10-31T16:59:23.575Z,,0,2,,3196.37899999402,response,ISIC_0011256.JPG,6,ISIC_0069830.JPG,ISIC_0069830.JPG,false,0,keypress(z),500,353958.59999999404,353958.09999999404,350745.055,350756.1999999881,350761.721,353961.593,8,400,34,,ISIC_0011256.JPG
break,html.Screen,4_83_1,2023-10-31T16:59:23.576Z,,0,,,NaN,,,,,,false,,,,353959.59999999404,353959.39999999106,,353959,,353961.593,8,400,,,
break_continue,html.Screen,4_83_2,2023-10-31T16:59:23.576Z,,0,,,NaN,,,,,,false,,,,353959.89999999106,353959.799999997,,353959.6999999881,,353961.593,8,400,,,
sequence,flow.Sequence,4_83,2023-10-31T16:59:23.576Z,,0,,,3198.078999997,completion,,,,,false,,,,353960.1999999881,353959.799999997,350745.055,350756.09999999404,350761.721,353961.593,8,400,,,
trial,html.Screen,4_84_0,2023-10-31T16:59:27.227Z,,0,2,,3649.2069999970263,response,ISIC_4462773.JPG,8,ISIC_2776906.JPG,ISIC_2776906.JPG,false,0,keypress(z),500,357611.299999997,357610.799999997,353944.927,353960.299999997,353961.593,357628.885,8,400,35,,ISIC_4462773.JPG
break,html.Screen,4_84_1,2023-10-31T16:59:27.228Z,,0,,,NaN,,,,,,false,,,,357612.299999997,357612,,357611.6999999881,,357628.885,8,400,,,
break_continue,html.Screen,4_84_2,2023-10-31T16:59:27.229Z,,0,,,NaN,,,,,,false,,,,357612.6999999881,357612.5,,357612.5,,357628.885,8,400,,,
sequence,flow.Sequence,4_84,2023-10-31T16:59:27.229Z,,0,,,3650.9070000000065,completion,,,,,false,,,,357612.89999999106,357612.5,353944.927,353960.1999999881,353961.593,357628.885,8,400,,,
trial,html.Screen,4_85_0,2023-10-31T16:59:30.731Z,,0,2,,3485.6149999999907,response,ISIC_0027193.JPG,6,ISIC_9756117.JPG,ISIC_9756117.JPG,false,0,keypress(z),500,361115,361114.5,357612.219,357612.89999999106,357628.885,361128.745,8,400,36,,ISIC_0027193.JPG
break,html.Screen,4_85_1,2023-10-31T16:59:30.732Z,,0,,,NaN,,,,,,false,,,,361116,361115.799999997,,361115.299999997,,361128.745,8,400,,,
break_continue,html.Screen,4_85_2,2023-10-31T16:59:30.732Z,,0,,,NaN,,,,,,false,,,,361116.299999997,361116.1999999881,,361116.09999999404,,361128.745,8,400,,,
sequence,flow.Sequence,4_85,2023-10-31T16:59:30.732Z,,0,,,3487.3149999880698,completion,,,,,false,,,,361116.5,361116.1999999881,357612.219,357612.89999999106,357628.885,361128.745,8,400,,,
trial,html.Screen,4_86_0,2023-10-31T16:59:33.519Z,,0,2,,2773.854999994044,response,ISIC_4174983.JPG,9,ISIC_5363229.JPG,ISIC_4174983.JPG,false,1,keypress(m),500,363903,363902.59999999404,361112.079,361116.6999999881,361128.745,363928.633,8,400,37,,ISIC_5363229.JPG
break,html.Screen,4_86_1,2023-10-31T16:59:33.520Z,,0,,,NaN,,,,,,false,,,,363904,363903.799999997,,363903.39999999106,,363928.633,8,400,,,
break_continue,html.Screen,4_86_2,2023-10-31T16:59:33.520Z,,0,,,NaN,,,,,,false,,,,363904.39999999106,363904.299999997,,363904.09999999404,,363928.633,8,400,,,
sequence,flow.Sequence,4_86,2023-10-31T16:59:33.520Z,,0,,,2775.5549999970244,completion,,,,,false,,,,363904.59999999404,363904.299999997,361112.079,361116.6999999881,361128.745,363928.633,8,400,,,
trial,html.Screen,4_87_0,2023-10-31T16:59:36.810Z,,0,2,,3264.966999994067,response,ISIC_5569568.JPG,8,ISIC_0015179.JPG,ISIC_5569568.JPG,false,1,keypress(m),500,367194,367193.59999999404,363911.967,363904.6999999881,363928.633,367196.076,8,400,38,,ISIC_0015179.JPG
break,html.Screen,4_87_1,2023-10-31T16:59:36.811Z,,0,,,NaN,,,,,,false,,,,367195,367194.799999997,,367194.39999999106,,367196.076,8,400,,,
break_continue,html.Screen,4_87_2,2023-10-31T16:59:36.811Z,,0,,,NaN,,,,,,false,,,,367195.39999999106,367195.1999999881,,367195.09999999404,,367196.076,8,400,,,
sequence,flow.Sequence,4_87,2023-10-31T16:59:36.811Z,,0,,,3266.5669999881065,completion,,,,,false,,,,367195.59999999404,367195.1999999881,363911.967,363904.59999999404,363928.633,367196.076,8,400,,,
trial,html.Screen,4_88_0,2023-10-31T16:59:40.880Z,,0,2,,4068.423999999999,response,ISIC_0028025.JPG,8,ISIC_8635889.JPG,ISIC_0028025.JPG,false,1,keypress(m),500,371265,371264.5,367179.41,367195.6999999881,367196.076,371279.246,8,400,39,,ISIC_8635889.JPG
break,html.Screen,4_88_1,2023-10-31T16:59:40.881Z,,0,,,NaN,,,,,,false,,,,371266,371265.6999999881,,371265.299999997,,371279.246,8,400,,,
break_continue,html.Screen,4_88_2,2023-10-31T16:59:40.882Z,,0,,,NaN,,,,,,false,,,,371266.299999997,371266.09999999404,,371266,,371279.246,8,400,,,
sequence,flow.Sequence,4_88,2023-10-31T16:59:40.882Z,,0,,,4070.0239999940386,completion,,,,,false,,,,371266.39999999106,371266.09999999404,367179.41,367195.6999999881,367196.076,371279.246,8,400,,,
trial,html.Screen,4_89_0,2023-10-31T16:59:43.653Z,,0,2,,2757.6539999910747,response,ISIC_4404772.JPG,8,ISIC_3691320.JPG,ISIC_4404772.JPG,false,1,keypress(m),500,374037.39999999106,374036.89999999106,371262.58,371266.59999999404,371279.246,374045.802,8,400,40,,ISIC_3691320.JPG
break,html.Screen,4_89_1,2023-10-31T16:59:43.654Z,,0,,,NaN,,,,,,false,,,,374038.39999999106,374038.09999999404,,374037.6999999881,,374045.802,8,400,,,
break_continue,html.Screen,4_89_2,2023-10-31T16:59:43.654Z,,0,,,NaN,,,,,,false,,,,374038.799999997,374038.59999999404,,374038.5,,374045.802,8,400,,,
sequence,flow.Sequence,4_89,2023-10-31T16:59:43.654Z,,0,,,2759.353999994055,completion,,,,,false,,,,374039,374038.59999999404,371262.58,371266.5,371279.246,374045.802,8,400,,,
trial,html.Screen,4_90_0,2023-10-31T16:59:46.475Z,,0,2,,2813.397999988054,response,ISIC_0000431.JPG,7,ISIC_0025891.JPG,ISIC_0000431.JPG,false,1,keypress(m),500,376859.59999999404,376859.1999999881,374029.136,374039,374045.802,376863.157,8,400,41,,ISIC_0025891.JPG
break,html.Screen,4_90_1,2023-10-31T16:59:46.476Z,,0,,,NaN,,,,,,false,,,,376860.59999999404,376860.39999999106,,376860,,376863.157,8,400,,,
break_continue,html.Screen,4_90_2,2023-10-31T16:59:46.476Z,,0,,,NaN,,,,,,false,,,,376860.89999999106,376860.799999997,,376860.799999997,,376863.157,8,400,,,
sequence,flow.Sequence,4_90,2023-10-31T16:59:46.476Z,,0,,,2814.9979999969946,completion,,,,,false,,,,376861.1999999881,376860.799999997,374029.136,374039,374045.802,376863.157,8,400,,,
trial,html.Screen,4_91_0,2023-10-31T16:59:49.472Z,,0,2,,2992.942999994033,response,ISIC_0025186.JPG,7,ISIC_0033166.JPG,ISIC_0025186.JPG,false,1,keypress(m),500,379856.59999999404,379856.09999999404,376846.491,376861.299999997,376863.157,379863.037,8,400,42,,ISIC_0033166.JPG
break,html.Screen,4_91_1,2023-10-31T16:59:49.473Z,,0,,,NaN,,,,,,false,,,,379857.59999999404,379857.39999999106,,379857,,379863.037,8,400,,,
break_continue,html.Screen,4_91_2,2023-10-31T16:59:49.473Z,,0,,,NaN,,,,,,false,,,,379858,379857.89999999106,,379857.6999999881,,379863.037,8,400,,,
sequence,flow.Sequence,4_91,2023-10-31T16:59:49.473Z,,0,,,2994.742999991053,completion,,,,,false,,,,379858.09999999404,379857.89999999106,376846.491,376861.1999999881,376863.157,379863.037,8,400,,,
trial,html.Screen,4_92_0,2023-10-31T16:59:53.415Z,,0,2,,3936.362999991048,response,ISIC_6037869.JPG,9,ISIC_5536710.JPG,ISIC_5536710.JPG,false,0,keypress(z),500,383800,383799.39999999106,379846.371,379858.299999997,379863.037,383812.879,8,400,43,,ISIC_6037869.JPG
break,html.Screen,4_92_1,2023-10-31T16:59:53.416Z,,0,,,NaN,,,,,,false,,,,383800.89999999106,383800.6999999881,,383800.299999997,,383812.879,8,400,,,
break_continue,html.Screen,4_92_2,2023-10-31T16:59:53.416Z,,0,,,NaN,,,,,,false,,,,383801.1999999881,383801.09999999404,,383801,,383812.879,8,400,,,
sequence,flow.Sequence,4_92,2023-10-31T16:59:53.416Z,,0,,,3938.0629999940284,completion,,,,,false,,,,383801.39999999106,383801.09999999404,379846.371,379858.1999999881,379863.037,383812.879,8,400,,,
trial,html.Screen,4_93_0,2023-10-31T16:59:56.826Z,,0,2,,3397.6209999999846,response,ISIC_0066200.JPG,6,ISIC_0031565.JPG,ISIC_0066200.JPG,false,1,keypress(m),500,387211,387210.5,383796.213,383801.59999999404,383812.879,387213.514,8,400,44,,ISIC_0031565.JPG
break,html.Screen,4_93_1,2023-10-31T16:59:56.827Z,,0,,,NaN,,,,,,false,,,,387212,387211.799999997,,387211.1999999881,,387213.514,8,400,,,
break_continue,html.Screen,4_93_2,2023-10-31T16:59:56.827Z,,0,,,NaN,,,,,,false,,,,387212.299999997,387212.1999999881,,387212.09999999404,,387213.514,8,400,,,
sequence,flow.Sequence,4_93,2023-10-31T16:59:56.827Z,,0,,,3399.3209999880637,completion,,,,,false,,,,387212.5,387212.1999999881,383796.213,383801.5,383812.879,387213.514,8,400,,,
trial,html.Screen,4_94_0,2023-10-31T16:59:59.616Z,,0,2,,2786.9859999999753,response,ISIC_0026910.JPG,8,ISIC_0068560.JPG,ISIC_0068560.JPG,false,0,keypress(z),500,390001,390000.5,387196.848,387212.59999999404,387213.514,390013.402,8,400,45,,ISIC_0026910.JPG
break,html.Screen,4_94_1,2023-10-31T16:59:59.617Z,,0,,,NaN,,,,,,false,,,,390002,390001.6999999881,,390001.1999999881,,390013.402,8,400,,,
break_continue,html.Screen,4_94_2,2023-10-31T16:59:59.617Z,,0,,,NaN,,,,,,false,,,,390002.299999997,390002.1999999881,,390002.09999999404,,390013.402,8,400,,,
sequence,flow.Sequence,4_94,2023-10-31T16:59:59.617Z,,0,,,2788.6859999880544,completion,,,,,false,,,,390002.5,390002.1999999881,387196.848,387212.5,387213.514,390013.402,8,400,,,
trial,html.Screen,4_95_0,2023-10-31T17:00:02.452Z,,0,2,,2823.397999997018,response,ISIC_0029698.JPG,9,ISIC_0072601.JPG,ISIC_0029698.JPG,false,1,keypress(m),500,392837.1999999881,392836.799999997,389996.736,390002.59999999404,390013.402,392846.622,8,400,46,,ISIC_0072601.JPG
break,html.Screen,4_95_1,2023-10-31T17:00:02.453Z,,0,,,NaN,,,,,,false,,,,392838.09999999404,392837.89999999106,,392837.5,,392846.622,8,400,,,
break_continue,html.Screen,4_95_2,2023-10-31T17:00:02.453Z,,0,,,NaN,,,,,,false,,,,392838.5,392838.39999999106,,392838.299999997,,392846.622,8,400,,,
sequence,flow.Sequence,4_95,2023-10-31T17:00:02.453Z,,0,,,2824.9979999910574,completion,,,,,false,,,,392838.6999999881,392838.39999999106,389996.736,390002.59999999404,390013.402,392846.622,8,400,,,
trial,html.Screen,4_96_0,2023-10-31T17:00:05.193Z,,0,2,,2731.378000000026,response,ISIC_0027684.JPG,9,ISIC_0026483.JPG,ISIC_0027684.JPG,false,1,keypress(m),500,395578.5,395578,392829.956,392838.799999997,392846.622,395579.846,8,400,47,,ISIC_0026483.JPG
break,html.Screen,4_96_1,2023-10-31T17:00:05.194Z,,0,,,NaN,,,,,,false,,,,395579.59999999404,395579.299999997,,395578.89999999106,,395579.846,8,400,,,
break_continue,html.Screen,4_96_2,2023-10-31T17:00:05.194Z,,0,,,NaN,,,,,,false,,,,395580,395579.89999999106,,395579.6999999881,,395579.846,8,400,,,
sequence,flow.Sequence,4_96,2023-10-31T17:00:05.195Z,,0,,,2733.2779999910854,completion,,,,,false,,,,395580.1999999881,395579.89999999106,392829.956,392838.6999999881,392846.622,395579.846,8,400,,,
trial,html.Screen,4_97_0,2023-10-31T17:00:07.904Z,,0,2,,2709.25399999402,response,ISIC_0004455.JPG,5,ISIC_0068905.JPG,ISIC_0004455.JPG,false,1,keypress(m),500,398289.6999999881,398289.09999999404,395563.18,395580.299999997,395579.846,398297.215,8,400,48,,ISIC_0068905.JPG
break,html.Screen,4_97_1,2023-10-31T17:00:07.905Z,,0,,,NaN,,,,,,false,,,,398290.59999999404,398290.39999999106,,398289.89999999106,,398297.215,8,400,,,
break_continue,html.Screen,4_97_2,2023-10-31T17:00:07.905Z,,0,,,NaN,,,,,,false,,,,398291,398290.89999999106,,398290.6999999881,,398297.215,8,400,,,
sequence,flow.Sequence,4_97,2023-10-31T17:00:07.906Z,,0,,,2711.0539999910397,completion,,,,,false,,,,398291.1999999881,398290.89999999106,395563.18,395580.299999997,395579.846,398297.215,8,400,,,
trial,html.Screen,4_98_0,2023-10-31T17:00:11.446Z,,0,2,,3533.7849999999744,response,ISIC_8041550.JPG,8,ISIC_5468164.JPG,ISIC_5468164.JPG,false,0,keypress(z),500,401831.5,401831,398280.549,398291.39999999106,398297.215,401847.073,8,400,49,,ISIC_8041550.JPG
break,html.Screen,4_98_1,2023-10-31T17:00:11.447Z,,0,,,NaN,,,,,,false,,,,401832.39999999106,401832.299999997,,401831.799999997,,401847.073,8,400,,,
break_continue,html.Screen,4_98_2,2023-10-31T17:00:11.447Z,,0,,,NaN,,,,,,false,,,,401832.799999997,401832.6999999881,,401832.59999999404,,401847.073,8,400,,,
sequence,flow.Sequence,4_98,2023-10-31T17:00:11.447Z,,0,,,3535.4849999880535,completion,,,,,false,,,,401833,401832.6999999881,398280.549,398291.299999997,398297.215,401847.073,8,400,,,
trial,html.Screen,4_99_0,2023-10-31T17:00:15.773Z,,0,2,,4311.726999997045,response,ISIC_2668481.JPG,5,ISIC_0006730.JPG,ISIC_2668481.JPG,false,1,keypress(m),500,406159.299999997,406158.799999997,401830.407,401833.09999999404,401847.073,406164.401,8,400,50,,ISIC_0006730.JPG
break,html.Screen,4_99_1,2023-10-31T17:00:25.767Z,,0,,,10000.396999999997,timeout,,,,,false,,,,416153.1999999881,416148.132,406147.735,406159.5,406164.401,416164.798,8,400,,,
break_continue,html.Screen,4_99_2,2023-10-31T17:00:30.310Z,,0,,,4513.401999988069,response,,,,,false,continue,keypress(Space),,420696.1999999881,420678.1999999881,416148.132,416153.59999999404,416164.798,420697.95,8,400,,,
sequence,flow.Sequence,4_99,2023-10-31T17:00:30.310Z,,0,,,18831.126999988104,completion,,,,,false,,,,420696.39999999106,420678.1999999881,401830.407,401833.09999999404,401847.073,420697.95,8,400,,,
trial,html.Screen,4_100_0,2023-10-31T17:00:33.384Z,,0,3,,3072.649999994028,response,ISIC_6954782.JPG,9,ISIC_0010962.JPG,ISIC_6954782.JPG,false,1,keypress(m),500,423771.09999999404,423770.59999999404,420681.284,420696.5,420697.95,423781.16,8,400,1,,ISIC_0010962.JPG
break,html.Screen,4_100_1,2023-10-31T17:00:33.385Z,,0,,,NaN,,,,,,false,,,,423772,423771.89999999106,,423771.39999999106,,423781.16,8,400,,,
break_continue,html.Screen,4_100_2,2023-10-31T17:00:33.386Z,,0,,,NaN,,,,,,false,,,,423772.5,423772.299999997,,423772.1999999881,,423781.16,8,400,,,
sequence,flow.Sequence,4_100,2023-10-31T17:00:33.386Z,,0,,,3074.349999997008,completion,,,,,false,,,,423772.59999999404,423772.299999997,420681.284,420696.39999999106,420697.95,423781.16,8,400,,,
trial,html.Screen,4_101_0,2023-10-31T17:00:36.120Z,,0,3,,2725.3400000000256,response,ISIC_0053742.JPG,9,ISIC_0693902.JPG,ISIC_0053742.JPG,false,1,keypress(m),500,426507,426506.5,423764.494,423772.799999997,423781.16,426515.198,8,400,2,,ISIC_0693902.JPG
break,html.Screen,4_101_1,2023-10-31T17:00:36.121Z,,0,,,NaN,,,,,,false,,,,426508,426507.799999997,,426507.299999997,,426515.198,8,400,,,
break_continue,html.Screen,4_101_2,2023-10-31T17:00:36.122Z,,0,,,NaN,,,,,,false,,,,426508.39999999106,426508.1999999881,,426508.1999999881,,426515.198,8,400,,,
sequence,flow.Sequence,4_101,2023-10-31T17:00:36.122Z,,0,,,2727.0399999881047,completion,,,,,false,,,,426508.59999999404,426508.1999999881,423764.494,423772.6999999881,423781.16,426515.198,8,400,,,
trial,html.Screen,4_102_0,2023-10-31T17:00:39.704Z,,0,3,,3574.7019999910844,response,ISIC_2206284.JPG,8,ISIC_4453506.JPG,ISIC_4453506.JPG,false,0,keypress(z),500,430090.5,430089.89999999106,426498.532,426508.799999997,426515.198,430098.388,8,400,3,,ISIC_2206284.JPG
break,html.Screen,4_102_1,2023-10-31T17:00:39.705Z,,0,,,NaN,,,,,,false,,,,430091.39999999106,430091.1999999881,,430090.6999999881,,430098.388,8,400,,,
break_continue,html.Screen,4_102_2,2023-10-31T17:00:39.705Z,,0,,,NaN,,,,,,false,,,,430091.799999997,430091.6999999881,,430091.59999999404,,430098.388,8,400,,,
sequence,flow.Sequence,4_102,2023-10-31T17:00:39.705Z,,0,,,3576.501999988104,completion,,,,,false,,,,430092,430091.6999999881,426498.532,426508.6999999881,426515.198,430098.388,8,400,,,
trial,html.Screen,4_103_0,2023-10-31T17:00:42.567Z,,0,3,,2855.311999988102,response,ISIC_0367225.JPG,6,ISIC_3123377.JPG,ISIC_0367225.JPG,false,1,keypress(m),500,432954.09999999404,432953.6999999881,430081.722,430092.1999999881,430098.388,432964.94,8,400,4,,ISIC_3123377.JPG
break,html.Screen,4_103_1,2023-10-31T17:00:42.568Z,,0,,,NaN,,,,,,false,,,,432955.1999999881,432954.89999999106,,432954.299999997,,432964.94,8,400,,,
break_continue,html.Screen,4_103_2,2023-10-31T17:00:42.569Z,,0,,,NaN,,,,,,false,,,,432955.59999999404,432955.39999999106,,432955.299999997,,432964.94,8,400,,,
sequence,flow.Sequence,4_103,2023-10-31T17:00:42.569Z,,0,,,2857.011999991082,completion,,,,,false,,,,432955.6999999881,432955.39999999106,430081.722,430092.09999999404,430098.388,432964.94,8,400,,,
trial,html.Screen,4_104_0,2023-10-31T17:00:45.229Z,,0,3,,2650.7599999880767,response,ISIC_0463755.JPG,7,ISIC_0046316.JPG,ISIC_0463755.JPG,false,1,keypress(m),500,435616.09999999404,435615.6999999881,432948.274,432955.89999999106,432964.94,435631.5,8,400,5,,ISIC_0046316.JPG
break,html.Screen,4_104_1,2023-10-31T17:00:45.230Z,,0,,,NaN,,,,,,false,,,,435617.09999999404,435616.89999999106,,435616.5,,435631.5,8,400,,,
break_continue,html.Screen,4_104_2,2023-10-31T17:00:45.230Z,,0,,,NaN,,,,,,false,,,,435617.5,435617.299999997,,435617.1999999881,,435631.5,8,400,,,
sequence,flow.Sequence,4_104,2023-10-31T17:00:45.231Z,,0,,,2652.3599999970174,completion,,,,,false,,,,435617.6999999881,435617.299999997,432948.274,432955.799999997,432964.94,435631.5,8,400,,,
trial,html.Screen,4_105_0,2023-10-31T17:00:49.601Z,,0,3,,4356.0999999940395,response,ISIC_0046623.JPG,8,ISIC_6779421.JPG,ISIC_0046623.JPG,false,1,keypress(m),500,439988,439987.59999999404,435614.834,435617.799999997,435631.5,440015.418,8,400,6,,ISIC_6779421.JPG
break,html.Screen,4_105_1,2023-10-31T17:00:49.602Z,,0,,,NaN,,,,,,false,,,,439989,439988.89999999106,,439988.39999999106,,440015.418,8,400,,,
break_continue,html.Screen,4_105_2,2023-10-31T17:00:49.602Z,,0,,,NaN,,,,,,false,,,,439989.39999999106,439989.299999997,,439989.1999999881,,440015.418,8,400,,,
sequence,flow.Sequence,4_105,2023-10-31T17:00:49.602Z,,0,,,4357.79999999702,completion,,,,,false,,,,439989.59999999404,439989.299999997,435614.834,435617.6999999881,435631.5,440015.418,8,400,,,
trial,html.Screen,4_106_0,2023-10-31T17:00:52.351Z,,0,3,,2722.1819999940344,response,ISIC_3566243.JPG,7,ISIC_9331097.JPG,ISIC_3566243.JPG,false,1,keypress(m),500,442738.09999999404,442737.59999999404,439998.752,439989.6999999881,440015.418,442748.642,8,400,7,,ISIC_9331097.JPG
break,html.Screen,4_106_1,2023-10-31T17:00:52.352Z,,0,,,NaN,,,,,,false,,,,442739.09999999404,442738.89999999106,,442738.39999999106,,442748.642,8,400,,,
break_continue,html.Screen,4_106_2,2023-10-31T17:00:52.352Z,,0,,,NaN,,,,,,false,,,,442739.39999999106,442739.39999999106,,442739.299999997,,442748.642,8,400,,,
sequence,flow.Sequence,4_106,2023-10-31T17:00:52.352Z,,0,,,2723.981999991054,completion,,,,,false,,,,442739.6999999881,442739.39999999106,439998.752,439989.6999999881,440015.418,442748.642,8,400,,,
trial,html.Screen,4_107_0,2023-10-31T17:00:55.108Z,,0,3,,2746.3580000000075,response,ISIC_0070435.JPG,8,ISIC_4311777.JPG,ISIC_4311777.JPG,false,0,keypress(z),500,445495.39999999106,445495,442731.976,442739.799999997,442748.642,445515.198,8,400,8,,ISIC_0070435.JPG
break,html.Screen,4_107_1,2023-10-31T17:00:55.109Z,,0,,,NaN,,,,,,false,,,,445496.5,445496.1999999881,,445495.799999997,,445515.198,8,400,,,
break_continue,html.Screen,4_107_2,2023-10-31T17:00:55.109Z,,0,,,NaN,,,,,,false,,,,445496.89999999106,445496.6999999881,,445496.59999999404,,445515.198,8,400,,,
sequence,flow.Sequence,4_107,2023-10-31T17:00:55.110Z,,0,,,2748.0579999880865,completion,,,,,false,,,,445497,445496.6999999881,442731.976,442739.6999999881,442748.642,445515.198,8,400,,,
trial,html.Screen,4_108_0,2023-10-31T17:00:58.139Z,,0,3,,3011.101999997045,response,ISIC_0063061.JPG,9,ISIC_6352565.JPG,ISIC_6352565.JPG,false,0,keypress(z),500,448526.799999997,448526.299999997,445498.532,445497.1999999881,445515.198,448532.604,8,400,9,,ISIC_0063061.JPG
break,html.Screen,4_108_1,2023-10-31T17:00:58.140Z,,0,,,NaN,,,,,,false,,,,448527.799999997,448527.59999999404,,448527.09999999404,,448532.604,8,400,,,
break_continue,html.Screen,4_108_2,2023-10-31T17:00:58.141Z,,0,,,NaN,,,,,,false,,,,448528.1999999881,448528.09999999404,,448527.89999999106,,448532.604,8,400,,,
sequence,flow.Sequence,4_108,2023-10-31T17:00:58.141Z,,0,,,3012.9019999940647,completion,,,,,false,,,,448528.39999999106,448528.09999999404,445498.532,445497.1999999881,445515.198,448532.604,8,400,,,
trial,html.Screen,4_109_0,2023-10-31T17:01:01.296Z,,0,3,,3150.295999991067,response,ISIC_9699615.JPG,8,ISIC_0006672.JPG,ISIC_0006672.JPG,false,0,keypress(z),500,451683.5,451682.89999999106,448515.938,448528.5,448532.604,451699.144,8,400,10,,ISIC_9699615.JPG
break,html.Screen,4_109_1,2023-10-31T17:01:01.297Z,,0,,,NaN,,,,,,false,,,,451684.5,451684.299999997,,451683.6999999881,,451699.144,8,400,,,
break_continue,html.Screen,4_109_2,2023-10-31T17:01:01.297Z,,0,,,NaN,,,,,,false,,,,451684.89999999106,451684.6999999881,,451684.59999999404,,451699.144,8,400,,,
sequence,flow.Sequence,4_109,2023-10-31T17:01:01.297Z,,0,,,3152.095999988087,completion,,,,,false,,,,451685.09999999404,451684.6999999881,448515.938,448528.5,448532.604,451699.144,8,400,,,
trial,html.Screen,4_110_0,2023-10-31T17:01:03.876Z,,0,3,,2563.856000000029,response,ISIC_9307584.JPG,8,ISIC_0025778.JPG,ISIC_0025778.JPG,false,0,keypress(z),500,454263.59999999404,454263,451682.478,451685.1999999881,451699.144,454265.708,8,400,11,,ISIC_9307584.JPG
break,html.Screen,4_110_1,2023-10-31T17:01:03.877Z,,0,,,NaN,,,,,,false,,,,454264.59999999404,454264.39999999106,,454263.799999997,,454265.708,8,400,,,
break_continue,html.Screen,4_110_2,2023-10-31T17:01:03.877Z,,0,,,NaN,,,,,,false,,,,454264.89999999106,454264.799999997,,454264.6999999881,,454265.708,8,400,,,
sequence,flow.Sequence,4_110,2023-10-31T17:01:03.877Z,,0,,,2565.6559999970486,completion,,,,,false,,,,454265.1999999881,454264.799999997,451682.478,451685.1999999881,451699.144,454265.708,8,400,,,
trial,html.Screen,4_111_0,2023-10-31T17:01:07.099Z,,0,3,,3221.0919999970356,response,ISIC_2563568.JPG,8,ISIC_0032938.JPG,ISIC_2563568.JPG,false,1,keypress(m),500,457487.39999999106,457486.799999997,454249.042,454265.299999997,454265.708,457499.696,8,400,12,,ISIC_0032938.JPG
break,html.Screen,4_111_1,2023-10-31T17:01:07.101Z,,0,,,NaN,,,,,,false,,,,457488.5,457488.299999997,,457487.799999997,,457499.696,8,400,,,
break_continue,html.Screen,4_111_2,2023-10-31T17:01:07.101Z,,0,,,NaN,,,,,,false,,,,457488.799999997,457488.6999999881,,457488.59999999404,,457499.696,8,400,,,
sequence,flow.Sequence,4_111,2023-10-31T17:01:07.101Z,,0,,,3222.991999988095,completion,,,,,false,,,,457489,457488.6999999881,454249.042,454265.1999999881,454265.708,457499.696,8,400,,,
trial,html.Screen,4_112_0,2023-10-31T17:01:09.779Z,,0,3,,2667.3040000000037,response,ISIC_1720856.JPG,8,ISIC_0071508.JPG,ISIC_0071508.JPG,false,0,keypress(z),500,460167.5,460167,457483.03,457489.1999999881,457499.696,460182.922,8,400,13,,ISIC_1720856.JPG
break,html.Screen,4_112_1,2023-10-31T17:01:09.780Z,,0,,,NaN,,,,,,false,,,,460168.5,460168.299999997,,460167.799999997,,460182.922,8,400,,,
break_continue,html.Screen,4_112_2,2023-10-31T17:01:09.781Z,,0,,,NaN,,,,,,false,,,,460168.799999997,460168.6999999881,,460168.59999999404,,460182.922,8,400,,,
sequence,flow.Sequence,4_112,2023-10-31T17:01:09.781Z,,0,,,2669.003999988083,completion,,,,,false,,,,460169,460168.6999999881,457483.03,457489.09999999404,457499.696,460182.922,8,400,,,
trial,html.Screen,4_113_0,2023-10-31T17:01:12.315Z,,0,3,,2520.2779999880586,response,ISIC_0025132.JPG,5,ISIC_0001134.JPG,ISIC_0025132.JPG,false,1,keypress(m),500,462703.59999999404,462703.1999999881,460166.256,460169.09999999404,460182.922,462716.154,8,400,14,,ISIC_0001134.JPG
break,html.Screen,4_113_1,2023-10-31T17:01:12.316Z,,0,,,NaN,,,,,,false,,,,462704.39999999106,462704.299999997,,462703.89999999106,,462716.154,8,400,,,
break_continue,html.Screen,4_113_2,2023-10-31T17:01:12.316Z,,0,,,NaN,,,,,,false,,,,462704.59999999404,462704.59999999404,,462704.5,,462716.154,8,400,,,
sequence,flow.Sequence,4_113,2023-10-31T17:01:12.317Z,,0,,,2521.677999994019,completion,,,,,false,,,,462704.6999999881,462704.59999999404,460166.256,460169.09999999404,460182.922,462716.154,8,400,,,
trial,html.Screen,4_114_0,2023-10-31T17:01:15.119Z,,0,3,,2790.8460000000196,response,ISIC_2211136.JPG,6,ISIC_0062525.JPG,ISIC_0062525.JPG,false,0,keypress(z),500,465507.5,465507,462699.488,462704.799999997,462716.154,465516.042,8,400,15,,ISIC_2211136.JPG
break,html.Screen,4_114_1,2023-10-31T17:01:15.120Z,,0,,,NaN,,,,,,false,,,,465508.5,465508.299999997,,465507.799999997,,465516.042,8,400,,,
break_continue,html.Screen,4_114_2,2023-10-31T17:01:15.121Z,,0,,,NaN,,,,,,false,,,,465508.89999999106,465508.6999999881,,465508.6999999881,,465516.042,8,400,,,
sequence,flow.Sequence,4_114,2023-10-31T17:01:15.121Z,,0,,,2792.5459999880986,completion,,,,,false,,,,465509.09999999404,465508.6999999881,462699.488,462704.799999997,462716.154,465516.042,8,400,,,
trial,html.Screen,4_115_0,2023-10-31T17:01:17.763Z,,0,3,,2635.257999997004,response,ISIC_0056440.JPG,7,ISIC_6931712.JPG,ISIC_0056440.JPG,false,1,keypress(m),500,468151.6999999881,468151.299999997,465499.376,465509.299999997,465516.042,468166.774,8,400,16,,ISIC_6931712.JPG
break,html.Screen,4_115_1,2023-10-31T17:01:17.764Z,,0,,,NaN,,,,,,false,,,,468152.6999999881,468152.59999999404,,468152.09999999404,,468166.774,8,400,,,
break_continue,html.Screen,4_115_2,2023-10-31T17:01:17.765Z,,0,,,NaN,,,,,,false,,,,468153.1999999881,468153,,468152.89999999106,,468166.774,8,400,,,
sequence,flow.Sequence,4_115,2023-10-31T17:01:17.765Z,,0,,,2636.957999999984,completion,,,,,false,,,,468153.299999997,468153,465499.376,465509.1999999881,465516.042,468166.774,8,400,,,
trial,html.Screen,4_116_0,2023-10-31T17:01:20.601Z,,0,3,,2822.6259999910835,response,ISIC_9169586.JPG,9,ISIC_4957315.JPG,ISIC_4957315.JPG,false,0,keypress(z),500,470989.799999997,470989.39999999106,468150.108,468153.5,468166.774,470999.994,8,400,17,,ISIC_9169586.JPG
break,html.Screen,4_116_1,2023-10-31T17:01:20.602Z,,0,,,NaN,,,,,,false,,,,470990.799999997,470990.59999999404,,470990.09999999404,,470999.994,8,400,,,
break_continue,html.Screen,4_116_2,2023-10-31T17:01:20.603Z,,0,,,NaN,,,,,,false,,,,470991.09999999404,470991,,470991,,470999.994,8,400,,,
sequence,flow.Sequence,4_116,2023-10-31T17:01:20.603Z,,0,,,2824.226000000024,completion,,,,,false,,,,470991.299999997,470991,468150.108,468153.5,468166.774,470999.994,8,400,,,
trial,html.Screen,4_117_0,2023-10-31T17:01:23.888Z,,0,3,,3276.005999999994,response,ISIC_3573969.JPG,7,ISIC_0007416.JPG,ISIC_3573969.JPG,false,1,keypress(m),500,474276.39999999106,474276,470983.328,470991.5,470999.994,474283.196,8,400,18,,ISIC_0007416.JPG
break,html.Screen,4_117_1,2023-10-31T17:01:23.889Z,,0,,,NaN,,,,,,false,,,,474277.39999999106,474277.299999997,,474276.799999997,,474283.196,8,400,,,
break_continue,html.Screen,4_117_2,2023-10-31T17:01:23.889Z,,0,,,NaN,,,,,,false,,,,474277.89999999106,474277.799999997,,474277.59999999404,,474283.196,8,400,,,
sequence,flow.Sequence,4_117,2023-10-31T17:01:23.889Z,,0,,,3277.8059999970137,completion,,,,,false,,,,474278,474277.799999997,470983.328,470991.5,470999.994,474283.196,8,400,,,
trial,html.Screen,4_118_0,2023-10-31T17:01:27.205Z,,0,3,,3310.1039999970235,response,ISIC_0010143.JPG,8,ISIC_3747979.JPG,ISIC_0010143.JPG,false,1,keypress(m),500,477593.6999999881,477593.299999997,474266.53,474278.1999999881,474283.196,477600.525,8,400,19,,ISIC_3747979.JPG
break,html.Screen,4_118_1,2023-10-31T17:01:27.206Z,,0,,,NaN,,,,,,false,,,,477594.799999997,477594.59999999404,,477594.09999999404,,477600.525,8,400,,,
break_continue,html.Screen,4_118_2,2023-10-31T17:01:27.206Z,,0,,,NaN,,,,,,false,,,,477595.1999999881,477595,,477594.89999999106,,477600.525,8,400,,,
sequence,flow.Sequence,4_118,2023-10-31T17:01:27.207Z,,0,,,3311.8040000000037,completion,,,,,false,,,,477595.299999997,477595,474266.53,474278.1999999881,474283.196,477600.525,8,400,,,
trial,html.Screen,4_119_0,2023-10-31T17:01:29.946Z,,0,3,,2733.5749999940163,response,ISIC_0010046.JPG,9,ISIC_7948290.JPG,ISIC_7948290.JPG,false,0,keypress(z),500,480334.59999999404,480334.09999999404,477583.859,477595.39999999106,477600.525,480350.415,8,400,20,,ISIC_0010046.JPG
break,html.Screen,4_119_1,2023-10-31T17:01:29.947Z,,0,,,NaN,,,,,,false,,,,480335.6999999881,480335.39999999106,,480334.89999999106,,480350.415,8,400,,,
break_continue,html.Screen,4_119_2,2023-10-31T17:01:29.947Z,,0,,,NaN,,,,,,false,,,,480336,480335.89999999106,,480335.799999997,,480350.415,8,400,,,
sequence,flow.Sequence,4_119,2023-10-31T17:01:29.947Z,,0,,,2735.374999991036,completion,,,,,false,,,,480336.1999999881,480335.89999999106,477583.859,477595.39999999106,477600.525,480350.415,8,400,,,
trial,html.Screen,4_120_0,2023-10-31T17:01:32.868Z,,0,3,,2906.4849999910803,response,ISIC_1137915.JPG,8,ISIC_3978280.JPG,ISIC_3978280.JPG,false,0,keypress(z),500,483257.299999997,483256.89999999106,480333.749,480336.299999997,480350.415,483266.965,8,400,21,,ISIC_1137915.JPG
break,html.Screen,4_120_1,2023-10-31T17:01:32.869Z,,0,,,NaN,,,,,,false,,,,483258.299999997,483258.1999999881,,483257.59999999404,,483266.965,8,400,,,
break_continue,html.Screen,4_120_2,2023-10-31T17:01:32.870Z,,0,,,NaN,,,,,,false,,,,483258.6999999881,483258.59999999404,,483258.5,,483266.965,8,400,,,
sequence,flow.Sequence,4_120,2023-10-31T17:01:32.870Z,,0,,,2908.1849999940605,completion,,,,,false,,,,483258.89999999106,483258.59999999404,480333.749,480336.299999997,480350.415,483266.965,8,400,,,
trial,html.Screen,4_121_0,2023-10-31T17:01:35.768Z,,0,3,,2890.134999994014,response,ISIC_0030749.JPG,7,ISIC_0192490.JPG,ISIC_0030749.JPG,false,1,keypress(m),500,486157.5,486157.09999999404,483250.299,483259.09999999404,483266.965,486166.849,8,400,22,,ISIC_0192490.JPG
break,html.Screen,4_121_1,2023-10-31T17:01:35.769Z,,0,,,NaN,,,,,,false,,,,486158.5,486158.39999999106,,486157.89999999106,,486166.849,8,400,,,
break_continue,html.Screen,4_121_2,2023-10-31T17:01:35.770Z,,0,,,NaN,,,,,,false,,,,486158.89999999106,486158.799999997,,486158.6999999881,,486166.849,8,400,,,
sequence,flow.Sequence,4_121,2023-10-31T17:01:35.770Z,,0,,,2891.834999996994,completion,,,,,false,,,,486159.09999999404,486158.799999997,483250.299,483259.09999999404,483266.965,486166.849,8,400,,,
trial,html.Screen,4_122_0,2023-10-31T17:01:40.046Z,,0,3,,4267.651000000013,response,ISIC_0072507.JPG,8,ISIC_0011700.JPG,ISIC_0011700.JPG,false,0,keypress(z),500,490434.89999999106,490434.5,486150.183,486159.299999997,486166.849,490450.808,8,400,23,,ISIC_0072507.JPG
break,html.Screen,4_122_1,2023-10-31T17:01:40.046Z,,0,,,NaN,,,,,,false,,,,490435.5,490435.39999999106,,490435,,490450.808,8,400,,,
break_continue,html.Screen,4_122_2,2023-10-31T17:01:40.046Z,,0,,,NaN,,,,,,false,,,,490435.799999997,490435.59999999404,,490435.59999999404,,490450.808,8,400,,,
sequence,flow.Sequence,4_122,2023-10-31T17:01:40.047Z,,0,,,4268.750999994052,completion,,,,,false,,,,490435.799999997,490435.59999999404,486150.183,486159.1999999881,486166.849,490450.808,8,400,,,
trial,html.Screen,4_123_0,2023-10-31T17:01:42.782Z,,0,3,,2719.7919999940204,response,ISIC_0033149.JPG,5,ISIC_6118204.JPG,ISIC_0033149.JPG,false,1,keypress(m),500,493171.09999999404,493170.59999999404,490434.142,490435.89999999106,490450.808,493184.032,8,400,24,,ISIC_6118204.JPG
break,html.Screen,4_123_1,2023-10-31T17:01:42.783Z,,0,,,NaN,,,,,,false,,,,493172,493171.89999999106,,493171.299999997,,493184.032,8,400,,,
break_continue,html.Screen,4_123_2,2023-10-31T17:01:42.783Z,,0,,,NaN,,,,,,false,,,,493172.39999999106,493172.299999997,,493172.09999999404,,493184.032,8,400,,,
sequence,flow.Sequence,4_123,2023-10-31T17:01:42.783Z,,0,,,2721.4919999970007,completion,,,,,false,,,,493172.59999999404,493172.299999997,490434.142,490435.799999997,490450.808,493184.032,8,400,,,
trial,html.Screen,4_124_0,2023-10-31T17:01:45.570Z,,0,3,,2775.4679999999935,response,ISIC_0010838.JPG,8,ISIC_0010874.JPG,ISIC_0010874.JPG,false,0,keypress(z),500,495959.89999999106,495959.5,493167.366,493172.799999997,493184.032,495967.254,8,400,25,,ISIC_0010838.JPG
break,html.Screen,4_124_1,2023-10-31T17:01:45.572Z,,0,,,NaN,,,,,,false,,,,495961.5,495961.09999999404,,495960.299999997,,495967.254,8,400,,,
break_continue,html.Screen,4_124_2,2023-10-31T17:01:45.572Z,,0,,,NaN,,,,,,false,,,,495962,495961.799999997,,495961.59999999404,,495967.254,8,400,,,
sequence,flow.Sequence,4_124,2023-10-31T17:01:45.573Z,,0,,,2777.7679999970132,completion,,,,,false,,,,495962.09999999404,495961.799999997,493167.366,493172.6999999881,493184.032,495967.254,8,400,,,
trial,html.Screen,4_125_0,2023-10-31T17:01:48.712Z,,0,3,,3133.4459999880637,response,ISIC_0031249.JPG,8,ISIC_9714746.JPG,ISIC_0031249.JPG,false,1,keypress(m),500,499101.1999999881,499100.6999999881,495950.588,495962.299999997,495967.254,499117.943,8,400,26,,ISIC_9714746.JPG
break,html.Screen,4_125_1,2023-10-31T17:01:48.713Z,,0,,,NaN,,,,,,false,,,,499102.1999999881,499101.89999999106,,499101.5,,499117.943,8,400,,,
break_continue,html.Screen,4_125_2,2023-10-31T17:01:48.713Z,,0,,,NaN,,,,,,false,,,,499102.5,499102.39999999106,,499102.39999999106,,499117.943,8,400,,,
