sender,sender_type,sender_id,timestamp,meta,,blockNo,condition,duration,ended_on,img_left,img_reveal,img_right,loser,practice,response,response_action,selection_duration,time_commit,time_end,time_render,time_run,time_show,time_switch,total_blocks,total_trials,trialNo,url,winner
informed_consent,html.Screen,0,2023-11-01T16:04:47.796Z,"{""labjs_version"":""20.2.4"",""labjs_build"":{""flavor"":""production"",""commit"":""f5b4a49f956347addd546a832a3327688c2c0fef""},""location"":""https://run.pavlovia.org/MurrayBennett/melanoma-2afc/?participant=67695&platform=sona"",""userAgent"":""Mozilla/5.0 (Windows NT 10.0; Win64; x64) AppleWebKit/537.36 (KHTML, like Gecko) Chrome/119.0.0.0 Safari/537.36"",""platform"":""Win32"",""language"":""en-US"",""locale"":""en-US"",""timeZone"":""America/Chicago"",""timezoneOffset"":300,""screen_width"":1536,""screen_height"":864,""scroll_width"":1536,""scroll_height"":738,""window_innerWidth"":1536,""window_innerHeight"":786,""devicePixelRatio"":1.25}",,,,4626.451000023842,response,,,,,,consent,click button,,6369.199999988079,6368.100000023842,1725.05,1718.300000011921,1741.649,6371.057,,,,"{""participant"":""67695"",""platform"":""sona""}",
Welcome,html.Screen,1,2023-11-01T16:04:50.577Z,,,,colourful,2778.943,response,,,,,,continue,click button,,9150.900000035763,9150,6354.238,6369.400000035763,6371.057,9169.922,,,,,
trial,html.Screen,2_0_0,2023-11-01T16:04:56.539Z,,0,0,,5942.777999988079,response,ISIC_0063388.JPG,,ISIC_0025593.JPG,ISIC_0063388.JPG,true,1,keypress(m),500,15112.800000011921,15112.699999988079,9135.362,9151.199999988079,9169.922,15130.176,1,6,1,,ISIC_0025593.JPG
sequence,flow.Sequence,2_0,2023-11-01T16:04:56.540Z,,0,,,5942.777999988079,completion,,,,,true,,,,15112.900000035763,15112.699999988079,9135.362,9151.199999988079,9169.922,15130.176,1,6,,,
trial,html.Screen,2_1_0,2023-11-01T16:05:02.004Z,,0,0,,5441.124000011921,response,ISIC_0028178.JPG,,ISIC_1309015.JPG,ISIC_1309015.JPG,true,0,keypress(z),500,20571.400000035763,20571.30000001192,15097.148,15112.900000035763,15130.176,20575.287,1,6,2,,ISIC_0028178.JPG
sequence,flow.Sequence,2_1,2023-11-01T16:05:02.004Z,,0,,,5441.124000011921,completion,,,,,true,,,,20571.400000035763,20571.30000001192,15097.148,15112.900000035763,15130.176,20575.287,1,6,,,
trial,html.Screen,2_2_0,2023-11-01T16:05:08.317Z,,0,0,,6308.713,response,ISIC_3314853.JPG,,ISIC_0031128.JPG,ISIC_0031128.JPG,true,0,keypress(z),500,26884.19999998808,26884,20559.048,20571.5,20575.287,26886.315,1,6,3,,ISIC_3314853.JPG
sequence,flow.Sequence,2_2,2023-11-01T16:05:08.317Z,,0,,,6308.713,completion,,,,,true,,,,26884.5,26884,20559.048,20571.5,20575.287,26886.315,1,6,,,
trial,html.Screen,2_3_0,2023-11-01T16:05:14.225Z,,0,0,,5904.985000011922,response,ISIC_8980141.JPG,,ISIC_0031612.JPG,ISIC_8980141.JPG,true,1,keypress(m),500,32791.90000003576,32791.30000001192,26869.334,26884.600000023842,26886.315,32797.802,1,6,4,,ISIC_0031612.JPG
sequence,flow.Sequence,2_3,2023-11-01T16:05:14.225Z,,0,,,5904.985000011922,completion,,,,,true,,,,32792.5,32791.30000001192,26869.334,26884.600000023842,26886.315,32797.802,1,6,,,
trial,html.Screen,2_4_0,2023-11-01T16:05:18.236Z,,0,0,,4004.3979999880758,response,ISIC_1197737.JPG,,ISIC_9721604.JPG,ISIC_1197737.JPG,true,1,keypress(m),500,36802.60000002384,36802.19999998808,32780.918,32792.90000003576,32797.802,36811.051,1,6,5,,ISIC_9721604.JPG
sequence,flow.Sequence,2_4,2023-11-01T16:05:18.236Z,,0,,,4004.3979999880758,completion,,,,,true,,,,36803.10000002384,36802.19999998808,32780.918,32792.80000001192,32797.802,36811.051,1,6,,,
trial,html.Screen,2_5_0,2023-11-01T16:05:22.592Z,,0,0,,4347.249000011921,response,ISIC_0010681.JPG,,ISIC_0025346.JPG,ISIC_0010681.JPG,true,1,keypress(m),500,41159,41158.30000001192,36794.144,36803.40000003576,36811.051,41173.999,1,6,6,,ISIC_0025346.JPG
sequence,flow.Sequence,2_5,2023-11-01T16:05:22.593Z,,0,,,4347.249000011921,completion,,,,,true,,,,41159.60000002384,41158.30000001192,36794.144,36803.30000001192,36811.051,41173.999,1,6,,,
loop,flow.Loop,2,2023-11-01T16:05:22.593Z,,,,,31988.378000011922,completion,,,,,true,,,,41160.30000001192,41158.30000001192,9135.362,9151,9169.922,41173.999,1,6,,,
exp_instructions,html.Screen,3,2023-11-01T16:05:28.088Z,,,,,5479.401000035759,response,,,,,,continue,keypress(Space),,46655.19999998808,46653.40000003576,41158.115,41160.5,41173.999,46669.104,,,,,
trial,html.Screen,4_0_0,2023-11-01T16:05:34.998Z,,0,1,,6895.09599998808,response,ISIC_4658487.JPG,12,ISIC_1192835.JPG,ISIC_1192835.JPG,false,0,keypress(z),500,53564.80000001192,53564.19999998808,46652.401,46655.69999998808,46669.104,53579.74,8,400,1,,ISIC_4658487.JPG
break,html.Screen,4_0_1,2023-11-01T16:05:35.000Z,,0,,,NaN,,,,,,false,,,,53567.19999998808,53566.60000002384,,53565.40000003576,,53579.74,8,400,,,
break_continue,html.Screen,4_0_2,2023-11-01T16:05:35.001Z,,0,,,NaN,,,,,,false,,,,53568.19999998808,53567.90000003576,,53567.5,,53579.74,8,400,,,
sequence,flow.Sequence,4_0,2023-11-01T16:05:35.002Z,,0,,,6898.796000035763,completion,,,,,false,,,,53568.69999998808,53567.90000003576,46652.401,46655.60000002384,46669.104,53579.74,8,400,,,
trial,html.Screen,4_1_0,2023-11-01T16:05:42.159Z,,0,1,,7145.260000000002,response,ISIC_4224064.JPG,11,ISIC_4811593.JPG,ISIC_4811593.JPG,false,0,keypress(z),500,60725.60000002384,60725,53563.271,53569.10000002384,53579.74,60740.146,8,400,2,,ISIC_4224064.JPG
break,html.Screen,4_1_1,2023-11-01T16:05:42.161Z,,0,,,NaN,,,,,,false,,,,60728.19999998808,60727.80000001192,,60726.30000001192,,60740.146,8,400,,,
break_continue,html.Screen,4_1_2,2023-11-01T16:05:42.162Z,,0,,,NaN,,,,,,false,,,,60728.90000003576,60728.69999998808,,60728.40000003576,,60740.146,8,400,,,
sequence,flow.Sequence,4_1,2023-11-01T16:05:42.162Z,,0,,,7148.959999988081,completion,,,,,false,,,,60729.19999998808,60728.69999998808,53563.271,53569,53579.74,60740.146,8,400,,,
trial,html.Screen,4_2_0,2023-11-01T16:05:47.052Z,,0,1,,4877.954000023841,response,ISIC_6228963.JPG,5,ISIC_0010809.JPG,ISIC_6228963.JPG,false,1,keypress(m),500,65618.60000002384,65618.10000002384,60724.266,60729.40000003576,60740.146,65636.006,8,400,3,,ISIC_0010809.JPG
break,html.Screen,4_2_1,2023-11-01T16:05:47.054Z,,0,,,NaN,,,,,,false,,,,65620.69999998808,65620.30000001192,,65619,,65636.006,8,400,,,
break_continue,html.Screen,4_2_2,2023-11-01T16:05:47.055Z,,0,,,NaN,,,,,,false,,,,65621.60000002384,65621.30000001192,,65621.10000002384,,65636.006,8,400,,,
sequence,flow.Sequence,4_2,2023-11-01T16:05:47.055Z,,0,,,4881.15400001192,completion,,,,,false,,,,65622,65621.30000001192,60724.266,60729.30000001192,60740.146,65636.006,8,400,,,
trial,html.Screen,4_3_0,2023-11-01T16:05:51.110Z,,0,1,,4040.394000035769,response,ISIC_3902917.JPG,8,ISIC_2779787.JPG,ISIC_2779787.JPG,false,0,keypress(z),500,69676.80000001192,69676.40000003576,65619.448,65622.30000001192,65636.006,69682.361,8,400,4,,ISIC_3902917.JPG
break,html.Screen,4_3_1,2023-11-01T16:05:51.111Z,,0,,,NaN,,,,,,false,,,,69678.10000002384,69677.60000002384,,69677.10000002384,,69682.361,8,400,,,
break_continue,html.Screen,4_3_2,2023-11-01T16:05:51.112Z,,0,,,NaN,,,,,,false,,,,69678.80000001192,69678.60000002384,,69678.30000001192,,69682.361,8,400,,,
sequence,flow.Sequence,4_3,2023-11-01T16:05:51.112Z,,0,,,4042.594000023848,completion,,,,,false,,,,69679,69678.60000002384,65619.448,65622.19999998808,65636.006,69682.361,8,400,,,
trial,html.Screen,4_4_0,2023-11-01T16:05:54.669Z,,0,1,,3553.5390000357584,response,ISIC_0057259.JPG,7,ISIC_0325771.JPG,ISIC_0325771.JPG,false,0,keypress(z),500,73236.30000001192,73235.90000003576,69665.278,69679.19999998808,69682.361,73245.922,8,400,5,,ISIC_0057259.JPG
break,html.Screen,4_4_1,2023-11-01T16:05:54.670Z,,0,,,NaN,,,,,,false,,,,73237.40000003576,73236.90000003576,,73236.5,,73245.922,8,400,,,
break_continue,html.Screen,4_4_2,2023-11-01T16:05:54.671Z,,0,,,NaN,,,,,,false,,,,73237.90000003576,73237.80000001192,,73237.60000002384,,73245.922,8,400,,,
sequence,flow.Sequence,4_4,2023-11-01T16:05:54.671Z,,0,,,3555.4390000119165,completion,,,,,false,,,,73238.10000002384,73237.80000001192,69665.278,69679.10000002384,69682.361,73245.922,8,400,,,
trial,html.Screen,4_5_0,2023-11-01T16:05:57.510Z,,0,1,,2830.678000023836,response,ISIC_2843245.JPG,6,ISIC_0011435.JPG,ISIC_2843245.JPG,false,1,keypress(m),500,76077.40000003576,76076.60000002384,73229.821,73238.40000003576,73245.922,76093.485,8,400,6,,ISIC_0011435.JPG
break,html.Screen,4_5_1,2023-11-01T16:05:57.512Z,,0,,,NaN,,,,,,false,,,,76079.5,76079,,76078,,76093.485,8,400,,,
break_continue,html.Screen,4_5_2,2023-11-01T16:05:57.513Z,,0,,,NaN,,,,,,false,,,,76080.5,76080.19999998808,,76079.90000003576,,76093.485,8,400,,,
sequence,flow.Sequence,4_5,2023-11-01T16:05:57.513Z,,0,,,2834.277999988073,completion,,,,,false,,,,76081,76080.19999998808,73229.821,73238.19999998808,73245.922,76093.485,8,400,,,
trial,html.Screen,4_6_0,2023-11-01T16:06:01.296Z,,0,1,,3770.1150000238413,response,ISIC_0056156.JPG,11,ISIC_0066321.JPG,ISIC_0066321.JPG,false,0,keypress(z),500,79864,79863.60000002384,76077.518,76081.30000001192,76093.485,79873.429,8,400,7,,ISIC_0056156.JPG
break,html.Screen,4_6_1,2023-11-01T16:06:01.298Z,,0,,,NaN,,,,,,false,,,,79865.19999998808,79864.60000002384,,79864.30000001192,,79873.429,8,400,,,
break_continue,html.Screen,4_6_2,2023-11-01T16:06:01.298Z,,0,,,NaN,,,,,,false,,,,79865.69999998808,79865.5,,79865.40000003576,,79873.429,8,400,,,
sequence,flow.Sequence,4_6,2023-11-01T16:06:01.299Z,,0,,,3772.0149999999994,completion,,,,,false,,,,79866,79865.5,76077.518,76081.19999998808,76093.485,79873.429,8,400,,,
trial,html.Screen,4_7_0,2023-11-01T16:06:04.651Z,,0,1,,3344.5709999999963,response,ISIC_5367118.JPG,6,ISIC_8425541.JPG,ISIC_5367118.JPG,false,1,keypress(m),500,83218.40000003576,83218,79857.067,79866.19999998808,79873.429,83237.455,8,400,8,,ISIC_8425541.JPG
break,html.Screen,4_7_1,2023-11-01T16:06:04.652Z,,0,,,NaN,,,,,,false,,,,83219.5,83219.30000001192,,83218.80000001192,,83237.455,8,400,,,
break_continue,html.Screen,4_7_2,2023-11-01T16:06:04.653Z,,0,,,NaN,,,,,,false,,,,83220.10000002384,83219.90000003576,,83219.69999998808,,83237.455,8,400,,,
sequence,flow.Sequence,4_7,2023-11-01T16:06:04.653Z,,0,,,3346.471000035759,completion,,,,,false,,,,83220.30000001192,83219.90000003576,79857.067,79866.19999998808,79873.429,83237.455,8,400,,,
trial,html.Screen,4_8_0,2023-11-01T16:06:07.656Z,,0,1,,2985.5449999999983,response,ISIC_0024232.JPG,8,ISIC_0067609.JPG,ISIC_0024232.JPG,false,1,keypress(m),500,86223.40000003576,86223,83220.673,83220.69999998808,83237.455,86234.708,8,400,9,,ISIC_0067609.JPG
break,html.Screen,4_8_1,2023-11-01T16:06:07.657Z,,0,,,NaN,,,,,,false,,,,86224.69999998808,86224.19999998808,,86223.69999998808,,86234.708,8,400,,,
break_continue,html.Screen,4_8_2,2023-11-01T16:06:07.658Z,,0,,,NaN,,,,,,false,,,,86225.30000001192,86225.19999998808,,86225,,86234.708,8,400,,,
sequence,flow.Sequence,4_8,2023-11-01T16:06:07.658Z,,0,,,2987.7449999880773,completion,,,,,false,,,,86225.5,86225.19999998808,83220.673,83220.60000002384,83237.455,86234.708,8,400,,,
trial,html.Screen,4_9_0,2023-11-01T16:06:10.317Z,,0,1,,2649.692000035764,response,ISIC_8690205.JPG,7,ISIC_8922355.JPG,ISIC_8690205.JPG,false,1,keypress(m),500,88884.69999998808,88884.40000003576,86218.465,86225.69999998808,86234.708,88899.092,8,400,10,,ISIC_8922355.JPG
break,html.Screen,4_9_1,2023-11-01T16:06:10.319Z,,0,,,NaN,,,,,,false,,,,88886.80000001192,88886.40000003576,,88885.19999998808,,88899.092,8,400,,,
break_continue,html.Screen,4_9_2,2023-11-01T16:06:10.320Z,,0,,,NaN,,,,,,false,,,,88887.60000002384,88887.30000001192,,88887.10000002384,,88899.092,8,400,,,
sequence,flow.Sequence,4_9,2023-11-01T16:06:10.320Z,,0,,,2652.592000011922,completion,,,,,false,,,,88887.90000003576,88887.30000001192,86218.465,86225.69999998808,86234.708,88899.092,8,400,,,
trial,html.Screen,4_10_0,2023-11-01T16:06:13.947Z,,0,1,,3614.5080000238377,response,ISIC_0059005.JPG,6,ISIC_0055378.JPG,ISIC_0059005.JPG,false,1,keypress(m),500,92514.10000002384,92513.60000002384,88882.761,88888.10000002384,88899.092,92529.276,8,400,11,,ISIC_0055378.JPG
break,html.Screen,4_10_1,2023-11-01T16:06:13.948Z,,0,,,NaN,,,,,,false,,,,92515.80000001192,92515.19999998808,,92514.5,,92529.276,8,400,,,
break_continue,html.Screen,4_10_2,2023-11-01T16:06:13.949Z,,0,,,NaN,,,,,,false,,,,92516.69999998808,92516.40000003576,,92516.19999998808,,92529.276,8,400,,,
sequence,flow.Sequence,4_10,2023-11-01T16:06:13.949Z,,0,,,3617.3080000357586,completion,,,,,false,,,,92516.90000003576,92516.40000003576,88882.761,88888.10000002384,88899.092,92529.276,8,400,,,
trial,html.Screen,4_11_0,2023-11-01T16:06:17.745Z,,0,1,,3782.423999988081,response,ISIC_4045323.JPG,6,ISIC_0026302.JPG,ISIC_4045323.JPG,false,1,keypress(m),500,96312.19999998808,96311.69999998808,92512.777,92517.10000002384,92529.276,96325.892,8,400,12,,ISIC_0026302.JPG
break,html.Screen,4_11_1,2023-11-01T16:06:17.746Z,,0,,,NaN,,,,,,false,,,,96313.69999998808,96313.19999998808,,96312.5,,96325.892,8,400,,,
break_continue,html.Screen,4_11_2,2023-11-01T16:06:17.747Z,,0,,,NaN,,,,,,false,,,,96314.40000003576,96314.30000001192,,96313.90000003576,,96325.892,8,400,,,
sequence,flow.Sequence,4_11,2023-11-01T16:06:17.747Z,,0,,,3785.024000011923,completion,,,,,false,,,,96314.69999998808,96314.30000001192,92512.777,92517.10000002384,92529.276,96325.892,8,400,,,
trial,html.Screen,4_12_0,2023-11-01T16:06:21.256Z,,0,1,,3496.908000011914,response,ISIC_1470245.JPG,13,ISIC_0028944.JPG,ISIC_0028944.JPG,false,0,keypress(z),500,99823.19999998808,99822.80000001192,96309.492,96315.10000002384,96325.892,99839.563,8,400,13,,ISIC_1470245.JPG
break,html.Screen,4_12_1,2023-11-01T16:06:21.257Z,,0,,,NaN,,,,,,false,,,,99824.60000002384,99824.30000001192,,99823.69999998808,,99839.563,8,400,,,
break_continue,html.Screen,4_12_2,2023-11-01T16:06:21.258Z,,0,,,NaN,,,,,,false,,,,99825.80000001192,99825.40000003576,,99825,,99839.563,8,400,,,
sequence,flow.Sequence,4_12,2023-11-01T16:06:21.259Z,,0,,,3499.5080000357557,completion,,,,,false,,,,99826.19999998808,99825.40000003576,96309.492,96315,96325.892,99839.563,8,400,,,
trial,html.Screen,4_13_0,2023-11-01T16:06:24.452Z,,0,1,,3179.6369999880844,response,ISIC_0062575.JPG,9,ISIC_8357679.JPG,ISIC_8357679.JPG,false,0,keypress(z),500,103019.69999998808,103019.19999998808,99823.433,99826.30000001192,99839.563,103036.675,8,400,14,,ISIC_0062575.JPG
break,html.Screen,4_13_1,2023-11-01T16:06:24.455Z,,0,,,NaN,,,,,,false,,,,103022.40000003576,103022,,103020.80000001192,,103036.675,8,400,,,
break_continue,html.Screen,4_13_2,2023-11-01T16:06:24.456Z,,0,,,NaN,,,,,,false,,,,103023.10000002384,103022.80000001192,,103022.69999998808,,103036.675,8,400,,,
sequence,flow.Sequence,4_13,2023-11-01T16:06:24.456Z,,0,,,3183.2370000119263,completion,,,,,false,,,,103023.40000003576,103022.80000001192,99823.433,99826.30000001192,99839.563,103036.675,8,400,,,
trial,html.Screen,4_14_0,2023-11-01T16:06:27.601Z,,0,1,,3130.425000023839,response,ISIC_0031422.JPG,11,ISIC_3432650.JPG,ISIC_3432650.JPG,false,0,keypress(z),500,106168,106167.10000002384,103020.308,103023.69999998808,103036.675,106200.894,8,400,15,,ISIC_0031422.JPG
break,html.Screen,4_14_1,2023-11-01T16:06:27.602Z,,0,,,NaN,,,,,,false,,,,106169.69999998808,106169.30000001192,,106168.69999998808,,106200.894,8,400,,,
break_continue,html.Screen,4_14_2,2023-11-01T16:06:27.603Z,,0,,,NaN,,,,,,false,,,,106170.60000002384,106170.30000001192,,106170,,106200.894,8,400,,,
sequence,flow.Sequence,4_14,2023-11-01T16:06:27.603Z,,0,,,3133.625000011918,completion,,,,,false,,,,106170.80000001192,106170.30000001192,103020.308,103023.60000002384,103036.675,106200.894,8,400,,,
trial,html.Screen,4_15_0,2023-11-01T16:06:32.603Z,,0,1,,4969.206000023842,response,ISIC_0024650.JPG,8,ISIC_0046917.JPG,ISIC_0024650.JPG,false,1,keypress(m),500,111170.40000003576,111170.10000002384,106183.979,106171.10000002384,106200.894,111179.558,8,400,16,,ISIC_0046917.JPG
break,html.Screen,4_15_1,2023-11-01T16:06:32.604Z,,0,,,NaN,,,,,,false,,,,111171.40000003576,111171.10000002384,,111170.60000002384,,111179.558,8,400,,,
break_continue,html.Screen,4_15_2,2023-11-01T16:06:32.604Z,,0,,,NaN,,,,,,false,,,,111171.90000003576,111171.80000001192,,111171.60000002384,,111179.558,8,400,,,
sequence,flow.Sequence,4_15,2023-11-01T16:06:32.605Z,,0,,,4970.906000011921,completion,,,,,false,,,,111172.10000002384,111171.80000001192,106183.979,106171,106200.894,111179.558,8,400,,,
trial,html.Screen,4_16_0,2023-11-01T16:06:35.519Z,,0,1,,2906.8420000357582,response,ISIC_0014782.JPG,7,ISIC_2365588.JPG,ISIC_2365588.JPG,false,0,keypress(z),500,114086.80000001192,114086.40000003576,111162.614,111172.40000003576,111179.558,114093.64,8,400,17,,ISIC_0014782.JPG
break,html.Screen,4_16_1,2023-11-01T16:06:35.520Z,,0,,,NaN,,,,,,false,,,,114087.80000001192,114087.5,,114087.10000002384,,114093.64,8,400,,,
break_continue,html.Screen,4_16_2,2023-11-01T16:06:35.521Z,,0,,,NaN,,,,,,false,,,,114088.30000001192,114088.10000002384,,114088,,114093.64,8,400,,,
sequence,flow.Sequence,4_16,2023-11-01T16:06:35.521Z,,0,,,2908.5420000238373,completion,,,,,false,,,,114088.5,114088.10000002384,111162.614,111172.30000001192,111179.558,114093.64,8,400,,,
trial,html.Screen,4_17_0,2023-11-01T16:06:38.726Z,,0,1,,3199.5599999880797,response,ISIC_1059525.JPG,11,ISIC_3416324.JPG,ISIC_3416324.JPG,false,0,keypress(z),500,117293.69999998808,117293.19999998808,114077.243,114088.69999998808,114093.64,117307.533,8,400,18,,ISIC_1059525.JPG
break,html.Screen,4_17_1,2023-11-01T16:06:38.728Z,,0,,,NaN,,,,,,false,,,,117295.19999998808,117294.60000002384,,117294.10000002384,,117307.533,8,400,,,
break_continue,html.Screen,4_17_2,2023-11-01T16:06:38.729Z,,0,,,NaN,,,,,,false,,,,117296,117295.80000001192,,117295.5,,117307.533,8,400,,,
sequence,flow.Sequence,4_17,2023-11-01T16:06:38.729Z,,0,,,3202.1600000119215,completion,,,,,false,,,,117296.30000001192,117295.80000001192,114077.243,114088.60000002384,114093.64,117307.533,8,400,,,
trial,html.Screen,4_18_0,2023-11-01T16:06:41.620Z,,0,1,,2879.267000011925,response,ISIC_0027641.JPG,9,ISIC_0067412.JPG,ISIC_0027641.JPG,false,1,keypress(m),500,120187.40000003576,120186.80000001192,117290.974,117296.60000002384,117307.533,120205.055,8,400,19,,ISIC_0067412.JPG
break,html.Screen,4_18_1,2023-11-01T16:06:41.622Z,,0,,,NaN,,,,,,false,,,,120189.80000001192,120189.19999998808,,120187.90000003576,,120205.055,8,400,,,
break_continue,html.Screen,4_18_2,2023-11-01T16:06:41.623Z,,0,,,NaN,,,,,,false,,,,120190.60000002384,120190.30000001192,,120190.10000002384,,120205.055,8,400,,,
sequence,flow.Sequence,4_18,2023-11-01T16:06:41.624Z,,0,,,2882.767000011925,completion,,,,,false,,,,120191,120190.30000001192,117290.974,117296.5,117307.533,120205.055,8,400,,,
trial,html.Screen,4_19_0,2023-11-01T16:06:45.856Z,,0,1,,4218.545000023849,response,ISIC_7205745.JPG,28,ISIC_2222091.JPG,ISIC_2222091.JPG,false,0,keypress(z),500,124423.90000003576,124423.60000002384,120188.553,120191.40000003576,120205.055,124434.73,8,400,20,,ISIC_7205745.JPG
break,html.Screen,4_19_1,2023-11-01T16:06:45.857Z,,0,,,NaN,,,,,,false,,,,124424.90000003576,124424.69999998808,,124424.30000001192,,124434.73,8,400,,,
break_continue,html.Screen,4_19_2,2023-11-01T16:06:45.858Z,,0,,,NaN,,,,,,false,,,,124425.69999998808,124425.5,,124425.30000001192,,124434.73,8,400,,,
sequence,flow.Sequence,4_19,2023-11-01T16:06:45.858Z,,0,,,4220.445000000007,completion,,,,,false,,,,124425.90000003576,124425.5,120188.553,120191.30000001192,120205.055,124434.73,8,400,,,
trial,html.Screen,4_20_0,2023-11-01T16:06:48.617Z,,0,1,,2749.469999988083,response,ISIC_7785723.JPG,12,ISIC_6687927.JPG,ISIC_7785723.JPG,false,1,keypress(m),500,127184.69999998808,127184.19999998808,124418.261,124426.10000002384,124434.73,127215.766,8,400,21,,ISIC_6687927.JPG
break,html.Screen,4_20_1,2023-11-01T16:06:48.619Z,,0,,,NaN,,,,,,false,,,,127186,127185.69999998808,,127185.19999998808,,127215.766,8,400,,,
break_continue,html.Screen,4_20_2,2023-11-01T16:06:48.619Z,,0,,,NaN,,,,,,false,,,,127186.80000001192,127186.5,,127186.30000001192,,127215.766,8,400,,,
sequence,flow.Sequence,4_20,2023-11-01T16:06:48.620Z,,0,,,2751.770000000004,completion,,,,,false,,,,127187.19999998808,127186.5,124418.261,124426.10000002384,124434.73,127215.766,8,400,,,
trial,html.Screen,4_21_0,2023-11-01T16:06:51.407Z,,0,1,,2758.7339999999967,response,ISIC_0024802.JPG,7,ISIC_4397068.JPG,ISIC_4397068.JPG,false,0,keypress(z),500,129974.69999998808,129974.5,127199.332,127187.5,127215.766,129979.751,8,400,22,,ISIC_0024802.JPG
break,html.Screen,4_21_1,2023-11-01T16:06:51.408Z,,0,,,NaN,,,,,,false,,,,129975.30000001192,129975.10000002384,,129974.80000001192,,129979.751,8,400,,,
break_continue,html.Screen,4_21_2,2023-11-01T16:06:51.408Z,,0,,,NaN,,,,,,false,,,,129975.69999998808,129975.60000002384,,129975.40000003576,,129979.751,8,400,,,
sequence,flow.Sequence,4_21,2023-11-01T16:06:51.409Z,,0,,,2759.8340000238386,completion,,,,,false,,,,129976,129975.60000002384,127199.332,127187.40000003576,127215.766,129979.751,8,400,,,
trial,html.Screen,4_22_0,2023-11-01T16:06:54.612Z,,0,1,,3199.248999999996,response,ISIC_0027125.JPG,11,ISIC_0027126.JPG,ISIC_0027125.JPG,false,1,keypress(m),500,133179.5,133179,129963.173,129976.19999998808,129979.751,133193.709,8,400,23,,ISIC_0027126.JPG
break,html.Screen,4_22_1,2023-11-01T16:06:54.614Z,,0,,,NaN,,,,,,false,,,,133181.60000002384,133181.10000002384,,133180,,133193.709,8,400,,,
break_continue,html.Screen,4_22_2,2023-11-01T16:06:54.615Z,,0,,,NaN,,,,,,false,,,,133182.30000001192,133182,,133181.80000001192,,133193.709,8,400,,,
sequence,flow.Sequence,4_22,2023-11-01T16:06:54.615Z,,0,,,3202.248999999996,completion,,,,,false,,,,133182.69999998808,133182,129963.173,129976.10000002384,129979.751,133193.709,8,400,,,
trial,html.Screen,4_23_0,2023-11-01T16:06:57.490Z,,0,1,,2862.8910000238393,response,ISIC_0029459.JPG,8,ISIC_1612350.JPG,ISIC_1612350.JPG,false,0,keypress(z),500,136057,136056.60000002384,133177.237,133183.40000003576,133193.709,136074.503,8,400,24,,ISIC_0029459.JPG
break,html.Screen,4_23_1,2023-11-01T16:06:57.492Z,,0,,,NaN,,,,,,false,,,,136059.10000002384,136058.60000002384,,136057.40000003576,,136074.503,8,400,,,
break_continue,html.Screen,4_23_2,2023-11-01T16:06:57.493Z,,0,,,NaN,,,,,,false,,,,136059.90000003576,136059.69999998808,,136059.40000003576,,136074.503,8,400,,,
sequence,flow.Sequence,4_23,2023-11-01T16:06:57.493Z,,0,,,2865.9909999880765,completion,,,,,false,,,,136060.19999998808,136059.69999998808,133177.237,133183.19999998808,133193.709,136074.503,8,400,,,
trial,html.Screen,4_24_0,2023-11-01T16:07:00.364Z,,0,1,,2856.297000011924,response,ISIC_0060817.JPG,12,ISIC_2166957.JPG,ISIC_2166957.JPG,false,0,keypress(z),500,138931.19999998808,138930.80000001192,136057.561,136060.5,136074.503,138938.632,8,400,25,,ISIC_0060817.JPG
break,html.Screen,4_24_1,2023-11-01T16:07:00.365Z,,0,,,NaN,,,,,,false,,,,138932.30000001192,138932,,138931.60000002384,,138938.632,8,400,,,
break_continue,html.Screen,4_24_2,2023-11-01T16:07:00.366Z,,0,,,NaN,,,,,,false,,,,138932.90000003576,138932.69999998808,,138932.40000003576,,138938.632,8,400,,,
sequence,flow.Sequence,4_24,2023-11-01T16:07:00.366Z,,0,,,2858.196999988082,completion,,,,,false,,,,138933.19999998808,138932.69999998808,136057.561,136060.40000003576,136074.503,138938.632,8,400,,,
trial,html.Screen,4_25_0,2023-11-01T16:07:03.153Z,,0,1,,2781.5679999880667,response,ISIC_5156491.JPG,11,ISIC_0000046.JPG,ISIC_5156491.JPG,false,1,keypress(m),500,141720.5,141720.19999998808,138922.625,138933.40000003576,138938.632,141736.258,8,400,26,,ISIC_0000046.JPG
break,html.Screen,4_25_1,2023-11-01T16:07:03.154Z,,0,,,NaN,,,,,,false,,,,141721.60000002384,141721.19999998808,,141720.80000001192,,141736.258,8,400,,,
break_continue,html.Screen,4_25_2,2023-11-01T16:07:03.155Z,,0,,,NaN,,,,,,false,,,,141722.10000002384,141721.90000003576,,141721.80000001192,,141736.258,8,400,,,
sequence,flow.Sequence,4_25,2023-11-01T16:07:03.155Z,,0,,,2783.2680000357504,completion,,,,,false,,,,141722.40000003576,141721.90000003576,138922.625,138933.30000001192,138938.632,141736.258,8,400,,,
trial,html.Screen,4_26_0,2023-11-01T16:07:05.927Z,,0,1,,2757.4419999880774,response,ISIC_2856521.JPG,7,ISIC_0210282.JPG,ISIC_0210282.JPG,false,0,keypress(z),500,144494,144493.69999998808,141719.285,141722.5,141736.258,144500.483,8,400,27,,ISIC_2856521.JPG
break,html.Screen,4_26_1,2023-11-01T16:07:05.928Z,,0,,,NaN,,,,,,false,,,,144495.30000001192,144494.80000001192,,144494.30000001192,,144500.483,8,400,,,
break_continue,html.Screen,4_26_2,2023-11-01T16:07:05.928Z,,0,,,NaN,,,,,,false,,,,144495.80000001192,144495.69999998808,,144495.5,,144500.483,8,400,,,
sequence,flow.Sequence,4_26,2023-11-01T16:07:05.929Z,,0,,,2759.4419999880774,completion,,,,,false,,,,144496.10000002384,144495.69999998808,141719.285,141722.40000003576,141736.258,144500.483,8,400,,,
trial,html.Screen,4_27_0,2023-11-01T16:07:08.668Z,,0,1,,2734.6170000238344,response,ISIC_3193774.JPG,12,ISIC_5942564.JPG,ISIC_5942564.JPG,false,0,keypress(z),500,147235.5,147235.10000002384,144484.545,144496.30000001192,144500.483,147248.144,8,400,28,,ISIC_3193774.JPG
break,html.Screen,4_27_1,2023-11-01T16:07:08.669Z,,0,,,NaN,,,,,,false,,,,147236.69999998808,147236.30000001192,,147235.80000001192,,147248.144,8,400,,,
break_continue,html.Screen,4_27_2,2023-11-01T16:07:08.670Z,,0,,,NaN,,,,,,false,,,,147237.30000001192,147237,,147236.90000003576,,147248.144,8,400,,,
sequence,flow.Sequence,4_27,2023-11-01T16:07:08.670Z,,0,,,2736.5169999999925,completion,,,,,false,,,,147237.5,147237,144484.545,144496.19999998808,144500.483,147248.144,8,400,,,
trial,html.Screen,4_28_0,2023-11-01T16:07:11.478Z,,0,1,,2796.9560000238416,response,ISIC_0011035.JPG,9,ISIC_7814144.JPG,ISIC_7814144.JPG,false,0,keypress(z),500,150045.40000003576,150045.10000002384,147231.547,147237.69999998808,147248.144,150062.28,8,400,29,,ISIC_0011035.JPG
break,html.Screen,4_28_1,2023-11-01T16:07:11.479Z,,0,,,NaN,,,,,,false,,,,150046.10000002384,150046,,150045.5,,150062.28,8,400,,,
break_continue,html.Screen,4_28_2,2023-11-01T16:07:11.479Z,,0,,,NaN,,,,,,false,,,,150046.5,150046.40000003576,,150046.30000001192,,150062.28,8,400,,,
sequence,flow.Sequence,4_28,2023-11-01T16:07:11.479Z,,0,,,2798.2560000357626,completion,,,,,false,,,,150046.69999998808,150046.40000003576,147231.547,147237.60000002384,147248.144,150062.28,8,400,,,
trial,html.Screen,4_29_0,2023-11-01T16:07:14.203Z,,0,1,,2708.220000000001,response,ISIC_1314502.JPG,11,ISIC_0033977.JPG,ISIC_1314502.JPG,false,1,keypress(m),500,152770.69999998808,152770.5,150045.634,150046.90000003576,150062.28,152776.558,8,400,30,,ISIC_0033977.JPG
break,html.Screen,4_29_1,2023-11-01T16:07:14.204Z,,0,,,NaN,,,,,,false,,,,152771.40000003576,152771.10000002384,,152770.90000003576,,152776.558,8,400,,,
break_continue,html.Screen,4_29_2,2023-11-01T16:07:14.204Z,,0,,,NaN,,,,,,false,,,,152771.69999998808,152771.60000002384,,152771.5,,152776.558,8,400,,,
sequence,flow.Sequence,4_29,2023-11-01T16:07:14.204Z,,0,,,2709.320000023843,completion,,,,,false,,,,152771.80000001192,152771.60000002384,150045.634,150046.80000001192,150062.28,152776.558,8,400,,,
trial,html.Screen,4_30_0,2023-11-01T16:07:17.059Z,,0,1,,2849.641999988089,response,ISIC_0027112.JPG,9,ISIC_6231450.JPG,ISIC_0027112.JPG,false,1,keypress(m),500,155626.40000003576,155626.19999998808,152759.672,152771.90000003576,152776.558,155640.862,8,400,31,,ISIC_6231450.JPG
break,html.Screen,4_30_1,2023-11-01T16:07:17.060Z,,0,,,NaN,,,,,,false,,,,155626.90000003576,155626.80000001192,,155626.5,,155640.862,8,400,,,
break_continue,html.Screen,4_30_2,2023-11-01T16:07:17.060Z,,0,,,NaN,,,,,,false,,,,155627.19999998808,155627.10000002384,,155627,,155640.862,8,400,,,
sequence,flow.Sequence,4_30,2023-11-01T16:07:17.060Z,,0,,,2850.542000023852,completion,,,,,false,,,,155627.30000001192,155627.10000002384,152759.672,152771.90000003576,152776.558,155640.862,8,400,,,
trial,html.Screen,4_31_0,2023-11-01T16:07:20.054Z,,0,1,,2980.6380000000063,response,ISIC_0061183.JPG,7,ISIC_0062524.JPG,ISIC_0062524.JPG,false,0,keypress(z),500,158621.69999998808,158621.5,155624.697,155627.30000001192,155640.862,158638.354,8,400,32,,ISIC_0061183.JPG
break,html.Screen,4_31_1,2023-11-01T16:07:20.055Z,,0,,,NaN,,,,,,false,,,,158622.30000001192,158622.10000002384,,158621.80000001192,,158638.354,8,400,,,
break_continue,html.Screen,4_31_2,2023-11-01T16:07:20.055Z,,0,,,NaN,,,,,,false,,,,158622.5,158622.40000003576,,158622.30000001192,,158638.354,8,400,,,
sequence,flow.Sequence,4_31,2023-11-01T16:07:20.055Z,,0,,,2981.538000035769,completion,,,,,false,,,,158622.60000002384,158622.40000003576,155624.697,155627.30000001192,155640.862,158638.354,8,400,,,
trial,html.Screen,4_32_0,2023-11-01T16:07:22.733Z,,0,1,,2662.24600002385,response,ISIC_0055293.JPG,6,ISIC_2384274.JPG,ISIC_2384274.JPG,false,0,keypress(z),500,161300.80000001192,161300.60000002384,158621.558,158622.69999998808,158638.354,161302.516,8,400,33,,ISIC_0055293.JPG
break,html.Screen,4_32_1,2023-11-01T16:07:22.734Z,,0,,,NaN,,,,,,false,,,,161301.30000001192,161301.19999998808,,161300.90000003576,,161302.516,8,400,,,
break_continue,html.Screen,4_32_2,2023-11-01T16:07:22.734Z,,0,,,NaN,,,,,,false,,,,161301.69999998808,161301.5,,161301.40000003576,,161302.516,8,400,,,
sequence,flow.Sequence,4_32,2023-11-01T16:07:22.734Z,,0,,,2663.146000000008,completion,,,,,false,,,,161301.69999998808,161301.5,158621.558,158622.69999998808,158638.354,161302.516,8,400,,,
trial,html.Screen,4_33_0,2023-11-01T16:07:25.681Z,,0,1,,2945.183999988076,response,ISIC_0032747.JPG,6,ISIC_0010797.JPG,ISIC_0032747.JPG,false,1,keypress(m),500,164248,164247.69999998808,161286.082,161301.90000003576,161302.516,164271.622,8,400,34,,ISIC_0010797.JPG
break,html.Screen,4_33_1,2023-11-01T16:07:25.682Z,,0,,,NaN,,,,,,false,,,,164249.10000002384,164248.80000001192,,164248.30000001192,,164271.622,8,400,,,
break_continue,html.Screen,4_33_2,2023-11-01T16:07:25.683Z,,0,,,NaN,,,,,,false,,,,164250.10000002384,164249.80000001192,,164249.60000002384,,164271.622,8,400,,,
sequence,flow.Sequence,4_33,2023-11-01T16:07:25.683Z,,0,,,2947.2840000119177,completion,,,,,false,,,,164250.40000003576,164249.80000001192,161286.082,161301.80000001192,161302.516,164271.622,8,400,,,
trial,html.Screen,4_34_0,2023-11-01T16:07:28.393Z,,0,1,,2688.478000023839,response,ISIC_0063655.JPG,9,ISIC_8624186.JPG,ISIC_8624186.JPG,false,0,keypress(z),500,166960.69999998808,166960.10000002384,164233.546,164250.5,164271.622,166964.269,8,400,35,,ISIC_0063655.JPG
break,html.Screen,4_34_1,2023-11-01T16:07:28.395Z,,0,,,NaN,,,,,,false,,,,166962.19999998808,166961.60000002384,,166961.10000002384,,166964.269,8,400,,,
break_continue,html.Screen,4_34_2,2023-11-01T16:07:28.395Z,,0,,,NaN,,,,,,false,,,,166962.69999998808,166962.60000002384,,166962.40000003576,,166964.269,8,400,,,
sequence,flow.Sequence,4_34,2023-11-01T16:07:28.396Z,,0,,,2690.978000023839,completion,,,,,false,,,,166963,166962.60000002384,164233.546,164250.40000003576,164271.622,166964.269,8,400,,,
trial,html.Screen,4_35_0,2023-11-01T16:07:31.137Z,,0,1,,2739.930999988079,response,ISIC_9155855.JPG,8,ISIC_0031096.JPG,ISIC_9155855.JPG,false,1,keypress(m),500,169704.5,169704.19999998808,166947.63,166963.19999998808,166964.269,169711.882,8,400,36,,ISIC_0031096.JPG
break,html.Screen,4_35_1,2023-11-01T16:07:31.138Z,,0,,,NaN,,,,,,false,,,,169705.5,169705.30000001192,,169704.80000001192,,169711.882,8,400,,,
break_continue,html.Screen,4_35_2,2023-11-01T16:07:31.139Z,,0,,,NaN,,,,,,false,,,,169706.10000002384,169706,,169705.80000001192,,169711.882,8,400,,,
sequence,flow.Sequence,4_35,2023-11-01T16:07:31.139Z,,0,,,2741.7309999999998,completion,,,,,false,,,,169706.30000001192,169706,166947.63,166963.10000002384,166964.269,169711.882,8,400,,,
trial,html.Screen,4_36_0,2023-11-01T16:07:33.846Z,,0,1,,2700.9180000119086,response,ISIC_0030666.JPG,5,ISIC_7775535.JPG,ISIC_7775535.JPG,false,0,keypress(z),500,172413,172412.80000001192,169695.441,169706.60000002384,169711.882,172426.543,8,400,37,,ISIC_0030666.JPG
break,html.Screen,4_36_1,2023-11-01T16:07:33.846Z,,0,,,NaN,,,,,,false,,,,172413.80000001192,172413.40000003576,,172413.10000002384,,172426.543,8,400,,,
break_continue,html.Screen,4_36_2,2023-11-01T16:07:33.847Z,,0,,,NaN,,,,,,false,,,,172414,172413.90000003576,,172413.80000001192,,172426.543,8,400,,,
sequence,flow.Sequence,4_36,2023-11-01T16:07:33.847Z,,0,,,2702.0180000357504,completion,,,,,false,,,,172414.10000002384,172413.90000003576,169695.441,169706.5,169711.882,172426.543,8,400,,,
trial,html.Screen,4_37_0,2023-11-01T16:07:36.474Z,,0,1,,2613.956999999995,response,ISIC_9307584.JPG,12,ISIC_0012081.JPG,ISIC_9307584.JPG,false,1,keypress(m),500,175041.30000001192,175040.5,172410.22,172414.10000002384,172426.543,175057.201,8,400,38,,ISIC_0012081.JPG
break,html.Screen,4_37_1,2023-11-01T16:07:36.476Z,,0,,,NaN,,,,,,false,,,,175043.10000002384,175042.60000002384,,175042,,175057.201,8,400,,,
break_continue,html.Screen,4_37_2,2023-11-01T16:07:36.477Z,,0,,,NaN,,,,,,false,,,,175044,175043.69999998808,,175043.40000003576,,175057.201,8,400,,,
sequence,flow.Sequence,4_37,2023-11-01T16:07:36.477Z,,0,,,2617.156999988074,completion,,,,,false,,,,175044.40000003576,175043.69999998808,172410.22,172414.10000002384,172426.543,175057.201,8,400,,,
trial,html.Screen,4_38_0,2023-11-01T16:07:39.906Z,,0,1,,3416.09900001192,response,ISIC_5382189.JPG,8,ISIC_5929687.JPG,ISIC_5929687.JPG,false,0,keypress(z),500,178473.80000001192,178473.30000001192,175041.377,175044.60000002384,175057.201,178487.516,8,400,39,,ISIC_5382189.JPG
break,html.Screen,4_38_1,2023-11-01T16:07:39.908Z,,0,,,NaN,,,,,,false,,,,178475.19999998808,178474.80000001192,,178474.19999998808,,178487.516,8,400,,,
break_continue,html.Screen,4_38_2,2023-11-01T16:07:39.908Z,,0,,,NaN,,,,,,false,,,,178475.80000001192,178475.60000002384,,178475.40000003576,,178487.516,8,400,,,
sequence,flow.Sequence,4_38,2023-11-01T16:07:39.909Z,,0,,,3418.399000023841,completion,,,,,false,,,,178476.10000002384,178475.60000002384,175041.377,175044.60000002384,175057.201,178487.516,8,400,,,
trial,html.Screen,4_39_0,2023-11-01T16:07:42.653Z,,0,1,,2731.8840000357595,response,ISIC_0032598.JPG,8,ISIC_1607865.JPG,ISIC_1607865.JPG,false,0,keypress(z),500,181219.90000003576,181219.40000003576,178470.611,178476.5,178487.516,181235.324,8,400,40,,ISIC_0032598.JPG
break,html.Screen,4_39_1,2023-11-01T16:07:42.654Z,,0,,,NaN,,,,,,false,,,,181221.69999998808,181221.10000002384,,181220.40000003576,,181235.324,8,400,,,
break_continue,html.Screen,4_39_2,2023-11-01T16:07:42.655Z,,0,,,NaN,,,,,,false,,,,181222.40000003576,181222.19999998808,,181222,,181235.324,8,400,,,
sequence,flow.Sequence,4_39,2023-11-01T16:07:42.655Z,,0,,,2734.683999988076,completion,,,,,false,,,,181222.69999998808,181222.19999998808,178470.611,178476.5,178487.516,181235.324,8,400,,,
trial,html.Screen,4_40_0,2023-11-01T16:07:46.036Z,,0,1,,3368.0760000357695,response,ISIC_0025931.JPG,13,ISIC_7010552.JPG,ISIC_0025931.JPG,false,1,keypress(m),500,184603.69999998808,184603.40000003576,181218.97,181223.10000002384,181235.324,184615.606,8,400,41,,ISIC_7010552.JPG
break,html.Screen,4_40_1,2023-11-01T16:07:46.037Z,,0,,,NaN,,,,,,false,,,,184604.90000003576,184604.40000003576,,184603.90000003576,,184615.606,8,400,,,
break_continue,html.Screen,4_40_2,2023-11-01T16:07:46.038Z,,0,,,NaN,,,,,,false,,,,184605.40000003576,184605.19999998808,,184605,,184615.606,8,400,,,
sequence,flow.Sequence,4_40,2023-11-01T16:07:46.038Z,,0,,,3369.875999988086,completion,,,,,false,,,,184605.5,184605.19999998808,181218.97,181223,181235.324,184615.606,8,400,,,
trial,html.Screen,4_41_0,2023-11-01T16:07:48.624Z,,0,1,,2575.3940000000002,response,ISIC_8634334.JPG,11,ISIC_0047031.JPG,ISIC_8634334.JPG,false,1,keypress(m),500,187191.5,187191,184599.622,184605.69999998808,184615.606,187196.611,8,400,42,,ISIC_0047031.JPG
break,html.Screen,4_41_1,2023-11-01T16:07:48.625Z,,0,,,NaN,,,,,,false,,,,187192.90000003576,187192.19999998808,,187191.69999998808,,187196.611,8,400,,,
break_continue,html.Screen,4_41_2,2023-11-01T16:07:48.626Z,,0,,,NaN,,,,,,false,,,,187193.40000003576,187193.19999998808,,187193,,187196.611,8,400,,,
sequence,flow.Sequence,4_41,2023-11-01T16:07:48.626Z,,0,,,2577.5939999880793,completion,,,,,false,,,,187193.60000002384,187193.19999998808,184599.622,184605.60000002384,184615.606,187196.611,8,400,,,
trial,html.Screen,4_42_0,2023-11-01T16:07:51.290Z,,0,1,,2660.4890000238374,response,ISIC_0026911.JPG,9,ISIC_0072290.JPG,ISIC_0026911.JPG,false,1,keypress(m),500,189857.60000002384,189857.10000002384,187180.619,187193.80000001192,187196.611,189861.031,8,400,43,,ISIC_0072290.JPG
break,html.Screen,4_42_1,2023-11-01T16:07:51.292Z,,0,,,NaN,,,,,,false,,,,189859.10000002384,189858.5,,189857.90000003576,,189861.031,8,400,,,
break_continue,html.Screen,4_42_2,2023-11-01T16:07:51.292Z,,0,,,NaN,,,,,,false,,,,189859.80000001192,189859.60000002384,,189859.40000003576,,189861.031,8,400,,,
sequence,flow.Sequence,4_42,2023-11-01T16:07:51.293Z,,0,,,2662.9890000238374,completion,,,,,false,,,,189860.10000002384,189859.60000002384,187180.619,187193.80000001192,187196.611,189861.031,8,400,,,
trial,html.Screen,4_43_0,2023-11-01T16:07:53.926Z,,0,1,,2631.8690000357747,response,ISIC_8287726.JPG,7,ISIC_9335652.JPG,ISIC_8287726.JPG,false,1,keypress(m),500,192493.5,192492.90000003576,189844.08,189860.40000003576,189861.031,192508.705,8,400,44,,ISIC_9335652.JPG
break,html.Screen,4_43_1,2023-11-01T16:07:53.928Z,,0,,,NaN,,,,,,false,,,,192495.30000001192,192494.60000002384,,192493.90000003576,,192508.705,8,400,,,
break_continue,html.Screen,4_43_2,2023-11-01T16:07:53.929Z,,0,,,NaN,,,,,,false,,,,192496.10000002384,192495.80000001192,,192495.60000002384,,192508.705,8,400,,,
sequence,flow.Sequence,4_43,2023-11-01T16:07:53.929Z,,0,,,2634.769000011933,completion,,,,,false,,,,192496.5,192495.80000001192,189844.08,189860.30000001192,189861.031,192508.705,8,400,,,
trial,html.Screen,4_44_0,2023-11-01T16:07:56.926Z,,0,1,,2984.5950000119337,response,ISIC_0567814.JPG,9,ISIC_2733043.JPG,ISIC_0567814.JPG,false,1,keypress(m),500,195493.69999998808,195493.30000001192,192492.547,192496.69999998808,192508.705,195506.053,8,400,45,,ISIC_2733043.JPG
break,html.Screen,4_44_1,2023-11-01T16:07:56.928Z,,0,,,NaN,,,,,,false,,,,195495.40000003576,195494.69999998808,,195494.10000002384,,195506.053,8,400,,,
break_continue,html.Screen,4_44_2,2023-11-01T16:07:56.929Z,,0,,,NaN,,,,,,false,,,,195496.10000002384,195495.80000001192,,195495.60000002384,,195506.053,8,400,,,
sequence,flow.Sequence,4_44,2023-11-01T16:07:56.929Z,,0,,,2987.0950000119337,completion,,,,,false,,,,195496.30000001192,195495.80000001192,192492.547,192496.69999998808,192508.705,195506.053,8,400,,,
trial,html.Screen,4_45_0,2023-11-01T16:08:00.116Z,,0,1,,3177.2470000119065,response,ISIC_6118204.JPG,8,ISIC_0061067.JPG,ISIC_6118204.JPG,false,1,keypress(m),500,198683.69999998808,198683.30000001192,195489.852,195496.5,195506.053,198686.635,8,400,46,,ISIC_0061067.JPG
break,html.Screen,4_45_1,2023-11-01T16:08:00.118Z,,0,,,NaN,,,,,,false,,,,198684.90000003576,198684.5,,198684.10000002384,,198686.635,8,400,,,
break_continue,html.Screen,4_45_2,2023-11-01T16:08:00.118Z,,0,,,NaN,,,,,,false,,,,198685.60000002384,198685.30000001192,,198685.19999998808,,198686.635,8,400,,,
sequence,flow.Sequence,4_45,2023-11-01T16:08:00.118Z,,0,,,3179.2470000119065,completion,,,,,false,,,,198685.80000001192,198685.30000001192,195489.852,195496.5,195506.053,198686.635,8,400,,,
trial,html.Screen,4_46_0,2023-11-01T16:08:03.039Z,,0,1,,2919.0649999880698,response,ISIC_8188797.JPG,5,ISIC_0011530.JPG,ISIC_8188797.JPG,false,1,keypress(m),500,201605.90000003576,201605.69999998808,198670.255,198686,198686.635,201617.37,8,400,47,,ISIC_0011530.JPG
break,html.Screen,4_46_1,2023-11-01T16:08:03.040Z,,0,,,NaN,,,,,,false,,,,201607,201606.5,,201606.30000001192,,201617.37,8,400,,,
break_continue,html.Screen,4_46_2,2023-11-01T16:08:03.040Z,,0,,,NaN,,,,,,false,,,,201607.5,201607.30000001192,,201607.19999998808,,201617.37,8,400,,,
sequence,flow.Sequence,4_46,2023-11-01T16:08:03.040Z,,0,,,2920.6650000119116,completion,,,,,false,,,,201607.69999998808,201607.30000001192,198670.255,198685.90000003576,198686.635,201617.37,8,400,,,
trial,html.Screen,4_47_0,2023-11-01T16:08:05.670Z,,0,1,,2619.7300000238465,response,ISIC_0032162.JPG,10,ISIC_6478506.JPG,ISIC_6478506.JPG,false,0,keypress(z),500,204237.5,204237.10000002384,201601.125,201607.90000003576,201617.37,204248.365,8,400,48,,ISIC_0032162.JPG
break,html.Screen,4_47_1,2023-11-01T16:08:05.671Z,,0,,,NaN,,,,,,false,,,,204238.80000001192,204238.30000001192,,204237.80000001192,,204248.365,8,400,,,
break_continue,html.Screen,4_47_2,2023-11-01T16:08:05.672Z,,0,,,NaN,,,,,,false,,,,204239.30000001192,204239.19999998808,,204239,,204248.365,8,400,,,
sequence,flow.Sequence,4_47,2023-11-01T16:08:05.672Z,,0,,,2621.8299999880837,completion,,,,,false,,,,204239.60000002384,204239.19999998808,201601.125,201607.80000001192,201617.37,204248.365,8,400,,,
trial,html.Screen,4_48_0,2023-11-01T16:08:09.379Z,,0,1,,3697.1350000000093,response,ISIC_7071944.JPG,12,ISIC_9631669.JPG,ISIC_7071944.JPG,false,1,keypress(m),500,207946.10000002384,207945.5,204232.066,204239.69999998808,204248.365,207961.855,8,400,49,,ISIC_9631669.JPG
break,html.Screen,4_48_1,2023-11-01T16:08:09.381Z,,0,,,NaN,,,,,,false,,,,207948.30000001192,207947.40000003576,,207946.69999998808,,207961.855,8,400,,,
break_continue,html.Screen,4_48_2,2023-11-01T16:08:09.382Z,,0,,,NaN,,,,,,false,,,,207949.19999998808,207949,,207948.69999998808,,207961.855,8,400,,,
sequence,flow.Sequence,4_48,2023-11-01T16:08:09.382Z,,0,,,3700.6350000000093,completion,,,,,false,,,,207949.60000002384,207949,204232.066,204239.69999998808,204248.365,207961.855,8,400,,,
trial,html.Screen,4_49_0,2023-11-01T16:08:11.967Z,,0,1,,2571.8449999880686,response,ISIC_7035246.JPG,6,ISIC_0032160.JPG,ISIC_0032160.JPG,false,0,keypress(z),500,210534,210533.69999998808,207945.53,207949.90000003576,207961.855,210542.894,8,400,50,,ISIC_7035246.JPG
break,html.Screen,4_49_1,2023-11-01T16:08:21.953Z,,0,,,9991.62599999999,timeout,,,,,false,,,,220520,220518.112,210526.395,210534.30000001192,210542.894,220534.52,8,400,,,
break_continue,html.Screen,4_49_2,2023-11-01T16:08:22.465Z,,0,,,484.9800000000105,response,,,,,false,continue,keypress(Space),,221032.80000001192,221019.5,220518.112,220520.19999998808,220534.52,221050.926,8,400,,,
sequence,flow.Sequence,4_49,2023-11-01T16:08:22.466Z,,0,,,13057.64499999999,completion,,,,,false,,,,221033.10000002384,221019.5,207945.53,207949.80000001192,207961.855,221050.926,8,400,,,
trial,html.Screen,4_50_0,2023-11-01T16:08:25.210Z,,0,2,,2726.374000011914,response,ISIC_7181296.JPG,11,ISIC_7629589.JPG,ISIC_7181296.JPG,false,1,keypress(m),500,223777.60000002384,223777.30000001192,221017.562,221033.30000001192,221050.926,223781.354,8,400,1,,ISIC_7629589.JPG
break,html.Screen,4_50_1,2023-11-01T16:08:25.211Z,,0,,,NaN,,,,,,false,,,,223778.80000001192,223778.30000001192,,223777.80000001192,,223781.354,8,400,,,
break_continue,html.Screen,4_50_2,2023-11-01T16:08:25.212Z,,0,,,NaN,,,,,,false,,,,223779.40000003576,223779.10000002384,,223779,,223781.354,8,400,,,
sequence,flow.Sequence,4_50,2023-11-01T16:08:25.212Z,,0,,,2728.174000023835,completion,,,,,false,,,,223779.5,223779.10000002384,221017.562,221033.19999998808,221050.926,223781.354,8,400,,,
trial,html.Screen,4_51_0,2023-11-01T16:08:27.860Z,,0,2,,2645.946000011929,response,ISIC_0010103.JPG,9,ISIC_2266011.JPG,ISIC_2266011.JPG,false,0,keypress(z),500,226427.40000003576,226427.30000001192,223765.008,223779.69999998808,223781.354,226451.005,8,400,2,,ISIC_0010103.JPG
break,html.Screen,4_51_1,2023-11-01T16:08:27.861Z,,0,,,NaN,,,,,,false,,,,226428.10000002384,226427.90000003576,,226427.60000002384,,226451.005,8,400,,,
break_continue,html.Screen,4_51_2,2023-11-01T16:08:27.861Z,,0,,,NaN,,,,,,false,,,,226428.40000003576,226428.40000003576,,226428.19999998808,,226451.005,8,400,,,
sequence,flow.Sequence,4_51,2023-11-01T16:08:27.861Z,,0,,,2647.0460000357707,completion,,,,,false,,,,226428.60000002384,226428.40000003576,223765.008,223779.60000002384,223781.354,226451.005,8,400,,,
trial,html.Screen,4_52_0,2023-11-01T16:08:30.603Z,,0,2,,2719.095000023837,response,ISIC_0068314.JPG,7,ISIC_0057180.JPG,ISIC_0068314.JPG,false,1,keypress(m),500,229170.40000003576,229170.10000002384,226412.86,226428.60000002384,226451.005,229176.647,8,400,3,,ISIC_0057180.JPG
break,html.Screen,4_52_1,2023-11-01T16:08:30.604Z,,0,,,NaN,,,,,,false,,,,229171.10000002384,229170.90000003576,,229170.5,,229176.647,8,400,,,
break_continue,html.Screen,4_52_2,2023-11-01T16:08:30.604Z,,0,,,NaN,,,,,,false,,,,229171.30000001192,229171.19999998808,,229171.19999998808,,229176.647,8,400,,,
sequence,flow.Sequence,4_52,2023-11-01T16:08:30.604Z,,0,,,2720.1949999880744,completion,,,,,false,,,,229171.40000003576,229171.19999998808,226412.86,226428.60000002384,226451.005,229176.647,8,400,,,
trial,html.Screen,4_53_0,2023-11-01T16:08:32.976Z,,0,2,,2365.552999988082,response,ISIC_1805163.JPG,5,ISIC_0026089.JPG,ISIC_1805163.JPG,false,1,keypress(m),500,231543.19999998808,231542.19999998808,229159.894,229171.60000002384,229176.647,231558.002,8,400,4,,ISIC_0026089.JPG
break,html.Screen,4_53_1,2023-11-01T16:08:32.978Z,,0,,,NaN,,,,,,false,,,,231545.10000002384,231544.60000002384,,231543.60000002384,,231558.002,8,400,,,
break_continue,html.Screen,4_53_2,2023-11-01T16:08:32.979Z,,0,,,NaN,,,,,,false,,,,231545.90000003576,231545.69999998808,,231545.30000001192,,231558.002,8,400,,,
sequence,flow.Sequence,4_53,2023-11-01T16:08:32.979Z,,0,,,2369.052999988082,completion,,,,,false,,,,231546.19999998808,231545.69999998808,229159.894,229171.60000002384,229176.647,231558.002,8,400,,,
trial,html.Screen,4_54_0,2023-11-01T16:08:35.417Z,,0,2,,2425.398000035755,response,ISIC_6620748.JPG,6,ISIC_5202231.JPG,ISIC_5202231.JPG,false,0,keypress(z),500,233983.90000003576,233983.40000003576,231541.68,231546.40000003576,231558.002,233989.143,8,400,5,,ISIC_6620748.JPG
break,html.Screen,4_54_1,2023-11-01T16:08:35.418Z,,0,,,NaN,,,,,,false,,,,233985.60000002384,233985,,233984.19999998808,,233989.143,8,400,,,
break_continue,html.Screen,4_54_2,2023-11-01T16:08:35.419Z,,0,,,NaN,,,,,,false,,,,233986.19999998808,233986.10000002384,,233985.90000003576,,233989.143,8,400,,,
sequence,flow.Sequence,4_54,2023-11-01T16:08:35.419Z,,0,,,2428.098000023834,completion,,,,,false,,,,233986.5,233986.10000002384,231541.68,231546.30000001192,231558.002,233989.143,8,400,,,
trial,html.Screen,4_55_0,2023-11-01T16:08:37.796Z,,0,2,,2374.15700001191,response,ISIC_0024455.JPG,6,ISIC_0070435.JPG,ISIC_0024455.JPG,false,1,keypress(m),500,236363.5,236363.30000001192,233972.911,233986.80000001192,233989.143,236387.056,8,400,6,,ISIC_0070435.JPG
break,html.Screen,4_55_1,2023-11-01T16:08:37.797Z,,0,,,NaN,,,,,,false,,,,236364,236363.90000003576,,236363.60000002384,,236387.056,8,400,,,
break_continue,html.Screen,4_55_2,2023-11-01T16:08:37.797Z,,0,,,NaN,,,,,,false,,,,236364.30000001192,236364.19999998808,,236364.10000002384,,236387.056,8,400,,,
sequence,flow.Sequence,4_55,2023-11-01T16:08:37.797Z,,0,,,2375.056999988068,completion,,,,,false,,,,236364.40000003576,236364.19999998808,233972.911,233986.60000002384,233989.143,236387.056,8,400,,,
trial,html.Screen,4_56_0,2023-11-01T16:08:40.298Z,,0,2,,2477.9439999999886,response,ISIC_0012208.JPG,4,ISIC_7468304.JPG,ISIC_0012208.JPG,false,1,keypress(m),500,238865.30000001192,238865,236370.416,236364.60000002384,236387.056,238868.257,8,400,7,,ISIC_7468304.JPG
break,html.Screen,4_56_1,2023-11-01T16:08:40.299Z,,0,,,NaN,,,,,,false,,,,238866.19999998808,238866,,238865.60000002384,,238868.257,8,400,,,
break_continue,html.Screen,4_56_2,2023-11-01T16:08:40.299Z,,0,,,NaN,,,,,,false,,,,238866.69999998808,238866.40000003576,,238866.30000001192,,238868.257,8,400,,,
sequence,flow.Sequence,4_56,2023-11-01T16:08:40.300Z,,0,,,2479.3440000357514,completion,,,,,false,,,,238866.90000003576,238866.40000003576,236370.416,236364.5,236387.056,238868.257,8,400,,,
trial,html.Screen,4_57_0,2023-11-01T16:08:43.353Z,,0,2,,3052.2429999999877,response,ISIC_0070689.JPG,12,ISIC_0031985.JPG,ISIC_0031985.JPG,false,0,keypress(z),500,241920.69999998808,241920.5,238851.822,238867,238868.257,241932.127,8,400,8,,ISIC_0070689.JPG
break,html.Screen,4_57_1,2023-11-01T16:08:43.354Z,,0,,,NaN,,,,,,false,,,,241921,241920.90000003576,,241920.80000001192,,241932.127,8,400,,,
break_continue,html.Screen,4_57_2,2023-11-01T16:08:43.354Z,,0,,,NaN,,,,,,false,,,,241921.19999998808,241921.10000002384,,241921.10000002384,,241932.127,8,400,,,
sequence,flow.Sequence,4_57,2023-11-01T16:08:43.354Z,,0,,,3052.8430000238295,completion,,,,,false,,,,241921.30000001192,241921.10000002384,238851.822,238866.90000003576,238868.257,241932.127,8,400,,,
trial,html.Screen,4_58_0,2023-11-01T16:08:45.933Z,,0,2,,2567.6730000119132,response,ISIC_0010591.JPG,10,ISIC_2565986.JPG,ISIC_2565986.JPG,false,0,keypress(z),500,244500,244499.80000001192,241915.337,241921.30000001192,241932.127,244513.313,8,400,9,,ISIC_0010591.JPG
break,html.Screen,4_58_1,2023-11-01T16:08:45.933Z,,0,,,NaN,,,,,,false,,,,244500.80000001192,244500.60000002384,,244500.10000002384,,244513.313,8,400,,,
break_continue,html.Screen,4_58_2,2023-11-01T16:08:45.934Z,,0,,,NaN,,,,,,false,,,,244501.5,244501.30000001192,,244501,,244513.313,8,400,,,
sequence,flow.Sequence,4_58,2023-11-01T16:08:45.934Z,,0,,,2569.1730000119132,completion,,,,,false,,,,244501.60000002384,244501.30000001192,241915.337,241921.30000001192,241932.127,244513.313,8,400,,,
trial,html.Screen,4_59_0,2023-11-01T16:08:48.710Z,,0,2,,2763.9870000119263,response,ISIC_0054229.JPG,8,ISIC_4590810.JPG,ISIC_4590810.JPG,false,0,keypress(z),500,247277.69999998808,247277.30000001192,244496.542,244501.80000001192,244513.313,247294.441,8,400,10,,ISIC_0054229.JPG
break,html.Screen,4_59_1,2023-11-01T16:08:48.712Z,,0,,,NaN,,,,,,false,,,,247279.10000002384,247278.40000003576,,247278,,247294.441,8,400,,,
break_continue,html.Screen,4_59_2,2023-11-01T16:08:48.712Z,,0,,,NaN,,,,,,false,,,,247279.60000002384,247279.40000003576,,247279.30000001192,,247294.441,8,400,,,
sequence,flow.Sequence,4_59,2023-11-01T16:08:48.712Z,,0,,,2766.087000035768,completion,,,,,false,,,,247279.90000003576,247279.40000003576,244496.542,244501.69999998808,244513.313,247294.441,8,400,,,
trial,html.Screen,4_60_0,2023-11-01T16:08:51.600Z,,0,2,,2872.6590000238502,response,ISIC_0238824.JPG,8,ISIC_0924902.JPG,ISIC_0924902.JPG,false,0,keypress(z),500,250167.30000001192,250167.10000002384,247277.668,247279.90000003576,247294.441,250174.986,8,400,11,,ISIC_0238824.JPG
break,html.Screen,4_60_1,2023-11-01T16:08:51.601Z,,0,,,NaN,,,,,,false,,,,250168.40000003576,250168.10000002384,,250167.60000002384,,250174.986,8,400,,,
break_continue,html.Screen,4_60_2,2023-11-01T16:08:51.601Z,,0,,,NaN,,,,,,false,,,,250168.80000001192,250168.69999998808,,250168.60000002384,,250174.986,8,400,,,
sequence,flow.Sequence,4_60,2023-11-01T16:08:51.602Z,,0,,,2874.2589999880875,completion,,,,,false,,,,250169,250168.69999998808,247277.668,247279.90000003576,247294.441,250174.986,8,400,,,
trial,html.Screen,4_61_0,2023-11-01T16:08:54.277Z,,0,2,,2668.7139999880746,response,ISIC_8812781.JPG,9,ISIC_2412113.JPG,ISIC_8812781.JPG,false,1,keypress(m),500,252844.10000002384,252843.69999998808,250158.687,250169.10000002384,250174.986,252856.016,8,400,12,,ISIC_2412113.JPG
break,html.Screen,4_61_1,2023-11-01T16:08:54.278Z,,0,,,NaN,,,,,,false,,,,252845.60000002384,252845.10000002384,,252844.5,,252856.016,8,400,,,
break_continue,html.Screen,4_61_2,2023-11-01T16:08:54.279Z,,0,,,NaN,,,,,,false,,,,252846.19999998808,252846,,252845.80000001192,,252856.016,8,400,,,
sequence,flow.Sequence,4_61,2023-11-01T16:08:54.279Z,,0,,,2671.0139999999956,completion,,,,,false,,,,252846.5,252846,250158.687,250169.10000002384,250174.986,252856.016,8,400,,,
trial,html.Screen,4_62_0,2023-11-01T16:08:56.987Z,,0,2,,2697.7840000119177,response,ISIC_0031717.JPG,7,ISIC_5356775.JPG,ISIC_5356775.JPG,false,0,keypress(z),500,255554.40000003576,255553.80000001192,252839.411,252846.69999998808,252856.016,255570.351,8,400,13,,ISIC_0031717.JPG
break,html.Screen,4_62_1,2023-11-01T16:08:56.989Z,,0,,,NaN,,,,,,false,,,,255556.40000003576,255555.69999998808,,255554.90000003576,,255570.351,8,400,,,
break_continue,html.Screen,4_62_2,2023-11-01T16:08:56.990Z,,0,,,NaN,,,,,,false,,,,255557.19999998808,255556.90000003576,,255556.69999998808,,255570.351,8,400,,,
sequence,flow.Sequence,4_62,2023-11-01T16:08:56.990Z,,0,,,2700.8840000357595,completion,,,,,false,,,,255557.5,255556.90000003576,252839.411,252846.60000002384,252856.016,255570.351,8,400,,,
trial,html.Screen,4_63_0,2023-11-01T16:08:59.541Z,,0,2,,2537.348999988084,response,ISIC_0011073.JPG,13,ISIC_7724764.JPG,ISIC_7724764.JPG,false,0,keypress(z),500,258108.10000002384,258107.69999998808,255554.114,255557.80000001192,255570.351,258118.187,8,400,14,,ISIC_0011073.JPG
break,html.Screen,4_63_1,2023-11-01T16:08:59.542Z,,0,,,NaN,,,,,,false,,,,258108.90000003576,258108.69999998808,,258108.30000001192,,258118.187,8,400,,,
break_continue,html.Screen,4_63_2,2023-11-01T16:08:59.542Z,,0,,,NaN,,,,,,false,,,,258109.40000003576,258109.30000001192,,258109.10000002384,,258118.187,8,400,,,
sequence,flow.Sequence,4_63,2023-11-01T16:08:59.542Z,,0,,,2538.949000011926,completion,,,,,false,,,,258109.69999998808,258109.30000001192,255554.114,255557.69999998808,255570.351,258118.187,8,400,,,
trial,html.Screen,4_64_0,2023-11-01T16:09:02.104Z,,0,2,,2553.4130000238365,response,ISIC_9865814.JPG,5,ISIC_0058132.JPG,ISIC_9865814.JPG,false,1,keypress(m),500,260671.80000001192,260671.60000002384,258101.951,258109.80000001192,258118.187,260682.531,8,400,15,,ISIC_0058132.JPG
break,html.Screen,4_64_1,2023-11-01T16:09:02.105Z,,0,,,NaN,,,,,,false,,,,260672.40000003576,260672.19999998808,,260671.90000003576,,260682.531,8,400,,,
break_continue,html.Screen,4_64_2,2023-11-01T16:09:02.105Z,,0,,,NaN,,,,,,false,,,,260672.80000001192,260672.69999998808,,260672.60000002384,,260682.531,8,400,,,
sequence,flow.Sequence,4_64,2023-11-01T16:09:02.106Z,,0,,,2554.5129999880737,completion,,,,,false,,,,260673,260672.69999998808,258101.951,258109.80000001192,258118.187,260682.531,8,400,,,
trial,html.Screen,4_65_0,2023-11-01T16:09:04.687Z,,0,2,,2571.769000011933,response,ISIC_0064376.JPG,10,ISIC_3031937.JPG,ISIC_3031937.JPG,false,0,keypress(z),500,263254.5,263254.3000000119,260665.884,260673.10000002384,260682.531,263263.977,8,400,16,,ISIC_0064376.JPG
break,html.Screen,4_65_1,2023-11-01T16:09:04.688Z,,0,,,NaN,,,,,,false,,,,263255.1999999881,263254.90000003576,,263254.6999999881,,263263.977,8,400,,,
break_continue,html.Screen,4_65_2,2023-11-01T16:09:04.688Z,,0,,,NaN,,,,,,false,,,,263255.60000002384,263255.5,,263255.3000000119,,263263.977,8,400,,,
sequence,flow.Sequence,4_65,2023-11-01T16:09:04.688Z,,0,,,2572.969000000012,completion,,,,,false,,,,263255.8000000119,263255.5,260665.884,260673.10000002384,260682.531,263263.977,8,400,,,
trial,html.Screen,4_66_0,2023-11-01T16:09:07.320Z,,0,2,,2623.3230000119074,response,ISIC_5091996.JPG,12,ISIC_0016033.JPG,ISIC_5091996.JPG,false,1,keypress(m),500,265887.6999999881,265887.3000000119,263247.407,263256,263263.977,265894.663,8,400,17,,ISIC_0016033.JPG
break,html.Screen,4_66_1,2023-11-01T16:09:07.321Z,,0,,,NaN,,,,,,false,,,,265888.8000000119,265888.40000003576,,265888,,265894.663,8,400,,,
break_continue,html.Screen,4_66_2,2023-11-01T16:09:07.322Z,,0,,,NaN,,,,,,false,,,,265889.60000002384,265889.3000000119,,265889.10000002384,,265894.663,8,400,,,
sequence,flow.Sequence,4_66,2023-11-01T16:09:07.322Z,,0,,,2625.3230000119074,completion,,,,,false,,,,265889.8000000119,265889.3000000119,263247.407,263255.90000003576,263263.977,265894.663,8,400,,,
trial,html.Screen,4_67_0,2023-11-01T16:09:09.893Z,,0,2,,2565.1370000119205,response,ISIC_0032939.JPG,10,ISIC_0543351.JPG,ISIC_0543351.JPG,false,0,keypress(z),500,268460.5,268459.8000000119,265878.351,265890,265894.663,268475.701,8,400,18,,ISIC_0032939.JPG
break,html.Screen,4_67_1,2023-11-01T16:09:09.895Z,,0,,,NaN,,,,,,false,,,,268462.60000002384,268461.6999999881,,268461,,268475.701,8,400,,,
break_continue,html.Screen,4_67_2,2023-11-01T16:09:09.896Z,,0,,,NaN,,,,,,false,,,,268463.6999999881,268463.5,,268463,,268475.701,8,400,,,
sequence,flow.Sequence,4_67,2023-11-01T16:09:09.897Z,,0,,,2568.8369999999995,completion,,,,,false,,,,268464.10000002384,268463.5,265878.351,265890,265894.663,268475.701,8,400,,,
trial,html.Screen,4_68_0,2023-11-01T16:09:12.396Z,,0,2,,2487.298999999999,response,ISIC_0013615.JPG,9,ISIC_0072991.JPG,ISIC_0013615.JPG,false,1,keypress(m),500,270963.3000000119,270963,268459.546,268464.3000000119,268475.701,270973.655,8,400,19,,ISIC_0072991.JPG
break,html.Screen,4_68_1,2023-11-01T16:09:12.397Z,,0,,,NaN,,,,,,false,,,,270964.3000000119,270963.90000003576,,270963.60000002384,,270973.655,8,400,,,
break_continue,html.Screen,4_68_2,2023-11-01T16:09:12.397Z,,0,,,NaN,,,,,,false,,,,270964.90000003576,270964.6999999881,,270964.60000002384,,270973.655,8,400,,,
sequence,flow.Sequence,4_68,2023-11-01T16:09:12.398Z,,0,,,2488.998999988078,completion,,,,,false,,,,270965,270964.6999999881,268459.546,268464.1999999881,268475.701,270973.655,8,400,,,
trial,html.Screen,4_69_0,2023-11-01T16:09:15.029Z,,0,2,,2622.844999999972,response,ISIC_7167479.JPG,6,ISIC_8505243.JPG,ISIC_8505243.JPG,false,0,keypress(z),500,273596.8000000119,273596.5,270956.896,270965.1999999881,270973.655,273604.532,8,400,20,,ISIC_7167479.JPG
break,html.Screen,4_69_1,2023-11-01T16:09:15.031Z,,0,,,NaN,,,,,,false,,,,273598.10000002384,273597.5,,273597,,273604.532,8,400,,,
break_continue,html.Screen,4_69_2,2023-11-01T16:09:15.031Z,,0,,,NaN,,,,,,false,,,,273598.6999999881,273598.40000003576,,273598.3000000119,,273604.532,8,400,,,
sequence,flow.Sequence,4_69,2023-11-01T16:09:15.031Z,,0,,,2624.745000035735,completion,,,,,false,,,,273598.90000003576,273598.40000003576,270956.896,270965.1999999881,270973.655,273604.532,8,400,,,
trial,html.Screen,4_70_0,2023-11-01T16:09:19.151Z,,0,2,,4113.768000011914,response,ISIC_0065341.JPG,9,ISIC_7016261.JPG,ISIC_0065341.JPG,false,1,keypress(m),500,277718.8000000119,277718.3000000119,273588.402,273599,273604.532,277734.371,8,400,21,,ISIC_7016261.JPG
break,html.Screen,4_70_1,2023-11-01T16:09:19.153Z,,0,,,NaN,,,,,,false,,,,277720.6999999881,277720.10000002384,,277719.3000000119,,277734.371,8,400,,,
break_continue,html.Screen,4_70_2,2023-11-01T16:09:19.154Z,,0,,,NaN,,,,,,false,,,,277721.5,277721.1999999881,,277721.10000002384,,277734.371,8,400,,,
sequence,flow.Sequence,4_70,2023-11-01T16:09:19.154Z,,0,,,4116.667999988073,completion,,,,,false,,,,277721.8000000119,277721.1999999881,273588.402,273599,273604.532,277734.371,8,400,,,
trial,html.Screen,4_71_0,2023-11-01T16:09:22.021Z,,0,2,,2853.9290000119363,response,ISIC_4398011.JPG,5,ISIC_0032569.JPG,ISIC_0032569.JPG,false,0,keypress(z),500,280588.8000000119,280588.3000000119,277717.817,277722.10000002384,277734.371,280598.478,8,400,22,,ISIC_4398011.JPG
break,html.Screen,4_71_1,2023-11-01T16:09:22.023Z,,0,,,NaN,,,,,,false,,,,280590.10000002384,280589.6999999881,,280589.10000002384,,280598.478,8,400,,,
break_continue,html.Screen,4_71_2,2023-11-01T16:09:22.023Z,,0,,,NaN,,,,,,false,,,,280590.60000002384,280590.40000003576,,280590.3000000119,,280598.478,8,400,,,
sequence,flow.Sequence,4_71,2023-11-01T16:09:22.023Z,,0,,,2856.029000035778,completion,,,,,false,,,,280590.90000003576,280590.40000003576,277717.817,277722,277734.371,280598.478,8,400,,,
trial,html.Screen,4_72_0,2023-11-01T16:09:25.820Z,,0,2,,3788.7219999880763,response,ISIC_0065283.JPG,8,ISIC_9142818.JPG,ISIC_9142818.JPG,false,0,keypress(z),500,284387.60000002384,284387.1999999881,280582.272,280591.10000002384,280598.478,284395.124,8,400,23,,ISIC_0065283.JPG
break,html.Screen,4_72_1,2023-11-01T16:09:25.822Z,,0,,,NaN,,,,,,false,,,,284389,284388.3000000119,,284387.8000000119,,284395.124,8,400,,,
break_continue,html.Screen,4_72_2,2023-11-01T16:09:25.822Z,,0,,,NaN,,,,,,false,,,,284389.5,284389.3000000119,,284389.1999999881,,284395.124,8,400,,,
sequence,flow.Sequence,4_72,2023-11-01T16:09:25.822Z,,0,,,3790.822000011918,completion,,,,,false,,,,284389.8000000119,284389.3000000119,280582.272,280591,280598.478,284395.124,8,400,,,
trial,html.Screen,4_73_0,2023-11-01T16:09:28.897Z,,0,2,,3069.276000035752,response,ISIC_0059625.JPG,12,ISIC_0030238.JPG,ISIC_0059625.JPG,false,1,keypress(m),500,287464.8000000119,287464.40000003576,284378.963,284389.90000003576,284395.124,287475.872,8,400,24,,ISIC_0030238.JPG
break,html.Screen,4_73_1,2023-11-01T16:09:28.899Z,,0,,,NaN,,,,,,false,,,,287466,287465.60000002384,,287465.10000002384,,287475.872,8,400,,,
break_continue,html.Screen,4_73_2,2023-11-01T16:09:28.899Z,,0,,,NaN,,,,,,false,,,,287466.5,287466.3000000119,,287466.1999999881,,287475.872,8,400,,,
sequence,flow.Sequence,4_73,2023-11-01T16:09:28.899Z,,0,,,3071.17600001191,completion,,,,,false,,,,287466.6999999881,287466.3000000119,284378.963,284389.90000003576,284395.124,287475.872,8,400,,,
trial,html.Screen,4_74_0,2023-11-01T16:09:32.571Z,,0,2,,3661.628000000026,response,ISIC_6017148.JPG,7,ISIC_0691454.JPG,ISIC_6017148.JPG,false,1,keypress(m),500,291137.90000003576,291137.5,287459.529,287467,287475.872,291172.665,8,400,25,,ISIC_0691454.JPG
break,html.Screen,4_74_1,2023-11-01T16:09:32.572Z,,0,,,NaN,,,,,,false,,,,291139.90000003576,291139.40000003576,,291138.3000000119,,291172.665,8,400,,,
break_continue,html.Screen,4_74_2,2023-11-01T16:09:32.573Z,,0,,,NaN,,,,,,false,,,,291140.90000003576,291140.60000002384,,291140.3000000119,,291172.665,8,400,,,
sequence,flow.Sequence,4_74,2023-11-01T16:09:32.574Z,,0,,,3664.728000023868,completion,,,,,false,,,,291141.1999999881,291140.60000002384,287459.529,287466.90000003576,287475.872,291172.665,8,400,,,
trial,html.Screen,4_75_0,2023-11-01T16:09:35.188Z,,0,2,,2581.835000000021,response,ISIC_0024661.JPG,13,ISIC_0004075.JPG,ISIC_0004075.JPG,false,0,keypress(z),500,293755.3000000119,293754.5,291155.985,291141.5,291172.665,293770.315,8,400,26,,ISIC_0024661.JPG
break,html.Screen,4_75_1,2023-11-01T16:09:35.190Z,,0,,,NaN,,,,,,false,,,,293757.3000000119,293756.8000000119,,293755.8000000119,,293770.315,8,400,,,
break_continue,html.Screen,4_75_2,2023-11-01T16:09:35.191Z,,0,,,NaN,,,,,,false,,,,293758.10000002384,293757.90000003576,,293757.60000002384,,293770.315,8,400,,,
sequence,flow.Sequence,4_75,2023-11-01T16:09:35.191Z,,0,,,2585.2350000357837,completion,,,,,false,,,,293758.5,293757.90000003576,291155.985,291141.40000003576,291172.665,293770.315,8,400,,,
trial,html.Screen,4_76_0,2023-11-01T16:09:37.835Z,,0,2,,2631.8849999880767,response,ISIC_0946923.JPG,6,ISIC_0032017.JPG,ISIC_0946923.JPG,false,1,keypress(m),500,296402.40000003576,296402.1999999881,293754.242,293758.6999999881,293770.315,296417.983,8,400,27,,ISIC_0032017.JPG
break,html.Screen,4_76_1,2023-11-01T16:09:37.836Z,,0,,,NaN,,,,,,false,,,,296403,296402.8000000119,,296402.5,,296417.983,8,400,,,
break_continue,html.Screen,4_76_2,2023-11-01T16:09:37.836Z,,0,,,NaN,,,,,,false,,,,296403.3000000119,296403.1999999881,,296403.1999999881,,296417.983,8,400,,,
sequence,flow.Sequence,4_76,2023-11-01T16:09:37.836Z,,0,,,2632.8849999880767,completion,,,,,false,,,,296403.60000002384,296403.1999999881,293754.242,293758.60000002384,293770.315,296417.983,8,400,,,
trial,html.Screen,4_77_0,2023-11-01T16:09:40.768Z,,0,2,,2917.3170000119135,response,ISIC_0010967.JPG,12,ISIC_0067601.JPG,ISIC_0010967.JPG,false,1,keypress(m),500,299335.5,299335.3000000119,296401.429,296403.6999999881,296417.983,299348.865,8,400,28,,ISIC_0067601.JPG
break,html.Screen,4_77_1,2023-11-01T16:09:40.769Z,,0,,,NaN,,,,,,false,,,,299336.60000002384,299336.1999999881,,299335.8000000119,,299348.865,8,400,,,
break_continue,html.Screen,4_77_2,2023-11-01T16:09:40.770Z,,0,,,NaN,,,,,,false,,,,299337,299336.90000003576,,299336.6999999881,,299348.865,8,400,,,
sequence,flow.Sequence,4_77,2023-11-01T16:09:40.770Z,,0,,,2918.9170000357553,completion,,,,,false,,,,299337.1999999881,299336.90000003576,296401.429,296403.60000002384,296417.983,299348.865,8,400,,,
trial,html.Screen,4_78_0,2023-11-01T16:09:46.084Z,,0,2,,5302.834999988088,response,ISIC_3565564.JPG,8,ISIC_3236964.JPG,ISIC_3236964.JPG,false,0,keypress(z),500,304651.90000003576,304651.6999999881,299332.164,299337.40000003576,299348.865,304660.789,8,400,29,,ISIC_3565564.JPG
break,html.Screen,4_78_1,2023-11-01T16:09:46.085Z,,0,,,NaN,,,,,,false,,,,304652.6999999881,304652.3000000119,,304652.10000002384,,304660.789,8,400,,,
break_continue,html.Screen,4_78_2,2023-11-01T16:09:46.086Z,,0,,,NaN,,,,,,false,,,,304652.90000003576,304652.8000000119,,304652.6999999881,,304660.789,8,400,,,
sequence,flow.Sequence,4_78,2023-11-01T16:09:46.086Z,,0,,,5303.93500001193,completion,,,,,false,,,,304653,304652.8000000119,299332.164,299337.3000000119,299348.865,304660.789,8,400,,,
trial,html.Screen,4_79_0,2023-11-01T16:09:49.263Z,,0,2,,3169.4109999880893,response,ISIC_0062367.JPG,11,ISIC_7885531.JPG,ISIC_7885531.JPG,false,0,keypress(z),500,307830.60000002384,307830.1999999881,304644.775,304653.10000002384,304660.789,307841.447,8,400,30,,ISIC_0062367.JPG
break,html.Screen,4_79_1,2023-11-01T16:09:49.264Z,,0,,,NaN,,,,,,false,,,,307831.8000000119,307831.40000003576,,307831,,307841.447,8,400,,,
break_continue,html.Screen,4_79_2,2023-11-01T16:09:49.265Z,,0,,,NaN,,,,,,false,,,,307832.40000003576,307832.1999999881,,307832,,307841.447,8,400,,,
sequence,flow.Sequence,4_79,2023-11-01T16:09:49.265Z,,0,,,3171.4109999880893,completion,,,,,false,,,,307832.60000002384,307832.1999999881,304644.775,304653,304660.789,307841.447,8,400,,,
trial,html.Screen,4_80_0,2023-11-01T16:09:51.957Z,,0,2,,2682.3530000119354,response,ISIC_2893340.JPG,9,ISIC_0014722.JPG,ISIC_2893340.JPG,false,1,keypress(m),500,310524.3000000119,310523.8000000119,307825.139,307832.6999999881,307841.447,310539.152,8,400,31,,ISIC_0014722.JPG
break,html.Screen,4_80_1,2023-11-01T16:09:51.958Z,,0,,,NaN,,,,,,false,,,,310525.8000000119,310525.40000003576,,310524.6999999881,,310539.152,8,400,,,
break_continue,html.Screen,4_80_2,2023-11-01T16:09:51.959Z,,0,,,NaN,,,,,,false,,,,310526.8000000119,310526.5,,310526.1999999881,,310539.152,8,400,,,
sequence,flow.Sequence,4_80,2023-11-01T16:09:51.960Z,,0,,,2685.0530000000144,completion,,,,,false,,,,310527.10000002384,310526.5,307825.139,307832.6999999881,307841.447,310539.152,8,400,,,
trial,html.Screen,4_81_0,2023-11-01T16:09:54.910Z,,0,2,,2938.047999988077,response,ISIC_0031548.JPG,9,ISIC_0033081.JPG,ISIC_0031548.JPG,false,1,keypress(m),500,313477.40000003576,313477.1999999881,310522.933,310527.3000000119,310539.152,313486.563,8,400,32,,ISIC_0033081.JPG
break,html.Screen,4_81_1,2023-11-01T16:09:54.911Z,,0,,,NaN,,,,,,false,,,,313478.5,313478.3000000119,,313477.6999999881,,313486.563,8,400,,,
break_continue,html.Screen,4_81_2,2023-11-01T16:09:54.912Z,,0,,,NaN,,,,,,false,,,,313479.10000002384,313478.90000003576,,313478.8000000119,,313486.563,8,400,,,
sequence,flow.Sequence,4_81,2023-11-01T16:09:54.912Z,,0,,,2939.748000035761,completion,,,,,false,,,,313479.3000000119,313478.90000003576,310522.933,310527.3000000119,310539.152,313486.563,8,400,,,
trial,html.Screen,4_82_0,2023-11-01T16:09:58.885Z,,0,2,,3964.337000035739,response,ISIC_4873045.JPG,5,ISIC_6981061.JPG,ISIC_4873045.JPG,false,1,keypress(m),500,317451.8000000119,317450.90000003576,313470.698,313479.5,313486.563,317466.407,8,400,33,,ISIC_6981061.JPG
break,html.Screen,4_82_1,2023-11-01T16:09:58.887Z,,0,,,NaN,,,,,,false,,,,317453.60000002384,317453,,317452.3000000119,,317466.407,8,400,,,
break_continue,html.Screen,4_82_2,2023-11-01T16:09:58.887Z,,0,,,NaN,,,,,,false,,,,317454.60000002384,317454.1999999881,,317454,,317466.407,8,400,,,
sequence,flow.Sequence,4_82,2023-11-01T16:09:58.888Z,,0,,,3967.6369999880553,completion,,,,,false,,,,317455.10000002384,317454.1999999881,313470.698,313479.40000003576,313486.563,317466.407,8,400,,,
trial,html.Screen,4_83_0,2023-11-01T16:10:01.596Z,,0,2,,2696.4930000357563,response,ISIC_6676647.JPG,9,ISIC_0069248.JPG,ISIC_6676647.JPG,false,1,keypress(m),500,320163.3000000119,320162.90000003576,317450.01,317455.3000000119,317466.407,320181.091,8,400,34,,ISIC_0069248.JPG
break,html.Screen,4_83_1,2023-11-01T16:10:01.597Z,,0,,,NaN,,,,,,false,,,,320164.3000000119,320163.90000003576,,320163.60000002384,,320181.091,8,400,,,
break_continue,html.Screen,4_83_2,2023-11-01T16:10:01.598Z,,0,,,NaN,,,,,,false,,,,320165.10000002384,320164.90000003576,,320164.6999999881,,320181.091,8,400,,,
sequence,flow.Sequence,4_83,2023-11-01T16:10:01.598Z,,0,,,2698.4930000357563,completion,,,,,false,,,,320165.3000000119,320164.90000003576,317450.01,317455.3000000119,317466.407,320181.091,8,400,,,
trial,html.Screen,4_84_0,2023-11-01T16:10:04.754Z,,0,2,,3139.608999988064,response,ISIC_0029106.JPG,13,ISIC_0006302.JPG,ISIC_0029106.JPG,false,1,keypress(m),500,323321.10000002384,323320.6999999881,320147.893,320165.5,320181.091,323327.978,8,400,35,,ISIC_0006302.JPG
break,html.Screen,4_84_1,2023-11-01T16:10:04.756Z,,0,,,NaN,,,,,,false,,,,323322.8000000119,323322.40000003576,,323321.40000003576,,323327.978,8,400,,,
break_continue,html.Screen,4_84_2,2023-11-01T16:10:04.756Z,,0,,,NaN,,,,,,false,,,,323323.3000000119,323323.1999999881,,323323,,323327.978,8,400,,,
sequence,flow.Sequence,4_84,2023-11-01T16:10:04.756Z,,0,,,3142.108999988064,completion,,,,,false,,,,323323.60000002384,323323.1999999881,320147.893,320165.5,320181.091,323327.978,8,400,,,
trial,html.Screen,4_85_0,2023-11-01T16:10:07.319Z,,0,2,,2557.7219999880763,response,ISIC_1850674.JPG,8,ISIC_0026348.JPG,ISIC_1850674.JPG,false,1,keypress(m),500,325886.10000002384,325885.6999999881,323311.551,323323.8000000119,323327.978,325892.297,8,400,36,,ISIC_0026348.JPG
break,html.Screen,4_85_1,2023-11-01T16:10:07.320Z,,0,,,NaN,,,,,,false,,,,325887.60000002384,325887.10000002384,,325886.5,,325892.297,8,400,,,
break_continue,html.Screen,4_85_2,2023-11-01T16:10:07.321Z,,0,,,NaN,,,,,,false,,,,325888.3000000119,325888,,325887.8000000119,,325892.297,8,400,,,
sequence,flow.Sequence,4_85,2023-11-01T16:10:07.321Z,,0,,,2560.021999999997,completion,,,,,false,,,,325888.5,325888,323311.551,323323.8000000119,323327.978,325892.297,8,400,,,
trial,html.Screen,4_86_0,2023-11-01T16:10:09.889Z,,0,2,,2563.9029999880586,response,ISIC_0029937.JPG,13,ISIC_5539001.JPG,ISIC_5539001.JPG,false,0,keypress(z),500,328456.40000003576,328456.1999999881,325875.931,325888.6999999881,325892.297,328473.867,8,400,37,,ISIC_0029937.JPG
break,html.Screen,4_86_1,2023-11-01T16:10:09.890Z,,0,,,NaN,,,,,,false,,,,328457.1999999881,328457,,328456.6999999881,,328473.867,8,400,,,
break_continue,html.Screen,4_86_2,2023-11-01T16:10:09.891Z,,0,,,NaN,,,,,,false,,,,328457.60000002384,328457.5,,328457.40000003576,,328473.867,8,400,,,
sequence,flow.Sequence,4_86,2023-11-01T16:10:09.891Z,,0,,,2565.2029999999795,completion,,,,,false,,,,328458,328457.5,325875.931,325888.60000002384,325892.297,328473.867,8,400,,,
trial,html.Screen,4_87_0,2023-11-01T16:10:14.172Z,,0,2,,4264.832999988052,response,ISIC_2418276.JPG,4,ISIC_8100185.JPG,ISIC_2418276.JPG,false,1,keypress(m),500,332739.1999999881,332738.6999999881,328457.12,328458.10000002384,328473.867,332753.053,8,400,38,,ISIC_8100185.JPG
break,html.Screen,4_87_1,2023-11-01T16:10:14.174Z,,0,,,NaN,,,,,,false,,,,332740.8000000119,332740.1999999881,,332739.60000002384,,332753.053,8,400,,,
break_continue,html.Screen,4_87_2,2023-11-01T16:10:14.174Z,,0,,,NaN,,,,,,false,,,,332741.40000003576,332741.1999999881,,332741.10000002384,,332753.053,8,400,,,
sequence,flow.Sequence,4_87,2023-11-01T16:10:14.175Z,,0,,,4267.332999988052,completion,,,,,false,,,,332741.6999999881,332741.1999999881,328457.12,328458.10000002384,328473.867,332753.053,8,400,,,
trial,html.Screen,4_88_0,2023-11-01T16:10:17.656Z,,0,2,,3469.6469999880646,response,ISIC_0066564.JPG,9,ISIC_4359258.JPG,ISIC_0066564.JPG,false,1,keypress(m),500,336223.10000002384,336222.6999999881,332736.957,332741.90000003576,332753.053,336233.312,8,400,39,,ISIC_4359258.JPG
break,html.Screen,4_88_1,2023-11-01T16:10:17.657Z,,0,,,NaN,,,,,,false,,,,336224.3000000119,336223.90000003576,,336223.5,,336233.312,8,400,,,
break_continue,html.Screen,4_88_2,2023-11-01T16:10:17.658Z,,0,,,NaN,,,,,,false,,,,336224.90000003576,336224.6999999881,,336224.5,,336233.312,8,400,,,
sequence,flow.Sequence,4_88,2023-11-01T16:10:17.658Z,,0,,,3471.6469999880646,completion,,,,,false,,,,336225.1999999881,336224.6999999881,332736.957,332741.90000003576,332753.053,336233.312,8,400,,,
trial,html.Screen,4_89_0,2023-11-01T16:10:24.595Z,,0,2,,6928.5880000357865,response,ISIC_3074949.JPG,7,ISIC_0008423.JPG,ISIC_0008423.JPG,false,0,keypress(z),500,343162.60000002384,343161.90000003576,336216.671,336225.40000003576,336233.312,343177.656,8,400,40,,ISIC_3074949.JPG
break,html.Screen,4_89_1,2023-11-01T16:10:24.597Z,,0,,,NaN,,,,,,false,,,,343164.1999999881,343163.6999999881,,343163.10000002384,,343177.656,8,400,,,
break_continue,html.Screen,4_89_2,2023-11-01T16:10:24.598Z,,0,,,NaN,,,,,,false,,,,343165.10000002384,343164.90000003576,,343164.60000002384,,343177.656,8,400,,,
sequence,flow.Sequence,4_89,2023-11-01T16:10:24.598Z,,0,,,6931.5880000357865,completion,,,,,false,,,,343165.40000003576,343164.90000003576,336216.671,336225.40000003576,336233.312,343177.656,8,400,,,
trial,html.Screen,4_90_0,2023-11-01T16:10:27.442Z,,0,2,,2830.543999988062,response,ISIC_6155782.JPG,11,ISIC_0070551.JPG,ISIC_6155782.JPG,false,1,keypress(m),500,346008.6999999881,346008.1999999881,343160.78,343165.60000002384,343177.656,346024.839,8,400,41,,ISIC_0070551.JPG
break,html.Screen,4_90_1,2023-11-01T16:10:27.443Z,,0,,,NaN,,,,,,false,,,,346010.5,346009.90000003576,,346009.10000002384,,346024.839,8,400,,,
break_continue,html.Screen,4_90_2,2023-11-01T16:10:27.444Z,,0,,,NaN,,,,,,false,,,,346011.40000003576,346011.10000002384,,346010.90000003576,,346024.839,8,400,,,
sequence,flow.Sequence,4_90,2023-11-01T16:10:27.445Z,,0,,,2833.4440000238246,completion,,,,,false,,,,346011.6999999881,346011.10000002384,343160.78,343165.5,343177.656,346024.839,8,400,,,
trial,html.Screen,4_91_0,2023-11-01T16:10:30.973Z,,0,2,,3514.2610000238637,response,ISIC_4864523.JPG,9,ISIC_1601784.JPG,ISIC_1601784.JPG,false,0,keypress(z),500,349539.6999999881,349539.10000002384,346008.565,346012,346024.839,349555.021,8,400,42,,ISIC_4864523.JPG
break,html.Screen,4_91_1,2023-11-01T16:10:30.975Z,,0,,,NaN,,,,,,false,,,,349542,349541.5,,349540.10000002384,,349555.021,8,400,,,
break_continue,html.Screen,4_91_2,2023-11-01T16:10:30.976Z,,0,,,NaN,,,,,,false,,,,349542.6999999881,349542.5,,349542.3000000119,,349555.021,8,400,,,
sequence,flow.Sequence,4_91,2023-11-01T16:10:30.976Z,,0,,,3517.661000000022,completion,,,,,false,,,,349543,349542.5,346008.565,346011.90000003576,346024.839,349555.021,8,400,,,
trial,html.Screen,4_92_0,2023-11-01T16:10:33.643Z,,0,2,,2654.879000035755,response,ISIC_0004558.JPG,2,ISIC_0070593.JPG,ISIC_0004558.JPG,false,1,keypress(m),500,352210.3000000119,352209.90000003576,349538.929,349543.40000003576,349555.021,352219.404,8,400,43,,ISIC_0070593.JPG
break,html.Screen,4_92_1,2023-11-01T16:10:33.644Z,,0,,,NaN,,,,,,false,,,,352211.1999999881,352210.8000000119,,352210.5,,352219.404,8,400,,,
break_continue,html.Screen,4_92_2,2023-11-01T16:10:33.645Z,,0,,,NaN,,,,,,false,,,,352211.90000003576,352211.60000002384,,352211.40000003576,,352219.404,8,400,,,
sequence,flow.Sequence,4_92,2023-11-01T16:10:33.645Z,,0,,,2656.579000023834,completion,,,,,false,,,,352212.10000002384,352211.60000002384,349538.929,349543.1999999881,349555.021,352219.404,8,400,,,
trial,html.Screen,4_93_0,2023-11-01T16:10:37.474Z,,0,2,,3821.8960000119405,response,ISIC_9168700.JPG,5,ISIC_1962845.JPG,ISIC_1962845.JPG,false,0,keypress(z),500,356041.60000002384,356041.3000000119,352202.663,352212.1999999881,352219.404,356049.317,8,400,44,,ISIC_9168700.JPG
break,html.Screen,4_93_1,2023-11-01T16:10:37.475Z,,0,,,NaN,,,,,,false,,,,356042.40000003576,356042.10000002384,,356041.8000000119,,356049.317,8,400,,,
break_continue,html.Screen,4_93_2,2023-11-01T16:10:37.476Z,,0,,,NaN,,,,,,false,,,,356042.6999999881,356042.60000002384,,356042.5,,356049.317,8,400,,,
sequence,flow.Sequence,4_93,2023-11-01T16:10:37.476Z,,0,,,3823.1960000238614,completion,,,,,false,,,,356043,356042.60000002384,352202.663,352212.10000002384,352219.404,356049.317,8,400,,,
trial,html.Screen,4_94_0,2023-11-01T16:10:40.251Z,,0,2,,2768.583000035782,response,ISIC_2893340.JPG,7,ISIC_5673859.JPG,ISIC_2893340.JPG,false,1,keypress(m),500,358818.1999999881,358817.90000003576,356032.75,356043.10000002384,356049.317,358830.416,8,400,45,,ISIC_5673859.JPG
break,html.Screen,4_94_1,2023-11-01T16:10:40.252Z,,0,,,NaN,,,,,,false,,,,358818.6999999881,358818.6999999881,,358818.3000000119,,358830.416,8,400,,,
break_continue,html.Screen,4_94_2,2023-11-01T16:10:40.252Z,,0,,,NaN,,,,,,false,,,,358819.3000000119,358819,,358818.8000000119,,358830.416,8,400,,,
sequence,flow.Sequence,4_94,2023-11-01T16:10:40.252Z,,0,,,2769.683000000019,completion,,,,,false,,,,358819.40000003576,358819,356032.75,356043.10000002384,356049.317,358830.416,8,400,,,
trial,html.Screen,4_95_0,2023-11-01T16:10:42.963Z,,0,2,,2698.8840000118944,response,ISIC_5297660.JPG,6,ISIC_7746479.JPG,ISIC_5297660.JPG,false,1,keypress(m),500,361529.90000003576,361529.3000000119,358814.304,358819.5,358830.416,361544.712,8,400,46,,ISIC_7746479.JPG
break,html.Screen,4_95_1,2023-11-01T16:10:42.964Z,,0,,,NaN,,,,,,false,,,,361531.40000003576,361530.90000003576,,361530.3000000119,,361544.712,8,400,,,
break_continue,html.Screen,4_95_2,2023-11-01T16:10:42.965Z,,0,,,NaN,,,,,,false,,,,361532.5,361532.1999999881,,361531.8000000119,,361544.712,8,400,,,
sequence,flow.Sequence,4_95,2023-11-01T16:10:42.966Z,,0,,,2701.7839999880525,completion,,,,,false,,,,361532.6999999881,361532.1999999881,358814.304,358819.5,358830.416,361544.712,8,400,,,
trial,html.Screen,4_96_0,2023-11-01T16:10:47.449Z,,0,2,,4471.588000011921,response,ISIC_8664718.JPG,12,ISIC_9154716.JPG,ISIC_9154716.JPG,false,0,keypress(z),500,366016.60000002384,366016.3000000119,361528.098,361532.90000003576,361544.712,366040.786,8,400,47,,ISIC_8664718.JPG
break,html.Screen,4_96_1,2023-11-01T16:10:47.450Z,,0,,,NaN,,,,,,false,,,,366017.40000003576,366017.1999999881,,366016.8000000119,,366040.786,8,400,,,
break_continue,html.Screen,4_96_2,2023-11-01T16:10:47.451Z,,0,,,NaN,,,,,,false,,,,366017.90000003576,366017.8000000119,,366017.60000002384,,366040.786,8,400,,,
sequence,flow.Sequence,4_96,2023-11-01T16:10:47.451Z,,0,,,4473.088000011921,completion,,,,,false,,,,366018,366017.8000000119,361528.098,361532.8000000119,361544.712,366040.786,8,400,,,
trial,html.Screen,4_97_0,2023-11-01T16:10:51.620Z,,0,2,,4146.114000035741,response,ISIC_1929937.JPG,13,ISIC_0032766.JPG,ISIC_1929937.JPG,false,1,keypress(m),500,370187.5,370186.90000003576,366024.457,366018.1999999881,366040.786,370203.726,8,400,48,,ISIC_0032766.JPG
break,html.Screen,4_97_1,2023-11-01T16:10:51.621Z,,0,,,NaN,,,,,,false,,,,370188.1999999881,370188.10000002384,,370187.6999999881,,370203.726,8,400,,,
break_continue,html.Screen,4_97_2,2023-11-01T16:10:51.621Z,,0,,,NaN,,,,,,false,,,,370188.60000002384,370188.5,,370188.40000003576,,370203.726,8,400,,,
sequence,flow.Sequence,4_97,2023-11-01T16:10:51.622Z,,0,,,4147.713999999978,completion,,,,,false,,,,370188.6999999881,370188.5,366024.457,366018.10000002384,366040.786,370203.726,8,400,,,
trial,html.Screen,4_98_0,2023-11-01T16:10:56.508Z,,0,2,,4871.174000035739,response,ISIC_1461068.JPG,6,ISIC_0033959.JPG,ISIC_1461068.JPG,false,1,keypress(m),500,375075.1999999881,375074.90000003576,370187.505,370189,370203.726,375082.875,8,400,49,,ISIC_0033959.JPG
break,html.Screen,4_98_1,2023-11-01T16:10:56.509Z,,0,,,NaN,,,,,,false,,,,375076.60000002384,375076.3000000119,,375075.6999999881,,375082.875,8,400,,,
break_continue,html.Screen,4_98_2,2023-11-01T16:10:56.510Z,,0,,,NaN,,,,,,false,,,,375077.3000000119,375077,,375076.8000000119,,375082.875,8,400,,,
sequence,flow.Sequence,4_98,2023-11-01T16:10:56.510Z,,0,,,4873.273999999976,completion,,,,,false,,,,375077.5,375077,370187.505,370188.8000000119,370203.726,375082.875,8,400,,,
trial,html.Screen,4_99_0,2023-11-01T16:10:59.576Z,,0,2,,3059.525000035763,response,ISIC_0067274.JPG,7,ISIC_4372519.JPG,ISIC_4372519.JPG,false,0,keypress(z),500,378142.8000000119,378142.40000003576,375066.553,375077.90000003576,375082.875,378146.951,8,400,50,,ISIC_0067274.JPG
break,html.Screen,4_99_1,2023-11-01T16:11:09.557Z,,0,,,9991.607000000018,timeout,,,,,false,,,,388123.8000000119,388122.222,378130.594,378142.90000003576,378146.951,388138.558,8,400,,,
break_continue,html.Screen,4_99_2,2023-11-01T16:11:20.587Z,,0,,,10986.242000011902,response,,,,,false,continue,keypress(Space),,399153.60000002384,399124.8000000119,388122.222,388124,388138.558,399161.747,8,400,,,
sequence,flow.Sequence,4_99,2023-11-01T16:11:20.587Z,,0,,,24041.92500001192,completion,,,,,false,,,,399153.90000003576,399124.8000000119,375066.553,375077.60000002384,375082.875,399161.747,8,400,,,
trial,html.Screen,4_100_0,2023-11-01T16:11:25.265Z,,0,3,,4670.452999988105,response,ISIC_0339930.JPG,10,ISIC_0070046.JPG,ISIC_0339930.JPG,false,1,keypress(m),500,403832.5,403832.1999999881,399144.673,399154.10000002384,399161.747,403841.288,8,400,1,,ISIC_0070046.JPG
break,html.Screen,4_100_1,2023-11-01T16:11:25.266Z,,0,,,NaN,,,,,,false,,,,403833.3000000119,403833,,403832.6999999881,,403841.288,8,400,,,
break_continue,html.Screen,4_100_2,2023-11-01T16:11:25.267Z,,0,,,NaN,,,,,,false,,,,403833.8000000119,403833.6999999881,,403833.5,,403841.288,8,400,,,
sequence,flow.Sequence,4_100,2023-11-01T16:11:25.267Z,,0,,,4671.952999988105,completion,,,,,false,,,,403833.90000003576,403833.6999999881,399144.673,399154.10000002384,399161.747,403841.288,8,400,,,
trial,html.Screen,4_101_0,2023-11-01T16:11:28.714Z,,0,3,,3439.5120000119205,response,ISIC_0033625.JPG,6,ISIC_2126084.JPG,ISIC_2126084.JPG,false,0,keypress(z),500,407281.1999999881,407280.8000000119,403824.776,403834.10000002384,403841.288,407288.04,8,400,2,,ISIC_0033625.JPG
break,html.Screen,4_101_1,2023-11-01T16:11:28.716Z,,0,,,NaN,,,,,,false,,,,407282.6999999881,407282.40000003576,,407281.60000002384,,407288.04,8,400,,,
break_continue,html.Screen,4_101_2,2023-11-01T16:11:28.716Z,,0,,,NaN,,,,,,false,,,,407283.3000000119,407283.10000002384,,407282.90000003576,,407288.04,8,400,,,
sequence,flow.Sequence,4_101,2023-11-01T16:11:28.716Z,,0,,,3441.8120000238414,completion,,,,,false,,,,407283.5,407283.10000002384,403824.776,403834,403841.288,407288.04,8,400,,,
trial,html.Screen,4_102_0,2023-11-01T16:11:31.522Z,,0,3,,2800.3600000357837,response,ISIC_5625747.JPG,8,ISIC_8297563.JPG,ISIC_5625747.JPG,false,1,keypress(m),500,410088.8000000119,410088.40000003576,407271.834,407283.8000000119,407288.04,410102.298,8,400,3,,ISIC_8297563.JPG
break,html.Screen,4_102_1,2023-11-01T16:11:31.523Z,,0,,,NaN,,,,,,false,,,,410090,410089.40000003576,,410089,,410102.298,8,400,,,
break_continue,html.Screen,4_102_2,2023-11-01T16:11:31.523Z,,0,,,NaN,,,,,,false,,,,410090.40000003576,410090.1999999881,,410090.10000002384,,410102.298,8,400,,,
sequence,flow.Sequence,4_102,2023-11-01T16:11:31.523Z,,0,,,2802.1599999881,completion,,,,,false,,,,410090.5,410090.1999999881,407271.834,407283.6999999881,407288.04,410102.298,8,400,,,
trial,html.Screen,4_103_0,2023-11-01T16:11:35.094Z,,0,3,,3557.9019999880693,response,ISIC_0772836.JPG,8,ISIC_0046345.JPG,ISIC_0772836.JPG,false,1,keypress(m),500,413660.6999999881,413660.1999999881,410085.628,410090.60000002384,410102.298,413665.831,8,400,4,,ISIC_0046345.JPG
break,html.Screen,4_103_1,2023-11-01T16:11:35.094Z,,0,,,NaN,,,,,,false,,,,413661.5,413661.40000003576,,413660.90000003576,,413665.831,8,400,,,
break_continue,html.Screen,4_103_2,2023-11-01T16:11:35.095Z,,0,,,NaN,,,,,,false,,,,413661.8000000119,413661.60000002384,,413661.60000002384,,413665.831,8,400,,,
sequence,flow.Sequence,4_103,2023-11-01T16:11:35.095Z,,0,,,3559.302000023832,completion,,,,,false,,,,413662.10000002384,413661.60000002384,410085.628,410090.60000002384,410102.298,413665.831,8,400,,,
trial,html.Screen,4_104_0,2023-11-01T16:11:37.952Z,,0,3,,2853.2690000238363,response,ISIC_0386664.JPG,8,ISIC_4391909.JPG,ISIC_4391909.JPG,false,0,keypress(z),500,416519.3000000119,416519.10000002384,413649.259,413662.1999999881,413665.831,416530.011,8,400,5,,ISIC_0386664.JPG
break,html.Screen,4_104_1,2023-11-01T16:11:37.953Z,,0,,,NaN,,,,,,false,,,,416520.1999999881,416519.90000003576,,416519.60000002384,,416530.011,8,400,,,
break_continue,html.Screen,4_104_2,2023-11-01T16:11:37.954Z,,0,,,NaN,,,,,,false,,,,416520.6999999881,416520.5,,416520.40000003576,,416530.011,8,400,,,
sequence,flow.Sequence,4_104,2023-11-01T16:11:37.954Z,,0,,,2854.6689999999944,completion,,,,,false,,,,416520.90000003576,416520.5,413649.259,413662.1999999881,413665.831,416530.011,8,400,,,
trial,html.Screen,4_105_0,2023-11-01T16:11:40.491Z,,0,3,,2527.389000035764,response,ISIC_0027431.JPG,9,ISIC_0033805.JPG,ISIC_0027431.JPG,false,1,keypress(m),500,419057.90000003576,419057.40000003576,416513.309,416521,416530.011,419061.258,8,400,6,,ISIC_0033805.JPG
break,html.Screen,4_105_1,2023-11-01T16:11:40.492Z,,0,,,NaN,,,,,,false,,,,419059.5,419058.90000003576,,419058.3000000119,,419061.258,8,400,,,
break_continue,html.Screen,4_105_2,2023-11-01T16:11:40.493Z,,0,,,NaN,,,,,,false,,,,419060.3000000119,419060.10000002384,,419059.8000000119,,419061.258,8,400,,,
sequence,flow.Sequence,4_105,2023-11-01T16:11:40.494Z,,0,,,2530.0890000238433,completion,,,,,false,,,,419060.60000002384,419060.10000002384,416513.309,416521,416530.011,419061.258,8,400,,,
trial,html.Screen,4_106_0,2023-11-01T16:11:43.009Z,,0,3,,2514.8420000238693,response,ISIC_6445453.JPG,11,ISIC_0058998.JPG,ISIC_0058998.JPG,false,0,keypress(z),500,421576.1999999881,421576.10000002384,419044.445,419060.8000000119,419061.258,421592.387,8,400,7,,ISIC_6445453.JPG
break,html.Screen,4_106_1,2023-11-01T16:11:43.010Z,,0,,,NaN,,,,,,false,,,,421577,421576.60000002384,,421576.3000000119,,421592.387,8,400,,,
break_continue,html.Screen,4_106_2,2023-11-01T16:11:43.010Z,,0,,,NaN,,,,,,false,,,,421577.40000003576,421577.1999999881,,421577.1999999881,,421592.387,8,400,,,
sequence,flow.Sequence,4_106,2023-11-01T16:11:43.010Z,,0,,,2515.9419999881065,completion,,,,,false,,,,421577.5,421577.1999999881,419044.445,419060.8000000119,419061.258,421592.387,8,400,,,
trial,html.Screen,4_107_0,2023-11-01T16:11:45.563Z,,0,3,,2537.413000011933,response,ISIC_7994337.JPG,6,ISIC_0046985.JPG,ISIC_7994337.JPG,false,1,keypress(m),500,424130.10000002384,424129.8000000119,421575.895,421577.60000002384,421592.387,424140.077,8,400,8,,ISIC_0046985.JPG
break,html.Screen,4_107_1,2023-11-01T16:11:45.564Z,,0,,,NaN,,,,,,false,,,,424131.1999999881,424130.8000000119,,424130.40000003576,,424140.077,8,400,,,
break_continue,html.Screen,4_107_2,2023-11-01T16:11:45.565Z,,0,,,NaN,,,,,,false,,,,424131.8000000119,424131.60000002384,,424131.40000003576,,424140.077,8,400,,,
sequence,flow.Sequence,4_107,2023-11-01T16:11:45.565Z,,0,,,2539.213000023854,completion,,,,,false,,,,424132,424131.60000002384,421575.895,421577.60000002384,421592.387,424140.077,8,400,,,
trial,html.Screen,4_108_0,2023-11-01T16:11:48.437Z,,0,3,,2863.122999988089,response,ISIC_1020968.JPG,12,ISIC_2720971.JPG,ISIC_1020968.JPG,false,1,keypress(m),500,427003.6999999881,427003.1999999881,424123.479,424132.1999999881,424140.077,427020.924,8,400,9,,ISIC_2720971.JPG
break,html.Screen,4_108_1,2023-11-01T16:11:48.438Z,,0,,,NaN,,,,,,false,,,,427005.40000003576,427004.8000000119,,427004.10000002384,,427020.924,8,400,,,
break_continue,html.Screen,4_108_2,2023-11-01T16:11:48.439Z,,0,,,NaN,,,,,,false,,,,427006.5,427006.10000002384,,427005.8000000119,,427020.924,8,400,,,
sequence,flow.Sequence,4_108,2023-11-01T16:11:48.440Z,,0,,,2866.0230000238516,completion,,,,,false,,,,427006.6999999881,427006.10000002384,424123.479,424132.1999999881,424140.077,427020.924,8,400,,,
trial,html.Screen,4_109_0,2023-11-01T16:11:51.276Z,,0,3,,2821.676000023843,response,ISIC_1870415.JPG,10,ISIC_0057821.JPG,ISIC_1870415.JPG,false,1,keypress(m),500,429843,429842.60000002384,427004.369,427007,427020.924,429851.748,8,400,10,,ISIC_0057821.JPG
break,html.Screen,4_109_1,2023-11-01T16:11:51.277Z,,0,,,NaN,,,,,,false,,,,429844,429843.6999999881,,429843.3000000119,,429851.748,8,400,,,
break_continue,html.Screen,4_109_2,2023-11-01T16:11:51.278Z,,0,,,NaN,,,,,,false,,,,429844.6999999881,429844.40000003576,,429844.3000000119,,429851.748,8,400,,,
sequence,flow.Sequence,4_109,2023-11-01T16:11:51.278Z,,0,,,2823.4760000357637,completion,,,,,false,,,,429844.90000003576,429844.40000003576,427004.369,427007,427020.924,429851.748,8,400,,,
trial,html.Screen,4_110_0,2023-11-01T16:11:53.766Z,,0,3,,2480.2519999999786,response,ISIC_8147189.JPG,5,ISIC_0002119.JPG,ISIC_0002119.JPG,false,0,keypress(z),500,432332.60000002384,432332,429835.41,429845.10000002384,429851.748,432349.613,8,400,11,,ISIC_8147189.JPG
break,html.Screen,4_110_1,2023-11-01T16:11:53.767Z,,0,,,NaN,,,,,,false,,,,432334.5,432333.8000000119,,432333,,432349.613,8,400,,,
break_continue,html.Screen,4_110_2,2023-11-01T16:11:53.768Z,,0,,,NaN,,,,,,false,,,,432335.3000000119,432335.10000002384,,432334.8000000119,,432349.613,8,400,,,
sequence,flow.Sequence,4_110,2023-11-01T16:11:53.769Z,,0,,,2483.3520000238204,completion,,,,,false,,,,432335.8000000119,432335.10000002384,429835.41,429845,429851.748,432349.613,8,400,,,
trial,html.Screen,4_111_0,2023-11-01T16:11:56.332Z,,0,3,,2548.9870000238298,response,ISIC_0067170.JPG,10,ISIC_0026043.JPG,ISIC_0026043.JPG,false,0,keypress(z),500,434899.1999999881,434898.60000002384,432333.057,432336,432349.613,434914.009,8,400,12,,ISIC_0067170.JPG
break,html.Screen,4_111_1,2023-11-01T16:11:56.334Z,,0,,,NaN,,,,,,false,,,,434901.10000002384,434900.6999999881,,434899.6999999881,,434914.009,8,400,,,
break_continue,html.Screen,4_111_2,2023-11-01T16:11:56.335Z,,0,,,NaN,,,,,,false,,,,434902,434901.6999999881,,434901.40000003576,,434914.009,8,400,,,
sequence,flow.Sequence,4_111,2023-11-01T16:11:56.335Z,,0,,,2552.086999988067,completion,,,,,false,,,,434902.40000003576,434901.6999999881,432333.057,432336,432349.613,434914.009,8,400,,,
trial,html.Screen,4_112_0,2023-11-01T16:11:59.061Z,,0,3,,2713.791000011901,response,ISIC_6254731.JPG,8,ISIC_0030922.JPG,ISIC_6254731.JPG,false,1,keypress(m),500,437628.5,437627.8000000119,434897.678,434902.8000000119,434914.009,437644.942,8,400,13,,ISIC_0030922.JPG
break,html.Screen,4_112_1,2023-11-01T16:11:59.064Z,,0,,,NaN,,,,,,false,,,,437630.6999999881,437630,,437629.40000003576,,437644.942,8,400,,,
break_continue,html.Screen,4_112_2,2023-11-01T16:11:59.065Z,,0,,,NaN,,,,,,false,,,,437632.10000002384,437631.6999999881,,437631.40000003576,,437644.942,8,400,,,
sequence,flow.Sequence,4_112,2023-11-01T16:11:59.065Z,,0,,,2717.690999988059,completion,,,,,false,,,,437632.40000003576,437631.6999999881,434897.678,434902.6999999881,434914.009,437644.942,8,400,,,
trial,html.Screen,4_113_0,2023-11-01T16:12:01.461Z,,0,3,,2382.158000023861,response,ISIC_4643298.JPG,7,ISIC_3671963.JPG,ISIC_4643298.JPG,false,1,keypress(m),500,440027.8000000119,440027.10000002384,437628.281,437632.90000003576,437644.942,440042.848,8,400,14,,ISIC_3671963.JPG
break,html.Screen,4_113_1,2023-11-01T16:12:01.463Z,,0,,,NaN,,,,,,false,,,,440029.90000003576,440029.1999999881,,440028.40000003576,,440042.848,8,400,,,
break_continue,html.Screen,4_113_2,2023-11-01T16:12:01.464Z,,0,,,NaN,,,,,,false,,,,440031,440030.60000002384,,440030.40000003576,,440042.848,8,400,,,
sequence,flow.Sequence,4_113,2023-11-01T16:12:01.464Z,,0,,,2385.658000023861,completion,,,,,false,,,,440031.5,440030.60000002384,437628.281,437632.8000000119,437644.942,440042.848,8,400,,,
trial,html.Screen,4_114_0,2023-11-01T16:12:04.256Z,,0,3,,2780.152000000002,response,ISIC_5787312.JPG,7,ISIC_0032034.JPG,ISIC_5787312.JPG,false,1,keypress(m),500,442823.3000000119,442823,440026.619,440031.6999999881,440042.848,442857.485,8,400,15,,ISIC_0032034.JPG
break,html.Screen,4_114_1,2023-11-01T16:12:04.257Z,,0,,,NaN,,,,,,false,,,,442823.90000003576,442823.6999999881,,442823.5,,442857.485,8,400,,,
break_continue,html.Screen,4_114_2,2023-11-01T16:12:04.257Z,,0,,,NaN,,,,,,false,,,,442824.5,442824.1999999881,,442824,,442857.485,8,400,,,
sequence,flow.Sequence,4_114,2023-11-01T16:12:04.257Z,,0,,,2781.351999988081,completion,,,,,false,,,,442824.60000002384,442824.1999999881,440026.619,440031.6999999881,440042.848,442857.485,8,400,,,
trial,html.Screen,4_115_0,2023-11-01T16:12:07.253Z,,0,3,,2962.615000023856,response,ISIC_2447578.JPG,6,ISIC_8483458.JPG,ISIC_8483458.JPG,false,0,keypress(z),500,445820.6999999881,445820.10000002384,442840.82,442824.6999999881,442857.485,445837.816,8,400,16,,ISIC_2447578.JPG
break,html.Screen,4_115_1,2023-11-01T16:12:07.256Z,,0,,,NaN,,,,,,false,,,,445822.6999999881,445822,,445821.3000000119,,445837.816,8,400,,,
break_continue,html.Screen,4_115_2,2023-11-01T16:12:07.256Z,,0,,,NaN,,,,,,false,,,,445823.5,445823.3000000119,,445823,,445837.816,8,400,,,
sequence,flow.Sequence,4_115,2023-11-01T16:12:07.257Z,,0,,,2965.815000011935,completion,,,,,false,,,,445823.90000003576,445823.3000000119,442840.82,442824.60000002384,442857.485,445837.816,8,400,,,
trial,html.Screen,4_116_0,2023-11-01T16:12:10.223Z,,0,3,,2951.6840000000084,response,ISIC_0067418.JPG,8,ISIC_1509635.JPG,ISIC_1509635.JPG,false,0,keypress(z),500,448790,448789.5,445821.947,445824.1999999881,445837.816,448801.878,8,400,17,,ISIC_0067418.JPG
break,html.Screen,4_116_1,2023-11-01T16:12:10.224Z,,0,,,NaN,,,,,,false,,,,448791.60000002384,448791,,448790.3000000119,,448801.878,8,400,,,
break_continue,html.Screen,4_116_2,2023-11-01T16:12:10.225Z,,0,,,NaN,,,,,,false,,,,448792.5,448792.1999999881,,448792,,448801.878,8,400,,,
sequence,flow.Sequence,4_116,2023-11-01T16:12:10.226Z,,0,,,2954.3839999880875,completion,,,,,false,,,,448792.6999999881,448792.1999999881,445821.947,445824.10000002384,445837.816,448801.878,8,400,,,
trial,html.Screen,4_117_0,2023-11-01T16:12:12.886Z,,0,3,,2650.722000023816,response,ISIC_1367610.JPG,9,ISIC_4097868.JPG,ISIC_1367610.JPG,false,1,keypress(m),500,451452.8000000119,451452.60000002384,448785.275,448792.90000003576,448801.878,451466.353,8,400,18,,ISIC_4097868.JPG
break,html.Screen,4_117_1,2023-11-01T16:12:12.886Z,,0,,,NaN,,,,,,false,,,,451453.5,451453.3000000119,,451453,,451466.353,8,400,,,
break_continue,html.Screen,4_117_2,2023-11-01T16:12:12.887Z,,0,,,NaN,,,,,,false,,,,451453.90000003576,451453.8000000119,,451453.6999999881,,451466.353,8,400,,,
sequence,flow.Sequence,4_117,2023-11-01T16:12:12.887Z,,0,,,2651.922000011895,completion,,,,,false,,,,451454.10000002384,451453.8000000119,448785.275,448792.8000000119,448801.878,451466.353,8,400,,,
trial,html.Screen,4_118_0,2023-11-01T16:12:17.244Z,,0,3,,4344.646999999997,response,ISIC_3148886.JPG,6,ISIC_5290521.JPG,ISIC_3148886.JPG,false,1,keypress(m),500,455811.5,455811,451449.651,451454.1999999881,451466.353,455829.227,8,400,19,,ISIC_5290521.JPG
break,html.Screen,4_118_1,2023-11-01T16:12:17.246Z,,0,,,NaN,,,,,,false,,,,455813,455812.5,,455812,,455829.227,8,400,,,
break_continue,html.Screen,4_118_2,2023-11-01T16:12:17.247Z,,0,,,NaN,,,,,,false,,,,455814,455813.6999999881,,455813.5,,455829.227,8,400,,,
sequence,flow.Sequence,4_118,2023-11-01T16:12:17.247Z,,0,,,4347.346999988076,completion,,,,,false,,,,455814.3000000119,455813.6999999881,451449.651,451454.1999999881,451466.353,455829.227,8,400,,,
trial,html.Screen,4_119_0,2023-11-01T16:12:20.726Z,,0,3,,3463.1730000357493,response,ISIC_9052604.JPG,12,ISIC_0012904.JPG,ISIC_9052604.JPG,false,1,keypress(m),500,459293,459292.40000003576,455812.7,455814.60000002384,455829.227,459309.412,8,400,20,,ISIC_0012904.JPG
break,html.Screen,4_119_1,2023-11-01T16:12:20.728Z,,0,,,NaN,,,,,,false,,,,459294.6999999881,459294.10000002384,,459293.40000003576,,459309.412,8,400,,,
break_continue,html.Screen,4_119_2,2023-11-01T16:12:20.728Z,,0,,,NaN,,,,,,false,,,,459295.5,459295.1999999881,,459294.90000003576,,459309.412,8,400,,,
sequence,flow.Sequence,4_119,2023-11-01T16:12:20.729Z,,0,,,3465.9729999880656,completion,,,,,false,,,,459295.6999999881,459295.1999999881,455812.7,455814.5,455829.227,459309.412,8,400,,,
trial,html.Screen,4_120_0,2023-11-01T16:12:26.611Z,,0,3,,5868.38800001191,response,ISIC_0033037.JPG,11,ISIC_1658623.JPG,ISIC_1658623.JPG,false,0,keypress(z),500,465178.10000002384,465177.8000000119,459292.752,459295.90000003576,459309.412,465187.637,8,400,21,,ISIC_0033037.JPG
break,html.Screen,4_120_1,2023-11-01T16:12:26.612Z,,0,,,NaN,,,,,,false,,,,465178.6999999881,465178.5,,465178.1999999881,,465187.637,8,400,,,
break_continue,html.Screen,4_120_2,2023-11-01T16:12:26.612Z,,0,,,NaN,,,,,,false,,,,465179.1999999881,465179,,465178.90000003576,,465187.637,8,400,,,
sequence,flow.Sequence,4_120,2023-11-01T16:12:26.612Z,,0,,,5869.587999999989,completion,,,,,false,,,,465179.40000003576,465179,459292.752,459295.90000003576,459309.412,465187.637,8,400,,,
trial,html.Screen,4_121_0,2023-11-01T16:12:29.194Z,,0,3,,2573.062999988091,response,ISIC_2064934.JPG,7,ISIC_0026115.JPG,ISIC_2064934.JPG,false,1,keypress(m),500,467761.10000002384,467760.6999999881,465171.398,465179.60000002384,465187.637,467768.641,8,400,22,,ISIC_0026115.JPG
break,html.Screen,4_121_1,2023-11-01T16:12:29.195Z,,0,,,NaN,,,,,,false,,,,467762.3000000119,467761.90000003576,,467761.40000003576,,467768.641,8,400,,,
break_continue,html.Screen,4_121_2,2023-11-01T16:12:29.196Z,,0,,,NaN,,,,,,false,,,,467763,467762.8000000119,,467762.60000002384,,467768.641,8,400,,,
sequence,flow.Sequence,4_121,2023-11-01T16:12:29.196Z,,0,,,2575.163000011933,completion,,,,,false,,,,467763.3000000119,467762.8000000119,465171.398,465179.60000002384,465187.637,467768.641,8,400,,,
trial,html.Screen,4_122_0,2023-11-01T16:12:35.231Z,,0,3,,6029.159000011918,response,ISIC_0027641.JPG,5,ISIC_9626843.JPG,ISIC_0027641.JPG,false,1,keypress(m),500,473798.40000003576,473797.8000000119,467752.012,467763.40000003576,467768.641,473813.494,8,400,23,,ISIC_9626843.JPG
break,html.Screen,4_122_1,2023-11-01T16:12:35.233Z,,0,,,NaN,,,,,,false,,,,473800.3000000119,473799.6999999881,,473799,,473813.494,8,400,,,
break_continue,html.Screen,4_122_2,2023-11-01T16:12:35.234Z,,0,,,NaN,,,,,,false,,,,473801.40000003576,473800.90000003576,,473800.60000002384,,473813.494,8,400,,,
sequence,flow.Sequence,4_122,2023-11-01T16:12:35.235Z,,0,,,6032.2590000357595,completion,,,,,false,,,,473801.8000000119,473800.90000003576,467752.012,467763.3000000119,467768.641,473813.494,8,400,,,
trial,html.Screen,4_123_0,2023-11-01T16:12:38.361Z,,0,3,,3113.9060000357567,response,ISIC_0024258.JPG,10,ISIC_0789732.JPG,ISIC_0789732.JPG,false,0,keypress(z),500,476928.1999999881,476927.40000003576,473796.874,473802.10000002384,473813.494,476943.995,8,400,24,,ISIC_0024258.JPG
break,html.Screen,4_123_1,2023-11-01T16:12:38.363Z,,0,,,NaN,,,,,,false,,,,476929.90000003576,476929.1999999881,,476928.6999999881,,476943.995,8,400,,,
break_continue,html.Screen,4_123_2,2023-11-01T16:12:38.364Z,,0,,,NaN,,,,,,false,,,,476930.8000000119,476930.5,,476930.40000003576,,476943.995,8,400,,,
sequence,flow.Sequence,4_123,2023-11-01T16:12:38.364Z,,0,,,3117.005999999994,completion,,,,,false,,,,476931.3000000119,476930.5,473796.874,473802,473813.494,476943.995,8,400,,,
trial,html.Screen,4_124_0,2023-11-01T16:12:41.990Z,,0,3,,3613.1050000238465,response,ISIC_0025238.JPG,11,ISIC_2918128.JPG,ISIC_0025238.JPG,false,1,keypress(m),500,480557.60000002384,480557.10000002384,476927.724,476931.5,476943.995,480574.484,8,400,25,,ISIC_2918128.JPG
break,html.Screen,4_124_1,2023-11-01T16:12:41.993Z,,0,,,NaN,,,,,,false,,,,480559.6999999881,480559,,480558.40000003576,,480574.484,8,400,,,
break_continue,html.Screen,4_124_2,2023-11-01T16:12:41.994Z,,0,,,NaN,,,,,,false,,,,480560.6999999881,480560.3000000119,,480560,,480574.484,8,400,,,
sequence,flow.Sequence,4_124,2023-11-01T16:12:41.994Z,,0,,,3616.3050000119256,completion,,,,,false,,,,480561.1999999881,480560.3000000119,476927.724,476931.40000003576,476943.995,480574.484,8,400,,,
trial,html.Screen,4_125_0,2023-11-01T16:12:44.701Z,,0,3,,2693.316000011924,response,ISIC_2514994.JPG,7,ISIC_0000539.JPG,ISIC_2514994.JPG,false,1,keypress(m),500,483268.1999999881,483267.8000000119,480557.83,480561.40000003576,480574.484,483271.871,8,400,26,,ISIC_0000539.JPG
break,html.Screen,4_125_1,2023-11-01T16:12:44.703Z,,0,,,NaN,,,,,,false,,,,483269.6999999881,483269.1999999881,,483268.60000002384,,483271.871,8,400,,,
