sender,sender_type,sender_id,timestamp,meta,,blockNo,condition,duration,ended_on,img_left,img_reveal,img_right,loser,practice,response,response_action,selection_duration,time_commit,time_end,time_render,time_run,time_show,time_switch,total_blocks,total_trials,trialNo,url,winner
informed_consent,html.Screen,0,2023-11-01T16:06:18.864Z,"{""labjs_version"":""20.2.4"",""labjs_build"":{""flavor"":""production"",""commit"":""f5b4a49f956347addd546a832a3327688c2c0fef""},""location"":""https://run.pavlovia.org/MurrayBennett/melanoma-2afc/?participant=66472&platform=sona"",""userAgent"":""Mozilla/5.0 (Windows NT 10.0; Win64; x64; rv:109.0) Gecko/20100101 Firefox/119.0"",""platform"":""Win32"",""language"":""en-US"",""locale"":""en-US"",""timeZone"":""America/Chicago"",""timezoneOffset"":300,""screen_width"":1280,""screen_height"":720,""scroll_width"":1280,""scroll_height"":595,""window_innerWidth"":1280,""window_innerHeight"":595,""devicePixelRatio"":1.5}",,,,78852.44,response,,,,,,consent,click button,,83796,83775,4905.88,4896,4922.56,83812.88,,,,"{""participant"":""66472"",""platform"":""sona""}",
Welcome,html.Screen,1,2023-11-01T16:06:57.415Z,,,,colourful,38524.119999999995,response,,,,,,continue,click button,,122348,122337,83792.7,83797,83812.88,122362.14,,,,,
trial,html.Screen,2_0_0,2023-11-01T16:07:05.490Z,,0,0,,8059.860000000001,response,ISIC_0025593.JPG,,ISIC_0063388.JPG,ISIC_0063388.JPG,true,0,keypress(z),500,130423,130422,122345.84,122349,122362.14,130425.3,1,6,1,,ISIC_0025593.JPG
sequence,flow.Sequence,2_0,2023-11-01T16:07:05.492Z,,0,,,8059.860000000001,completion,,,,,true,,,,130424,130422,122345.84,122349,122362.14,130425.3,1,6,,,
trial,html.Screen,2_1_0,2023-11-01T16:07:16.811Z,,0,0,,11316.699999999997,response,ISIC_0028178.JPG,,ISIC_1309015.JPG,ISIC_1309015.JPG,true,0,keypress(z),500,141743,141742,130424.7,130424,130425.3,141744.96,1,6,2,,ISIC_0028178.JPG
sequence,flow.Sequence,2_1,2023-11-01T16:07:16.811Z,,0,,,11316.699999999997,completion,,,,,true,,,,141744,141742,130424.7,130424,130425.3,141744.96,1,6,,,
trial,html.Screen,2_2_0,2023-11-01T16:07:22.839Z,,0,0,,6026.040000000008,response,ISIC_3314853.JPG,,ISIC_0031128.JPG,ISIC_3314853.JPG,true,1,keypress(m),500,147772,147771,141744.4,141744,141744.96,147774.72,1,6,3,,ISIC_0031128.JPG
sequence,flow.Sequence,2_2,2023-11-01T16:07:22.840Z,,0,,,6026.040000000008,completion,,,,,true,,,,147773,147771,141744.4,141744,141744.96,147774.72,1,6,,,
trial,html.Screen,2_3_0,2023-11-01T16:07:26.240Z,,0,0,,3397.279999999999,response,ISIC_0031612.JPG,,ISIC_8980141.JPG,ISIC_8980141.JPG,true,0,keypress(z),500,151173,151172,147774.22,147774,147774.72,151175.28,1,6,4,,ISIC_0031612.JPG
sequence,flow.Sequence,2_3,2023-11-01T16:07:26.242Z,,0,,,3397.279999999999,completion,,,,,true,,,,151174,151172,147774.22,147774,147774.72,151175.28,1,6,,,
trial,html.Screen,2_4_0,2023-11-01T16:07:30.371Z,,0,0,,4126.720000000001,response,ISIC_1197737.JPG,,ISIC_9721604.JPG,ISIC_9721604.JPG,true,0,keypress(z),500,155303,155302,151174.74,151174,151175.28,155305.54,1,6,5,,ISIC_1197737.JPG
sequence,flow.Sequence,2_4,2023-11-01T16:07:30.372Z,,0,,,4126.720000000001,completion,,,,,true,,,,155305,155302,151174.74,151174,151175.28,155305.54,1,6,,,
trial,html.Screen,2_5_0,2023-11-01T16:07:38.650Z,,0,0,,8275.459999999992,response,ISIC_0025346.JPG,,ISIC_0010681.JPG,ISIC_0010681.JPG,true,0,keypress(z),500,163583,163581,155304.98,155305,155305.54,163585.02,1,6,6,,ISIC_0025346.JPG
sequence,flow.Sequence,2_5,2023-11-01T16:07:38.651Z,,0,,,8275.459999999992,completion,,,,,true,,,,163584,163581,155304.98,155305,155305.54,163585.02,1,6,,,
loop,flow.Loop,2,2023-11-01T16:07:38.651Z,,,,,41218.86,completion,,,,,true,,,,163585,163581,122345.84,122348,122362.14,163585.02,1,6,,,
exp_instructions,html.Screen,3,2023-11-01T16:07:40.297Z,,,,,1626.9800000000105,response,,,,,,continue,keypress(Space),,165230,165212,163584.48,163585,163585.02,165230.9,,,,,
trial,html.Screen,4_0_0,2023-11-01T16:07:46.700Z,,0,1,,6401.100000000006,response,ISIC_0032121.JPG,17,ISIC_0013501.JPG,ISIC_0032121.JPG,false,1,keypress(m),500,171633,171632,165230.4,165231,165230.9,171644.62,8,400,1,,ISIC_0013501.JPG
break,html.Screen,4_0_1,2023-11-01T16:07:46.703Z,,0,,,NaN,,,,,,false,,,,171636,171634,,171633,,171644.62,8,400,,,
break_continue,html.Screen,4_0_2,2023-11-01T16:07:46.705Z,,0,,,NaN,,,,,,false,,,,171637,171637,,171636,,171644.62,8,400,,,
sequence,flow.Sequence,4_0,2023-11-01T16:07:46.706Z,,0,,,6406.100000000006,completion,,,,,false,,,,171638,171637,165230.4,165230,165230.9,171644.62,8,400,,,
trial,html.Screen,4_1_0,2023-11-01T16:07:51.286Z,,0,1,,4572.380000000005,response,ISIC_0000507.JPG,0,ISIC_0024256.JPG,ISIC_0000507.JPG,false,1,keypress(m),500,176218,176217,171633.42,171639,171644.62,176236.22,8,400,2,,ISIC_0024256.JPG
break,html.Screen,4_1_1,2023-11-01T16:07:51.290Z,,0,,,NaN,,,,,,false,,,,176223,176221,,176219,,176236.22,8,400,,,
break_continue,html.Screen,4_1_2,2023-11-01T16:07:51.292Z,,0,,,NaN,,,,,,false,,,,176225,176224,,176223,,176236.22,8,400,,,
sequence,flow.Sequence,4_1,2023-11-01T16:07:51.294Z,,0,,,4579.380000000005,completion,,,,,false,,,,176226,176224,171633.42,171638,171644.62,176236.22,8,400,,,
trial,html.Screen,4_2_0,2023-11-01T16:07:58.150Z,,0,1,,6845.779999999999,response,ISIC_4363398.JPG,12,ISIC_0030506.JPG,ISIC_0030506.JPG,false,0,keypress(z),500,183083,183082,176219.16,176226,176236.22,183083.78,8,400,3,,ISIC_4363398.JPG
break,html.Screen,4_2_1,2023-11-01T16:07:58.152Z,,0,,,NaN,,,,,,false,,,,183085,183084,,183083,,183083.78,8,400,,,
break_continue,html.Screen,4_2_2,2023-11-01T16:07:58.154Z,,0,,,NaN,,,,,,false,,,,183086,183086,,183085,,183083.78,8,400,,,
sequence,flow.Sequence,4_2,2023-11-01T16:07:58.155Z,,0,,,6849.779999999999,completion,,,,,false,,,,183087,183086,176219.16,176226,176236.22,183083.78,8,400,,,
trial,html.Screen,4_3_0,2023-11-01T16:08:02.510Z,,0,1,,4358.220000000001,response,ISIC_1962845.JPG,13,ISIC_7051167.JPG,ISIC_1962845.JPG,false,1,keypress(m),500,187442,187442,183083.22,183088,183083.78,187443.92,8,400,4,,ISIC_7051167.JPG
break,html.Screen,4_3_1,2023-11-01T16:08:02.513Z,,0,,,NaN,,,,,,false,,,,187446,187445,,187443,,187443.92,8,400,,,
break_continue,html.Screen,4_3_2,2023-11-01T16:08:02.514Z,,0,,,NaN,,,,,,false,,,,187447,187446,,187446,,187443.92,8,400,,,
sequence,flow.Sequence,4_3,2023-11-01T16:08:02.515Z,,0,,,4362.220000000001,completion,,,,,false,,,,187447,187446,183083.22,183088,183083.78,187443.92,8,400,,,
trial,html.Screen,4_4_0,2023-11-01T16:08:06.020Z,,0,1,,3508.079999999987,response,ISIC_1923467.JPG,12,ISIC_0013671.JPG,ISIC_0013671.JPG,false,0,keypress(z),500,190953,190952,187443.38,187447,187443.92,190953.78,8,400,5,,ISIC_1923467.JPG
break,html.Screen,4_4_1,2023-11-01T16:08:06.023Z,,0,,,NaN,,,,,,false,,,,190955,190955,,190953,,190953.78,8,400,,,
break_continue,html.Screen,4_4_2,2023-11-01T16:08:06.024Z,,0,,,NaN,,,,,,false,,,,190957,190957,,190955,,190953.78,8,400,,,
sequence,flow.Sequence,4_4,2023-11-01T16:08:06.024Z,,0,,,3513.079999999987,completion,,,,,false,,,,190957,190957,187443.38,187447,187443.92,190953.78,8,400,,,
trial,html.Screen,4_5_0,2023-11-01T16:08:09.710Z,,0,1,,3688.220000000001,response,ISIC_0001148.JPG,3,ISIC_9433388.JPG,ISIC_9433388.JPG,false,0,keypress(z),500,194643,194642,190953.24,190958,190953.78,194643.72,8,400,6,,ISIC_0001148.JPG
break,html.Screen,4_5_1,2023-11-01T16:08:09.712Z,,0,,,NaN,,,,,,false,,,,194645,194645,,194643,,194643.72,8,400,,,
break_continue,html.Screen,4_5_2,2023-11-01T16:08:09.713Z,,0,,,NaN,,,,,,false,,,,194646,194646,,194646,,194643.72,8,400,,,
sequence,flow.Sequence,4_5,2023-11-01T16:08:09.714Z,,0,,,3692.220000000001,completion,,,,,false,,,,194647,194646,190953.24,190958,190953.78,194643.72,8,400,,,
trial,html.Screen,4_6_0,2023-11-01T16:08:13.810Z,,0,1,,4098.279999999999,response,ISIC_1550721.JPG,4,ISIC_0031438.JPG,ISIC_1550721.JPG,false,1,keypress(m),500,198743,198742,194643.18,194647,194643.72,198743.78,8,400,7,,ISIC_0031438.JPG
break,html.Screen,4_6_1,2023-11-01T16:08:13.813Z,,0,,,NaN,,,,,,false,,,,198745,198744,,198743,,198743.78,8,400,,,
break_continue,html.Screen,4_6_2,2023-11-01T16:08:13.814Z,,0,,,NaN,,,,,,false,,,,198746,198746,,198745,,198743.78,8,400,,,
sequence,flow.Sequence,4_6,2023-11-01T16:08:13.815Z,,0,,,4102.279999999999,completion,,,,,false,,,,198747,198746,194643.18,194647,194643.72,198743.78,8,400,,,
trial,html.Screen,4_7_0,2023-11-01T16:08:16.910Z,,0,1,,3097.220000000001,response,ISIC_0025757.JPG,12,ISIC_5614446.JPG,ISIC_5614446.JPG,false,0,keypress(z),500,201843,201841,198743.24,198748,198743.78,201843.72,8,400,8,,ISIC_0025757.JPG
break,html.Screen,4_7_1,2023-11-01T16:08:16.913Z,,0,,,NaN,,,,,,false,,,,201845,201845,,201843,,201843.72,8,400,,,
break_continue,html.Screen,4_7_2,2023-11-01T16:08:16.914Z,,0,,,NaN,,,,,,false,,,,201846,201846,,201846,,201843.72,8,400,,,
sequence,flow.Sequence,4_7,2023-11-01T16:08:16.914Z,,0,,,3102.220000000001,completion,,,,,false,,,,201847,201846,198743.24,198747,198743.78,201843.72,8,400,,,
trial,html.Screen,4_8_0,2023-11-01T16:08:20.290Z,,0,1,,3378.279999999999,response,ISIC_0014469.JPG,4,ISIC_0779920.JPG,ISIC_0014469.JPG,false,1,keypress(m),500,205223,205222,201843.18,201847,201843.72,205235.68,8,400,9,,ISIC_0779920.JPG
break,html.Screen,4_8_1,2023-11-01T16:08:20.293Z,,0,,,NaN,,,,,,false,,,,205225,205224,,205223,,205235.68,8,400,,,
break_continue,html.Screen,4_8_2,2023-11-01T16:08:20.295Z,,0,,,NaN,,,,,,false,,,,205226,205226,,205226,,205235.68,8,400,,,
sequence,flow.Sequence,4_8,2023-11-01T16:08:20.295Z,,0,,,3382.279999999999,completion,,,,,false,,,,205227,205226,201843.18,201847,201843.72,205235.68,8,400,,,
trial,html.Screen,4_9_0,2023-11-01T16:08:28.300Z,,0,1,,7996.320000000007,response,ISIC_9409255.JPG,13,ISIC_0030150.JPG,ISIC_9409255.JPG,false,1,keypress(m),500,213233,213232,205223.14,205227,205235.68,213243.9,8,400,10,,ISIC_0030150.JPG
break,html.Screen,4_9_1,2023-11-01T16:08:28.302Z,,0,,,NaN,,,,,,false,,,,213235,213234,,213233,,213243.9,8,400,,,
break_continue,html.Screen,4_9_2,2023-11-01T16:08:28.303Z,,0,,,NaN,,,,,,false,,,,213236,213236,,213235,,213243.9,8,400,,,
sequence,flow.Sequence,4_9,2023-11-01T16:08:28.304Z,,0,,,8000.320000000007,completion,,,,,false,,,,213236,213236,205223.14,205227,205235.68,213243.9,8,400,,,
trial,html.Screen,4_10_0,2023-11-01T16:08:31.611Z,,0,1,,3298.100000000006,response,ISIC_4899386.JPG,14,ISIC_2457132.JPG,ISIC_2457132.JPG,false,0,keypress(z),500,216543,216542,213233.26,213237,213243.9,216544.72,8,400,11,,ISIC_4899386.JPG
break,html.Screen,4_10_1,2023-11-01T16:08:31.614Z,,0,,,NaN,,,,,,false,,,,216547,216546,,216543,,216544.72,8,400,,,
break_continue,html.Screen,4_10_2,2023-11-01T16:08:31.615Z,,0,,,NaN,,,,,,false,,,,216548,216548,,216547,,216544.72,8,400,,,
sequence,flow.Sequence,4_10,2023-11-01T16:08:31.615Z,,0,,,3304.100000000006,completion,,,,,false,,,,216548,216548,213233.26,213237,213243.9,216544.72,8,400,,,
trial,html.Screen,4_11_0,2023-11-01T16:08:35.660Z,,0,1,,4047.279999999999,response,ISIC_6609484.JPG,11,ISIC_9699615.JPG,ISIC_9699615.JPG,false,0,keypress(z),500,220593,220592,216543.54,216549,216544.72,220602.18,8,400,12,,ISIC_6609484.JPG
break,html.Screen,4_11_1,2023-11-01T16:08:35.662Z,,0,,,NaN,,,,,,false,,,,220595,220594,,220593,,220602.18,8,400,,,
break_continue,html.Screen,4_11_2,2023-11-01T16:08:35.663Z,,0,,,NaN,,,,,,false,,,,220596,220596,,220596,,220602.18,8,400,,,
sequence,flow.Sequence,4_11,2023-11-01T16:08:35.664Z,,0,,,4051.279999999999,completion,,,,,false,,,,220597,220596,216543.54,216548,216544.72,220602.18,8,400,,,
trial,html.Screen,4_12_0,2023-11-01T16:08:41.080Z,,0,1,,5409.820000000007,response,ISIC_0056915.JPG,4,ISIC_0032133.JPG,ISIC_0056915.JPG,false,1,keypress(m),500,226012,226012,220593.36,220597,220602.18,226013.76,8,400,13,,ISIC_0032133.JPG
break,html.Screen,4_12_1,2023-11-01T16:08:41.082Z,,0,,,NaN,,,,,,false,,,,226016,226015,,226013,,226013.76,8,400,,,
break_continue,html.Screen,4_12_2,2023-11-01T16:08:41.084Z,,0,,,NaN,,,,,,false,,,,226016,226016,,226016,,226013.76,8,400,,,
sequence,flow.Sequence,4_12,2023-11-01T16:08:41.084Z,,0,,,5413.820000000007,completion,,,,,false,,,,226016,226016,220593.36,220597,220602.18,226013.76,8,400,,,
trial,html.Screen,4_13_0,2023-11-01T16:08:44.329Z,,0,1,,3247.2399999999907,response,ISIC_0011130.JPG,3,ISIC_0000141.JPG,ISIC_0011130.JPG,false,1,keypress(m),500,229263,229261,226013.16,226017,226013.76,229268.64,8,400,14,,ISIC_0000141.JPG
break,html.Screen,4_13_1,2023-11-01T16:08:44.332Z,,0,,,NaN,,,,,,false,,,,229265,229265,,229263,,229268.64,8,400,,,
break_continue,html.Screen,4_13_2,2023-11-01T16:08:44.333Z,,0,,,NaN,,,,,,false,,,,229266,229266,,229265,,229268.64,8,400,,,
sequence,flow.Sequence,4_13,2023-11-01T16:08:44.334Z,,0,,,3252.2399999999907,completion,,,,,false,,,,229266,229266,226013.16,226016,226013.76,229268.64,8,400,,,
trial,html.Screen,4_14_0,2023-11-01T16:08:47.830Z,,0,1,,3493.359999999986,response,ISIC_0009879.JPG,4,ISIC_8094432.JPG,ISIC_0009879.JPG,false,1,keypress(m),500,232762,232762,229263.1,229267,229268.64,232768.52,8,400,15,,ISIC_8094432.JPG
break,html.Screen,4_14_1,2023-11-01T16:08:47.832Z,,0,,,NaN,,,,,,false,,,,232765,232765,,232763,,232768.52,8,400,,,
break_continue,html.Screen,4_14_2,2023-11-01T16:08:47.833Z,,0,,,NaN,,,,,,false,,,,232766,232766,,232766,,232768.52,8,400,,,
sequence,flow.Sequence,4_14,2023-11-01T16:08:47.834Z,,0,,,3497.359999999986,completion,,,,,false,,,,232767,232766,229263.1,229266,229268.64,232768.52,8,400,,,
trial,html.Screen,4_15_0,2023-11-01T16:08:51.087Z,,0,1,,3251.4800000000105,response,ISIC_0031155.JPG,14,ISIC_4107250.JPG,ISIC_4107250.JPG,false,0,keypress(z),500,236020,236020,232763.3,232767,232768.52,236035.14,8,400,16,,ISIC_0031155.JPG
break,html.Screen,4_15_1,2023-11-01T16:08:51.090Z,,0,,,NaN,,,,,,false,,,,236022,236022,,236021,,236035.14,8,400,,,
break_continue,html.Screen,4_15_2,2023-11-01T16:08:51.091Z,,0,,,NaN,,,,,,false,,,,236023,236023,,236023,,236035.14,8,400,,,
sequence,flow.Sequence,4_15,2023-11-01T16:08:51.091Z,,0,,,3254.4800000000105,completion,,,,,false,,,,236024,236023,232763.3,232767,232768.52,236035.14,8,400,,,
trial,html.Screen,4_16_0,2023-11-01T16:08:54.110Z,,0,1,,3006.859999999986,response,ISIC_9498942.JPG,16,ISIC_6280523.JPG,ISIC_6280523.JPG,false,0,keypress(z),500,239043,239042,236020.52,236024,236035.14,239043.38,8,400,17,,ISIC_9498942.JPG
break,html.Screen,4_16_1,2023-11-01T16:08:54.112Z,,0,,,NaN,,,,,,false,,,,239045,239044,,239043,,239043.38,8,400,,,
break_continue,html.Screen,4_16_2,2023-11-01T16:08:54.113Z,,0,,,NaN,,,,,,false,,,,239046,239045,,239045,,239043.38,8,400,,,
sequence,flow.Sequence,4_16,2023-11-01T16:08:54.114Z,,0,,,3009.859999999986,completion,,,,,false,,,,239046,239045,236020.52,236024,236035.14,239043.38,8,400,,,
trial,html.Screen,4_17_0,2023-11-01T16:08:57.438Z,,0,1,,3325.6199999999953,response,ISIC_0071892.JPG,14,ISIC_5994645.JPG,ISIC_5994645.JPG,false,0,keypress(z),500,242370,242369,239042.84,239046,239043.38,242371.18,8,400,18,,ISIC_0071892.JPG
break,html.Screen,4_17_1,2023-11-01T16:08:57.440Z,,0,,,NaN,,,,,,false,,,,242373,242372,,242370,,242371.18,8,400,,,
break_continue,html.Screen,4_17_2,2023-11-01T16:08:57.442Z,,0,,,NaN,,,,,,false,,,,242374,242374,,242374,,242371.18,8,400,,,
sequence,flow.Sequence,4_17,2023-11-01T16:08:57.442Z,,0,,,3330.6199999999953,completion,,,,,false,,,,242375,242374,239042.84,239046,239043.38,242371.18,8,400,,,
trial,html.Screen,4_18_0,2023-11-01T16:09:02.390Z,,0,1,,4950.820000000007,response,ISIC_1475598.JPG,5,ISIC_0026281.JPG,ISIC_1475598.JPG,false,1,keypress(m),500,247323,247322,242370.66,242375,242371.18,247323.84,8,400,19,,ISIC_0026281.JPG
break,html.Screen,4_18_1,2023-11-01T16:09:02.392Z,,0,,,NaN,,,,,,false,,,,247325,247324,,247323,,247323.84,8,400,,,
break_continue,html.Screen,4_18_2,2023-11-01T16:09:02.394Z,,0,,,NaN,,,,,,false,,,,247326,247325,,247325,,247323.84,8,400,,,
sequence,flow.Sequence,4_18,2023-11-01T16:09:02.394Z,,0,,,4953.820000000007,completion,,,,,false,,,,247326,247325,242370.66,242375,242371.18,247323.84,8,400,,,
trial,html.Screen,4_19_0,2023-11-01T16:09:06.600Z,,0,1,,4208.1600000000035,response,ISIC_9485536.JPG,14,ISIC_2482061.JPG,ISIC_2482061.JPG,false,0,keypress(z),500,251533,251532,247323.32,247326,247323.84,251533.72,8,400,20,,ISIC_9485536.JPG
break,html.Screen,4_19_1,2023-11-01T16:09:06.602Z,,0,,,NaN,,,,,,false,,,,251535,251534,,251533,,251533.72,8,400,,,
break_continue,html.Screen,4_19_2,2023-11-01T16:09:06.603Z,,0,,,NaN,,,,,,false,,,,251536,251536,,251535,,251533.72,8,400,,,
sequence,flow.Sequence,4_19,2023-11-01T16:09:06.604Z,,0,,,4212.1600000000035,completion,,,,,false,,,,251536,251536,247323.32,247326,247323.84,251533.72,8,400,,,
trial,html.Screen,4_20_0,2023-11-01T16:09:10.330Z,,0,1,,3728.279999999999,response,ISIC_0046345.JPG,15,ISIC_0055054.JPG,ISIC_0055054.JPG,false,0,keypress(z),500,255263,255262,251533.2,251537,251533.72,255263.62,8,400,21,,ISIC_0046345.JPG
break,html.Screen,4_20_1,2023-11-01T16:09:10.332Z,,0,,,NaN,,,,,,false,,,,255265,255264,,255263,,255263.62,8,400,,,
break_continue,html.Screen,4_20_2,2023-11-01T16:09:10.333Z,,0,,,NaN,,,,,,false,,,,255266,255265,,255265,,255263.62,8,400,,,
sequence,flow.Sequence,4_20,2023-11-01T16:09:10.334Z,,0,,,3731.279999999999,completion,,,,,false,,,,255266,255265,251533.2,251536,251533.72,255263.62,8,400,,,
trial,html.Screen,4_21_0,2023-11-01T16:09:13.329Z,,0,1,,2998.3800000000047,response,ISIC_0027436.JPG,24,ISIC_6712342.JPG,ISIC_0027436.JPG,false,1,keypress(m),500,258262,258262,255263.1,255267,255263.62,258262.94,8,400,22,,ISIC_6712342.JPG
break,html.Screen,4_21_1,2023-11-01T16:09:13.332Z,,0,,,NaN,,,,,,false,,,,258264,258264,,258262,,258262.94,8,400,,,
break_continue,html.Screen,4_21_2,2023-11-01T16:09:13.333Z,,0,,,NaN,,,,,,false,,,,258265,258265,,258265,,258262.94,8,400,,,
sequence,flow.Sequence,4_21,2023-11-01T16:09:13.333Z,,0,,,3001.3800000000047,completion,,,,,false,,,,258266,258265,255263.1,255267,255263.62,258262.94,8,400,,,
trial,html.Screen,4_22_0,2023-11-01T16:09:19.210Z,,0,1,,5879.059999999998,response,ISIC_7999342.JPG,4,ISIC_0013644.JPG,ISIC_0013644.JPG,false,0,keypress(z),500,264142,264142,258262.36,258266,258262.94,264143.46,8,400,23,,ISIC_7999342.JPG
break,html.Screen,4_22_1,2023-11-01T16:09:19.212Z,,0,,,NaN,,,,,,false,,,,264144,264144,,264143,,264143.46,8,400,,,
break_continue,html.Screen,4_22_2,2023-11-01T16:09:19.213Z,,0,,,NaN,,,,,,false,,,,264146,264146,,264145,,264143.46,8,400,,,
sequence,flow.Sequence,4_22,2023-11-01T16:09:19.213Z,,0,,,5883.059999999998,completion,,,,,false,,,,264146,264146,258262.36,258266,258262.94,264143.46,8,400,,,
trial,html.Screen,4_23_0,2023-11-01T16:09:23.440Z,,0,1,,4228.539999999979,response,ISIC_2856521.JPG,4,ISIC_0060773.JPG,ISIC_0060773.JPG,false,0,keypress(z),500,268373,268372,264142.92,264147,264143.46,268373.66,8,400,24,,ISIC_2856521.JPG
break,html.Screen,4_23_1,2023-11-01T16:09:23.442Z,,0,,,NaN,,,,,,false,,,,268375,268374,,268373,,268373.66,8,400,,,
break_continue,html.Screen,4_23_2,2023-11-01T16:09:23.444Z,,0,,,NaN,,,,,,false,,,,268376,268376,,268376,,268373.66,8,400,,,
sequence,flow.Sequence,4_23,2023-11-01T16:09:23.444Z,,0,,,4232.539999999979,completion,,,,,false,,,,268377,268376,264142.92,264147,264143.46,268373.66,8,400,,,
trial,html.Screen,4_24_0,2023-11-01T16:09:26.650Z,,0,1,,3208.3400000000256,response,ISIC_5614446.JPG,4,ISIC_4131697.JPG,ISIC_4131697.JPG,false,0,keypress(z),500,271582,271582,268373.12,268377,268373.66,271592.84,8,400,25,,ISIC_5614446.JPG
break,html.Screen,4_24_1,2023-11-01T16:09:26.652Z,,0,,,NaN,,,,,,false,,,,271585,271584,,271583,,271592.84,8,400,,,
break_continue,html.Screen,4_24_2,2023-11-01T16:09:26.653Z,,0,,,NaN,,,,,,false,,,,271586,271585,,271585,,271592.84,8,400,,,
sequence,flow.Sequence,4_24,2023-11-01T16:09:26.654Z,,0,,,3211.3400000000256,completion,,,,,false,,,,271586,271585,268373.12,268377,268373.66,271592.84,8,400,,,
trial,html.Screen,4_25_0,2023-11-01T16:09:34.930Z,,0,1,,8269.159999999974,response,ISIC_6553389.JPG,13,ISIC_0061158.JPG,ISIC_6553389.JPG,false,1,keypress(m),500,279862,279862,271582.98,271586,271592.84,279867.7,8,400,26,,ISIC_0061158.JPG
break,html.Screen,4_25_1,2023-11-01T16:09:34.933Z,,0,,,NaN,,,,,,false,,,,279865,279865,,279863,,279867.7,8,400,,,
break_continue,html.Screen,4_25_2,2023-11-01T16:09:34.934Z,,0,,,NaN,,,,,,false,,,,279866,279866,,279866,,279867.7,8,400,,,
sequence,flow.Sequence,4_25,2023-11-01T16:09:34.934Z,,0,,,8273.159999999974,completion,,,,,false,,,,279867,279866,271582.98,271586,271592.84,279867.7,8,400,,,
trial,html.Screen,4_26_0,2023-11-01T16:09:41.449Z,,0,1,,6514.299999999988,response,ISIC_0033168.JPG,14,ISIC_0071245.JPG,ISIC_0071245.JPG,false,0,keypress(z),500,286382,286382,279863.3,279867,279867.7,286383.42,8,400,27,,ISIC_0033168.JPG
break,html.Screen,4_26_1,2023-11-01T16:09:41.453Z,,0,,,NaN,,,,,,false,,,,286385,286384,,286383,,286383.42,8,400,,,
break_continue,html.Screen,4_26_2,2023-11-01T16:09:41.453Z,,0,,,NaN,,,,,,false,,,,286386,286386,,286386,,286383.42,8,400,,,
sequence,flow.Sequence,4_26,2023-11-01T16:09:41.454Z,,0,,,6518.299999999988,completion,,,,,false,,,,286387,286386,279863.3,279867,279867.7,286383.42,8,400,,,
trial,html.Screen,4_27_0,2023-11-01T16:09:48.431Z,,0,1,,6978.580000000016,response,ISIC_2266857.JPG,13,ISIC_4391909.JPG,ISIC_2266857.JPG,false,1,keypress(m),500,293363,293362,286382.88,286387,286383.42,293363.86,8,400,28,,ISIC_4391909.JPG
break,html.Screen,4_27_1,2023-11-01T16:09:48.432Z,,0,,,NaN,,,,,,false,,,,293365,293365,,293363,,293363.86,8,400,,,
break_continue,html.Screen,4_27_2,2023-11-01T16:09:48.434Z,,0,,,NaN,,,,,,false,,,,293366,293366,,293366,,293363.86,8,400,,,
sequence,flow.Sequence,4_27,2023-11-01T16:09:48.435Z,,0,,,6982.580000000016,completion,,,,,false,,,,293367,293366,286382.88,286387,286383.42,293363.86,8,400,,,
trial,html.Screen,4_28_0,2023-11-01T16:09:51.680Z,,0,1,,3248.140000000014,response,ISIC_0068126.JPG,12,ISIC_0003113.JPG,ISIC_0003113.JPG,false,0,keypress(z),500,296613,296612,293363.26,293367,293363.86,296617.42,8,400,29,,ISIC_0068126.JPG
break,html.Screen,4_28_1,2023-11-01T16:09:51.682Z,,0,,,NaN,,,,,,false,,,,296615,296614,,296613,,296617.42,8,400,,,
break_continue,html.Screen,4_28_2,2023-11-01T16:09:51.683Z,,0,,,NaN,,,,,,false,,,,296616,296615,,296615,,296617.42,8,400,,,
sequence,flow.Sequence,4_28,2023-11-01T16:09:51.684Z,,0,,,3251.140000000014,completion,,,,,false,,,,296616,296615,293363.26,293367,293363.86,296617.42,8,400,,,
trial,html.Screen,4_29_0,2023-11-01T16:09:56.169Z,,0,1,,4483.580000000016,response,ISIC_0029906.JPG,14,ISIC_5320483.JPG,ISIC_5320483.JPG,false,0,keypress(z),500,301103,301101,296613.02,296616,296617.42,301109.02,8,400,30,,ISIC_0029906.JPG
break,html.Screen,4_29_1,2023-11-01T16:09:56.172Z,,0,,,NaN,,,,,,false,,,,301105,301105,,301104,,301109.02,8,400,,,
break_continue,html.Screen,4_29_2,2023-11-01T16:09:56.174Z,,0,,,NaN,,,,,,false,,,,301106,301106,,301105,,301109.02,8,400,,,
sequence,flow.Sequence,4_29,2023-11-01T16:09:56.174Z,,0,,,4488.580000000016,completion,,,,,false,,,,301106,301106,296613.02,296616,296617.42,301109.02,8,400,,,
trial,html.Screen,4_30_0,2023-11-01T16:10:00.160Z,,0,1,,3982.9799999999814,response,ISIC_4105234.JPG,14,ISIC_4412555.JPG,ISIC_4412555.JPG,false,0,keypress(z),500,305092,305092,301103.22,301106,301109.02,305093.52,8,400,31,,ISIC_4105234.JPG
break,html.Screen,4_30_1,2023-11-01T16:10:00.163Z,,0,,,NaN,,,,,,false,,,,305094,305094,,305093,,305093.52,8,400,,,
break_continue,html.Screen,4_30_2,2023-11-01T16:10:00.163Z,,0,,,NaN,,,,,,false,,,,305096,305096,,305095,,305093.52,8,400,,,
sequence,flow.Sequence,4_30,2023-11-01T16:10:00.164Z,,0,,,3986.9799999999814,completion,,,,,false,,,,305097,305096,301103.22,301106,301109.02,305093.52,8,400,,,
trial,html.Screen,4_31_0,2023-11-01T16:10:03.247Z,,0,1,,3085.4799999999814,response,ISIC_3666219.JPG,4,ISIC_3060248.JPG,ISIC_3666219.JPG,false,1,keypress(m),500,308180,308179,305092.98,305097,305093.52,308183.8,8,400,32,,ISIC_3060248.JPG
break,html.Screen,4_31_1,2023-11-01T16:10:03.250Z,,0,,,NaN,,,,,,false,,,,308182,308182,,308180,,308183.8,8,400,,,
break_continue,html.Screen,4_31_2,2023-11-01T16:10:03.250Z,,0,,,NaN,,,,,,false,,,,308183,308183,,308183,,308183.8,8,400,,,
sequence,flow.Sequence,4_31,2023-11-01T16:10:03.252Z,,0,,,3089.4799999999814,completion,,,,,false,,,,308185,308183,305092.98,305097,305093.52,308183.8,8,400,,,
trial,html.Screen,4_32_0,2023-11-01T16:10:06.839Z,,0,1,,3587.2000000000116,response,ISIC_0034117.JPG,15,ISIC_9947369.JPG,ISIC_9947369.JPG,false,0,keypress(z),500,311773,311771,308180.3,308185,308183.8,311783.78,8,400,33,,ISIC_0034117.JPG
break,html.Screen,4_32_1,2023-11-01T16:10:06.842Z,,0,,,NaN,,,,,,false,,,,311775,311774,,311773,,311783.78,8,400,,,
break_continue,html.Screen,4_32_2,2023-11-01T16:10:06.844Z,,0,,,NaN,,,,,,false,,,,311776,311776,,311775,,311783.78,8,400,,,
sequence,flow.Sequence,4_32,2023-11-01T16:10:06.844Z,,0,,,3592.2000000000116,completion,,,,,false,,,,311777,311776,308180.3,308185,308183.8,311783.78,8,400,,,
trial,html.Screen,4_33_0,2023-11-01T16:10:11.330Z,,0,1,,4478.219999999972,response,ISIC_0068217.JPG,4,ISIC_0031303.JPG,ISIC_0031303.JPG,false,0,keypress(z),500,316263,316262,311772.86,311777,311783.78,316275.36,8,400,34,,ISIC_0068217.JPG
break,html.Screen,4_33_1,2023-11-01T16:10:11.333Z,,0,,,NaN,,,,,,false,,,,316266,316264,,316263,,316275.36,8,400,,,
break_continue,html.Screen,4_33_2,2023-11-01T16:10:11.334Z,,0,,,NaN,,,,,,false,,,,316267,316267,,316267,,316275.36,8,400,,,
sequence,flow.Sequence,4_33,2023-11-01T16:10:11.335Z,,0,,,4483.219999999972,completion,,,,,false,,,,316268,316267,311772.86,311777,311783.78,316275.36,8,400,,,
trial,html.Screen,4_34_0,2023-11-01T16:10:14.590Z,,0,1,,3246.640000000014,response,ISIC_0024351.JPG,2,ISIC_0068126.JPG,ISIC_0024351.JPG,false,1,keypress(m),500,319523,319522,316263.48,316268,316275.36,319525.32,8,400,35,,ISIC_0068126.JPG
break,html.Screen,4_34_1,2023-11-01T16:10:14.592Z,,0,,,NaN,,,,,,false,,,,319525,319524,,319523,,319525.32,8,400,,,
break_continue,html.Screen,4_34_2,2023-11-01T16:10:14.594Z,,0,,,NaN,,,,,,false,,,,319527,319527,,319525,,319525.32,8,400,,,
sequence,flow.Sequence,4_34,2023-11-01T16:10:14.594Z,,0,,,3251.640000000014,completion,,,,,false,,,,319527,319527,316263.48,316268,316275.36,319525.32,8,400,,,
trial,html.Screen,4_35_0,2023-11-01T16:10:18.600Z,,0,1,,4006.679999999993,response,ISIC_0210998.JPG,3,ISIC_9918523.JPG,ISIC_0210998.JPG,false,1,keypress(m),500,323532,323532,319523.24,319528,319525.32,323533.38,8,400,36,,ISIC_9918523.JPG
break,html.Screen,4_35_1,2023-11-01T16:10:18.603Z,,0,,,NaN,,,,,,false,,,,323535,323534,,323533,,323533.38,8,400,,,
break_continue,html.Screen,4_35_2,2023-11-01T16:10:18.604Z,,0,,,NaN,,,,,,false,,,,323536,323535,,323535,,323533.38,8,400,,,
sequence,flow.Sequence,4_35,2023-11-01T16:10:18.604Z,,0,,,4009.679999999993,completion,,,,,false,,,,323536,323535,319523.24,319528,319525.32,323533.38,8,400,,,
trial,html.Screen,4_36_0,2023-11-01T16:10:23.510Z,,0,1,,4908.619999999995,response,ISIC_3816833.JPG,13,ISIC_0012208.JPG,ISIC_3816833.JPG,false,1,keypress(m),500,328443,328442,323532.72,323536,323533.38,328443.5,8,400,37,,ISIC_0012208.JPG
break,html.Screen,4_36_1,2023-11-01T16:10:23.512Z,,0,,,NaN,,,,,,false,,,,328445,328444,,328443,,328443.5,8,400,,,
break_continue,html.Screen,4_36_2,2023-11-01T16:10:23.513Z,,0,,,NaN,,,,,,false,,,,328446,328445,,328445,,328443.5,8,400,,,
sequence,flow.Sequence,4_36,2023-11-01T16:10:23.514Z,,0,,,4911.619999999995,completion,,,,,false,,,,328446,328445,323532.72,323536,323533.38,328443.5,8,400,,,
trial,html.Screen,4_37_0,2023-11-01T16:10:26.520Z,,0,1,,3008.5,response,ISIC_1104374.JPG,14,ISIC_0010597.JPG,ISIC_0010597.JPG,false,0,keypress(z),500,331453,331452,328442.9,328446,328443.5,331453.68,8,400,38,,ISIC_1104374.JPG
break,html.Screen,4_37_1,2023-11-01T16:10:26.523Z,,0,,,NaN,,,,,,false,,,,331455,331454,,331453,,331453.68,8,400,,,
break_continue,html.Screen,4_37_2,2023-11-01T16:10:26.523Z,,0,,,NaN,,,,,,false,,,,331456,331456,,331455,,331453.68,8,400,,,
sequence,flow.Sequence,4_37,2023-11-01T16:10:26.524Z,,0,,,3012.5,completion,,,,,false,,,,331456,331456,328442.9,328446,328443.5,331453.68,8,400,,,
trial,html.Screen,4_38_0,2023-11-01T16:10:29.659Z,,0,1,,3138.320000000007,response,ISIC_6717452.JPG,14,ISIC_0032965.JPG,ISIC_6717452.JPG,false,1,keypress(m),500,334592,334592,331453.14,331457,331453.68,334593.56,8,400,39,,ISIC_0032965.JPG
break,html.Screen,4_38_1,2023-11-01T16:10:29.662Z,,0,,,NaN,,,,,,false,,,,334594,334594,,334593,,334593.56,8,400,,,
break_continue,html.Screen,4_38_2,2023-11-01T16:10:29.663Z,,0,,,NaN,,,,,,false,,,,334596,334596,,334595,,334593.56,8,400,,,
sequence,flow.Sequence,4_38,2023-11-01T16:10:29.664Z,,0,,,3142.320000000007,completion,,,,,false,,,,334596,334596,331453.14,331457,331453.68,334593.56,8,400,,,
trial,html.Screen,4_39_0,2023-11-01T16:10:32.929Z,,0,1,,3268.4400000000023,response,ISIC_2536779.JPG,3,ISIC_0056849.JPG,ISIC_2536779.JPG,false,1,keypress(m),500,337863,337862,334593.04,334597,334593.56,337863.68,8,400,40,,ISIC_0056849.JPG
break,html.Screen,4_39_1,2023-11-01T16:10:32.932Z,,0,,,NaN,,,,,,false,,,,337865,337864,,337863,,337863.68,8,400,,,
break_continue,html.Screen,4_39_2,2023-11-01T16:10:32.933Z,,0,,,NaN,,,,,,false,,,,337866,337865,,337865,,337863.68,8,400,,,
sequence,flow.Sequence,4_39,2023-11-01T16:10:32.934Z,,0,,,3271.4400000000023,completion,,,,,false,,,,337866,337865,334593.04,334597,334593.56,337863.68,8,400,,,
trial,html.Screen,4_40_0,2023-11-01T16:10:36.610Z,,0,1,,3678.320000000007,response,ISIC_9183042.JPG,4,ISIC_1382677.JPG,ISIC_1382677.JPG,false,0,keypress(z),500,341542,341542,337863.12,337866,337863.68,341543.86,8,400,41,,ISIC_9183042.JPG
break,html.Screen,4_40_1,2023-11-01T16:10:36.613Z,,0,,,NaN,,,,,,false,,,,341546,341544,,341543,,341543.86,8,400,,,
break_continue,html.Screen,4_40_2,2023-11-01T16:10:36.614Z,,0,,,NaN,,,,,,false,,,,341547,341546,,341546,,341543.86,8,400,,,
sequence,flow.Sequence,4_40,2023-11-01T16:10:36.614Z,,0,,,3682.320000000007,completion,,,,,false,,,,341547,341546,337863.12,337866,337863.68,341543.86,8,400,,,
trial,html.Screen,4_41_0,2023-11-01T16:10:41.950Z,,0,1,,5338.140000000014,response,ISIC_0053846.JPG,12,ISIC_4701900.JPG,ISIC_0053846.JPG,false,1,keypress(m),500,346882,346882,341543.34,341547,341543.86,346883.36,8,400,42,,ISIC_4701900.JPG
break,html.Screen,4_41_1,2023-11-01T16:10:41.952Z,,0,,,NaN,,,,,,false,,,,346884,346884,,346883,,346883.36,8,400,,,
break_continue,html.Screen,4_41_2,2023-11-01T16:10:41.953Z,,0,,,NaN,,,,,,false,,,,346885,346885,,346885,,346883.36,8,400,,,
sequence,flow.Sequence,4_41,2023-11-01T16:10:41.954Z,,0,,,5341.140000000014,completion,,,,,false,,,,346886,346885,341543.34,341547,341543.86,346883.36,8,400,,,
trial,html.Screen,4_42_0,2023-11-01T16:10:46.060Z,,0,1,,4108.640000000014,response,ISIC_6269414.JPG,14,ISIC_0006331.JPG,ISIC_0006331.JPG,false,0,keypress(z),500,350992,350992,346882.84,346887,346883.36,350999.78,8,400,43,,ISIC_6269414.JPG
break,html.Screen,4_42_1,2023-11-01T16:10:46.062Z,,0,,,NaN,,,,,,false,,,,350995,350995,,350993,,350999.78,8,400,,,
break_continue,html.Screen,4_42_2,2023-11-01T16:10:46.064Z,,0,,,NaN,,,,,,false,,,,350996,350996,,350995,,350999.78,8,400,,,
sequence,flow.Sequence,4_42,2023-11-01T16:10:46.064Z,,0,,,4112.640000000014,completion,,,,,false,,,,350996,350996,346882.84,346887,346883.36,350999.78,8,400,,,
trial,html.Screen,4_43_0,2023-11-01T16:10:49.601Z,,0,1,,3532.219999999972,response,ISIC_0011209.JPG,2,ISIC_0013311.JPG,ISIC_0011209.JPG,false,1,keypress(m),500,354532,354532,350993.1,350997,350999.78,354533.68,8,400,44,,ISIC_0013311.JPG
break,html.Screen,4_43_1,2023-11-01T16:10:49.602Z,,0,,,NaN,,,,,,false,,,,354535,354534,,354534,,354533.68,8,400,,,
break_continue,html.Screen,4_43_2,2023-11-01T16:10:49.603Z,,0,,,NaN,,,,,,false,,,,354535,354535,,354535,,354533.68,8,400,,,
sequence,flow.Sequence,4_43,2023-11-01T16:10:49.604Z,,0,,,3535.219999999972,completion,,,,,false,,,,354536,354535,350993.1,350997,350999.78,354533.68,8,400,,,
trial,html.Screen,4_44_0,2023-11-01T16:10:52.979Z,,0,1,,3378.320000000007,response,ISIC_1351604.JPG,14,ISIC_3585381.JPG,ISIC_3585381.JPG,false,0,keypress(z),500,357912,357912,354533.14,354536,354533.68,357916.32,8,400,45,,ISIC_1351604.JPG
break,html.Screen,4_44_1,2023-11-01T16:10:52.982Z,,0,,,NaN,,,,,,false,,,,357915,357914,,357913,,357916.32,8,400,,,
break_continue,html.Screen,4_44_2,2023-11-01T16:10:52.983Z,,0,,,NaN,,,,,,false,,,,357915,357915,,357915,,357916.32,8,400,,,
sequence,flow.Sequence,4_44,2023-11-01T16:10:52.983Z,,0,,,3381.320000000007,completion,,,,,false,,,,357916,357915,354533.14,354536,354533.68,357916.32,8,400,,,
trial,html.Screen,4_45_0,2023-11-01T16:10:57.070Z,,0,1,,4085.679999999993,response,ISIC_9906378.JPG,13,ISIC_5762714.JPG,ISIC_9906378.JPG,false,1,keypress(m),500,362003,362002,357912.74,357916,357916.32,362003.7,8,400,46,,ISIC_5762714.JPG
break,html.Screen,4_45_1,2023-11-01T16:10:57.073Z,,0,,,NaN,,,,,,false,,,,362005,362004,,362003,,362003.7,8,400,,,
break_continue,html.Screen,4_45_2,2023-11-01T16:10:57.073Z,,0,,,NaN,,,,,,false,,,,362006,362005,,362005,,362003.7,8,400,,,
sequence,flow.Sequence,4_45,2023-11-01T16:10:57.074Z,,0,,,4088.679999999993,completion,,,,,false,,,,362007,362005,357912.74,357916,357916.32,362003.7,8,400,,,
trial,html.Screen,4_46_0,2023-11-01T16:11:01.100Z,,0,1,,4028.2999999999884,response,ISIC_0072041.JPG,4,ISIC_1108178.JPG,ISIC_1108178.JPG,false,0,keypress(z),500,366032,366032,362003.12,362007,362003.7,366033.3,8,400,47,,ISIC_0072041.JPG
break,html.Screen,4_46_1,2023-11-01T16:11:01.102Z,,0,,,NaN,,,,,,false,,,,366034,366034,,366033,,366033.3,8,400,,,
break_continue,html.Screen,4_46_2,2023-11-01T16:11:01.103Z,,0,,,NaN,,,,,,false,,,,366036,366035,,366034,,366033.3,8,400,,,
sequence,flow.Sequence,4_46,2023-11-01T16:11:01.103Z,,0,,,4031.2999999999884,completion,,,,,false,,,,366036,366035,362003.12,362007,362003.7,366033.3,8,400,,,
trial,html.Screen,4_47_0,2023-11-01T16:11:05.090Z,,0,1,,3988.7000000000116,response,ISIC_9996128.JPG,15,ISIC_1492055.JPG,ISIC_9996128.JPG,false,1,keypress(m),500,370022,370022,366032.8,366036,366033.3,370023.54,8,400,48,,ISIC_1492055.JPG
break,html.Screen,4_47_1,2023-11-01T16:11:05.092Z,,0,,,NaN,,,,,,false,,,,370025,370024,,370023,,370023.54,8,400,,,
break_continue,html.Screen,4_47_2,2023-11-01T16:11:05.093Z,,0,,,NaN,,,,,,false,,,,370026,370025,,370025,,370023.54,8,400,,,
sequence,flow.Sequence,4_47,2023-11-01T16:11:05.094Z,,0,,,3991.7000000000116,completion,,,,,false,,,,370026,370025,366032.8,366036,366033.3,370023.54,8,400,,,
trial,html.Screen,4_48_0,2023-11-01T16:11:10.100Z,,0,1,,5007.460000000021,response,ISIC_2011145.JPG,15,ISIC_0027214.JPG,ISIC_0027214.JPG,false,0,keypress(z),500,375032,375031,370022.98,370026,370023.54,375033.46,8,400,49,,ISIC_2011145.JPG
break,html.Screen,4_48_1,2023-11-01T16:11:10.102Z,,0,,,NaN,,,,,,false,,,,375034,375034,,375033,,375033.46,8,400,,,
break_continue,html.Screen,4_48_2,2023-11-01T16:11:10.103Z,,0,,,NaN,,,,,,false,,,,375036,375036,,375035,,375033.46,8,400,,,
sequence,flow.Sequence,4_48,2023-11-01T16:11:10.103Z,,0,,,5012.460000000021,completion,,,,,false,,,,375036,375036,370022.98,370026,370023.54,375033.46,8,400,,,
trial,html.Screen,4_49_0,2023-11-01T16:11:17.000Z,,0,1,,6898.539999999979,response,ISIC_0059866.JPG,4,ISIC_0024307.JPG,ISIC_0059866.JPG,false,1,keypress(m),500,381932,381932,375032.94,375037,375033.46,381933.52,8,400,50,,ISIC_0024307.JPG
break,html.Screen,4_49_1,2023-11-01T16:11:26.985Z,,0,,,9998.839999999967,timeout,,,,,false,,,,391918,391915.68,381932.92,381933,381933.52,391932.36,8,400,,,
break_continue,html.Screen,4_49_2,2023-11-01T16:11:33.238Z,,0,,,6201.640000000014,response,,,,,false,continue,keypress(Space),,398170,398134,391915.68,391918,391932.36,398182.22,8,400,,,
sequence,flow.Sequence,4_49,2023-11-01T16:11:33.238Z,,0,,,23100.53999999998,completion,,,,,false,,,,398171,398134,375032.94,375037,375033.46,398182.22,8,400,,,
trial,html.Screen,4_50_0,2023-11-01T16:11:38.040Z,,0,2,,4789.780000000028,response,ISIC_9719936.JPG,7,ISIC_0058836.JPG,ISIC_9719936.JPG,false,1,keypress(m),500,402972,402972,398171.82,398172,398182.22,402973.48,8,400,1,,ISIC_0058836.JPG
break,html.Screen,4_50_1,2023-11-01T16:11:38.042Z,,0,,,NaN,,,,,,false,,,,402975,402974,,402973,,402973.48,8,400,,,
break_continue,html.Screen,4_50_2,2023-11-01T16:11:38.044Z,,0,,,NaN,,,,,,false,,,,402976,402976,,402975,,402973.48,8,400,,,
sequence,flow.Sequence,4_50,2023-11-01T16:11:38.044Z,,0,,,4793.780000000028,completion,,,,,false,,,,402976,402976,398171.82,398171,398182.22,402973.48,8,400,,,
trial,html.Screen,4_51_0,2023-11-01T16:11:41.260Z,,0,2,,3218.5200000000186,response,ISIC_0027265.JPG,13,ISIC_0064102.JPG,ISIC_0027265.JPG,false,1,keypress(m),500,406193,406192,402972.94,402977,402973.48,406193.68,8,400,2,,ISIC_0064102.JPG
break,html.Screen,4_51_1,2023-11-01T16:11:41.263Z,,0,,,NaN,,,,,,false,,,,406195,406194,,406193,,406193.68,8,400,,,
break_continue,html.Screen,4_51_2,2023-11-01T16:11:41.264Z,,0,,,NaN,,,,,,false,,,,406196,406195,,406195,,406193.68,8,400,,,
sequence,flow.Sequence,4_51,2023-11-01T16:11:41.264Z,,0,,,3221.5200000000186,completion,,,,,false,,,,406196,406195,402972.94,402977,402973.48,406193.68,8,400,,,
trial,html.Screen,4_52_0,2023-11-01T16:11:45.449Z,,0,2,,4188.320000000007,response,ISIC_4978697.JPG,4,ISIC_3989526.JPG,ISIC_3989526.JPG,false,0,keypress(z),500,410382,410382,406193.08,406196,406193.68,410383.4,8,400,3,,ISIC_4978697.JPG
break,html.Screen,4_52_1,2023-11-01T16:11:45.452Z,,0,,,NaN,,,,,,false,,,,410384,410384,,410383,,410383.4,8,400,,,
break_continue,html.Screen,4_52_2,2023-11-01T16:11:45.453Z,,0,,,NaN,,,,,,false,,,,410386,410386,,410385,,410383.4,8,400,,,
sequence,flow.Sequence,4_52,2023-11-01T16:11:45.453Z,,0,,,4192.320000000007,completion,,,,,false,,,,410386,410386,406193.08,406196,406193.68,410383.4,8,400,,,
trial,html.Screen,4_53_0,2023-11-01T16:11:48.579Z,,0,2,,3127.5999999999767,response,ISIC_1859923.JPG,3,ISIC_0030873.JPG,ISIC_1859923.JPG,false,1,keypress(m),500,413512,413511,410382.88,410387,410383.4,413523.6,8,400,4,,ISIC_0030873.JPG
break,html.Screen,4_53_1,2023-11-01T16:11:48.582Z,,0,,,NaN,,,,,,false,,,,413515,413514,,413513,,413523.6,8,400,,,
break_continue,html.Screen,4_53_2,2023-11-01T16:11:48.583Z,,0,,,NaN,,,,,,false,,,,413516,413515,,413515,,413523.6,8,400,,,
sequence,flow.Sequence,4_53,2023-11-01T16:11:48.583Z,,0,,,3131.5999999999767,completion,,,,,false,,,,413516,413515,410382.88,410387,410383.4,413523.6,8,400,,,
trial,html.Screen,4_54_0,2023-11-01T16:11:53.290Z,,0,2,,4698.400000000023,response,ISIC_9720044.JPG,4,ISIC_5099569.JPG,ISIC_5099569.JPG,false,0,keypress(z),500,418223,418222,413512.56,413516,413523.6,418223.16,8,400,5,,ISIC_9720044.JPG
break,html.Screen,4_54_1,2023-11-01T16:11:53.292Z,,0,,,NaN,,,,,,false,,,,418225,418224,,418223,,418223.16,8,400,,,
break_continue,html.Screen,4_54_2,2023-11-01T16:11:53.293Z,,0,,,NaN,,,,,,false,,,,418225,418225,,418225,,418223.16,8,400,,,
sequence,flow.Sequence,4_54,2023-11-01T16:11:53.293Z,,0,,,4701.400000000023,completion,,,,,false,,,,418226,418225,413512.56,413516,413523.6,418223.16,8,400,,,
trial,html.Screen,4_55_0,2023-11-01T16:11:56.560Z,,0,2,,3268.8400000000256,response,ISIC_0031629.JPG,4,ISIC_0028181.JPG,ISIC_0031629.JPG,false,1,keypress(m),500,421493,421492,418222.6,418226,418223.16,421493.8,8,400,6,,ISIC_0028181.JPG
break,html.Screen,4_55_1,2023-11-01T16:11:56.563Z,,0,,,NaN,,,,,,false,,,,421495,421494,,421494,,421493.8,8,400,,,
break_continue,html.Screen,4_55_2,2023-11-01T16:11:56.563Z,,0,,,NaN,,,,,,false,,,,421496,421495,,421495,,421493.8,8,400,,,
sequence,flow.Sequence,4_55,2023-11-01T16:11:56.564Z,,0,,,3271.8400000000256,completion,,,,,false,,,,421496,421495,418222.6,418226,418223.16,421493.8,8,400,,,
trial,html.Screen,4_56_0,2023-11-01T16:11:59.990Z,,0,2,,3428.2000000000116,response,ISIC_5656921.JPG,4,ISIC_9223679.JPG,ISIC_9223679.JPG,false,0,keypress(z),500,424922,424922,421493.26,421496,421493.8,424923.6,8,400,7,,ISIC_5656921.JPG
break,html.Screen,4_56_1,2023-11-01T16:11:59.992Z,,0,,,NaN,,,,,,false,,,,424924,424924,,424923,,424923.6,8,400,,,
break_continue,html.Screen,4_56_2,2023-11-01T16:11:59.993Z,,0,,,NaN,,,,,,false,,,,424926,424926,,424926,,424923.6,8,400,,,
sequence,flow.Sequence,4_56,2023-11-01T16:11:59.993Z,,0,,,3432.2000000000116,completion,,,,,false,,,,424927,424926,421493.26,421496,421493.8,424923.6,8,400,,,
trial,html.Screen,4_57_0,2023-11-01T16:12:03.201Z,,0,2,,3208.4000000000233,response,ISIC_1945381.JPG,14,ISIC_5732201.JPG,ISIC_1945381.JPG,false,1,keypress(m),500,428133,428132,424923.06,424927,424923.6,428148.34,8,400,8,,ISIC_5732201.JPG
break,html.Screen,4_57_1,2023-11-01T16:12:03.202Z,,0,,,NaN,,,,,,false,,,,428135,428135,,428133,,428148.34,8,400,,,
break_continue,html.Screen,4_57_2,2023-11-01T16:12:03.204Z,,0,,,NaN,,,,,,false,,,,428136,428136,,428135,,428148.34,8,400,,,
sequence,flow.Sequence,4_57,2023-11-01T16:12:03.204Z,,0,,,3212.4000000000233,completion,,,,,false,,,,428137,428136,424923.06,424927,424923.6,428148.34,8,400,,,
trial,html.Screen,4_58_0,2023-11-01T16:12:08.059Z,,0,2,,4843.659999999974,response,ISIC_0027238.JPG,2,ISIC_0046344.JPG,ISIC_0046344.JPG,false,0,keypress(z),500,432992,432992,428131.72,428138,428148.34,432998.28,8,400,9,,ISIC_0027238.JPG
break,html.Screen,4_58_1,2023-11-01T16:12:08.062Z,,0,,,NaN,,,,,,false,,,,432994,432994,,432993,,432998.28,8,400,,,
break_continue,html.Screen,4_58_2,2023-11-01T16:12:08.063Z,,0,,,NaN,,,,,,false,,,,432996,432995,,432995,,432998.28,8,400,,,
sequence,flow.Sequence,4_58,2023-11-01T16:12:08.063Z,,0,,,4846.659999999974,completion,,,,,false,,,,432996,432995,428131.72,428137,428148.34,432998.28,8,400,,,
trial,html.Screen,4_59_0,2023-11-01T16:12:11.100Z,,0,2,,3032.719999999972,response,ISIC_9449365.JPG,14,ISIC_0000549.JPG,ISIC_9449365.JPG,false,1,keypress(m),500,436032,436031,432992.58,432996,432998.28,436033.38,8,400,10,,ISIC_0000549.JPG
break,html.Screen,4_59_1,2023-11-01T16:12:11.102Z,,0,,,NaN,,,,,,false,,,,436035,436034,,436032,,436033.38,8,400,,,
break_continue,html.Screen,4_59_2,2023-11-01T16:12:11.103Z,,0,,,NaN,,,,,,false,,,,436036,436036,,436035,,436033.38,8,400,,,
sequence,flow.Sequence,4_59,2023-11-01T16:12:11.104Z,,0,,,3037.719999999972,completion,,,,,false,,,,436036,436036,432992.58,432996,432998.28,436033.38,8,400,,,
trial,html.Screen,4_60_0,2023-11-01T16:12:14.381Z,,0,2,,3278.6199999999953,response,ISIC_0061829.JPG,33,ISIC_0029374.JPG,ISIC_0029374.JPG,false,0,keypress(z),500,439312,439312,436032.9,436036,436033.38,439323.16,8,400,11,,ISIC_0061829.JPG
break,html.Screen,4_60_1,2023-11-01T16:12:14.382Z,,0,,,NaN,,,,,,false,,,,439315,439315,,439313,,439323.16,8,400,,,
break_continue,html.Screen,4_60_2,2023-11-01T16:12:14.383Z,,0,,,NaN,,,,,,false,,,,439316,439316,,439316,,439323.16,8,400,,,
sequence,flow.Sequence,4_60,2023-11-01T16:12:14.384Z,,0,,,3282.6199999999953,completion,,,,,false,,,,439317,439316,436032.9,436036,436033.38,439323.16,8,400,,,
trial,html.Screen,4_61_0,2023-11-01T16:12:19.830Z,,0,2,,5437.840000000026,response,ISIC_0030856.JPG,14,ISIC_7136995.JPG,ISIC_0030856.JPG,false,1,keypress(m),500,444763,444761,439313.12,439317,439323.16,444764.72,8,400,12,,ISIC_7136995.JPG
break,html.Screen,4_61_1,2023-11-01T16:12:19.831Z,,0,,,NaN,,,,,,false,,,,444765,444764,,444763,,444764.72,8,400,,,
break_continue,html.Screen,4_61_2,2023-11-01T16:12:19.833Z,,0,,,NaN,,,,,,false,,,,444766,444765,,444765,,444764.72,8,400,,,
sequence,flow.Sequence,4_61,2023-11-01T16:12:19.833Z,,0,,,5441.840000000026,completion,,,,,false,,,,444766,444765,439313.12,439317,439323.16,444764.72,8,400,,,
trial,html.Screen,4_62_0,2023-11-01T16:12:22.840Z,,0,2,,3007.280000000028,response,ISIC_9261199.JPG,5,ISIC_0032685.JPG,ISIC_9261199.JPG,false,1,keypress(m),500,447773,447772,444762.82,444766,444764.72,447773.7,8,400,13,,ISIC_0032685.JPG
break,html.Screen,4_62_1,2023-11-01T16:12:22.842Z,,0,,,NaN,,,,,,false,,,,447775,447775,,447773,,447773.7,8,400,,,
break_continue,html.Screen,4_62_2,2023-11-01T16:12:22.844Z,,0,,,NaN,,,,,,false,,,,447776,447775,,447775,,447773.7,8,400,,,
sequence,flow.Sequence,4_62,2023-11-01T16:12:22.844Z,,0,,,3010.280000000028,completion,,,,,false,,,,447776,447775,444762.82,444766,444764.72,447773.7,8,400,,,
trial,html.Screen,4_63_0,2023-11-01T16:12:27.110Z,,0,2,,4268.299999999988,response,ISIC_0068677.JPG,12,ISIC_4088444.JPG,ISIC_4088444.JPG,false,0,keypress(z),500,452043,452042,447773.18,447777,447773.7,452043.62,8,400,14,,ISIC_0068677.JPG
break,html.Screen,4_63_1,2023-11-01T16:12:27.113Z,,0,,,NaN,,,,,,false,,,,452045,452044,,452043,,452043.62,8,400,,,
break_continue,html.Screen,4_63_2,2023-11-01T16:12:27.113Z,,0,,,NaN,,,,,,false,,,,452046,452045,,452045,,452043.62,8,400,,,
sequence,flow.Sequence,4_63,2023-11-01T16:12:27.113Z,,0,,,4271.299999999988,completion,,,,,false,,,,452046,452045,447773.18,447776,447773.7,452043.62,8,400,,,
trial,html.Screen,4_64_0,2023-11-01T16:12:30.420Z,,0,2,,3308.3800000000047,response,ISIC_0069970.JPG,14,ISIC_1473511.JPG,ISIC_1473511.JPG,false,0,keypress(z),500,455352,455352,452043.06,452046,452043.62,455364.52,8,400,15,,ISIC_0069970.JPG
break,html.Screen,4_64_1,2023-11-01T16:12:30.422Z,,0,,,NaN,,,,,,false,,,,455354,455354,,455353,,455364.52,8,400,,,
break_continue,html.Screen,4_64_2,2023-11-01T16:12:30.423Z,,0,,,NaN,,,,,,false,,,,455355,455355,,455355,,455364.52,8,400,,,
sequence,flow.Sequence,4_64,2023-11-01T16:12:30.424Z,,0,,,3311.3800000000047,completion,,,,,false,,,,455356,455355,452043.06,452046,452043.62,455364.52,8,400,,,
trial,html.Screen,4_65_0,2023-11-01T16:12:33.740Z,,0,2,,3307.4799999999814,response,ISIC_7454512.JPG,5,ISIC_0025812.JPG,ISIC_7454512.JPG,false,1,keypress(m),500,458673,458672,455352.5,455356,455364.52,458673.68,8,400,16,,ISIC_0025812.JPG
break,html.Screen,4_65_1,2023-11-01T16:12:33.743Z,,0,,,NaN,,,,,,false,,,,458675,458674,,458673,,458673.68,8,400,,,
break_continue,html.Screen,4_65_2,2023-11-01T16:12:33.744Z,,0,,,NaN,,,,,,false,,,,458676,458675,,458675,,458673.68,8,400,,,
sequence,flow.Sequence,4_65,2023-11-01T16:12:33.744Z,,0,,,3310.4799999999814,completion,,,,,false,,,,458676,458675,455352.5,455356,455364.52,458673.68,8,400,,,
trial,html.Screen,4_66_0,2023-11-01T16:12:37.139Z,,0,2,,3398.320000000007,response,ISIC_0033042.JPG,5,ISIC_0069558.JPG,ISIC_0033042.JPG,false,1,keypress(m),500,462072,462072,458673.08,458676,458673.68,462081.04,8,400,17,,ISIC_0069558.JPG
break,html.Screen,4_66_1,2023-11-01T16:12:37.142Z,,0,,,NaN,,,,,,false,,,,462075,462074,,462073,,462081.04,8,400,,,
break_continue,html.Screen,4_66_2,2023-11-01T16:12:37.143Z,,0,,,NaN,,,,,,false,,,,462075,462075,,462075,,462081.04,8,400,,,
sequence,flow.Sequence,4_66,2023-11-01T16:12:37.143Z,,0,,,3401.320000000007,completion,,,,,false,,,,462076,462075,458673.08,458676,458673.68,462081.04,8,400,,,
trial,html.Screen,4_67_0,2023-11-01T16:12:41.200Z,,0,2,,4050.960000000021,response,ISIC_0057617.JPG,14,ISIC_0010023.JPG,ISIC_0057617.JPG,false,1,keypress(m),500,466133,466132,462072.88,462076,462081.04,466133.66,8,400,18,,ISIC_0010023.JPG
break,html.Screen,4_67_1,2023-11-01T16:12:41.202Z,,0,,,NaN,,,,,,false,,,,466135,466135,,466133,,466133.66,8,400,,,
break_continue,html.Screen,4_67_2,2023-11-01T16:12:41.203Z,,0,,,NaN,,,,,,false,,,,466136,466136,,466136,,466133.66,8,400,,,
sequence,flow.Sequence,4_67,2023-11-01T16:12:41.204Z,,0,,,4054.960000000021,completion,,,,,false,,,,466136,466136,462072.88,462076,462081.04,466133.66,8,400,,,
trial,html.Screen,4_68_0,2023-11-01T16:12:44.400Z,,0,2,,3198.3400000000256,response,ISIC_6701139.JPG,14,ISIC_0437978.JPG,ISIC_6701139.JPG,false,1,keypress(m),500,469332,469332,466133.1,466136,466133.66,469333.66,8,400,19,,ISIC_0437978.JPG
break,html.Screen,4_68_1,2023-11-01T16:12:44.402Z,,0,,,NaN,,,,,,false,,,,469334,469334,,469333,,469333.66,8,400,,,
break_continue,html.Screen,4_68_2,2023-11-01T16:12:44.403Z,,0,,,NaN,,,,,,false,,,,469336,469335,,469335,,469333.66,8,400,,,
sequence,flow.Sequence,4_68,2023-11-01T16:12:44.403Z,,0,,,3201.3400000000256,completion,,,,,false,,,,469336,469335,466133.1,466136,466133.66,469333.66,8,400,,,
trial,html.Screen,4_69_0,2023-11-01T16:12:47.260Z,,0,2,,2858.3400000000256,response,ISIC_7662993.JPG,3,ISIC_2693412.JPG,ISIC_2693412.JPG,false,0,keypress(z),500,472193,472192,469332.98,469336,469333.66,472197.58,8,400,20,,ISIC_7662993.JPG
break,html.Screen,4_69_1,2023-11-01T16:12:47.262Z,,0,,,NaN,,,,,,false,,,,472195,472195,,472193,,472197.58,8,400,,,
break_continue,html.Screen,4_69_2,2023-11-01T16:12:47.263Z,,0,,,NaN,,,,,,false,,,,472196,472196,,472195,,472197.58,8,400,,,
sequence,flow.Sequence,4_69,2023-11-01T16:12:47.263Z,,0,,,2862.3400000000256,completion,,,,,false,,,,472196,472196,469332.98,469336,469333.66,472197.58,8,400,,,
trial,html.Screen,4_70_0,2023-11-01T16:12:50.550Z,,0,2,,3283.4199999999837,response,ISIC_9418196.JPG,3,ISIC_4328662.JPG,ISIC_9418196.JPG,false,1,keypress(m),500,475483,475481,472193.16,472197,472197.58,475489.14,8,400,21,,ISIC_4328662.JPG
break,html.Screen,4_70_1,2023-11-01T16:12:50.553Z,,0,,,NaN,,,,,,false,,,,475485,475484,,475483,,475489.14,8,400,,,
break_continue,html.Screen,4_70_2,2023-11-01T16:12:50.554Z,,0,,,NaN,,,,,,false,,,,475486,475486,,475485,,475489.14,8,400,,,
sequence,flow.Sequence,4_70,2023-11-01T16:12:50.554Z,,0,,,3288.4199999999837,completion,,,,,false,,,,475486,475486,472193.16,472197,472197.58,475489.14,8,400,,,
trial,html.Screen,4_71_0,2023-11-01T16:12:53.680Z,,0,2,,3122.859999999986,response,ISIC_9442018.JPG,4,ISIC_0034194.JPG,ISIC_0034194.JPG,false,0,keypress(z),500,478613,478612,475483.02,475487,475489.14,478622.44,8,400,22,,ISIC_9442018.JPG
break,html.Screen,4_71_1,2023-11-01T16:12:53.682Z,,0,,,NaN,,,,,,false,,,,478615,478614,,478614,,478622.44,8,400,,,
break_continue,html.Screen,4_71_2,2023-11-01T16:12:53.683Z,,0,,,NaN,,,,,,false,,,,478616,478616,,478615,,478622.44,8,400,,,
sequence,flow.Sequence,4_71,2023-11-01T16:12:53.684Z,,0,,,3126.859999999986,completion,,,,,false,,,,478616,478616,475483.02,475486,475489.14,478622.44,8,400,,,
trial,html.Screen,4_72_0,2023-11-01T16:12:59.230Z,,0,2,,5539.559999999998,response,ISIC_0015443.JPG,5,ISIC_0000411.JPG,ISIC_0015443.JPG,false,1,keypress(m),500,484163,484162,478613.24,478617,478622.44,484172.34,8,400,23,,ISIC_0000411.JPG
break,html.Screen,4_72_1,2023-11-01T16:12:59.232Z,,0,,,NaN,,,,,,false,,,,484165,484164,,484163,,484172.34,8,400,,,
break_continue,html.Screen,4_72_2,2023-11-01T16:12:59.233Z,,0,,,NaN,,,,,,false,,,,484166,484165,,484165,,484172.34,8,400,,,
sequence,flow.Sequence,4_72,2023-11-01T16:12:59.234Z,,0,,,5542.559999999998,completion,,,,,false,,,,484166,484165,478613.24,478617,478622.44,484172.34,8,400,,,
trial,html.Screen,4_73_0,2023-11-01T16:13:02.530Z,,0,2,,3288.6599999999744,response,ISIC_6839272.JPG,4,ISIC_0033470.JPG,ISIC_6839272.JPG,false,1,keypress(m),500,487463,487461,484162.96,484166,484172.34,487472.06,8,400,24,,ISIC_0033470.JPG
break,html.Screen,4_73_1,2023-11-01T16:13:02.532Z,,0,,,NaN,,,,,,false,,,,487465,487464,,487463,,487472.06,8,400,,,
break_continue,html.Screen,4_73_2,2023-11-01T16:13:02.533Z,,0,,,NaN,,,,,,false,,,,487466,487465,,487465,,487472.06,8,400,,,
sequence,flow.Sequence,4_73,2023-11-01T16:13:02.533Z,,0,,,3292.6599999999744,completion,,,,,false,,,,487466,487465,484162.96,484166,484172.34,487472.06,8,400,,,
trial,html.Screen,4_74_0,2023-11-01T16:13:06.520Z,,0,2,,3980.9400000000023,response,ISIC_0010878.JPG,15,ISIC_0070009.JPG,ISIC_0010878.JPG,false,1,keypress(m),500,491453,491453,487462.52,487466,487472.06,491463.88,8,400,25,,ISIC_0070009.JPG
break,html.Screen,4_74_1,2023-11-01T16:13:06.522Z,,0,,,NaN,,,,,,false,,,,491455,491455,,491454,,491463.88,8,400,,,
break_continue,html.Screen,4_74_2,2023-11-01T16:13:06.524Z,,0,,,NaN,,,,,,false,,,,491456,491456,,491455,,491463.88,8,400,,,
sequence,flow.Sequence,4_74,2023-11-01T16:13:06.524Z,,0,,,3983.9400000000023,completion,,,,,false,,,,491456,491456,487462.52,487466,487472.06,491463.88,8,400,,,
trial,html.Screen,4_75_0,2023-11-01T16:13:09.820Z,,0,2,,3288.1199999999953,response,ISIC_7980339.JPG,3,ISIC_3391254.JPG,ISIC_3391254.JPG,false,0,keypress(z),500,494752,494752,491453.14,491457,491463.88,494753.22,8,400,26,,ISIC_7980339.JPG
break,html.Screen,4_75_1,2023-11-01T16:13:09.822Z,,0,,,NaN,,,,,,false,,,,494754,494753,,494753,,494753.22,8,400,,,
break_continue,html.Screen,4_75_2,2023-11-01T16:13:09.823Z,,0,,,NaN,,,,,,false,,,,494755,494755,,494754,,494753.22,8,400,,,
sequence,flow.Sequence,4_75,2023-11-01T16:13:09.823Z,,0,,,3291.1199999999953,completion,,,,,false,,,,494755,494755,491453.14,491457,491463.88,494753.22,8,400,,,
trial,html.Screen,4_76_0,2023-11-01T16:13:13.879Z,,0,2,,4058.780000000028,response,ISIC_0029803.JPG,15,ISIC_5754233.JPG,ISIC_5754233.JPG,false,0,keypress(z),500,498812,498812,494752.72,494756,494753.22,498813.48,8,400,27,,ISIC_0029803.JPG
break,html.Screen,4_76_1,2023-11-01T16:13:13.883Z,,0,,,NaN,,,,,,false,,,,498815,498814,,498813,,498813.48,8,400,,,
break_continue,html.Screen,4_76_2,2023-11-01T16:13:13.883Z,,0,,,NaN,,,,,,false,,,,498816,498815,,498815,,498813.48,8,400,,,
sequence,flow.Sequence,4_76,2023-11-01T16:13:13.884Z,,0,,,4061.780000000028,completion,,,,,false,,,,498816,498815,494752.72,494756,494753.22,498813.48,8,400,,,
trial,html.Screen,4_77_0,2023-11-01T16:13:17.620Z,,0,2,,3737.5200000000186,response,ISIC_0002939.JPG,14,ISIC_0003122.JPG,ISIC_0002939.JPG,false,1,keypress(m),500,502552,502551,498812.82,498816,498813.48,502563.7,8,400,28,,ISIC_0003122.JPG
break,html.Screen,4_77_1,2023-11-01T16:13:17.622Z,,0,,,NaN,,,,,,false,,,,502555,502554,,502553,,502563.7,8,400,,,
break_continue,html.Screen,4_77_2,2023-11-01T16:13:17.624Z,,0,,,NaN,,,,,,false,,,,502557,502556,,502556,,502563.7,8,400,,,
sequence,flow.Sequence,4_77,2023-11-01T16:13:17.624Z,,0,,,3742.5200000000186,completion,,,,,false,,,,502557,502556,498812.82,498816,498813.48,502563.7,8,400,,,
trial,html.Screen,4_78_0,2023-11-01T16:13:21.699Z,,0,2,,4068.2999999999884,response,ISIC_1757941.JPG,13,ISIC_0064298.JPG,ISIC_0064298.JPG,false,0,keypress(z),500,506633,506632,502552.96,502557,502563.7,506633.42,8,400,29,,ISIC_1757941.JPG
break,html.Screen,4_78_1,2023-11-01T16:13:21.703Z,,0,,,NaN,,,,,,false,,,,506635,506635,,506633,,506633.42,8,400,,,
break_continue,html.Screen,4_78_2,2023-11-01T16:13:21.703Z,,0,,,NaN,,,,,,false,,,,506636,506636,,506635,,506633.42,8,400,,,
sequence,flow.Sequence,4_78,2023-11-01T16:13:21.704Z,,0,,,4072.2999999999884,completion,,,,,false,,,,506636,506636,502552.96,502557,502563.7,506633.42,8,400,,,
trial,html.Screen,4_79_0,2023-11-01T16:13:25.560Z,,0,2,,3858.5800000000163,response,ISIC_0055438.JPG,3,ISIC_8165906.JPG,ISIC_8165906.JPG,false,0,keypress(z),500,510492,510492,506632.82,506637,506633.42,510496.9,8,400,30,,ISIC_0055438.JPG
break,html.Screen,4_79_1,2023-11-01T16:13:25.562Z,,0,,,NaN,,,,,,false,,,,510495,510494,,510493,,510496.9,8,400,,,
break_continue,html.Screen,4_79_2,2023-11-01T16:13:25.563Z,,0,,,NaN,,,,,,false,,,,510496,510496,,510495,,510496.9,8,400,,,
sequence,flow.Sequence,4_79,2023-11-01T16:13:25.563Z,,0,,,3862.5800000000163,completion,,,,,false,,,,510497,510496,506632.82,506636,506633.42,510496.9,8,400,,,
trial,html.Screen,4_80_0,2023-11-01T16:13:32.579Z,,0,2,,7014.099999999977,response,ISIC_0189694.JPG,11,ISIC_0485417.JPG,ISIC_0485417.JPG,false,0,keypress(z),500,517512,517511,510493.04,510497,510496.9,517513.26,8,400,31,,ISIC_0189694.JPG
break,html.Screen,4_80_1,2023-11-01T16:13:32.582Z,,0,,,NaN,,,,,,false,,,,517514,517514,,517512,,517513.26,8,400,,,
break_continue,html.Screen,4_80_2,2023-11-01T16:13:32.583Z,,0,,,NaN,,,,,,false,,,,517516,517516,,517514,,517513.26,8,400,,,
sequence,flow.Sequence,4_80,2023-11-01T16:13:32.583Z,,0,,,7019.099999999977,completion,,,,,false,,,,517516,517516,510493.04,510497,510496.9,517513.26,8,400,,,
trial,html.Screen,4_81_0,2023-11-01T16:13:35.769Z,,0,2,,3187.7399999999907,response,ISIC_0033962.JPG,5,ISIC_0059248.JPG,ISIC_0033962.JPG,false,1,keypress(m),500,520701,520701,517512.76,517517,517513.26,520713.36,8,400,32,,ISIC_0059248.JPG
break,html.Screen,4_81_1,2023-11-01T16:13:35.772Z,,0,,,NaN,,,,,,false,,,,520705,520704,,520702,,520713.36,8,400,,,
break_continue,html.Screen,4_81_2,2023-11-01T16:13:35.773Z,,0,,,NaN,,,,,,false,,,,520705,520705,,520705,,520713.36,8,400,,,
sequence,flow.Sequence,4_81,2023-11-01T16:13:35.773Z,,0,,,3191.7399999999907,completion,,,,,false,,,,520706,520705,517512.76,517517,517513.26,520713.36,8,400,,,
trial,html.Screen,4_82_0,2023-11-01T16:13:40.570Z,,0,2,,4788.640000000014,response,ISIC_0008423.JPG,15,ISIC_0010265.JPG,ISIC_0008423.JPG,false,1,keypress(m),500,525503,525502,520702.28,520706,520713.36,525513.28,8,400,33,,ISIC_0010265.JPG
break,html.Screen,4_82_1,2023-11-01T16:13:40.572Z,,0,,,NaN,,,,,,false,,,,525505,525505,,525504,,525513.28,8,400,,,
break_continue,html.Screen,4_82_2,2023-11-01T16:13:40.573Z,,0,,,NaN,,,,,,false,,,,525506,525506,,525505,,525513.28,8,400,,,
sequence,flow.Sequence,4_82,2023-11-01T16:13:40.574Z,,0,,,4792.640000000014,completion,,,,,false,,,,525506,525506,520702.28,520706,520713.36,525513.28,8,400,,,
trial,html.Screen,4_83_0,2023-11-01T16:13:43.539Z,,0,2,,2958.719999999972,response,ISIC_2724529.JPG,14,ISIC_5179620.JPG,ISIC_2724529.JPG,false,1,keypress(m),500,528472,528472,525503.12,525507,525513.28,528473.06,8,400,34,,ISIC_5179620.JPG
break,html.Screen,4_83_1,2023-11-01T16:13:43.541Z,,0,,,NaN,,,,,,false,,,,528474,528474,,528473,,528473.06,8,400,,,
break_continue,html.Screen,4_83_2,2023-11-01T16:13:43.543Z,,0,,,NaN,,,,,,false,,,,528475,528475,,528474,,528473.06,8,400,,,
sequence,flow.Sequence,4_83,2023-11-01T16:13:43.543Z,,0,,,2961.719999999972,completion,,,,,false,,,,528475,528475,525503.12,525506,525513.28,528473.06,8,400,,,
trial,html.Screen,4_84_0,2023-11-01T16:13:47.160Z,,0,2,,3618.939999999944,response,ISIC_6767569.JPG,14,ISIC_3824206.JPG,ISIC_3824206.JPG,false,0,keypress(z),500,532093,532092,528472.46,528475,528473.06,532093.56,8,400,35,,ISIC_6767569.JPG
break,html.Screen,4_84_1,2023-11-01T16:13:47.162Z,,0,,,NaN,,,,,,false,,,,532095,532094,,532093,,532093.56,8,400,,,
break_continue,html.Screen,4_84_2,2023-11-01T16:13:47.163Z,,0,,,NaN,,,,,,false,,,,532096,532096,,532095,,532093.56,8,400,,,
sequence,flow.Sequence,4_84,2023-11-01T16:13:47.163Z,,0,,,3622.939999999944,completion,,,,,false,,,,532096,532096,528472.46,528475,528473.06,532093.56,8,400,,,
trial,html.Screen,4_85_0,2023-11-01T16:13:50.566Z,,0,2,,3404.439999999944,response,ISIC_8368872.JPG,4,ISIC_1570390.JPG,ISIC_1570390.JPG,false,0,keypress(z),500,535498,535498,532093.06,532097,532093.56,535529.76,8,400,36,,ISIC_8368872.JPG
break,html.Screen,4_85_1,2023-11-01T16:13:50.568Z,,0,,,NaN,,,,,,false,,,,535500,535499,,535499,,535529.76,8,400,,,
break_continue,html.Screen,4_85_2,2023-11-01T16:13:50.569Z,,0,,,NaN,,,,,,false,,,,535501,535500,,535500,,535529.76,8,400,,,
sequence,flow.Sequence,4_85,2023-11-01T16:13:50.569Z,,0,,,3406.439999999944,completion,,,,,false,,,,535501,535500,532093.06,532097,532093.56,535529.76,8,400,,,
trial,html.Screen,4_86_0,2023-11-01T16:13:53.730Z,,0,2,,3132.2399999999907,response,ISIC_0024297.JPG,18,ISIC_0011092.JPG,ISIC_0024297.JPG,false,1,keypress(m),500,538662,538662,535513.1,535502,535529.76,538663.64,8,400,37,,ISIC_0011092.JPG
break,html.Screen,4_86_1,2023-11-01T16:13:53.732Z,,0,,,NaN,,,,,,false,,,,538664,538664,,538663,,538663.64,8,400,,,
break_continue,html.Screen,4_86_2,2023-11-01T16:13:53.733Z,,0,,,NaN,,,,,,false,,,,538666,538666,,538666,,538663.64,8,400,,,
sequence,flow.Sequence,4_86,2023-11-01T16:13:53.734Z,,0,,,3136.2399999999907,completion,,,,,false,,,,538667,538666,535513.1,535501,535529.76,538663.64,8,400,,,
trial,html.Screen,4_87_0,2023-11-01T16:13:57.279Z,,0,2,,3548.359999999986,response,ISIC_7260013.JPG,14,ISIC_0067609.JPG,ISIC_7260013.JPG,false,1,keypress(m),500,542212,542212,538663.1,538667,538663.64,542213.4,8,400,38,,ISIC_0067609.JPG
break,html.Screen,4_87_1,2023-11-01T16:13:57.282Z,,0,,,NaN,,,,,,false,,,,542215,542214,,542213,,542213.4,8,400,,,
break_continue,html.Screen,4_87_2,2023-11-01T16:13:57.283Z,,0,,,NaN,,,,,,false,,,,542216,542216,,542215,,542213.4,8,400,,,
sequence,flow.Sequence,4_87,2023-11-01T16:13:57.283Z,,0,,,3552.359999999986,completion,,,,,false,,,,542217,542216,538663.1,538667,538663.64,542213.4,8,400,,,
trial,html.Screen,4_88_0,2023-11-01T16:14:00.779Z,,0,2,,3497.5999999999767,response,ISIC_5885403.JPG,14,ISIC_0002953.JPG,ISIC_0002953.JPG,false,0,keypress(z),500,545712,545711,542212.88,542217,542213.4,545729.58,8,400,39,,ISIC_5885403.JPG
break,html.Screen,4_88_1,2023-11-01T16:14:00.782Z,,0,,,NaN,,,,,,false,,,,545714,545714,,545712,,545729.58,8,400,,,
break_continue,html.Screen,4_88_2,2023-11-01T16:14:00.783Z,,0,,,NaN,,,,,,false,,,,545716,545715,,545715,,545729.58,8,400,,,
sequence,flow.Sequence,4_88,2023-11-01T16:14:00.784Z,,0,,,3501.5999999999767,completion,,,,,false,,,,545716,545715,542212.88,542217,542213.4,545729.58,8,400,,,
trial,html.Screen,4_89_0,2023-11-01T16:14:06.560Z,,0,2,,5762.420000000042,response,ISIC_6550761.JPG,2,ISIC_0056771.JPG,ISIC_0056771.JPG,false,0,keypress(z),500,551493,551492,545712.24,545717,545729.58,551504.44,8,400,40,,ISIC_6550761.JPG
break,html.Screen,4_89_1,2023-11-01T16:14:06.563Z,,0,,,NaN,,,,,,false,,,,551495,551494,,551493,,551504.44,8,400,,,
break_continue,html.Screen,4_89_2,2023-11-01T16:14:06.564Z,,0,,,NaN,,,,,,false,,,,551496,551496,,551495,,551504.44,8,400,,,
sequence,flow.Sequence,4_89,2023-11-01T16:14:06.564Z,,0,,,5766.420000000042,completion,,,,,false,,,,551496,551496,545712.24,545717,545729.58,551504.44,8,400,,,
trial,html.Screen,4_90_0,2023-11-01T16:14:10.300Z,,0,2,,3727.560000000056,response,ISIC_0060946.JPG,3,ISIC_0054167.JPG,ISIC_0060946.JPG,false,1,keypress(m),500,555233,555232,551493.06,551497,551504.44,555237.74,8,400,41,,ISIC_0054167.JPG
break,html.Screen,4_90_1,2023-11-01T16:14:10.303Z,,0,,,NaN,,,,,,false,,,,555235,555234,,555233,,555237.74,8,400,,,
break_continue,html.Screen,4_90_2,2023-11-01T16:14:10.304Z,,0,,,NaN,,,,,,false,,,,555236,555235,,555235,,555237.74,8,400,,,
sequence,flow.Sequence,4_90,2023-11-01T16:14:10.304Z,,0,,,3730.560000000056,completion,,,,,false,,,,555236,555235,551493.06,551497,551504.44,555237.74,8,400,,,
trial,html.Screen,4_91_0,2023-11-01T16:14:14.930Z,,0,2,,4624.260000000009,response,ISIC_0056041.JPG,14,ISIC_0008424.JPG,ISIC_0008424.JPG,false,0,keypress(z),500,559862,559862,555233.12,555236,555237.74,559863.36,8,400,42,,ISIC_0056041.JPG
break,html.Screen,4_91_1,2023-11-01T16:14:14.932Z,,0,,,NaN,,,,,,false,,,,559864,559864,,559862,,559863.36,8,400,,,
break_continue,html.Screen,4_91_2,2023-11-01T16:14:14.933Z,,0,,,NaN,,,,,,false,,,,559865,559865,,559864,,559863.36,8,400,,,
sequence,flow.Sequence,4_91,2023-11-01T16:14:14.934Z,,0,,,4627.260000000009,completion,,,,,false,,,,559865,559865,555233.12,555236,555237.74,559863.36,8,400,,,
trial,html.Screen,4_92_0,2023-11-01T16:14:19.760Z,,0,2,,4828.640000000014,response,ISIC_0032645.JPG,4,ISIC_0026438.JPG,ISIC_0026438.JPG,false,0,keypress(z),500,564692,564692,559862.86,559866,559863.36,564693,8,400,43,,ISIC_0032645.JPG
break,html.Screen,4_92_1,2023-11-01T16:14:19.762Z,,0,,,NaN,,,,,,false,,,,564695,564694,,564693,,564693,8,400,,,
break_continue,html.Screen,4_92_2,2023-11-01T16:14:19.763Z,,0,,,NaN,,,,,,false,,,,564696,564695,,564695,,564693,8,400,,,
sequence,flow.Sequence,4_92,2023-11-01T16:14:19.763Z,,0,,,4831.640000000014,completion,,,,,false,,,,564696,564695,559862.86,559866,559863.36,564693,8,400,,,
trial,html.Screen,4_93_0,2023-11-01T16:14:23.090Z,,0,2,,3329,response,ISIC_8257549.JPG,4,ISIC_0012706.JPG,ISIC_0012706.JPG,false,0,keypress(z),500,568022,568022,564692.4,564696,564693,568037.5,8,400,44,,ISIC_8257549.JPG
break,html.Screen,4_93_1,2023-11-01T16:14:23.093Z,,0,,,NaN,,,,,,false,,,,568025,568025,,568023,,568037.5,8,400,,,
break_continue,html.Screen,4_93_2,2023-11-01T16:14:23.094Z,,0,,,NaN,,,,,,false,,,,568027,568026,,568026,,568037.5,8,400,,,
sequence,flow.Sequence,4_93,2023-11-01T16:14:23.095Z,,0,,,3333,completion,,,,,false,,,,568027,568026,564692.4,564696,564693,568037.5,8,400,,,
trial,html.Screen,4_94_0,2023-11-01T16:14:26.870Z,,0,2,,3764.5,response,ISIC_7090336.JPG,2,ISIC_0071576.JPG,ISIC_7090336.JPG,false,1,keypress(m),500,571803,571802,568022.98,568028,568037.5,571803.7,8,400,45,,ISIC_0071576.JPG
break,html.Screen,4_94_1,2023-11-01T16:14:26.872Z,,0,,,NaN,,,,,,false,,,,571805,571805,,571803,,571803.7,8,400,,,
break_continue,html.Screen,4_94_2,2023-11-01T16:14:26.874Z,,0,,,NaN,,,,,,false,,,,571806,571806,,571805,,571803.7,8,400,,,
sequence,flow.Sequence,4_94,2023-11-01T16:14:26.874Z,,0,,,3768.5,completion,,,,,false,,,,571807,571806,568022.98,568028,568037.5,571803.7,8,400,,,
trial,html.Screen,4_95_0,2023-11-01T16:14:31.390Z,,0,2,,4518.300000000047,response,ISIC_0055742.JPG,13,ISIC_5116614.JPG,ISIC_0055742.JPG,false,1,keypress(m),500,576322,576322,571803.16,571807,571803.7,576323.46,8,400,46,,ISIC_5116614.JPG
break,html.Screen,4_95_1,2023-11-01T16:14:31.392Z,,0,,,NaN,,,,,,false,,,,576325,576324,,576323,,576323.46,8,400,,,
break_continue,html.Screen,4_95_2,2023-11-01T16:14:31.393Z,,0,,,NaN,,,,,,false,,,,576326,576326,,576325,,576323.46,8,400,,,
sequence,flow.Sequence,4_95,2023-11-01T16:14:31.394Z,,0,,,4522.300000000047,completion,,,,,false,,,,576326,576326,571803.16,571807,571803.7,576323.46,8,400,,,
trial,html.Screen,4_96_0,2023-11-01T16:14:34.379Z,,0,2,,2988.5400000000373,response,ISIC_3310364.JPG,14,ISIC_0663941.JPG,ISIC_0663941.JPG,false,0,keypress(z),500,579312,579312,576322.92,576326,576323.46,579313.34,8,400,47,,ISIC_3310364.JPG
break,html.Screen,4_96_1,2023-11-01T16:14:34.382Z,,0,,,NaN,,,,,,false,,,,579314,579314,,579313,,579313.34,8,400,,,
break_continue,html.Screen,4_96_2,2023-11-01T16:14:34.384Z,,0,,,NaN,,,,,,false,,,,579315,579315,,579315,,579313.34,8,400,,,
sequence,flow.Sequence,4_96,2023-11-01T16:14:34.384Z,,0,,,2991.5400000000373,completion,,,,,false,,,,579316,579315,576322.92,576326,576323.46,579313.34,8,400,,,
trial,html.Screen,4_97_0,2023-11-01T16:14:37.379Z,,0,2,,2997.6600000000326,response,ISIC_5438156.JPG,15,ISIC_0063748.JPG,ISIC_5438156.JPG,false,1,keypress(m),500,582312,582311,579312.82,579316,579313.34,582320.58,8,400,48,,ISIC_0063748.JPG
break,html.Screen,4_97_1,2023-11-01T16:14:37.382Z,,0,,,NaN,,,,,,false,,,,582314,582314,,582312,,582320.58,8,400,,,
break_continue,html.Screen,4_97_2,2023-11-01T16:14:37.383Z,,0,,,NaN,,,,,,false,,,,582315,582315,,582314,,582320.58,8,400,,,
sequence,flow.Sequence,4_97,2023-11-01T16:14:37.383Z,,0,,,3001.6600000000326,completion,,,,,false,,,,582315,582315,579312.82,579316,579313.34,582320.58,8,400,,,
trial,html.Screen,4_98_0,2023-11-01T16:14:41.880Z,,0,2,,4490.420000000042,response,ISIC_6642608.JPG,14,ISIC_5625747.JPG,ISIC_6642608.JPG,false,1,keypress(m),500,586812,586811,582312.64,582316,582320.58,586813.16,8,400,49,,ISIC_5625747.JPG
break,html.Screen,4_98_1,2023-11-01T16:14:41.882Z,,0,,,NaN,,,,,,false,,,,586814,586814,,586812,,586813.16,8,400,,,
break_continue,html.Screen,4_98_2,2023-11-01T16:14:41.883Z,,0,,,NaN,,,,,,false,,,,586815,586815,,586814,,586813.16,8,400,,,
sequence,flow.Sequence,4_98,2023-11-01T16:14:41.883Z,,0,,,4494.420000000042,completion,,,,,false,,,,586816,586815,582312.64,582315,582320.58,586813.16,8,400,,,
trial,html.Screen,4_99_0,2023-11-01T16:14:44.869Z,,0,2,,2988.8399999999674,response,ISIC_8733745.JPG,4,ISIC_0063018.JPG,ISIC_8733745.JPG,false,1,keypress(m),500,589803,589802,586812.6,586816,586813.16,589803.22,8,400,50,,ISIC_0063018.JPG
break,html.Screen,4_99_1,2023-11-01T16:14:54.849Z,,0,,,9991.96000000008,timeout,,,,,false,,,,599782,599778.5,589802.74,589803,589803.22,599795.18,8,400,,,
break_continue,html.Screen,4_99_2,2023-11-01T16:15:11.293Z,,0,,,16400.81999999995,response,,,,,false,continue,keypress(Space),,616226,616196,599778.5,599782,599795.18,616227.2,8,400,,,
sequence,flow.Sequence,4_99,2023-11-01T16:15:11.294Z,,0,,,29382.839999999967,completion,,,,,false,,,,616226,616196,586812.6,586816,586813.16,616227.2,8,400,,,
trial,html.Screen,4_100_0,2023-11-01T16:15:14.929Z,,0,3,,3634.8000000000466,response,ISIC_0033787.JPG,3,ISIC_0360367.JPG,ISIC_0360367.JPG,false,0,keypress(z),500,619862,619862,616226.66,616226,616227.2,619863.46,8,400,1,,ISIC_0033787.JPG
break,html.Screen,4_100_1,2023-11-01T16:15:14.932Z,,0,,,NaN,,,,,,false,,,,619865,619864,,619863,,619863.46,8,400,,,
break_continue,html.Screen,4_100_2,2023-11-01T16:15:14.933Z,,0,,,NaN,,,,,,false,,,,619866,619865,,619865,,619863.46,8,400,,,
sequence,flow.Sequence,4_100,2023-11-01T16:15:14.933Z,,0,,,3637.8000000000466,completion,,,,,false,,,,619866,619865,616226.66,616226,616227.2,619863.46,8,400,,,
trial,html.Screen,4_101_0,2023-11-01T16:15:19.180Z,,0,3,,4248.540000000037,response,ISIC_8248922.JPG,13,ISIC_0065449.JPG,ISIC_8248922.JPG,false,1,keypress(m),500,624112,624112,619862.92,619866,619863.46,624119.88,8,400,2,,ISIC_0065449.JPG
break,html.Screen,4_101_1,2023-11-01T16:15:19.182Z,,0,,,NaN,,,,,,false,,,,624114,624114,,624113,,624119.88,8,400,,,
break_continue,html.Screen,4_101_2,2023-11-01T16:15:19.183Z,,0,,,NaN,,,,,,false,,,,624115,624115,,624114,,624119.88,8,400,,,
sequence,flow.Sequence,4_101,2023-11-01T16:15:19.184Z,,0,,,4251.540000000037,completion,,,,,false,,,,624115,624115,619862.92,619866,619863.46,624119.88,8,400,,,
trial,html.Screen,4_102_0,2023-11-01T16:15:22.120Z,,0,3,,2932.1199999999953,response,ISIC_4713698.JPG,4,ISIC_1102391.JPG,ISIC_1102391.JPG,false,0,keypress(z),500,627052,627052,624112.82,624116,624119.88,627053.28,8,400,3,,ISIC_4713698.JPG
break,html.Screen,4_102_1,2023-11-01T16:15:22.122Z,,0,,,NaN,,,,,,false,,,,627054,627054,,627053,,627053.28,8,400,,,
break_continue,html.Screen,4_102_2,2023-11-01T16:15:22.123Z,,0,,,NaN,,,,,,false,,,,627056,627055,,627055,,627053.28,8,400,,,
sequence,flow.Sequence,4_102,2023-11-01T16:15:22.124Z,,0,,,2935.1199999999953,completion,,,,,false,,,,627056,627055,624112.82,624116,624119.88,627053.28,8,400,,,
trial,html.Screen,4_103_0,2023-11-01T16:15:26.320Z,,0,3,,4197.719999999972,response,ISIC_0066783.JPG,14,ISIC_3877643.JPG,ISIC_3877643.JPG,false,0,keypress(z),500,631252,631251,627052.76,627056,627053.28,631253.38,8,400,4,,ISIC_0066783.JPG
break,html.Screen,4_103_1,2023-11-01T16:15:26.322Z,,0,,,NaN,,,,,,false,,,,631254,631254,,631253,,631253.38,8,400,,,
break_continue,html.Screen,4_103_2,2023-11-01T16:15:26.323Z,,0,,,NaN,,,,,,false,,,,631256,631256,,631254,,631253.38,8,400,,,
sequence,flow.Sequence,4_103,2023-11-01T16:15:26.323Z,,0,,,4202.719999999972,completion,,,,,false,,,,631256,631256,627052.76,627056,627053.28,631253.38,8,400,,,
trial,html.Screen,4_104_0,2023-11-01T16:15:29.660Z,,0,3,,3337.6199999999953,response,ISIC_7313348.JPG,4,ISIC_0003281.JPG,ISIC_0003281.JPG,false,0,keypress(z),500,634592,634591,631252.84,631257,631253.38,634602.98,8,400,5,,ISIC_7313348.JPG
break,html.Screen,4_104_1,2023-11-01T16:15:29.662Z,,0,,,NaN,,,,,,false,,,,634595,634594,,634592,,634602.98,8,400,,,
break_continue,html.Screen,4_104_2,2023-11-01T16:15:29.663Z,,0,,,NaN,,,,,,false,,,,634596,634596,,634595,,634602.98,8,400,,,
sequence,flow.Sequence,4_104,2023-11-01T16:15:29.663Z,,0,,,3342.6199999999953,completion,,,,,false,,,,634596,634596,631252.84,631256,631253.38,634602.98,8,400,,,
trial,html.Screen,4_105_0,2023-11-01T16:15:32.840Z,,0,3,,3169.0200000000186,response,ISIC_4141898.JPG,14,ISIC_2518896.JPG,ISIC_2518896.JPG,false,0,keypress(z),500,637773,637772,634592.96,634597,634602.98,637773.6,8,400,6,,ISIC_4141898.JPG
break,html.Screen,4_105_1,2023-11-01T16:15:32.843Z,,0,,,NaN,,,,,,false,,,,637775,637775,,637773,,637773.6,8,400,,,
break_continue,html.Screen,4_105_2,2023-11-01T16:15:32.843Z,,0,,,NaN,,,,,,false,,,,637776,637776,,637775,,637773.6,8,400,,,
sequence,flow.Sequence,4_105,2023-11-01T16:15:32.843Z,,0,,,3173.0200000000186,completion,,,,,false,,,,637777,637776,634592.96,634597,634602.98,637773.6,8,400,,,
trial,html.Screen,4_106_0,2023-11-01T16:15:37.130Z,,0,3,,4287.400000000023,response,ISIC_0027276.JPG,14,ISIC_4887995.JPG,ISIC_0027276.JPG,false,1,keypress(m),500,642062,642061,637773.1,637777,637773.6,642063.42,8,400,7,,ISIC_4887995.JPG
break,html.Screen,4_106_1,2023-11-01T16:15:37.132Z,,0,,,NaN,,,,,,false,,,,642064,642064,,642062,,642063.42,8,400,,,
break_continue,html.Screen,4_106_2,2023-11-01T16:15:37.133Z,,0,,,NaN,,,,,,false,,,,642066,642066,,642065,,642063.42,8,400,,,
sequence,flow.Sequence,4_106,2023-11-01T16:15:37.134Z,,0,,,4292.400000000023,completion,,,,,false,,,,642066,642066,637773.1,637777,637773.6,642063.42,8,400,,,
trial,html.Screen,4_107_0,2023-11-01T16:15:40.140Z,,0,3,,3007.579999999958,response,ISIC_0026087.JPG,14,ISIC_5682259.JPG,ISIC_5682259.JPG,false,0,keypress(z),500,645072,645071,642062.82,642066,642063.42,645073.36,8,400,8,,ISIC_0026087.JPG
break,html.Screen,4_107_1,2023-11-01T16:15:40.142Z,,0,,,NaN,,,,,,false,,,,645075,645074,,645072,,645073.36,8,400,,,
break_continue,html.Screen,4_107_2,2023-11-01T16:15:40.143Z,,0,,,NaN,,,,,,false,,,,645076,645076,,645075,,645073.36,8,400,,,
sequence,flow.Sequence,4_107,2023-11-01T16:15:40.144Z,,0,,,3012.579999999958,completion,,,,,false,,,,645076,645076,642062.82,642066,642063.42,645073.36,8,400,,,
trial,html.Screen,4_108_0,2023-11-01T16:15:43.770Z,,0,3,,3628.640000000014,response,ISIC_6119208.JPG,14,ISIC_9786863.JPG,ISIC_6119208.JPG,false,1,keypress(m),500,648702,648702,645072.84,645077,645073.36,648703.56,8,400,9,,ISIC_9786863.JPG
break,html.Screen,4_108_1,2023-11-01T16:15:43.772Z,,0,,,NaN,,,,,,false,,,,648705,648704,,648703,,648703.56,8,400,,,
break_continue,html.Screen,4_108_2,2023-11-01T16:15:43.773Z,,0,,,NaN,,,,,,false,,,,648706,648705,,648705,,648703.56,8,400,,,
sequence,flow.Sequence,4_108,2023-11-01T16:15:43.774Z,,0,,,3631.640000000014,completion,,,,,false,,,,648706,648705,645072.84,645076,645073.36,648703.56,8,400,,,
trial,html.Screen,4_109_0,2023-11-01T16:15:46.950Z,,0,3,,3177.439999999944,response,ISIC_0055498.JPG,6,ISIC_0054570.JPG,ISIC_0054570.JPG,false,0,keypress(z),500,651883,651881,648703.02,648706,648703.56,651886.02,8,400,10,,ISIC_0055498.JPG
break,html.Screen,4_109_1,2023-11-01T16:15:46.952Z,,0,,,NaN,,,,,,false,,,,651885,651884,,651883,,651886.02,8,400,,,
break_continue,html.Screen,4_109_2,2023-11-01T16:15:46.953Z,,0,,,NaN,,,,,,false,,,,651886,651885,,651885,,651886.02,8,400,,,
sequence,flow.Sequence,4_109,2023-11-01T16:15:46.953Z,,0,,,3181.439999999944,completion,,,,,false,,,,651886,651885,648703.02,648706,648703.56,651886.02,8,400,,,
trial,html.Screen,4_110_0,2023-11-01T16:15:52.139Z,,0,3,,5184.979999999981,response,ISIC_2887355.JPG,13,ISIC_0057028.JPG,ISIC_2887355.JPG,false,1,keypress(m),500,657072,657071,651882.86,651886,651886.02,657077.56,8,400,11,,ISIC_0057028.JPG
break,html.Screen,4_110_1,2023-11-01T16:15:52.141Z,,0,,,NaN,,,,,,false,,,,657075,657074,,657072,,657077.56,8,400,,,
break_continue,html.Screen,4_110_2,2023-11-01T16:15:52.142Z,,0,,,NaN,,,,,,false,,,,657076,657076,,657075,,657077.56,8,400,,,
sequence,flow.Sequence,4_110,2023-11-01T16:15:52.144Z,,0,,,5189.979999999981,completion,,,,,false,,,,657076,657076,651882.86,651886,651886.02,657077.56,8,400,,,
trial,html.Screen,4_111_0,2023-11-01T16:15:55.650Z,,0,3,,3503.439999999944,response,ISIC_0032550.JPG,15,ISIC_0025573.JPG,ISIC_0025573.JPG,false,0,keypress(z),500,660582,660581,657072.6,657077,657077.56,660594.18,8,400,12,,ISIC_0032550.JPG
break,html.Screen,4_111_1,2023-11-01T16:15:55.652Z,,0,,,NaN,,,,,,false,,,,660585,660585,,660582,,660594.18,8,400,,,
break_continue,html.Screen,4_111_2,2023-11-01T16:15:55.653Z,,0,,,NaN,,,,,,false,,,,660586,660586,,660586,,660594.18,8,400,,,
sequence,flow.Sequence,4_111,2023-11-01T16:15:55.654Z,,0,,,3508.439999999944,completion,,,,,false,,,,660587,660586,657072.6,657077,657077.56,660594.18,8,400,,,
trial,html.Screen,4_112_0,2023-11-01T16:15:58.579Z,,0,3,,2917.819999999949,response,ISIC_0028220.JPG,3,ISIC_5176419.JPG,ISIC_0028220.JPG,false,1,keypress(m),500,663512,663512,660582.94,660587,660594.18,663519.16,8,400,13,,ISIC_5176419.JPG
break,html.Screen,4_112_1,2023-11-01T16:15:58.581Z,,0,,,NaN,,,,,,false,,,,663514,663514,,663512,,663519.16,8,400,,,
break_continue,html.Screen,4_112_2,2023-11-01T16:15:58.582Z,,0,,,NaN,,,,,,false,,,,663515,663515,,663515,,663519.16,8,400,,,
sequence,flow.Sequence,4_112,2023-11-01T16:15:58.583Z,,0,,,2920.819999999949,completion,,,,,false,,,,663515,663515,660582.94,660587,660594.18,663519.16,8,400,,,
trial,html.Screen,4_113_0,2023-11-01T16:16:01.650Z,,0,3,,3062.8399999999674,response,ISIC_1711134.JPG,5,ISIC_4595741.JPG,ISIC_1711134.JPG,false,1,keypress(m),500,666582,666582,663512.4,663516,663519.16,666594.1,8,400,14,,ISIC_4595741.JPG
break,html.Screen,4_113_1,2023-11-01T16:16:01.653Z,,0,,,NaN,,,,,,false,,,,666585,666585,,666583,,666594.1,8,400,,,
break_continue,html.Screen,4_113_2,2023-11-01T16:16:01.654Z,,0,,,NaN,,,,,,false,,,,666586,666586,,666586,,666594.1,8,400,,,
sequence,flow.Sequence,4_113,2023-11-01T16:16:01.654Z,,0,,,3066.8399999999674,completion,,,,,false,,,,666587,666586,663512.4,663516,663519.16,666594.1,8,400,,,
trial,html.Screen,4_114_0,2023-11-01T16:16:04.559Z,,0,3,,2897.9000000000233,response,ISIC_9511832.JPG,14,ISIC_9014786.JPG,ISIC_9511832.JPG,false,1,keypress(m),500,669492,669492,666583.02,666587,666594.1,669493.24,8,400,15,,ISIC_9014786.JPG
break,html.Screen,4_114_1,2023-11-01T16:16:04.562Z,,0,,,NaN,,,,,,false,,,,669494,669494,,669493,,669493.24,8,400,,,
break_continue,html.Screen,4_114_2,2023-11-01T16:16:04.563Z,,0,,,NaN,,,,,,false,,,,669495,669495,,669494,,669493.24,8,400,,,
sequence,flow.Sequence,4_114,2023-11-01T16:16:04.564Z,,0,,,2900.9000000000233,completion,,,,,false,,,,669496,669495,666583.02,666587,666594.1,669493.24,8,400,,,
trial,html.Screen,4_115_0,2023-11-01T16:16:07.389Z,,0,3,,2828.7600000000093,response,ISIC_8423248.JPG,4,ISIC_0033902.JPG,ISIC_8423248.JPG,false,1,keypress(m),500,672322,672322,669492.66,669496,669493.24,672323,8,400,16,,ISIC_0033902.JPG
break,html.Screen,4_115_1,2023-11-01T16:16:07.392Z,,0,,,NaN,,,,,,false,,,,672325,672324,,672322,,672323,8,400,,,
break_continue,html.Screen,4_115_2,2023-11-01T16:16:07.393Z,,0,,,NaN,,,,,,false,,,,672326,672325,,672325,,672323,8,400,,,
sequence,flow.Sequence,4_115,2023-11-01T16:16:07.393Z,,0,,,2831.7600000000093,completion,,,,,false,,,,672326,672325,669492.66,669496,669493.24,672323,8,400,,,
trial,html.Screen,4_116_0,2023-11-01T16:16:10.099Z,,0,3,,2709,response,ISIC_0000552.JPG,5,ISIC_8001757.JPG,ISIC_8001757.JPG,false,0,keypress(z),500,675032,675032,672322.42,672326,672323,675033.2,8,400,17,,ISIC_0000552.JPG
break,html.Screen,4_116_1,2023-11-01T16:16:10.102Z,,0,,,NaN,,,,,,false,,,,675034,675034,,675033,,675033.2,8,400,,,
break_continue,html.Screen,4_116_2,2023-11-01T16:16:10.103Z,,0,,,NaN,,,,,,false,,,,675035,675035,,675035,,675033.2,8,400,,,
sequence,flow.Sequence,4_116,2023-11-01T16:16:10.103Z,,0,,,2712,completion,,,,,false,,,,675036,675035,672322.42,672326,672323,675033.2,8,400,,,
trial,html.Screen,4_117_0,2023-11-01T16:16:13.309Z,,0,3,,3208.8000000000466,response,ISIC_0000159.JPG,15,ISIC_7299650.JPG,ISIC_7299650.JPG,false,0,keypress(z),500,678242,678242,675032.68,675036,675033.2,678252.18,8,400,18,,ISIC_0000159.JPG
break,html.Screen,4_117_1,2023-11-01T16:16:13.312Z,,0,,,NaN,,,,,,false,,,,678245,678244,,678243,,678252.18,8,400,,,
break_continue,html.Screen,4_117_2,2023-11-01T16:16:13.313Z,,0,,,NaN,,,,,,false,,,,678246,678245,,678245,,678252.18,8,400,,,
sequence,flow.Sequence,4_117,2023-11-01T16:16:13.314Z,,0,,,3211.8000000000466,completion,,,,,false,,,,678246,678245,675032.68,675036,675033.2,678252.18,8,400,,,
trial,html.Screen,4_118_0,2023-11-01T16:16:17.010Z,,0,3,,3689.819999999949,response,ISIC_0029562.JPG,14,ISIC_3452564.JPG,ISIC_0029562.JPG,false,1,keypress(m),500,681943,681942,678242.48,678246,678252.18,681943.6,8,400,19,,ISIC_3452564.JPG
break,html.Screen,4_118_1,2023-11-01T16:16:17.012Z,,0,,,NaN,,,,,,false,,,,681945,681944,,681943,,681943.6,8,400,,,
break_continue,html.Screen,4_118_2,2023-11-01T16:16:17.013Z,,0,,,NaN,,,,,,false,,,,681946,681945,,681945,,681943.6,8,400,,,
sequence,flow.Sequence,4_118,2023-11-01T16:16:17.013Z,,0,,,3692.819999999949,completion,,,,,false,,,,681946,681945,678242.48,678246,678252.18,681943.6,8,400,,,
trial,html.Screen,4_119_0,2023-11-01T16:16:20.620Z,,0,3,,3608.4000000000233,response,ISIC_2162728.JPG,4,ISIC_4798962.JPG,ISIC_2162728.JPG,false,1,keypress(m),500,685552,685552,681943.04,681947,681943.6,685553.44,8,400,20,,ISIC_4798962.JPG
break,html.Screen,4_119_1,2023-11-01T16:16:20.622Z,,0,,,NaN,,,,,,false,,,,685555,685554,,685553,,685553.44,8,400,,,
break_continue,html.Screen,4_119_2,2023-11-01T16:16:20.623Z,,0,,,NaN,,,,,,false,,,,685556,685556,,685555,,685553.44,8,400,,,
sequence,flow.Sequence,4_119,2023-11-01T16:16:20.623Z,,0,,,3612.4000000000233,completion,,,,,false,,,,685556,685556,681943.04,681946,681943.6,685553.44,8,400,,,
trial,html.Screen,4_120_0,2023-11-01T16:16:24.370Z,,0,3,,3748.560000000056,response,ISIC_0026911.JPG,14,ISIC_8709211.JPG,ISIC_0026911.JPG,false,1,keypress(m),500,689303,689302,685552.94,685556,685553.44,689310.32,8,400,21,,ISIC_8709211.JPG
break,html.Screen,4_120_1,2023-11-01T16:16:24.372Z,,0,,,NaN,,,,,,false,,,,689305,689305,,689303,,689310.32,8,400,,,
break_continue,html.Screen,4_120_2,2023-11-01T16:16:24.373Z,,0,,,NaN,,,,,,false,,,,689306,689306,,689305,,689310.32,8,400,,,
sequence,flow.Sequence,4_120,2023-11-01T16:16:24.374Z,,0,,,3752.560000000056,completion,,,,,false,,,,689307,689306,685552.94,685556,685553.44,689310.32,8,400,,,
trial,html.Screen,4_121_0,2023-11-01T16:16:29.140Z,,0,3,,4761.680000000051,response,ISIC_0032522.JPG,14,ISIC_0000507.JPG,ISIC_0032522.JPG,false,1,keypress(m),500,694073,694072,689303.14,689307,689310.32,694085.22,8,400,22,,ISIC_0000507.JPG
break,html.Screen,4_121_1,2023-11-01T16:16:29.142Z,,0,,,NaN,,,,,,false,,,,694075,694074,,694073,,694085.22,8,400,,,
break_continue,html.Screen,4_121_2,2023-11-01T16:16:29.143Z,,0,,,NaN,,,,,,false,,,,694076,694075,,694075,,694085.22,8,400,,,
sequence,flow.Sequence,4_121,2023-11-01T16:16:29.144Z,,0,,,4764.680000000051,completion,,,,,false,,,,694077,694075,689303.14,689307,689310.32,694085.22,8,400,,,
trial,html.Screen,4_122_0,2023-11-01T16:16:32.439Z,,0,3,,3286.780000000028,response,ISIC_9254641.JPG,25,ISIC_9543945.JPG,ISIC_9543945.JPG,false,0,keypress(z),500,697373,697372,694073.2,694077,694085.22,697373.32,8,400,23,,ISIC_9254641.JPG
break,html.Screen,4_122_1,2023-11-01T16:16:32.442Z,,0,,,NaN,,,,,,false,,,,697375,697374,,697373,,697373.32,8,400,,,
break_continue,html.Screen,4_122_2,2023-11-01T16:16:32.443Z,,0,,,NaN,,,,,,false,,,,697376,697376,,697375,,697373.32,8,400,,,
sequence,flow.Sequence,4_122,2023-11-01T16:16:32.444Z,,0,,,3290.780000000028,completion,,,,,false,,,,697376,697376,694073.2,694077,694085.22,697373.32,8,400,,,
trial,html.Screen,4_123_0,2023-11-01T16:16:35.420Z,,0,3,,2978.680000000051,response,ISIC_0024268.JPG,5,ISIC_6831482.JPG,ISIC_6831482.JPG,false,0,keypress(z),500,700352,700352,697372.74,697377,697373.32,700360.14,8,400,24,,ISIC_0024268.JPG
break,html.Screen,4_123_1,2023-11-01T16:16:35.422Z,,0,,,NaN,,,,,,false,,,,700354,700354,,700353,,700360.14,8,400,,,
break_continue,html.Screen,4_123_2,2023-11-01T16:16:35.423Z,,0,,,NaN,,,,,,false,,,,700355,700355,,700355,,700360.14,8,400,,,
sequence,flow.Sequence,4_123,2023-11-01T16:16:35.423Z,,0,,,2981.680000000051,completion,,,,,false,,,,700356,700355,697372.74,697376,697373.32,700360.14,8,400,,,
trial,html.Screen,4_124_0,2023-11-01T16:16:39.329Z,,0,3,,3900.859999999986,response,ISIC_0059722.JPG,4,ISIC_0011349.JPG,ISIC_0059722.JPG,false,1,keypress(m),500,704262,704261,700352.74,700356,700360.14,704268.38,8,400,25,,ISIC_0011349.JPG
break,html.Screen,4_124_1,2023-11-01T16:16:39.331Z,,0,,,NaN,,,,,,false,,,,704264,704264,,704263,,704268.38,8,400,,,
break_continue,html.Screen,4_124_2,2023-11-01T16:16:39.332Z,,0,,,NaN,,,,,,false,,,,704266,704265,,704265,,704268.38,8,400,,,
sequence,flow.Sequence,4_124,2023-11-01T16:16:39.333Z,,0,,,3904.859999999986,completion,,,,,false,,,,704266,704265,700352.74,700356,700360.14,704268.38,8,400,,,
trial,html.Screen,4_125_0,2023-11-01T16:16:43.090Z,,0,3,,3753.6199999999953,response,ISIC_2784664.JPG,13,ISIC_0067195.JPG,ISIC_0067195.JPG,false,0,keypress(z),500,708022,708022,704262.32,704266,704268.38,708023,8,400,26,,ISIC_2784664.JPG
break,html.Screen,4_125_1,2023-11-01T16:16:43.092Z,,0,,,NaN,,,,,,false,,,,708024,708024,,708023,,708023,8,400,,,
break_continue,html.Screen,4_125_2,2023-11-01T16:16:43.093Z,,0,,,NaN,,,,,,false,,,,708025,708025,,708024,,708023,8,400,,,
sequence,flow.Sequence,4_125,2023-11-01T16:16:43.093Z,,0,,,3756.6199999999953,completion,,,,,false,,,,708025,708025,704262.32,704266,704268.38,708023,8,400,,,
trial,html.Screen,4_126_0,2023-11-01T16:16:46.550Z,,0,3,,3459,response,ISIC_4241907.JPG,5,ISIC_9104982.JPG,ISIC_4241907.JPG,false,1,keypress(m),500,711482,711482,708022.52,708026,708023,711484.94,8,400,27,,ISIC_9104982.JPG
break,html.Screen,4_126_1,2023-11-01T16:16:46.551Z,,0,,,NaN,,,,,,false,,,,711484,711484,,711483,,711484.94,8,400,,,
break_continue,html.Screen,4_126_2,2023-11-01T16:16:46.553Z,,0,,,NaN,,,,,,false,,,,711485,711485,,711484,,711484.94,8,400,,,
sequence,flow.Sequence,4_126,2023-11-01T16:16:46.553Z,,0,,,3462,completion,,,,,false,,,,711486,711485,708022.52,708026,708023,711484.94,8,400,,,
trial,html.Screen,4_127_0,2023-11-01T16:16:49.669Z,,0,3,,3116.060000000056,response,ISIC_8298434.JPG,4,ISIC_7455460.JPG,ISIC_7455460.JPG,false,0,keypress(z),500,714602,714601,711482.48,711486,711484.94,714603.08,8,400,28,,ISIC_8298434.JPG
break,html.Screen,4_127_1,2023-11-01T16:16:49.672Z,,0,,,NaN,,,,,,false,,,,714605,714604,,714602,,714603.08,8,400,,,
break_continue,html.Screen,4_127_2,2023-11-01T16:16:49.673Z,,0,,,NaN,,,,,,false,,,,714606,714605,,714605,,714603.08,8,400,,,
sequence,flow.Sequence,4_127,2023-11-01T16:16:49.673Z,,0,,,3120.060000000056,completion,,,,,false,,,,714606,714605,711482.48,711486,711484.94,714603.08,8,400,,,
trial,html.Screen,4_128_0,2023-11-01T16:16:54.110Z,,0,3,,4438.920000000042,response,ISIC_0066476.JPG,14,ISIC_0031365.JPG,ISIC_0031365.JPG,false,0,keypress(z),500,719043,719042,714602.56,714606,714603.08,719043.44,8,400,29,,ISIC_0066476.JPG
break,html.Screen,4_128_1,2023-11-01T16:16:54.112Z,,0,,,NaN,,,,,,false,,,,719045,719044,,719043,,719043.44,8,400,,,
break_continue,html.Screen,4_128_2,2023-11-01T16:16:54.113Z,,0,,,NaN,,,,,,false,,,,719045,719045,,719045,,719043.44,8,400,,,
sequence,flow.Sequence,4_128,2023-11-01T16:16:54.114Z,,0,,,4441.920000000042,completion,,,,,false,,,,719047,719045,714602.56,714606,714603.08,719043.44,8,400,,,
trial,html.Screen,4_129_0,2023-11-01T16:16:57.250Z,,0,3,,3138.560000000056,response,ISIC_5275138.JPG,13,ISIC_4347535.JPG,ISIC_5275138.JPG,false,1,keypress(m),500,722183,722182,719042.86,719047,719043.44,722193.06,8,400,30,,ISIC_4347535.JPG
break,html.Screen,4_129_1,2023-11-01T16:16:57.252Z,,0,,,NaN,,,,,,false,,,,722185,722185,,722183,,722193.06,8,400,,,
break_continue,html.Screen,4_129_2,2023-11-01T16:16:57.253Z,,0,,,NaN,,,,,,false,,,,722186,722186,,722186,,722193.06,8,400,,,
sequence,flow.Sequence,4_129,2023-11-01T16:16:57.253Z,,0,,,3142.560000000056,completion,,,,,false,,,,722187,722186,719042.86,719047,719043.44,722193.06,8,400,,,
trial,html.Screen,4_130_0,2023-11-01T16:17:00.329Z,,0,3,,3067.939999999944,response,ISIC_0055226.JPG,13,ISIC_7579316.JPG,ISIC_0055226.JPG,false,1,keypress(m),500,725261,725261,722183.2,722187,722193.06,725262.5,8,400,31,,ISIC_7579316.JPG
break,html.Screen,4_130_1,2023-11-01T16:17:00.331Z,,0,,,NaN,,,,,,false,,,,725264,725264,,725261,,725262.5,8,400,,,
break_continue,html.Screen,4_130_2,2023-11-01T16:17:00.332Z,,0,,,NaN,,,,,,false,,,,725265,725265,,725265,,725262.5,8,400,,,
sequence,flow.Sequence,4_130,2023-11-01T16:17:00.332Z,,0,,,3071.939999999944,completion,,,,,false,,,,725265,725265,722183.2,722187,722193.06,725262.5,8,400,,,
trial,html.Screen,4_131_0,2023-11-01T16:17:03.739Z,,0,3,,3408.5,response,ISIC_4026019.JPG,5,ISIC_0758797.JPG,ISIC_0758797.JPG,false,0,keypress(z),500,728672,728671,725261.88,725266,725262.5,728684.62,8,400,32,,ISIC_4026019.JPG
break,html.Screen,4_131_1,2023-11-01T16:17:03.742Z,,0,,,NaN,,,,,,false,,,,728675,728674,,728672,,728684.62,8,400,,,
break_continue,html.Screen,4_131_2,2023-11-01T16:17:03.743Z,,0,,,NaN,,,,,,false,,,,728676,728675,,728675,,728684.62,8,400,,,
sequence,flow.Sequence,4_131,2023-11-01T16:17:03.743Z,,0,,,3412.5,completion,,,,,false,,,,728676,728675,725261.88,725266,725262.5,728684.62,8,400,,,
trial,html.Screen,4_132_0,2023-11-01T16:17:06.920Z,,0,3,,3166.3800000000047,response,ISIC_0439726.JPG,4,ISIC_0009927.JPG,ISIC_0009927.JPG,false,0,keypress(z),500,731852,731851,728672.68,728676,728684.62,731853.54,8,400,33,,ISIC_0439726.JPG
break,html.Screen,4_132_1,2023-11-01T16:17:06.922Z,,0,,,NaN,,,,,,false,,,,731855,731855,,731853,,731853.54,8,400,,,
break_continue,html.Screen,4_132_2,2023-11-01T16:17:06.923Z,,0,,,NaN,,,,,,false,,,,731856,731856,,731856,,731853.54,8,400,,,
sequence,flow.Sequence,4_132,2023-11-01T16:17:06.923Z,,0,,,3171.3800000000047,completion,,,,,false,,,,731857,731856,728672.68,728676,728684.62,731853.54,8,400,,,
trial,html.Screen,4_133_0,2023-11-01T16:17:10.610Z,,0,3,,3687.4599999999627,response,ISIC_5363229.JPG,3,ISIC_2244564.JPG,ISIC_2244564.JPG,false,0,keypress(z),500,735543,735541,731853.02,731857,731853.54,735543.96,8,400,34,,ISIC_5363229.JPG
break,html.Screen,4_133_1,2023-11-01T16:17:10.612Z,,0,,,NaN,,,,,,false,,,,735545,735545,,735544,,735543.96,8,400,,,
break_continue,html.Screen,4_133_2,2023-11-01T16:17:10.613Z,,0,,,NaN,,,,,,false,,,,735546,735546,,735545,,735543.96,8,400,,,
sequence,flow.Sequence,4_133,2023-11-01T16:17:10.614Z,,0,,,3692.4599999999627,completion,,,,,false,,,,735546,735546,731853.02,731857,731853.54,735543.96,8,400,,,
trial,html.Screen,4_134_0,2023-11-01T16:17:14.141Z,,0,3,,3528.0400000000373,response,ISIC_3291765.JPG,13,ISIC_0027149.JPG,ISIC_3291765.JPG,false,1,keypress(m),500,739073,739072,735543.44,735547,735543.96,739073.82,8,400,35,,ISIC_0027149.JPG
break,html.Screen,4_134_1,2023-11-01T16:17:14.142Z,,0,,,NaN,,,,,,false,,,,739075,739075,,739073,,739073.82,8,400,,,
break_continue,html.Screen,4_134_2,2023-11-01T16:17:14.143Z,,0,,,NaN,,,,,,false,,,,739076,739076,,739075,,739073.82,8,400,,,
sequence,flow.Sequence,4_134,2023-11-01T16:17:14.143Z,,0,,,3532.0400000000373,completion,,,,,false,,,,739077,739076,735543.44,735547,735543.96,739073.82,8,400,,,
trial,html.Screen,4_135_0,2023-11-01T16:17:18.510Z,,0,3,,4368.180000000051,response,ISIC_6357263.JPG,4,ISIC_7570343.JPG,ISIC_6357263.JPG,false,1,keypress(m),500,743442,743442,739073.34,739077,739073.82,743443.82,8,400,36,,ISIC_7570343.JPG
break,html.Screen,4_135_1,2023-11-01T16:17:18.513Z,,0,,,NaN,,,,,,false,,,,743445,743444,,743443,,743443.82,8,400,,,
break_continue,html.Screen,4_135_2,2023-11-01T16:17:18.513Z,,0,,,NaN,,,,,,false,,,,743446,743445,,743445,,743443.82,8,400,,,
sequence,flow.Sequence,4_135,2023-11-01T16:17:18.514Z,,0,,,4371.180000000051,completion,,,,,false,,,,743447,743445,739073.34,739077,739073.82,743443.82,8,400,,,
trial,html.Screen,4_136_0,2023-11-01T16:17:23.710Z,,0,3,,5198.180000000051,response,ISIC_3370062.JPG,14,ISIC_7566505.JPG,ISIC_7566505.JPG,false,0,keypress(z),500,748643,748642,743443.28,743447,743443.82,748643.52,8,400,37,,ISIC_3370062.JPG
break,html.Screen,4_136_1,2023-11-01T16:17:23.712Z,,0,,,NaN,,,,,,false,,,,748645,748644,,748643,,748643.52,8,400,,,
break_continue,html.Screen,4_136_2,2023-11-01T16:17:23.713Z,,0,,,NaN,,,,,,false,,,,748646,748645,,748645,,748643.52,8,400,,,
sequence,flow.Sequence,4_136,2023-11-01T16:17:23.714Z,,0,,,5201.180000000051,completion,,,,,false,,,,748646,748645,743443.28,743447,743443.82,748643.52,8,400,,,
trial,html.Screen,4_137_0,2023-11-01T16:17:26.789Z,,0,3,,3078.4799999999814,response,ISIC_8282404.JPG,14,ISIC_3882374.JPG,ISIC_3882374.JPG,false,0,keypress(z),500,751722,751722,748642.92,748646,748643.52,751722.54,8,400,38,,ISIC_8282404.JPG
break,html.Screen,4_137_1,2023-11-01T16:17:26.791Z,,0,,,NaN,,,,,,false,,,,751724,751723,,751722,,751722.54,8,400,,,
break_continue,html.Screen,4_137_2,2023-11-01T16:17:26.792Z,,0,,,NaN,,,,,,false,,,,751725,751725,,751724,,751722.54,8,400,,,
sequence,flow.Sequence,4_137,2023-11-01T16:17:26.793Z,,0,,,3081.4799999999814,completion,,,,,false,,,,751725,751725,748642.92,748646,748643.52,751722.54,8,400,,,
trial,html.Screen,4_138_0,2023-11-01T16:17:30.850Z,,0,3,,4059.4599999999627,response,ISIC_0056938.JPG,15,ISIC_0011374.JPG,ISIC_0056938.JPG,false,1,keypress(m),500,755783,755782,751721.98,751726,751722.54,755783.58,8,400,39,,ISIC_0011374.JPG
break,html.Screen,4_138_1,2023-11-01T16:17:30.852Z,,0,,,NaN,,,,,,false,,,,755785,755785,,755783,,755783.58,8,400,,,
break_continue,html.Screen,4_138_2,2023-11-01T16:17:30.853Z,,0,,,NaN,,,,,,false,,,,755786,755786,,755785,,755783.58,8,400,,,
sequence,flow.Sequence,4_138,2023-11-01T16:17:30.854Z,,0,,,4063.4599999999627,completion,,,,,false,,,,755786,755786,751721.98,751726,751722.54,755783.58,8,400,,,
trial,html.Screen,4_139_0,2023-11-01T16:17:34.100Z,,0,3,,3248.420000000042,response,ISIC_0027132.JPG,14,ISIC_0014912.JPG,ISIC_0027132.JPG,false,1,keypress(m),500,759033,759032,755783.04,755787,755783.58,759033.68,8,400,40,,ISIC_0014912.JPG
break,html.Screen,4_139_1,2023-11-01T16:17:34.102Z,,0,,,NaN,,,,,,false,,,,759035,759034,,759033,,759033.68,8,400,,,
break_continue,html.Screen,4_139_2,2023-11-01T16:17:34.103Z,,0,,,NaN,,,,,,false,,,,759036,759035,,759035,,759033.68,8,400,,,
sequence,flow.Sequence,4_139,2023-11-01T16:17:34.104Z,,0,,,3251.420000000042,completion,,,,,false,,,,759036,759035,755783.04,755787,755783.58,759033.68,8,400,,,
trial,html.Screen,4_140_0,2023-11-01T16:17:37.870Z,,0,3,,3768.319999999949,response,ISIC_4344870.JPG,14,ISIC_0011064.JPG,ISIC_4344870.JPG,false,1,keypress(m),500,762803,762802,759033.14,759036,759033.68,762803.4,8,400,41,,ISIC_0011064.JPG
break,html.Screen,4_140_1,2023-11-01T16:17:37.872Z,,0,,,NaN,,,,,,false,,,,762805,762804,,762803,,762803.4,8,400,,,
break_continue,html.Screen,4_140_2,2023-11-01T16:17:37.873Z,,0,,,NaN,,,,,,false,,,,762806,762806,,762805,,762803.4,8,400,,,
sequence,flow.Sequence,4_140,2023-11-01T16:17:37.873Z,,0,,,3772.319999999949,completion,,,,,false,,,,762806,762806,759033.14,759036,759033.68,762803.4,8,400,,,
trial,html.Screen,4_141_0,2023-11-01T16:17:40.900Z,,0,3,,3028.5999999999767,response,ISIC_4984668.JPG,14,ISIC_8636706.JPG,ISIC_8636706.JPG,false,0,keypress(z),500,765832,765832,762802.9,762806,762803.4,765842.26,8,400,42,,ISIC_4984668.JPG
break,html.Screen,4_141_1,2023-11-01T16:17:40.902Z,,0,,,NaN,,,,,,false,,,,765835,765834,,765833,,765842.26,8,400,,,
break_continue,html.Screen,4_141_2,2023-11-01T16:17:40.903Z,,0,,,NaN,,,,,,false,,,,765835,765835,,765835,,765842.26,8,400,,,
sequence,flow.Sequence,4_141,2023-11-01T16:17:40.904Z,,0,,,3031.5999999999767,completion,,,,,false,,,,765836,765835,762802.9,762806,762803.4,765842.26,8,400,,,
trial,html.Screen,4_142_0,2023-11-01T16:17:45.500Z,,0,3,,4589.739999999991,response,ISIC_0063642.JPG,4,ISIC_0071707.JPG,ISIC_0063642.JPG,false,1,keypress(m),500,770433,770432,765832.84,765836,765842.26,770433.58,8,400,43,,ISIC_0071707.JPG
break,html.Screen,4_142_1,2023-11-01T16:17:45.503Z,,0,,,NaN,,,,,,false,,,,770435,770434,,770433,,770433.58,8,400,,,
break_continue,html.Screen,4_142_2,2023-11-01T16:17:45.504Z,,0,,,NaN,,,,,,false,,,,770436,770436,,770435,,770433.58,8,400,,,
sequence,flow.Sequence,4_142,2023-11-01T16:17:45.504Z,,0,,,4593.739999999991,completion,,,,,false,,,,770436,770436,765832.84,765836,765842.26,770433.58,8,400,,,
trial,html.Screen,4_143_0,2023-11-01T16:17:48.639Z,,0,3,,3138.420000000042,response,ISIC_0034049.JPG,14,ISIC_0063745.JPG,ISIC_0063745.JPG,false,0,keypress(z),500,773572,773572,770433.06,770437,770433.58,773583.82,8,400,44,,ISIC_0034049.JPG
break,html.Screen,4_143_1,2023-11-01T16:17:48.642Z,,0,,,NaN,,,,,,false,,,,773574,773574,,773573,,773583.82,8,400,,,
break_continue,html.Screen,4_143_2,2023-11-01T16:17:48.643Z,,0,,,NaN,,,,,,false,,,,773575,773575,,773575,,773583.82,8,400,,,
sequence,flow.Sequence,4_143,2023-11-01T16:17:48.644Z,,0,,,3141.420000000042,completion,,,,,false,,,,773576,773575,770433.06,770437,770433.58,773583.82,8,400,,,
trial,html.Screen,4_144_0,2023-11-01T16:17:52.350Z,,0,3,,3698.180000000051,response,ISIC_2457024.JPG,4,ISIC_0027214.JPG,ISIC_0027214.JPG,false,0,keypress(z),500,777283,777282,773572.7,773576,773583.82,777283.34,8,400,45,,ISIC_2457024.JPG
break,html.Screen,4_144_1,2023-11-01T16:17:52.352Z,,0,,,NaN,,,,,,false,,,,777285,777284,,777283,,777283.34,8,400,,,
break_continue,html.Screen,4_144_2,2023-11-01T16:17:52.353Z,,0,,,NaN,,,,,,false,,,,777286,777286,,777285,,777283.34,8,400,,,
sequence,flow.Sequence,4_144,2023-11-01T16:17:52.354Z,,0,,,3702.180000000051,completion,,,,,false,,,,777286,777286,773572.7,773576,773583.82,777283.34,8,400,,,
trial,html.Screen,4_145_0,2023-11-01T16:17:55.550Z,,0,3,,3197.6600000000326,response,ISIC_3637551.JPG,14,ISIC_0057787.JPG,ISIC_3637551.JPG,false,1,keypress(m),500,780482,780481,777282.8,777286,777283.34,780492,8,400,46,,ISIC_0057787.JPG
break,html.Screen,4_145_1,2023-11-01T16:17:55.552Z,,0,,,NaN,,,,,,false,,,,780484,780484,,780482,,780492,8,400,,,
break_continue,html.Screen,4_145_2,2023-11-01T16:17:55.553Z,,0,,,NaN,,,,,,false,,,,780486,780485,,780484,,780492,8,400,,,
sequence,flow.Sequence,4_145,2023-11-01T16:17:55.553Z,,0,,,3201.6600000000326,completion,,,,,false,,,,780486,780485,777282.8,777286,777283.34,780492,8,400,,,
trial,html.Screen,4_146_0,2023-11-01T16:17:59.069Z,,0,3,,3510,response,ISIC_9390107.JPG,14,ISIC_3171104.JPG,ISIC_9390107.JPG,false,1,keypress(m),500,784002,784002,780482.56,780486,780492,784003,8,400,47,,ISIC_3171104.JPG
break,html.Screen,4_146_1,2023-11-01T16:17:59.071Z,,0,,,NaN,,,,,,false,,,,784005,784004,,784003,,784003,8,400,,,
break_continue,html.Screen,4_146_2,2023-11-01T16:17:59.072Z,,0,,,NaN,,,,,,false,,,,784006,784005,,784005,,784003,8,400,,,
sequence,flow.Sequence,4_146,2023-11-01T16:17:59.073Z,,0,,,3513,completion,,,,,false,,,,784006,784005,780482.56,780486,780492,784003,8,400,,,
trial,html.Screen,4_147_0,2023-11-01T16:18:03.840Z,,0,3,,4768,response,ISIC_2105563.JPG,15,ISIC_0070217.JPG,ISIC_2105563.JPG,false,1,keypress(m),500,788772,788771,784002.4,784006,784003,788783.54,8,400,48,,ISIC_0070217.JPG
break,html.Screen,4_147_1,2023-11-01T16:18:03.842Z,,0,,,NaN,,,,,,false,,,,788775,788774,,788772,,788783.54,8,400,,,
break_continue,html.Screen,4_147_2,2023-11-01T16:18:03.843Z,,0,,,NaN,,,,,,false,,,,788776,788775,,788775,,788783.54,8,400,,,
sequence,flow.Sequence,4_147,2023-11-01T16:18:03.843Z,,0,,,4772,completion,,,,,false,,,,788776,788775,784002.4,784006,784003,788783.54,8,400,,,
trial,html.Screen,4_148_0,2023-11-01T16:18:06.850Z,,0,3,,2998.4599999999627,response,ISIC_3505339.JPG,4,ISIC_0068447.JPG,ISIC_0068447.JPG,false,0,keypress(z),500,791782,791782,788772.9,788776,788783.54,791791.78,8,400,49,,ISIC_3505339.JPG
break,html.Screen,4_148_1,2023-11-01T16:18:06.852Z,,0,,,NaN,,,,,,false,,,,791784,791784,,791782,,791791.78,8,400,,,
break_continue,html.Screen,4_148_2,2023-11-01T16:18:06.853Z,,0,,,NaN,,,,,,false,,,,791785,791785,,791785,,791791.78,8,400,,,
sequence,flow.Sequence,4_148,2023-11-01T16:18:06.853Z,,0,,,3001.4599999999627,completion,,,,,false,,,,791786,791785,788772.9,788776,788783.54,791791.78,8,400,,,
trial,html.Screen,4_149_0,2023-11-01T16:18:11.199Z,,0,3,,4340.219999999972,response,ISIC_3871225.JPG,5,ISIC_0026671.JPG,ISIC_0026671.JPG,false,0,keypress(z),500,796132,796132,791782.48,791786,791791.78,796133.14,8,400,50,,ISIC_3871225.JPG
break,html.Screen,4_149_1,2023-11-01T16:18:21.187Z,,0,,,10000.079999999958,timeout,,,,,false,,,,806119,806116.56,796132.62,796132,796133.14,806133.22,8,400,,,
break_continue,html.Screen,4_149_2,2023-11-01T16:18:46.286Z,,0,,,25047.780000000028,response,,,,,false,continue,keypress(Space),,831219,831181,806116.56,806119,806133.22,831220.12,8,400,,,
sequence,flow.Sequence,4_149,2023-11-01T16:18:46.286Z,,0,,,39389.21999999997,completion,,,,,false,,,,831219,831181,791782.48,791786,791791.78,831220.12,8,400,,,
trial,html.Screen,4_150_0,2023-11-01T16:18:50.575Z,,0,4,,4286.880000000005,response,ISIC_0015969.JPG,0,ISIC_0027936.JPG,ISIC_0027936.JPG,false,0,keypress(z),500,835508,835507,831219.6,831220,831220.12,835508.28,8,400,1,,ISIC_0015969.JPG
break,html.Screen,4_150_1,2023-11-01T16:18:50.577Z,,0,,,NaN,,,,,,false,,,,835510,835509,,835508,,835508.28,8,400,,,
