sender,sender_type,sender_id,timestamp,meta,,blockNo,condition,duration,ended_on,img_left,img_reveal,img_right,loser,practice,response,response_action,selection_duration,time_commit,time_end,time_render,time_run,time_show,time_switch,total_blocks,total_trials,trialNo,url,winner
informed_consent,html.Screen,0,2023-09-08T19:54:34.946Z,"{""labjs_version"":""20.2.4"",""labjs_build"":{""flavor"":""production"",""commit"":""f5b4a49f956347addd546a832a3327688c2c0fef""},""location"":""https://run.pavlovia.org/MurrayBennett/melanoma-2afc/?participant=5bf408f7f35e0c000101693a&STUDY_ID=64f8c92207ba404bcb356c90&SESSION_ID=64fb7bc76ac850ee75789c7e&platform=prolific"",""userAgent"":""Mozilla/5.0 (Windows NT 10.0; Win64; x64) AppleWebKit/537.36 (KHTML, like Gecko) Chrome/116.0.0.0 Safari/537.36"",""platform"":""Win32"",""language"":""en-US"",""locale"":""en-US"",""timeZone"":""America/Los_Angeles"",""timezoneOffset"":420,""screen_width"":1536,""screen_height"":960,""scroll_width"":1536,""scroll_height"":763,""window_innerWidth"":1536,""window_innerHeight"":811,""devicePixelRatio"":1.25}",,,,6715,response,,,,,,consent,click button,,13940,13939,7190,7205,7224,14110,,,,"{""participant"":""5bf408f7f35e0c000101693a"",""STUDY_ID"":""64f8c92207ba404bcb356c90"",""SESSION_ID"":""64fb7bc76ac850ee75789c7e"",""platform"":""prolific""}",
Welcome,html.Screen,1,2023-09-08T19:55:22.538Z,,,,asymmetry,47421,response,,,,,,continue,click button,,61532,61531,13926.7,13940,14110,61544,,,,,
trial,html.Screen,2_0_0,2023-09-08T19:55:33.165Z,,0,0,,10614,response,ISIC_0069348.JPG,,ISIC_6997061.JPG,ISIC_6997061.JPG,true,0,keypress(z),500,72159,72158,61527,61532,61544,72208,1,6,1,,ISIC_0069348.JPG
sequence,flow.Sequence,2_0,2023-09-08T19:55:33.166Z,,0,,,10614,completion,,,,,true,,,,72160,72158,61527,61532,61544,72208,1,6,,,
trial,html.Screen,2_1_0,2023-09-08T19:55:39.351Z,,0,0,,6137,response,ISIC_0057368.JPG,,ISIC_0009529.JPG,ISIC_0009529.JPG,true,0,keypress(z),500,78345,78345,72158,72161,72208,78375,1,6,2,,ISIC_0057368.JPG
sequence,flow.Sequence,2_1,2023-09-08T19:55:39.352Z,,0,,,6137,completion,,,,,true,,,,78346,78345,72158,72160,72208,78375,1,6,,,
trial,html.Screen,2_2_0,2023-09-08T19:55:44.366Z,,0,0,,4985,response,ISIC_0064954.JPG,,ISIC_9758671.JPG,ISIC_0064954.JPG,true,1,keypress(m),500,83360,83360,78342,78347,78375,83405,1,6,3,,ISIC_9758671.JPG
sequence,flow.Sequence,2_2,2023-09-08T19:55:44.367Z,,0,,,4985,completion,,,,,true,,,,83361,83360,78342,78346,78375,83405,1,6,,,
trial,html.Screen,2_3_0,2023-09-08T19:55:47.844Z,,0,0,,3433,response,ISIC_0005785.JPG,,ISIC_0000080.JPG,ISIC_0000080.JPG,true,0,keypress(z),500,86838,86838,83373,83362,83405,86866,1,6,4,,ISIC_0005785.JPG
sequence,flow.Sequence,2_3,2023-09-08T19:55:47.845Z,,0,,,3433,completion,,,,,true,,,,86839,86838,83373,83362,83405,86866,1,6,,,
trial,html.Screen,2_4_0,2023-09-08T19:55:51.898Z,,0,0,,4025,response,ISIC_7944028.JPG,,ISIC_5390060.JPG,ISIC_7944028.JPG,true,1,keypress(m),500,90892,90891,86849,86840,86866,90910,1,6,5,,ISIC_5390060.JPG
sequence,flow.Sequence,2_4,2023-09-08T19:55:51.899Z,,0,,,4025,completion,,,,,true,,,,90893,90891,86849,86840,86866,90910,1,6,,,
trial,html.Screen,2_5_0,2023-09-08T19:55:54.697Z,,0,0,,2781,response,ISIC_0010188.JPG,,ISIC_0794216.JPG,ISIC_0794216.JPG,true,0,keypress(z),500,93691,93691,90893,90893,90910,93701,1,6,6,,ISIC_0010188.JPG
sequence,flow.Sequence,2_5,2023-09-08T19:55:54.698Z,,0,,,2781,completion,,,,,true,,,,93692,93691,90893,90893,90910,93701,1,6,,,
loop,flow.Loop,2,2023-09-08T19:55:54.698Z,,,,,32147,completion,,,,,true,,,,93692,93691,61527,61532,61544,93701,1,6,,,
exp_instructions,html.Screen,3,2023-09-08T19:56:23.437Z,,,,,28729,response,,,,,,continue,keypress(Space),,122431,122430,93684.25,93692,93701,122466,,,,,
trial,html.Screen,4_0_0,2023-09-08T19:56:27.868Z,,0,1,,4395,response,ISIC_0064964.JPG,8,ISIC_2731621.JPG,ISIC_0064964.JPG,false,1,keypress(m),500,126862,126861,122433,122432,122466,126895,8,400,1,,ISIC_2731621.JPG
break,html.Screen,4_0_1,2023-09-08T19:56:27.871Z,,0,,,NaN,,,,,,false,,,,126865,126864,,126862,,126895,8,400,,,
break_continue,html.Screen,4_0_2,2023-09-08T19:56:27.872Z,,0,,,NaN,,,,,,false,,,,126866,126866,,126865,,126895,8,400,,,
sequence,flow.Sequence,4_0,2023-09-08T19:56:27.873Z,,0,,,4400,completion,,,,,false,,,,126867,126866,122433,122432,122466,126895,8,400,,,
trial,html.Screen,4_1_0,2023-09-08T19:56:30.996Z,,0,1,,3095,response,ISIC_0000585.JPG,4,ISIC_3236964.JPG,ISIC_0000585.JPG,false,1,keypress(m),500,129990,129990,126861,126867,126895,130022,8,400,2,,ISIC_3236964.JPG
break,html.Screen,4_1_1,2023-09-08T19:56:30.999Z,,0,,,NaN,,,,,,false,,,,129993,129993,,129991,,130022,8,400,,,
break_continue,html.Screen,4_1_2,2023-09-08T19:56:31.000Z,,0,,,NaN,,,,,,false,,,,129994,129994,,129993,,130022,8,400,,,
sequence,flow.Sequence,4_1,2023-09-08T19:56:31.001Z,,0,,,3099,completion,,,,,false,,,,129995,129994,126861,126867,126895,130022,8,400,,,
trial,html.Screen,4_2_0,2023-09-08T19:56:35.293Z,,0,1,,4264,response,ISIC_1856556.JPG,5,ISIC_4460849.JPG,ISIC_4460849.JPG,false,0,keypress(z),500,134287,134286,129987,129995,130022,134318,8,400,3,,ISIC_1856556.JPG
break,html.Screen,4_2_1,2023-09-08T19:56:35.296Z,,0,,,NaN,,,,,,false,,,,134290,134289,,134287,,134318,8,400,,,
break_continue,html.Screen,4_2_2,2023-09-08T19:56:35.297Z,,0,,,NaN,,,,,,false,,,,134291,134291,,134290,,134318,8,400,,,
sequence,flow.Sequence,4_2,2023-09-08T19:56:35.298Z,,0,,,4269,completion,,,,,false,,,,134292,134291,129987,129995,130022,134318,8,400,,,
trial,html.Screen,4_3_0,2023-09-08T19:56:39.028Z,,0,1,,3704,response,ISIC_5315125.JPG,4,ISIC_0032917.JPG,ISIC_5315125.JPG,false,1,keypress(m),500,138022,138022,134282,134292,134318,138043,8,400,4,,ISIC_0032917.JPG
break,html.Screen,4_3_1,2023-09-08T19:56:39.031Z,,0,,,NaN,,,,,,false,,,,138025,138025,,138023,,138043,8,400,,,
break_continue,html.Screen,4_3_2,2023-09-08T19:56:39.032Z,,0,,,NaN,,,,,,false,,,,138026,138026,,138026,,138043,8,400,,,
sequence,flow.Sequence,4_3,2023-09-08T19:56:39.035Z,,0,,,3708,completion,,,,,false,,,,138029,138026,134282,134292,134318,138043,8,400,,,
trial,html.Screen,4_4_0,2023-09-08T19:56:42.141Z,,0,1,,3092,response,ISIC_0026993.JPG,5,ISIC_4695051.JPG,ISIC_4695051.JPG,false,0,keypress(z),500,141135,141135,138009.225,138030,138043,141152,8,400,5,,ISIC_0026993.JPG
break,html.Screen,4_4_1,2023-09-08T19:56:42.142Z,,0,,,NaN,,,,,,false,,,,141136,141136,,141135,,141152,8,400,,,
break_continue,html.Screen,4_4_2,2023-09-08T19:56:42.143Z,,0,,,NaN,,,,,,false,,,,141137,141137,,141136,,141152,8,400,,,
sequence,flow.Sequence,4_4,2023-09-08T19:56:42.143Z,,0,,,3094,completion,,,,,false,,,,141137,141137,138009.225,138030,138043,141152,8,400,,,
trial,html.Screen,4_5_0,2023-09-08T19:56:45.735Z,,0,1,,3577,response,ISIC_0029744.JPG,5,ISIC_0067893.JPG,ISIC_0067893.JPG,false,0,keypress(z),500,144729,144729,141135,141137,141152,144746,8,400,6,,ISIC_0029744.JPG
break,html.Screen,4_5_1,2023-09-08T19:56:45.737Z,,0,,,NaN,,,,,,false,,,,144731,144730,,144729,,144746,8,400,,,
break_continue,html.Screen,4_5_2,2023-09-08T19:56:45.738Z,,0,,,NaN,,,,,,false,,,,144732,144732,,144732,,144746,8,400,,,
sequence,flow.Sequence,4_5,2023-09-08T19:56:45.739Z,,0,,,3580,completion,,,,,false,,,,144733,144732,141135,141137,141152,144746,8,400,,,
trial,html.Screen,4_6_0,2023-09-08T19:56:50.572Z,,0,1,,4820,response,ISIC_4796100.JPG,6,ISIC_6860222.JPG,ISIC_4796100.JPG,false,1,keypress(m),500,149566,149566,144729,144733,144746,149576,8,400,7,,ISIC_6860222.JPG
break,html.Screen,4_6_1,2023-09-08T19:56:50.573Z,,0,,,NaN,,,,,,false,,,,149567,149567,,149566,,149576,8,400,,,
break_continue,html.Screen,4_6_2,2023-09-08T19:56:50.574Z,,0,,,NaN,,,,,,false,,,,149568,149568,,149567,,149576,8,400,,,
sequence,flow.Sequence,4_6,2023-09-08T19:56:50.574Z,,0,,,4822,completion,,,,,false,,,,149568,149568,144729,144733,144746,149576,8,400,,,
trial,html.Screen,4_7_0,2023-09-08T19:56:54.495Z,,0,1,,3913,response,ISIC_6557194.JPG,4,ISIC_0059390.JPG,ISIC_6557194.JPG,false,1,keypress(m),500,153489,153489,149558.575,149568,149576,153503,8,400,8,,ISIC_0059390.JPG
break,html.Screen,4_7_1,2023-09-08T19:56:54.496Z,,0,,,NaN,,,,,,false,,,,153490,153490,,153489,,153503,8,400,,,
break_continue,html.Screen,4_7_2,2023-09-08T19:56:54.496Z,,0,,,NaN,,,,,,false,,,,153490,153490,,153490,,153503,8,400,,,
sequence,flow.Sequence,4_7,2023-09-08T19:56:54.497Z,,0,,,3914,completion,,,,,false,,,,153491,153490,149558.575,149568,149576,153503,8,400,,,
trial,html.Screen,4_8_0,2023-09-08T19:56:59.317Z,,0,1,,4808,response,ISIC_0013898.JPG,4,ISIC_6392461.JPG,ISIC_6392461.JPG,false,0,keypress(z),500,158311,158311,153487,153491,153503,158317,8,400,9,,ISIC_0013898.JPG
break,html.Screen,4_8_1,2023-09-08T19:56:59.318Z,,0,,,NaN,,,,,,false,,,,158312,158312,,158311,,158317,8,400,,,
break_continue,html.Screen,4_8_2,2023-09-08T19:56:59.319Z,,0,,,NaN,,,,,,false,,,,158313,158313,,158312,,158317,8,400,,,
sequence,flow.Sequence,4_8,2023-09-08T19:56:59.319Z,,0,,,4810,completion,,,,,false,,,,158313,158313,153487,153491,153503,158317,8,400,,,
trial,html.Screen,4_9_0,2023-09-08T19:57:02.939Z,,0,1,,3616,response,ISIC_0034140.JPG,4,ISIC_3736075.JPG,ISIC_3736075.JPG,false,0,keypress(z),500,161933,161933,158299.925,158313,158317,161945,8,400,10,,ISIC_0034140.JPG
break,html.Screen,4_9_1,2023-09-08T19:57:02.942Z,,0,,,NaN,,,,,,false,,,,161936,161936,,161934,,161945,8,400,,,
break_continue,html.Screen,4_9_2,2023-09-08T19:57:02.943Z,,0,,,NaN,,,,,,false,,,,161937,161937,,161937,,161945,8,400,,,
sequence,flow.Sequence,4_9,2023-09-08T19:57:02.944Z,,0,,,3620,completion,,,,,false,,,,161938,161937,158299.925,158313,158317,161945,8,400,,,
trial,html.Screen,4_10_0,2023-09-08T19:57:08.649Z,,0,1,,5697,response,ISIC_7329395.JPG,6,ISIC_0254447.JPG,ISIC_0254447.JPG,false,0,keypress(z),500,167643,167642,161926.225,161938,161945,167677,8,400,11,,ISIC_7329395.JPG
break,html.Screen,4_10_1,2023-09-08T19:57:08.652Z,,0,,,NaN,,,,,,false,,,,167646,167645,,167643,,167677,8,400,,,
break_continue,html.Screen,4_10_2,2023-09-08T19:57:08.653Z,,0,,,NaN,,,,,,false,,,,167647,167647,,167646,,167677,8,400,,,
sequence,flow.Sequence,4_10,2023-09-08T19:57:08.653Z,,0,,,5702,completion,,,,,false,,,,167647,167647,161926.225,161938,161945,167677,8,400,,,
trial,html.Screen,4_11_0,2023-09-08T19:57:12.218Z,,0,1,,3535,response,ISIC_0031671.JPG,4,ISIC_0033362.JPG,ISIC_0031671.JPG,false,1,keypress(m),500,171212,171212,167643,167648,167677,171220,8,400,12,,ISIC_0033362.JPG
break,html.Screen,4_11_1,2023-09-08T19:57:12.219Z,,0,,,NaN,,,,,,false,,,,171213,171213,,171212,,171220,8,400,,,
break_continue,html.Screen,4_11_2,2023-09-08T19:57:12.220Z,,0,,,NaN,,,,,,false,,,,171214,171213,,171213,,171220,8,400,,,
sequence,flow.Sequence,4_11,2023-09-08T19:57:12.220Z,,0,,,3536,completion,,,,,false,,,,171214,171213,167643,167648,167677,171220,8,400,,,
trial,html.Screen,4_12_0,2023-09-08T19:57:18.158Z,,0,1,,5932,response,ISIC_0594534.JPG,5,ISIC_0016081.JPG,ISIC_0594534.JPG,false,1,keypress(m),500,177152,177152,171202.6,171214,171220,177187,8,400,13,,ISIC_0016081.JPG
break,html.Screen,4_12_1,2023-09-08T19:57:18.161Z,,0,,,NaN,,,,,,false,,,,177155,177155,,177153,,177187,8,400,,,
break_continue,html.Screen,4_12_2,2023-09-08T19:57:18.162Z,,0,,,NaN,,,,,,false,,,,177156,177156,,177156,,177187,8,400,,,
sequence,flow.Sequence,4_12,2023-09-08T19:57:18.163Z,,0,,,5936,completion,,,,,false,,,,177157,177156,171202.6,171214,171220,177187,8,400,,,
trial,html.Screen,4_13_0,2023-09-08T19:57:22.952Z,,0,1,,4758,response,ISIC_3474609.JPG,5,ISIC_9743052.JPG,ISIC_9743052.JPG,false,0,keypress(z),500,181946,181945,177153,177157,177187,181967,8,400,14,,ISIC_3474609.JPG
break,html.Screen,4_13_1,2023-09-08T19:57:22.955Z,,0,,,NaN,,,,,,false,,,,181949,181948,,181946,,181967,8,400,,,
break_continue,html.Screen,4_13_2,2023-09-08T19:57:22.956Z,,0,,,NaN,,,,,,false,,,,181950,181950,,181949,,181967,8,400,,,
sequence,flow.Sequence,4_13,2023-09-08T19:57:22.957Z,,0,,,4763,completion,,,,,false,,,,181951,181950,177153,177157,177187,181967,8,400,,,
trial,html.Screen,4_14_0,2023-09-08T19:57:28.543Z,,0,1,,5570,response,ISIC_0071550.JPG,4,ISIC_0003539.JPG,ISIC_0071550.JPG,false,1,keypress(m),500,187537,187537,181933.225,181951,181967,187566,8,400,15,,ISIC_0003539.JPG
break,html.Screen,4_14_1,2023-09-08T19:57:28.546Z,,0,,,NaN,,,,,,false,,,,187540,187540,,187538,,187566,8,400,,,
break_continue,html.Screen,4_14_2,2023-09-08T19:57:28.547Z,,0,,,NaN,,,,,,false,,,,187541,187541,,187541,,187566,8,400,,,
sequence,flow.Sequence,4_14,2023-09-08T19:57:28.548Z,,0,,,5574,completion,,,,,false,,,,187542,187541,181933.225,181951,181967,187566,8,400,,,
trial,html.Screen,4_15_0,2023-09-08T19:57:32.247Z,,0,1,,3675,response,ISIC_0033902.JPG,6,ISIC_0029914.JPG,ISIC_0033902.JPG,false,1,keypress(m),500,191241,191241,187532,187542,187566,191259,8,400,16,,ISIC_0029914.JPG
break,html.Screen,4_15_1,2023-09-08T19:57:32.250Z,,0,,,NaN,,,,,,false,,,,191244,191244,,191242,,191259,8,400,,,
break_continue,html.Screen,4_15_2,2023-09-08T19:57:32.251Z,,0,,,NaN,,,,,,false,,,,191245,191245,,191245,,191259,8,400,,,
sequence,flow.Sequence,4_15,2023-09-08T19:57:32.252Z,,0,,,3679,completion,,,,,false,,,,191246,191245,187532,187542,187566,191259,8,400,,,
trial,html.Screen,4_16_0,2023-09-08T19:57:35.631Z,,0,1,,3365,response,ISIC_7806926.JPG,4,ISIC_0834745.JPG,ISIC_0834745.JPG,false,0,keypress(z),500,194625,194624,191243,191246,191259,194652,8,400,17,,ISIC_7806926.JPG
break,html.Screen,4_16_1,2023-09-08T19:57:35.633Z,,0,,,NaN,,,,,,false,,,,194627,194627,,194625,,194652,8,400,,,
break_continue,html.Screen,4_16_2,2023-09-08T19:57:35.634Z,,0,,,NaN,,,,,,false,,,,194628,194628,,194628,,194652,8,400,,,
sequence,flow.Sequence,4_16,2023-09-08T19:57:35.635Z,,0,,,3369,completion,,,,,false,,,,194629,194628,191243,191246,191259,194652,8,400,,,
trial,html.Screen,4_17_0,2023-09-08T19:57:41.688Z,,0,1,,6029,response,ISIC_2075546.JPG,6,ISIC_2076902.JPG,ISIC_2076902.JPG,false,0,keypress(z),500,200682,200681,194617.9,194629,194652,200703,8,400,18,,ISIC_2075546.JPG
break,html.Screen,4_17_1,2023-09-08T19:57:41.691Z,,0,,,NaN,,,,,,false,,,,200685,200684,,200682,,200703,8,400,,,
break_continue,html.Screen,4_17_2,2023-09-08T19:57:41.692Z,,0,,,NaN,,,,,,false,,,,200686,200685,,200685,,200703,8,400,,,
sequence,flow.Sequence,4_17,2023-09-08T19:57:41.692Z,,0,,,6033,completion,,,,,false,,,,200686,200685,194617.9,194629,194652,200703,8,400,,,
trial,html.Screen,4_18_0,2023-09-08T19:57:45.699Z,,0,1,,3990,response,ISIC_0032140.JPG,5,ISIC_5539001.JPG,ISIC_5539001.JPG,false,0,keypress(z),500,204693,204693,200669.225,200687,200703,204697,8,400,19,,ISIC_0032140.JPG
break,html.Screen,4_18_1,2023-09-08T19:57:45.702Z,,0,,,NaN,,,,,,false,,,,204696,204695,,204694,,204697,8,400,,,
break_continue,html.Screen,4_18_2,2023-09-08T19:57:45.703Z,,0,,,NaN,,,,,,false,,,,204697,204697,,204696,,204697,8,400,,,
sequence,flow.Sequence,4_18,2023-09-08T19:57:45.704Z,,0,,,3994,completion,,,,,false,,,,204698,204697,200669.225,200687,200703,204697,8,400,,,
trial,html.Screen,4_19_0,2023-09-08T19:57:49.819Z,,0,1,,4116,response,ISIC_0026943.JPG,5,ISIC_0070253.JPG,ISIC_0026943.JPG,false,1,keypress(m),500,208813,208813,204681.35,204698,204697,208826,8,400,20,,ISIC_0070253.JPG
break,html.Screen,4_19_1,2023-09-08T19:57:49.820Z,,0,,,NaN,,,,,,false,,,,208814,208814,,208813,,208826,8,400,,,
break_continue,html.Screen,4_19_2,2023-09-08T19:57:49.821Z,,0,,,NaN,,,,,,false,,,,208815,208815,,208815,,208826,8,400,,,
sequence,flow.Sequence,4_19,2023-09-08T19:57:49.821Z,,0,,,4118,completion,,,,,false,,,,208815,208815,204681.35,204698,204697,208826,8,400,,,
trial,html.Screen,4_20_0,2023-09-08T19:57:53.246Z,,0,1,,3414,response,ISIC_0010523.JPG,4,ISIC_5885403.JPG,ISIC_5885403.JPG,false,0,keypress(z),500,212240,212240,208809,208815,208826,212252,8,400,21,,ISIC_0010523.JPG
break,html.Screen,4_20_1,2023-09-08T19:57:53.249Z,,0,,,NaN,,,,,,false,,,,212243,212243,,212241,,212252,8,400,,,
break_continue,html.Screen,4_20_2,2023-09-08T19:57:53.251Z,,0,,,NaN,,,,,,false,,,,212245,212244,,212244,,212252,8,400,,,
sequence,flow.Sequence,4_20,2023-09-08T19:57:53.251Z,,0,,,3418,completion,,,,,false,,,,212245,212244,208809,208815,208826,212252,8,400,,,
trial,html.Screen,4_21_0,2023-09-08T19:57:58.031Z,,0,1,,4773,response,ISIC_0033344.JPG,5,ISIC_4142019.JPG,ISIC_4142019.JPG,false,0,keypress(z),500,217025,217025,212235,212246,212252,217050,8,400,22,,ISIC_0033344.JPG
break,html.Screen,4_21_1,2023-09-08T19:57:58.033Z,,0,,,NaN,,,,,,false,,,,217027,217027,,217025,,217050,8,400,,,
break_continue,html.Screen,4_21_2,2023-09-08T19:57:58.035Z,,0,,,NaN,,,,,,false,,,,217029,217028,,217028,,217050,8,400,,,
sequence,flow.Sequence,4_21,2023-09-08T19:57:58.035Z,,0,,,4776,completion,,,,,false,,,,217029,217028,212235,212245,212252,217050,8,400,,,
trial,html.Screen,4_22_0,2023-09-08T19:58:01.862Z,,0,1,,3806,response,ISIC_6661691.JPG,5,ISIC_6284312.JPG,ISIC_6661691.JPG,false,1,keypress(m),500,220856,220856,217015.225,217030,217050,220877,8,400,23,,ISIC_6284312.JPG
break,html.Screen,4_22_1,2023-09-08T19:58:01.865Z,,0,,,NaN,,,,,,false,,,,220859,220859,,220857,,220877,8,400,,,
break_continue,html.Screen,4_22_2,2023-09-08T19:58:01.866Z,,0,,,NaN,,,,,,false,,,,220860,220860,,220860,,220877,8,400,,,
sequence,flow.Sequence,4_22,2023-09-08T19:58:01.867Z,,0,,,3810,completion,,,,,false,,,,220861,220860,217015.225,217029,217050,220877,8,400,,,
trial,html.Screen,4_23_0,2023-09-08T19:58:07.262Z,,0,1,,5379,response,ISIC_0026780.JPG,4,ISIC_6310591.JPG,ISIC_0026780.JPG,false,1,keypress(m),500,226256,226256,220842.225,220861,220877,226292,8,400,24,,ISIC_6310591.JPG
break,html.Screen,4_23_1,2023-09-08T19:58:07.265Z,,0,,,NaN,,,,,,false,,,,226259,226259,,226257,,226292,8,400,,,
break_continue,html.Screen,4_23_2,2023-09-08T19:58:07.266Z,,0,,,NaN,,,,,,false,,,,226260,226260,,226260,,226292,8,400,,,
sequence,flow.Sequence,4_23,2023-09-08T19:58:07.267Z,,0,,,5383,completion,,,,,false,,,,226261,226260,220842.225,220861,220877,226292,8,400,,,
trial,html.Screen,4_24_0,2023-09-08T19:58:10.950Z,,0,1,,3652,response,ISIC_0708542.JPG,5,ISIC_1733794.JPG,ISIC_1733794.JPG,false,0,keypress(z),500,229944,229944,226258,226261,226292,229969,8,400,25,,ISIC_0708542.JPG
break,html.Screen,4_24_1,2023-09-08T19:58:10.953Z,,0,,,NaN,,,,,,false,,,,229947,229947,,229945,,229969,8,400,,,
break_continue,html.Screen,4_24_2,2023-09-08T19:58:10.954Z,,0,,,NaN,,,,,,false,,,,229948,229948,,229947,,229969,8,400,,,
sequence,flow.Sequence,4_24,2023-09-08T19:58:10.955Z,,0,,,3656,completion,,,,,false,,,,229949,229948,226258,226261,226292,229969,8,400,,,
trial,html.Screen,4_25_0,2023-09-08T19:58:14.738Z,,0,1,,3763,response,ISIC_1532403.JPG,4,ISIC_8298434.JPG,ISIC_1532403.JPG,false,1,keypress(m),500,233732,233732,229935.225,229949,229969,233763,8,400,26,,ISIC_8298434.JPG
break,html.Screen,4_25_1,2023-09-08T19:58:14.741Z,,0,,,NaN,,,,,,false,,,,233735,233734,,233733,,233763,8,400,,,
break_continue,html.Screen,4_25_2,2023-09-08T19:58:14.742Z,,0,,,NaN,,,,,,false,,,,233736,233736,,233735,,233763,8,400,,,
sequence,flow.Sequence,4_25,2023-09-08T19:58:14.743Z,,0,,,3767,completion,,,,,false,,,,233737,233736,229935.225,229949,229969,233763,8,400,,,
trial,html.Screen,4_26_0,2023-09-08T19:58:19.731Z,,0,1,,4961,response,ISIC_8613657.JPG,5,ISIC_4289906.JPG,ISIC_4289906.JPG,false,0,keypress(z),500,238725,238724,233729,233737,233763,238743,8,400,27,,ISIC_8613657.JPG
break,html.Screen,4_26_1,2023-09-08T19:58:19.734Z,,0,,,NaN,,,,,,false,,,,238728,238727,,238725,,238743,8,400,,,
break_continue,html.Screen,4_26_2,2023-09-08T19:58:19.735Z,,0,,,NaN,,,,,,false,,,,238729,238728,,238728,,238743,8,400,,,
sequence,flow.Sequence,4_26,2023-09-08T19:58:19.735Z,,0,,,4965,completion,,,,,false,,,,238729,238728,233729,233737,233763,238743,8,400,,,
trial,html.Screen,4_27_0,2023-09-08T19:58:24.496Z,,0,1,,4747,response,ISIC_1382271.JPG,5,ISIC_4288845.JPG,ISIC_1382271.JPG,false,1,keypress(m),500,243491,243490,238709.55,238730,238743,243508,8,400,28,,ISIC_4288845.JPG
break,html.Screen,4_27_1,2023-09-08T19:58:24.498Z,,0,,,NaN,,,,,,false,,,,243493,243493,,243491,,243508,8,400,,,
break_continue,html.Screen,4_27_2,2023-09-08T19:58:24.500Z,,0,,,NaN,,,,,,false,,,,243495,243494,,243494,,243508,8,400,,,
sequence,flow.Sequence,4_27,2023-09-08T19:58:24.500Z,,0,,,4751,completion,,,,,false,,,,243495,243494,238709.55,238729,238743,243508,8,400,,,
trial,html.Screen,4_28_0,2023-09-08T19:58:29.047Z,,0,1,,4534,response,ISIC_2466892.JPG,5,ISIC_0423483.JPG,ISIC_2466892.JPG,false,1,keypress(m),500,248042,248042,243491,243495,243508,248070,8,400,29,,ISIC_0423483.JPG
break,html.Screen,4_28_1,2023-09-08T19:58:29.050Z,,0,,,NaN,,,,,,false,,,,248045,248044,,248043,,248070,8,400,,,
break_continue,html.Screen,4_28_2,2023-09-08T19:58:29.051Z,,0,,,NaN,,,,,,false,,,,248046,248046,,248045,,248070,8,400,,,
sequence,flow.Sequence,4_28,2023-09-08T19:58:29.052Z,,0,,,4538,completion,,,,,false,,,,248047,248046,243491,243495,243508,248070,8,400,,,
trial,html.Screen,4_29_0,2023-09-08T19:58:33.526Z,,0,1,,4451,response,ISIC_0027221.JPG,4,ISIC_0071050.JPG,ISIC_0027221.JPG,false,1,keypress(m),500,252521,252521,248036.225,248047,248070,252550,8,400,30,,ISIC_0071050.JPG
break,html.Screen,4_29_1,2023-09-08T19:58:33.529Z,,0,,,NaN,,,,,,false,,,,252524,252524,,252522,,252550,8,400,,,
break_continue,html.Screen,4_29_2,2023-09-08T19:58:33.531Z,,0,,,NaN,,,,,,false,,,,252526,252525,,252525,,252550,8,400,,,
sequence,flow.Sequence,4_29,2023-09-08T19:58:33.531Z,,0,,,4455,completion,,,,,false,,,,252526,252525,248036.225,248047,248070,252550,8,400,,,
trial,html.Screen,4_30_0,2023-09-08T19:58:38.814Z,,0,1,,5259,response,ISIC_2506200.JPG,6,ISIC_9626843.JPG,ISIC_2506200.JPG,false,1,keypress(m),500,257809,257809,252516,252527,252550,257830,8,400,31,,ISIC_9626843.JPG
break,html.Screen,4_30_1,2023-09-08T19:58:38.817Z,,0,,,NaN,,,,,,false,,,,257812,257812,,257810,,257830,8,400,,,
break_continue,html.Screen,4_30_2,2023-09-08T19:58:38.818Z,,0,,,NaN,,,,,,false,,,,257813,257813,,257813,,257830,8,400,,,
sequence,flow.Sequence,4_30,2023-09-08T19:58:38.819Z,,0,,,5263,completion,,,,,false,,,,257814,257813,252516,252526,252550,257830,8,400,,,
trial,html.Screen,4_31_0,2023-09-08T19:58:44.037Z,,0,1,,5202,response,ISIC_0254447.JPG,4,ISIC_6767038.JPG,ISIC_6767038.JPG,false,0,keypress(z),500,263032,263032,257796.225,257814,257830,263063,8,400,32,,ISIC_0254447.JPG
break,html.Screen,4_31_1,2023-09-08T19:58:44.040Z,,0,,,NaN,,,,,,false,,,,263035,263035,,263033,,263063,8,400,,,
break_continue,html.Screen,4_31_2,2023-09-08T19:58:44.041Z,,0,,,NaN,,,,,,false,,,,263036,263036,,263035,,263063,8,400,,,
sequence,flow.Sequence,4_31,2023-09-08T19:58:44.042Z,,0,,,5206,completion,,,,,false,,,,263037,263036,257796.225,257814,257830,263063,8,400,,,
trial,html.Screen,4_32_0,2023-09-08T19:58:49.981Z,,0,1,,5912,response,ISIC_1732527.JPG,5,ISIC_9448281.JPG,ISIC_9448281.JPG,false,0,keypress(z),500,268976,268975,263028,263037,263063,269012,8,400,33,,ISIC_1732527.JPG
break,html.Screen,4_32_1,2023-09-08T19:58:49.983Z,,0,,,NaN,,,,,,false,,,,268978,268978,,268976,,269012,8,400,,,
break_continue,html.Screen,4_32_2,2023-09-08T19:58:49.985Z,,0,,,NaN,,,,,,false,,,,268980,268979,,268979,,269012,8,400,,,
sequence,flow.Sequence,4_32,2023-09-08T19:58:49.985Z,,0,,,5916,completion,,,,,false,,,,268980,268979,263028,263037,263063,269012,8,400,,,
trial,html.Screen,4_33_0,2023-09-08T19:58:54.789Z,,0,1,,4772,response,ISIC_0014543.JPG,6,ISIC_0034242.JPG,ISIC_0034242.JPG,false,0,keypress(z),500,273784,273784,268961.225,268980,269012,273809,8,400,34,,ISIC_0014543.JPG
break,html.Screen,4_33_1,2023-09-08T19:58:54.792Z,,0,,,NaN,,,,,,false,,,,273787,273786,,273785,,273809,8,400,,,
break_continue,html.Screen,4_33_2,2023-09-08T19:58:54.793Z,,0,,,NaN,,,,,,false,,,,273788,273788,,273787,,273809,8,400,,,
sequence,flow.Sequence,4_33,2023-09-08T19:58:54.794Z,,0,,,4776,completion,,,,,false,,,,273789,273788,268961.225,268980,269012,273809,8,400,,,
trial,html.Screen,4_34_0,2023-09-08T19:58:59.404Z,,0,1,,4590,response,ISIC_0010235.JPG,4,ISIC_0027604.JPG,ISIC_0010235.JPG,false,1,keypress(m),500,278399,278399,273775.225,273789,273809,278446,8,400,35,,ISIC_0027604.JPG
break,html.Screen,4_34_1,2023-09-08T19:58:59.407Z,,0,,,NaN,,,,,,false,,,,278402,278401,,278400,,278446,8,400,,,
break_continue,html.Screen,4_34_2,2023-09-08T19:58:59.408Z,,0,,,NaN,,,,,,false,,,,278403,278403,,278402,,278446,8,400,,,
sequence,flow.Sequence,4_34,2023-09-08T19:58:59.408Z,,0,,,4594,completion,,,,,false,,,,278403,278403,273775.225,273789,273809,278446,8,400,,,
trial,html.Screen,4_35_0,2023-09-08T19:59:05.269Z,,0,1,,5817,response,ISIC_0058432.JPG,4,ISIC_0706692.JPG,ISIC_0706692.JPG,false,0,keypress(z),500,284264,284263,278388.225,278404,278446,284322,8,400,36,,ISIC_0058432.JPG
break,html.Screen,4_35_1,2023-09-08T19:59:05.272Z,,0,,,NaN,,,,,,false,,,,284267,284266,,284264,,284322,8,400,,,
break_continue,html.Screen,4_35_2,2023-09-08T19:59:05.273Z,,0,,,NaN,,,,,,false,,,,284268,284267,,284267,,284322,8,400,,,
sequence,flow.Sequence,4_35,2023-09-08T19:59:05.273Z,,0,,,5821,completion,,,,,false,,,,284268,284267,278388.225,278404,278446,284322,8,400,,,
trial,html.Screen,4_36_0,2023-09-08T19:59:10.253Z,,0,1,,4926,response,ISIC_1037315.JPG,4,ISIC_0025595.JPG,ISIC_0025595.JPG,false,0,keypress(z),500,289248,289248,284255.225,284269,284322,289269,8,400,37,,ISIC_1037315.JPG
break,html.Screen,4_36_1,2023-09-08T19:59:10.256Z,,0,,,NaN,,,,,,false,,,,289251,289251,,289249,,289269,8,400,,,
break_continue,html.Screen,4_36_2,2023-09-08T19:59:10.258Z,,0,,,NaN,,,,,,false,,,,289253,289252,,289252,,289269,8,400,,,
sequence,flow.Sequence,4_36,2023-09-08T19:59:10.258Z,,0,,,4930,completion,,,,,false,,,,289253,289252,284255.225,284269,284322,289269,8,400,,,
trial,html.Screen,4_37_0,2023-09-08T19:59:14.582Z,,0,1,,4308,response,ISIC_0779920.JPG,4,ISIC_3416107.JPG,ISIC_0779920.JPG,false,1,keypress(m),500,293577,293577,289235.225,289254,289269,293615,8,400,38,,ISIC_3416107.JPG
break,html.Screen,4_37_1,2023-09-08T19:59:14.585Z,,0,,,NaN,,,,,,false,,,,293580,293580,,293578,,293615,8,400,,,
break_continue,html.Screen,4_37_2,2023-09-08T19:59:14.586Z,,0,,,NaN,,,,,,false,,,,293581,293581,,293580,,293615,8,400,,,
sequence,flow.Sequence,4_37,2023-09-08T19:59:14.587Z,,0,,,4312,completion,,,,,false,,,,293582,293581,289235.225,289254,289269,293615,8,400,,,
trial,html.Screen,4_38_0,2023-09-08T19:59:19.133Z,,0,1,,4513,response,ISIC_9348399.JPG,4,ISIC_4552230.JPG,ISIC_9348399.JPG,false,1,keypress(m),500,298128,298128,293564.55,293582,293615,298144,8,400,39,,ISIC_4552230.JPG
break,html.Screen,4_38_1,2023-09-08T19:59:19.136Z,,0,,,NaN,,,,,,false,,,,298131,298130,,298129,,298144,8,400,,,
break_continue,html.Screen,4_38_2,2023-09-08T19:59:19.137Z,,0,,,NaN,,,,,,false,,,,298132,298132,,298131,,298144,8,400,,,
sequence,flow.Sequence,4_38,2023-09-08T19:59:19.137Z,,0,,,4517,completion,,,,,false,,,,298132,298132,293564.55,293582,293615,298144,8,400,,,
trial,html.Screen,4_39_0,2023-09-08T19:59:24.311Z,,0,1,,5160,response,ISIC_3251486.JPG,4,ISIC_5537876.JPG,ISIC_3251486.JPG,false,1,keypress(m),500,303305,303304,298128,298133,298144,303342,8,400,40,,ISIC_5537876.JPG
break,html.Screen,4_39_1,2023-09-08T19:59:24.313Z,,0,,,NaN,,,,,,false,,,,303307,303307,,303305,,303342,8,400,,,
break_continue,html.Screen,4_39_2,2023-09-08T19:59:24.314Z,,0,,,NaN,,,,,,false,,,,303308,303308,,303308,,303342,8,400,,,
sequence,flow.Sequence,4_39,2023-09-08T19:59:24.315Z,,0,,,5164,completion,,,,,false,,,,303309,303308,298128,298133,298144,303342,8,400,,,
trial,html.Screen,4_40_0,2023-09-08T19:59:28.850Z,,0,1,,4502,response,ISIC_0009721.JPG,5,ISIC_8188797.JPG,ISIC_0009721.JPG,false,1,keypress(m),500,307844,307844,303291.55,303309,303342,307889,8,400,41,,ISIC_8188797.JPG
break,html.Screen,4_40_1,2023-09-08T19:59:28.853Z,,0,,,NaN,,,,,,false,,,,307847,307846,,307845,,307889,8,400,,,
break_continue,html.Screen,4_40_2,2023-09-08T19:59:28.854Z,,0,,,NaN,,,,,,false,,,,307848,307848,,307847,,307889,8,400,,,
sequence,flow.Sequence,4_40,2023-09-08T19:59:28.855Z,,0,,,4506,completion,,,,,false,,,,307849,307848,303291.55,303309,303342,307889,8,400,,,
trial,html.Screen,4_41_0,2023-09-08T19:59:32.896Z,,0,1,,4001,response,ISIC_3787339.JPG,2,ISIC_7956417.JPG,ISIC_7956417.JPG,false,0,keypress(z),500,311890,311890,307856,307849,307889,311916,8,400,42,,ISIC_3787339.JPG
break,html.Screen,4_41_1,2023-09-08T19:59:32.899Z,,0,,,NaN,,,,,,false,,,,311893,311893,,311891,,311916,8,400,,,
break_continue,html.Screen,4_41_2,2023-09-08T19:59:32.900Z,,0,,,NaN,,,,,,false,,,,311894,311894,,311894,,311916,8,400,,,
sequence,flow.Sequence,4_41,2023-09-08T19:59:32.901Z,,0,,,4005,completion,,,,,false,,,,311895,311894,307856,307849,307889,311916,8,400,,,
trial,html.Screen,4_42_0,2023-09-08T19:59:37.127Z,,0,1,,4205,response,ISIC_0046647.JPG,4,ISIC_2535382.JPG,ISIC_2535382.JPG,false,0,keypress(z),500,316121,316121,311882.225,311895,311916,316145,8,400,43,,ISIC_0046647.JPG
break,html.Screen,4_42_1,2023-09-08T19:59:37.130Z,,0,,,NaN,,,,,,false,,,,316124,316124,,316122,,316145,8,400,,,
break_continue,html.Screen,4_42_2,2023-09-08T19:59:37.131Z,,0,,,NaN,,,,,,false,,,,316125,316125,,316124,,316145,8,400,,,
sequence,flow.Sequence,4_42,2023-09-08T19:59:37.132Z,,0,,,4209,completion,,,,,false,,,,316126,316125,311882.225,311895,311916,316145,8,400,,,
trial,html.Screen,4_43_0,2023-09-08T19:59:41.103Z,,0,1,,3952,response,ISIC_2704046.JPG,4,ISIC_5504286.JPG,ISIC_2704046.JPG,false,1,keypress(m),500,320097,320097,316111.225,316126,316145,320124,8,400,44,,ISIC_5504286.JPG
break,html.Screen,4_43_1,2023-09-08T19:59:41.106Z,,0,,,NaN,,,,,,false,,,,320100,320099,,320097,,320124,8,400,,,
break_continue,html.Screen,4_43_2,2023-09-08T19:59:41.107Z,,0,,,NaN,,,,,,false,,,,320101,320101,,320100,,320124,8,400,,,
sequence,flow.Sequence,4_43,2023-09-08T19:59:41.107Z,,0,,,3956,completion,,,,,false,,,,320101,320101,316111.225,316126,316145,320124,8,400,,,
trial,html.Screen,4_44_0,2023-09-08T19:59:45.548Z,,0,1,,4417,response,ISIC_5335139.JPG,4,ISIC_7711947.JPG,ISIC_7711947.JPG,false,0,keypress(z),500,324542,324541,320089.225,320102,320124,324586,8,400,45,,ISIC_5335139.JPG
break,html.Screen,4_44_1,2023-09-08T19:59:45.551Z,,0,,,NaN,,,,,,false,,,,324545,324544,,324542,,324586,8,400,,,
break_continue,html.Screen,4_44_2,2023-09-08T19:59:45.552Z,,0,,,NaN,,,,,,false,,,,324546,324545,,324545,,324586,8,400,,,
sequence,flow.Sequence,4_44,2023-09-08T19:59:45.552Z,,0,,,4421,completion,,,,,false,,,,324546,324545,320089.225,320102,320124,324586,8,400,,,
trial,html.Screen,4_45_0,2023-09-08T19:59:49.987Z,,0,1,,4395,response,ISIC_0054123.JPG,6,ISIC_3573969.JPG,ISIC_3573969.JPG,false,0,keypress(z),500,328981,328981,324552,324547,324586,328998,8,400,46,,ISIC_0054123.JPG
break,html.Screen,4_45_1,2023-09-08T19:59:49.990Z,,0,,,NaN,,,,,,false,,,,328984,328984,,328982,,328998,8,400,,,
break_continue,html.Screen,4_45_2,2023-09-08T19:59:49.991Z,,0,,,NaN,,,,,,false,,,,328985,328985,,328984,,328998,8,400,,,
sequence,flow.Sequence,4_45,2023-09-08T19:59:49.992Z,,0,,,4399,completion,,,,,false,,,,328986,328985,324552,324546,324586,328998,8,400,,,
trial,html.Screen,4_46_0,2023-09-08T19:59:54.877Z,,0,1,,4873,response,ISIC_0033148.JPG,4,ISIC_0028320.JPG,ISIC_0028320.JPG,false,0,keypress(z),500,333871,333871,328981,328986,328998,333895,8,400,47,,ISIC_0033148.JPG
break,html.Screen,4_46_1,2023-09-08T19:59:54.880Z,,0,,,NaN,,,,,,false,,,,333874,333873,,333872,,333895,8,400,,,
break_continue,html.Screen,4_46_2,2023-09-08T19:59:54.881Z,,0,,,NaN,,,,,,false,,,,333875,333875,,333874,,333895,8,400,,,
sequence,flow.Sequence,4_46,2023-09-08T19:59:54.881Z,,0,,,4877,completion,,,,,false,,,,333875,333875,328981,328986,328998,333895,8,400,,,
trial,html.Screen,4_47_0,2023-09-08T20:00:01.932Z,,0,1,,7031,response,ISIC_0014867.JPG,4,ISIC_0069995.JPG,ISIC_0014867.JPG,false,1,keypress(m),500,340926,340926,333861.55,333876,333895,340966,8,400,48,,ISIC_0069995.JPG
break,html.Screen,4_47_1,2023-09-08T20:00:01.935Z,,0,,,NaN,,,,,,false,,,,340929,340928,,340927,,340966,8,400,,,
break_continue,html.Screen,4_47_2,2023-09-08T20:00:01.936Z,,0,,,NaN,,,,,,false,,,,340930,340930,,340929,,340966,8,400,,,
sequence,flow.Sequence,4_47,2023-09-08T20:00:01.937Z,,0,,,7035,completion,,,,,false,,,,340931,340930,333861.55,333876,333895,340966,8,400,,,
trial,html.Screen,4_48_0,2023-09-08T20:00:05.956Z,,0,1,,3983,response,ISIC_0026548.JPG,5,ISIC_0028579.JPG,ISIC_0026548.JPG,false,1,keypress(m),500,344950,344949,340914.225,340931,340966,344977,8,400,49,,ISIC_0028579.JPG
break,html.Screen,4_48_1,2023-09-08T20:00:05.959Z,,0,,,NaN,,,,,,false,,,,344953,344952,,344950,,344977,8,400,,,
break_continue,html.Screen,4_48_2,2023-09-08T20:00:05.960Z,,0,,,NaN,,,,,,false,,,,344954,344954,,344953,,344977,8,400,,,
sequence,flow.Sequence,4_48,2023-09-08T20:00:05.960Z,,0,,,3988,completion,,,,,false,,,,344954,344954,340914.225,340931,340966,344977,8,400,,,
trial,html.Screen,4_49_0,2023-09-08T20:00:11.968Z,,0,1,,5985,response,ISIC_5381712.JPG,4,ISIC_0016013.JPG,ISIC_0016013.JPG,false,0,keypress(z),500,350962,350962,344942.225,344955,344977,350994,8,400,50,,ISIC_5381712.JPG
break,html.Screen,4_49_1,2023-09-08T20:00:21.990Z,,0,,,10062,timeout,,,,,false,,,,360984,360972,350960,350963,350994,361056,8,400,,,
break_continue,html.Screen,4_49_2,2023-09-08T20:00:28.641Z,,0,,,6549,response,,,,,false,continue,keypress(Space),,367635,367605,360972,360985,361056,367641,8,400,,,
sequence,flow.Sequence,4_49,2023-09-08T20:00:28.642Z,,0,,,22628,completion,,,,,false,,,,367636,367605,344942.225,344955,344977,367641,8,400,,,
trial,html.Screen,4_50_0,2023-09-08T20:00:32.697Z,,0,2,,4049,response,ISIC_5382189.JPG,4,ISIC_0059432.JPG,ISIC_5382189.JPG,false,1,keypress(m),500,371691,371690,367625.6,367636,367641,371718,8,400,1,,ISIC_0059432.JPG
break,html.Screen,4_50_1,2023-09-08T20:00:32.699Z,,0,,,NaN,,,,,,false,,,,371693,371693,,371691,,371718,8,400,,,
break_continue,html.Screen,4_50_2,2023-09-08T20:00:32.701Z,,0,,,NaN,,,,,,false,,,,371695,371695,,371694,,371718,8,400,,,
sequence,flow.Sequence,4_50,2023-09-08T20:00:32.701Z,,0,,,4054,completion,,,,,false,,,,371695,371695,367625.6,367636,367641,371718,8,400,,,
trial,html.Screen,4_51_0,2023-09-08T20:00:38.000Z,,0,2,,5276,response,ISIC_8730617.JPG,4,ISIC_0030237.JPG,ISIC_8730617.JPG,false,1,keypress(m),500,376994,376994,371685,371696,371718,377017,8,400,2,,ISIC_0030237.JPG
break,html.Screen,4_51_1,2023-09-08T20:00:38.003Z,,0,,,NaN,,,,,,false,,,,376997,376996,,376995,,377017,8,400,,,
break_continue,html.Screen,4_51_2,2023-09-08T20:00:38.004Z,,0,,,NaN,,,,,,false,,,,376998,376998,,376997,,377017,8,400,,,
sequence,flow.Sequence,4_51,2023-09-08T20:00:38.005Z,,0,,,5280,completion,,,,,false,,,,376999,376998,371685,371696,371718,377017,8,400,,,
trial,html.Screen,4_52_0,2023-09-08T20:00:41.240Z,,0,2,,3217,response,ISIC_6128108.JPG,5,ISIC_0066355.JPG,ISIC_6128108.JPG,false,1,keypress(m),500,380234,380234,376982.225,376999,377017,380259,8,400,3,,ISIC_0066355.JPG
break,html.Screen,4_52_1,2023-09-08T20:00:41.246Z,,0,,,NaN,,,,,,false,,,,380240,380239,,380238,,380259,8,400,,,
break_continue,html.Screen,4_52_2,2023-09-08T20:00:41.247Z,,0,,,NaN,,,,,,false,,,,380241,380241,,380240,,380259,8,400,,,
sequence,flow.Sequence,4_52,2023-09-08T20:00:41.247Z,,0,,,3224,completion,,,,,false,,,,380241,380241,376982.225,376999,377017,380259,8,400,,,
trial,html.Screen,4_53_0,2023-09-08T20:00:45.065Z,,0,2,,3800,response,ISIC_0029150.JPG,38,ISIC_8909957.JPG,ISIC_0029150.JPG,false,1,keypress(m),500,384059,384059,380225.225,380242,380259,384087,8,400,4,,ISIC_8909957.JPG
break,html.Screen,4_53_1,2023-09-08T20:00:45.068Z,,0,,,NaN,,,,,,false,,,,384062,384061,,384060,,384087,8,400,,,
break_continue,html.Screen,4_53_2,2023-09-08T20:00:45.069Z,,0,,,NaN,,,,,,false,,,,384063,384063,,384062,,384087,8,400,,,
sequence,flow.Sequence,4_53,2023-09-08T20:00:45.069Z,,0,,,3804,completion,,,,,false,,,,384063,384063,380225.225,380242,380259,384087,8,400,,,
trial,html.Screen,4_54_0,2023-09-08T20:00:52.168Z,,0,2,,7074,response,ISIC_0056391.JPG,5,ISIC_0055179.JPG,ISIC_0056391.JPG,false,1,keypress(m),500,391162,391161,384072,384064,384087,391191,8,400,5,,ISIC_0055179.JPG
break,html.Screen,4_54_1,2023-09-08T20:00:52.170Z,,0,,,NaN,,,,,,false,,,,391164,391164,,391162,,391191,8,400,,,
break_continue,html.Screen,4_54_2,2023-09-08T20:00:52.172Z,,0,,,NaN,,,,,,false,,,,391166,391166,,391165,,391191,8,400,,,
sequence,flow.Sequence,4_54,2023-09-08T20:00:52.172Z,,0,,,7079,completion,,,,,false,,,,391166,391166,384072,384064,384087,391191,8,400,,,
trial,html.Screen,4_55_0,2023-09-08T20:00:56.159Z,,0,2,,3962,response,ISIC_9596388.JPG,5,ISIC_2371495.JPG,ISIC_9596388.JPG,false,1,keypress(m),500,395153,395153,391157,391167,391191,395185,8,400,6,,ISIC_2371495.JPG
break,html.Screen,4_55_1,2023-09-08T20:00:56.162Z,,0,,,NaN,,,,,,false,,,,395156,395156,,395154,,395185,8,400,,,
break_continue,html.Screen,4_55_2,2023-09-08T20:00:56.163Z,,0,,,NaN,,,,,,false,,,,395157,395157,,395156,,395185,8,400,,,
sequence,flow.Sequence,4_55,2023-09-08T20:00:56.164Z,,0,,,3966,completion,,,,,false,,,,395158,395157,391157,391167,391191,395185,8,400,,,
trial,html.Screen,4_56_0,2023-09-08T20:01:01.305Z,,0,2,,5114,response,ISIC_0011375.JPG,5,ISIC_0064342.JPG,ISIC_0064342.JPG,false,0,keypress(z),500,400299,400299,395151,395158,395185,400333,8,400,7,,ISIC_0011375.JPG
break,html.Screen,4_56_1,2023-09-08T20:01:01.308Z,,0,,,NaN,,,,,,false,,,,400302,400301,,400300,,400333,8,400,,,
break_continue,html.Screen,4_56_2,2023-09-08T20:01:01.309Z,,0,,,NaN,,,,,,false,,,,400303,400303,,400302,,400333,8,400,,,
sequence,flow.Sequence,4_56,2023-09-08T20:01:01.310Z,,0,,,5118,completion,,,,,false,,,,400304,400303,395151,395158,395185,400333,8,400,,,
trial,html.Screen,4_57_0,2023-09-08T20:01:12.838Z,,0,2,,11533,timeout,ISIC_4720306.JPG,5,ISIC_0060535.JPG,,false,,,500,411832,411832,400300,400304,400333,411866,8,400,8,,
break,html.Screen,4_57_1,2023-09-08T20:01:12.839Z,,0,,,NaN,,,,,,false,,,,411833,411833,,411832,,411866,8,400,,,
break_continue,html.Screen,4_57_2,2023-09-08T20:01:12.840Z,,0,,,NaN,,,,,,false,,,,411834,411833,,411833,,411866,8,400,,,
sequence,flow.Sequence,4_57,2023-09-08T20:01:12.840Z,,0,,,11500,completion,,,,,false,,,,411834,411833,400300,400304,400333,411866,8,400,,,
trial,html.Screen,4_58_0,2023-09-08T20:01:17.139Z,,0,2,,4267,response,ISIC_5132214.JPG,4,ISIC_0032372.JPG,ISIC_5132214.JPG,false,1,keypress(m),500,416133,416133,411848,411834,411866,416144,8,400,9,,ISIC_0032372.JPG
break,html.Screen,4_58_1,2023-09-08T20:01:17.140Z,,0,,,NaN,,,,,,false,,,,416134,416134,,416133,,416144,8,400,,,
break_continue,html.Screen,4_58_2,2023-09-08T20:01:17.141Z,,0,,,NaN,,,,,,false,,,,416135,416135,,416135,,416144,8,400,,,
sequence,flow.Sequence,4_58,2023-09-08T20:01:17.141Z,,0,,,4269,completion,,,,,false,,,,416135,416135,411848,411834,411866,416144,8,400,,,
trial,html.Screen,4_59_0,2023-09-08T20:01:20.503Z,,0,2,,3352,response,ISIC_3474681.JPG,4,ISIC_0000164.JPG,ISIC_3474681.JPG,false,1,keypress(m),500,419497,419496,416125.925,416135,416144,419520,8,400,10,,ISIC_0000164.JPG
break,html.Screen,4_59_1,2023-09-08T20:01:20.506Z,,0,,,NaN,,,,,,false,,,,419500,419499,,419497,,419520,8,400,,,
break_continue,html.Screen,4_59_2,2023-09-08T20:01:20.507Z,,0,,,NaN,,,,,,false,,,,419501,419500,,419500,,419520,8,400,,,
sequence,flow.Sequence,4_59,2023-09-08T20:01:20.507Z,,0,,,3356,completion,,,,,false,,,,419501,419500,416125.925,416135,416144,419520,8,400,,,
trial,html.Screen,4_60_0,2023-09-08T20:01:23.792Z,,0,2,,3266,response,ISIC_0013672.JPG,5,ISIC_0013492.JPG,ISIC_0013492.JPG,false,0,keypress(z),500,422786,422786,419486.225,419502,419520,422796,8,400,11,,ISIC_0013672.JPG
break,html.Screen,4_60_1,2023-09-08T20:01:23.795Z,,0,,,NaN,,,,,,false,,,,422789,422789,,422787,,422796,8,400,,,
break_continue,html.Screen,4_60_2,2023-09-08T20:01:23.796Z,,0,,,NaN,,,,,,false,,,,422790,422790,,422789,,422796,8,400,,,
sequence,flow.Sequence,4_60,2023-09-08T20:01:23.799Z,,0,,,3270,completion,,,,,false,,,,422793,422790,419486.225,419502,419520,422796,8,400,,,
trial,html.Screen,4_61_0,2023-09-08T20:01:27.114Z,,0,2,,3312,response,ISIC_0059943.JPG,4,ISIC_0207349.JPG,ISIC_0207349.JPG,false,0,keypress(z),500,426108,426108,422778.225,422793,422796,426122,8,400,12,,ISIC_0059943.JPG
break,html.Screen,4_61_1,2023-09-08T20:01:27.115Z,,0,,,NaN,,,,,,false,,,,426109,426108,,426108,,426122,8,400,,,
break_continue,html.Screen,4_61_2,2023-09-08T20:01:27.115Z,,0,,,NaN,,,,,,false,,,,426109,426109,,426109,,426122,8,400,,,
sequence,flow.Sequence,4_61,2023-09-08T20:01:27.115Z,,0,,,3313,completion,,,,,false,,,,426109,426109,422778.225,422793,422796,426122,8,400,,,
trial,html.Screen,4_62_0,2023-09-08T20:01:30.317Z,,0,2,,3190,response,ISIC_0058508.JPG,3,ISIC_4034644.JPG,ISIC_4034644.JPG,false,0,keypress(z),500,429312,429312,426106,426109,426122,429331,8,400,13,,ISIC_0058508.JPG
break,html.Screen,4_62_1,2023-09-08T20:01:30.320Z,,0,,,NaN,,,,,,false,,,,429315,429315,,429313,,429331,8,400,,,
break_continue,html.Screen,4_62_2,2023-09-08T20:01:30.321Z,,0,,,NaN,,,,,,false,,,,429316,429316,,429315,,429331,8,400,,,
sequence,flow.Sequence,4_62,2023-09-08T20:01:30.322Z,,0,,,3194,completion,,,,,false,,,,429317,429316,426106,426109,426122,429331,8,400,,,
trial,html.Screen,4_63_0,2023-09-08T20:01:34.323Z,,0,2,,3987,response,ISIC_0056860.JPG,4,ISIC_0011862.JPG,ISIC_0011862.JPG,false,0,keypress(z),500,433318,433318,429314,429318,429331,433326,8,400,14,,ISIC_0056860.JPG
break,html.Screen,4_63_1,2023-09-08T20:01:34.324Z,,0,,,NaN,,,,,,false,,,,433319,433319,,433318,,433326,8,400,,,
break_continue,html.Screen,4_63_2,2023-09-08T20:01:34.325Z,,0,,,NaN,,,,,,false,,,,433320,433320,,433319,,433326,8,400,,,
sequence,flow.Sequence,4_63,2023-09-08T20:01:34.325Z,,0,,,3989,completion,,,,,false,,,,433320,433320,429314,429318,429331,433326,8,400,,,
trial,html.Screen,4_64_0,2023-09-08T20:01:39.403Z,,0,2,,5072,response,ISIC_7012881.JPG,5,ISIC_8173531.JPG,ISIC_8173531.JPG,false,0,keypress(z),500,438398,438398,433308.25,433320,433326,438425,8,400,15,,ISIC_7012881.JPG
break,html.Screen,4_64_1,2023-09-08T20:01:39.406Z,,0,,,NaN,,,,,,false,,,,438401,438400,,438399,,438425,8,400,,,
break_continue,html.Screen,4_64_2,2023-09-08T20:01:39.407Z,,0,,,NaN,,,,,,false,,,,438402,438402,,438401,,438425,8,400,,,
sequence,flow.Sequence,4_64,2023-09-08T20:01:39.407Z,,0,,,5076,completion,,,,,false,,,,438402,438402,433308.25,433320,433326,438425,8,400,,,
trial,html.Screen,4_65_0,2023-09-08T20:01:42.962Z,,0,2,,3532,response,ISIC_0033885.JPG,5,ISIC_0031507.JPG,ISIC_0033885.JPG,false,1,keypress(m),500,441957,441957,438389.225,438403,438425,441984,8,400,16,,ISIC_0031507.JPG
break,html.Screen,4_65_1,2023-09-08T20:01:42.967Z,,0,,,NaN,,,,,,false,,,,441962,441962,,441960,,441984,8,400,,,
break_continue,html.Screen,4_65_2,2023-09-08T20:01:42.968Z,,0,,,NaN,,,,,,false,,,,441963,441963,,441963,,441984,8,400,,,
sequence,flow.Sequence,4_65,2023-09-08T20:01:42.969Z,,0,,,3538,completion,,,,,false,,,,441964,441963,438389.225,438403,438425,441984,8,400,,,
trial,html.Screen,4_66_0,2023-09-08T20:01:47.212Z,,0,2,,4223,response,ISIC_7268123.JPG,5,ISIC_1105263.JPG,ISIC_1105263.JPG,false,0,keypress(z),500,446207,446207,441949.225,441964,441984,446212,8,400,17,,ISIC_7268123.JPG
break,html.Screen,4_66_1,2023-09-08T20:01:47.213Z,,0,,,NaN,,,,,,false,,,,446208,446208,,446207,,446212,8,400,,,
break_continue,html.Screen,4_66_2,2023-09-08T20:01:47.213Z,,0,,,NaN,,,,,,false,,,,446208,446208,,446208,,446212,8,400,,,
sequence,flow.Sequence,4_66,2023-09-08T20:01:47.213Z,,0,,,4224,completion,,,,,false,,,,446208,446208,441949.225,441964,441984,446212,8,400,,,
trial,html.Screen,4_67_0,2023-09-08T20:01:50.675Z,,0,2,,3458,response,ISIC_2412888.JPG,4,ISIC_4377208.JPG,ISIC_2412888.JPG,false,1,keypress(m),500,449670,449670,446194.6,446208,446212,449705,8,400,18,,ISIC_4377208.JPG
break,html.Screen,4_67_1,2023-09-08T20:01:50.678Z,,0,,,NaN,,,,,,false,,,,449673,449673,,449671,,449705,8,400,,,
break_continue,html.Screen,4_67_2,2023-09-08T20:01:50.679Z,,0,,,NaN,,,,,,false,,,,449674,449674,,449673,,449705,8,400,,,
sequence,flow.Sequence,4_67,2023-09-08T20:01:50.680Z,,0,,,3462,completion,,,,,false,,,,449675,449674,446194.6,446208,446212,449705,8,400,,,
trial,html.Screen,4_68_0,2023-09-08T20:01:54.683Z,,0,2,,3973,response,ISIC_0070992.JPG,5,ISIC_0061265.JPG,ISIC_0061265.JPG,false,0,keypress(z),500,453678,453678,449672,449675,449705,453700,8,400,19,,ISIC_0070992.JPG
break,html.Screen,4_68_1,2023-09-08T20:01:54.686Z,,0,,,NaN,,,,,,false,,,,453681,453681,,453679,,453700,8,400,,,
break_continue,html.Screen,4_68_2,2023-09-08T20:01:54.687Z,,0,,,NaN,,,,,,false,,,,453682,453682,,453682,,453700,8,400,,,
sequence,flow.Sequence,4_68,2023-09-08T20:01:54.688Z,,0,,,3977,completion,,,,,false,,,,453683,453682,449672,449675,449705,453700,8,400,,,
trial,html.Screen,4_69_0,2023-09-08T20:01:58.635Z,,0,2,,3929,response,ISIC_1292607.JPG,6,ISIC_9130157.JPG,ISIC_9130157.JPG,false,0,keypress(z),500,457630,457629,453665.225,453683,453700,457661,8,400,20,,ISIC_1292607.JPG
break,html.Screen,4_69_1,2023-09-08T20:01:58.638Z,,0,,,NaN,,,,,,false,,,,457633,457632,,457630,,457661,8,400,,,
break_continue,html.Screen,4_69_2,2023-09-08T20:01:58.639Z,,0,,,NaN,,,,,,false,,,,457634,457633,,457633,,457661,8,400,,,
sequence,flow.Sequence,4_69,2023-09-08T20:01:58.639Z,,0,,,3933,completion,,,,,false,,,,457634,457633,453665.225,453683,453700,457661,8,400,,,
trial,html.Screen,4_70_0,2023-09-08T20:02:02.850Z,,0,2,,4184,response,ISIC_0064932.JPG,4,ISIC_0072182.JPG,ISIC_0064932.JPG,false,1,keypress(m),500,461845,461845,457627,457635,457661,461873,8,400,21,,ISIC_0072182.JPG
break,html.Screen,4_70_1,2023-09-08T20:02:02.853Z,,0,,,NaN,,,,,,false,,,,461848,461848,,461846,,461873,8,400,,,
break_continue,html.Screen,4_70_2,2023-09-08T20:02:02.854Z,,0,,,NaN,,,,,,false,,,,461849,461849,,461848,,461873,8,400,,,
sequence,flow.Sequence,4_70,2023-09-08T20:02:02.855Z,,0,,,4188,completion,,,,,false,,,,461850,461849,457627,457635,457661,461873,8,400,,,
trial,html.Screen,4_71_0,2023-09-08T20:02:06.732Z,,0,2,,3854,response,ISIC_0011210.JPG,48,ISIC_0011972.JPG,ISIC_0011972.JPG,false,0,keypress(z),500,465727,465727,461839.225,461850,461873,465750,8,400,22,,ISIC_0011210.JPG
break,html.Screen,4_71_1,2023-09-08T20:02:06.735Z,,0,,,NaN,,,,,,false,,,,465730,465730,,465728,,465750,8,400,,,
break_continue,html.Screen,4_71_2,2023-09-08T20:02:06.737Z,,0,,,NaN,,,,,,false,,,,465732,465731,,465731,,465750,8,400,,,
sequence,flow.Sequence,4_71,2023-09-08T20:02:06.737Z,,0,,,3858,completion,,,,,false,,,,465732,465731,461839.225,461850,461873,465750,8,400,,,
trial,html.Screen,4_72_0,2023-09-08T20:02:08.759Z,,0,2,,2004,response,ISIC_9961652.JPG,5,ISIC_2391053.JPG,ISIC_2391053.JPG,false,0,keypress(z),500,467754,467754,465716.225,465732,465750,467790,8,400,23,,ISIC_9961652.JPG
break,html.Screen,4_72_1,2023-09-08T20:02:08.763Z,,0,,,NaN,,,,,,false,,,,467758,467757,,467756,,467790,8,400,,,
break_continue,html.Screen,4_72_2,2023-09-08T20:02:08.764Z,,0,,,NaN,,,,,,false,,,,467759,467759,,467758,,467790,8,400,,,
sequence,flow.Sequence,4_72,2023-09-08T20:02:08.765Z,,0,,,2009,completion,,,,,false,,,,467760,467759,465716.225,465732,465750,467790,8,400,,,
trial,html.Screen,4_73_0,2023-09-08T20:02:12.868Z,,0,2,,4073,response,ISIC_9690371.JPG,4,ISIC_0070285.JPG,ISIC_9690371.JPG,false,1,keypress(m),500,471863,471863,467756,467760,467790,471985,8,400,24,,ISIC_0070285.JPG
break,html.Screen,4_73_1,2023-09-08T20:02:12.870Z,,0,,,NaN,,,,,,false,,,,471865,471865,,471864,,471985,8,400,,,
break_continue,html.Screen,4_73_2,2023-09-08T20:02:12.871Z,,0,,,NaN,,,,,,false,,,,471866,471866,,471866,,471985,8,400,,,
sequence,flow.Sequence,4_73,2023-09-08T20:02:12.872Z,,0,,,4076,completion,,,,,false,,,,471867,471866,467756,467760,467790,471985,8,400,,,
trial,html.Screen,4_74_0,2023-09-08T20:02:16.606Z,,0,2,,3616,response,ISIC_0011333.JPG,5,ISIC_0553565.JPG,ISIC_0553565.JPG,false,0,keypress(z),500,475601,475601,471851,471867,471985,475629,8,400,25,,ISIC_0011333.JPG
break,html.Screen,4_74_1,2023-09-08T20:02:16.609Z,,0,,,NaN,,,,,,false,,,,475604,475603,,475602,,475629,8,400,,,
break_continue,html.Screen,4_74_2,2023-09-08T20:02:16.610Z,,0,,,NaN,,,,,,false,,,,475605,475604,,475604,,475629,8,400,,,
sequence,flow.Sequence,4_74,2023-09-08T20:02:16.610Z,,0,,,3619,completion,,,,,false,,,,475605,475604,471851,471867,471985,475629,8,400,,,
trial,html.Screen,4_75_0,2023-09-08T20:02:19.190Z,,0,2,,2556,response,ISIC_0063950.JPG,5,ISIC_3673080.JPG,ISIC_0063950.JPG,false,1,keypress(m),500,478185,478185,475595,475606,475629,478202,8,400,26,,ISIC_3673080.JPG
break,html.Screen,4_75_1,2023-09-08T20:02:19.193Z,,0,,,NaN,,,,,,false,,,,478188,478187,,478186,,478202,8,400,,,
break_continue,html.Screen,4_75_2,2023-09-08T20:02:19.194Z,,0,,,NaN,,,,,,false,,,,478189,478189,,478188,,478202,8,400,,,
sequence,flow.Sequence,4_75,2023-09-08T20:02:19.195Z,,0,,,2560,completion,,,,,false,,,,478190,478189,475595,475605,475629,478202,8,400,,,
trial,html.Screen,4_76_0,2023-09-08T20:02:22.813Z,,0,2,,3606,response,ISIC_0002258.JPG,4,ISIC_0066678.JPG,ISIC_0002258.JPG,false,1,keypress(m),500,481808,481808,478186,478190,478202,481829,8,400,27,,ISIC_0066678.JPG
break,html.Screen,4_76_1,2023-09-08T20:02:22.816Z,,0,,,NaN,,,,,,false,,,,481811,481810,,481809,,481829,8,400,,,
break_continue,html.Screen,4_76_2,2023-09-08T20:02:22.817Z,,0,,,NaN,,,,,,false,,,,481812,481812,,481811,,481829,8,400,,,
sequence,flow.Sequence,4_76,2023-09-08T20:02:22.817Z,,0,,,3610,completion,,,,,false,,,,481812,481812,478186,478190,478202,481829,8,400,,,
trial,html.Screen,4_77_0,2023-09-08T20:02:26.629Z,,0,2,,3795,response,ISIC_0057716.JPG,5,ISIC_0010863.JPG,ISIC_0057716.JPG,false,1,keypress(m),500,485624,485624,481795.225,481813,481829,485639,8,400,28,,ISIC_0010863.JPG
break,html.Screen,4_77_1,2023-09-08T20:02:26.632Z,,0,,,NaN,,,,,,false,,,,485627,485626,,485625,,485639,8,400,,,
break_continue,html.Screen,4_77_2,2023-09-08T20:02:26.633Z,,0,,,NaN,,,,,,false,,,,485628,485627,,485627,,485639,8,400,,,
sequence,flow.Sequence,4_77,2023-09-08T20:02:26.633Z,,0,,,3798,completion,,,,,false,,,,485628,485627,481795.225,481813,481829,485639,8,400,,,
trial,html.Screen,4_78_0,2023-09-08T20:02:30.782Z,,0,2,,4137,response,ISIC_0011369.JPG,4,ISIC_0025464.JPG,ISIC_0011369.JPG,false,1,keypress(m),500,489776,489776,485623,485630,485639,489785,8,400,29,,ISIC_0025464.JPG
break,html.Screen,4_78_1,2023-09-08T20:02:30.785Z,,0,,,NaN,,,,,,false,,,,489779,489778,,489777,,489785,8,400,,,
break_continue,html.Screen,4_78_2,2023-09-08T20:02:30.786Z,,0,,,NaN,,,,,,false,,,,489780,489780,,489779,,489785,8,400,,,
sequence,flow.Sequence,4_78,2023-09-08T20:02:30.787Z,,0,,,4141,completion,,,,,false,,,,489781,489780,485623,485630,485639,489785,8,400,,,
trial,html.Screen,4_79_0,2023-09-08T20:02:34.741Z,,0,2,,3950,response,ISIC_7203184.JPG,5,ISIC_0029893.JPG,ISIC_7203184.JPG,false,1,keypress(m),500,493735,493735,489767.225,489781,489785,493746,8,400,30,,ISIC_0029893.JPG
break,html.Screen,4_79_1,2023-09-08T20:02:34.744Z,,0,,,NaN,,,,,,false,,,,493738,493737,,493736,,493746,8,400,,,
break_continue,html.Screen,4_79_2,2023-09-08T20:02:34.745Z,,0,,,NaN,,,,,,false,,,,493739,493739,,493738,,493746,8,400,,,
sequence,flow.Sequence,4_79,2023-09-08T20:02:34.746Z,,0,,,3954,completion,,,,,false,,,,493740,493739,489767.225,489781,489785,493746,8,400,,,
trial,html.Screen,4_80_0,2023-09-08T20:02:38.252Z,,0,2,,3500,response,ISIC_0027590.JPG,4,ISIC_0033640.JPG,ISIC_0033640.JPG,false,0,keypress(z),500,497246,497246,493728.225,493740,493746,497273,8,400,31,,ISIC_0027590.JPG
break,html.Screen,4_80_1,2023-09-08T20:02:38.255Z,,0,,,NaN,,,,,,false,,,,497249,497248,,497247,,497273,8,400,,,
break_continue,html.Screen,4_80_2,2023-09-08T20:02:38.256Z,,0,,,NaN,,,,,,false,,,,497250,497250,,497249,,497273,8,400,,,
sequence,flow.Sequence,4_80,2023-09-08T20:02:38.257Z,,0,,,3504,completion,,,,,false,,,,497251,497250,493728.225,493740,493746,497273,8,400,,,
trial,html.Screen,4_81_0,2023-09-08T20:02:41.380Z,,0,2,,3101,response,ISIC_2490481.JPG,5,ISIC_9864402.JPG,ISIC_2490481.JPG,false,1,keypress(m),500,500374,500374,497238.225,497251,497273,500398,8,400,32,,ISIC_9864402.JPG
break,html.Screen,4_81_1,2023-09-08T20:02:41.383Z,,0,,,NaN,,,,,,false,,,,500377,500376,,500375,,500398,8,400,,,
break_continue,html.Screen,4_81_2,2023-09-08T20:02:41.384Z,,0,,,NaN,,,,,,false,,,,500378,500378,,500377,,500398,8,400,,,
sequence,flow.Sequence,4_81,2023-09-08T20:02:41.385Z,,0,,,3105,completion,,,,,false,,,,500379,500378,497238.225,497251,497273,500398,8,400,,,
trial,html.Screen,4_82_0,2023-09-08T20:02:45.100Z,,0,2,,3696,response,ISIC_0032360.JPG,32,ISIC_2067576.JPG,ISIC_0032360.JPG,false,1,keypress(m),500,504094,504094,500363.225,500379,500398,504126,8,400,33,,ISIC_2067576.JPG
break,html.Screen,4_82_1,2023-09-08T20:02:45.103Z,,0,,,NaN,,,,,,false,,,,504097,504096,,504095,,504126,8,400,,,
break_continue,html.Screen,4_82_2,2023-09-08T20:02:45.104Z,,0,,,NaN,,,,,,false,,,,504098,504098,,504097,,504126,8,400,,,
sequence,flow.Sequence,4_82,2023-09-08T20:02:45.105Z,,0,,,3700,completion,,,,,false,,,,504099,504098,500363.225,500379,500398,504126,8,400,,,
trial,html.Screen,4_83_0,2023-09-08T20:02:48.100Z,,0,2,,2968,response,ISIC_2131962.JPG,4,ISIC_2321671.JPG,ISIC_2131962.JPG,false,1,keypress(m),500,507094,507094,504092,504099,504126,507117,8,400,34,,ISIC_2321671.JPG
break,html.Screen,4_83_1,2023-09-08T20:02:48.103Z,,0,,,NaN,,,,,,false,,,,507097,507097,,507095,,507117,8,400,,,
break_continue,html.Screen,4_83_2,2023-09-08T20:02:48.104Z,,0,,,NaN,,,,,,false,,,,507098,507098,,507097,,507117,8,400,,,
sequence,flow.Sequence,4_83,2023-09-08T20:02:48.105Z,,0,,,2972,completion,,,,,false,,,,507099,507098,504092,504099,504126,507117,8,400,,,
trial,html.Screen,4_84_0,2023-09-08T20:02:51.387Z,,0,2,,3264,response,ISIC_0024688.JPG,4,ISIC_0028883.JPG,ISIC_0028883.JPG,false,0,keypress(z),500,510381,510381,507082.9,507099,507117,510409,8,400,35,,ISIC_0024688.JPG
break,html.Screen,4_84_1,2023-09-08T20:02:51.390Z,,0,,,NaN,,,,,,false,,,,510384,510383,,510382,,510409,8,400,,,
break_continue,html.Screen,4_84_2,2023-09-08T20:02:51.391Z,,0,,,NaN,,,,,,false,,,,510385,510385,,510384,,510409,8,400,,,
sequence,flow.Sequence,4_84,2023-09-08T20:02:51.392Z,,0,,,3268,completion,,,,,false,,,,510386,510385,507082.9,507099,507117,510409,8,400,,,
trial,html.Screen,4_85_0,2023-09-08T20:02:55.203Z,,0,2,,3788,response,ISIC_0071196.JPG,4,ISIC_0024865.JPG,ISIC_0024865.JPG,false,0,keypress(z),500,514197,514197,510376,510386,510409,514237,8,400,36,,ISIC_0071196.JPG
break,html.Screen,4_85_1,2023-09-08T20:02:55.207Z,,0,,,NaN,,,,,,false,,,,514201,514200,,514198,,514237,8,400,,,
break_continue,html.Screen,4_85_2,2023-09-08T20:02:55.208Z,,0,,,NaN,,,,,,false,,,,514202,514202,,514201,,514237,8,400,,,
sequence,flow.Sequence,4_85,2023-09-08T20:02:55.208Z,,0,,,3793,completion,,,,,false,,,,514202,514202,510376,510386,510409,514237,8,400,,,
trial,html.Screen,4_86_0,2023-09-08T20:02:59.026Z,,0,2,,3783,response,ISIC_0028618.JPG,4,ISIC_1910158.JPG,ISIC_1910158.JPG,false,0,keypress(z),500,518020,518020,514187.7,514203,514237,518048,8,400,37,,ISIC_0028618.JPG
break,html.Screen,4_86_1,2023-09-08T20:02:59.029Z,,0,,,NaN,,,,,,false,,,,518023,518023,,518021,,518048,8,400,,,
break_continue,html.Screen,4_86_2,2023-09-08T20:02:59.030Z,,0,,,NaN,,,,,,false,,,,518024,518024,,518024,,518048,8,400,,,
sequence,flow.Sequence,4_86,2023-09-08T20:02:59.031Z,,0,,,3787,completion,,,,,false,,,,518025,518024,514187.7,514203,514237,518048,8,400,,,
trial,html.Screen,4_87_0,2023-09-08T20:03:02.993Z,,0,2,,3939,response,ISIC_8127578.JPG,5,ISIC_0056167.JPG,ISIC_0056167.JPG,false,0,keypress(z),500,521987,521987,518014.225,518025,518048,522042,8,400,38,,ISIC_8127578.JPG
break,html.Screen,4_87_1,2023-09-08T20:03:02.996Z,,0,,,NaN,,,,,,false,,,,521990,521990,,521988,,522042,8,400,,,
break_continue,html.Screen,4_87_2,2023-09-08T20:03:02.998Z,,0,,,NaN,,,,,,false,,,,521992,521991,,521991,,522042,8,400,,,
sequence,flow.Sequence,4_87,2023-09-08T20:03:02.998Z,,0,,,3943,completion,,,,,false,,,,521992,521991,518014.225,518025,518048,522042,8,400,,,
trial,html.Screen,4_88_0,2023-09-08T20:03:05.257Z,,0,2,,2209,response,ISIC_3585381.JPG,67,ISIC_0002549.JPG,ISIC_0002549.JPG,false,0,keypress(z),500,524251,524251,521974.225,521993,522042,524282,8,400,39,,ISIC_3585381.JPG
break,html.Screen,4_88_1,2023-09-08T20:03:05.260Z,,0,,,NaN,,,,,,false,,,,524254,524253,,524252,,524282,8,400,,,
break_continue,html.Screen,4_88_2,2023-09-08T20:03:05.261Z,,0,,,NaN,,,,,,false,,,,524255,524255,,524254,,524282,8,400,,,
sequence,flow.Sequence,4_88,2023-09-08T20:03:05.262Z,,0,,,2213,completion,,,,,false,,,,524256,524255,521974.225,521992,522042,524282,8,400,,,
trial,html.Screen,4_89_0,2023-09-08T20:03:09.092Z,,0,2,,3803,response,ISIC_0062234.JPG,5,ISIC_1117369.JPG,ISIC_1117369.JPG,false,0,keypress(z),500,528086,528085,524249,524256,524282,528110,8,400,40,,ISIC_0062234.JPG
break,html.Screen,4_89_1,2023-09-08T20:03:09.094Z,,0,,,NaN,,,,,,false,,,,528088,528088,,528086,,528110,8,400,,,
break_continue,html.Screen,4_89_2,2023-09-08T20:03:09.095Z,,0,,,NaN,,,,,,false,,,,528089,528089,,528089,,528110,8,400,,,
sequence,flow.Sequence,4_89,2023-09-08T20:03:09.096Z,,0,,,3807,completion,,,,,false,,,,528090,528089,524249,524256,524282,528110,8,400,,,
trial,html.Screen,4_90_0,2023-09-08T20:03:13.659Z,,0,2,,4543,response,ISIC_8647900.JPG,5,ISIC_0650126.JPG,ISIC_8647900.JPG,false,1,keypress(m),500,532653,532653,528076.35,528090,528110,532672,8,400,41,,ISIC_0650126.JPG
break,html.Screen,4_90_1,2023-09-08T20:03:13.662Z,,0,,,NaN,,,,,,false,,,,532656,532656,,532654,,532672,8,400,,,
break_continue,html.Screen,4_90_2,2023-09-08T20:03:13.663Z,,0,,,NaN,,,,,,false,,,,532657,532657,,532656,,532672,8,400,,,
sequence,flow.Sequence,4_90,2023-09-08T20:03:13.664Z,,0,,,4547,completion,,,,,false,,,,532658,532657,528076.35,528090,528110,532672,8,400,,,
trial,html.Screen,4_91_0,2023-09-08T20:03:17.543Z,,0,2,,3865,response,ISIC_2902328.JPG,5,ISIC_0014088.JPG,ISIC_0014088.JPG,false,0,keypress(z),500,536537,536537,532655,532658,532672,536551,8,400,42,,ISIC_2902328.JPG
break,html.Screen,4_91_1,2023-09-08T20:03:17.548Z,,0,,,NaN,,,,,,false,,,,536542,536541,,536538,,536551,8,400,,,
break_continue,html.Screen,4_91_2,2023-09-08T20:03:17.549Z,,0,,,NaN,,,,,,false,,,,536543,536543,,536542,,536551,8,400,,,
sequence,flow.Sequence,4_91,2023-09-08T20:03:17.550Z,,0,,,3871,completion,,,,,false,,,,536544,536543,532655,532658,532672,536551,8,400,,,
trial,html.Screen,4_92_0,2023-09-08T20:03:21.723Z,,0,2,,4165,response,ISIC_0032377.JPG,4,ISIC_0015443.JPG,ISIC_0015443.JPG,false,0,keypress(z),500,540717,540716,536534,536544,536551,540729,8,400,43,,ISIC_0032377.JPG
break,html.Screen,4_92_1,2023-09-08T20:03:21.724Z,,0,,,NaN,,,,,,false,,,,540718,540718,,540717,,540729,8,400,,,
break_continue,html.Screen,4_92_2,2023-09-08T20:03:21.725Z,,0,,,NaN,,,,,,false,,,,540719,540719,,540718,,540729,8,400,,,
sequence,flow.Sequence,4_92,2023-09-08T20:03:21.726Z,,0,,,4168,completion,,,,,false,,,,540720,540719,536534,536544,536551,540729,8,400,,,
trial,html.Screen,4_93_0,2023-09-08T20:03:25.583Z,,0,2,,3848,response,ISIC_0056902.JPG,4,ISIC_6937905.JPG,ISIC_0056902.JPG,false,1,keypress(m),500,544577,544577,540712,540720,540729,544590,8,400,44,,ISIC_6937905.JPG
break,html.Screen,4_93_1,2023-09-08T20:03:25.587Z,,0,,,NaN,,,,,,false,,,,544581,544580,,544578,,544590,8,400,,,
break_continue,html.Screen,4_93_2,2023-09-08T20:03:25.588Z,,0,,,NaN,,,,,,false,,,,544582,544581,,544581,,544590,8,400,,,
sequence,flow.Sequence,4_93,2023-09-08T20:03:25.588Z,,0,,,3852,completion,,,,,false,,,,544582,544581,540712,540720,540729,544590,8,400,,,
trial,html.Screen,4_94_0,2023-09-08T20:03:29.436Z,,0,2,,3841,response,ISIC_6382207.JPG,5,ISIC_8352392.JPG,ISIC_6382207.JPG,false,1,keypress(m),500,548431,548431,544573,544583,544590,548450,8,400,45,,ISIC_8352392.JPG
break,html.Screen,4_94_1,2023-09-08T20:03:29.439Z,,0,,,NaN,,,,,,false,,,,548434,548433,,548432,,548450,8,400,,,
break_continue,html.Screen,4_94_2,2023-09-08T20:03:29.440Z,,0,,,NaN,,,,,,false,,,,548435,548435,,548434,,548450,8,400,,,
sequence,flow.Sequence,4_94,2023-09-08T20:03:29.440Z,,0,,,3845,completion,,,,,false,,,,548435,548435,544573,544583,544590,548450,8,400,,,
trial,html.Screen,4_95_0,2023-09-08T20:03:33.179Z,,0,2,,3724,response,ISIC_6398669.JPG,4,ISIC_0028557.JPG,ISIC_0028557.JPG,false,0,keypress(z),500,552174,552174,548433,548436,548450,552211,8,400,46,,ISIC_6398669.JPG
break,html.Screen,4_95_1,2023-09-08T20:03:33.182Z,,0,,,NaN,,,,,,false,,,,552177,552176,,552175,,552211,8,400,,,
break_continue,html.Screen,4_95_2,2023-09-08T20:03:33.183Z,,0,,,NaN,,,,,,false,,,,552178,552178,,552177,,552211,8,400,,,
sequence,flow.Sequence,4_95,2023-09-08T20:03:33.184Z,,0,,,3728,completion,,,,,false,,,,552179,552178,548433,548436,548450,552211,8,400,,,
trial,html.Screen,4_96_0,2023-09-08T20:03:36.594Z,,0,2,,3378,response,ISIC_0011726.JPG,4,ISIC_1226440.JPG,ISIC_0011726.JPG,false,1,keypress(m),500,555589,555589,552178,552179,552211,555604,8,400,47,,ISIC_1226440.JPG
break,html.Screen,4_96_1,2023-09-08T20:03:36.597Z,,0,,,NaN,,,,,,false,,,,555592,555592,,555590,,555604,8,400,,,
break_continue,html.Screen,4_96_2,2023-09-08T20:03:36.598Z,,0,,,NaN,,,,,,false,,,,555593,555593,,555592,,555604,8,400,,,
sequence,flow.Sequence,4_96,2023-09-08T20:03:36.599Z,,0,,,3382,completion,,,,,false,,,,555594,555593,552178,552179,552211,555604,8,400,,,
trial,html.Screen,4_97_0,2023-09-08T20:03:40.445Z,,0,2,,3836,response,ISIC_3816833.JPG,4,ISIC_0268701.JPG,ISIC_3816833.JPG,false,1,keypress(m),500,559440,559440,555587,555594,555604,559465,8,400,48,,ISIC_0268701.JPG
break,html.Screen,4_97_1,2023-09-08T20:03:40.449Z,,0,,,NaN,,,,,,false,,,,559444,559443,,559441,,559465,8,400,,,
break_continue,html.Screen,4_97_2,2023-09-08T20:03:40.450Z,,0,,,NaN,,,,,,false,,,,559445,559444,,559444,,559465,8,400,,,
sequence,flow.Sequence,4_97,2023-09-08T20:03:40.450Z,,0,,,3840,completion,,,,,false,,,,559445,559444,555587,555594,555604,559465,8,400,,,
trial,html.Screen,4_98_0,2023-09-08T20:03:43.717Z,,0,2,,3247,response,ISIC_1373468.JPG,5,ISIC_1375476.JPG,ISIC_1375476.JPG,false,0,keypress(z),500,562712,562712,559430.225,559446,559465,562741,8,400,49,,ISIC_1373468.JPG
break,html.Screen,4_98_1,2023-09-08T20:03:43.720Z,,0,,,NaN,,,,,,false,,,,562715,562714,,562713,,562741,8,400,,,
break_continue,html.Screen,4_98_2,2023-09-08T20:03:43.721Z,,0,,,NaN,,,,,,false,,,,562716,562716,,562716,,562741,8,400,,,
sequence,flow.Sequence,4_98,2023-09-08T20:03:43.722Z,,0,,,3251,completion,,,,,false,,,,562717,562716,559430.225,559445,559465,562741,8,400,,,
trial,html.Screen,4_99_0,2023-09-08T20:03:47.580Z,,0,2,,3834,response,ISIC_1023339.JPG,5,ISIC_0010415.JPG,ISIC_1023339.JPG,false,1,keypress(m),500,566575,566575,562705.9,562717,562741,566618,8,400,50,,ISIC_0010415.JPG
break,html.Screen,4_99_1,2023-09-08T20:03:57.613Z,,0,,,10013,timeout,,,,,false,,,,576608,576597,566566.225,566576,566618,576631,8,400,,,
break_continue,html.Screen,4_99_2,2023-09-08T20:04:05.159Z,,0,,,7482,response,,,,,false,continue,keypress(Space),,584154,584113,576597,576608,576631,584167,8,400,,,
sequence,flow.Sequence,4_99,2023-09-08T20:04:05.159Z,,0,,,21372,completion,,,,,false,,,,584154,584113,562705.9,562717,562741,584167,8,400,,,
trial,html.Screen,4_100_0,2023-09-08T20:04:09.161Z,,0,3,,3989,response,ISIC_0609067.JPG,5,ISIC_4184101.JPG,ISIC_0609067.JPG,false,1,keypress(m),500,588156,588156,584151,584155,584167,588179,8,400,1,,ISIC_4184101.JPG
break,html.Screen,4_100_1,2023-09-08T20:04:09.164Z,,0,,,NaN,,,,,,false,,,,588159,588158,,588157,,588179,8,400,,,
break_continue,html.Screen,4_100_2,2023-09-08T20:04:09.165Z,,0,,,NaN,,,,,,false,,,,588160,588160,,588159,,588179,8,400,,,
sequence,flow.Sequence,4_100,2023-09-08T20:04:09.166Z,,0,,,3993,completion,,,,,false,,,,588161,588160,584151,584155,584167,588179,8,400,,,
trial,html.Screen,4_101_0,2023-09-08T20:04:12.728Z,,0,3,,3544,response,ISIC_5190920.JPG,5,ISIC_4226975.JPG,ISIC_4226975.JPG,false,0,keypress(z),500,591723,591723,588145.225,588161,588179,591756,8,400,2,,ISIC_5190920.JPG
break,html.Screen,4_101_1,2023-09-08T20:04:12.731Z,,0,,,NaN,,,,,,false,,,,591726,591726,,591724,,591756,8,400,,,
break_continue,html.Screen,4_101_2,2023-09-08T20:04:12.732Z,,0,,,NaN,,,,,,false,,,,591727,591727,,591726,,591756,8,400,,,
sequence,flow.Sequence,4_101,2023-09-08T20:04:12.733Z,,0,,,3548,completion,,,,,false,,,,591728,591727,588145.225,588161,588179,591756,8,400,,,
trial,html.Screen,4_102_0,2023-09-08T20:04:16.752Z,,0,3,,3990,response,ISIC_2851852.JPG,4,ISIC_7604596.JPG,ISIC_2851852.JPG,false,1,keypress(m),500,595747,595746,591722,591728,591756,595767,8,400,3,,ISIC_7604596.JPG
break,html.Screen,4_102_1,2023-09-08T20:04:16.755Z,,0,,,NaN,,,,,,false,,,,595750,595749,,595747,,595767,8,400,,,
break_continue,html.Screen,4_102_2,2023-09-08T20:04:16.756Z,,0,,,NaN,,,,,,false,,,,595751,595751,,595750,,595767,8,400,,,
sequence,flow.Sequence,4_102,2023-09-08T20:04:16.757Z,,0,,,3995,completion,,,,,false,,,,595752,595751,591722,591728,591756,595767,8,400,,,
trial,html.Screen,4_103_0,2023-09-08T20:04:21.096Z,,0,3,,4324,response,ISIC_8344345.JPG,4,ISIC_0030047.JPG,ISIC_0030047.JPG,false,0,keypress(z),500,600091,600091,595733.225,595752,595767,600130,8,400,4,,ISIC_8344345.JPG
break,html.Screen,4_103_1,2023-09-08T20:04:21.099Z,,0,,,NaN,,,,,,false,,,,600094,600093,,600092,,600130,8,400,,,
break_continue,html.Screen,4_103_2,2023-09-08T20:04:21.100Z,,0,,,NaN,,,,,,false,,,,600095,600095,,600094,,600130,8,400,,,
sequence,flow.Sequence,4_103,2023-09-08T20:04:21.101Z,,0,,,4328,completion,,,,,false,,,,600096,600095,595733.225,595752,595767,600130,8,400,,,
trial,html.Screen,4_104_0,2023-09-08T20:04:24.454Z,,0,3,,3318,response,ISIC_7400458.JPG,5,ISIC_0054885.JPG,ISIC_7400458.JPG,false,1,keypress(m),500,603449,603448,600078.225,600096,600130,603472,8,400,5,,ISIC_0054885.JPG
break,html.Screen,4_104_1,2023-09-08T20:04:24.456Z,,0,,,NaN,,,,,,false,,,,603451,603451,,603449,,603472,8,400,,,
break_continue,html.Screen,4_104_2,2023-09-08T20:04:24.457Z,,0,,,NaN,,,,,,false,,,,603452,603452,,603452,,603472,8,400,,,
sequence,flow.Sequence,4_104,2023-09-08T20:04:24.458Z,,0,,,3322,completion,,,,,false,,,,603453,603452,600078.225,600096,600130,603472,8,400,,,
trial,html.Screen,4_105_0,2023-09-08T20:04:28.492Z,,0,3,,4015,response,ISIC_3786075.JPG,4,ISIC_6450034.JPG,ISIC_6450034.JPG,false,0,keypress(z),500,607487,607487,603438.225,603453,603472,607501,8,400,6,,ISIC_3786075.JPG
break,html.Screen,4_105_1,2023-09-08T20:04:28.495Z,,0,,,NaN,,,,,,false,,,,607490,607489,,607488,,607501,8,400,,,
break_continue,html.Screen,4_105_2,2023-09-08T20:04:28.496Z,,0,,,NaN,,,,,,false,,,,607491,607491,,607490,,607501,8,400,,,
sequence,flow.Sequence,4_105,2023-09-08T20:04:28.497Z,,0,,,4019,completion,,,,,false,,,,607492,607491,603438.225,603453,603472,607501,8,400,,,
trial,html.Screen,4_106_0,2023-09-08T20:04:32.292Z,,0,3,,3786,response,ISIC_6093728.JPG,4,ISIC_0033429.JPG,ISIC_6093728.JPG,false,1,keypress(m),500,611287,611287,607484,607492,607501,611311,8,400,7,,ISIC_0033429.JPG
break,html.Screen,4_106_1,2023-09-08T20:04:32.295Z,,0,,,NaN,,,,,,false,,,,611290,611289,,611288,,611311,8,400,,,
break_continue,html.Screen,4_106_2,2023-09-08T20:04:32.296Z,,0,,,NaN,,,,,,false,,,,611291,611291,,611290,,611311,8,400,,,
sequence,flow.Sequence,4_106,2023-09-08T20:04:32.297Z,,0,,,3790,completion,,,,,false,,,,611292,611291,607484,607492,607501,611311,8,400,,,
trial,html.Screen,4_107_0,2023-09-08T20:04:36.603Z,,0,3,,4287,response,ISIC_0046623.JPG,5,ISIC_5067317.JPG,ISIC_5067317.JPG,false,0,keypress(z),500,615598,615598,611277.225,611292,611311,615640,8,400,8,,ISIC_0046623.JPG
break,html.Screen,4_107_1,2023-09-08T20:04:36.606Z,,0,,,NaN,,,,,,false,,,,615601,615601,,615599,,615640,8,400,,,
break_continue,html.Screen,4_107_2,2023-09-08T20:04:36.627Z,,0,,,NaN,,,,,,false,,,,615622,615621,,615601,,615640,8,400,,,
sequence,flow.Sequence,4_107,2023-09-08T20:04:36.628Z,,0,,,4310,completion,,,,,false,,,,615623,615621,611277.225,611292,611311,615640,8,400,,,
trial,html.Screen,4_108_0,2023-09-08T20:04:40.300Z,,0,3,,3655,response,ISIC_2560463.JPG,6,ISIC_5611010.JPG,ISIC_5611010.JPG,false,0,keypress(z),500,619295,619295,615589.225,615623,615640,619300,8,400,9,,ISIC_2560463.JPG
break,html.Screen,4_108_1,2023-09-08T20:04:40.302Z,,0,,,NaN,,,,,,false,,,,619297,619296,,619295,,619300,8,400,,,
break_continue,html.Screen,4_108_2,2023-09-08T20:04:40.302Z,,0,,,NaN,,,,,,false,,,,619297,619297,,619297,,619300,8,400,,,
sequence,flow.Sequence,4_108,2023-09-08T20:04:40.302Z,,0,,,3657,completion,,,,,false,,,,619297,619297,615589.225,615623,615640,619300,8,400,,,
trial,html.Screen,4_109_0,2023-09-08T20:04:43.840Z,,0,3,,3535,response,ISIC_3060145.JPG,5,ISIC_0025006.JPG,ISIC_0025006.JPG,false,0,keypress(z),500,622835,622835,619282.225,619298,619300,622860,8,400,10,,ISIC_3060145.JPG
break,html.Screen,4_109_1,2023-09-08T20:04:43.843Z,,0,,,NaN,,,,,,false,,,,622838,622837,,622836,,622860,8,400,,,
break_continue,html.Screen,4_109_2,2023-09-08T20:04:43.844Z,,0,,,NaN,,,,,,false,,,,622839,622839,,622838,,622860,8,400,,,
sequence,flow.Sequence,4_109,2023-09-08T20:04:43.844Z,,0,,,3539,completion,,,,,false,,,,622839,622839,619282.225,619298,619300,622860,8,400,,,
trial,html.Screen,4_110_0,2023-09-08T20:04:47.652Z,,0,3,,3787,response,ISIC_5354827.JPG,5,ISIC_0058432.JPG,ISIC_5354827.JPG,false,1,keypress(m),500,626647,626647,622825.55,622840,622860,626654,8,400,11,,ISIC_0058432.JPG
break,html.Screen,4_110_1,2023-09-08T20:04:47.653Z,,0,,,NaN,,,,,,false,,,,626648,626648,,626647,,626654,8,400,,,
break_continue,html.Screen,4_110_2,2023-09-08T20:04:47.654Z,,0,,,NaN,,,,,,false,,,,626649,626649,,626649,,626654,8,400,,,
sequence,flow.Sequence,4_110,2023-09-08T20:04:47.654Z,,0,,,3789,completion,,,,,false,,,,626649,626649,622825.55,622840,622860,626654,8,400,,,
trial,html.Screen,4_111_0,2023-09-08T20:04:51.320Z,,0,3,,3661,response,ISIC_2585066.JPG,4,ISIC_0030732.JPG,ISIC_2585066.JPG,false,1,keypress(m),500,630315,630315,626636.25,626649,626654,630331,8,400,12,,ISIC_0030732.JPG
break,html.Screen,4_111_1,2023-09-08T20:04:51.323Z,,0,,,NaN,,,,,,false,,,,630318,630318,,630316,,630331,8,400,,,
break_continue,html.Screen,4_111_2,2023-09-08T20:04:51.324Z,,0,,,NaN,,,,,,false,,,,630319,630319,,630318,,630331,8,400,,,
sequence,flow.Sequence,4_111,2023-09-08T20:04:51.325Z,,0,,,3665,completion,,,,,false,,,,630320,630319,626636.25,626649,626654,630331,8,400,,,
trial,html.Screen,4_112_0,2023-09-08T20:04:55.877Z,,0,3,,4541,response,ISIC_0059264.JPG,4,ISIC_1285870.JPG,ISIC_0059264.JPG,false,1,keypress(m),500,634872,634872,630314,630320,630331,634894,8,400,13,,ISIC_1285870.JPG
break,html.Screen,4_112_1,2023-09-08T20:04:55.880Z,,0,,,NaN,,,,,,false,,,,634875,634874,,634873,,634894,8,400,,,
break_continue,html.Screen,4_112_2,2023-09-08T20:04:55.881Z,,0,,,NaN,,,,,,false,,,,634876,634876,,634875,,634894,8,400,,,
sequence,flow.Sequence,4_112,2023-09-08T20:04:55.882Z,,0,,,4545,completion,,,,,false,,,,634877,634876,630314,630320,630331,634894,8,400,,,
trial,html.Screen,4_113_0,2023-09-08T20:05:00.020Z,,0,3,,4121,response,ISIC_3568801.JPG,4,ISIC_0054705.JPG,ISIC_0054705.JPG,false,0,keypress(z),500,639015,639015,634860.225,634877,634894,639040,8,400,14,,ISIC_3568801.JPG
break,html.Screen,4_113_1,2023-09-08T20:05:00.023Z,,0,,,NaN,,,,,,false,,,,639018,639017,,639016,,639040,8,400,,,
break_continue,html.Screen,4_113_2,2023-09-08T20:05:00.024Z,,0,,,NaN,,,,,,false,,,,639019,639019,,639018,,639040,8,400,,,
sequence,flow.Sequence,4_113,2023-09-08T20:05:00.024Z,,0,,,4125,completion,,,,,false,,,,639019,639019,634860.225,634877,634894,639040,8,400,,,
trial,html.Screen,4_114_0,2023-09-08T20:05:04.400Z,,0,3,,4355,response,ISIC_0059093.JPG,5,ISIC_0026278.JPG,ISIC_0026278.JPG,false,0,keypress(z),500,643395,643395,639023,639020,639040,643418,8,400,15,,ISIC_0059093.JPG
break,html.Screen,4_114_1,2023-09-08T20:05:04.403Z,,0,,,NaN,,,,,,false,,,,643398,643397,,643396,,643418,8,400,,,
break_continue,html.Screen,4_114_2,2023-09-08T20:05:04.404Z,,0,,,NaN,,,,,,false,,,,643399,643399,,643398,,643418,8,400,,,
sequence,flow.Sequence,4_114,2023-09-08T20:05:04.404Z,,0,,,4359,completion,,,,,false,,,,643399,643399,639023,639020,639040,643418,8,400,,,
trial,html.Screen,4_115_0,2023-09-08T20:05:08.376Z,,0,3,,3952,response,ISIC_0063081.JPG,6,ISIC_0013867.JPG,ISIC_0013867.JPG,false,0,keypress(z),500,647371,647370,643383.225,643400,643418,647396,8,400,16,,ISIC_0063081.JPG
break,html.Screen,4_115_1,2023-09-08T20:05:08.378Z,,0,,,NaN,,,,,,false,,,,647373,647373,,647371,,647396,8,400,,,
break_continue,html.Screen,4_115_2,2023-09-08T20:05:08.379Z,,0,,,NaN,,,,,,false,,,,647374,647374,,647373,,647396,8,400,,,
sequence,flow.Sequence,4_115,2023-09-08T20:05:08.380Z,,0,,,3956,completion,,,,,false,,,,647375,647374,643383.225,643400,643418,647396,8,400,,,
trial,html.Screen,4_116_0,2023-09-08T20:05:12.369Z,,0,3,,3968,response,ISIC_4924690.JPG,5,ISIC_7507286.JPG,ISIC_4924690.JPG,false,1,keypress(m),500,651364,651364,647361.225,647375,647396,651391,8,400,17,,ISIC_7507286.JPG
break,html.Screen,4_116_1,2023-09-08T20:05:12.372Z,,0,,,NaN,,,,,,false,,,,651367,651367,,651365,,651391,8,400,,,
break_continue,html.Screen,4_116_2,2023-09-08T20:05:12.373Z,,0,,,NaN,,,,,,false,,,,651368,651368,,651367,,651391,8,400,,,
sequence,flow.Sequence,4_116,2023-09-08T20:05:12.374Z,,0,,,3972,completion,,,,,false,,,,651369,651368,647361.225,647375,647396,651391,8,400,,,
trial,html.Screen,4_117_0,2023-09-08T20:05:16.059Z,,0,3,,3663,response,ISIC_7798403.JPG,4,ISIC_2171940.JPG,ISIC_7798403.JPG,false,1,keypress(m),500,655054,655054,651356.225,651369,651391,655084,8,400,18,,ISIC_2171940.JPG
break,html.Screen,4_117_1,2023-09-08T20:05:16.062Z,,0,,,NaN,,,,,,false,,,,655057,655056,,655055,,655084,8,400,,,
break_continue,html.Screen,4_117_2,2023-09-08T20:05:16.063Z,,0,,,NaN,,,,,,false,,,,655058,655058,,655057,,655084,8,400,,,
sequence,flow.Sequence,4_117,2023-09-08T20:05:16.064Z,,0,,,3667,completion,,,,,false,,,,655059,655058,651356.225,651369,651391,655084,8,400,,,
trial,html.Screen,4_118_0,2023-09-08T20:05:20.259Z,,0,3,,4169,response,ISIC_0028156.JPG,2,ISIC_0081584.JPG,ISIC_0028156.JPG,false,1,keypress(m),500,659254,659253,655051,655059,655084,659280,8,400,19,,ISIC_0081584.JPG
break,html.Screen,4_118_1,2023-09-08T20:05:20.261Z,,0,,,NaN,,,,,,false,,,,659256,659256,,659254,,659280,8,400,,,
break_continue,html.Screen,4_118_2,2023-09-08T20:05:20.262Z,,0,,,NaN,,,,,,false,,,,659257,659257,,659256,,659280,8,400,,,
sequence,flow.Sequence,4_118,2023-09-08T20:05:20.263Z,,0,,,4173,completion,,,,,false,,,,659258,659257,655051,655059,655084,659280,8,400,,,
trial,html.Screen,4_119_0,2023-09-08T20:05:24.186Z,,0,3,,3901,response,ISIC_0011045.JPG,5,ISIC_0026300.JPG,ISIC_0026300.JPG,false,0,keypress(z),500,663181,663181,659245.225,659258,659280,663207,8,400,20,,ISIC_0011045.JPG
break,html.Screen,4_119_1,2023-09-08T20:05:24.189Z,,0,,,NaN,,,,,,false,,,,663184,663183,,663182,,663207,8,400,,,
break_continue,html.Screen,4_119_2,2023-09-08T20:05:24.190Z,,0,,,NaN,,,,,,false,,,,663185,663185,,663184,,663207,8,400,,,
sequence,flow.Sequence,4_119,2023-09-08T20:05:24.190Z,,0,,,3905,completion,,,,,false,,,,663185,663185,659245.225,659258,659280,663207,8,400,,,
trial,html.Screen,4_120_0,2023-09-08T20:05:28.001Z,,0,3,,3789,response,ISIC_9588065.JPG,5,ISIC_1175170.JPG,ISIC_9588065.JPG,false,1,keypress(m),500,666996,666996,663173.225,663186,663207,667018,8,400,21,,ISIC_1175170.JPG
break,html.Screen,4_120_1,2023-09-08T20:05:28.006Z,,0,,,NaN,,,,,,false,,,,667001,667001,,666999,,667018,8,400,,,
break_continue,html.Screen,4_120_2,2023-09-08T20:05:28.007Z,,0,,,NaN,,,,,,false,,,,667002,667002,,667002,,667018,8,400,,,
sequence,flow.Sequence,4_120,2023-09-08T20:05:28.008Z,,0,,,3795,completion,,,,,false,,,,667003,667002,663173.225,663186,663207,667018,8,400,,,
trial,html.Screen,4_121_0,2023-09-08T20:05:31.280Z,,0,3,,3256,response,ISIC_3157046.JPG,4,ISIC_7984569.JPG,ISIC_3157046.JPG,false,1,keypress(m),500,670274,670274,666984.225,667003,667018,670294,8,400,22,,ISIC_7984569.JPG
break,html.Screen,4_121_1,2023-09-08T20:05:31.282Z,,0,,,NaN,,,,,,false,,,,670277,670276,,670275,,670294,8,400,,,
break_continue,html.Screen,4_121_2,2023-09-08T20:05:31.283Z,,0,,,NaN,,,,,,false,,,,670278,670278,,670277,,670294,8,400,,,
sequence,flow.Sequence,4_121,2023-09-08T20:05:31.284Z,,0,,,3260,completion,,,,,false,,,,670279,670278,666984.225,667003,667018,670294,8,400,,,
trial,html.Screen,4_122_0,2023-09-08T20:05:35.159Z,,0,3,,3860,response,ISIC_6945921.JPG,4,ISIC_0028705.JPG,ISIC_0028705.JPG,false,0,keypress(z),500,674154,674154,670260.225,670279,670294,674171,8,400,23,,ISIC_6945921.JPG
break,html.Screen,4_122_1,2023-09-08T20:05:35.162Z,,0,,,NaN,,,,,,false,,,,674157,674157,,674155,,674171,8,400,,,
break_continue,html.Screen,4_122_2,2023-09-08T20:05:35.163Z,,0,,,NaN,,,,,,false,,,,674158,674158,,674157,,674171,8,400,,,
sequence,flow.Sequence,4_122,2023-09-08T20:05:35.164Z,,0,,,3864,completion,,,,,false,,,,674159,674158,670260.225,670279,670294,674171,8,400,,,
trial,html.Screen,4_123_0,2023-09-08T20:05:38.526Z,,0,3,,3350,response,ISIC_0033377.JPG,4,ISIC_6298726.JPG,ISIC_6298726.JPG,false,0,keypress(z),500,677521,677521,674155,674159,674171,677547,8,400,24,,ISIC_0033377.JPG
break,html.Screen,4_123_1,2023-09-08T20:05:38.529Z,,0,,,NaN,,,,,,false,,,,677524,677523,,677522,,677547,8,400,,,
break_continue,html.Screen,4_123_2,2023-09-08T20:05:38.530Z,,0,,,NaN,,,,,,false,,,,677525,677525,,677524,,677547,8,400,,,
sequence,flow.Sequence,4_123,2023-09-08T20:05:38.530Z,,0,,,3354,completion,,,,,false,,,,677525,677525,674155,674159,674171,677547,8,400,,,
trial,html.Screen,4_124_0,2023-09-08T20:05:42.469Z,,0,3,,3917,response,ISIC_6973257.JPG,4,ISIC_5848892.JPG,ISIC_6973257.JPG,false,1,keypress(m),500,681464,681464,677513.225,677526,677547,681493,8,400,25,,ISIC_5848892.JPG
break,html.Screen,4_124_1,2023-09-08T20:05:42.472Z,,0,,,NaN,,,,,,false,,,,681467,681467,,681465,,681493,8,400,,,
break_continue,html.Screen,4_124_2,2023-09-08T20:05:42.473Z,,0,,,NaN,,,,,,false,,,,681468,681468,,681468,,681493,8,400,,,
sequence,flow.Sequence,4_124,2023-09-08T20:05:42.474Z,,0,,,3921,completion,,,,,false,,,,681469,681468,677513.225,677526,677547,681493,8,400,,,
trial,html.Screen,4_125_0,2023-09-08T20:05:47.533Z,,0,3,,5034,response,ISIC_4240225.JPG,4,ISIC_0663824.JPG,ISIC_0663824.JPG,false,0,keypress(z),500,686528,686527,681457.9,681469,681493,686556,8,400,26,,ISIC_4240225.JPG
break,html.Screen,4_125_1,2023-09-08T20:05:47.536Z,,0,,,NaN,,,,,,false,,,,686531,686530,,686528,,686556,8,400,,,
break_continue,html.Screen,4_125_2,2023-09-08T20:05:47.537Z,,0,,,NaN,,,,,,false,,,,686532,686531,,686531,,686556,8,400,,,
sequence,flow.Sequence,4_125,2023-09-08T20:05:47.537Z,,0,,,5038,completion,,,,,false,,,,686532,686531,681457.9,681469,681493,686556,8,400,,,
trial,html.Screen,4_126_0,2023-09-08T20:05:50.921Z,,0,3,,3360,response,ISIC_5358568.JPG,5,ISIC_8375123.JPG,ISIC_8375123.JPG,false,0,keypress(z),500,689916,689916,686523,686533,686556,689950,8,400,27,,ISIC_5358568.JPG
break,html.Screen,4_126_1,2023-09-08T20:05:50.924Z,,0,,,NaN,,,,,,false,,,,689919,689919,,689917,,689950,8,400,,,
break_continue,html.Screen,4_126_2,2023-09-08T20:05:50.926Z,,0,,,NaN,,,,,,false,,,,689921,689920,,689920,,689950,8,400,,,
sequence,flow.Sequence,4_126,2023-09-08T20:05:50.926Z,,0,,,3364,completion,,,,,false,,,,689921,689920,686523,686532,686556,689950,8,400,,,
trial,html.Screen,4_127_0,2023-09-08T20:05:55.394Z,,0,3,,4438,response,ISIC_3060248.JPG,4,ISIC_0013499.JPG,ISIC_3060248.JPG,false,1,keypress(m),500,694389,694388,689916,689922,689950,694412,8,400,28,,ISIC_0013499.JPG
break,html.Screen,4_127_1,2023-09-08T20:05:55.396Z,,0,,,NaN,,,,,,false,,,,694391,694391,,694389,,694412,8,400,,,
break_continue,html.Screen,4_127_2,2023-09-08T20:05:55.398Z,,0,,,NaN,,,,,,false,,,,694393,694392,,694392,,694412,8,400,,,
sequence,flow.Sequence,4_127,2023-09-08T20:05:55.398Z,,0,,,4442,completion,,,,,false,,,,694393,694392,689916,689922,689950,694412,8,400,,,
trial,html.Screen,4_128_0,2023-09-08T20:05:59.784Z,,0,3,,4367,response,ISIC_0072353.JPG,4,ISIC_5922588.JPG,ISIC_5922588.JPG,false,0,keypress(z),500,698779,698779,694378.225,694393,694412,698791,8,400,29,,ISIC_0072353.JPG
break,html.Screen,4_128_1,2023-09-08T20:05:59.787Z,,0,,,NaN,,,,,,false,,,,698782,698782,,698780,,698791,8,400,,,
break_continue,html.Screen,4_128_2,2023-09-08T20:05:59.789Z,,0,,,NaN,,,,,,false,,,,698784,698783,,698783,,698791,8,400,,,
sequence,flow.Sequence,4_128,2023-09-08T20:05:59.789Z,,0,,,4371,completion,,,,,false,,,,698784,698783,694378.225,694393,694412,698791,8,400,,,
trial,html.Screen,4_129_0,2023-09-08T20:06:04.096Z,,0,3,,4299,response,ISIC_6340564.JPG,4,ISIC_0033775.JPG,ISIC_6340564.JPG,false,1,keypress(m),500,703091,703090,698774,698784,698791,703104,8,400,30,,ISIC_0033775.JPG
break,html.Screen,4_129_1,2023-09-08T20:06:04.098Z,,0,,,NaN,,,,,,false,,,,703093,703093,,703091,,703104,8,400,,,
break_continue,html.Screen,4_129_2,2023-09-08T20:06:04.099Z,,0,,,NaN,,,,,,false,,,,703094,703094,,703093,,703104,8,400,,,
sequence,flow.Sequence,4_129,2023-09-08T20:06:04.100Z,,0,,,4303,completion,,,,,false,,,,703095,703094,698774,698784,698791,703104,8,400,,,
trial,html.Screen,4_130_0,2023-09-08T20:06:08.376Z,,0,3,,4267,response,ISIC_8956001.JPG,5,ISIC_0059368.JPG,ISIC_0059368.JPG,false,0,keypress(z),500,707371,707371,703086,703095,703104,707399,8,400,31,,ISIC_8956001.JPG
break,html.Screen,4_130_1,2023-09-08T20:06:08.379Z,,0,,,NaN,,,,,,false,,,,707374,707373,,707372,,707399,8,400,,,
break_continue,html.Screen,4_130_2,2023-09-08T20:06:08.380Z,,0,,,NaN,,,,,,false,,,,707375,707375,,707374,,707399,8,400,,,
sequence,flow.Sequence,4_130,2023-09-08T20:06:08.381Z,,0,,,4271,completion,,,,,false,,,,707376,707375,703086,703095,703104,707399,8,400,,,
trial,html.Screen,4_131_0,2023-09-08T20:06:11.799Z,,0,3,,3395,response,ISIC_0188432.JPG,4,ISIC_0011380.JPG,ISIC_0011380.JPG,false,0,keypress(z),500,710794,710794,707363.225,707376,707399,710808,8,400,32,,ISIC_0188432.JPG
break,html.Screen,4_131_1,2023-09-08T20:06:11.800Z,,0,,,NaN,,,,,,false,,,,710795,710795,,710794,,710808,8,400,,,
break_continue,html.Screen,4_131_2,2023-09-08T20:06:11.800Z,,0,,,NaN,,,,,,false,,,,710795,710795,,710795,,710808,8,400,,,
sequence,flow.Sequence,4_131,2023-09-08T20:06:11.801Z,,0,,,3396,completion,,,,,false,,,,710796,710795,707363.225,707376,707399,710808,8,400,,,
trial,html.Screen,4_132_0,2023-09-08T20:06:15.433Z,,0,3,,3620,response,ISIC_9475559.JPG,4,ISIC_0015412.JPG,ISIC_9475559.JPG,false,1,keypress(m),500,714428,714428,710792,710796,710808,714451,8,400,33,,ISIC_0015412.JPG
break,html.Screen,4_132_1,2023-09-08T20:06:15.436Z,,0,,,NaN,,,,,,false,,,,714431,714430,,714429,,714451,8,400,,,
break_continue,html.Screen,4_132_2,2023-09-08T20:06:15.437Z,,0,,,NaN,,,,,,false,,,,714432,714432,,714431,,714451,8,400,,,
sequence,flow.Sequence,4_132,2023-09-08T20:06:15.437Z,,0,,,3624,completion,,,,,false,,,,714432,714432,710792,710796,710808,714451,8,400,,,
trial,html.Screen,4_133_0,2023-09-08T20:06:19.461Z,,0,3,,4005,response,ISIC_0066355.JPG,6,ISIC_7100813.JPG,ISIC_7100813.JPG,false,0,keypress(z),500,718456,718456,714418.225,714433,714451,718480,8,400,34,,ISIC_0066355.JPG
break,html.Screen,4_133_1,2023-09-08T20:06:19.464Z,,0,,,NaN,,,,,,false,,,,718459,718458,,718457,,718480,8,400,,,
break_continue,html.Screen,4_133_2,2023-09-08T20:06:19.465Z,,0,,,NaN,,,,,,false,,,,718460,718460,,718459,,718480,8,400,,,
sequence,flow.Sequence,4_133,2023-09-08T20:06:19.466Z,,0,,,4009,completion,,,,,false,,,,718461,718460,714418.225,714433,714451,718480,8,400,,,
trial,html.Screen,4_134_0,2023-09-08T20:06:23.276Z,,0,3,,3791,response,ISIC_6985859.JPG,4,ISIC_9076021.JPG,ISIC_9076021.JPG,false,0,keypress(z),500,722271,722271,718445.225,718461,718480,722290,8,400,35,,ISIC_6985859.JPG
break,html.Screen,4_134_1,2023-09-08T20:06:23.279Z,,0,,,NaN,,,,,,false,,,,722274,722273,,722272,,722290,8,400,,,
break_continue,html.Screen,4_134_2,2023-09-08T20:06:23.280Z,,0,,,NaN,,,,,,false,,,,722275,722275,,722274,,722290,8,400,,,
sequence,flow.Sequence,4_134,2023-09-08T20:06:23.280Z,,0,,,3795,completion,,,,,false,,,,722275,722275,718445.225,718461,718480,722290,8,400,,,
trial,html.Screen,4_135_0,2023-09-08T20:06:27.608Z,,0,3,,4313,response,ISIC_8674332.JPG,5,ISIC_0011694.JPG,ISIC_8674332.JPG,false,1,keypress(m),500,726603,726603,722274,722276,722290,726636,8,400,36,,ISIC_0011694.JPG
break,html.Screen,4_135_1,2023-09-08T20:06:27.611Z,,0,,,NaN,,,,,,false,,,,726606,726606,,726604,,726636,8,400,,,
break_continue,html.Screen,4_135_2,2023-09-08T20:06:27.612Z,,0,,,NaN,,,,,,false,,,,726607,726607,,726606,,726636,8,400,,,
sequence,flow.Sequence,4_135,2023-09-08T20:06:27.613Z,,0,,,4317,completion,,,,,false,,,,726608,726607,722274,722276,722290,726636,8,400,,,
trial,html.Screen,4_136_0,2023-09-08T20:06:31.538Z,,0,3,,3895,response,ISIC_0025138.JPG,5,ISIC_2151846.JPG,ISIC_2151846.JPG,false,0,keypress(z),500,730532,730531,726603,726608,726636,730564,8,400,37,,ISIC_0025138.JPG
break,html.Screen,4_136_1,2023-09-08T20:06:31.541Z,,0,,,NaN,,,,,,false,,,,730535,730534,,730532,,730564,8,400,,,
break_continue,html.Screen,4_136_2,2023-09-08T20:06:31.542Z,,0,,,NaN,,,,,,false,,,,730536,730535,,730535,,730564,8,400,,,
sequence,flow.Sequence,4_136,2023-09-08T20:06:31.542Z,,0,,,3899,completion,,,,,false,,,,730536,730535,726603,726608,726636,730564,8,400,,,
trial,html.Screen,4_137_0,2023-09-08T20:06:35.551Z,,0,3,,3981,response,ISIC_0070017.JPG,5,ISIC_6444989.JPG,ISIC_6444989.JPG,false,0,keypress(z),500,734545,734545,730530,730536,730564,734575,8,400,38,,ISIC_0070017.JPG
break,html.Screen,4_137_1,2023-09-08T20:06:35.554Z,,0,,,NaN,,,,,,false,,,,734548,734548,,734546,,734575,8,400,,,
break_continue,html.Screen,4_137_2,2023-09-08T20:06:35.555Z,,0,,,NaN,,,,,,false,,,,734549,734549,,734548,,734575,8,400,,,
sequence,flow.Sequence,4_137,2023-09-08T20:06:35.556Z,,0,,,3985,completion,,,,,false,,,,734550,734549,730530,730536,730564,734575,8,400,,,
trial,html.Screen,4_138_0,2023-09-08T20:06:39.462Z,,0,3,,3881,response,ISIC_0029189.JPG,4,ISIC_0687593.JPG,ISIC_0687593.JPG,false,0,keypress(z),500,738456,738456,734541,734550,734575,738486,8,400,39,,ISIC_0029189.JPG
break,html.Screen,4_138_1,2023-09-08T20:06:39.465Z,,0,,,NaN,,,,,,false,,,,738459,738459,,738457,,738486,8,400,,,
break_continue,html.Screen,4_138_2,2023-09-08T20:06:39.466Z,,0,,,NaN,,,,,,false,,,,738460,738460,,738459,,738486,8,400,,,
sequence,flow.Sequence,4_138,2023-09-08T20:06:39.467Z,,0,,,3885,completion,,,,,false,,,,738461,738460,734541,734550,734575,738486,8,400,,,
trial,html.Screen,4_139_0,2023-09-08T20:06:43.133Z,,0,3,,3641,response,ISIC_0000168.JPG,4,ISIC_0000142.JPG,ISIC_0000142.JPG,false,0,keypress(z),500,742127,742127,738453,738461,738486,742180,8,400,40,,ISIC_0000168.JPG
break,html.Screen,4_139_1,2023-09-08T20:06:43.136Z,,0,,,NaN,,,,,,false,,,,742130,742129,,742128,,742180,8,400,,,
break_continue,html.Screen,4_139_2,2023-09-08T20:06:43.137Z,,0,,,NaN,,,,,,false,,,,742131,742131,,742130,,742180,8,400,,,
sequence,flow.Sequence,4_139,2023-09-08T20:06:43.138Z,,0,,,3645,completion,,,,,false,,,,742132,742131,738453,738461,738486,742180,8,400,,,
trial,html.Screen,4_140_0,2023-09-08T20:06:47.092Z,,0,3,,3906,response,ISIC_0030963.JPG,4,ISIC_2635051.JPG,ISIC_0030963.JPG,false,1,keypress(m),500,746086,746086,742130,742132,742180,746108,8,400,41,,ISIC_2635051.JPG
break,html.Screen,4_140_1,2023-09-08T20:06:47.095Z,,0,,,NaN,,,,,,false,,,,746089,746089,,746087,,746108,8,400,,,
break_continue,html.Screen,4_140_2,2023-09-08T20:06:47.096Z,,0,,,NaN,,,,,,false,,,,746090,746090,,746090,,746108,8,400,,,
sequence,flow.Sequence,4_140,2023-09-08T20:06:47.097Z,,0,,,3910,completion,,,,,false,,,,746091,746090,742130,742132,742180,746108,8,400,,,
trial,html.Screen,4_141_0,2023-09-08T20:06:51.276Z,,0,3,,4162,response,ISIC_0027132.JPG,5,ISIC_0010718.JPG,ISIC_0027132.JPG,false,1,keypress(m),500,750270,750270,746073.225,746091,746108,750303,8,400,42,,ISIC_0010718.JPG
break,html.Screen,4_141_1,2023-09-08T20:06:51.279Z,,0,,,NaN,,,,,,false,,,,750273,750272,,750271,,750303,8,400,,,
break_continue,html.Screen,4_141_2,2023-09-08T20:06:51.280Z,,0,,,NaN,,,,,,false,,,,750274,750274,,750273,,750303,8,400,,,
sequence,flow.Sequence,4_141,2023-09-08T20:06:51.281Z,,0,,,4166,completion,,,,,false,,,,750275,750274,746073.225,746091,746108,750303,8,400,,,
trial,html.Screen,4_142_0,2023-09-08T20:06:55.189Z,,0,3,,3879,response,ISIC_9604922.JPG,4,ISIC_0057155.JPG,ISIC_9604922.JPG,false,1,keypress(m),500,754183,754182,750269,750275,750303,754197,8,400,43,,ISIC_0057155.JPG
break,html.Screen,4_142_1,2023-09-08T20:06:55.192Z,,0,,,NaN,,,,,,false,,,,754186,754185,,754183,,754197,8,400,,,
break_continue,html.Screen,4_142_2,2023-09-08T20:06:55.193Z,,0,,,NaN,,,,,,false,,,,754187,754186,,754186,,754197,8,400,,,
sequence,flow.Sequence,4_142,2023-09-08T20:06:55.193Z,,0,,,3883,completion,,,,,false,,,,754187,754186,750269,750275,750303,754197,8,400,,,
trial,html.Screen,4_143_0,2023-09-08T20:06:58.991Z,,0,3,,3787,response,ISIC_4055361.JPG,6,ISIC_1684829.JPG,ISIC_1684829.JPG,false,0,keypress(z),500,757985,757984,754180,754187,754197,758008,8,400,44,,ISIC_4055361.JPG
break,html.Screen,4_143_1,2023-09-08T20:06:58.993Z,,0,,,NaN,,,,,,false,,,,757987,757987,,757985,,758008,8,400,,,
break_continue,html.Screen,4_143_2,2023-09-08T20:06:58.994Z,,0,,,NaN,,,,,,false,,,,757988,757988,,757988,,758008,8,400,,,
sequence,flow.Sequence,4_143,2023-09-08T20:06:58.995Z,,0,,,3791,completion,,,,,false,,,,757989,757988,754180,754187,754197,758008,8,400,,,
trial,html.Screen,4_144_0,2023-09-08T20:07:03.576Z,,0,3,,4561,response,ISIC_7558912.JPG,5,ISIC_5961333.JPG,ISIC_7558912.JPG,false,1,keypress(m),500,762570,762569,757974.225,757989,758008,762604,8,400,45,,ISIC_5961333.JPG
break,html.Screen,4_144_1,2023-09-08T20:07:03.578Z,,0,,,NaN,,,,,,false,,,,762572,762572,,762570,,762604,8,400,,,
break_continue,html.Screen,4_144_2,2023-09-08T20:07:03.579Z,,0,,,NaN,,,,,,false,,,,762573,762573,,762573,,762604,8,400,,,
sequence,flow.Sequence,4_144,2023-09-08T20:07:03.580Z,,0,,,4565,completion,,,,,false,,,,762574,762573,757974.225,757989,758008,762604,8,400,,,
trial,html.Screen,4_145_0,2023-09-08T20:07:08.001Z,,0,3,,4391,response,ISIC_9155028.JPG,36,ISIC_9780632.JPG,ISIC_9155028.JPG,false,1,keypress(m),500,766995,766995,762571,762574,762604,767016,8,400,46,,ISIC_9780632.JPG
break,html.Screen,4_145_1,2023-09-08T20:07:08.004Z,,0,,,NaN,,,,,,false,,,,766998,766997,,766996,,767016,8,400,,,
break_continue,html.Screen,4_145_2,2023-09-08T20:07:08.005Z,,0,,,NaN,,,,,,false,,,,766999,766999,,766998,,767016,8,400,,,
sequence,flow.Sequence,4_145,2023-09-08T20:07:08.005Z,,0,,,4395,completion,,,,,false,,,,766999,766999,762571,762574,762604,767016,8,400,,,
trial,html.Screen,4_146_0,2023-09-08T20:07:12.303Z,,0,3,,4281,response,ISIC_7953039.JPG,4,ISIC_3230874.JPG,ISIC_3230874.JPG,false,0,keypress(z),500,771297,771297,766982.55,767000,767016,771329,8,400,47,,ISIC_7953039.JPG
break,html.Screen,4_146_1,2023-09-08T20:07:12.306Z,,0,,,NaN,,,,,,false,,,,771300,771299,,771298,,771329,8,400,,,
break_continue,html.Screen,4_146_2,2023-09-08T20:07:12.307Z,,0,,,NaN,,,,,,false,,,,771301,771301,,771300,,771329,8,400,,,
sequence,flow.Sequence,4_146,2023-09-08T20:07:12.307Z,,0,,,4285,completion,,,,,false,,,,771301,771301,766982.55,767000,767016,771329,8,400,,,
trial,html.Screen,4_147_0,2023-09-08T20:07:17.417Z,,0,3,,5081,response,ISIC_2031626.JPG,4,ISIC_0010772.JPG,ISIC_2031626.JPG,false,1,keypress(m),500,776411,776410,771295,771303,771329,776444,8,400,48,,ISIC_0010772.JPG
break,html.Screen,4_147_1,2023-09-08T20:07:17.419Z,,0,,,NaN,,,,,,false,,,,776413,776413,,776411,,776444,8,400,,,
break_continue,html.Screen,4_147_2,2023-09-08T20:07:17.420Z,,0,,,NaN,,,,,,false,,,,776414,776414,,776414,,776444,8,400,,,
sequence,flow.Sequence,4_147,2023-09-08T20:07:17.421Z,,0,,,5085,completion,,,,,false,,,,776415,776414,771295,771302,771329,776444,8,400,,,
trial,html.Screen,4_148_0,2023-09-08T20:07:20.724Z,,0,3,,3274,response,ISIC_4482610.JPG,4,ISIC_0033317.JPG,ISIC_4482610.JPG,false,1,keypress(m),500,779718,779718,776410,776415,776444,779735,8,400,49,,ISIC_0033317.JPG
break,html.Screen,4_148_1,2023-09-08T20:07:20.727Z,,0,,,NaN,,,,,,false,,,,779721,779721,,779719,,779735,8,400,,,
break_continue,html.Screen,4_148_2,2023-09-08T20:07:20.728Z,,0,,,NaN,,,,,,false,,,,779722,779722,,779721,,779735,8,400,,,
sequence,flow.Sequence,4_148,2023-09-08T20:07:20.729Z,,0,,,3278,completion,,,,,false,,,,779723,779722,776410,776415,776444,779735,8,400,,,
trial,html.Screen,4_149_0,2023-09-08T20:07:24.075Z,,0,3,,3334,response,ISIC_0259179.JPG,82,ISIC_0065360.JPG,ISIC_0259179.JPG,false,1,keypress(m),500,783069,783069,779719,779723,779735,783095,8,400,50,,ISIC_0065360.JPG
break,html.Screen,4_149_1,2023-09-08T20:07:34.088Z,,0,,,10012,timeout,,,,,false,,,,793083,793074,783061.225,783070,783095,793107,8,400,,,
break_continue,html.Screen,4_149_2,2023-09-08T20:07:39.002Z,,0,,,4828,response,,,,,false,continue,keypress(Space),,797997,797935,793074,793084,793107,798021,8,400,,,
sequence,flow.Sequence,4_149,2023-09-08T20:07:39.002Z,,0,,,18200,completion,,,,,false,,,,797997,797935,779719,779723,779735,798021,8,400,,,
trial,html.Screen,4_150_0,2023-09-08T20:07:42.477Z,,0,4,,3451,response,ISIC_0024650.JPG,6,ISIC_0034232.JPG,ISIC_0034232.JPG,false,0,keypress(z),500,801472,801472,798004,797997,798021,801497,8,400,1,,ISIC_0024650.JPG
break,html.Screen,4_150_1,2023-09-08T20:07:42.479Z,,0,,,NaN,,,,,,false,,,,801474,801474,,801472,,801497,8,400,,,
break_continue,html.Screen,4_150_2,2023-09-08T20:07:42.480Z,,0,,,NaN,,,,,,false,,,,801475,801475,,801474,,801497,8,400,,,
sequence,flow.Sequence,4_150,2023-09-08T20:07:42.481Z,,0,,,3454,completion,,,,,false,,,,801476,801475,798004,797997,798021,801497,8,400,,,
trial,html.Screen,4_151_0,2023-09-08T20:07:46.403Z,,0,4,,3901,response,ISIC_9152603.JPG,4,ISIC_5732201.JPG,ISIC_5732201.JPG,false,0,keypress(z),500,805398,805398,801463.225,801476,801497,805424,8,400,2,,ISIC_9152603.JPG
break,html.Screen,4_151_1,2023-09-08T20:07:46.406Z,,0,,,NaN,,,,,,false,,,,805401,805400,,805399,,805424,8,400,,,
break_continue,html.Screen,4_151_2,2023-09-08T20:07:46.407Z,,0,,,NaN,,,,,,false,,,,805402,805401,,805401,,805424,8,400,,,
sequence,flow.Sequence,4_151,2023-09-08T20:07:46.407Z,,0,,,3904,completion,,,,,false,,,,805402,805401,801463.225,801476,801497,805424,8,400,,,
trial,html.Screen,4_152_0,2023-09-08T20:07:50.251Z,,0,4,,3822,response,ISIC_0030563.JPG,3,ISIC_0005291.JPG,ISIC_0030563.JPG,false,1,keypress(m),500,809246,809246,805391.225,805403,805424,809252,8,400,3,,ISIC_0005291.JPG
break,html.Screen,4_152_1,2023-09-08T20:07:50.254Z,,0,,,NaN,,,,,,false,,,,809249,809248,,809247,,809252,8,400,,,
break_continue,html.Screen,4_152_2,2023-09-08T20:07:50.255Z,,0,,,NaN,,,,,,false,,,,809250,809250,,809249,,809252,8,400,,,
sequence,flow.Sequence,4_152,2023-09-08T20:07:50.255Z,,0,,,3826,completion,,,,,false,,,,809250,809250,805391.225,805402,805424,809252,8,400,,,
trial,html.Screen,4_153_0,2023-09-08T20:07:54.083Z,,0,4,,3825,response,ISIC_5457889.JPG,4,ISIC_0055289.JPG,ISIC_5457889.JPG,false,1,keypress(m),500,813078,813077,809235.225,809251,809252,813097,8,400,4,,ISIC_0055289.JPG
break,html.Screen,4_153_1,2023-09-08T20:07:54.086Z,,0,,,NaN,,,,,,false,,,,813081,813080,,813078,,813097,8,400,,,
break_continue,html.Screen,4_153_2,2023-09-08T20:07:54.087Z,,0,,,NaN,,,,,,false,,,,813082,813081,,813081,,813097,8,400,,,
sequence,flow.Sequence,4_153,2023-09-08T20:07:54.087Z,,0,,,3829,completion,,,,,false,,,,813082,813081,809235.225,809251,809252,813097,8,400,,,
trial,html.Screen,4_154_0,2023-09-08T20:07:57.439Z,,0,4,,3337,response,ISIC_5581936.JPG,4,ISIC_1228845.JPG,ISIC_5581936.JPG,false,1,keypress(m),500,816434,816434,813080,813082,813097,816456,8,400,5,,ISIC_1228845.JPG
break,html.Screen,4_154_1,2023-09-08T20:07:57.441Z,,0,,,NaN,,,,,,false,,,,816436,816435,,816434,,816456,8,400,,,
break_continue,html.Screen,4_154_2,2023-09-08T20:07:57.442Z,,0,,,NaN,,,,,,false,,,,816437,816437,,816436,,816456,8,400,,,
sequence,flow.Sequence,4_154,2023-09-08T20:07:57.442Z,,0,,,3340,completion,,,,,false,,,,816437,816437,813080,813082,813097,816456,8,400,,,
trial,html.Screen,4_155_0,2023-09-08T20:08:00.490Z,,0,4,,3029,response,ISIC_0033061.JPG,4,ISIC_0032531.JPG,ISIC_0033061.JPG,false,1,keypress(m),500,819485,819485,816421.225,816438,816456,819514,8,400,6,,ISIC_0032531.JPG
break,html.Screen,4_155_1,2023-09-08T20:08:00.493Z,,0,,,NaN,,,,,,false,,,,819488,819487,,819486,,819514,8,400,,,
break_continue,html.Screen,4_155_2,2023-09-08T20:08:00.494Z,,0,,,NaN,,,,,,false,,,,819489,819489,,819488,,819514,8,400,,,
sequence,flow.Sequence,4_155,2023-09-08T20:08:00.495Z,,0,,,3033,completion,,,,,false,,,,819490,819489,816421.225,816438,816456,819514,8,400,,,
trial,html.Screen,4_156_0,2023-09-08T20:08:04.513Z,,0,4,,3994,response,ISIC_1782545.JPG,4,ISIC_1004416.JPG,ISIC_1782545.JPG,false,1,keypress(m),500,823508,823508,819481,819490,819514,823526,8,400,7,,ISIC_1004416.JPG
break,html.Screen,4_156_1,2023-09-08T20:08:04.516Z,,0,,,NaN,,,,,,false,,,,823511,823511,,823509,,823526,8,400,,,
break_continue,html.Screen,4_156_2,2023-09-08T20:08:04.517Z,,0,,,NaN,,,,,,false,,,,823512,823512,,823511,,823526,8,400,,,
sequence,flow.Sequence,4_156,2023-09-08T20:08:04.518Z,,0,,,3998,completion,,,,,false,,,,823513,823512,819481,819490,819514,823526,8,400,,,
trial,html.Screen,4_157_0,2023-09-08T20:08:07.881Z,,0,4,,3350,response,ISIC_5656921.JPG,4,ISIC_9196033.JPG,ISIC_9196033.JPG,false,0,keypress(z),500,826876,826876,823509,823513,823526,826902,8,400,8,,ISIC_5656921.JPG
break,html.Screen,4_157_1,2023-09-08T20:08:07.884Z,,0,,,NaN,,,,,,false,,,,826879,826878,,826877,,826902,8,400,,,
break_continue,html.Screen,4_157_2,2023-09-08T20:08:07.885Z,,0,,,NaN,,,,,,false,,,,826880,826880,,826879,,826902,8,400,,,
sequence,flow.Sequence,4_157,2023-09-08T20:08:07.886Z,,0,,,3354,completion,,,,,false,,,,826881,826880,823509,823513,823526,826902,8,400,,,
trial,html.Screen,4_158_0,2023-09-08T20:08:11.682Z,,0,4,,3775,response,ISIC_0002900.JPG,8,ISIC_3397377.JPG,ISIC_0002900.JPG,false,1,keypress(m),500,830677,830677,826867.875,826881,826902,830696,8,400,9,,ISIC_3397377.JPG
break,html.Screen,4_158_1,2023-09-08T20:08:11.685Z,,0,,,NaN,,,,,,false,,,,830680,830679,,830678,,830696,8,400,,,
break_continue,html.Screen,4_158_2,2023-09-08T20:08:11.686Z,,0,,,NaN,,,,,,false,,,,830681,830681,,830680,,830696,8,400,,,
sequence,flow.Sequence,4_158,2023-09-08T20:08:11.686Z,,0,,,3779,completion,,,,,false,,,,830681,830681,826867.875,826881,826902,830696,8,400,,,
trial,html.Screen,4_159_0,2023-09-08T20:08:15.449Z,,0,4,,3748,response,ISIC_4734111.JPG,4,ISIC_6119830.JPG,ISIC_6119830.JPG,false,0,keypress(z),500,834444,834444,830680,830682,830696,834473,8,400,10,,ISIC_4734111.JPG
break,html.Screen,4_159_1,2023-09-08T20:08:15.452Z,,0,,,NaN,,,,,,false,,,,834447,834446,,834445,,834473,8,400,,,
break_continue,html.Screen,4_159_2,2023-09-08T20:08:15.453Z,,0,,,NaN,,,,,,false,,,,834448,834448,,834447,,834473,8,400,,,
sequence,flow.Sequence,4_159,2023-09-08T20:08:15.454Z,,0,,,3752,completion,,,,,false,,,,834449,834448,830680,830682,830696,834473,8,400,,,
trial,html.Screen,4_160_0,2023-09-08T20:08:20.149Z,,0,4,,4670,response,ISIC_8030914.JPG,4,ISIC_1105263.JPG,ISIC_1105263.JPG,false,0,keypress(z),500,839144,839143,834440,834449,834473,839170,8,400,11,,ISIC_8030914.JPG
break,html.Screen,4_160_1,2023-09-08T20:08:20.151Z,,0,,,NaN,,,,,,false,,,,839146,839146,,839144,,839170,8,400,,,
break_continue,html.Screen,4_160_2,2023-09-08T20:08:20.152Z,,0,,,NaN,,,,,,false,,,,839147,839147,,839147,,839170,8,400,,,
sequence,flow.Sequence,4_160,2023-09-08T20:08:20.153Z,,0,,,4674,completion,,,,,false,,,,839148,839147,834440,834449,834473,839170,8,400,,,
trial,html.Screen,4_161_0,2023-09-08T20:08:23.981Z,,0,4,,3806,response,ISIC_0034062.JPG,4,ISIC_5046082.JPG,ISIC_5046082.JPG,false,0,keypress(z),500,842976,842976,839135.225,839148,839170,842980,8,400,12,,ISIC_0034062.JPG
break,html.Screen,4_161_1,2023-09-08T20:08:23.984Z,,0,,,NaN,,,,,,false,,,,842979,842978,,842977,,842980,8,400,,,
break_continue,html.Screen,4_161_2,2023-09-08T20:08:23.984Z,,0,,,NaN,,,,,,false,,,,842979,842979,,842979,,842980,8,400,,,
sequence,flow.Sequence,4_161,2023-09-08T20:08:23.984Z,,0,,,3809,completion,,,,,false,,,,842979,842979,839135.225,839148,839170,842980,8,400,,,
