sender,sender_type,sender_id,timestamp,meta,,blockNo,condition,duration,ended_on,img_left,img_reveal,img_right,loser,practice,response,response_action,selection_duration,time_commit,time_end,time_render,time_run,time_show,time_switch,total_blocks,total_trials,trialNo,url,winner
informed_consent,html.Screen,0,2023-10-31T20:59:21.891Z,"{""labjs_version"":""20.2.4"",""labjs_build"":{""flavor"":""production"",""commit"":""f5b4a49f956347addd546a832a3327688c2c0fef""},""location"":""https://run.pavlovia.org/MurrayBennett/melanoma-2afc/?participant=66236&platform=sona"",""userAgent"":""Mozilla/5.0 (Macintosh; Intel Mac OS X 10_15_7) AppleWebKit/605.1.15 (KHTML, like Gecko) Version/14.1.3 Safari/605.1.15"",""platform"":""MacIntel"",""language"":""en-ca"",""locale"":""en-CA"",""timeZone"":""America/Chicago"",""timezoneOffset"":300,""screen_width"":1280,""screen_height"":800,""scroll_width"":1280,""scroll_height"":672,""window_innerWidth"":1280,""window_innerHeight"":720,""devicePixelRatio"":2}",,,,8537,response,,,,,,consent,click button,,11893,11890,3353,3278,3365,11934,,,,"{""participant"":""66236"",""platform"":""sona""}",
Welcome,html.Screen,1,2023-10-31T20:59:38.331Z,,,,colourful,16410.000000000004,response,,,,,,continue,click button,,28333.000000000004,28333.000000000004,11923,11894,11934,28363,,,,,
trial,html.Screen,2_0_0,2023-10-31T20:59:49.846Z,,0,0,,11501,timeout,ISIC_0025593.JPG,,ISIC_0063388.JPG,ISIC_0063388.JPG,true,,,500,39849.00000000001,39848,28347,28334,28363,,1,6,1,,ISIC_0025593.JPG
sequence,flow.Sequence,2_0,2023-10-31T20:59:49.847Z,,0,,,11485,completion,,,,,true,,,,39849.00000000001,39848,28347,28334,28363,39882,1,6,,,
trial,html.Screen,2_0_0,2023-10-31T20:59:49.855Z,,0,0,,11510,response,ISIC_0025593.JPG,,ISIC_0063388.JPG,ISIC_0063388.JPG,true,0,keypress(z),500,39858.00000000001,39857,28347,28334,28363,39882,1,6,1,,ISIC_0025593.JPG
trial,html.Screen,2_1_0,2023-10-31T20:59:56.938Z,,0,0,,7075,response,ISIC_1309015.JPG,,ISIC_0028178.JPG,ISIC_0028178.JPG,true,0,keypress(z),500,46940,46940,39865,39849.00000000001,39882,46981,1,6,2,,ISIC_1309015.JPG
sequence,flow.Sequence,2_1,2023-10-31T20:59:56.938Z,,0,,,7058,completion,,,,,true,,,,46941,46940,39865,39849.00000000001,39882,46981,1,6,,,
trial,html.Screen,2_2_0,2023-10-31T21:00:02.233Z,,0,0,,5271.000000000007,response,ISIC_0031128.JPG,,ISIC_3314853.JPG,ISIC_0031128.JPG,true,1,keypress(m),500,52236.00000000001,52236.00000000001,46965,46941,46981,52277,1,6,3,,ISIC_3314853.JPG
sequence,flow.Sequence,2_2,2023-10-31T21:00:02.234Z,,0,,,5255.000000000007,completion,,,,,true,,,,52236.00000000001,52236.00000000001,46965,46941,46981,52277,1,6,,,
trial,html.Screen,2_3_0,2023-10-31T21:00:05.705Z,,0,0,,3448,response,ISIC_0031612.JPG,,ISIC_8980141.JPG,ISIC_8980141.JPG,true,0,keypress(z),500,55708,55708,52260,52237,52277,55740,1,6,4,,ISIC_0031612.JPG
sequence,flow.Sequence,2_3,2023-10-31T21:00:05.706Z,,0,,,3431,completion,,,,,true,,,,55708,55708,52260,52236.00000000001,52277,55740,1,6,,,
trial,html.Screen,2_4_0,2023-10-31T21:00:09.833Z,,0,0,,4113,response,ISIC_9721604.JPG,,ISIC_1197737.JPG,ISIC_9721604.JPG,true,1,keypress(m),500,59836,59836,55723,55708,55740,59871,1,6,5,,ISIC_1197737.JPG
sequence,flow.Sequence,2_4,2023-10-31T21:00:09.834Z,,0,,,4096,completion,,,,,true,,,,59836,59836,55723,55708,55740,59871,1,6,,,
trial,html.Screen,2_5_0,2023-10-31T21:00:13.145Z,,0,0,,3292,response,ISIC_0010681.JPG,,ISIC_0025346.JPG,ISIC_0025346.JPG,true,0,keypress(z),500,63147,63147,59855,59837,59871,63184,1,6,6,,ISIC_0010681.JPG
sequence,flow.Sequence,2_5,2023-10-31T21:00:13.145Z,,0,,,3276,completion,,,,,true,,,,63148,63147,59855,59837,59871,63184,1,6,,,
loop,flow.Loop,2,2023-10-31T21:00:13.145Z,,,,,34784,completion,,,,,true,,,,63148,63147,28347,28334,28363,63184,1,6,,,
exp_instructions,html.Screen,3,2023-10-31T21:00:17.766Z,,,,,4597,response,,,,,,continue,keypress(Space),,67769,67765,63168,63148,63184,67799,,,,,
trial,html.Screen,4_0_0,2023-10-31T21:00:22.129Z,,0,1,,4348,response,ISIC_0071338.JPG,12,ISIC_8343285.JPG,ISIC_0071338.JPG,false,1,keypress(m),500,72131,72131,67783,67769,67799,72166,8,400,1,,ISIC_8343285.JPG
break,html.Screen,4_0_1,2023-10-31T21:00:22.130Z,,0,,,NaN,,,,,,false,,,,72132,72132,,72132,,72166,8,400,,,
break_continue,html.Screen,4_0_2,2023-10-31T21:00:22.130Z,,0,,,NaN,,,,,,false,,,,72133,72133,,72133,,72166,8,400,,,
sequence,flow.Sequence,4_0,2023-10-31T21:00:22.130Z,,0,,,4334,completion,,,,,false,,,,72133,72133,67783,67769,67799,72166,8,400,,,
trial,html.Screen,4_1_0,2023-10-31T21:00:25.890Z,,0,1,,3743,response,ISIC_2748873.JPG,8,ISIC_4243283.JPG,ISIC_2748873.JPG,false,1,keypress(m),500,75893,75892,72149,72133,72166,75924,8,400,2,,ISIC_4243283.JPG
break,html.Screen,4_1_1,2023-10-31T21:00:25.891Z,,0,,,NaN,,,,,,false,,,,75894,75893,,75893,,75924,8,400,,,
break_continue,html.Screen,4_1_2,2023-10-31T21:00:25.891Z,,0,,,NaN,,,,,,false,,,,75894,75894,,75894,,75924,8,400,,,
sequence,flow.Sequence,4_1,2023-10-31T21:00:25.892Z,,0,,,3728,completion,,,,,false,,,,75894,75894,72149,72133,72166,75924,8,400,,,
trial,html.Screen,4_2_0,2023-10-31T21:00:29.177Z,,0,1,,3272,response,ISIC_0027221.JPG,13,ISIC_5908780.JPG,ISIC_5908780.JPG,false,0,keypress(z),500,79180,79179,75907,75895,75924,79219,8,400,3,,ISIC_0027221.JPG
break,html.Screen,4_2_1,2023-10-31T21:00:29.177Z,,0,,,NaN,,,,,,false,,,,79180,79180,,79180,,79219,8,400,,,
break_continue,html.Screen,4_2_2,2023-10-31T21:00:29.178Z,,0,,,NaN,,,,,,false,,,,79181,79181,,79180,,79219,8,400,,,
sequence,flow.Sequence,4_2,2023-10-31T21:00:29.178Z,,0,,,3257,completion,,,,,false,,,,79181,79181,75907,75895,75924,79219,8,400,,,
trial,html.Screen,4_3_0,2023-10-31T21:00:32.448Z,,0,1,,3248.0000000000146,response,ISIC_0006327.JPG,11,ISIC_4116770.JPG,ISIC_0006327.JPG,false,1,keypress(m),500,82451.00000000001,82451.00000000001,79203,79181,79219,82482,8,400,4,,ISIC_4116770.JPG
break,html.Screen,4_3_1,2023-10-31T21:00:32.449Z,,0,,,NaN,,,,,,false,,,,82452,82452,,82451.00000000001,,82482,8,400,,,
break_continue,html.Screen,4_3_2,2023-10-31T21:00:32.449Z,,0,,,NaN,,,,,,false,,,,82452,82452,,82452,,82482,8,400,,,
sequence,flow.Sequence,4_3,2023-10-31T21:00:32.449Z,,0,,,3233,completion,,,,,false,,,,82452,82452,79203,79181,79219,82482,8,400,,,
trial,html.Screen,4_4_0,2023-10-31T21:00:36.321Z,,0,1,,3859,response,ISIC_7898061.JPG,14,ISIC_9159730.JPG,ISIC_9159730.JPG,false,0,keypress(z),500,86324,86324,82465,82452,82482,86356,8,400,5,,ISIC_7898061.JPG
break,html.Screen,4_4_1,2023-10-31T21:00:36.322Z,,0,,,NaN,,,,,,false,,,,86325,86324,,86324,,86356,8,400,,,
break_continue,html.Screen,4_4_2,2023-10-31T21:00:36.322Z,,0,,,NaN,,,,,,false,,,,86325,86325,,86325,,86356,8,400,,,
sequence,flow.Sequence,4_4,2023-10-31T21:00:36.322Z,,0,,,3843,completion,,,,,false,,,,86325,86325,82465,82452,82482,86356,8,400,,,
trial,html.Screen,4_5_0,2023-10-31T21:00:39.145Z,,0,1,,2808,response,ISIC_8296881.JPG,10,ISIC_0061625.JPG,ISIC_8296881.JPG,false,1,keypress(m),500,89148,89148,86340,86325,86356,89173,8,400,6,,ISIC_0061625.JPG
break,html.Screen,4_5_1,2023-10-31T21:00:39.147Z,,0,,,NaN,,,,,,false,,,,89150,89150,,89150,,89173,8,400,,,
break_continue,html.Screen,4_5_2,2023-10-31T21:00:39.147Z,,0,,,NaN,,,,,,false,,,,89150,89150,,89150,,89173,8,400,,,
sequence,flow.Sequence,4_5,2023-10-31T21:00:39.148Z,,0,,,2794,completion,,,,,false,,,,89151,89150,86340,86325,86356,89173,8,400,,,
trial,html.Screen,4_6_0,2023-10-31T21:00:42.257Z,,0,1,,3103,response,ISIC_3471815.JPG,14,ISIC_0013766.JPG,ISIC_3471815.JPG,false,1,keypress(m),500,92260,92260,89157,89151,89173,92303,8,400,7,,ISIC_0013766.JPG
break,html.Screen,4_6_1,2023-10-31T21:00:42.258Z,,0,,,NaN,,,,,,false,,,,92261,92260,,92260,,92303,8,400,,,
break_continue,html.Screen,4_6_2,2023-10-31T21:00:42.258Z,,0,,,NaN,,,,,,false,,,,92261,92261,,92261,,92303,8,400,,,
sequence,flow.Sequence,4_6,2023-10-31T21:00:42.258Z,,0,,,3088,completion,,,,,false,,,,92261,92261,89157,89151,89173,92303,8,400,,,
trial,html.Screen,4_7_0,2023-10-31T21:00:45.112Z,,0,1,,2828,response,ISIC_7945429.JPG,7,ISIC_0990298.JPG,ISIC_7945429.JPG,false,1,keypress(m),500,95115,95115,92287,92261,92303,95153,8,400,8,,ISIC_0990298.JPG
break,html.Screen,4_7_1,2023-10-31T21:00:45.112Z,,0,,,NaN,,,,,,false,,,,95116,95115,,95115,,95153,8,400,,,
break_continue,html.Screen,4_7_2,2023-10-31T21:00:45.113Z,,0,,,NaN,,,,,,false,,,,95116,95116,,95116,,95153,8,400,,,
sequence,flow.Sequence,4_7,2023-10-31T21:00:45.113Z,,0,,,2813,completion,,,,,false,,,,95116,95116,92287,92261,92303,95153,8,400,,,
trial,html.Screen,4_8_0,2023-10-31T21:00:48.169Z,,0,1,,3036,response,ISIC_4923095.JPG,10,ISIC_0031155.JPG,ISIC_0031155.JPG,false,0,keypress(z),500,98172,98172,95136,95116,95153,98201,8,400,9,,ISIC_4923095.JPG
break,html.Screen,4_8_1,2023-10-31T21:00:48.169Z,,0,,,NaN,,,,,,false,,,,98172,98172,,98172,,98201,8,400,,,
break_continue,html.Screen,4_8_2,2023-10-31T21:00:48.170Z,,0,,,NaN,,,,,,false,,,,98173,98173,,98173,,98201,8,400,,,
sequence,flow.Sequence,4_8,2023-10-31T21:00:48.170Z,,0,,,3020,completion,,,,,false,,,,98173,98173,95136,95116,95153,98201,8,400,,,
trial,html.Screen,4_9_0,2023-10-31T21:00:51.065Z,,0,1,,2884,response,ISIC_0003217.JPG,12,ISIC_1440377.JPG,ISIC_0003217.JPG,false,1,keypress(m),500,101068,101068,98184,98173,98201,101100,8,400,10,,ISIC_1440377.JPG
break,html.Screen,4_9_1,2023-10-31T21:00:51.065Z,,0,,,NaN,,,,,,false,,,,101068,101068,,101068,,101100,8,400,,,
break_continue,html.Screen,4_9_2,2023-10-31T21:00:51.066Z,,0,,,NaN,,,,,,false,,,,101069,101069,,101069,,101100,8,400,,,
sequence,flow.Sequence,4_9,2023-10-31T21:00:51.066Z,,0,,,2868,completion,,,,,false,,,,101069,101069,98184,98173,98201,101100,8,400,,,
trial,html.Screen,4_10_0,2023-10-31T21:00:55.320Z,,0,1,,4240.000000000015,response,ISIC_4322954.JPG,11,ISIC_0033977.JPG,ISIC_4322954.JPG,false,1,keypress(m),500,105323.00000000001,105323.00000000001,101083,101069,101100,105354,8,400,11,,ISIC_0033977.JPG
break,html.Screen,4_10_1,2023-10-31T21:00:55.321Z,,0,,,NaN,,,,,,false,,,,105324,105324,,105324,,105354,8,400,,,
break_continue,html.Screen,4_10_2,2023-10-31T21:00:55.321Z,,0,,,NaN,,,,,,false,,,,105324,105324,,105324,,105354,8,400,,,
sequence,flow.Sequence,4_10,2023-10-31T21:00:55.321Z,,0,,,4224,completion,,,,,false,,,,105325,105324,101083,101069,101100,105354,8,400,,,
trial,html.Screen,4_11_0,2023-10-31T21:00:59.072Z,,0,1,,3737,response,ISIC_0014559.JPG,9,ISIC_0029684.JPG,ISIC_0029684.JPG,false,0,keypress(z),500,109076.00000000001,109075,105338,105325,105354,109112,8,400,12,,ISIC_0014559.JPG
break,html.Screen,4_11_1,2023-10-31T21:00:59.073Z,,0,,,NaN,,,,,,false,,,,109076.00000000001,109076.00000000001,,109076.00000000001,,109112,8,400,,,
break_continue,html.Screen,4_11_2,2023-10-31T21:00:59.073Z,,0,,,NaN,,,,,,false,,,,109077,109076.00000000001,,109076.00000000001,,109112,8,400,,,
sequence,flow.Sequence,4_11,2023-10-31T21:00:59.073Z,,0,,,3722.0000000000146,completion,,,,,false,,,,109077,109076.00000000001,105338,105325,105354,109112,8,400,,,
trial,html.Screen,4_12_0,2023-10-31T21:01:01.880Z,,0,1,,2788,response,ISIC_3513367.JPG,8,ISIC_5721677.JPG,ISIC_5721677.JPG,false,0,keypress(z),500,111884,111884,109096,109077,109112,111912,8,400,13,,ISIC_3513367.JPG
break,html.Screen,4_12_1,2023-10-31T21:01:01.881Z,,0,,,NaN,,,,,,false,,,,111884,111884,,111884,,111912,8,400,,,
break_continue,html.Screen,4_12_2,2023-10-31T21:01:01.881Z,,0,,,NaN,,,,,,false,,,,111885,111885,,111884,,111912,8,400,,,
sequence,flow.Sequence,4_12,2023-10-31T21:01:01.881Z,,0,,,2773,completion,,,,,false,,,,111885,111885,109096,109077,109112,111912,8,400,,,
trial,html.Screen,4_13_0,2023-10-31T21:01:04.552Z,,0,1,,2660,response,ISIC_0000145.JPG,10,ISIC_7806612.JPG,ISIC_7806612.JPG,false,0,keypress(z),500,114556,114555,111895,111885,111912,114597,8,400,14,,ISIC_0000145.JPG
break,html.Screen,4_13_1,2023-10-31T21:01:04.553Z,,0,,,NaN,,,,,,false,,,,114556,114556,,114556,,114597,8,400,,,
break_continue,html.Screen,4_13_2,2023-10-31T21:01:04.553Z,,0,,,NaN,,,,,,false,,,,114557,114556,,114556,,114597,8,400,,,
sequence,flow.Sequence,4_13,2023-10-31T21:01:04.553Z,,0,,,2644,completion,,,,,false,,,,114557,114556,111895,111885,111912,114597,8,400,,,
trial,html.Screen,4_14_0,2023-10-31T21:01:07.824Z,,0,1,,3247,response,ISIC_0033831.JPG,5,ISIC_0060659.JPG,ISIC_0033831.JPG,false,1,keypress(m),500,117828,117827,114580,114557,114597,117859,8,400,15,,ISIC_0060659.JPG
break,html.Screen,4_14_1,2023-10-31T21:01:07.825Z,,0,,,NaN,,,,,,false,,,,117828,117828,,117828,,117859,8,400,,,
break_continue,html.Screen,4_14_2,2023-10-31T21:01:07.825Z,,0,,,NaN,,,,,,false,,,,117829.00000000001,117829.00000000001,,117829.00000000001,,117859,8,400,,,
sequence,flow.Sequence,4_14,2023-10-31T21:01:07.826Z,,0,,,3232.0000000000146,completion,,,,,false,,,,117829.00000000001,117829.00000000001,114580,114557,114597,117859,8,400,,,
trial,html.Screen,4_15_0,2023-10-31T21:01:11.009Z,,0,1,,3169,response,ISIC_0025169.JPG,9,ISIC_3898738.JPG,ISIC_0025169.JPG,false,1,keypress(m),500,121012,121012,117843,117829.00000000001,117859,121043,8,400,16,,ISIC_3898738.JPG
break,html.Screen,4_15_1,2023-10-31T21:01:11.009Z,,0,,,NaN,,,,,,false,,,,121013,121012,,121012,,121043,8,400,,,
break_continue,html.Screen,4_15_2,2023-10-31T21:01:11.009Z,,0,,,NaN,,,,,,false,,,,121013,121013,,121013,,121043,8,400,,,
sequence,flow.Sequence,4_15,2023-10-31T21:01:11.010Z,,0,,,3154,completion,,,,,false,,,,121013,121013,117843,117829.00000000001,117859,121043,8,400,,,
trial,html.Screen,4_16_0,2023-10-31T21:01:13.736Z,,0,1,,2713,response,ISIC_0025265.JPG,11,ISIC_0067723.JPG,ISIC_0025265.JPG,false,1,keypress(m),500,123739,123739,121026,121013,121043,123778,8,400,17,,ISIC_0067723.JPG
break,html.Screen,4_16_1,2023-10-31T21:01:13.737Z,,0,,,NaN,,,,,,false,,,,123740.00000000001,123740.00000000001,,123739,,123778,8,400,,,
break_continue,html.Screen,4_16_2,2023-10-31T21:01:13.737Z,,0,,,NaN,,,,,,false,,,,123741,123740.00000000001,,123740.00000000001,,123778,8,400,,,
sequence,flow.Sequence,4_16,2023-10-31T21:01:13.737Z,,0,,,2697.0000000000146,completion,,,,,false,,,,123741,123740.00000000001,121026,121013,121043,123778,8,400,,,
trial,html.Screen,4_17_0,2023-10-31T21:01:16.528Z,,0,1,,2770,response,ISIC_4780541.JPG,13,ISIC_3305055.JPG,ISIC_4780541.JPG,false,1,keypress(m),500,126531,126531,123761,123741,123778,126567,8,400,18,,ISIC_3305055.JPG
break,html.Screen,4_17_1,2023-10-31T21:01:16.528Z,,0,,,NaN,,,,,,false,,,,126532,126532,,126532,,126567,8,400,,,
break_continue,html.Screen,4_17_2,2023-10-31T21:01:16.529Z,,0,,,NaN,,,,,,false,,,,126532,126532,,126532,,126567,8,400,,,
sequence,flow.Sequence,4_17,2023-10-31T21:01:16.529Z,,0,,,2754,completion,,,,,false,,,,126533,126532,123761,123741,123778,126567,8,400,,,
trial,html.Screen,4_18_0,2023-10-31T21:01:19.265Z,,0,1,,2719,response,ISIC_5294540.JPG,12,ISIC_0034233.JPG,ISIC_5294540.JPG,false,1,keypress(m),500,129268,129268,126549,126533,126567,129300,8,400,19,,ISIC_0034233.JPG
break,html.Screen,4_18_1,2023-10-31T21:01:19.265Z,,0,,,NaN,,,,,,false,,,,129269,129269,,129268,,129300,8,400,,,
break_continue,html.Screen,4_18_2,2023-10-31T21:01:19.265Z,,0,,,NaN,,,,,,false,,,,129269,129269,,129269,,129300,8,400,,,
sequence,flow.Sequence,4_18,2023-10-31T21:01:19.266Z,,0,,,2702,completion,,,,,false,,,,129269,129269,126549,126533,126567,129300,8,400,,,
trial,html.Screen,4_19_0,2023-10-31T21:01:22.040Z,,0,1,,2760,response,ISIC_1886756.JPG,11,ISIC_7802213.JPG,ISIC_7802213.JPG,false,0,keypress(z),500,132044,132044,129284,129270.00000000001,129300,132084,8,400,20,,ISIC_1886756.JPG
break,html.Screen,4_19_1,2023-10-31T21:01:22.041Z,,0,,,NaN,,,,,,false,,,,132045.00000000003,132045.00000000003,,132044,,132084,8,400,,,
break_continue,html.Screen,4_19_2,2023-10-31T21:01:22.041Z,,0,,,NaN,,,,,,false,,,,132045.00000000003,132045.00000000003,,132045.00000000003,,132084,8,400,,,
sequence,flow.Sequence,4_19,2023-10-31T21:01:22.042Z,,0,,,2745.000000000029,completion,,,,,false,,,,132045.00000000003,132045.00000000003,129284,129269,129300,132084,8,400,,,
trial,html.Screen,4_20_0,2023-10-31T21:01:24.952Z,,0,1,,2888,response,ISIC_0009903.JPG,13,ISIC_4280835.JPG,ISIC_4280835.JPG,false,0,keypress(z),500,134956,134956,132068,132045.00000000003,132084,134999,8,400,21,,ISIC_0009903.JPG
break,html.Screen,4_20_1,2023-10-31T21:01:24.953Z,,0,,,NaN,,,,,,false,,,,134956,134956,,134956,,134999,8,400,,,
break_continue,html.Screen,4_20_2,2023-10-31T21:01:24.953Z,,0,,,NaN,,,,,,false,,,,134957,134957,,134957,,134999,8,400,,,
sequence,flow.Sequence,4_20,2023-10-31T21:01:24.953Z,,0,,,2873,completion,,,,,false,,,,134957,134957,132068,132045.00000000003,132084,134999,8,400,,,
trial,html.Screen,4_21_0,2023-10-31T21:01:27.585Z,,0,1,,2605,response,ISIC_1089617.JPG,9,ISIC_0060679.JPG,ISIC_1089617.JPG,false,1,keypress(m),500,137588,137588,134983,134957,134999,137617,8,400,22,,ISIC_0060679.JPG
break,html.Screen,4_21_1,2023-10-31T21:01:27.585Z,,0,,,NaN,,,,,,false,,,,137589,137589,,137588,,137617,8,400,,,
break_continue,html.Screen,4_21_2,2023-10-31T21:01:27.585Z,,0,,,NaN,,,,,,false,,,,137589,137589,,137589,,137617,8,400,,,
sequence,flow.Sequence,4_21,2023-10-31T21:01:27.586Z,,0,,,2590,completion,,,,,false,,,,137589,137589,134983,134957,134999,137617,8,400,,,
trial,html.Screen,4_22_0,2023-10-31T21:01:30.127Z,,0,1,,2530,response,ISIC_5152859.JPG,10,ISIC_0182730.JPG,ISIC_5152859.JPG,false,1,keypress(m),500,140131,140131,137601,137590,137617,140169,8,400,23,,ISIC_0182730.JPG
break,html.Screen,4_22_1,2023-10-31T21:01:30.128Z,,0,,,NaN,,,,,,false,,,,140132,140131,,140131,,140169,8,400,,,
break_continue,html.Screen,4_22_2,2023-10-31T21:01:30.128Z,,0,,,NaN,,,,,,false,,,,140132,140132,,140132,,140169,8,400,,,
sequence,flow.Sequence,4_22,2023-10-31T21:01:30.128Z,,0,,,2515,completion,,,,,false,,,,140132,140132,137601,137590,137617,140169,8,400,,,
trial,html.Screen,4_23_0,2023-10-31T21:01:32.935Z,,0,1,,2786,response,ISIC_9509757.JPG,10,ISIC_7400458.JPG,ISIC_9509757.JPG,false,1,keypress(m),500,142939,142939,140153,140132,140169,142970,8,400,24,,ISIC_7400458.JPG
break,html.Screen,4_23_1,2023-10-31T21:01:32.936Z,,0,,,NaN,,,,,,false,,,,142940,142940,,142939,,142970,8,400,,,
break_continue,html.Screen,4_23_2,2023-10-31T21:01:32.936Z,,0,,,NaN,,,,,,false,,,,142940,142940,,142940,,142970,8,400,,,
sequence,flow.Sequence,4_23,2023-10-31T21:01:32.937Z,,0,,,2771,completion,,,,,false,,,,142940,142940,140153,140132,140169,142970,8,400,,,
trial,html.Screen,4_24_0,2023-10-31T21:01:35.559Z,,0,1,,2609.000000000029,response,ISIC_5758316.JPG,13,ISIC_6124481.JPG,ISIC_5758316.JPG,false,1,keypress(m),500,145563.00000000003,145563.00000000003,142954,142941,142970,145605,8,400,25,,ISIC_6124481.JPG
break,html.Screen,4_24_1,2023-10-31T21:01:35.560Z,,0,,,NaN,,,,,,false,,,,145564,145564,,145563.00000000003,,145605,8,400,,,
break_continue,html.Screen,4_24_2,2023-10-31T21:01:35.561Z,,0,,,NaN,,,,,,false,,,,145564,145564,,145564,,145605,8,400,,,
sequence,flow.Sequence,4_24,2023-10-31T21:01:35.561Z,,0,,,2594,completion,,,,,false,,,,145565,145564,142954,142940,142970,145605,8,400,,,
trial,html.Screen,4_25_0,2023-10-31T21:01:40.456Z,,0,1,,4870,response,ISIC_0028800.JPG,13,ISIC_0033368.JPG,ISIC_0028800.JPG,false,1,keypress(m),500,150460,150459,145589,145565,145605,150487,8,400,26,,ISIC_0033368.JPG
break,html.Screen,4_25_1,2023-10-31T21:01:40.456Z,,0,,,NaN,,,,,,false,,,,150460,150460,,150460,,150487,8,400,,,
break_continue,html.Screen,4_25_2,2023-10-31T21:01:40.456Z,,0,,,NaN,,,,,,false,,,,150460,150460,,150460,,150487,8,400,,,
sequence,flow.Sequence,4_25,2023-10-31T21:01:40.457Z,,0,,,4855,completion,,,,,false,,,,150461,150460,145589,145565,145605,150487,8,400,,,
trial,html.Screen,4_26_0,2023-10-31T21:01:43.223Z,,0,1,,2757,response,ISIC_0055675.JPG,11,ISIC_3323866.JPG,ISIC_3323866.JPG,false,0,keypress(z),500,153227,153227,150470,150461,150487,153253,8,400,27,,ISIC_0055675.JPG
break,html.Screen,4_26_1,2023-10-31T21:01:43.223Z,,0,,,NaN,,,,,,false,,,,153227,153227,,153227,,153253,8,400,,,
break_continue,html.Screen,4_26_2,2023-10-31T21:01:43.224Z,,0,,,NaN,,,,,,false,,,,153228,153228,,153228,,153253,8,400,,,
sequence,flow.Sequence,4_26,2023-10-31T21:01:43.224Z,,0,,,2741,completion,,,,,false,,,,153228,153228,150470,150461,150487,153253,8,400,,,
trial,html.Screen,4_27_0,2023-10-31T21:01:46.543Z,,0,1,,3310,response,ISIC_0000547.JPG,15,ISIC_0031958.JPG,ISIC_0000547.JPG,false,1,keypress(m),500,156547,156547,153237,153228,153253,156586,8,400,28,,ISIC_0031958.JPG
break,html.Screen,4_27_1,2023-10-31T21:01:46.544Z,,0,,,NaN,,,,,,false,,,,156548,156548,,156548,,156586,8,400,,,
break_continue,html.Screen,4_27_2,2023-10-31T21:01:46.544Z,,0,,,NaN,,,,,,false,,,,156548,156548,,156548,,156586,8,400,,,
sequence,flow.Sequence,4_27,2023-10-31T21:01:46.544Z,,0,,,3295,completion,,,,,false,,,,156548,156548,153237,153228,153253,156586,8,400,,,
trial,html.Screen,4_28_0,2023-10-31T21:01:50.663Z,,0,1,,4098,response,ISIC_8029613.JPG,9,ISIC_1479949.JPG,ISIC_8029613.JPG,false,1,keypress(m),500,160667,160667,156569,156549,156586,160700,8,400,29,,ISIC_1479949.JPG
break,html.Screen,4_28_1,2023-10-31T21:01:50.664Z,,0,,,NaN,,,,,,false,,,,160668,160668,,160667,,160700,8,400,,,
break_continue,html.Screen,4_28_2,2023-10-31T21:01:50.664Z,,0,,,NaN,,,,,,false,,,,160668,160668,,160668,,160700,8,400,,,
sequence,flow.Sequence,4_28,2023-10-31T21:01:50.664Z,,0,,,4082,completion,,,,,false,,,,160668,160668,156569,156549,156586,160700,8,400,,,
trial,html.Screen,4_29_0,2023-10-31T21:01:53.784Z,,0,1,,3105,response,ISIC_6533176.JPG,9,ISIC_5879418.JPG,ISIC_5879418.JPG,false,0,keypress(z),500,163788,163788,160683,160669,160700,163830,8,400,30,,ISIC_6533176.JPG
break,html.Screen,4_29_1,2023-10-31T21:01:53.784Z,,0,,,NaN,,,,,,false,,,,163788,163788,,163788,,163830,8,400,,,
break_continue,html.Screen,4_29_2,2023-10-31T21:01:53.785Z,,0,,,NaN,,,,,,false,,,,163789.00000000003,163789.00000000003,,163789.00000000003,,163830,8,400,,,
sequence,flow.Sequence,4_29,2023-10-31T21:01:53.785Z,,0,,,3089.000000000029,completion,,,,,false,,,,163789.00000000003,163789.00000000003,160683,160668,160700,163830,8,400,,,
trial,html.Screen,4_30_0,2023-10-31T21:01:56.479Z,,0,1,,2669,response,ISIC_7797655.JPG,9,ISIC_9828053.JPG,ISIC_9828053.JPG,false,0,keypress(z),500,166483,166483,163814,163789.00000000003,163830,166514,8,400,31,,ISIC_7797655.JPG
break,html.Screen,4_30_1,2023-10-31T21:01:56.479Z,,0,,,NaN,,,,,,false,,,,166484,166483,,166483,,166514,8,400,,,
break_continue,html.Screen,4_30_2,2023-10-31T21:01:56.480Z,,0,,,NaN,,,,,,false,,,,166484,166484,,166484,,166514,8,400,,,
sequence,flow.Sequence,4_30,2023-10-31T21:01:56.480Z,,0,,,2654,completion,,,,,false,,,,166484,166484,163814,163789.00000000003,163830,166514,8,400,,,
trial,html.Screen,4_31_0,2023-10-31T21:01:59.191Z,,0,1,,2697,response,ISIC_0026545.JPG,9,ISIC_4323070.JPG,ISIC_4323070.JPG,false,0,keypress(z),500,169196,169195,166498,166484,166514,169232,8,400,32,,ISIC_0026545.JPG
break,html.Screen,4_31_1,2023-10-31T21:01:59.192Z,,0,,,NaN,,,,,,false,,,,169196,169196,,169196,,169232,8,400,,,
break_continue,html.Screen,4_31_2,2023-10-31T21:01:59.192Z,,0,,,NaN,,,,,,false,,,,169197,169196,,169196,,169232,8,400,,,
sequence,flow.Sequence,4_31,2023-10-31T21:01:59.193Z,,0,,,2682,completion,,,,,false,,,,169197,169196,166498,166484,166514,169232,8,400,,,
trial,html.Screen,4_32_0,2023-10-31T21:02:01.759Z,,0,1,,2547,response,ISIC_0056271.JPG,10,ISIC_2861793.JPG,ISIC_2861793.JPG,false,0,keypress(z),500,171763,171763,169216,169197,169232,171805,8,400,33,,ISIC_0056271.JPG
break,html.Screen,4_32_1,2023-10-31T21:02:01.759Z,,0,,,NaN,,,,,,false,,,,171764,171763,,171763,,171805,8,400,,,
break_continue,html.Screen,4_32_2,2023-10-31T21:02:01.760Z,,0,,,NaN,,,,,,false,,,,171764,171764,,171764,,171805,8,400,,,
sequence,flow.Sequence,4_32,2023-10-31T21:02:01.760Z,,0,,,2532,completion,,,,,false,,,,171764,171764,169216,169197,169232,171805,8,400,,,
trial,html.Screen,4_33_0,2023-10-31T21:02:05.671Z,,0,1,,3887,response,ISIC_0012681.JPG,14,ISIC_0007029.JPG,ISIC_0007029.JPG,false,0,keypress(z),500,175676.00000000003,175675,171788,171764,171805,175712,8,400,34,,ISIC_0012681.JPG
break,html.Screen,4_33_1,2023-10-31T21:02:05.672Z,,0,,,NaN,,,,,,false,,,,175676.00000000003,175676.00000000003,,175676.00000000003,,175712,8,400,,,
break_continue,html.Screen,4_33_2,2023-10-31T21:02:05.672Z,,0,,,NaN,,,,,,false,,,,175677,175676.00000000003,,175676.00000000003,,175712,8,400,,,
sequence,flow.Sequence,4_33,2023-10-31T21:02:05.672Z,,0,,,3871.000000000029,completion,,,,,false,,,,175677,175676.00000000003,171788,171764,171805,175712,8,400,,,
trial,html.Screen,4_34_0,2023-10-31T21:02:08.615Z,,0,1,,2924,response,ISIC_0034107.JPG,9,ISIC_2633745.JPG,ISIC_2633745.JPG,false,0,keypress(z),500,178620,178619,175695,175677,175712,178661,8,400,35,,ISIC_0034107.JPG
break,html.Screen,4_34_1,2023-10-31T21:02:08.616Z,,0,,,NaN,,,,,,false,,,,178621,178620,,178620,,178661,8,400,,,
break_continue,html.Screen,4_34_2,2023-10-31T21:02:08.617Z,,0,,,NaN,,,,,,false,,,,178621,178621,,178621,,178661,8,400,,,
sequence,flow.Sequence,4_34,2023-10-31T21:02:08.617Z,,0,,,2909,completion,,,,,false,,,,178622,178621,175695,175677,175712,178661,8,400,,,
trial,html.Screen,4_35_0,2023-10-31T21:02:11.455Z,,0,1,,2815,response,ISIC_9107280.JPG,6,ISIC_9241732.JPG,ISIC_9241732.JPG,false,0,keypress(z),500,181460,181459,178644,178622,178661,181493,8,400,36,,ISIC_9107280.JPG
break,html.Screen,4_35_1,2023-10-31T21:02:11.456Z,,0,,,NaN,,,,,,false,,,,181460,181460,,181460,,181493,8,400,,,
break_continue,html.Screen,4_35_2,2023-10-31T21:02:11.456Z,,0,,,NaN,,,,,,false,,,,181461,181460,,181460,,181493,8,400,,,
sequence,flow.Sequence,4_35,2023-10-31T21:02:11.456Z,,0,,,2799,completion,,,,,false,,,,181461,181460,178644,178622,178661,181493,8,400,,,
trial,html.Screen,4_36_0,2023-10-31T21:02:14.769Z,,0,1,,3297,response,ISIC_8663971.JPG,14,ISIC_4307626.JPG,ISIC_8663971.JPG,false,1,keypress(m),500,184773,184773,181476,181461,181493,184806,8,400,37,,ISIC_4307626.JPG
break,html.Screen,4_36_1,2023-10-31T21:02:14.769Z,,0,,,NaN,,,,,,false,,,,184774,184774,,184773,,184806,8,400,,,
break_continue,html.Screen,4_36_2,2023-10-31T21:02:14.770Z,,0,,,NaN,,,,,,false,,,,184774,184774,,184774,,184806,8,400,,,
sequence,flow.Sequence,4_36,2023-10-31T21:02:14.770Z,,0,,,3281,completion,,,,,false,,,,184774,184774,181476,181461,181493,184806,8,400,,,
trial,html.Screen,4_37_0,2023-10-31T21:02:17.751Z,,0,1,,2966,response,ISIC_0056531.JPG,13,ISIC_1925623.JPG,ISIC_1925623.JPG,false,0,keypress(z),500,187755,187755,184789,184775,184806,187787,8,400,38,,ISIC_0056531.JPG
break,html.Screen,4_37_1,2023-10-31T21:02:17.751Z,,0,,,NaN,,,,,,false,,,,187756,187755,,187755,,187787,8,400,,,
break_continue,html.Screen,4_37_2,2023-10-31T21:02:17.752Z,,0,,,NaN,,,,,,false,,,,187756,187756,,187756,,187787,8,400,,,
sequence,flow.Sequence,4_37,2023-10-31T21:02:17.752Z,,0,,,2950,completion,,,,,false,,,,187756,187756,184789,184775,184806,187787,8,400,,,
trial,html.Screen,4_38_0,2023-10-31T21:02:20.887Z,,0,1,,3121,response,ISIC_0033121.JPG,11,ISIC_0028512.JPG,ISIC_0033121.JPG,false,1,keypress(m),500,190892,190892,187771,187756,187787,190935,8,400,39,,ISIC_0028512.JPG
break,html.Screen,4_38_1,2023-10-31T21:02:20.888Z,,0,,,NaN,,,,,,false,,,,190893,190892,,190892,,190935,8,400,,,
break_continue,html.Screen,4_38_2,2023-10-31T21:02:20.889Z,,0,,,NaN,,,,,,false,,,,190893,190893,,190893,,190935,8,400,,,
sequence,flow.Sequence,4_38,2023-10-31T21:02:20.889Z,,0,,,3106,completion,,,,,false,,,,190893,190893,187771,187756,187787,190935,8,400,,,
trial,html.Screen,4_39_0,2023-10-31T21:02:25.751Z,,0,1,,4837,response,ISIC_2457024.JPG,7,ISIC_2310935.JPG,ISIC_2457024.JPG,false,1,keypress(m),500,195755,195755,190918,190893,190935,195783,8,400,40,,ISIC_2310935.JPG
break,html.Screen,4_39_1,2023-10-31T21:02:25.752Z,,0,,,NaN,,,,,,false,,,,195756,195756,,195756,,195783,8,400,,,
break_continue,html.Screen,4_39_2,2023-10-31T21:02:25.752Z,,0,,,NaN,,,,,,false,,,,195756,195756,,195756,,195783,8,400,,,
sequence,flow.Sequence,4_39,2023-10-31T21:02:25.752Z,,0,,,4821,completion,,,,,false,,,,195757,195756,190918,190893,190935,195783,8,400,,,
trial,html.Screen,4_40_0,2023-10-31T21:02:29.943Z,,0,1,,4181,response,ISIC_0011356.JPG,10,ISIC_1109641.JPG,ISIC_1109641.JPG,false,0,keypress(z),500,199948,199948,195767,195757,195783,199988,8,400,41,,ISIC_0011356.JPG
break,html.Screen,4_40_1,2023-10-31T21:02:29.944Z,,0,,,NaN,,,,,,false,,,,199948,199948,,199948,,199988,8,400,,,
break_continue,html.Screen,4_40_2,2023-10-31T21:02:29.944Z,,0,,,NaN,,,,,,false,,,,199949,199949,,199949,,199988,8,400,,,
sequence,flow.Sequence,4_40,2023-10-31T21:02:29.944Z,,0,,,4166,completion,,,,,false,,,,199949,199949,195767,195757,195783,199988,8,400,,,
trial,html.Screen,4_41_0,2023-10-31T21:02:32.950Z,,0,1,,2983,response,ISIC_2513481.JPG,7,ISIC_0033204.JPG,ISIC_2513481.JPG,false,1,keypress(m),500,202955,202955,199972,199949,199988,202986,8,400,42,,ISIC_0033204.JPG
break,html.Screen,4_41_1,2023-10-31T21:02:32.951Z,,0,,,NaN,,,,,,false,,,,202956.00000000003,202956.00000000003,,202955,,202986,8,400,,,
break_continue,html.Screen,4_41_2,2023-10-31T21:02:32.951Z,,0,,,NaN,,,,,,false,,,,202956.00000000003,202956.00000000003,,202956.00000000003,,202986,8,400,,,
sequence,flow.Sequence,4_41,2023-10-31T21:02:32.952Z,,0,,,2968.000000000029,completion,,,,,false,,,,202956.00000000003,202956.00000000003,199972,199949,199988,202986,8,400,,,
trial,html.Screen,4_42_0,2023-10-31T21:02:39.049Z,,0,1,,6084,response,ISIC_6663112.JPG,9,ISIC_6571597.JPG,ISIC_6571597.JPG,false,0,keypress(z),500,209053,209053,202969,202956.00000000003,202986,209091,8,400,43,,ISIC_6663112.JPG
break,html.Screen,4_42_1,2023-10-31T21:02:39.049Z,,0,,,NaN,,,,,,false,,,,209054,209054,,209054,,209091,8,400,,,
break_continue,html.Screen,4_42_2,2023-10-31T21:02:39.049Z,,0,,,NaN,,,,,,false,,,,209054,209054,,209054,,209091,8,400,,,
sequence,flow.Sequence,4_42,2023-10-31T21:02:39.050Z,,0,,,6068,completion,,,,,false,,,,209054,209054,202969,202956.00000000003,202986,209091,8,400,,,
trial,html.Screen,4_43_0,2023-10-31T21:02:45.431Z,,0,1,,6362,response,ISIC_0072286.JPG,4,ISIC_0028878.JPG,ISIC_0072286.JPG,false,1,keypress(m),500,215436,215436,209074,209054,209091,215477,8,400,44,,ISIC_0028878.JPG
break,html.Screen,4_43_1,2023-10-31T21:02:45.432Z,,0,,,NaN,,,,,,false,,,,215437,215436,,215436,,215477,8,400,,,
break_continue,html.Screen,4_43_2,2023-10-31T21:02:45.432Z,,0,,,NaN,,,,,,false,,,,215437,215437,,215437,,215477,8,400,,,
sequence,flow.Sequence,4_43,2023-10-31T21:02:45.432Z,,0,,,6346,completion,,,,,false,,,,215437,215437,209074,209054,209091,215477,8,400,,,
trial,html.Screen,4_44_0,2023-10-31T21:02:48.730Z,,0,1,,3273,response,ISIC_0055440.JPG,12,ISIC_0046642.JPG,ISIC_0055440.JPG,false,1,keypress(m),500,218734,218734,215461,215437,215477,218773,8,400,45,,ISIC_0046642.JPG
break,html.Screen,4_44_1,2023-10-31T21:02:48.730Z,,0,,,NaN,,,,,,false,,,,218735,218735,,218735,,218773,8,400,,,
break_continue,html.Screen,4_44_2,2023-10-31T21:02:48.730Z,,0,,,NaN,,,,,,false,,,,218735,218735,,218735,,218773,8,400,,,
sequence,flow.Sequence,4_44,2023-10-31T21:02:48.730Z,,0,,,3258,completion,,,,,false,,,,218735,218735,215461,215437,215477,218773,8,400,,,
trial,html.Screen,4_45_0,2023-10-31T21:02:51.767Z,,0,1,,3016,response,ISIC_6531118.JPG,8,ISIC_1014075.JPG,ISIC_6531118.JPG,false,1,keypress(m),500,221772,221772,218756,218735,218773,221804,8,400,46,,ISIC_1014075.JPG
break,html.Screen,4_45_1,2023-10-31T21:02:51.768Z,,0,,,NaN,,,,,,false,,,,221773,221773,,221772,,221804,8,400,,,
break_continue,html.Screen,4_45_2,2023-10-31T21:02:51.768Z,,0,,,NaN,,,,,,false,,,,221773,221773,,221773,,221804,8,400,,,
sequence,flow.Sequence,4_45,2023-10-31T21:02:51.768Z,,0,,,3000,completion,,,,,false,,,,221773,221773,218756,218735,218773,221804,8,400,,,
trial,html.Screen,4_46_0,2023-10-31T21:02:54.791Z,,0,1,,3007.000000000029,response,ISIC_7544537.JPG,9,ISIC_0025759.JPG,ISIC_7544537.JPG,false,1,keypress(m),500,224796,224795.00000000003,221788,221773,221804,224827,8,400,47,,ISIC_0025759.JPG
break,html.Screen,4_46_1,2023-10-31T21:02:54.791Z,,0,,,NaN,,,,,,false,,,,224796,224796,,224796,,224827,8,400,,,
break_continue,html.Screen,4_46_2,2023-10-31T21:02:54.792Z,,0,,,NaN,,,,,,false,,,,224797,224796,,224796,,224827,8,400,,,
sequence,flow.Sequence,4_46,2023-10-31T21:02:54.792Z,,0,,,2992,completion,,,,,false,,,,224797,224796,221788,221773,221804,224827,8,400,,,
trial,html.Screen,4_47_0,2023-10-31T21:02:57.366Z,,0,1,,2560,response,ISIC_0009971.JPG,11,ISIC_0033799.JPG,ISIC_0009971.JPG,false,1,keypress(m),500,227371,227371,224811,224797,224827,227412,8,400,48,,ISIC_0033799.JPG
break,html.Screen,4_47_1,2023-10-31T21:02:57.367Z,,0,,,NaN,,,,,,false,,,,227372,227372,,227371,,227412,8,400,,,
break_continue,html.Screen,4_47_2,2023-10-31T21:02:57.367Z,,0,,,NaN,,,,,,false,,,,227372,227372,,227372,,227412,8,400,,,
sequence,flow.Sequence,4_47,2023-10-31T21:02:57.367Z,,0,,,2545,completion,,,,,false,,,,227372,227372,224811,224797,224827,227412,8,400,,,
trial,html.Screen,4_48_0,2023-10-31T21:03:00.977Z,,0,1,,3587,response,ISIC_3073339.JPG,9,ISIC_8959928.JPG,ISIC_8959928.JPG,false,0,keypress(z),500,230982,230981,227394,227372,227412,231022,8,400,49,,ISIC_3073339.JPG
break,html.Screen,4_48_1,2023-10-31T21:03:00.977Z,,0,,,NaN,,,,,,false,,,,230982,230982,,230982,,231022,8,400,,,
break_continue,html.Screen,4_48_2,2023-10-31T21:03:00.977Z,,0,,,NaN,,,,,,false,,,,230982,230982,,230982,,231022,8,400,,,
sequence,flow.Sequence,4_48,2023-10-31T21:03:00.977Z,,0,,,3570,completion,,,,,false,,,,230983,230982,227394,227372,227412,231022,8,400,,,
trial,html.Screen,4_49_0,2023-10-31T21:03:04.955Z,,0,1,,3954,response,ISIC_0059257.JPG,9,ISIC_0033324.JPG,ISIC_0059257.JPG,false,1,keypress(m),500,234960,234960,231006,230983,231022,234979,8,400,50,,ISIC_0033324.JPG
break,html.Screen,4_49_1,2023-10-31T21:03:14.960Z,,0,,,10003,timeout,,,,,false,,,,244965,244964,234962,234960,234979,244982,8,400,,,
break_continue,html.Screen,4_49_2,2023-10-31T21:03:20.343Z,,0,,,5381,response,,,,,false,continue,keypress(Space),,250348,250345,244964,244965,244982,250378,8,400,,,
sequence,flow.Sequence,4_49,2023-10-31T21:03:20.343Z,,0,,,19323,completion,,,,,false,,,,250349.00000000003,250345,231006,230983,231022,250378,8,400,,,
trial,html.Screen,4_50_0,2023-10-31T21:03:24.040Z,,0,2,,3684.000000000029,response,ISIC_7858034.JPG,7,ISIC_0033713.JPG,ISIC_7858034.JPG,false,1,keypress(m),500,254046,254045.00000000003,250361,250349.00000000003,250378,254080,8,400,1,,ISIC_0033713.JPG
break,html.Screen,4_50_1,2023-10-31T21:03:24.041Z,,0,,,NaN,,,,,,false,,,,254046,254046,,254046,,254080,8,400,,,
break_continue,html.Screen,4_50_2,2023-10-31T21:03:24.041Z,,0,,,NaN,,,,,,false,,,,254046,254046,,254046,,254080,8,400,,,
sequence,flow.Sequence,4_50,2023-10-31T21:03:24.041Z,,0,,,3668,completion,,,,,false,,,,254047,254046,250361,250349.00000000003,250378,254080,8,400,,,
trial,html.Screen,4_51_0,2023-10-31T21:03:27.505Z,,0,2,,3448,response,ISIC_0032005.JPG,9,ISIC_0031233.JPG,ISIC_0031233.JPG,false,0,keypress(z),500,257510,257510,254062,254047,254080,257550,8,400,2,,ISIC_0032005.JPG
break,html.Screen,4_51_1,2023-10-31T21:03:27.505Z,,0,,,NaN,,,,,,false,,,,257511.00000000003,257510,,257510,,257550,8,400,,,
break_continue,html.Screen,4_51_2,2023-10-31T21:03:27.506Z,,0,,,NaN,,,,,,false,,,,257511.00000000003,257511.00000000003,,257511.00000000003,,257550,8,400,,,
sequence,flow.Sequence,4_51,2023-10-31T21:03:27.506Z,,0,,,3431.000000000029,completion,,,,,false,,,,257511.00000000003,257511.00000000003,254062,254047,254080,257550,8,400,,,
trial,html.Screen,4_52_0,2023-10-31T21:03:30.312Z,,0,2,,2784,response,ISIC_0009908.JPG,3,ISIC_0098784.JPG,ISIC_0098784.JPG,false,0,keypress(z),500,260317,260317,257533,257511.00000000003,257550,260349,8,400,3,,ISIC_0009908.JPG
break,html.Screen,4_52_1,2023-10-31T21:03:30.313Z,,0,,,NaN,,,,,,false,,,,260317.99999999997,260317.99999999997,,260317.99999999997,,260349,8,400,,,
break_continue,html.Screen,4_52_2,2023-10-31T21:03:30.313Z,,0,,,NaN,,,,,,false,,,,260317.99999999997,260317.99999999997,,260317.99999999997,,260349,8,400,,,
sequence,flow.Sequence,4_52,2023-10-31T21:03:30.313Z,,0,,,2767.999999999971,completion,,,,,false,,,,260319.00000000003,260317.99999999997,257533,257511.00000000003,257550,260349,8,400,,,
trial,html.Screen,4_53_0,2023-10-31T21:03:33.048Z,,0,2,,2720,response,ISIC_0061441.JPG,6,ISIC_0071434.JPG,ISIC_0071434.JPG,false,0,keypress(z),500,263053,263053,260333,260319.00000000003,260349,263083,8,400,4,,ISIC_0061441.JPG
break,html.Screen,4_53_1,2023-10-31T21:03:33.049Z,,0,,,NaN,,,,,,false,,,,263054.00000000006,263054.00000000006,,263054.00000000006,,263083,8,400,,,
break_continue,html.Screen,4_53_2,2023-10-31T21:03:33.049Z,,0,,,NaN,,,,,,false,,,,263054.00000000006,263054.00000000006,,263054.00000000006,,263083,8,400,,,
sequence,flow.Sequence,4_53,2023-10-31T21:03:33.049Z,,0,,,2705.000000000058,completion,,,,,false,,,,263055,263054.00000000006,260333,260319.00000000003,260349,263083,8,400,,,
trial,html.Screen,4_54_0,2023-10-31T21:03:35.673Z,,0,2,,2611,response,ISIC_8693637.JPG,6,ISIC_1344537.JPG,ISIC_8693637.JPG,false,1,keypress(m),500,265678,265678,263067,263055,263083,265718,8,400,5,,ISIC_1344537.JPG
break,html.Screen,4_54_1,2023-10-31T21:03:35.673Z,,0,,,NaN,,,,,,false,,,,265679.00000000006,265679.00000000006,,265678,,265718,8,400,,,
break_continue,html.Screen,4_54_2,2023-10-31T21:03:35.674Z,,0,,,NaN,,,,,,false,,,,265679.00000000006,265679.00000000006,,265679.00000000006,,265718,8,400,,,
sequence,flow.Sequence,4_54,2023-10-31T21:03:35.674Z,,0,,,2596.000000000058,completion,,,,,false,,,,265679.00000000006,265679.00000000006,263067,263055,263083,265718,8,400,,,
trial,html.Screen,4_55_0,2023-10-31T21:03:38.233Z,,0,2,,2537,response,ISIC_2863397.JPG,13,ISIC_0067719.JPG,ISIC_2863397.JPG,false,1,keypress(m),500,268238,268238,265701,265680,265718,268270,8,400,6,,ISIC_0067719.JPG
break,html.Screen,4_55_1,2023-10-31T21:03:38.233Z,,0,,,NaN,,,,,,false,,,,268239.00000000006,268239.00000000006,,268238,,268270,8,400,,,
break_continue,html.Screen,4_55_2,2023-10-31T21:03:38.234Z,,0,,,NaN,,,,,,false,,,,268239.00000000006,268239.00000000006,,268239.00000000006,,268270,8,400,,,
sequence,flow.Sequence,4_55,2023-10-31T21:03:38.234Z,,0,,,2521.000000000058,completion,,,,,false,,,,268239.00000000006,268239.00000000006,265701,265680,265718,268270,8,400,,,
trial,html.Screen,4_56_0,2023-10-31T21:03:41.128Z,,0,2,,2880,response,ISIC_0561249.JPG,16,ISIC_0014290.JPG,ISIC_0561249.JPG,false,1,keypress(m),500,271134,271134,268254,268239.00000000006,268270,271167,8,400,7,,ISIC_0014290.JPG
break,html.Screen,4_56_1,2023-10-31T21:03:41.129Z,,0,,,NaN,,,,,,false,,,,271134,271134,,271134,,271167,8,400,,,
break_continue,html.Screen,4_56_2,2023-10-31T21:03:41.129Z,,0,,,NaN,,,,,,false,,,,271135,271135,,271135,,271167,8,400,,,
sequence,flow.Sequence,4_56,2023-10-31T21:03:41.130Z,,0,,,2865,completion,,,,,false,,,,271135,271135,268254,268239.00000000006,268270,271167,8,400,,,
trial,html.Screen,4_57_0,2023-10-31T21:03:44.207Z,,0,2,,3062,response,ISIC_5922588.JPG,4,ISIC_7100755.JPG,ISIC_7100755.JPG,false,0,keypress(z),500,274213,274213,271151,271135,271167,274243,8,400,8,,ISIC_5922588.JPG
break,html.Screen,4_57_1,2023-10-31T21:03:44.208Z,,0,,,NaN,,,,,,false,,,,274214,274213,,274213,,274243,8,400,,,
break_continue,html.Screen,4_57_2,2023-10-31T21:03:44.208Z,,0,,,NaN,,,,,,false,,,,274214,274214,,274214,,274243,8,400,,,
sequence,flow.Sequence,4_57,2023-10-31T21:03:44.208Z,,0,,,3047,completion,,,,,false,,,,274214,274214,271151,271135,271167,274243,8,400,,,
trial,html.Screen,4_58_0,2023-10-31T21:03:46.769Z,,0,2,,2547,response,ISIC_6392478.JPG,6,ISIC_7798403.JPG,ISIC_6392478.JPG,false,1,keypress(m),500,276775.00000000006,276774,274227,274214,274243,276812,8,400,9,,ISIC_7798403.JPG
break,html.Screen,4_58_1,2023-10-31T21:03:46.771Z,,0,,,NaN,,,,,,false,,,,276777,276776,,276775.00000000006,,276812,8,400,,,
break_continue,html.Screen,4_58_2,2023-10-31T21:03:46.772Z,,0,,,NaN,,,,,,false,,,,276777,276777,,276777,,276812,8,400,,,
sequence,flow.Sequence,4_58,2023-10-31T21:03:46.772Z,,0,,,2534,completion,,,,,false,,,,276778,276777,274227,274214,274243,276812,8,400,,,
trial,html.Screen,4_59_0,2023-10-31T21:03:49.569Z,,0,2,,2779,response,ISIC_0011140.JPG,8,ISIC_0032147.JPG,ISIC_0032147.JPG,false,0,keypress(z),500,279574,279574,276795,276778,276812,279612,8,400,10,,ISIC_0011140.JPG
break,html.Screen,4_59_1,2023-10-31T21:03:49.569Z,,0,,,NaN,,,,,,false,,,,279575,279575,,279574,,279612,8,400,,,
break_continue,html.Screen,4_59_2,2023-10-31T21:03:49.570Z,,0,,,NaN,,,,,,false,,,,279575,279575,,279575,,279612,8,400,,,
sequence,flow.Sequence,4_59,2023-10-31T21:03:49.570Z,,0,,,2763,completion,,,,,false,,,,279575,279575,276795,276778,276812,279612,8,400,,,
trial,html.Screen,4_60_0,2023-10-31T21:03:52.664Z,,0,2,,3073,response,ISIC_0069505.JPG,8,ISIC_4174983.JPG,ISIC_4174983.JPG,false,0,keypress(z),500,282669,282669,279596,279576,279612,282709,8,400,11,,ISIC_0069505.JPG
break,html.Screen,4_60_1,2023-10-31T21:03:52.664Z,,0,,,NaN,,,,,,false,,,,282670,282670,,282670,,282709,8,400,,,
break_continue,html.Screen,4_60_2,2023-10-31T21:03:52.665Z,,0,,,NaN,,,,,,false,,,,282670,282670,,282670,,282709,8,400,,,
sequence,flow.Sequence,4_60,2023-10-31T21:03:52.665Z,,0,,,3058,completion,,,,,false,,,,282671,282670,279596,279576,279612,282709,8,400,,,
trial,html.Screen,4_61_0,2023-10-31T21:03:55.121Z,,0,2,,2433.000000000058,response,ISIC_3209501.JPG,10,ISIC_0254447.JPG,ISIC_3209501.JPG,false,1,keypress(m),500,285126.00000000006,285126.00000000006,282693,282671,282709,285163,8,400,12,,ISIC_0254447.JPG
break,html.Screen,4_61_1,2023-10-31T21:03:55.121Z,,0,,,NaN,,,,,,false,,,,285127,285127,,285126.00000000006,,285163,8,400,,,
break_continue,html.Screen,4_61_2,2023-10-31T21:03:55.121Z,,0,,,NaN,,,,,,false,,,,285127,285127,,285127,,285163,8,400,,,
sequence,flow.Sequence,4_61,2023-10-31T21:03:55.122Z,,0,,,2418,completion,,,,,false,,,,285127,285127,282693,282671,282709,285163,8,400,,,
trial,html.Screen,4_62_0,2023-10-31T21:03:57.584Z,,0,2,,2444.000000000058,response,ISIC_2902328.JPG,9,ISIC_7429127.JPG,ISIC_2902328.JPG,false,1,keypress(m),500,287590.00000000006,287590.00000000006,285146,285127,285163,287626,8,400,13,,ISIC_7429127.JPG
break,html.Screen,4_62_1,2023-10-31T21:03:57.585Z,,0,,,NaN,,,,,,false,,,,287591,287591,,287590.00000000006,,287626,8,400,,,
break_continue,html.Screen,4_62_2,2023-10-31T21:03:57.585Z,,0,,,NaN,,,,,,false,,,,287591,287591,,287591,,287626,8,400,,,
sequence,flow.Sequence,4_62,2023-10-31T21:03:57.585Z,,0,,,2428,completion,,,,,false,,,,287591,287591,285146,285127,285163,287626,8,400,,,
trial,html.Screen,4_63_0,2023-10-31T21:04:00.752Z,,0,2,,3149,response,ISIC_0025316.JPG,9,ISIC_0015969.JPG,ISIC_0025316.JPG,false,1,keypress(m),500,290758,290758,287609,287591,287626,290788,8,400,14,,ISIC_0015969.JPG
break,html.Screen,4_63_1,2023-10-31T21:04:00.752Z,,0,,,NaN,,,,,,false,,,,290758,290758,,290758,,290788,8,400,,,
break_continue,html.Screen,4_63_2,2023-10-31T21:04:00.752Z,,0,,,NaN,,,,,,false,,,,290758,290758,,290758,,290788,8,400,,,
sequence,flow.Sequence,4_63,2023-10-31T21:04:00.753Z,,0,,,3132,completion,,,,,false,,,,290759,290758,287609,287591,287626,290788,8,400,,,
trial,html.Screen,4_64_0,2023-10-31T21:04:03.432Z,,0,2,,2665,response,ISIC_1912589.JPG,15,ISIC_7888672.JPG,ISIC_1912589.JPG,false,1,keypress(m),500,293438,293437,290772,290759,290788,293472,8,400,15,,ISIC_7888672.JPG
break,html.Screen,4_64_1,2023-10-31T21:04:03.432Z,,0,,,NaN,,,,,,false,,,,293438,293438,,293438,,293472,8,400,,,
break_continue,html.Screen,4_64_2,2023-10-31T21:04:03.434Z,,0,,,NaN,,,,,,false,,,,293440,293440,,293440,,293472,8,400,,,
sequence,flow.Sequence,4_64,2023-10-31T21:04:03.434Z,,0,,,2652,completion,,,,,false,,,,293440,293440,290772,290759,290788,293472,8,400,,,
trial,html.Screen,4_65_0,2023-10-31T21:04:05.887Z,,0,2,,2437,response,ISIC_0013579.JPG,8,ISIC_4280835.JPG,ISIC_0013579.JPG,false,1,keypress(m),500,295893,295893,293456,293440,293472,295937,8,400,16,,ISIC_4280835.JPG
break,html.Screen,4_65_1,2023-10-31T21:04:05.888Z,,0,,,NaN,,,,,,false,,,,295894,295894,,295894,,295937,8,400,,,
break_continue,html.Screen,4_65_2,2023-10-31T21:04:05.889Z,,0,,,NaN,,,,,,false,,,,295895,295894,,295894,,295937,8,400,,,
sequence,flow.Sequence,4_65,2023-10-31T21:04:05.889Z,,0,,,2422,completion,,,,,false,,,,295895,295894,293456,293440,293472,295937,8,400,,,
trial,html.Screen,4_66_0,2023-10-31T21:04:08.383Z,,0,2,,2468,response,ISIC_6548307.JPG,9,ISIC_0032532.JPG,ISIC_6548307.JPG,false,1,keypress(m),500,298389,298389,295921,295895,295937,298421,8,400,17,,ISIC_0032532.JPG
break,html.Screen,4_66_1,2023-10-31T21:04:08.384Z,,0,,,NaN,,,,,,false,,,,298390,298390,,298389,,298421,8,400,,,
break_continue,html.Screen,4_66_2,2023-10-31T21:04:08.384Z,,0,,,NaN,,,,,,false,,,,298390,298390,,298390,,298421,8,400,,,
sequence,flow.Sequence,4_66,2023-10-31T21:04:08.384Z,,0,,,2453,completion,,,,,false,,,,298390,298390,295921,295895,295937,298421,8,400,,,
trial,html.Screen,4_67_0,2023-10-31T21:04:11.048Z,,0,2,,2649.000000000058,response,ISIC_9751601.JPG,15,ISIC_0006327.JPG,ISIC_0006327.JPG,false,0,keypress(z),500,301054.00000000006,301054.00000000006,298405,298390,298421,301072,8,400,18,,ISIC_9751601.JPG
break,html.Screen,4_67_1,2023-10-31T21:04:11.048Z,,0,,,NaN,,,,,,false,,,,301054.00000000006,301054.00000000006,,301054.00000000006,,301072,8,400,,,
break_continue,html.Screen,4_67_2,2023-10-31T21:04:11.048Z,,0,,,NaN,,,,,,false,,,,301054.00000000006,301054.00000000006,,301054.00000000006,,301072,8,400,,,
sequence,flow.Sequence,4_67,2023-10-31T21:04:11.049Z,,0,,,2633.000000000058,completion,,,,,false,,,,301055,301054.00000000006,298405,298390,298421,301072,8,400,,,
trial,html.Screen,4_68_0,2023-10-31T21:04:14.516Z,,0,2,,3466,response,ISIC_2647198.JPG,1,ISIC_0064102.JPG,ISIC_2647198.JPG,false,1,keypress(m),500,304522,304522,301056,301055,301072,304555,8,400,19,,ISIC_0064102.JPG
break,html.Screen,4_68_1,2023-10-31T21:04:14.517Z,,0,,,NaN,,,,,,false,,,,304523,304523,,304522,,304555,8,400,,,
break_continue,html.Screen,4_68_2,2023-10-31T21:04:14.517Z,,0,,,NaN,,,,,,false,,,,304523,304523,,304523,,304555,8,400,,,
sequence,flow.Sequence,4_68,2023-10-31T21:04:14.517Z,,0,,,3451,completion,,,,,false,,,,304523,304523,301056,301055,301072,304555,8,400,,,
trial,html.Screen,4_69_0,2023-10-31T21:04:17.148Z,,0,2,,2615,response,ISIC_0033157.JPG,7,ISIC_0011960.JPG,ISIC_0033157.JPG,false,1,keypress(m),500,307154,307154,304539,304523,304555,307189,8,400,20,,ISIC_0011960.JPG
break,html.Screen,4_69_1,2023-10-31T21:04:17.149Z,,0,,,NaN,,,,,,false,,,,307155.00000000006,307155.00000000006,,307154,,307189,8,400,,,
break_continue,html.Screen,4_69_2,2023-10-31T21:04:17.149Z,,0,,,NaN,,,,,,false,,,,307155.00000000006,307155.00000000006,,307155.00000000006,,307189,8,400,,,
sequence,flow.Sequence,4_69,2023-10-31T21:04:17.149Z,,0,,,2600.000000000058,completion,,,,,false,,,,307155.00000000006,307155.00000000006,304539,304523,304555,307189,8,400,,,
trial,html.Screen,4_70_0,2023-10-31T21:04:19.892Z,,0,2,,2725,response,ISIC_6920867.JPG,0,ISIC_0065746.JPG,ISIC_0065746.JPG,false,0,keypress(z),500,309898,309898,307173,307155.00000000006,307189,309932,8,400,21,,ISIC_6920867.JPG
break,html.Screen,4_70_1,2023-10-31T21:04:19.892Z,,0,,,NaN,,,,,,false,,,,309898,309898,,309898,,309932,8,400,,,
break_continue,html.Screen,4_70_2,2023-10-31T21:04:19.892Z,,0,,,NaN,,,,,,false,,,,309898,309898,,309898,,309932,8,400,,,
sequence,flow.Sequence,4_70,2023-10-31T21:04:19.892Z,,0,,,2709,completion,,,,,false,,,,309899,309898,307173,307155.00000000006,307189,309932,8,400,,,
trial,html.Screen,4_71_0,2023-10-31T21:04:22.459Z,,0,2,,2550.000000000058,response,ISIC_2173158.JPG,7,ISIC_3002956.JPG,ISIC_2173158.JPG,false,1,keypress(m),500,312466,312465.00000000006,309915,309899,309932,312501,8,400,22,,ISIC_3002956.JPG
break,html.Screen,4_71_1,2023-10-31T21:04:22.460Z,,0,,,NaN,,,,,,false,,,,312466,312466,,312466,,312501,8,400,,,
break_continue,html.Screen,4_71_2,2023-10-31T21:04:22.461Z,,0,,,NaN,,,,,,false,,,,312467,312467,,312466,,312501,8,400,,,
sequence,flow.Sequence,4_71,2023-10-31T21:04:22.461Z,,0,,,2535,completion,,,,,false,,,,312467,312467,309915,309899,309932,312501,8,400,,,
trial,html.Screen,4_72_0,2023-10-31T21:04:25.881Z,,0,2,,3405.000000000058,response,ISIC_1607865.JPG,1,ISIC_1410408.JPG,ISIC_1410408.JPG,false,0,keypress(z),500,315888.00000000006,315888.00000000006,312483,312467,312501,315929,8,400,23,,ISIC_1607865.JPG
break,html.Screen,4_72_1,2023-10-31T21:04:25.882Z,,0,,,NaN,,,,,,false,,,,315888.00000000006,315888.00000000006,,315888.00000000006,,315929,8,400,,,
break_continue,html.Screen,4_72_2,2023-10-31T21:04:25.882Z,,0,,,NaN,,,,,,false,,,,315889,315888.00000000006,,315888.00000000006,,315929,8,400,,,
sequence,flow.Sequence,4_72,2023-10-31T21:04:25.883Z,,0,,,3387.000000000058,completion,,,,,false,,,,315889,315888.00000000006,312483,312467,312501,315929,8,400,,,
trial,html.Screen,4_73_0,2023-10-31T21:04:29.057Z,,0,2,,3151,response,ISIC_5213829.JPG,9,ISIC_2717192.JPG,ISIC_5213829.JPG,false,1,keypress(m),500,319063,319063,315912,315889,315929,319092,8,400,24,,ISIC_2717192.JPG
break,html.Screen,4_73_1,2023-10-31T21:04:29.058Z,,0,,,NaN,,,,,,false,,,,319064,319064,,319063,,319092,8,400,,,
break_continue,html.Screen,4_73_2,2023-10-31T21:04:29.058Z,,0,,,NaN,,,,,,false,,,,319064,319064,,319064,,319092,8,400,,,
sequence,flow.Sequence,4_73,2023-10-31T21:04:29.058Z,,0,,,3135,completion,,,,,false,,,,319064,319064,315912,315889,315929,319092,8,400,,,
trial,html.Screen,4_74_0,2023-10-31T21:04:32.313Z,,0,2,,3244,response,ISIC_6384906.JPG,12,ISIC_0027276.JPG,ISIC_6384906.JPG,false,1,keypress(m),500,322319,322319,319075,319064,319092,322355,8,400,25,,ISIC_0027276.JPG
break,html.Screen,4_74_1,2023-10-31T21:04:32.314Z,,0,,,NaN,,,,,,false,,,,322320,322320,,322320,,322355,8,400,,,
break_continue,html.Screen,4_74_2,2023-10-31T21:04:32.314Z,,0,,,NaN,,,,,,false,,,,322320,322320,,322320,,322355,8,400,,,
sequence,flow.Sequence,4_74,2023-10-31T21:04:32.314Z,,0,,,3228,completion,,,,,false,,,,322320,322320,319075,319064,319092,322355,8,400,,,
trial,html.Screen,4_75_0,2023-10-31T21:04:35.184Z,,0,2,,2852,response,ISIC_0024980.JPG,7,ISIC_0000450.JPG,ISIC_0024980.JPG,false,1,keypress(m),500,325191.00000000006,325190,322338,322321,322355,325220,8,400,26,,ISIC_0000450.JPG
break,html.Screen,4_75_1,2023-10-31T21:04:35.185Z,,0,,,NaN,,,,,,false,,,,325191.00000000006,325191.00000000006,,325191.00000000006,,325220,8,400,,,
break_continue,html.Screen,4_75_2,2023-10-31T21:04:35.185Z,,0,,,NaN,,,,,,false,,,,325192,325192,,325191.00000000006,,325220,8,400,,,
sequence,flow.Sequence,4_75,2023-10-31T21:04:35.185Z,,0,,,2837,completion,,,,,false,,,,325192,325192,322338,322321,322355,325220,8,400,,,
trial,html.Screen,4_76_0,2023-10-31T21:04:38.977Z,,0,2,,3779,response,ISIC_4293419.JPG,9,ISIC_0027060.JPG,ISIC_4293419.JPG,false,1,keypress(m),500,328984,328983,325204,325192,325220,329005,8,400,27,,ISIC_0027060.JPG
break,html.Screen,4_76_1,2023-10-31T21:04:38.978Z,,0,,,NaN,,,,,,false,,,,328984,328984,,328984,,329005,8,400,,,
break_continue,html.Screen,4_76_2,2023-10-31T21:04:38.978Z,,0,,,NaN,,,,,,false,,,,328984,328984,,328984,,329005,8,400,,,
sequence,flow.Sequence,4_76,2023-10-31T21:04:38.978Z,,0,,,3764,completion,,,,,false,,,,328985,328984,325204,325192,325220,329005,8,400,,,
trial,html.Screen,4_77_0,2023-10-31T21:04:41.952Z,,0,2,,2969,response,ISIC_8028631.JPG,10,ISIC_7025208.JPG,ISIC_7025208.JPG,false,0,keypress(z),500,331959,331958,328989,328985,329005,331990,8,400,28,,ISIC_8028631.JPG
break,html.Screen,4_77_1,2023-10-31T21:04:41.953Z,,0,,,NaN,,,,,,false,,,,331959,331959,,331959,,331990,8,400,,,
break_continue,html.Screen,4_77_2,2023-10-31T21:04:41.953Z,,0,,,NaN,,,,,,false,,,,331960,331959,,331959,,331990,8,400,,,
sequence,flow.Sequence,4_77,2023-10-31T21:04:41.953Z,,0,,,2954,completion,,,,,false,,,,331960,331959,328989,328985,329005,331990,8,400,,,
trial,html.Screen,4_78_0,2023-10-31T21:04:45.136Z,,0,2,,3168,response,ISIC_3792196.JPG,0,ISIC_1020968.JPG,ISIC_3792196.JPG,false,1,keypress(m),500,335142,335142,331974,331960,331990,335174,8,400,29,,ISIC_1020968.JPG
break,html.Screen,4_78_1,2023-10-31T21:04:45.136Z,,0,,,NaN,,,,,,false,,,,335143,335143,,335142,,335174,8,400,,,
break_continue,html.Screen,4_78_2,2023-10-31T21:04:45.136Z,,0,,,NaN,,,,,,false,,,,335143,335143,,335143,,335174,8,400,,,
sequence,flow.Sequence,4_78,2023-10-31T21:04:45.137Z,,0,,,3153,completion,,,,,false,,,,335143,335143,331974,331960,331990,335174,8,400,,,
trial,html.Screen,4_79_0,2023-10-31T21:04:48.018Z,,0,2,,2865,response,ISIC_0000036.JPG,11,ISIC_0026552.JPG,ISIC_0026552.JPG,false,0,keypress(z),500,338025.00000000006,338023,335158,335143,335174,338057,8,400,30,,ISIC_0000036.JPG
break,html.Screen,4_79_1,2023-10-31T21:04:48.019Z,,0,,,NaN,,,,,,false,,,,338025.00000000006,338025.00000000006,,338025.00000000006,,338057,8,400,,,
break_continue,html.Screen,4_79_2,2023-10-31T21:04:48.019Z,,0,,,NaN,,,,,,false,,,,338026,338026,,338026,,338057,8,400,,,
sequence,flow.Sequence,4_79,2023-10-31T21:04:48.020Z,,0,,,2852,completion,,,,,false,,,,338026,338026,335158,335143,335174,338057,8,400,,,
trial,html.Screen,4_80_0,2023-10-31T21:04:51.632Z,,0,2,,3598,response,ISIC_0024675.JPG,9,ISIC_0024990.JPG,ISIC_0024990.JPG,false,0,keypress(z),500,341639,341639,338041,338026,338057,341666,8,400,31,,ISIC_0024675.JPG
break,html.Screen,4_80_1,2023-10-31T21:04:51.633Z,,0,,,NaN,,,,,,false,,,,341639,341639,,341639,,341666,8,400,,,
break_continue,html.Screen,4_80_2,2023-10-31T21:04:51.633Z,,0,,,NaN,,,,,,false,,,,341640,341640,,341640,,341666,8,400,,,
sequence,flow.Sequence,4_80,2023-10-31T21:04:51.633Z,,0,,,3583,completion,,,,,false,,,,341640,341640,338041,338026,338057,341666,8,400,,,
trial,html.Screen,4_81_0,2023-10-31T21:04:54.705Z,,0,2,,3062,response,ISIC_0029718.JPG,8,ISIC_0033995.JPG,ISIC_0029718.JPG,false,1,keypress(m),500,344712,344712,341650,341640,341666,344747,8,400,32,,ISIC_0033995.JPG
break,html.Screen,4_81_1,2023-10-31T21:04:54.706Z,,0,,,NaN,,,,,,false,,,,344712,344712,,344712,,344747,8,400,,,
break_continue,html.Screen,4_81_2,2023-10-31T21:04:54.706Z,,0,,,NaN,,,,,,false,,,,344713,344712,,344712,,344747,8,400,,,
sequence,flow.Sequence,4_81,2023-10-31T21:04:54.706Z,,0,,,3046,completion,,,,,false,,,,344713,344712,341650,341640,341666,344747,8,400,,,
trial,html.Screen,4_82_0,2023-10-31T21:04:57.770Z,,0,2,,3046,response,ISIC_1735204.JPG,2,ISIC_8622365.JPG,ISIC_8622365.JPG,false,0,keypress(z),500,347777,347777,344731,344713,344747,347812,8,400,33,,ISIC_1735204.JPG
break,html.Screen,4_82_1,2023-10-31T21:04:57.771Z,,0,,,NaN,,,,,,false,,,,347778,347777,,347777,,347812,8,400,,,
break_continue,html.Screen,4_82_2,2023-10-31T21:04:57.771Z,,0,,,NaN,,,,,,false,,,,347778,347778,,347778,,347812,8,400,,,
sequence,flow.Sequence,4_82,2023-10-31T21:04:57.772Z,,0,,,3031,completion,,,,,false,,,,347778,347778,344731,344713,344747,347812,8,400,,,
trial,html.Screen,4_83_0,2023-10-31T21:05:01.806Z,,0,2,,4016,response,ISIC_1495793.JPG,6,ISIC_2396791.JPG,ISIC_1495793.JPG,false,1,keypress(m),500,351813,351812,347796,347778,347812,351834,8,400,34,,ISIC_2396791.JPG
break,html.Screen,4_83_1,2023-10-31T21:05:01.806Z,,0,,,NaN,,,,,,false,,,,351813,351813,,351813,,351834,8,400,,,
break_continue,html.Screen,4_83_2,2023-10-31T21:05:01.807Z,,0,,,NaN,,,,,,false,,,,351813,351813,,351813,,351834,8,400,,,
sequence,flow.Sequence,4_83,2023-10-31T21:05:01.807Z,,0,,,4001,completion,,,,,false,,,,351813,351813,347796,347778,347812,351834,8,400,,,
trial,html.Screen,4_84_0,2023-10-31T21:05:04.397Z,,0,2,,2586,response,ISIC_0011801.JPG,9,ISIC_7755106.JPG,ISIC_7755106.JPG,false,0,keypress(z),500,354404,354404,351818,351814,351834,354436,8,400,35,,ISIC_0011801.JPG
break,html.Screen,4_84_1,2023-10-31T21:05:04.398Z,,0,,,NaN,,,,,,false,,,,354405.00000000006,354405.00000000006,,354404,,354436,8,400,,,
break_continue,html.Screen,4_84_2,2023-10-31T21:05:04.399Z,,0,,,NaN,,,,,,false,,,,354405.00000000006,354405.00000000006,,354405.00000000006,,354436,8,400,,,
sequence,flow.Sequence,4_84,2023-10-31T21:05:04.399Z,,0,,,2571.000000000058,completion,,,,,false,,,,354405.00000000006,354405.00000000006,351818,351814,351834,354436,8,400,,,
trial,html.Screen,4_85_0,2023-10-31T21:05:07.094Z,,0,2,,2680,response,ISIC_6938608.JPG,5,ISIC_0014133.JPG,ISIC_0014133.JPG,false,0,keypress(z),500,357101,357100,354420,354406,354436,357138,8,400,36,,ISIC_6938608.JPG
break,html.Screen,4_85_1,2023-10-31T21:05:07.094Z,,0,,,NaN,,,,,,false,,,,357101,357101,,357101,,357138,8,400,,,
break_continue,html.Screen,4_85_2,2023-10-31T21:05:07.095Z,,0,,,NaN,,,,,,false,,,,357102.00000000006,357101,,357101,,357138,8,400,,,
sequence,flow.Sequence,4_85,2023-10-31T21:05:07.095Z,,0,,,2665,completion,,,,,false,,,,357102.00000000006,357101,354420,354406,354436,357138,8,400,,,
trial,html.Screen,4_86_0,2023-10-31T21:05:09.742Z,,0,2,,2627,response,ISIC_0011704.JPG,5,ISIC_9303849.JPG,ISIC_9303849.JPG,false,0,keypress(z),500,359748,359748,357121,357102.00000000006,357138,359789,8,400,37,,ISIC_0011704.JPG
break,html.Screen,4_86_1,2023-10-31T21:05:09.742Z,,0,,,NaN,,,,,,false,,,,359749,359749,,359749,,359789,8,400,,,
break_continue,html.Screen,4_86_2,2023-10-31T21:05:09.742Z,,0,,,NaN,,,,,,false,,,,359749,359749,,359749,,359789,8,400,,,
sequence,flow.Sequence,4_86,2023-10-31T21:05:09.743Z,,0,,,2611,completion,,,,,false,,,,359749,359749,357121,357102.00000000006,357138,359789,8,400,,,
trial,html.Screen,4_87_0,2023-10-31T21:05:12.237Z,,0,2,,2472,response,ISIC_0034202.JPG,13,ISIC_6952773.JPG,ISIC_6952773.JPG,false,0,keypress(z),500,362244,362244,359772,359750,359789,362275,8,400,38,,ISIC_0034202.JPG
break,html.Screen,4_87_1,2023-10-31T21:05:12.238Z,,0,,,NaN,,,,,,false,,,,362245,362245,,362244,,362275,8,400,,,
break_continue,html.Screen,4_87_2,2023-10-31T21:05:12.238Z,,0,,,NaN,,,,,,false,,,,362245,362245,,362245,,362275,8,400,,,
sequence,flow.Sequence,4_87,2023-10-31T21:05:12.238Z,,0,,,2456,completion,,,,,false,,,,362245,362245,359772,359750,359789,362275,8,400,,,
trial,html.Screen,4_88_0,2023-10-31T21:05:14.758Z,,0,2,,2506,response,ISIC_9927221.JPG,12,ISIC_6127074.JPG,ISIC_9927221.JPG,false,1,keypress(m),500,364764,364764,362258,362245,362275,364794,8,400,39,,ISIC_6127074.JPG
break,html.Screen,4_88_1,2023-10-31T21:05:14.758Z,,0,,,NaN,,,,,,false,,,,364765,364765,,364765,,364794,8,400,,,
break_continue,html.Screen,4_88_2,2023-10-31T21:05:14.758Z,,0,,,NaN,,,,,,false,,,,364765,364765,,364765,,364794,8,400,,,
sequence,flow.Sequence,4_88,2023-10-31T21:05:14.758Z,,0,,,2490,completion,,,,,false,,,,364765,364765,362258,362245,362275,364794,8,400,,,
trial,html.Screen,4_89_0,2023-10-31T21:05:18.647Z,,0,2,,3877,response,ISIC_3267196.JPG,14,ISIC_0046597.JPG,ISIC_3267196.JPG,false,1,keypress(m),500,368654,368654,364777,364765,364794,368685,8,400,40,,ISIC_0046597.JPG
break,html.Screen,4_89_1,2023-10-31T21:05:18.648Z,,0,,,NaN,,,,,,false,,,,368655.00000000006,368654,,368654,,368685,8,400,,,
break_continue,html.Screen,4_89_2,2023-10-31T21:05:18.648Z,,0,,,NaN,,,,,,false,,,,368655.00000000006,368655.00000000006,,368655.00000000006,,368685,8,400,,,
sequence,flow.Sequence,4_89,2023-10-31T21:05:18.648Z,,0,,,3861.000000000058,completion,,,,,false,,,,368655.00000000006,368655.00000000006,364777,364765,364794,368685,8,400,,,
trial,html.Screen,4_90_0,2023-10-31T21:05:21.142Z,,0,2,,2481,response,ISIC_0028916.JPG,4,ISIC_4097868.JPG,ISIC_4097868.JPG,false,0,keypress(z),500,371149,371149,368668,368655.00000000006,368685,371187,8,400,41,,ISIC_0028916.JPG
break,html.Screen,4_90_1,2023-10-31T21:05:21.143Z,,0,,,NaN,,,,,,false,,,,371150.00000000006,371150.00000000006,,371149,,371187,8,400,,,
break_continue,html.Screen,4_90_2,2023-10-31T21:05:21.143Z,,0,,,NaN,,,,,,false,,,,371150.00000000006,371150.00000000006,,371150.00000000006,,371187,8,400,,,
sequence,flow.Sequence,4_90,2023-10-31T21:05:21.143Z,,0,,,2465.000000000058,completion,,,,,false,,,,371150.00000000006,371150.00000000006,368668,368655.00000000006,368685,371187,8,400,,,
trial,html.Screen,4_91_0,2023-10-31T21:05:23.863Z,,0,2,,2698,response,ISIC_0025391.JPG,9,ISIC_8959410.JPG,ISIC_8959410.JPG,false,0,keypress(z),500,373870,373869,371171,371150.00000000006,371187,373909,8,400,42,,ISIC_0025391.JPG
break,html.Screen,4_91_1,2023-10-31T21:05:23.863Z,,0,,,NaN,,,,,,false,,,,373870,373870,,373870,,373909,8,400,,,
break_continue,html.Screen,4_91_2,2023-10-31T21:05:23.863Z,,0,,,NaN,,,,,,false,,,,373870,373870,,373870,,373909,8,400,,,
sequence,flow.Sequence,4_91,2023-10-31T21:05:23.864Z,,0,,,2683,completion,,,,,false,,,,373871,373870,371171,371150.00000000006,371187,373909,8,400,,,
trial,html.Screen,4_92_0,2023-10-31T21:05:27.358Z,,0,2,,3473,response,ISIC_5358568.JPG,6,ISIC_0033534.JPG,ISIC_5358568.JPG,false,1,keypress(m),500,377365,377365,373892,373871,373909,377395,8,400,43,,ISIC_0033534.JPG
break,html.Screen,4_92_1,2023-10-31T21:05:27.358Z,,0,,,NaN,,,,,,false,,,,377365,377365,,377365,,377395,8,400,,,
break_continue,html.Screen,4_92_2,2023-10-31T21:05:27.359Z,,0,,,NaN,,,,,,false,,,,377366,377366,,377366,,377395,8,400,,,
sequence,flow.Sequence,4_92,2023-10-31T21:05:27.359Z,,0,,,3457,completion,,,,,false,,,,377366,377366,373892,373871,373909,377395,8,400,,,
trial,html.Screen,4_93_0,2023-10-31T21:05:33.683Z,,0,2,,6313,response,ISIC_0066143.JPG,5,ISIC_1457687.JPG,ISIC_1457687.JPG,false,0,keypress(z),500,383691.00000000006,383690,377377,377366,377395,383731,8,400,44,,ISIC_0066143.JPG
break,html.Screen,4_93_1,2023-10-31T21:05:33.684Z,,0,,,NaN,,,,,,false,,,,383691.00000000006,383691.00000000006,,383691.00000000006,,383731,8,400,,,
break_continue,html.Screen,4_93_2,2023-10-31T21:05:33.684Z,,0,,,NaN,,,,,,false,,,,383691.00000000006,383691.00000000006,,383691.00000000006,,383731,8,400,,,
sequence,flow.Sequence,4_93,2023-10-31T21:05:33.684Z,,0,,,6296.000000000058,completion,,,,,false,,,,383691.00000000006,383691.00000000006,377377,377366,377395,383731,8,400,,,
trial,html.Screen,4_94_0,2023-10-31T21:05:37.477Z,,0,2,,3770,response,ISIC_9744305.JPG,11,ISIC_0501108.JPG,ISIC_9744305.JPG,false,1,keypress(m),500,387484,387484,383714,383692,383731,387512,8,400,45,,ISIC_0501108.JPG
break,html.Screen,4_94_1,2023-10-31T21:05:37.478Z,,0,,,NaN,,,,,,false,,,,387485,387485,,387484,,387512,8,400,,,
break_continue,html.Screen,4_94_2,2023-10-31T21:05:37.478Z,,0,,,NaN,,,,,,false,,,,387485,387485,,387485,,387512,8,400,,,
sequence,flow.Sequence,4_94,2023-10-31T21:05:37.478Z,,0,,,3754,completion,,,,,false,,,,387485,387485,383714,383691.00000000006,383731,387512,8,400,,,
trial,html.Screen,4_95_0,2023-10-31T21:05:48.695Z,,0,2,,11206,response,ISIC_9622250.JPG,1,ISIC_0830217.JPG,ISIC_9622250.JPG,false,1,keypress(m),500,398702,398702,387496,387486,387512,398745,8,400,46,,ISIC_0830217.JPG
break,html.Screen,4_95_1,2023-10-31T21:05:48.695Z,,0,,,NaN,,,,,,false,,,,398703.00000000006,398702,,398702,,398745,8,400,,,
break_continue,html.Screen,4_95_2,2023-10-31T21:05:48.696Z,,0,,,NaN,,,,,,false,,,,398703.00000000006,398703.00000000006,,398703.00000000006,,398745,8,400,,,
sequence,flow.Sequence,4_95,2023-10-31T21:05:48.696Z,,0,,,11191.000000000058,completion,,,,,false,,,,398703.00000000006,398703.00000000006,387496,387486,387512,398745,8,400,,,
trial,html.Screen,4_96_0,2023-10-31T21:05:52.096Z,,0,2,,3375,response,ISIC_7364041.JPG,13,ISIC_0033168.JPG,ISIC_0033168.JPG,false,0,keypress(z),500,402103,402103,398728,398703.00000000006,398745,402140,8,400,47,,ISIC_7364041.JPG
break,html.Screen,4_96_1,2023-10-31T21:05:52.096Z,,0,,,NaN,,,,,,false,,,,402104,402104,,402103,,402140,8,400,,,
break_continue,html.Screen,4_96_2,2023-10-31T21:05:52.097Z,,0,,,NaN,,,,,,false,,,,402104,402104,,402104,,402140,8,400,,,
sequence,flow.Sequence,4_96,2023-10-31T21:05:52.097Z,,0,,,3359,completion,,,,,false,,,,402104,402104,398728,398703.00000000006,398745,402140,8,400,,,
trial,html.Screen,4_97_0,2023-10-31T21:05:54.887Z,,0,2,,2772,response,ISIC_7475827.JPG,9,ISIC_0697953.JPG,ISIC_0697953.JPG,false,0,keypress(z),500,404895,404895,402123,402104,402140,404924,8,400,48,,ISIC_7475827.JPG
break,html.Screen,4_97_1,2023-10-31T21:05:54.888Z,,0,,,NaN,,,,,,false,,,,404895,404895,,404895,,404924,8,400,,,
break_continue,html.Screen,4_97_2,2023-10-31T21:05:54.888Z,,0,,,NaN,,,,,,false,,,,404895,404895,,404895,,404924,8,400,,,
sequence,flow.Sequence,4_97,2023-10-31T21:05:54.888Z,,0,,,2755,completion,,,,,false,,,,404896,404895,402123,402104,402140,404924,8,400,,,
trial,html.Screen,4_98_0,2023-10-31T21:05:58.197Z,,0,2,,3298,response,ISIC_0013084.JPG,11,ISIC_2304753.JPG,ISIC_2304753.JPG,false,0,keypress(z),500,408205,408205,404907,404896,404924,408236,8,400,49,,ISIC_0013084.JPG
break,html.Screen,4_98_1,2023-10-31T21:05:58.198Z,,0,,,NaN,,,,,,false,,,,408206,408205,,408205,,408236,8,400,,,
break_continue,html.Screen,4_98_2,2023-10-31T21:05:58.198Z,,0,,,NaN,,,,,,false,,,,408206,408206,,408206,,408236,8,400,,,
sequence,flow.Sequence,4_98,2023-10-31T21:05:58.199Z,,0,,,3282,completion,,,,,false,,,,408206,408206,404907,404896,404924,408236,8,400,,,
trial,html.Screen,4_99_0,2023-10-31T21:06:00.772Z,,0,2,,2559,response,ISIC_0014431.JPG,10,ISIC_0071678.JPG,ISIC_0014431.JPG,false,1,keypress(m),500,410780.00000000006,410779,408220,408206,408236,410821,8,400,50,,ISIC_0071678.JPG
break,html.Screen,4_99_1,2023-10-31T21:06:10.799Z,,0,,,10002,timeout,,,,,false,,,,420806,420806,410805,410780.00000000006,410821,420823,8,400,,,
break_continue,html.Screen,4_99_2,2023-10-31T21:06:14.034Z,,0,,,3233,response,,,,,false,continue,keypress(Space),,424041,424039,420806,420806,420823,424074,8,400,,,
sequence,flow.Sequence,4_99,2023-10-31T21:06:14.034Z,,0,,,15803,completion,,,,,false,,,,424041,424039,408220,408206,408236,424074,8,400,,,
trial,html.Screen,4_100_0,2023-10-31T21:06:16.809Z,,0,3,,2759,response,ISIC_7775535.JPG,13,ISIC_0070050.JPG,ISIC_7775535.JPG,false,1,keypress(m),500,426817,426817,424058,424042.00000000006,424074,426857,8,400,1,,ISIC_0070050.JPG
break,html.Screen,4_100_1,2023-10-31T21:06:16.810Z,,0,,,NaN,,,,,,false,,,,426818,426817,,426817,,426857,8,400,,,
break_continue,html.Screen,4_100_2,2023-10-31T21:06:16.810Z,,0,,,NaN,,,,,,false,,,,426818,426818,,426818,,426857,8,400,,,
sequence,flow.Sequence,4_100,2023-10-31T21:06:16.810Z,,0,,,2744,completion,,,,,false,,,,426818,426818,424058,424042.00000000006,424074,426857,8,400,,,
trial,html.Screen,4_101_0,2023-10-31T21:06:20.210Z,,0,3,,3375,response,ISIC_0059948.JPG,14,ISIC_3084213.JPG,ISIC_3084213.JPG,false,0,keypress(z),500,430217,430217,426842,426818,426857,430252,8,400,2,,ISIC_0059948.JPG
break,html.Screen,4_101_1,2023-10-31T21:06:20.210Z,,0,,,NaN,,,,,,false,,,,430218,430218,,430218,,430252,8,400,,,
break_continue,html.Screen,4_101_2,2023-10-31T21:06:20.210Z,,0,,,NaN,,,,,,false,,,,430218,430218,,430218,,430252,8,400,,,
sequence,flow.Sequence,4_101,2023-10-31T21:06:20.211Z,,0,,,3361,completion,,,,,false,,,,430218,430218,426842,426818,426857,430252,8,400,,,
trial,html.Screen,4_102_0,2023-10-31T21:06:22.881Z,,0,3,,2653,response,ISIC_0014092.JPG,8,ISIC_0000463.JPG,ISIC_0014092.JPG,false,1,keypress(m),500,432889,432889,430236,430219,430252,432920,8,400,3,,ISIC_0000463.JPG
break,html.Screen,4_102_1,2023-10-31T21:06:22.882Z,,0,,,NaN,,,,,,false,,,,432889,432889,,432889,,432920,8,400,,,
break_continue,html.Screen,4_102_2,2023-10-31T21:06:22.882Z,,0,,,NaN,,,,,,false,,,,432890,432890,,432889,,432920,8,400,,,
sequence,flow.Sequence,4_102,2023-10-31T21:06:22.883Z,,0,,,2638,completion,,,,,false,,,,432891,432890,430236,430219,430252,432920,8,400,,,
trial,html.Screen,4_103_0,2023-10-31T21:06:25.705Z,,0,3,,2809,response,ISIC_0028949.JPG,12,ISIC_4846741.JPG,ISIC_4846741.JPG,false,0,keypress(z),500,435713,435713,432904,432891,432920,435754,8,400,4,,ISIC_0028949.JPG
break,html.Screen,4_103_1,2023-10-31T21:06:25.706Z,,0,,,NaN,,,,,,false,,,,435714,435714,,435713,,435754,8,400,,,
break_continue,html.Screen,4_103_2,2023-10-31T21:06:25.706Z,,0,,,NaN,,,,,,false,,,,435714,435714,,435714,,435754,8,400,,,
sequence,flow.Sequence,4_103,2023-10-31T21:06:25.706Z,,0,,,2794,completion,,,,,false,,,,435714,435714,432904,432891,432920,435754,8,400,,,
trial,html.Screen,4_104_0,2023-10-31T21:06:28.489Z,,0,3,,2760,response,ISIC_0010818.JPG,12,ISIC_1314502.JPG,ISIC_1314502.JPG,false,0,keypress(z),500,438497,438497,435737,435714,435754,438537,8,400,5,,ISIC_0010818.JPG
break,html.Screen,4_104_1,2023-10-31T21:06:28.490Z,,0,,,NaN,,,,,,false,,,,438498,438497,,438497,,438537,8,400,,,
break_continue,html.Screen,4_104_2,2023-10-31T21:06:28.490Z,,0,,,NaN,,,,,,false,,,,438498,438498,,438498,,438537,8,400,,,
sequence,flow.Sequence,4_104,2023-10-31T21:06:28.490Z,,0,,,2744,completion,,,,,false,,,,438498,438498,435737,435714,435754,438537,8,400,,,
trial,html.Screen,4_105_0,2023-10-31T21:06:31.169Z,,0,3,,2656,response,ISIC_0027560.JPG,13,ISIC_8029613.JPG,ISIC_8029613.JPG,false,0,keypress(z),500,441177,441177,438521,438498,438537,441221,8,400,6,,ISIC_0027560.JPG
break,html.Screen,4_105_1,2023-10-31T21:06:31.170Z,,0,,,NaN,,,,,,false,,,,441178,441178,,441177,,441221,8,400,,,
break_continue,html.Screen,4_105_2,2023-10-31T21:06:31.170Z,,0,,,NaN,,,,,,false,,,,441178,441178,,441178,,441221,8,400,,,
sequence,flow.Sequence,4_105,2023-10-31T21:06:31.170Z,,0,,,2641,completion,,,,,false,,,,441178,441178,438521,438498,438537,441221,8,400,,,
trial,html.Screen,4_106_0,2023-10-31T21:06:34.272Z,,0,3,,3075.000000000058,response,ISIC_2197722.JPG,12,ISIC_6356149.JPG,ISIC_6356149.JPG,false,0,keypress(z),500,444280.00000000006,444280.00000000006,441205,441178,441221,444319,8,400,7,,ISIC_2197722.JPG
break,html.Screen,4_106_1,2023-10-31T21:06:34.273Z,,0,,,NaN,,,,,,false,,,,444281,444281,,444280.00000000006,,444319,8,400,,,
break_continue,html.Screen,4_106_2,2023-10-31T21:06:34.273Z,,0,,,NaN,,,,,,false,,,,444281,444281,,444281,,444319,8,400,,,
sequence,flow.Sequence,4_106,2023-10-31T21:06:34.273Z,,0,,,3060,completion,,,,,false,,,,444281,444281,441205,441178,441221,444319,8,400,,,
trial,html.Screen,4_107_0,2023-10-31T21:06:37.641Z,,0,3,,3346,response,ISIC_0202119.JPG,8,ISIC_0839675.JPG,ISIC_0202119.JPG,false,1,keypress(m),500,447649,447649,444303,444281,444319,447680,8,400,8,,ISIC_0839675.JPG
break,html.Screen,4_107_1,2023-10-31T21:06:37.641Z,,0,,,NaN,,,,,,false,,,,447650.00000000006,447649,,447649,,447680,8,400,,,
break_continue,html.Screen,4_107_2,2023-10-31T21:06:37.642Z,,0,,,NaN,,,,,,false,,,,447650.00000000006,447650.00000000006,,447650.00000000006,,447680,8,400,,,
sequence,flow.Sequence,4_107,2023-10-31T21:06:37.642Z,,0,,,3331.000000000058,completion,,,,,false,,,,447650.00000000006,447650.00000000006,444303,444281,444319,447680,8,400,,,
trial,html.Screen,4_108_0,2023-10-31T21:06:40.870Z,,0,3,,3214,response,ISIC_0024300.JPG,16,ISIC_0610849.JPG,ISIC_0024300.JPG,false,1,keypress(m),500,450878,450878,447664,447650.00000000006,447680,450910,8,400,9,,ISIC_0610849.JPG
break,html.Screen,4_108_1,2023-10-31T21:06:40.871Z,,0,,,NaN,,,,,,false,,,,450879,450878,,450878,,450910,8,400,,,
break_continue,html.Screen,4_108_2,2023-10-31T21:06:40.871Z,,0,,,NaN,,,,,,false,,,,450879,450879,,450879,,450910,8,400,,,
sequence,flow.Sequence,4_108,2023-10-31T21:06:40.871Z,,0,,,3199,completion,,,,,false,,,,450879,450879,447664,447650.00000000006,447680,450910,8,400,,,
trial,html.Screen,4_109_0,2023-10-31T21:06:43.686Z,,0,3,,2800,response,ISIC_0058529.JPG,3,ISIC_2702929.JPG,ISIC_0058529.JPG,false,1,keypress(m),500,453695,453694,450894,450879,450910,453726,8,400,10,,ISIC_2702929.JPG
break,html.Screen,4_109_1,2023-10-31T21:06:43.687Z,,0,,,NaN,,,,,,false,,,,453695,453695,,453695,,453726,8,400,,,
break_continue,html.Screen,4_109_2,2023-10-31T21:06:43.687Z,,0,,,NaN,,,,,,false,,,,453695,453695,,453695,,453726,8,400,,,
sequence,flow.Sequence,4_109,2023-10-31T21:06:43.687Z,,0,,,2785,completion,,,,,false,,,,453696,453695,450894,450879,450910,453726,8,400,,,
trial,html.Screen,4_110_0,2023-10-31T21:06:46.759Z,,0,3,,3057,response,ISIC_0028666.JPG,11,ISIC_0000144.JPG,ISIC_0028666.JPG,false,1,keypress(m),500,456767,456767,453710,453696,453726,456807,8,400,11,,ISIC_0000144.JPG
break,html.Screen,4_110_1,2023-10-31T21:06:46.759Z,,0,,,NaN,,,,,,false,,,,456767,456767,,456767,,456807,8,400,,,
break_continue,html.Screen,4_110_2,2023-10-31T21:06:46.760Z,,0,,,NaN,,,,,,false,,,,456768,456768,,456767,,456807,8,400,,,
sequence,flow.Sequence,4_110,2023-10-31T21:06:46.760Z,,0,,,3042,completion,,,,,false,,,,456768,456768,453710,453696,453726,456807,8,400,,,
trial,html.Screen,4_111_0,2023-10-31T21:06:49.678Z,,0,3,,2896,response,ISIC_0059314.JPG,9,ISIC_5031549.JPG,ISIC_5031549.JPG,false,0,keypress(z),500,459687,459687,456791,456768,456807,459724,8,400,12,,ISIC_0059314.JPG
break,html.Screen,4_111_1,2023-10-31T21:06:49.679Z,,0,,,NaN,,,,,,false,,,,459687,459687,,459687,,459724,8,400,,,
break_continue,html.Screen,4_111_2,2023-10-31T21:06:49.679Z,,0,,,NaN,,,,,,false,,,,459687,459687,,459687,,459724,8,400,,,
sequence,flow.Sequence,4_111,2023-10-31T21:06:49.679Z,,0,,,2880,completion,,,,,false,,,,459688,459687,456791,456768,456807,459724,8,400,,,
trial,html.Screen,4_112_0,2023-10-31T21:06:52.894Z,,0,3,,3195,response,ISIC_5237059.JPG,13,ISIC_0845105.JPG,ISIC_0845105.JPG,false,0,keypress(z),500,462902,462902,459707,459688,459724,462936,8,400,13,,ISIC_5237059.JPG
break,html.Screen,4_112_1,2023-10-31T21:06:52.895Z,,0,,,NaN,,,,,,false,,,,462903,462903,,462903,,462936,8,400,,,
break_continue,html.Screen,4_112_2,2023-10-31T21:06:52.895Z,,0,,,NaN,,,,,,false,,,,462903,462903,,462903,,462936,8,400,,,
sequence,flow.Sequence,4_112,2023-10-31T21:06:52.895Z,,0,,,3179,completion,,,,,false,,,,462903,462903,459707,459688,459724,462936,8,400,,,
trial,html.Screen,4_113_0,2023-10-31T21:06:56.367Z,,0,3,,3456.000000000058,response,ISIC_7587513.JPG,1,ISIC_0961235.JPG,ISIC_0961235.JPG,false,0,keypress(z),500,466376.00000000006,466376.00000000006,462920,462904,462936,466414,8,400,14,,ISIC_7587513.JPG
break,html.Screen,4_113_1,2023-10-31T21:06:56.368Z,,0,,,NaN,,,,,,false,,,,466376.00000000006,466376.00000000006,,466376.00000000006,,466414,8,400,,,
break_continue,html.Screen,4_113_2,2023-10-31T21:06:56.368Z,,0,,,NaN,,,,,,false,,,,466377,466376.00000000006,,466376.00000000006,,466414,8,400,,,
sequence,flow.Sequence,4_113,2023-10-31T21:06:56.369Z,,0,,,3440.000000000058,completion,,,,,false,,,,466377,466376.00000000006,462920,462904,462936,466414,8,400,,,
trial,html.Screen,4_114_0,2023-10-31T21:06:59.927Z,,0,3,,3538,response,ISIC_7951202.JPG,4,ISIC_0031337.JPG,ISIC_7951202.JPG,false,1,keypress(m),500,469936.00000000006,469935,466397,466377,466414,469957,8,400,15,,ISIC_0031337.JPG
break,html.Screen,4_114_1,2023-10-31T21:06:59.928Z,,0,,,NaN,,,,,,false,,,,469936.00000000006,469936.00000000006,,469936.00000000006,,469957,8,400,,,
break_continue,html.Screen,4_114_2,2023-10-31T21:06:59.928Z,,0,,,NaN,,,,,,false,,,,469936.00000000006,469936.00000000006,,469936.00000000006,,469957,8,400,,,
sequence,flow.Sequence,4_114,2023-10-31T21:06:59.928Z,,0,,,3522.000000000058,completion,,,,,false,,,,469937,469936.00000000006,466397,466377,466414,469957,8,400,,,
trial,html.Screen,4_115_0,2023-10-31T21:07:03.017Z,,0,3,,3084.000000000058,response,ISIC_0059625.JPG,9,ISIC_6269543.JPG,ISIC_0059625.JPG,false,1,keypress(m),500,473025.00000000006,473025.00000000006,469941,469937,469957,473055,8,400,16,,ISIC_6269543.JPG
break,html.Screen,4_115_1,2023-10-31T21:07:03.017Z,,0,,,NaN,,,,,,false,,,,473026,473025.00000000006,,473025.00000000006,,473055,8,400,,,
break_continue,html.Screen,4_115_2,2023-10-31T21:07:03.017Z,,0,,,NaN,,,,,,false,,,,473026,473026,,473026,,473055,8,400,,,
sequence,flow.Sequence,4_115,2023-10-31T21:07:03.018Z,,0,,,3069,completion,,,,,false,,,,473026,473026,469941,469937,469957,473055,8,400,,,
trial,html.Screen,4_116_0,2023-10-31T21:07:06.167Z,,0,3,,3138,response,ISIC_2935987.JPG,10,ISIC_5830274.JPG,ISIC_5830274.JPG,false,0,keypress(z),500,476176,476176,473038,473026,473055,476207,8,400,17,,ISIC_2935987.JPG
break,html.Screen,4_116_1,2023-10-31T21:07:06.168Z,,0,,,NaN,,,,,,false,,,,476177,476176,,476176,,476207,8,400,,,
break_continue,html.Screen,4_116_2,2023-10-31T21:07:06.168Z,,0,,,NaN,,,,,,false,,,,476177,476177,,476177,,476207,8,400,,,
sequence,flow.Sequence,4_116,2023-10-31T21:07:06.169Z,,0,,,3122,completion,,,,,false,,,,476177,476177,473038,473026,473055,476207,8,400,,,
trial,html.Screen,4_117_0,2023-10-31T21:07:08.745Z,,0,3,,2563,response,ISIC_9961652.JPG,6,ISIC_2146346.JPG,ISIC_9961652.JPG,false,1,keypress(m),500,478753,478753,476190,476177,476207,478793,8,400,18,,ISIC_2146346.JPG
break,html.Screen,4_117_1,2023-10-31T21:07:08.746Z,,0,,,NaN,,,,,,false,,,,478754,478754,,478754,,478793,8,400,,,
break_continue,html.Screen,4_117_2,2023-10-31T21:07:08.746Z,,0,,,NaN,,,,,,false,,,,478754,478754,,478754,,478793,8,400,,,
sequence,flow.Sequence,4_117,2023-10-31T21:07:08.746Z,,0,,,2547,completion,,,,,false,,,,478754,478754,476190,476177,476207,478793,8,400,,,
trial,html.Screen,4_118_0,2023-10-31T21:07:11.408Z,,0,3,,2641,response,ISIC_0029815.JPG,4,ISIC_5207050.JPG,ISIC_5207050.JPG,false,0,keypress(z),500,481416,481416,478775,478755,478793,481454,8,400,19,,ISIC_0029815.JPG
break,html.Screen,4_118_1,2023-10-31T21:07:11.408Z,,0,,,NaN,,,,,,false,,,,481417.00000000006,481417.00000000006,,481416,,481454,8,400,,,
break_continue,html.Screen,4_118_2,2023-10-31T21:07:11.408Z,,0,,,NaN,,,,,,false,,,,481417.00000000006,481417.00000000006,,481417.00000000006,,481454,8,400,,,
sequence,flow.Sequence,4_118,2023-10-31T21:07:11.409Z,,0,,,2624.000000000058,completion,,,,,false,,,,481417.00000000006,481417.00000000006,478775,478755,478793,481454,8,400,,,
trial,html.Screen,4_119_0,2023-10-31T21:07:14.007Z,,0,3,,2578,response,ISIC_0010265.JPG,9,ISIC_0025139.JPG,ISIC_0010265.JPG,false,1,keypress(m),500,484015,484015,481437,481417.00000000006,481454,484056,8,400,20,,ISIC_0025139.JPG
break,html.Screen,4_119_1,2023-10-31T21:07:14.007Z,,0,,,NaN,,,,,,false,,,,484016,484016,,484016,,484056,8,400,,,
break_continue,html.Screen,4_119_2,2023-10-31T21:07:14.008Z,,0,,,NaN,,,,,,false,,,,484016,484016,,484016,,484056,8,400,,,
sequence,flow.Sequence,4_119,2023-10-31T21:07:14.008Z,,0,,,2562,completion,,,,,false,,,,484017,484016,481437,481417.00000000006,481454,484056,8,400,,,
trial,html.Screen,4_120_0,2023-10-31T21:07:16.776Z,,0,3,,2744,response,ISIC_0061559.JPG,14,ISIC_7575815.JPG,ISIC_7575815.JPG,false,0,keypress(z),500,486785,486784,484040,484017,484056,486824,8,400,21,,ISIC_0061559.JPG
break,html.Screen,4_120_1,2023-10-31T21:07:16.777Z,,0,,,NaN,,,,,,false,,,,486785,486785,,486785,,486824,8,400,,,
break_continue,html.Screen,4_120_2,2023-10-31T21:07:16.777Z,,0,,,NaN,,,,,,false,,,,486785,486785,,486785,,486824,8,400,,,
sequence,flow.Sequence,4_120,2023-10-31T21:07:16.777Z,,0,,,2729,completion,,,,,false,,,,486786,486785,484040,484017,484056,486824,8,400,,,
trial,html.Screen,4_121_0,2023-10-31T21:07:19.639Z,,0,3,,2842,response,ISIC_1436929.JPG,12,ISIC_5037784.JPG,ISIC_1436929.JPG,false,1,keypress(m),500,489648,489648,486806,486786,486824,489689,8,400,22,,ISIC_5037784.JPG
break,html.Screen,4_121_1,2023-10-31T21:07:19.640Z,,0,,,NaN,,,,,,false,,,,489648,489648,,489648,,489689,8,400,,,
break_continue,html.Screen,4_121_2,2023-10-31T21:07:19.640Z,,0,,,NaN,,,,,,false,,,,489649,489649,,489648,,489689,8,400,,,
sequence,flow.Sequence,4_121,2023-10-31T21:07:19.640Z,,0,,,2825,completion,,,,,false,,,,489649,489649,486806,486786,486824,489689,8,400,,,
trial,html.Screen,4_122_0,2023-10-31T21:07:22.351Z,,0,3,,2688,response,ISIC_6642608.JPG,13,ISIC_0013867.JPG,ISIC_0013867.JPG,false,0,keypress(z),500,492360,492360,489672,489649,489689,492389,8,400,23,,ISIC_6642608.JPG
break,html.Screen,4_122_1,2023-10-31T21:07:22.352Z,,0,,,NaN,,,,,,false,,,,492361,492361,,492360,,492389,8,400,,,
break_continue,html.Screen,4_122_2,2023-10-31T21:07:22.352Z,,0,,,NaN,,,,,,false,,,,492361,492361,,492361,,492389,8,400,,,
sequence,flow.Sequence,4_122,2023-10-31T21:07:22.352Z,,0,,,2672,completion,,,,,false,,,,492361,492361,489672,489649,489689,492389,8,400,,,
trial,html.Screen,4_123_0,2023-10-31T21:07:24.959Z,,0,3,,2594,response,ISIC_1758558.JPG,12,ISIC_4980656.JPG,ISIC_1758558.JPG,false,1,keypress(m),500,494968,494968,492374,492361,492389,495009,8,400,24,,ISIC_4980656.JPG
break,html.Screen,4_123_1,2023-10-31T21:07:24.960Z,,0,,,NaN,,,,,,false,,,,494969,494969,,494968,,495009,8,400,,,
break_continue,html.Screen,4_123_2,2023-10-31T21:07:24.960Z,,0,,,NaN,,,,,,false,,,,494969,494969,,494969,,495009,8,400,,,
sequence,flow.Sequence,4_123,2023-10-31T21:07:24.960Z,,0,,,2580,completion,,,,,false,,,,494969,494969,492374,492361,492389,495009,8,400,,,
trial,html.Screen,4_124_0,2023-10-31T21:07:27.543Z,,0,3,,2559,response,ISIC_0063544.JPG,12,ISIC_5059476.JPG,ISIC_5059476.JPG,false,0,keypress(z),500,497552,497551,494992,494969,495009,497593,8,400,25,,ISIC_0063544.JPG
break,html.Screen,4_124_1,2023-10-31T21:07:27.544Z,,0,,,NaN,,,,,,false,,,,497552,497552,,497552,,497593,8,400,,,
break_continue,html.Screen,4_124_2,2023-10-31T21:07:27.544Z,,0,,,NaN,,,,,,false,,,,497553,497553,,497553,,497593,8,400,,,
sequence,flow.Sequence,4_124,2023-10-31T21:07:27.544Z,,0,,,2544,completion,,,,,false,,,,497553,497553,494992,494969,495009,497593,8,400,,,
trial,html.Screen,4_125_0,2023-10-31T21:07:31.204Z,,0,3,,3636,response,ISIC_9337570.JPG,8,ISIC_0000473.JPG,ISIC_9337570.JPG,false,1,keypress(m),500,501213,501213,497577,497553,497593,501252,8,400,26,,ISIC_0000473.JPG
break,html.Screen,4_125_1,2023-10-31T21:07:31.205Z,,0,,,NaN,,,,,,false,,,,501214,501214,,501213,,501252,8,400,,,
break_continue,html.Screen,4_125_2,2023-10-31T21:07:31.205Z,,0,,,NaN,,,,,,false,,,,501214,501214,,501214,,501252,8,400,,,
sequence,flow.Sequence,4_125,2023-10-31T21:07:31.205Z,,0,,,3621,completion,,,,,false,,,,501214,501214,497577,497553,497593,501252,8,400,,,
trial,html.Screen,4_126_0,2023-10-31T21:07:33.964Z,,0,3,,2737,response,ISIC_6313487.JPG,6,ISIC_0014675.JPG,ISIC_0014675.JPG,false,0,keypress(z),500,503973,503973,501236,501214,501252,504003,8,400,27,,ISIC_6313487.JPG
break,html.Screen,4_126_1,2023-10-31T21:07:33.965Z,,0,,,NaN,,,,,,false,,,,503974,503973,,503973,,504003,8,400,,,
break_continue,html.Screen,4_126_2,2023-10-31T21:07:33.965Z,,0,,,NaN,,,,,,false,,,,503974,503974,,503974,,504003,8,400,,,
sequence,flow.Sequence,4_126,2023-10-31T21:07:33.965Z,,0,,,2722,completion,,,,,false,,,,503974,503974,501236,501214,501252,504003,8,400,,,
trial,html.Screen,4_127_0,2023-10-31T21:07:37.807Z,,0,3,,3829.000000000058,response,ISIC_5316803.JPG,7,ISIC_4646815.JPG,ISIC_4646815.JPG,false,0,keypress(z),500,507816.00000000006,507816.00000000006,503987,503974,504003,507843,8,400,28,,ISIC_5316803.JPG
break,html.Screen,4_127_1,2023-10-31T21:07:37.808Z,,0,,,NaN,,,,,,false,,,,507817,507816.00000000006,,507816.00000000006,,507843,8,400,,,
break_continue,html.Screen,4_127_2,2023-10-31T21:07:37.808Z,,0,,,NaN,,,,,,false,,,,507817,507817,,507817,,507843,8,400,,,
sequence,flow.Sequence,4_127,2023-10-31T21:07:37.808Z,,0,,,3814,completion,,,,,false,,,,507817,507817,503987,503974,504003,507843,8,400,,,
trial,html.Screen,4_128_0,2023-10-31T21:07:41.087Z,,0,3,,3269,response,ISIC_4099428.JPG,7,ISIC_0047022.JPG,ISIC_4099428.JPG,false,1,keypress(m),500,511096,511096,507827,507817,507843,511123,8,400,29,,ISIC_0047022.JPG
break,html.Screen,4_128_1,2023-10-31T21:07:41.088Z,,0,,,NaN,,,,,,false,,,,511097.00000000006,511096,,511096,,511123,8,400,,,
break_continue,html.Screen,4_128_2,2023-10-31T21:07:41.088Z,,0,,,NaN,,,,,,false,,,,511097.00000000006,511097.00000000006,,511097.00000000006,,511123,8,400,,,
sequence,flow.Sequence,4_128,2023-10-31T21:07:41.088Z,,0,,,3254.000000000058,completion,,,,,false,,,,511097.00000000006,511097.00000000006,507827,507817,507843,511123,8,400,,,
trial,html.Screen,4_129_0,2023-10-31T21:07:44.673Z,,0,3,,3575,response,ISIC_0031629.JPG,11,ISIC_0016094.JPG,ISIC_0031629.JPG,false,1,keypress(m),500,514682,514682,511107,511097.00000000006,511123,514717,8,400,30,,ISIC_0016094.JPG
break,html.Screen,4_129_1,2023-10-31T21:07:44.674Z,,0,,,NaN,,,,,,false,,,,514683,514683,,514683,,514717,8,400,,,
break_continue,html.Screen,4_129_2,2023-10-31T21:07:44.674Z,,0,,,NaN,,,,,,false,,,,514683,514683,,514683,,514717,8,400,,,
sequence,flow.Sequence,4_129,2023-10-31T21:07:44.675Z,,0,,,3560,completion,,,,,false,,,,514683.99999999994,514683,511107,511097.00000000006,511123,514717,8,400,,,
trial,html.Screen,4_130_0,2023-10-31T21:07:47.305Z,,0,3,,2613.999999999942,response,ISIC_1223849.JPG,13,ISIC_5503634.JPG,ISIC_1223849.JPG,false,1,keypress(m),500,517313.99999999994,517313.99999999994,514700,514683.99999999994,514717,517351,8,400,31,,ISIC_5503634.JPG
break,html.Screen,4_130_1,2023-10-31T21:07:47.306Z,,0,,,NaN,,,,,,false,,,,517315.00000000006,517315.00000000006,,517313.99999999994,,517351,8,400,,,
break_continue,html.Screen,4_130_2,2023-10-31T21:07:47.306Z,,0,,,NaN,,,,,,false,,,,517315.00000000006,517315.00000000006,,517315.00000000006,,517351,8,400,,,
sequence,flow.Sequence,4_130,2023-10-31T21:07:47.306Z,,0,,,2598.000000000058,completion,,,,,false,,,,517315.00000000006,517315.00000000006,514700,514683.99999999994,514717,517351,8,400,,,
trial,html.Screen,4_131_0,2023-10-31T21:07:51.376Z,,0,3,,4051,response,ISIC_0063824.JPG,8,ISIC_0033302.JPG,ISIC_0033302.JPG,false,0,keypress(z),500,521385,521385,517334,517315.00000000006,517351,521407,8,400,32,,ISIC_0063824.JPG
break,html.Screen,4_131_1,2023-10-31T21:07:51.377Z,,0,,,NaN,,,,,,false,,,,521385.99999999994,521385.99999999994,,521385,,521407,8,400,,,
break_continue,html.Screen,4_131_2,2023-10-31T21:07:51.377Z,,0,,,NaN,,,,,,false,,,,521385.99999999994,521385.99999999994,,521385.99999999994,,521407,8,400,,,
sequence,flow.Sequence,4_131,2023-10-31T21:07:51.377Z,,0,,,4034.999999999942,completion,,,,,false,,,,521387.00000000006,521385.99999999994,517334,517315.00000000006,517351,521407,8,400,,,
trial,html.Screen,4_132_0,2023-10-31T21:07:54.785Z,,0,3,,3403,response,ISIC_6023504.JPG,12,ISIC_0068012.JPG,ISIC_6023504.JPG,false,1,keypress(m),500,524794,524794,521391,521387.00000000006,521407,524818,8,400,33,,ISIC_0068012.JPG
break,html.Screen,4_132_1,2023-10-31T21:07:54.786Z,,0,,,NaN,,,,,,false,,,,524795,524794,,524794,,524818,8,400,,,
break_continue,html.Screen,4_132_2,2023-10-31T21:07:54.786Z,,0,,,NaN,,,,,,false,,,,524795,524795,,524795,,524818,8,400,,,
sequence,flow.Sequence,4_132,2023-10-31T21:07:54.786Z,,0,,,3388,completion,,,,,false,,,,524795,524795,521391,521387.00000000006,521407,524818,8,400,,,
trial,html.Screen,4_133_0,2023-10-31T21:07:57.889Z,,0,3,,3097,response,ISIC_7271745.JPG,11,ISIC_0808203.JPG,ISIC_7271745.JPG,false,1,keypress(m),500,527898,527898,524801,524795,524818,527932,8,400,34,,ISIC_0808203.JPG
break,html.Screen,4_133_1,2023-10-31T21:07:57.890Z,,0,,,NaN,,,,,,false,,,,527899,527899,,527898,,527932,8,400,,,
break_continue,html.Screen,4_133_2,2023-10-31T21:07:57.890Z,,0,,,NaN,,,,,,false,,,,527899,527899,,527899,,527932,8,400,,,
sequence,flow.Sequence,4_133,2023-10-31T21:07:57.890Z,,0,,,3081,completion,,,,,false,,,,527899,527899,524801,524795,524818,527932,8,400,,,
trial,html.Screen,4_134_0,2023-10-31T21:08:02.907Z,,0,3,,5000,response,ISIC_0024846.JPG,15,ISIC_0011158.JPG,ISIC_0024846.JPG,false,1,keypress(m),500,532917,532916,527916,527899,527932,532947,8,400,35,,ISIC_0011158.JPG
break,html.Screen,4_134_1,2023-10-31T21:08:02.908Z,,0,,,NaN,,,,,,false,,,,532917,532917,,532917,,532947,8,400,,,
break_continue,html.Screen,4_134_2,2023-10-31T21:08:02.908Z,,0,,,NaN,,,,,,false,,,,532918,532917,,532917,,532947,8,400,,,
sequence,flow.Sequence,4_134,2023-10-31T21:08:02.908Z,,0,,,4985,completion,,,,,false,,,,532918,532917,527916,527899,527932,532947,8,400,,,
trial,html.Screen,4_135_0,2023-10-31T21:08:07.055Z,,0,3,,4134,response,ISIC_4718237.JPG,10,ISIC_0025817.JPG,ISIC_4718237.JPG,false,1,keypress(m),500,537064,537064,532930,532918,532947,537102,8,400,36,,ISIC_0025817.JPG
break,html.Screen,4_135_1,2023-10-31T21:08:07.056Z,,0,,,NaN,,,,,,false,,,,537065,537065,,537064,,537102,8,400,,,
break_continue,html.Screen,4_135_2,2023-10-31T21:08:07.056Z,,0,,,NaN,,,,,,false,,,,537065,537065,,537065,,537102,8,400,,,
sequence,flow.Sequence,4_135,2023-10-31T21:08:07.056Z,,0,,,4118,completion,,,,,false,,,,537065,537065,532930,532918,532947,537102,8,400,,,
trial,html.Screen,4_136_0,2023-10-31T21:08:10.142Z,,0,3,,3066.0000000001164,response,ISIC_0062497.JPG,4,ISIC_2256461.JPG,ISIC_2256461.JPG,false,0,keypress(z),500,540152,540151.0000000001,537085,537065,537102,540182,8,400,37,,ISIC_0062497.JPG
break,html.Screen,4_136_1,2023-10-31T21:08:10.143Z,,0,,,NaN,,,,,,false,,,,540152,540152,,540152,,540182,8,400,,,
break_continue,html.Screen,4_136_2,2023-10-31T21:08:10.143Z,,0,,,NaN,,,,,,false,,,,540153,540153,,540152,,540182,8,400,,,
sequence,flow.Sequence,4_136,2023-10-31T21:08:10.143Z,,0,,,3051,completion,,,,,false,,,,540153,540153,537085,537065,537102,540182,8,400,,,
trial,html.Screen,4_137_0,2023-10-31T21:08:13.111Z,,0,3,,2954,response,ISIC_0032019.JPG,7,ISIC_1858237.JPG,ISIC_1858237.JPG,false,0,keypress(z),500,543120,543120,540166,540153,540182,543147,8,400,38,,ISIC_0032019.JPG
break,html.Screen,4_137_1,2023-10-31T21:08:13.111Z,,0,,,NaN,,,,,,false,,,,543121,543120,,543120,,543147,8,400,,,
break_continue,html.Screen,4_137_2,2023-10-31T21:08:13.112Z,,0,,,NaN,,,,,,false,,,,543121,543121,,543121,,543147,8,400,,,
sequence,flow.Sequence,4_137,2023-10-31T21:08:13.112Z,,0,,,2939,completion,,,,,false,,,,543121,543121,540166,540153,540182,543147,8,400,,,
trial,html.Screen,4_138_0,2023-10-31T21:08:16.231Z,,0,3,,3110,response,ISIC_8986997.JPG,6,ISIC_2807121.JPG,ISIC_8986997.JPG,false,1,keypress(m),500,546241,546241,543131,543121,543147,546279,8,400,39,,ISIC_2807121.JPG
break,html.Screen,4_138_1,2023-10-31T21:08:16.232Z,,0,,,NaN,,,,,,false,,,,546241,546241,,546241,,546279,8,400,,,
break_continue,html.Screen,4_138_2,2023-10-31T21:08:16.232Z,,0,,,NaN,,,,,,false,,,,546242,546241,,546241,,546279,8,400,,,
sequence,flow.Sequence,4_138,2023-10-31T21:08:16.232Z,,0,,,3094,completion,,,,,false,,,,546242,546241,543131,543121,543147,546279,8,400,,,
trial,html.Screen,4_139_0,2023-10-31T21:08:18.982Z,,0,3,,2730,response,ISIC_0066262.JPG,4,ISIC_0033638.JPG,ISIC_0033638.JPG,false,0,keypress(z),500,548992,548992,546262,546242,546279,549028,8,400,40,,ISIC_0066262.JPG
break,html.Screen,4_139_1,2023-10-31T21:08:18.983Z,,0,,,NaN,,,,,,false,,,,548993,548992,,548992,,549028,8,400,,,
break_continue,html.Screen,4_139_2,2023-10-31T21:08:18.983Z,,0,,,NaN,,,,,,false,,,,548993,548993,,548993,,549028,8,400,,,
sequence,flow.Sequence,4_139,2023-10-31T21:08:18.983Z,,0,,,2714,completion,,,,,false,,,,548993,548993,546262,546242,546279,549028,8,400,,,
trial,html.Screen,4_140_0,2023-10-31T21:08:21.791Z,,0,3,,2789.0000000001164,response,ISIC_8579575.JPG,9,ISIC_6967143.JPG,ISIC_6967143.JPG,false,0,keypress(z),500,551800.0000000001,551800.0000000001,549011,548993,549028,551829,8,400,41,,ISIC_8579575.JPG
break,html.Screen,4_140_1,2023-10-31T21:08:21.791Z,,0,,,NaN,,,,,,false,,,,551801,551801,,551800.0000000001,,551829,8,400,,,
break_continue,html.Screen,4_140_2,2023-10-31T21:08:21.792Z,,0,,,NaN,,,,,,false,,,,551801,551801,,551801,,551829,8,400,,,
sequence,flow.Sequence,4_140,2023-10-31T21:08:21.792Z,,0,,,2773,completion,,,,,false,,,,551801,551801,549011,548993,549028,551829,8,400,,,
trial,html.Screen,4_141_0,2023-10-31T21:08:25.001Z,,0,3,,3198,response,ISIC_1166740.JPG,10,ISIC_0033202.JPG,ISIC_0033202.JPG,false,0,keypress(z),500,555011,555010,551812,551801,551829,555041,8,400,42,,ISIC_1166740.JPG
break,html.Screen,4_141_1,2023-10-31T21:08:25.002Z,,0,,,NaN,,,,,,false,,,,555011,555011,,555011,,555041,8,400,,,
break_continue,html.Screen,4_141_2,2023-10-31T21:08:25.002Z,,0,,,NaN,,,,,,false,,,,555012,555011,,555011,,555041,8,400,,,
sequence,flow.Sequence,4_141,2023-10-31T21:08:25.002Z,,0,,,3182,completion,,,,,false,,,,555012,555011,551812,551801,551829,555041,8,400,,,
trial,html.Screen,4_142_0,2023-10-31T21:08:27.694Z,,0,3,,2679.0000000001164,response,ISIC_0054357.JPG,15,ISIC_0000541.JPG,ISIC_0054357.JPG,false,1,keypress(m),500,557704.0000000001,557704.0000000001,555025,555012,555041,557743,8,400,43,,ISIC_0000541.JPG
break,html.Screen,4_142_1,2023-10-31T21:08:27.695Z,,0,,,NaN,,,,,,false,,,,557705,557705,,557704.0000000001,,557743,8,400,,,
break_continue,html.Screen,4_142_2,2023-10-31T21:08:27.696Z,,0,,,NaN,,,,,,false,,,,557705,557705,,557705,,557743,8,400,,,
sequence,flow.Sequence,4_142,2023-10-31T21:08:27.696Z,,0,,,2664,completion,,,,,false,,,,557705,557705,555025,555012,555041,557743,8,400,,,
trial,html.Screen,4_143_0,2023-10-31T21:08:30.599Z,,0,3,,2883,response,ISIC_9130157.JPG,8,ISIC_6604862.JPG,ISIC_6604862.JPG,false,0,keypress(z),500,560609,560609,557726,557705,557743,560641,8,400,44,,ISIC_9130157.JPG
break,html.Screen,4_143_1,2023-10-31T21:08:30.600Z,,0,,,NaN,,,,,,false,,,,560609,560609,,560609,,560641,8,400,,,
break_continue,html.Screen,4_143_2,2023-10-31T21:08:30.600Z,,0,,,NaN,,,,,,false,,,,560610,560610,,560610,,560641,8,400,,,
sequence,flow.Sequence,4_143,2023-10-31T21:08:30.600Z,,0,,,2867,completion,,,,,false,,,,560610,560610,557726,557705,557743,560641,8,400,,,
trial,html.Screen,4_144_0,2023-10-31T21:08:33.206Z,,0,3,,2591,response,ISIC_7300631.JPG,12,ISIC_0031324.JPG,ISIC_7300631.JPG,false,1,keypress(m),500,563216,563216,560625,560610,560641,563260,8,400,45,,ISIC_0031324.JPG
break,html.Screen,4_144_1,2023-10-31T21:08:33.207Z,,0,,,NaN,,,,,,false,,,,563216,563216,,563216,,563260,8,400,,,
break_continue,html.Screen,4_144_2,2023-10-31T21:08:33.207Z,,0,,,NaN,,,,,,false,,,,563217,563216,,563216,,563260,8,400,,,
sequence,flow.Sequence,4_144,2023-10-31T21:08:33.207Z,,0,,,2575,completion,,,,,false,,,,563217,563216,560625,560610,560641,563260,8,400,,,
trial,html.Screen,4_145_0,2023-10-31T21:08:36.447Z,,0,3,,3212,response,ISIC_7008969.JPG,14,ISIC_4052597.JPG,ISIC_7008969.JPG,false,1,keypress(m),500,566456,566456,563244,563217,563260,566490,8,400,46,,ISIC_4052597.JPG
break,html.Screen,4_145_1,2023-10-31T21:08:36.447Z,,0,,,NaN,,,,,,false,,,,566457,566457,,566457,,566490,8,400,,,
break_continue,html.Screen,4_145_2,2023-10-31T21:08:36.447Z,,0,,,NaN,,,,,,false,,,,566457,566457,,566457,,566490,8,400,,,
sequence,flow.Sequence,4_145,2023-10-31T21:08:36.448Z,,0,,,3197,completion,,,,,false,,,,566457,566457,563244,563217,563260,566490,8,400,,,
trial,html.Screen,4_146_0,2023-10-31T21:08:39.503Z,,0,3,,3039,response,ISIC_0033024.JPG,9,ISIC_8086526.JPG,ISIC_8086526.JPG,false,0,keypress(z),500,569513,569512,566473,566457,566490,569554,8,400,47,,ISIC_0033024.JPG
break,html.Screen,4_146_1,2023-10-31T21:08:39.504Z,,0,,,NaN,,,,,,false,,,,569513,569513,,569513,,569554,8,400,,,
break_continue,html.Screen,4_146_2,2023-10-31T21:08:39.504Z,,0,,,NaN,,,,,,false,,,,569514,569514,,569514,,569554,8,400,,,
sequence,flow.Sequence,4_146,2023-10-31T21:08:39.504Z,,0,,,3024,completion,,,,,false,,,,569514,569514,566473,566457,566490,569554,8,400,,,
trial,html.Screen,4_147_0,2023-10-31T21:08:42.462Z,,0,3,,2935,response,ISIC_0024459.JPG,7,ISIC_0501108.JPG,ISIC_0501108.JPG,false,0,keypress(z),500,572472,572472,569537,569514,569554,572502,8,400,48,,ISIC_0024459.JPG
break,html.Screen,4_147_1,2023-10-31T21:08:42.463Z,,0,,,NaN,,,,,,false,,,,572472,572472,,572472,,572502,8,400,,,
break_continue,html.Screen,4_147_2,2023-10-31T21:08:42.463Z,,0,,,NaN,,,,,,false,,,,572473,572473,,572473,,572502,8,400,,,
sequence,flow.Sequence,4_147,2023-10-31T21:08:42.463Z,,0,,,2919,completion,,,,,false,,,,572473,572473,569537,569514,569554,572502,8,400,,,
trial,html.Screen,4_148_0,2023-10-31T21:08:45.462Z,,0,3,,2986,response,ISIC_0032516.JPG,13,ISIC_0958701.JPG,ISIC_0958701.JPG,false,0,keypress(z),500,575472,575472,572486,572473,572502,575501,8,400,49,,ISIC_0032516.JPG
break,html.Screen,4_148_1,2023-10-31T21:08:45.463Z,,0,,,NaN,,,,,,false,,,,575473,575473,,575472,,575501,8,400,,,
break_continue,html.Screen,4_148_2,2023-10-31T21:08:45.464Z,,0,,,NaN,,,,,,false,,,,575473,575473,,575473,,575501,8,400,,,
sequence,flow.Sequence,4_148,2023-10-31T21:08:45.464Z,,0,,,2971,completion,,,,,false,,,,575474,575473,572486,572473,572502,575501,8,400,,,
trial,html.Screen,4_149_0,2023-10-31T21:08:48.022Z,,0,3,,2548,response,ISIC_0057858.JPG,10,ISIC_8588033.JPG,ISIC_8588033.JPG,false,0,keypress(z),500,578032,578032,575484,575474,575501,578069,8,400,50,,ISIC_0057858.JPG
break,html.Screen,4_149_1,2023-10-31T21:08:58.045Z,,0,,,10003,timeout,,,,,false,,,,588055.0000000001,588054,578053,578032,578069,588072,8,400,,,
break_continue,html.Screen,4_149_2,2023-10-31T21:08:59.750Z,,0,,,1702,response,,,,,false,continue,keypress(Space),,589760,589756,588054,588055.0000000001,588072,589789,8,400,,,
sequence,flow.Sequence,4_149,2023-10-31T21:08:59.750Z,,0,,,14255,completion,,,,,false,,,,589760,589756,575484,575474,575501,589789,8,400,,,
trial,html.Screen,4_150_0,2023-10-31T21:09:03.370Z,,0,4,,3608,response,ISIC_4666619.JPG,10,ISIC_0056707.JPG,ISIC_0056707.JPG,false,0,keypress(z),500,593380,593380,589772,589760,589789,593412,8,400,1,,ISIC_4666619.JPG
break,html.Screen,4_150_1,2023-10-31T21:09:03.371Z,,0,,,NaN,,,,,,false,,,,593381,593380,,593380,,593412,8,400,,,
break_continue,html.Screen,4_150_2,2023-10-31T21:09:03.371Z,,0,,,NaN,,,,,,false,,,,593381,593381,,593381,,593412,8,400,,,
sequence,flow.Sequence,4_150,2023-10-31T21:09:03.371Z,,0,,,3592,completion,,,,,false,,,,593381,593381,589772,589760,589789,593412,8,400,,,
trial,html.Screen,4_151_0,2023-10-31T21:09:06.362Z,,0,4,,2977,response,ISIC_4086323.JPG,10,ISIC_0070992.JPG,ISIC_4086323.JPG,false,1,keypress(m),500,596372,596372,593395,593381,593412,596410,8,400,2,,ISIC_0070992.JPG
break,html.Screen,4_151_1,2023-10-31T21:09:06.363Z,,0,,,NaN,,,,,,false,,,,596373,596373,,596372,,596410,8,400,,,
break_continue,html.Screen,4_151_2,2023-10-31T21:09:06.363Z,,0,,,NaN,,,,,,false,,,,596373,596373,,596373,,596410,8,400,,,
sequence,flow.Sequence,4_151,2023-10-31T21:09:06.363Z,,0,,,2961,completion,,,,,false,,,,596373,596373,593395,593381,593412,596410,8,400,,,
trial,html.Screen,4_152_0,2023-10-31T21:09:10.001Z,,0,4,,3617,response,ISIC_0024321.JPG,10,ISIC_0059052.JPG,ISIC_0024321.JPG,false,1,keypress(m),500,600011,600011,596394,596374,596410,600049,8,400,3,,ISIC_0059052.JPG
break,html.Screen,4_152_1,2023-10-31T21:09:10.002Z,,0,,,NaN,,,,,,false,,,,600012,600012,,600012,,600049,8,400,,,
break_continue,html.Screen,4_152_2,2023-10-31T21:09:10.002Z,,0,,,NaN,,,,,,false,,,,600012,600012,,600012,,600049,8,400,,,
sequence,flow.Sequence,4_152,2023-10-31T21:09:10.002Z,,0,,,3602,completion,,,,,false,,,,600013,600012,596394,596373,596410,600049,8,400,,,
trial,html.Screen,4_153_0,2023-10-31T21:09:13.169Z,,0,4,,3145,response,ISIC_0011798.JPG,15,ISIC_0010965.JPG,ISIC_0011798.JPG,false,1,keypress(m),500,603179,603179,600034,600013,600049,603218,8,400,4,,ISIC_0010965.JPG
break,html.Screen,4_153_1,2023-10-31T21:09:13.170Z,,0,,,NaN,,,,,,false,,,,603180.0000000001,603180.0000000001,,603179,,603218,8,400,,,
break_continue,html.Screen,4_153_2,2023-10-31T21:09:13.170Z,,0,,,NaN,,,,,,false,,,,603180.0000000001,603180.0000000001,,603180.0000000001,,603218,8,400,,,
sequence,flow.Sequence,4_153,2023-10-31T21:09:13.170Z,,0,,,3131.0000000001164,completion,,,,,false,,,,603180.0000000001,603180.0000000001,600034,600013,600049,603218,8,400,,,
trial,html.Screen,4_154_0,2023-10-31T21:09:16.417Z,,0,4,,3226,response,ISIC_0032121.JPG,13,ISIC_1488727.JPG,ISIC_1488727.JPG,false,0,keypress(z),500,606427,606427,603201,603181,603218,606456,8,400,5,,ISIC_0032121.JPG
break,html.Screen,4_154_1,2023-10-31T21:09:16.417Z,,0,,,NaN,,,,,,false,,,,606428,606428,,606427,,606456,8,400,,,
break_continue,html.Screen,4_154_2,2023-10-31T21:09:16.418Z,,0,,,NaN,,,,,,false,,,,606428,606428,,606428,,606456,8,400,,,
sequence,flow.Sequence,4_154,2023-10-31T21:09:16.418Z,,0,,,3210,completion,,,,,false,,,,606428,606428,603201,603180.0000000001,603218,606456,8,400,,,
trial,html.Screen,4_155_0,2023-10-31T21:09:19.857Z,,0,4,,3428,response,ISIC_0026407.JPG,10,ISIC_4938791.JPG,ISIC_4938791.JPG,false,0,keypress(z),500,609868,609867,606439,606428,606456,609901,8,400,6,,ISIC_0026407.JPG
break,html.Screen,4_155_1,2023-10-31T21:09:19.858Z,,0,,,NaN,,,,,,false,,,,609868,609868,,609868,,609901,8,400,,,
break_continue,html.Screen,4_155_2,2023-10-31T21:09:19.858Z,,0,,,NaN,,,,,,false,,,,609868,609868,,609868,,609901,8,400,,,
sequence,flow.Sequence,4_155,2023-10-31T21:09:19.858Z,,0,,,3412,completion,,,,,false,,,,609869,609868,606439,606428,606456,609901,8,400,,,
