sender,sender_type,sender_id,timestamp,meta,,blockNo,condition,duration,ended_on,img_left,img_reveal,img_right,loser,practice,response,response_action,selection_duration,time_commit,time_end,time_render,time_run,time_show,time_switch,total_blocks,total_trials,trialNo,url,winner
informed_consent,html.Screen,0,2023-11-01T16:57:59.566Z,"{""labjs_version"":""20.2.4"",""labjs_build"":{""flavor"":""production"",""commit"":""f5b4a49f956347addd546a832a3327688c2c0fef""},""location"":""https://run.pavlovia.org/MurrayBennett/melanoma-2afc/?participant=66384&platform=sona"",""userAgent"":""Mozilla/5.0 (Macintosh; Intel Mac OS X 10_15_7) AppleWebKit/605.1.15 (KHTML, like Gecko) Version/16.5 Safari/605.1.15"",""platform"":""MacIntel"",""language"":""en-US"",""locale"":""en-US"",""timeZone"":""America/Chicago"",""timezoneOffset"":300,""screen_width"":1440,""screen_height"":900,""scroll_width"":1009,""scroll_height"":662,""window_innerWidth"":1009,""window_innerHeight"":710,""devicePixelRatio"":2}",,,,12061.000000000002,response,,,,,,consent,click button,,14745.000000000002,14623.000000000002,2562,2553,2594,14787,,,,"{""participant"":""66384"",""platform"":""sona""}",
Welcome,html.Screen,1,2023-11-01T16:58:17.232Z,,,,uniform,17612,response,,,,,,continue,click button,,32411,32391,14779,14746,14787,32438,,,,,
trial,html.Screen,2_0_0,2023-11-01T16:58:25.426Z,,0,0,,8183.000000000007,response,ISIC_0025593.JPG,,ISIC_0063388.JPG,ISIC_0063388.JPG,true,0,keypress(z),500,40605.00000000001,40605.00000000001,32422,32411,32438,40633,1,6,1,,ISIC_0025593.JPG
sequence,flow.Sequence,2_0,2023-11-01T16:58:25.426Z,,0,,,8167.000000000007,completion,,,,,true,,,,40606,40605.00000000001,32422,32411,32438,40633,1,6,,,
trial,html.Screen,2_1_0,2023-11-01T16:58:29.401Z,,0,0,,3964,response,ISIC_1309015.JPG,,ISIC_0028178.JPG,ISIC_1309015.JPG,true,1,keypress(m),500,44581,44580,40616,40606,40633,44613,1,6,2,,ISIC_0028178.JPG
sequence,flow.Sequence,2_1,2023-11-01T16:58:29.402Z,,0,,,3947,completion,,,,,true,,,,44581,44580,40616,40606,40633,44613,1,6,,,
trial,html.Screen,2_2_0,2023-11-01T16:58:32.879Z,,0,0,,3461,response,ISIC_3314853.JPG,,ISIC_0031128.JPG,ISIC_3314853.JPG,true,1,keypress(m),500,48058,48058,44597,44581,44613,48094,1,6,3,,ISIC_0031128.JPG
sequence,flow.Sequence,2_2,2023-11-01T16:58:32.879Z,,0,,,3445,completion,,,,,true,,,,48059,48058,44597,44581,44613,48094,1,6,,,
trial,html.Screen,2_3_0,2023-11-01T16:58:38.439Z,,0,0,,5540,response,ISIC_8980141.JPG,,ISIC_0031612.JPG,ISIC_0031612.JPG,true,0,keypress(z),500,53618,53618,48078,48059,48094,53641,1,6,4,,ISIC_8980141.JPG
sequence,flow.Sequence,2_3,2023-11-01T16:58:38.439Z,,0,,,5524,completion,,,,,true,,,,53618,53618,48078,48059,48094,53641,1,6,,,
trial,html.Screen,2_4_0,2023-11-01T16:58:44.389Z,,0,0,,5944,response,ISIC_9721604.JPG,,ISIC_1197737.JPG,ISIC_9721604.JPG,true,1,keypress(m),500,59568,59568,53624,53619,53641,59603,1,6,5,,ISIC_1197737.JPG
sequence,flow.Sequence,2_4,2023-11-01T16:58:44.389Z,,0,,,5927,completion,,,,,true,,,,59568,59568,53624,53619,53641,59603,1,6,,,
trial,html.Screen,2_5_0,2023-11-01T16:58:49.833Z,,0,0,,5425,response,ISIC_0010681.JPG,,ISIC_0025346.JPG,ISIC_0025346.JPG,true,0,keypress(z),500,65012,65012,59587,59569,59603,65049,1,6,6,,ISIC_0010681.JPG
sequence,flow.Sequence,2_5,2023-11-01T16:58:49.833Z,,0,,,5409,completion,,,,,true,,,,65013.00000000001,65012,59587,59569,59603,65049,1,6,,,
loop,flow.Loop,2,2023-11-01T16:58:49.834Z,,,,,32574,completion,,,,,true,,,,65013.00000000001,65012,32422,32411,32438,65049,1,6,,,
exp_instructions,html.Screen,3,2023-11-01T16:59:02.044Z,,,,,12189,response,,,,,,continue,keypress(Space),,77223,77221,65032,65013.00000000001,65049,77259,,,,,
trial,html.Screen,4_0_0,2023-11-01T16:59:08.184Z,,0,1,,6121,response,ISIC_0011387.JPG,14,ISIC_8483458.JPG,ISIC_8483458.JPG,false,0,keypress(z),500,83363,83363,77242,77224,77259,83387,8,400,1,,ISIC_0011387.JPG
break,html.Screen,4_0_1,2023-11-01T16:59:08.185Z,,0,,,NaN,,,,,,false,,,,83364,83364,,83363,,83387,8,400,,,
break_continue,html.Screen,4_0_2,2023-11-01T16:59:08.185Z,,0,,,NaN,,,,,,false,,,,83365,83364,,83364,,83387,8,400,,,
sequence,flow.Sequence,4_0,2023-11-01T16:59:08.185Z,,0,,,6105,completion,,,,,false,,,,83365,83364,77242,77224,77259,83387,8,400,,,
trial,html.Screen,4_1_0,2023-11-01T16:59:15.341Z,,0,1,,7149,response,ISIC_0031972.JPG,4,ISIC_2074764.JPG,ISIC_2074764.JPG,false,0,keypress(z),500,90521,90520,83371,83365,83387,90550,8,400,2,,ISIC_0031972.JPG
break,html.Screen,4_1_1,2023-11-01T16:59:15.342Z,,0,,,NaN,,,,,,false,,,,90521,90521,,90521,,90550,8,400,,,
break_continue,html.Screen,4_1_2,2023-11-01T16:59:15.342Z,,0,,,NaN,,,,,,false,,,,90522,90522,,90521,,90550,8,400,,,
sequence,flow.Sequence,4_1,2023-11-01T16:59:15.343Z,,0,,,7135,completion,,,,,false,,,,90522,90522,83371,83365,83387,90550,8,400,,,
trial,html.Screen,4_2_0,2023-11-01T16:59:18.169Z,,0,1,,2815,response,ISIC_6324832.JPG,14,ISIC_1952749.JPG,ISIC_6324832.JPG,false,1,keypress(m),500,93348,93348,90533,90522,90550,93382,8,400,3,,ISIC_1952749.JPG
break,html.Screen,4_2_1,2023-11-01T16:59:18.169Z,,0,,,NaN,,,,,,false,,,,93349,93348,,93348,,93382,8,400,,,
break_continue,html.Screen,4_2_2,2023-11-01T16:59:18.170Z,,0,,,NaN,,,,,,false,,,,93349,93349,,93349,,93382,8,400,,,
sequence,flow.Sequence,4_2,2023-11-01T16:59:18.170Z,,0,,,2799,completion,,,,,false,,,,93349,93349,90533,90522,90550,93382,8,400,,,
trial,html.Screen,4_3_0,2023-11-01T16:59:21.357Z,,0,1,,3172,response,ISIC_8892236.JPG,5,ISIC_0062025.JPG,ISIC_0062025.JPG,false,0,keypress(z),500,96537,96536,93364,93349,93382,96562,8,400,4,,ISIC_8892236.JPG
break,html.Screen,4_3_1,2023-11-01T16:59:21.358Z,,0,,,NaN,,,,,,false,,,,96537,96537,,96537,,96562,8,400,,,
break_continue,html.Screen,4_3_2,2023-11-01T16:59:21.358Z,,0,,,NaN,,,,,,false,,,,96538,96537,,96537,,96562,8,400,,,
sequence,flow.Sequence,4_3,2023-11-01T16:59:21.359Z,,0,,,3155,completion,,,,,false,,,,96538,96537,93364,93349,93382,96562,8,400,,,
trial,html.Screen,4_4_0,2023-11-01T16:59:24.776Z,,0,1,,3409,response,ISIC_0056811.JPG,4,ISIC_0034141.JPG,ISIC_0034141.JPG,false,0,keypress(z),500,99955,99955,96546,96538,96562,99976,8,400,5,,ISIC_0056811.JPG
break,html.Screen,4_4_1,2023-11-01T16:59:24.777Z,,0,,,NaN,,,,,,false,,,,99956,99956,,99955,,99976,8,400,,,
break_continue,html.Screen,4_4_2,2023-11-01T16:59:24.777Z,,0,,,NaN,,,,,,false,,,,99956,99956,,99956,,99976,8,400,,,
sequence,flow.Sequence,4_4,2023-11-01T16:59:24.777Z,,0,,,3394,completion,,,,,false,,,,99957.00000000001,99956,96546,96538,96562,99976,8,400,,,
trial,html.Screen,4_5_0,2023-11-01T16:59:28.000Z,,0,1,,3219,response,ISIC_3382231.JPG,3,ISIC_0053742.JPG,ISIC_3382231.JPG,false,1,keypress(m),500,103179,103179,99960,99957.00000000001,99976,103208,8,400,6,,ISIC_0053742.JPG
break,html.Screen,4_5_1,2023-11-01T16:59:28.000Z,,0,,,NaN,,,,,,false,,,,103180,103179,,103179,,103208,8,400,,,
break_continue,html.Screen,4_5_2,2023-11-01T16:59:28.001Z,,0,,,NaN,,,,,,false,,,,103180,103180,,103180,,103208,8,400,,,
sequence,flow.Sequence,4_5,2023-11-01T16:59:28.001Z,,0,,,3204,completion,,,,,false,,,,103180,103180,99960,99957.00000000001,99976,103208,8,400,,,
trial,html.Screen,4_6_0,2023-11-01T16:59:31.663Z,,0,1,,3651,response,ISIC_7724764.JPG,16,ISIC_5361404.JPG,ISIC_7724764.JPG,false,1,keypress(m),500,106843,106842,103191,103180,103208,106871,8,400,7,,ISIC_5361404.JPG
break,html.Screen,4_6_1,2023-11-01T16:59:31.664Z,,0,,,NaN,,,,,,false,,,,106843,106843,,106843,,106871,8,400,,,
break_continue,html.Screen,4_6_2,2023-11-01T16:59:31.664Z,,0,,,NaN,,,,,,false,,,,106844.00000000001,106844.00000000001,,106843,,106871,8,400,,,
sequence,flow.Sequence,4_6,2023-11-01T16:59:31.665Z,,0,,,3636.0000000000146,completion,,,,,false,,,,106844.00000000001,106844.00000000001,103191,103180,103208,106871,8,400,,,
trial,html.Screen,4_7_0,2023-11-01T16:59:34.938Z,,0,1,,3262.0000000000146,response,ISIC_9978498.JPG,3,ISIC_0032747.JPG,ISIC_9978498.JPG,false,1,keypress(m),500,110118.00000000001,110118.00000000001,106856,106844.00000000001,106871,110137,8,400,8,,ISIC_0032747.JPG
break,html.Screen,4_7_1,2023-11-01T16:59:34.939Z,,0,,,NaN,,,,,,false,,,,110118.00000000001,110118.00000000001,,110118.00000000001,,110137,8,400,,,
break_continue,html.Screen,4_7_2,2023-11-01T16:59:34.939Z,,0,,,NaN,,,,,,false,,,,110119,110119,,110119,,110137,8,400,,,
sequence,flow.Sequence,4_7,2023-11-01T16:59:34.939Z,,0,,,3248,completion,,,,,false,,,,110119,110119,106856,106844.00000000001,106871,110137,8,400,,,
trial,html.Screen,4_8_0,2023-11-01T16:59:38.969Z,,0,1,,4027,response,ISIC_4951035.JPG,15,ISIC_0033454.JPG,ISIC_4951035.JPG,false,1,keypress(m),500,114149,114148,110121,110119,110137,114183,8,400,9,,ISIC_0033454.JPG
break,html.Screen,4_8_1,2023-11-01T16:59:38.970Z,,0,,,NaN,,,,,,false,,,,114149,114149,,114149,,114183,8,400,,,
break_continue,html.Screen,4_8_2,2023-11-01T16:59:38.970Z,,0,,,NaN,,,,,,false,,,,114150,114150,,114149,,114183,8,400,,,
sequence,flow.Sequence,4_8,2023-11-01T16:59:38.971Z,,0,,,4013,completion,,,,,false,,,,114150,114150,110121,110119,110137,114183,8,400,,,
trial,html.Screen,4_9_0,2023-11-01T16:59:41.730Z,,0,1,,2741,response,ISIC_7365889.JPG,0,ISIC_0072642.JPG,ISIC_7365889.JPG,false,1,keypress(m),500,116910,116909,114168,114150,114183,116932,8,400,10,,ISIC_0072642.JPG
break,html.Screen,4_9_1,2023-11-01T16:59:41.731Z,,0,,,NaN,,,,,,false,,,,116910,116910,,116910,,116932,8,400,,,
break_continue,html.Screen,4_9_2,2023-11-01T16:59:41.731Z,,0,,,NaN,,,,,,false,,,,116911,116910,,116910,,116932,8,400,,,
sequence,flow.Sequence,4_9,2023-11-01T16:59:41.731Z,,0,,,2727,completion,,,,,false,,,,116911,116910,114168,114150,114183,116932,8,400,,,
trial,html.Screen,4_10_0,2023-11-01T16:59:44.986Z,,0,1,,3250,response,ISIC_0059786.JPG,2,ISIC_0056226.JPG,ISIC_0059786.JPG,false,1,keypress(m),500,120165,120165,116915,116911,116932,120196,8,400,11,,ISIC_0056226.JPG
break,html.Screen,4_10_1,2023-11-01T16:59:44.987Z,,0,,,NaN,,,,,,false,,,,120166,120166,,120166,,120196,8,400,,,
break_continue,html.Screen,4_10_2,2023-11-01T16:59:44.987Z,,0,,,NaN,,,,,,false,,,,120166,120166,,120166,,120196,8,400,,,
sequence,flow.Sequence,4_10,2023-11-01T16:59:44.987Z,,0,,,3234,completion,,,,,false,,,,120166,120166,116915,116911,116932,120196,8,400,,,
trial,html.Screen,4_11_0,2023-11-01T16:59:48.203Z,,0,1,,3202,response,ISIC_9760652.JPG,15,ISIC_8535134.JPG,ISIC_8535134.JPG,false,0,keypress(z),500,123382,123382,120180,120166,120196,123411,8,400,12,,ISIC_9760652.JPG
break,html.Screen,4_11_1,2023-11-01T16:59:48.203Z,,0,,,NaN,,,,,,false,,,,123382,123382,,123382,,123411,8,400,,,
break_continue,html.Screen,4_11_2,2023-11-01T16:59:48.203Z,,0,,,NaN,,,,,,false,,,,123383,123383,,123382,,123411,8,400,,,
sequence,flow.Sequence,4_11,2023-11-01T16:59:48.203Z,,0,,,3187,completion,,,,,false,,,,123383,123383,120180,120166,120196,123411,8,400,,,
trial,html.Screen,4_12_0,2023-11-01T16:59:50.961Z,,0,1,,2745,response,ISIC_0063521.JPG,17,ISIC_0060656.JPG,ISIC_0063521.JPG,false,1,keypress(m),500,126140,126140,123395,123383,123411,126176,8,400,13,,ISIC_0060656.JPG
break,html.Screen,4_12_1,2023-11-01T16:59:50.962Z,,0,,,NaN,,,,,,false,,,,126141,126141,,126141,,126176,8,400,,,
break_continue,html.Screen,4_12_2,2023-11-01T16:59:50.962Z,,0,,,NaN,,,,,,false,,,,126142,126142,,126141,,126176,8,400,,,
sequence,flow.Sequence,4_12,2023-11-01T16:59:50.962Z,,0,,,2731,completion,,,,,false,,,,126142,126142,123395,123383,123411,126176,8,400,,,
trial,html.Screen,4_13_0,2023-11-01T16:59:53.575Z,,0,1,,2593.9999999999854,response,ISIC_0033368.JPG,15,ISIC_0028075.JPG,ISIC_0028075.JPG,false,0,keypress(z),500,128753.99999999999,128753.99999999999,126160,126142,126176,128790,8,400,14,,ISIC_0033368.JPG
break,html.Screen,4_13_1,2023-11-01T16:59:53.576Z,,0,,,NaN,,,,,,false,,,,128755,128755,,128753.99999999999,,128790,8,400,,,
break_continue,html.Screen,4_13_2,2023-11-01T16:59:53.576Z,,0,,,NaN,,,,,,false,,,,128755,128755,,128755,,128790,8,400,,,
sequence,flow.Sequence,4_13,2023-11-01T16:59:53.576Z,,0,,,2579,completion,,,,,false,,,,128756,128755,126160,126142,126176,128790,8,400,,,
trial,html.Screen,4_14_0,2023-11-01T16:59:56.885Z,,0,1,,3290,response,ISIC_4965832.JPG,0,ISIC_0029825.JPG,ISIC_4965832.JPG,false,1,keypress(m),500,132064,132064,128774,128756,128790,132088,8,400,15,,ISIC_0029825.JPG
break,html.Screen,4_14_1,2023-11-01T16:59:56.886Z,,0,,,NaN,,,,,,false,,,,132065,132065,,132064,,132088,8,400,,,
break_continue,html.Screen,4_14_2,2023-11-01T16:59:56.886Z,,0,,,NaN,,,,,,false,,,,132065,132065,,132065,,132088,8,400,,,
sequence,flow.Sequence,4_14,2023-11-01T16:59:56.886Z,,0,,,3275,completion,,,,,false,,,,132065,132065,128774,128756,128790,132088,8,400,,,
trial,html.Screen,4_15_0,2023-11-01T16:59:59.943Z,,0,1,,3050,response,ISIC_9453737.JPG,16,ISIC_2642742.JPG,ISIC_2642742.JPG,false,0,keypress(z),500,135122,135122,132072,132065,132088,135152,8,400,16,,ISIC_9453737.JPG
break,html.Screen,4_15_1,2023-11-01T16:59:59.944Z,,0,,,NaN,,,,,,false,,,,135123,135123,,135122,,135152,8,400,,,
break_continue,html.Screen,4_15_2,2023-11-01T16:59:59.944Z,,0,,,NaN,,,,,,false,,,,135123,135123,,135123,,135152,8,400,,,
sequence,flow.Sequence,4_15,2023-11-01T16:59:59.944Z,,0,,,3035,completion,,,,,false,,,,135123,135123,132072,132065,132088,135152,8,400,,,
trial,html.Screen,4_16_0,2023-11-01T17:00:03.434Z,,0,1,,3477,response,ISIC_2647198.JPG,8,ISIC_0055701.JPG,ISIC_0055701.JPG,false,0,keypress(z),500,138613,138613,135136,135123,135152,138634,8,400,17,,ISIC_2647198.JPG
break,html.Screen,4_16_1,2023-11-01T17:00:03.434Z,,0,,,NaN,,,,,,false,,,,138614,138613,,138613,,138634,8,400,,,
break_continue,html.Screen,4_16_2,2023-11-01T17:00:03.435Z,,0,,,NaN,,,,,,false,,,,138614,138614,,138614,,138634,8,400,,,
sequence,flow.Sequence,4_16,2023-11-01T17:00:03.435Z,,0,,,3462,completion,,,,,false,,,,138614,138614,135136,135123,135152,138634,8,400,,,
trial,html.Screen,4_17_0,2023-11-01T17:00:06.164Z,,0,1,,2726,response,ISIC_0014219.JPG,1,ISIC_9646599.JPG,ISIC_0014219.JPG,false,1,keypress(m),500,141344,141343,138617,138614,138634,141365,8,400,18,,ISIC_9646599.JPG
break,html.Screen,4_17_1,2023-11-01T17:00:06.165Z,,0,,,NaN,,,,,,false,,,,141344,141344,,141344,,141365,8,400,,,
break_continue,html.Screen,4_17_2,2023-11-01T17:00:06.165Z,,0,,,NaN,,,,,,false,,,,141345,141344,,141344,,141365,8,400,,,
sequence,flow.Sequence,4_17,2023-11-01T17:00:06.165Z,,0,,,2710,completion,,,,,false,,,,141345,141344,138617,138614,138634,141365,8,400,,,
trial,html.Screen,4_18_0,2023-11-01T17:00:09.630Z,,0,1,,3460,response,ISIC_0026008.JPG,6,ISIC_5176419.JPG,ISIC_0026008.JPG,false,1,keypress(m),500,144809,144809,141349,141345,141365,144847,8,400,19,,ISIC_5176419.JPG
break,html.Screen,4_18_1,2023-11-01T17:00:09.631Z,,0,,,NaN,,,,,,false,,,,144810,144810,,144809,,144847,8,400,,,
break_continue,html.Screen,4_18_2,2023-11-01T17:00:09.631Z,,0,,,NaN,,,,,,false,,,,144810,144810,,144810,,144847,8,400,,,
sequence,flow.Sequence,4_18,2023-11-01T17:00:09.631Z,,0,,,3445,completion,,,,,false,,,,144810,144810,141349,141345,141365,144847,8,400,,,
trial,html.Screen,4_19_0,2023-11-01T17:00:12.151Z,,0,1,,2502,response,ISIC_0033692.JPG,15,ISIC_0063319.JPG,ISIC_0063319.JPG,false,0,keypress(z),500,147331,147331,144829,144811,144847,147362,8,400,20,,ISIC_0033692.JPG
break,html.Screen,4_19_1,2023-11-01T17:00:12.152Z,,0,,,NaN,,,,,,false,,,,147331,147331,,147331,,147362,8,400,,,
break_continue,html.Screen,4_19_2,2023-11-01T17:00:12.152Z,,0,,,NaN,,,,,,false,,,,147331,147331,,147331,,147362,8,400,,,
sequence,flow.Sequence,4_19,2023-11-01T17:00:12.152Z,,0,,,2484,completion,,,,,false,,,,147332,147331,144829,144810,144847,147362,8,400,,,
trial,html.Screen,4_20_0,2023-11-01T17:00:15.179Z,,0,1,,3013,response,ISIC_6815524.JPG,13,ISIC_0071118.JPG,ISIC_6815524.JPG,false,1,keypress(m),500,150359,150358,147345,147332,147362,150392,8,400,21,,ISIC_0071118.JPG
break,html.Screen,4_20_1,2023-11-01T17:00:15.180Z,,0,,,NaN,,,,,,false,,,,150359,150359,,150359,,150392,8,400,,,
break_continue,html.Screen,4_20_2,2023-11-01T17:00:15.180Z,,0,,,NaN,,,,,,false,,,,150360,150360,,150359,,150392,8,400,,,
sequence,flow.Sequence,4_20,2023-11-01T17:00:15.181Z,,0,,,2998,completion,,,,,false,,,,150360,150360,147345,147332,147362,150392,8,400,,,
trial,html.Screen,4_21_0,2023-11-01T17:00:18.738Z,,0,1,,3541,response,ISIC_0009882.JPG,17,ISIC_0055731.JPG,ISIC_0009882.JPG,false,1,keypress(m),500,153918,153917,150376,150360,150392,153941,8,400,22,,ISIC_0055731.JPG
break,html.Screen,4_21_1,2023-11-01T17:00:18.739Z,,0,,,NaN,,,,,,false,,,,153919,153918,,153918,,153941,8,400,,,
break_continue,html.Screen,4_21_2,2023-11-01T17:00:18.740Z,,0,,,NaN,,,,,,false,,,,153919,153919,,153919,,153941,8,400,,,
sequence,flow.Sequence,4_21,2023-11-01T17:00:18.740Z,,0,,,3527,completion,,,,,false,,,,153919,153919,150376,150360,150392,153941,8,400,,,
trial,html.Screen,4_22_0,2023-11-01T17:00:22.306Z,,0,1,,3561,response,ISIC_5484086.JPG,2,ISIC_8649055.JPG,ISIC_8649055.JPG,false,0,keypress(z),500,157485,157485,153924,153919,153941,157505,8,400,23,,ISIC_5484086.JPG
break,html.Screen,4_22_1,2023-11-01T17:00:22.307Z,,0,,,NaN,,,,,,false,,,,157486,157486,,157486,,157505,8,400,,,
break_continue,html.Screen,4_22_2,2023-11-01T17:00:22.307Z,,0,,,NaN,,,,,,false,,,,157486,157486,,157486,,157505,8,400,,,
sequence,flow.Sequence,4_22,2023-11-01T17:00:22.307Z,,0,,,3545,completion,,,,,false,,,,157486,157486,153924,153919,153941,157505,8,400,,,
trial,html.Screen,4_23_0,2023-11-01T17:00:25.057Z,,0,1,,2748,response,ISIC_4724660.JPG,1,ISIC_0054134.JPG,ISIC_4724660.JPG,false,1,keypress(m),500,160236,160236,157488,157486,157505,160253,8,400,24,,ISIC_0054134.JPG
break,html.Screen,4_23_1,2023-11-01T17:00:25.057Z,,0,,,NaN,,,,,,false,,,,160237,160237,,160236,,160253,8,400,,,
break_continue,html.Screen,4_23_2,2023-11-01T17:00:25.058Z,,0,,,NaN,,,,,,false,,,,160237,160237,,160237,,160253,8,400,,,
sequence,flow.Sequence,4_23,2023-11-01T17:00:25.058Z,,0,,,2732,completion,,,,,false,,,,160237,160237,157488,157486,157505,160253,8,400,,,
trial,html.Screen,4_24_0,2023-11-01T17:00:28.570Z,,0,1,,3510,response,ISIC_4451735.JPG,1,ISIC_0071797.JPG,ISIC_4451735.JPG,false,1,keypress(m),500,163749,163749,160239,160237,160253,163784,8,400,25,,ISIC_0071797.JPG
break,html.Screen,4_24_1,2023-11-01T17:00:28.570Z,,0,,,NaN,,,,,,false,,,,163750,163749,,163749,,163784,8,400,,,
break_continue,html.Screen,4_24_2,2023-11-01T17:00:28.570Z,,0,,,NaN,,,,,,false,,,,163750,163750,,163750,,163784,8,400,,,
sequence,flow.Sequence,4_24,2023-11-01T17:00:28.571Z,,0,,,3497,completion,,,,,false,,,,163750,163750,160239,160237,160253,163784,8,400,,,
trial,html.Screen,4_25_0,2023-11-01T17:00:31.250Z,,0,1,,2661,response,ISIC_0029575.JPG,3,ISIC_5242216.JPG,ISIC_5242216.JPG,false,0,keypress(z),500,166429,166429,163768,163750,163784,166466,8,400,26,,ISIC_0029575.JPG
break,html.Screen,4_25_1,2023-11-01T17:00:31.251Z,,0,,,NaN,,,,,,false,,,,166430,166430,,166429,,166466,8,400,,,
break_continue,html.Screen,4_25_2,2023-11-01T17:00:31.251Z,,0,,,NaN,,,,,,false,,,,166430,166430,,166430,,166466,8,400,,,
sequence,flow.Sequence,4_25,2023-11-01T17:00:31.251Z,,0,,,2646,completion,,,,,false,,,,166430,166430,163768,163750,163784,166466,8,400,,,
trial,html.Screen,4_26_0,2023-11-01T17:00:35.617Z,,0,1,,4347,response,ISIC_3892947.JPG,0,ISIC_0029909.JPG,ISIC_0029909.JPG,false,0,keypress(z),500,170796,170796,166449,166430,166466,170829,8,400,27,,ISIC_3892947.JPG
break,html.Screen,4_26_1,2023-11-01T17:00:35.617Z,,0,,,NaN,,,,,,false,,,,170796,170796,,170796,,170829,8,400,,,
break_continue,html.Screen,4_26_2,2023-11-01T17:00:35.617Z,,0,,,NaN,,,,,,false,,,,170797,170797,,170796,,170829,8,400,,,
sequence,flow.Sequence,4_26,2023-11-01T17:00:35.617Z,,0,,,4331,completion,,,,,false,,,,170797,170797,166449,166430,166466,170829,8,400,,,
trial,html.Screen,4_27_0,2023-11-01T17:00:38.086Z,,0,1,,2452.000000000029,response,ISIC_0061381.JPG,0,ISIC_3395488.JPG,ISIC_3395488.JPG,false,0,keypress(z),500,173265.00000000003,173265.00000000003,170813,170797,170829,173294,8,400,28,,ISIC_0061381.JPG
break,html.Screen,4_27_1,2023-11-01T17:00:38.086Z,,0,,,NaN,,,,,,false,,,,173266,173266,,173265.00000000003,,173294,8,400,,,
break_continue,html.Screen,4_27_2,2023-11-01T17:00:38.087Z,,0,,,NaN,,,,,,false,,,,173266,173266,,173266,,173294,8,400,,,
sequence,flow.Sequence,4_27,2023-11-01T17:00:38.087Z,,0,,,2437,completion,,,,,false,,,,173266,173266,170813,170797,170829,173294,8,400,,,
trial,html.Screen,4_28_0,2023-11-01T17:00:40.847Z,,0,1,,2749,response,ISIC_6685532.JPG,1,ISIC_0027411.JPG,ISIC_6685532.JPG,false,1,keypress(m),500,176026,176026,173277,173266,173294,176060,8,400,29,,ISIC_0027411.JPG
break,html.Screen,4_28_1,2023-11-01T17:00:40.848Z,,0,,,NaN,,,,,,false,,,,176027.00000000003,176027.00000000003,,176026,,176060,8,400,,,
break_continue,html.Screen,4_28_2,2023-11-01T17:00:40.848Z,,0,,,NaN,,,,,,false,,,,176027.00000000003,176027.00000000003,,176027.00000000003,,176060,8,400,,,
sequence,flow.Sequence,4_28,2023-11-01T17:00:40.848Z,,0,,,2733.000000000029,completion,,,,,false,,,,176027.00000000003,176027.00000000003,173277,173266,173294,176060,8,400,,,
trial,html.Screen,4_29_0,2023-11-01T17:00:44.095Z,,0,1,,3232,response,ISIC_7694069.JPG,0,ISIC_5576250.JPG,ISIC_5576250.JPG,false,0,keypress(z),500,179275,179274,176042,176027.00000000003,176060,179306,8,400,30,,ISIC_7694069.JPG
break,html.Screen,4_29_1,2023-11-01T17:00:44.096Z,,0,,,NaN,,,,,,false,,,,179275,179275,,179275,,179306,8,400,,,
break_continue,html.Screen,4_29_2,2023-11-01T17:00:44.096Z,,0,,,NaN,,,,,,false,,,,179275,179275,,179275,,179306,8,400,,,
sequence,flow.Sequence,4_29,2023-11-01T17:00:44.096Z,,0,,,3215,completion,,,,,false,,,,179275,179275,176042,176027.00000000003,176060,179306,8,400,,,
trial,html.Screen,4_30_0,2023-11-01T17:00:47.010Z,,0,1,,2899,response,ISIC_0000554.JPG,2,ISIC_0061021.JPG,ISIC_0000554.JPG,false,1,keypress(m),500,182189,182189,179290,179275,179306,182222,8,400,31,,ISIC_0061021.JPG
break,html.Screen,4_30_1,2023-11-01T17:00:47.010Z,,0,,,NaN,,,,,,false,,,,182190,182190,,182189,,182222,8,400,,,
break_continue,html.Screen,4_30_2,2023-11-01T17:00:47.011Z,,0,,,NaN,,,,,,false,,,,182190,182190,,182190,,182222,8,400,,,
sequence,flow.Sequence,4_30,2023-11-01T17:00:47.011Z,,0,,,2884,completion,,,,,false,,,,182190,182190,179290,179275,179306,182222,8,400,,,
trial,html.Screen,4_31_0,2023-11-01T17:00:51.271Z,,0,1,,4245.000000000029,response,ISIC_0616491.JPG,13,ISIC_5308066.JPG,ISIC_5308066.JPG,false,0,keypress(z),500,186450.00000000003,186450.00000000003,182205,182190,182222,186486,8,400,32,,ISIC_0616491.JPG
break,html.Screen,4_31_1,2023-11-01T17:00:51.272Z,,0,,,NaN,,,,,,false,,,,186451,186451,,186450.00000000003,,186486,8,400,,,
break_continue,html.Screen,4_31_2,2023-11-01T17:00:51.272Z,,0,,,NaN,,,,,,false,,,,186452,186451,,186451,,186486,8,400,,,
sequence,flow.Sequence,4_31,2023-11-01T17:00:51.272Z,,0,,,4229,completion,,,,,false,,,,186452,186451,182205,182190,182222,186486,8,400,,,
trial,html.Screen,4_32_0,2023-11-01T17:00:55.378Z,,0,1,,4087.000000000029,response,ISIC_9562442.JPG,2,ISIC_0016137.JPG,ISIC_0016137.JPG,false,0,keypress(z),500,190558,190557.00000000003,186470,186452,186486,190583,8,400,33,,ISIC_9562442.JPG
break,html.Screen,4_32_1,2023-11-01T17:00:55.379Z,,0,,,NaN,,,,,,false,,,,190558,190558,,190558,,190583,8,400,,,
break_continue,html.Screen,4_32_2,2023-11-01T17:00:55.380Z,,0,,,NaN,,,,,,false,,,,190559,190559,,190559,,190583,8,400,,,
sequence,flow.Sequence,4_32,2023-11-01T17:00:55.380Z,,0,,,4073,completion,,,,,false,,,,190559,190559,186470,186452,186486,190583,8,400,,,
trial,html.Screen,4_33_0,2023-11-01T17:00:59.963Z,,0,1,,4576,response,ISIC_0011607.JPG,14,ISIC_2396791.JPG,ISIC_2396791.JPG,false,0,keypress(z),500,195143,195143,190567,190559,190583,195180,8,400,34,,ISIC_0011607.JPG
break,html.Screen,4_33_1,2023-11-01T17:00:59.964Z,,0,,,NaN,,,,,,false,,,,195143,195143,,195143,,195180,8,400,,,
break_continue,html.Screen,4_33_2,2023-11-01T17:00:59.965Z,,0,,,NaN,,,,,,false,,,,195144,195144,,195144,,195180,8,400,,,
sequence,flow.Sequence,4_33,2023-11-01T17:00:59.965Z,,0,,,4561,completion,,,,,false,,,,195144,195144,190567,190559,190583,195180,8,400,,,
trial,html.Screen,4_34_0,2023-11-01T17:01:02.947Z,,0,1,,2963,response,ISIC_0046315.JPG,1,ISIC_0027378.JPG,ISIC_0046315.JPG,false,1,keypress(m),500,198126,198126,195163,195144,195180,198162,8,400,35,,ISIC_0027378.JPG
break,html.Screen,4_34_1,2023-11-01T17:01:02.948Z,,0,,,NaN,,,,,,false,,,,198127,198127,,198126,,198162,8,400,,,
break_continue,html.Screen,4_34_2,2023-11-01T17:01:02.948Z,,0,,,NaN,,,,,,false,,,,198127,198127,,198127,,198162,8,400,,,
sequence,flow.Sequence,4_34,2023-11-01T17:01:02.948Z,,0,,,2947,completion,,,,,false,,,,198127,198127,195163,195144,195180,198162,8,400,,,
trial,html.Screen,4_35_0,2023-11-01T17:01:05.764Z,,0,1,,2798,response,ISIC_0011040.JPG,15,ISIC_5843614.JPG,ISIC_5843614.JPG,false,0,keypress(z),500,200943,200943,198145,198127,198162,200976,8,400,36,,ISIC_0011040.JPG
break,html.Screen,4_35_1,2023-11-01T17:01:05.765Z,,0,,,NaN,,,,,,false,,,,200944.00000000003,200944.00000000003,,200944.00000000003,,200976,8,400,,,
break_continue,html.Screen,4_35_2,2023-11-01T17:01:05.765Z,,0,,,NaN,,,,,,false,,,,200944.00000000003,200944.00000000003,,200944.00000000003,,200976,8,400,,,
sequence,flow.Sequence,4_35,2023-11-01T17:01:05.765Z,,0,,,2782.000000000029,completion,,,,,false,,,,200944.00000000003,200944.00000000003,198145,198127,198162,200976,8,400,,,
trial,html.Screen,4_36_0,2023-11-01T17:01:09.019Z,,0,1,,3238,response,ISIC_0027282.JPG,13,ISIC_2183722.JPG,ISIC_2183722.JPG,false,0,keypress(z),500,204199,204198,200960,200945,200976,204224,8,400,37,,ISIC_0027282.JPG
break,html.Screen,4_36_1,2023-11-01T17:01:09.020Z,,0,,,NaN,,,,,,false,,,,204199,204199,,204199,,204224,8,400,,,
break_continue,html.Screen,4_36_2,2023-11-01T17:01:09.020Z,,0,,,NaN,,,,,,false,,,,204200.00000000003,204200.00000000003,,204199,,204224,8,400,,,
sequence,flow.Sequence,4_36,2023-11-01T17:01:09.020Z,,0,,,3224.000000000029,completion,,,,,false,,,,204200.00000000003,204200.00000000003,200960,200945,200976,204224,8,400,,,
trial,html.Screen,4_37_0,2023-11-01T17:01:16.463Z,,0,1,,7434,response,ISIC_0033729.JPG,7,ISIC_0024650.JPG,ISIC_0033729.JPG,false,1,keypress(m),500,211642,211642,204208,204200.00000000003,204224,211669,8,400,38,,ISIC_0024650.JPG
break,html.Screen,4_37_1,2023-11-01T17:01:16.463Z,,0,,,NaN,,,,,,false,,,,211643,211643,,211642,,211669,8,400,,,
break_continue,html.Screen,4_37_2,2023-11-01T17:01:16.464Z,,0,,,NaN,,,,,,false,,,,211643,211643,,211643,,211669,8,400,,,
sequence,flow.Sequence,4_37,2023-11-01T17:01:16.464Z,,0,,,7419,completion,,,,,false,,,,211643,211643,204208,204200.00000000003,204224,211669,8,400,,,
trial,html.Screen,4_38_0,2023-11-01T17:01:20.372Z,,0,1,,3898.000000000029,response,ISIC_9618489.JPG,16,ISIC_8730617.JPG,ISIC_9618489.JPG,false,1,keypress(m),500,215552,215551.00000000003,211653,211643,211669,215583,8,400,39,,ISIC_8730617.JPG
break,html.Screen,4_38_1,2023-11-01T17:01:20.373Z,,0,,,NaN,,,,,,false,,,,215552,215552,,215552,,215583,8,400,,,
break_continue,html.Screen,4_38_2,2023-11-01T17:01:20.373Z,,0,,,NaN,,,,,,false,,,,215552,215552,,215552,,215583,8,400,,,
sequence,flow.Sequence,4_38,2023-11-01T17:01:20.373Z,,0,,,3883,completion,,,,,false,,,,215552,215552,211653,211643,211669,215583,8,400,,,
trial,html.Screen,4_39_0,2023-11-01T17:01:23.010Z,,0,1,,2623,response,ISIC_0692990.JPG,2,ISIC_0011694.JPG,ISIC_0692990.JPG,false,1,keypress(m),500,218190,218190,215567,215553,215583,218215,8,400,40,,ISIC_0011694.JPG
break,html.Screen,4_39_1,2023-11-01T17:01:23.011Z,,0,,,NaN,,,,,,false,,,,218190,218190,,218190,,218215,8,400,,,
break_continue,html.Screen,4_39_2,2023-11-01T17:01:23.011Z,,0,,,NaN,,,,,,false,,,,218191,218190,,218190,,218215,8,400,,,
sequence,flow.Sequence,4_39,2023-11-01T17:01:23.011Z,,0,,,2607,completion,,,,,false,,,,218191,218190,215567,215552,215583,218215,8,400,,,
trial,html.Screen,4_40_0,2023-11-01T17:01:26.801Z,,0,1,,3782.000000000029,response,ISIC_2323082.JPG,0,ISIC_0009289.JPG,ISIC_0009289.JPG,false,0,keypress(z),500,221980.00000000003,221980.00000000003,218198,218191,218215,222012,8,400,41,,ISIC_2323082.JPG
break,html.Screen,4_40_1,2023-11-01T17:01:26.801Z,,0,,,NaN,,,,,,false,,,,221980.00000000003,221980.00000000003,,221980.00000000003,,222012,8,400,,,
break_continue,html.Screen,4_40_2,2023-11-01T17:01:26.801Z,,0,,,NaN,,,,,,false,,,,221981,221981,,221980.00000000003,,222012,8,400,,,
sequence,flow.Sequence,4_40,2023-11-01T17:01:26.801Z,,0,,,3766,completion,,,,,false,,,,221981,221981,218198,218191,218215,222012,8,400,,,
trial,html.Screen,4_41_0,2023-11-01T17:01:32.489Z,,0,1,,5672,response,ISIC_0010757.JPG,17,ISIC_0030751.JPG,ISIC_0010757.JPG,false,1,keypress(m),500,227668,227668,221996,221981,222012,227692,8,400,42,,ISIC_0030751.JPG
break,html.Screen,4_41_1,2023-11-01T17:01:32.489Z,,0,,,NaN,,,,,,false,,,,227668,227668,,227668,,227692,8,400,,,
break_continue,html.Screen,4_41_2,2023-11-01T17:01:32.489Z,,0,,,NaN,,,,,,false,,,,227669,227669,,227669,,227692,8,400,,,
sequence,flow.Sequence,4_41,2023-11-01T17:01:32.490Z,,0,,,5657,completion,,,,,false,,,,227669,227669,221996,221981,222012,227692,8,400,,,
trial,html.Screen,4_42_0,2023-11-01T17:01:35.976Z,,0,1,,3481,response,ISIC_2808323.JPG,14,ISIC_9684649.JPG,ISIC_9684649.JPG,false,0,keypress(z),500,231155,231155,227674,227669,227692,231189,8,400,43,,ISIC_2808323.JPG
break,html.Screen,4_42_1,2023-11-01T17:01:35.977Z,,0,,,NaN,,,,,,false,,,,231156,231156,,231155,,231189,8,400,,,
break_continue,html.Screen,4_42_2,2023-11-01T17:01:35.977Z,,0,,,NaN,,,,,,false,,,,231156,231156,,231156,,231189,8,400,,,
sequence,flow.Sequence,4_42,2023-11-01T17:01:35.977Z,,0,,,3464,completion,,,,,false,,,,231156,231156,227674,227669,227692,231189,8,400,,,
trial,html.Screen,4_43_0,2023-11-01T17:01:40.522Z,,0,1,,4528,response,ISIC_0028488.JPG,0,ISIC_0014766.JPG,ISIC_0028488.JPG,false,1,keypress(m),500,235701,235701,231173,231157,231189,235736,8,400,44,,ISIC_0014766.JPG
break,html.Screen,4_43_1,2023-11-01T17:01:40.522Z,,0,,,NaN,,,,,,false,,,,235701,235701,,235701,,235736,8,400,,,
break_continue,html.Screen,4_43_2,2023-11-01T17:01:40.522Z,,0,,,NaN,,,,,,false,,,,235702,235702,,235702,,235736,8,400,,,
sequence,flow.Sequence,4_43,2023-11-01T17:01:40.522Z,,0,,,4513,completion,,,,,false,,,,235702,235702,231173,231156,231189,235736,8,400,,,
trial,html.Screen,4_44_0,2023-11-01T17:01:47.100Z,,0,1,,6559,response,ISIC_9482842.JPG,0,ISIC_0010103.JPG,ISIC_0010103.JPG,false,0,keypress(z),500,242280,242279,235720,235702,235736,242316,8,400,45,,ISIC_9482842.JPG
break,html.Screen,4_44_1,2023-11-01T17:01:47.101Z,,0,,,NaN,,,,,,false,,,,242280,242280,,242280,,242316,8,400,,,
break_continue,html.Screen,4_44_2,2023-11-01T17:01:47.101Z,,0,,,NaN,,,,,,false,,,,242280,242280,,242280,,242316,8,400,,,
sequence,flow.Sequence,4_44,2023-11-01T17:01:47.101Z,,0,,,6544,completion,,,,,false,,,,242280,242280,235720,235702,235736,242316,8,400,,,
trial,html.Screen,4_45_0,2023-11-01T17:01:50.028Z,,0,1,,2908,response,ISIC_5948805.JPG,11,ISIC_0063028.JPG,ISIC_5948805.JPG,false,1,keypress(m),500,245207,245207,242299,242280,242316,245231,8,400,46,,ISIC_0063028.JPG
break,html.Screen,4_45_1,2023-11-01T17:01:50.029Z,,0,,,NaN,,,,,,false,,,,245208,245208,,245207,,245231,8,400,,,
break_continue,html.Screen,4_45_2,2023-11-01T17:01:50.029Z,,0,,,NaN,,,,,,false,,,,245208,245208,,245208,,245231,8,400,,,
sequence,flow.Sequence,4_45,2023-11-01T17:01:50.029Z,,0,,,2892,completion,,,,,false,,,,245208,245208,242299,242280,242316,245231,8,400,,,
trial,html.Screen,4_46_0,2023-11-01T17:01:55.347Z,,0,1,,5313,response,ISIC_6721869.JPG,0,ISIC_7047780.JPG,ISIC_7047780.JPG,false,0,keypress(z),500,250526,250526,245213,245208,245231,250559,8,400,47,,ISIC_6721869.JPG
break,html.Screen,4_46_1,2023-11-01T17:01:55.347Z,,0,,,NaN,,,,,,false,,,,250527.00000000003,250527.00000000003,,250526,,250559,8,400,,,
break_continue,html.Screen,4_46_2,2023-11-01T17:01:55.348Z,,0,,,NaN,,,,,,false,,,,250527.00000000003,250527.00000000003,,250527.00000000003,,250559,8,400,,,
sequence,flow.Sequence,4_46,2023-11-01T17:01:55.348Z,,0,,,5296.000000000029,completion,,,,,false,,,,250527.00000000003,250527.00000000003,245213,245208,245231,250559,8,400,,,
trial,html.Screen,4_47_0,2023-11-01T17:01:58.484Z,,0,1,,3120,response,ISIC_1192835.JPG,0,ISIC_0032687.JPG,ISIC_1192835.JPG,false,1,keypress(m),500,253664.00000000003,253663,250543,250527.00000000003,250559,253691,8,400,48,,ISIC_0032687.JPG
break,html.Screen,4_47_1,2023-11-01T17:01:58.485Z,,0,,,NaN,,,,,,false,,,,253664.00000000003,253664.00000000003,,253664.00000000003,,253691,8,400,,,
break_continue,html.Screen,4_47_2,2023-11-01T17:01:58.486Z,,0,,,NaN,,,,,,false,,,,253665,253665,,253665,,253691,8,400,,,
sequence,flow.Sequence,4_47,2023-11-01T17:01:58.486Z,,0,,,3106,completion,,,,,false,,,,253665,253665,250543,250527.00000000003,250559,253691,8,400,,,
trial,html.Screen,4_48_0,2023-11-01T17:02:02.122Z,,0,1,,3627,response,ISIC_0031517.JPG,2,ISIC_8855102.JPG,ISIC_0031517.JPG,false,1,keypress(m),500,257301,257301,253674,253665,253691,257322,8,400,49,,ISIC_8855102.JPG
break,html.Screen,4_48_1,2023-11-01T17:02:02.122Z,,0,,,NaN,,,,,,false,,,,257301,257301,,257301,,257322,8,400,,,
break_continue,html.Screen,4_48_2,2023-11-01T17:02:02.122Z,,0,,,NaN,,,,,,false,,,,257302.00000000003,257301,,257301,,257322,8,400,,,
sequence,flow.Sequence,4_48,2023-11-01T17:02:02.122Z,,0,,,3610,completion,,,,,false,,,,257302.00000000003,257301,253674,253665,253691,257322,8,400,,,
trial,html.Screen,4_49_0,2023-11-01T17:02:06.982Z,,0,1,,4856,response,ISIC_7579316.JPG,0,ISIC_0026407.JPG,ISIC_0026407.JPG,false,0,keypress(z),500,262161,262161,257305,257302.00000000003,257322,262185,8,400,50,,ISIC_7579316.JPG
break,html.Screen,4_49_1,2023-11-01T17:02:16.983Z,,0,,,9994,timeout,,,,,false,,,,272162,272162,262169,262162,262185,272179,8,400,,,
break_continue,html.Screen,4_49_2,2023-11-01T17:02:18.170Z,,0,,,1184,response,,,,,false,continue,keypress(Space),,273350,273346,272162,272163,272179,273378,8,400,,,
sequence,flow.Sequence,4_49,2023-11-01T17:02:18.171Z,,0,,,16024,completion,,,,,false,,,,273350,273346,257305,257302.00000000003,257322,273378,8,400,,,
trial,html.Screen,4_50_0,2023-11-01T17:02:22.961Z,,0,2,,4778,response,ISIC_8479913.JPG,15,ISIC_2772066.JPG,ISIC_2772066.JPG,false,0,keypress(z),500,278141,278140,273362,273350,273378,278176,8,400,1,,ISIC_8479913.JPG
break,html.Screen,4_50_1,2023-11-01T17:02:22.962Z,,0,,,NaN,,,,,,false,,,,278141,278141,,278141,,278176,8,400,,,
break_continue,html.Screen,4_50_2,2023-11-01T17:02:22.962Z,,0,,,NaN,,,,,,false,,,,278141,278141,,278141,,278176,8,400,,,
sequence,flow.Sequence,4_50,2023-11-01T17:02:22.962Z,,0,,,4763,completion,,,,,false,,,,278142,278141,273362,273350,273378,278176,8,400,,,
trial,html.Screen,4_51_0,2023-11-01T17:02:26.499Z,,0,2,,3519,response,ISIC_0000277.JPG,2,ISIC_0032892.JPG,ISIC_0000277.JPG,false,1,keypress(m),500,281678,281678,278159,278142,278176,281705,8,400,2,,ISIC_0032892.JPG
break,html.Screen,4_51_1,2023-11-01T17:02:26.499Z,,0,,,NaN,,,,,,false,,,,281678,281678,,281678,,281705,8,400,,,
break_continue,html.Screen,4_51_2,2023-11-01T17:02:26.499Z,,0,,,NaN,,,,,,false,,,,281679.00000000006,281679.00000000006,,281679.00000000006,,281705,8,400,,,
sequence,flow.Sequence,4_51,2023-11-01T17:02:26.499Z,,0,,,3503.000000000058,completion,,,,,false,,,,281679.00000000006,281679.00000000006,278159,278142,278176,281705,8,400,,,
trial,html.Screen,4_52_0,2023-11-01T17:02:29.803Z,,0,2,,3292,response,ISIC_0011703.JPG,15,ISIC_0000150.JPG,ISIC_0000150.JPG,false,0,keypress(z),500,284983,284982,281690,281679.00000000006,281705,285021,8,400,3,,ISIC_0011703.JPG
break,html.Screen,4_52_1,2023-11-01T17:02:29.804Z,,0,,,NaN,,,,,,false,,,,284983,284983,,284983,,285021,8,400,,,
break_continue,html.Screen,4_52_2,2023-11-01T17:02:29.804Z,,0,,,NaN,,,,,,false,,,,284984,284984,,284984,,285021,8,400,,,
sequence,flow.Sequence,4_52,2023-11-01T17:02:29.805Z,,0,,,3279,completion,,,,,false,,,,284984,284984,281690,281679.00000000006,281705,285021,8,400,,,
trial,html.Screen,4_53_0,2023-11-01T17:02:33.285Z,,0,2,,3461,response,ISIC_4166490.JPG,8,ISIC_9538004.JPG,ISIC_9538004.JPG,false,0,keypress(z),500,288465.00000000006,288464,285003,284984,285021,288485,8,400,4,,ISIC_4166490.JPG
break,html.Screen,4_53_1,2023-11-01T17:02:33.286Z,,0,,,NaN,,,,,,false,,,,288465.00000000006,288465.00000000006,,288465.00000000006,,288485,8,400,,,
break_continue,html.Screen,4_53_2,2023-11-01T17:02:33.286Z,,0,,,NaN,,,,,,false,,,,288465.00000000006,288465.00000000006,,288465.00000000006,,288485,8,400,,,
sequence,flow.Sequence,4_53,2023-11-01T17:02:33.286Z,,0,,,3444.000000000058,completion,,,,,false,,,,288465.00000000006,288465.00000000006,285003,284984,285021,288485,8,400,,,
trial,html.Screen,4_54_0,2023-11-01T17:02:41.138Z,,0,2,,7848,response,ISIC_0030107.JPG,2,ISIC_0015256.JPG,ISIC_0030107.JPG,false,1,keypress(m),500,296318,296317,288469,288465.00000000006,288485,296346,8,400,5,,ISIC_0015256.JPG
break,html.Screen,4_54_1,2023-11-01T17:02:41.139Z,,0,,,NaN,,,,,,false,,,,296318,296318,,296318,,296346,8,400,,,
break_continue,html.Screen,4_54_2,2023-11-01T17:02:41.139Z,,0,,,NaN,,,,,,false,,,,296319,296319,,296318,,296346,8,400,,,
sequence,flow.Sequence,4_54,2023-11-01T17:02:41.139Z,,0,,,7834,completion,,,,,false,,,,296319,296319,288469,288465.00000000006,288485,296346,8,400,,,
trial,html.Screen,4_55_0,2023-11-01T17:02:44.488Z,,0,2,,3337.000000000058,response,ISIC_0024507.JPG,1,ISIC_0070308.JPG,ISIC_0070308.JPG,false,0,keypress(z),500,299668,299667.00000000006,296330,296319,296346,299693,8,400,6,,ISIC_0024507.JPG
break,html.Screen,4_55_1,2023-11-01T17:02:44.489Z,,0,,,NaN,,,,,,false,,,,299668,299668,,299668,,299693,8,400,,,
break_continue,html.Screen,4_55_2,2023-11-01T17:02:44.489Z,,0,,,NaN,,,,,,false,,,,299669,299668,,299668,,299693,8,400,,,
sequence,flow.Sequence,4_55,2023-11-01T17:02:44.490Z,,0,,,3322,completion,,,,,false,,,,299669,299668,296330,296319,296346,299693,8,400,,,
trial,html.Screen,4_56_0,2023-11-01T17:02:47.263Z,,0,2,,2764,response,ISIC_8892236.JPG,16,ISIC_4231346.JPG,ISIC_4231346.JPG,false,0,keypress(z),500,302442,302442,299678,299669,299693,302475,8,400,7,,ISIC_8892236.JPG
break,html.Screen,4_56_1,2023-11-01T17:02:47.263Z,,0,,,NaN,,,,,,false,,,,302443,302443,,302442,,302475,8,400,,,
break_continue,html.Screen,4_56_2,2023-11-01T17:02:47.264Z,,0,,,NaN,,,,,,false,,,,302443,302443,,302443,,302475,8,400,,,
sequence,flow.Sequence,4_56,2023-11-01T17:02:47.264Z,,0,,,2750,completion,,,,,false,,,,302443,302443,299678,299669,299693,302475,8,400,,,
trial,html.Screen,4_57_0,2023-11-01T17:02:51.079Z,,0,2,,3799,response,ISIC_0061244.JPG,6,ISIC_1251639.JPG,ISIC_0061244.JPG,false,1,keypress(m),500,306258,306258,302459,302443,302475,306290,8,400,8,,ISIC_1251639.JPG
break,html.Screen,4_57_1,2023-11-01T17:02:51.079Z,,0,,,NaN,,,,,,false,,,,306259,306258,,306258,,306290,8,400,,,
break_continue,html.Screen,4_57_2,2023-11-01T17:02:51.079Z,,0,,,NaN,,,,,,false,,,,306259,306259,,306259,,306290,8,400,,,
sequence,flow.Sequence,4_57,2023-11-01T17:02:51.080Z,,0,,,3784,completion,,,,,false,,,,306259,306259,302459,302443,302475,306290,8,400,,,
trial,html.Screen,4_58_0,2023-11-01T17:02:55.147Z,,0,2,,4053,response,ISIC_0027436.JPG,0,ISIC_7781213.JPG,ISIC_0027436.JPG,false,1,keypress(m),500,310327,310326,306273,306259,306290,310354,8,400,9,,ISIC_7781213.JPG
break,html.Screen,4_58_1,2023-11-01T17:02:55.148Z,,0,,,NaN,,,,,,false,,,,310327,310327,,310327,,310354,8,400,,,
break_continue,html.Screen,4_58_2,2023-11-01T17:02:55.148Z,,0,,,NaN,,,,,,false,,,,310328.00000000006,310328.00000000006,,310328.00000000006,,310354,8,400,,,
sequence,flow.Sequence,4_58,2023-11-01T17:02:55.149Z,,0,,,4038.000000000058,completion,,,,,false,,,,310328.00000000006,310328.00000000006,306273,306259,306290,310354,8,400,,,
trial,html.Screen,4_59_0,2023-11-01T17:02:58.345Z,,0,2,,3187,response,ISIC_5400609.JPG,2,ISIC_1886756.JPG,ISIC_1886756.JPG,false,0,keypress(z),500,313524,313524,310337,310328.00000000006,310354,313551,8,400,10,,ISIC_5400609.JPG
break,html.Screen,4_59_1,2023-11-01T17:02:58.345Z,,0,,,NaN,,,,,,false,,,,313525.00000000006,313525.00000000006,,313524,,313551,8,400,,,
break_continue,html.Screen,4_59_2,2023-11-01T17:02:58.346Z,,0,,,NaN,,,,,,false,,,,313525.00000000006,313525.00000000006,,313525.00000000006,,313551,8,400,,,
sequence,flow.Sequence,4_59,2023-11-01T17:02:58.346Z,,0,,,3171.000000000058,completion,,,,,false,,,,313525.00000000006,313525.00000000006,310337,310328.00000000006,310354,313551,8,400,,,
trial,html.Screen,4_60_0,2023-11-01T17:03:01.431Z,,0,2,,3075,response,ISIC_0645454.JPG,3,ISIC_0004352.JPG,ISIC_0645454.JPG,false,1,keypress(m),500,316610,316610,313535,313525.00000000006,313551,316632,8,400,11,,ISIC_0004352.JPG
break,html.Screen,4_60_1,2023-11-01T17:03:01.431Z,,0,,,NaN,,,,,,false,,,,316610,316610,,316610,,316632,8,400,,,
break_continue,html.Screen,4_60_2,2023-11-01T17:03:01.431Z,,0,,,NaN,,,,,,false,,,,316611,316610,,316610,,316632,8,400,,,
sequence,flow.Sequence,4_60,2023-11-01T17:03:01.431Z,,0,,,3059,completion,,,,,false,,,,316611,316610,313535,313525.00000000006,313551,316632,8,400,,,
trial,html.Screen,4_61_0,2023-11-01T17:03:05.068Z,,0,2,,3630,response,ISIC_7697022.JPG,14,ISIC_6618851.JPG,ISIC_6618851.JPG,false,0,keypress(z),500,320247,320247,316617,316611,316632,320280,8,400,12,,ISIC_7697022.JPG
break,html.Screen,4_61_1,2023-11-01T17:03:05.069Z,,0,,,NaN,,,,,,false,,,,320248,320248,,320248,,320280,8,400,,,
break_continue,html.Screen,4_61_2,2023-11-01T17:03:05.069Z,,0,,,NaN,,,,,,false,,,,320248,320248,,320248,,320280,8,400,,,
sequence,flow.Sequence,4_61,2023-11-01T17:03:05.069Z,,0,,,3616,completion,,,,,false,,,,320248,320248,316617,316611,316632,320280,8,400,,,
trial,html.Screen,4_62_0,2023-11-01T17:03:08.476Z,,0,2,,3392.000000000058,response,ISIC_1601532.JPG,13,ISIC_6954782.JPG,ISIC_6954782.JPG,false,0,keypress(z),500,323655.00000000006,323655.00000000006,320263,320248,320280,323679,8,400,13,,ISIC_1601532.JPG
break,html.Screen,4_62_1,2023-11-01T17:03:08.476Z,,0,,,NaN,,,,,,false,,,,323656,323655.00000000006,,323655.00000000006,,323679,8,400,,,
break_continue,html.Screen,4_62_2,2023-11-01T17:03:08.476Z,,0,,,NaN,,,,,,false,,,,323656,323656,,323656,,323679,8,400,,,
sequence,flow.Sequence,4_62,2023-11-01T17:03:08.477Z,,0,,,3376,completion,,,,,false,,,,323656,323656,320263,320248,320280,323679,8,400,,,
trial,html.Screen,4_63_0,2023-11-01T17:03:11.376Z,,0,2,,2893,response,ISIC_9140779.JPG,5,ISIC_0011726.JPG,ISIC_9140779.JPG,false,1,keypress(m),500,326556,326555,323662,323656,323679,326575,8,400,14,,ISIC_0011726.JPG
break,html.Screen,4_63_1,2023-11-01T17:03:11.377Z,,0,,,NaN,,,,,,false,,,,326556,326556,,326556,,326575,8,400,,,
break_continue,html.Screen,4_63_2,2023-11-01T17:03:11.377Z,,0,,,NaN,,,,,,false,,,,326556,326556,,326556,,326575,8,400,,,
sequence,flow.Sequence,4_63,2023-11-01T17:03:11.377Z,,0,,,2877,completion,,,,,false,,,,326556,326556,323662,323656,323679,326575,8,400,,,
trial,html.Screen,4_64_0,2023-11-01T17:03:14.510Z,,0,2,,3130,response,ISIC_0032233.JPG,7,ISIC_7601403.JPG,ISIC_0032233.JPG,false,1,keypress(m),500,329690,329689,326559,326557,326575,329724,8,400,15,,ISIC_7601403.JPG
break,html.Screen,4_64_1,2023-11-01T17:03:14.511Z,,0,,,NaN,,,,,,false,,,,329690,329690,,329690,,329724,8,400,,,
break_continue,html.Screen,4_64_2,2023-11-01T17:03:14.511Z,,0,,,NaN,,,,,,false,,,,329690,329690,,329690,,329724,8,400,,,
sequence,flow.Sequence,4_64,2023-11-01T17:03:14.511Z,,0,,,3115,completion,,,,,false,,,,329690,329690,326559,326557,326575,329724,8,400,,,
trial,html.Screen,4_65_0,2023-11-01T17:03:18.152Z,,0,2,,3623,response,ISIC_4129321.JPG,14,ISIC_3060145.JPG,ISIC_4129321.JPG,false,1,keypress(m),500,333331,333331,329708,329691.00000000006,329724,333355,8,400,16,,ISIC_3060145.JPG
break,html.Screen,4_65_1,2023-11-01T17:03:18.152Z,,0,,,NaN,,,,,,false,,,,333332,333332,,333331,,333355,8,400,,,
break_continue,html.Screen,4_65_2,2023-11-01T17:03:18.153Z,,0,,,NaN,,,,,,false,,,,333332,333332,,333332,,333355,8,400,,,
sequence,flow.Sequence,4_65,2023-11-01T17:03:18.153Z,,0,,,3608,completion,,,,,false,,,,333332,333332,329708,329691.00000000006,329724,333355,8,400,,,
trial,html.Screen,4_66_0,2023-11-01T17:03:21.236Z,,0,2,,3077,response,ISIC_2074764.JPG,3,ISIC_4798962.JPG,ISIC_2074764.JPG,false,1,keypress(m),500,336415,336415,333338,333332,333355,336436,8,400,17,,ISIC_4798962.JPG
break,html.Screen,4_66_1,2023-11-01T17:03:21.236Z,,0,,,NaN,,,,,,false,,,,336416,336416,,336415,,336436,8,400,,,
break_continue,html.Screen,4_66_2,2023-11-01T17:03:21.237Z,,0,,,NaN,,,,,,false,,,,336416,336416,,336416,,336436,8,400,,,
sequence,flow.Sequence,4_66,2023-11-01T17:03:21.237Z,,0,,,3061,completion,,,,,false,,,,336416,336416,333338,333332,333355,336436,8,400,,,
trial,html.Screen,4_67_0,2023-11-01T17:03:24.996Z,,0,2,,3755,response,ISIC_0059357.JPG,14,ISIC_9348809.JPG,ISIC_0059357.JPG,false,1,keypress(m),500,340175,340175,336420,336416,336436,340200,8,400,18,,ISIC_9348809.JPG
break,html.Screen,4_67_1,2023-11-01T17:03:24.996Z,,0,,,NaN,,,,,,false,,,,340175,340175,,340175,,340200,8,400,,,
break_continue,html.Screen,4_67_2,2023-11-01T17:03:24.996Z,,0,,,NaN,,,,,,false,,,,340176,340176,,340176,,340200,8,400,,,
sequence,flow.Sequence,4_67,2023-11-01T17:03:24.996Z,,0,,,3740,completion,,,,,false,,,,340176,340176,336420,336416,336436,340200,8,400,,,
trial,html.Screen,4_68_0,2023-11-01T17:03:28.133Z,,0,2,,3129,response,ISIC_6378169.JPG,2,ISIC_4798962.JPG,ISIC_6378169.JPG,false,1,keypress(m),500,343312,343312,340183,340176,340200,343331,8,400,19,,ISIC_4798962.JPG
break,html.Screen,4_68_1,2023-11-01T17:03:28.134Z,,0,,,NaN,,,,,,false,,,,343313,343313,,343313,,343331,8,400,,,
break_continue,html.Screen,4_68_2,2023-11-01T17:03:28.134Z,,0,,,NaN,,,,,,false,,,,343314,343314,,343314,,343331,8,400,,,
sequence,flow.Sequence,4_68,2023-11-01T17:03:28.135Z,,0,,,3114,completion,,,,,false,,,,343314,343314,340183,340176,340200,343331,8,400,,,
trial,html.Screen,4_69_0,2023-11-01T17:03:30.958Z,,0,2,,2822,response,ISIC_4810142.JPG,0,ISIC_0064656.JPG,ISIC_4810142.JPG,false,1,keypress(m),500,346138.00000000006,346137,343315,343314,343331,346163,8,400,20,,ISIC_0064656.JPG
break,html.Screen,4_69_1,2023-11-01T17:03:30.959Z,,0,,,NaN,,,,,,false,,,,346138.00000000006,346138.00000000006,,346138.00000000006,,346163,8,400,,,
break_continue,html.Screen,4_69_2,2023-11-01T17:03:30.959Z,,0,,,NaN,,,,,,false,,,,346139,346138.00000000006,,346138.00000000006,,346163,8,400,,,
sequence,flow.Sequence,4_69,2023-11-01T17:03:30.959Z,,0,,,2807.000000000058,completion,,,,,false,,,,346139,346138.00000000006,343315,343314,343331,346163,8,400,,,
trial,html.Screen,4_70_0,2023-11-01T17:03:39.852Z,,0,2,,8884,response,ISIC_0011198.JPG,2,ISIC_7097931.JPG,ISIC_0011198.JPG,false,1,keypress(m),500,355031,355031,346147,346139,346163,355058,8,400,21,,ISIC_7097931.JPG
break,html.Screen,4_70_1,2023-11-01T17:03:39.852Z,,0,,,NaN,,,,,,false,,,,355031,355031,,355031,,355058,8,400,,,
break_continue,html.Screen,4_70_2,2023-11-01T17:03:39.852Z,,0,,,NaN,,,,,,false,,,,355031,355031,,355031,,355058,8,400,,,
sequence,flow.Sequence,4_70,2023-11-01T17:03:39.852Z,,0,,,8868,completion,,,,,false,,,,355032,355031,346147,346139,346163,355058,8,400,,,
trial,html.Screen,4_71_0,2023-11-01T17:03:42.689Z,,0,2,,2827,response,ISIC_5029636.JPG,4,ISIC_0609067.JPG,ISIC_5029636.JPG,false,1,keypress(m),500,357868,357868,355041,355032,355058,357906,8,400,22,,ISIC_0609067.JPG
break,html.Screen,4_71_1,2023-11-01T17:03:42.689Z,,0,,,NaN,,,,,,false,,,,357869,357869,,357868,,357906,8,400,,,
break_continue,html.Screen,4_71_2,2023-11-01T17:03:42.690Z,,0,,,NaN,,,,,,false,,,,357869,357869,,357869,,357906,8,400,,,
sequence,flow.Sequence,4_71,2023-11-01T17:03:42.690Z,,0,,,2811,completion,,,,,false,,,,357869,357869,355041,355032,355058,357906,8,400,,,
trial,html.Screen,4_72_0,2023-11-01T17:03:45.923Z,,0,2,,3214.000000000058,response,ISIC_0448485.JPG,0,ISIC_0012810.JPG,ISIC_0012810.JPG,false,0,keypress(z),500,361102.00000000006,361102.00000000006,357888,357869,357906,361137,8,400,23,,ISIC_0448485.JPG
break,html.Screen,4_72_1,2023-11-01T17:03:45.924Z,,0,,,NaN,,,,,,false,,,,361103,361103,,361102.00000000006,,361137,8,400,,,
break_continue,html.Screen,4_72_2,2023-11-01T17:03:45.924Z,,0,,,NaN,,,,,,false,,,,361103,361103,,361103,,361137,8,400,,,
sequence,flow.Sequence,4_72,2023-11-01T17:03:45.924Z,,0,,,3197,completion,,,,,false,,,,361103,361103,357888,357869,357906,361137,8,400,,,
trial,html.Screen,4_73_0,2023-11-01T17:03:48.729Z,,0,2,,2787,response,ISIC_6577767.JPG,1,ISIC_5396394.JPG,ISIC_6577767.JPG,false,1,keypress(m),500,363908,363908,361121,361103,361137,363934,8,400,24,,ISIC_5396394.JPG
break,html.Screen,4_73_1,2023-11-01T17:03:48.729Z,,0,,,NaN,,,,,,false,,,,363909,363909,,363908,,363934,8,400,,,
break_continue,html.Screen,4_73_2,2023-11-01T17:03:48.730Z,,0,,,NaN,,,,,,false,,,,363909,363909,,363909,,363934,8,400,,,
sequence,flow.Sequence,4_73,2023-11-01T17:03:48.730Z,,0,,,2772,completion,,,,,false,,,,363909,363909,361121,361103,361137,363934,8,400,,,
trial,html.Screen,4_74_0,2023-11-01T17:03:56.600Z,,0,2,,7860,response,ISIC_0073173.JPG,1,ISIC_9267202.JPG,ISIC_9267202.JPG,false,0,keypress(z),500,371779,371779,363919,363909,363934,371812,8,400,25,,ISIC_0073173.JPG
break,html.Screen,4_74_1,2023-11-01T17:03:56.600Z,,0,,,NaN,,,,,,false,,,,371780.00000000006,371780.00000000006,,371779,,371812,8,400,,,
break_continue,html.Screen,4_74_2,2023-11-01T17:03:56.601Z,,0,,,NaN,,,,,,false,,,,371780.00000000006,371780.00000000006,,371780.00000000006,,371812,8,400,,,
sequence,flow.Sequence,4_74,2023-11-01T17:03:56.601Z,,0,,,7846.000000000058,completion,,,,,false,,,,371780.00000000006,371780.00000000006,363919,363909,363934,371812,8,400,,,
trial,html.Screen,4_75_0,2023-11-01T17:04:00.150Z,,0,2,,3533,response,ISIC_0025464.JPG,4,ISIC_0033279.JPG,ISIC_0033279.JPG,false,0,keypress(z),500,375329,375329,371796,371780.00000000006,371812,375361,8,400,26,,ISIC_0025464.JPG
break,html.Screen,4_75_1,2023-11-01T17:04:00.150Z,,0,,,NaN,,,,,,false,,,,375330,375329,,375329,,375361,8,400,,,
break_continue,html.Screen,4_75_2,2023-11-01T17:04:00.150Z,,0,,,NaN,,,,,,false,,,,375330,375330,,375330,,375361,8,400,,,
sequence,flow.Sequence,4_75,2023-11-01T17:04:00.151Z,,0,,,3518,completion,,,,,false,,,,375330,375330,371796,371780.00000000006,371812,375361,8,400,,,
trial,html.Screen,4_76_0,2023-11-01T17:04:03.306Z,,0,2,,3141,response,ISIC_0030512.JPG,0,ISIC_9475559.JPG,ISIC_9475559.JPG,false,0,keypress(z),500,378485,378485,375344,375330,375361,378508,8,400,27,,ISIC_0030512.JPG
break,html.Screen,4_76_1,2023-11-01T17:04:03.307Z,,0,,,NaN,,,,,,false,,,,378486,378486,,378486,,378508,8,400,,,
break_continue,html.Screen,4_76_2,2023-11-01T17:04:03.307Z,,0,,,NaN,,,,,,false,,,,378486,378486,,378486,,378508,8,400,,,
sequence,flow.Sequence,4_76,2023-11-01T17:04:03.307Z,,0,,,3125,completion,,,,,false,,,,378486,378486,375344,375330,375361,378508,8,400,,,
trial,html.Screen,4_77_0,2023-11-01T17:04:07.463Z,,0,2,,4150,response,ISIC_6673956.JPG,1,ISIC_5258657.JPG,ISIC_5258657.JPG,false,0,keypress(z),500,382642,382642,378492,378486,378508,382673,8,400,28,,ISIC_6673956.JPG
break,html.Screen,4_77_1,2023-11-01T17:04:07.463Z,,0,,,NaN,,,,,,false,,,,382643,382643,,382642,,382673,8,400,,,
break_continue,html.Screen,4_77_2,2023-11-01T17:04:07.464Z,,0,,,NaN,,,,,,false,,,,382643,382643,,382643,,382673,8,400,,,
sequence,flow.Sequence,4_77,2023-11-01T17:04:07.464Z,,0,,,4135,completion,,,,,false,,,,382643,382643,378492,378486,378508,382673,8,400,,,
trial,html.Screen,4_78_0,2023-11-01T17:04:10.339Z,,0,2,,2862,response,ISIC_7287540.JPG,15,ISIC_0000421.JPG,ISIC_7287540.JPG,false,1,keypress(m),500,385518,385518,382656,382643,382673,385537,8,400,29,,ISIC_0000421.JPG
break,html.Screen,4_78_1,2023-11-01T17:04:10.339Z,,0,,,NaN,,,,,,false,,,,385519,385519,,385518,,385537,8,400,,,
break_continue,html.Screen,4_78_2,2023-11-01T17:04:10.340Z,,0,,,NaN,,,,,,false,,,,385519,385519,,385519,,385537,8,400,,,
sequence,flow.Sequence,4_78,2023-11-01T17:04:10.340Z,,0,,,2846,completion,,,,,false,,,,385519,385519,382656,382643,382673,385537,8,400,,,
trial,html.Screen,4_79_0,2023-11-01T17:04:12.873Z,,0,2,,2532,response,ISIC_1976571.JPG,3,ISIC_6892286.JPG,ISIC_6892286.JPG,false,0,keypress(z),500,388052,388052,385520,385519,385537,388086,8,400,30,,ISIC_1976571.JPG
break,html.Screen,4_79_1,2023-11-01T17:04:12.873Z,,0,,,NaN,,,,,,false,,,,388053,388053,,388052,,388086,8,400,,,
break_continue,html.Screen,4_79_2,2023-11-01T17:04:12.874Z,,0,,,NaN,,,,,,false,,,,388053,388053,,388053,,388086,8,400,,,
sequence,flow.Sequence,4_79,2023-11-01T17:04:12.874Z,,0,,,2516,completion,,,,,false,,,,388053,388053,385520,385519,385537,388086,8,400,,,
trial,html.Screen,4_80_0,2023-11-01T17:04:15.699Z,,0,2,,2811,response,ISIC_1356715.JPG,13,ISIC_0645834.JPG,ISIC_0645834.JPG,false,0,keypress(z),500,390879,390879,388068,388053,388086,390900,8,400,31,,ISIC_1356715.JPG
break,html.Screen,4_80_1,2023-11-01T17:04:15.700Z,,0,,,NaN,,,,,,false,,,,390879,390879,,390879,,390900,8,400,,,
break_continue,html.Screen,4_80_2,2023-11-01T17:04:15.700Z,,0,,,NaN,,,,,,false,,,,390879,390879,,390879,,390900,8,400,,,
sequence,flow.Sequence,4_80,2023-11-01T17:04:15.700Z,,0,,,2793,completion,,,,,false,,,,390879,390879,388068,388053,388086,390900,8,400,,,
trial,html.Screen,4_81_0,2023-11-01T17:04:19.061Z,,0,2,,3357,response,ISIC_7696538.JPG,13,ISIC_2565986.JPG,ISIC_2565986.JPG,false,0,keypress(z),500,394240,394240,390883,390880,390900,394265,8,400,32,,ISIC_7696538.JPG
break,html.Screen,4_81_1,2023-11-01T17:04:19.061Z,,0,,,NaN,,,,,,false,,,,394240,394240,,394240,,394265,8,400,,,
break_continue,html.Screen,4_81_2,2023-11-01T17:04:19.061Z,,0,,,NaN,,,,,,false,,,,394241,394241,,394241,,394265,8,400,,,
sequence,flow.Sequence,4_81,2023-11-01T17:04:19.062Z,,0,,,3341,completion,,,,,false,,,,394241,394241,390883,390879,390900,394265,8,400,,,
trial,html.Screen,4_82_0,2023-11-01T17:04:23.069Z,,0,2,,4000,response,ISIC_5406677.JPG,15,ISIC_0001505.JPG,ISIC_0001505.JPG,false,0,keypress(z),500,398248,398248,394248,394241,394265,398279,8,400,33,,ISIC_5406677.JPG
break,html.Screen,4_82_1,2023-11-01T17:04:23.069Z,,0,,,NaN,,,,,,false,,,,398248,398248,,398248,,398279,8,400,,,
break_continue,html.Screen,4_82_2,2023-11-01T17:04:23.069Z,,0,,,NaN,,,,,,false,,,,398249,398249,,398249,,398279,8,400,,,
sequence,flow.Sequence,4_82,2023-11-01T17:04:23.069Z,,0,,,3984,completion,,,,,false,,,,398249,398249,394248,394241,394265,398279,8,400,,,
trial,html.Screen,4_83_0,2023-11-01T17:04:27.365Z,,0,2,,4282,response,ISIC_0024226.JPG,0,ISIC_4154293.JPG,ISIC_0024226.JPG,false,1,keypress(m),500,402545,402544,398262,398249,398279,402575,8,400,34,,ISIC_4154293.JPG
break,html.Screen,4_83_1,2023-11-01T17:04:27.366Z,,0,,,NaN,,,,,,false,,,,402545,402545,,402545,,402575,8,400,,,
break_continue,html.Screen,4_83_2,2023-11-01T17:04:27.366Z,,0,,,NaN,,,,,,false,,,,402546,402546,,402545,,402575,8,400,,,
sequence,flow.Sequence,4_83,2023-11-01T17:04:27.367Z,,0,,,4267,completion,,,,,false,,,,402546,402546,398262,398249,398279,402575,8,400,,,
trial,html.Screen,4_84_0,2023-11-01T17:04:30.510Z,,0,2,,3130,response,ISIC_3447311.JPG,1,ISIC_1685962.JPG,ISIC_1685962.JPG,false,0,keypress(z),500,405689,405689,402559,402546,402575,405724,8,400,35,,ISIC_3447311.JPG
break,html.Screen,4_84_1,2023-11-01T17:04:30.510Z,,0,,,NaN,,,,,,false,,,,405690,405690,,405689,,405724,8,400,,,
break_continue,html.Screen,4_84_2,2023-11-01T17:04:30.511Z,,0,,,NaN,,,,,,false,,,,405690,405690,,405690,,405724,8,400,,,
sequence,flow.Sequence,4_84,2023-11-01T17:04:30.511Z,,0,,,3115,completion,,,,,false,,,,405690,405690,402559,402546,402575,405724,8,400,,,
trial,html.Screen,4_85_0,2023-11-01T17:04:34.394Z,,0,2,,3866.000000000058,response,ISIC_1477990.JPG,15,ISIC_0844312.JPG,ISIC_1477990.JPG,false,1,keypress(m),500,409574,409573.00000000006,405707,405690,405724,409605,8,400,36,,ISIC_0844312.JPG
break,html.Screen,4_85_1,2023-11-01T17:04:34.395Z,,0,,,NaN,,,,,,false,,,,409574,409574,,409574,,409605,8,400,,,
break_continue,html.Screen,4_85_2,2023-11-01T17:04:34.395Z,,0,,,NaN,,,,,,false,,,,409574,409574,,409574,,409605,8,400,,,
sequence,flow.Sequence,4_85,2023-11-01T17:04:34.395Z,,0,,,3850,completion,,,,,false,,,,409575,409574,405707,405690,405724,409605,8,400,,,
trial,html.Screen,4_86_0,2023-11-01T17:04:37.578Z,,0,2,,3169,response,ISIC_7966295.JPG,16,ISIC_0025970.JPG,ISIC_7966295.JPG,false,1,keypress(m),500,412758,412757,409588,409575,409605,412785,8,400,37,,ISIC_0025970.JPG
break,html.Screen,4_86_1,2023-11-01T17:04:37.579Z,,0,,,NaN,,,,,,false,,,,412758,412758,,412758,,412785,8,400,,,
break_continue,html.Screen,4_86_2,2023-11-01T17:04:37.579Z,,0,,,NaN,,,,,,false,,,,412758,412758,,412758,,412785,8,400,,,
sequence,flow.Sequence,4_86,2023-11-01T17:04:37.579Z,,0,,,3153,completion,,,,,false,,,,412758,412758,409588,409575,409605,412785,8,400,,,
trial,html.Screen,4_87_0,2023-11-01T17:04:40.434Z,,0,2,,2844,response,ISIC_8366864.JPG,2,ISIC_7429127.JPG,ISIC_8366864.JPG,false,1,keypress(m),500,415613,415613,412769,412759,412785,415633,8,400,38,,ISIC_7429127.JPG
break,html.Screen,4_87_1,2023-11-01T17:04:40.434Z,,0,,,NaN,,,,,,false,,,,415614.00000000006,415613,,415613,,415633,8,400,,,
break_continue,html.Screen,4_87_2,2023-11-01T17:04:40.434Z,,0,,,NaN,,,,,,false,,,,415614.00000000006,415614.00000000006,,415614.00000000006,,415633,8,400,,,
sequence,flow.Sequence,4_87,2023-11-01T17:04:40.435Z,,0,,,2829.000000000058,completion,,,,,false,,,,415614.00000000006,415614.00000000006,412769,412759,412785,415633,8,400,,,
trial,html.Screen,4_88_0,2023-11-01T17:04:43.226Z,,0,2,,2788.000000000058,response,ISIC_0013984.JPG,4,ISIC_1382677.JPG,ISIC_1382677.JPG,false,0,keypress(z),500,418406,418405.00000000006,415617,415614.00000000006,415633,418432,8,400,39,,ISIC_0013984.JPG
break,html.Screen,4_88_1,2023-11-01T17:04:43.227Z,,0,,,NaN,,,,,,false,,,,418406,418406,,418406,,418432,8,400,,,
break_continue,html.Screen,4_88_2,2023-11-01T17:04:43.227Z,,0,,,NaN,,,,,,false,,,,418406,418406,,418406,,418432,8,400,,,
sequence,flow.Sequence,4_88,2023-11-01T17:04:43.227Z,,0,,,2773,completion,,,,,false,,,,418407,418406,415617,415614.00000000006,415633,418432,8,400,,,
trial,html.Screen,4_89_0,2023-11-01T17:04:51.046Z,,0,2,,7809,response,ISIC_7694069.JPG,2,ISIC_0031629.JPG,ISIC_7694069.JPG,false,1,keypress(m),500,426225,426225,418416,418407,418432,426260,8,400,40,,ISIC_0031629.JPG
break,html.Screen,4_89_1,2023-11-01T17:04:51.047Z,,0,,,NaN,,,,,,false,,,,426226,426226,,426226,,426260,8,400,,,
break_continue,html.Screen,4_89_2,2023-11-01T17:04:51.047Z,,0,,,NaN,,,,,,false,,,,426226,426226,,426226,,426260,8,400,,,
sequence,flow.Sequence,4_89,2023-11-01T17:04:51.047Z,,0,,,7794,completion,,,,,false,,,,426226,426226,418416,418407,418432,426260,8,400,,,
trial,html.Screen,4_90_0,2023-11-01T17:04:54.043Z,,0,2,,2978.000000000058,response,ISIC_5539001.JPG,5,ISIC_4332885.JPG,ISIC_5539001.JPG,false,1,keypress(m),500,429222.00000000006,429222.00000000006,426244,426226,426260,429258,8,400,41,,ISIC_4332885.JPG
break,html.Screen,4_90_1,2023-11-01T17:04:54.043Z,,0,,,NaN,,,,,,false,,,,429222.00000000006,429222.00000000006,,429222.00000000006,,429258,8,400,,,
break_continue,html.Screen,4_90_2,2023-11-01T17:04:54.043Z,,0,,,NaN,,,,,,false,,,,429223,429223,,429223,,429258,8,400,,,
sequence,flow.Sequence,4_90,2023-11-01T17:04:54.044Z,,0,,,2963,completion,,,,,false,,,,429223,429223,426244,426226,426260,429258,8,400,,,
trial,html.Screen,4_91_0,2023-11-01T17:04:57.204Z,,0,2,,3142,response,ISIC_0025277.JPG,4,ISIC_0065943.JPG,ISIC_0065943.JPG,false,0,keypress(z),500,432384,432383,429241,429223,429258,432407,8,400,42,,ISIC_0025277.JPG
break,html.Screen,4_91_1,2023-11-01T17:04:57.205Z,,0,,,NaN,,,,,,false,,,,432384,432384,,432384,,432407,8,400,,,
break_continue,html.Screen,4_91_2,2023-11-01T17:04:57.205Z,,0,,,NaN,,,,,,false,,,,432385,432384,,432384,,432407,8,400,,,
sequence,flow.Sequence,4_91,2023-11-01T17:04:57.205Z,,0,,,3126,completion,,,,,false,,,,432385,432384,429241,429223,429258,432407,8,400,,,
trial,html.Screen,4_92_0,2023-11-01T17:05:00.177Z,,0,2,,2967,response,ISIC_9801917.JPG,2,ISIC_6271218.JPG,ISIC_9801917.JPG,false,1,keypress(m),500,435356,435356,432389,432385,432407,435388,8,400,43,,ISIC_6271218.JPG
break,html.Screen,4_92_1,2023-11-01T17:05:00.177Z,,0,,,NaN,,,,,,false,,,,435357,435357,,435356,,435388,8,400,,,
break_continue,html.Screen,4_92_2,2023-11-01T17:05:00.178Z,,0,,,NaN,,,,,,false,,,,435357,435357,,435357,,435388,8,400,,,
sequence,flow.Sequence,4_92,2023-11-01T17:05:00.178Z,,0,,,2950,completion,,,,,false,,,,435357,435357,432389,432385,432407,435388,8,400,,,
trial,html.Screen,4_93_0,2023-11-01T17:05:03.323Z,,0,2,,3131,response,ISIC_5039895.JPG,2,ISIC_1772828.JPG,ISIC_1772828.JPG,false,0,keypress(z),500,438502,438502,435371,435357,435388,438535,8,400,44,,ISIC_5039895.JPG
break,html.Screen,4_93_1,2023-11-01T17:05:03.324Z,,0,,,NaN,,,,,,false,,,,438503,438503,,438503,,438535,8,400,,,
break_continue,html.Screen,4_93_2,2023-11-01T17:05:03.324Z,,0,,,NaN,,,,,,false,,,,438503,438503,,438503,,438535,8,400,,,
sequence,flow.Sequence,4_93,2023-11-01T17:05:03.324Z,,0,,,3115,completion,,,,,false,,,,438503,438503,435371,435357,435388,438535,8,400,,,
trial,html.Screen,4_94_0,2023-11-01T17:05:09.555Z,,0,2,,6215.000000000058,response,ISIC_7109582.JPG,15,ISIC_3094758.JPG,ISIC_3094758.JPG,false,0,keypress(z),500,444734.00000000006,444734.00000000006,438519,438503,438535,444765,8,400,45,,ISIC_7109582.JPG
break,html.Screen,4_94_1,2023-11-01T17:05:09.556Z,,0,,,NaN,,,,,,false,,,,444735,444735,,444735,,444765,8,400,,,
break_continue,html.Screen,4_94_2,2023-11-01T17:05:09.556Z,,0,,,NaN,,,,,,false,,,,444735,444735,,444735,,444765,8,400,,,
sequence,flow.Sequence,4_94,2023-11-01T17:05:09.556Z,,0,,,6200,completion,,,,,false,,,,444735,444735,438519,438503,438535,444765,8,400,,,
trial,html.Screen,4_95_0,2023-11-01T17:05:21.062Z,,0,2,,11508,timeout,ISIC_0058529.JPG,12,ISIC_0030353.JPG,,false,,,500,456241,456241,444748,444735,444765,456273,8,400,46,,
break,html.Screen,4_95_1,2023-11-01T17:05:21.062Z,,0,,,NaN,,,,,,false,,,,456241,456241,,456241,,456273,8,400,,,
break_continue,html.Screen,4_95_2,2023-11-01T17:05:21.062Z,,0,,,NaN,,,,,,false,,,,456242,456242,,456242,,456273,8,400,,,
sequence,flow.Sequence,4_95,2023-11-01T17:05:21.062Z,,0,,,11477,completion,,,,,false,,,,456242,456242,444748,444735,444765,456273,8,400,,,
trial,html.Screen,4_96_0,2023-11-01T17:05:24.229Z,,0,2,,3151,response,ISIC_6452498.JPG,0,ISIC_5305288.JPG,ISIC_5305288.JPG,false,0,keypress(z),500,459408,459408,456257,456242,456273,459438,8,400,47,,ISIC_6452498.JPG
break,html.Screen,4_96_1,2023-11-01T17:05:24.230Z,,0,,,NaN,,,,,,false,,,,459409,459409,,459408,,459438,8,400,,,
break_continue,html.Screen,4_96_2,2023-11-01T17:05:24.230Z,,0,,,NaN,,,,,,false,,,,459409,459409,,459409,,459438,8,400,,,
sequence,flow.Sequence,4_96,2023-11-01T17:05:24.230Z,,0,,,3136,completion,,,,,false,,,,459409,459409,456257,456242,456273,459438,8,400,,,
trial,html.Screen,4_97_0,2023-11-01T17:05:27.139Z,,0,2,,2896,response,ISIC_0011198.JPG,2,ISIC_0059065.JPG,ISIC_0011198.JPG,false,1,keypress(m),500,462318,462318,459422,459410,459438,462353,8,400,48,,ISIC_0059065.JPG
break,html.Screen,4_97_1,2023-11-01T17:05:27.140Z,,0,,,NaN,,,,,,false,,,,462319,462319,,462318,,462353,8,400,,,
break_continue,html.Screen,4_97_2,2023-11-01T17:05:27.140Z,,0,,,NaN,,,,,,false,,,,462319,462319,,462319,,462353,8,400,,,
sequence,flow.Sequence,4_97,2023-11-01T17:05:27.140Z,,0,,,2881,completion,,,,,false,,,,462319,462319,459422,459410,459438,462353,8,400,,,
trial,html.Screen,4_98_0,2023-11-01T17:05:30.208Z,,0,2,,3050,response,ISIC_1137915.JPG,3,ISIC_9445196.JPG,ISIC_9445196.JPG,false,0,keypress(z),500,465388.00000000006,465387,462337,462319,462353,465417,8,400,49,,ISIC_1137915.JPG
break,html.Screen,4_98_1,2023-11-01T17:05:30.209Z,,0,,,NaN,,,,,,false,,,,465388.00000000006,465388.00000000006,,465388.00000000006,,465417,8,400,,,
break_continue,html.Screen,4_98_2,2023-11-01T17:05:30.209Z,,0,,,NaN,,,,,,false,,,,465388.00000000006,465388.00000000006,,465388.00000000006,,465417,8,400,,,
sequence,flow.Sequence,4_98,2023-11-01T17:05:30.209Z,,0,,,3035.000000000058,completion,,,,,false,,,,465388.00000000006,465388.00000000006,462337,462319,462353,465417,8,400,,,
trial,html.Screen,4_99_0,2023-11-01T17:05:33.211Z,,0,2,,2989,response,ISIC_3932879.JPG,13,ISIC_0013365.JPG,ISIC_0013365.JPG,false,0,keypress(z),500,468390,468390,465401,465388.00000000006,465417,468416,8,400,50,,ISIC_3932879.JPG
break,html.Screen,4_99_1,2023-11-01T17:05:43.214Z,,0,,,9993,timeout,,,,,false,,,,478393,478393,468398,468390,468416,478409,8,400,,,
break_continue,html.Screen,4_99_2,2023-11-01T17:05:44.559Z,,0,,,1338,response,,,,,false,continue,keypress(Space),,479738,479731,478393,478393,478409,479775,8,400,,,
sequence,flow.Sequence,4_99,2023-11-01T17:05:44.559Z,,0,,,14314,completion,,,,,false,,,,479739.00000000006,479731,465401,465388.00000000006,465417,479775,8,400,,,
trial,html.Screen,4_100_0,2023-11-01T17:05:47.588Z,,0,3,,3009,response,ISIC_0004996.JPG,5,ISIC_1568268.JPG,ISIC_0004996.JPG,false,1,keypress(m),500,482767,482767,479758,479739.00000000006,479775,482789,8,400,1,,ISIC_1568268.JPG
break,html.Screen,4_100_1,2023-11-01T17:05:47.588Z,,0,,,NaN,,,,,,false,,,,482768,482768,,482767,,482789,8,400,,,
break_continue,html.Screen,4_100_2,2023-11-01T17:05:47.589Z,,0,,,NaN,,,,,,false,,,,482768,482768,,482768,,482789,8,400,,,
sequence,flow.Sequence,4_100,2023-11-01T17:05:47.589Z,,0,,,2993,completion,,,,,false,,,,482768,482768,479758,479739.00000000006,479775,482789,8,400,,,
trial,html.Screen,4_101_0,2023-11-01T17:05:50.362Z,,0,3,,2770.000000000058,response,ISIC_8120622.JPG,7,ISIC_0006772.JPG,ISIC_0006772.JPG,false,0,keypress(z),500,485542.00000000006,485542.00000000006,482772,482768,482789,485571,8,400,2,,ISIC_8120622.JPG
break,html.Screen,4_101_1,2023-11-01T17:05:50.363Z,,0,,,NaN,,,,,,false,,,,485543,485542.00000000006,,485542.00000000006,,485571,8,400,,,
break_continue,html.Screen,4_101_2,2023-11-01T17:05:50.364Z,,0,,,NaN,,,,,,false,,,,485543,485543,,485543,,485571,8,400,,,
sequence,flow.Sequence,4_101,2023-11-01T17:05:50.364Z,,0,,,2754,completion,,,,,false,,,,485543,485543,482772,482768,482789,485571,8,400,,,
trial,html.Screen,4_102_0,2023-11-01T17:05:53.325Z,,0,3,,2949,response,ISIC_3296136.JPG,2,ISIC_0011665.JPG,ISIC_3296136.JPG,false,1,keypress(m),500,488504,488504,485555,485543,485571,488536,8,400,3,,ISIC_0011665.JPG
break,html.Screen,4_102_1,2023-11-01T17:05:53.326Z,,0,,,NaN,,,,,,false,,,,488505,488505,,488505,,488536,8,400,,,
break_continue,html.Screen,4_102_2,2023-11-01T17:05:53.326Z,,0,,,NaN,,,,,,false,,,,488506,488506,,488505,,488536,8,400,,,
sequence,flow.Sequence,4_102,2023-11-01T17:05:53.326Z,,0,,,2935,completion,,,,,false,,,,488506,488506,485555,485543,485571,488536,8,400,,,
trial,html.Screen,4_103_0,2023-11-01T17:05:55.786Z,,0,3,,2447.000000000058,response,ISIC_1978947.JPG,5,ISIC_9947624.JPG,ISIC_9947624.JPG,false,0,keypress(z),500,490965.00000000006,490965.00000000006,488518,488506,488536,491001,8,400,4,,ISIC_1978947.JPG
break,html.Screen,4_103_1,2023-11-01T17:05:55.787Z,,0,,,NaN,,,,,,false,,,,490966,490966,,490966,,491001,8,400,,,
break_continue,html.Screen,4_103_2,2023-11-01T17:05:55.787Z,,0,,,NaN,,,,,,false,,,,490967,490967,,490966,,491001,8,400,,,
sequence,flow.Sequence,4_103,2023-11-01T17:05:55.787Z,,0,,,2431,completion,,,,,false,,,,490967,490967,488518,488506,488536,491001,8,400,,,
trial,html.Screen,4_104_0,2023-11-01T17:05:58.210Z,,0,3,,2404,response,ISIC_4434803.JPG,0,ISIC_9680433.JPG,ISIC_4434803.JPG,false,1,keypress(m),500,493390,493389,490985,490967,491001,493415,8,400,5,,ISIC_9680433.JPG
break,html.Screen,4_104_1,2023-11-01T17:05:58.211Z,,0,,,NaN,,,,,,false,,,,493391,493390,,493390,,493415,8,400,,,
break_continue,html.Screen,4_104_2,2023-11-01T17:05:58.212Z,,0,,,NaN,,,,,,false,,,,493391,493391,,493391,,493415,8,400,,,
sequence,flow.Sequence,4_104,2023-11-01T17:05:58.212Z,,0,,,2390,completion,,,,,false,,,,493391,493391,490985,490967,491001,493415,8,400,,,
trial,html.Screen,4_105_0,2023-11-01T17:06:00.614Z,,0,3,,2394,response,ISIC_0031575.JPG,13,ISIC_5765854.JPG,ISIC_5765854.JPG,false,0,keypress(z),500,495793,495793,493399,493391,493415,495813,8,400,6,,ISIC_0031575.JPG
break,html.Screen,4_105_1,2023-11-01T17:06:00.614Z,,0,,,NaN,,,,,,false,,,,495793,495793,,495793,,495813,8,400,,,
break_continue,html.Screen,4_105_2,2023-11-01T17:06:00.614Z,,0,,,NaN,,,,,,false,,,,495794,495793,,495793,,495813,8,400,,,
sequence,flow.Sequence,4_105,2023-11-01T17:06:00.614Z,,0,,,2378,completion,,,,,false,,,,495794,495793,493399,493391,493415,495813,8,400,,,
trial,html.Screen,4_106_0,2023-11-01T17:06:03.068Z,,0,3,,2450,response,ISIC_9822350.JPG,1,ISIC_5063476.JPG,ISIC_5063476.JPG,false,0,keypress(z),500,498248,498248,495798,495794,495813,498280,8,400,7,,ISIC_9822350.JPG
break,html.Screen,4_106_1,2023-11-01T17:06:03.069Z,,0,,,NaN,,,,,,false,,,,498248,498248,,498248,,498280,8,400,,,
break_continue,html.Screen,4_106_2,2023-11-01T17:06:03.069Z,,0,,,NaN,,,,,,false,,,,498249,498249,,498248,,498280,8,400,,,
sequence,flow.Sequence,4_106,2023-11-01T17:06:03.069Z,,0,,,2436,completion,,,,,false,,,,498249,498249,495798,495794,495813,498280,8,400,,,
trial,html.Screen,4_107_0,2023-11-01T17:06:05.532Z,,0,3,,2449,response,ISIC_8284685.JPG,12,ISIC_8423326.JPG,ISIC_8423326.JPG,false,0,keypress(z),500,500711,500711,498262,498249,498280,500745,8,400,8,,ISIC_8284685.JPG
break,html.Screen,4_107_1,2023-11-01T17:06:05.533Z,,0,,,NaN,,,,,,false,,,,500712,500712,,500712,,500745,8,400,,,
break_continue,html.Screen,4_107_2,2023-11-01T17:06:05.533Z,,0,,,NaN,,,,,,false,,,,500712,500712,,500712,,500745,8,400,,,
sequence,flow.Sequence,4_107,2023-11-01T17:06:05.533Z,,0,,,2432,completion,,,,,false,,,,500713,500712,498262,498249,498280,500745,8,400,,,
trial,html.Screen,4_108_0,2023-11-01T17:06:07.925Z,,0,3,,2376,response,ISIC_0015256.JPG,14,ISIC_3981101.JPG,ISIC_3981101.JPG,false,0,keypress(z),500,503104,503104,500728,500713,500745,503127,8,400,9,,ISIC_0015256.JPG
break,html.Screen,4_108_1,2023-11-01T17:06:07.926Z,,0,,,NaN,,,,,,false,,,,503105,503105,,503104,,503127,8,400,,,
break_continue,html.Screen,4_108_2,2023-11-01T17:06:07.926Z,,0,,,NaN,,,,,,false,,,,503105,503105,,503105,,503127,8,400,,,
sequence,flow.Sequence,4_108,2023-11-01T17:06:07.926Z,,0,,,2360,completion,,,,,false,,,,503105,503105,500728,500713,500745,503127,8,400,,,
trial,html.Screen,4_109_0,2023-11-01T17:06:11.269Z,,0,3,,3340,response,ISIC_6626544.JPG,0,ISIC_2131962.JPG,ISIC_6626544.JPG,false,1,keypress(m),500,506449,506449,503109,503105,503127,506474,8,400,10,,ISIC_2131962.JPG
break,html.Screen,4_109_1,2023-11-01T17:06:11.270Z,,0,,,NaN,,,,,,false,,,,506449,506449,,506449,,506474,8,400,,,
break_continue,html.Screen,4_109_2,2023-11-01T17:06:11.270Z,,0,,,NaN,,,,,,false,,,,506450,506450,,506450,,506474,8,400,,,
sequence,flow.Sequence,4_109,2023-11-01T17:06:11.271Z,,0,,,3323,completion,,,,,false,,,,506450,506450,503109,503105,503127,506474,8,400,,,
trial,html.Screen,4_110_0,2023-11-01T17:06:14.671Z,,0,3,,3393,response,ISIC_0059368.JPG,2,ISIC_4564960.JPG,ISIC_0059368.JPG,false,1,keypress(m),500,509851,509850,506457,506450,506474,509888,8,400,11,,ISIC_4564960.JPG
break,html.Screen,4_110_1,2023-11-01T17:06:14.674Z,,0,,,NaN,,,,,,false,,,,509853,509853,,509852.00000000006,,509888,8,400,,,
break_continue,html.Screen,4_110_2,2023-11-01T17:06:14.674Z,,0,,,NaN,,,,,,false,,,,509853,509853,,509853,,509888,8,400,,,
sequence,flow.Sequence,4_110,2023-11-01T17:06:14.674Z,,0,,,3379,completion,,,,,false,,,,509853,509853,506457,506450,506474,509888,8,400,,,
trial,html.Screen,4_111_0,2023-11-01T17:06:17.901Z,,0,3,,3209.000000000058,response,ISIC_0021052.JPG,12,ISIC_0887530.JPG,ISIC_0887530.JPG,false,0,keypress(z),500,513080.00000000006,513080.00000000006,509871,509853,509888,513102,8,400,12,,ISIC_0021052.JPG
break,html.Screen,4_111_1,2023-11-01T17:06:17.902Z,,0,,,NaN,,,,,,false,,,,513081,513081,,513080.00000000006,,513102,8,400,,,
break_continue,html.Screen,4_111_2,2023-11-01T17:06:17.902Z,,0,,,NaN,,,,,,false,,,,513081,513081,,513081,,513102,8,400,,,
sequence,flow.Sequence,4_111,2023-11-01T17:06:17.902Z,,0,,,3193,completion,,,,,false,,,,513081,513081,509871,509853,509888,513102,8,400,,,
trial,html.Screen,4_112_0,2023-11-01T17:06:20.880Z,,0,3,,2972.999999999942,response,ISIC_0059840.JPG,16,ISIC_2200197.JPG,ISIC_2200197.JPG,false,0,keypress(z),500,516058.99999999994,516058.99999999994,513086,513081,513102,516083,8,400,13,,ISIC_0059840.JPG
break,html.Screen,4_112_1,2023-11-01T17:06:20.880Z,,0,,,NaN,,,,,,false,,,,516060.00000000006,516060.00000000006,,516058.99999999994,,516083,8,400,,,
break_continue,html.Screen,4_112_2,2023-11-01T17:06:20.881Z,,0,,,NaN,,,,,,false,,,,516060.00000000006,516060.00000000006,,516060.00000000006,,516083,8,400,,,
sequence,flow.Sequence,4_112,2023-11-01T17:06:20.881Z,,0,,,2958.000000000058,completion,,,,,false,,,,516060.00000000006,516060.00000000006,513086,513081,513102,516083,8,400,,,
trial,html.Screen,4_113_0,2023-11-01T17:06:23.589Z,,0,3,,2701,response,ISIC_3651451.JPG,9,ISIC_6119208.JPG,ISIC_3651451.JPG,false,1,keypress(m),500,518768,518768,516067,516060.00000000006,516083,518799,8,400,14,,ISIC_6119208.JPG
break,html.Screen,4_113_1,2023-11-01T17:06:23.589Z,,0,,,NaN,,,,,,false,,,,518769,518768,,518768,,518799,8,400,,,
break_continue,html.Screen,4_113_2,2023-11-01T17:06:23.590Z,,0,,,NaN,,,,,,false,,,,518769,518769,,518769,,518799,8,400,,,
sequence,flow.Sequence,4_113,2023-11-01T17:06:23.590Z,,0,,,2686,completion,,,,,false,,,,518769,518769,516067,516060.00000000006,516083,518799,8,400,,,
trial,html.Screen,4_114_0,2023-11-01T17:06:27.730Z,,0,3,,4127,response,ISIC_0026781.JPG,0,ISIC_9470876.JPG,ISIC_9470876.JPG,false,0,keypress(z),500,522909,522909,518782,518769,518799,522947,8,400,15,,ISIC_0026781.JPG
break,html.Screen,4_114_1,2023-11-01T17:06:27.731Z,,0,,,NaN,,,,,,false,,,,522909.99999999994,522909.99999999994,,522909,,522947,8,400,,,
break_continue,html.Screen,4_114_2,2023-11-01T17:06:27.731Z,,0,,,NaN,,,,,,false,,,,522909.99999999994,522909.99999999994,,522909.99999999994,,522947,8,400,,,
sequence,flow.Sequence,4_114,2023-11-01T17:06:27.731Z,,0,,,4110.999999999942,completion,,,,,false,,,,522909.99999999994,522909.99999999994,518782,518769,518799,522947,8,400,,,
trial,html.Screen,4_115_0,2023-11-01T17:06:30.391Z,,0,3,,2641,response,ISIC_0054444.JPG,1,ISIC_0055003.JPG,ISIC_0055003.JPG,false,0,keypress(z),500,525571,525570,522929,522911.00000000006,522947,525595,8,400,16,,ISIC_0054444.JPG
break,html.Screen,4_115_1,2023-11-01T17:06:30.392Z,,0,,,NaN,,,,,,false,,,,525571,525571,,525571,,525595,8,400,,,
break_continue,html.Screen,4_115_2,2023-11-01T17:06:30.392Z,,0,,,NaN,,,,,,false,,,,525572,525572,,525571,,525595,8,400,,,
sequence,flow.Sequence,4_115,2023-11-01T17:06:30.392Z,,0,,,2625,completion,,,,,false,,,,525572,525572,522929,522911.00000000006,522947,525595,8,400,,,
trial,html.Screen,4_116_0,2023-11-01T17:06:33.286Z,,0,3,,2887,response,ISIC_0031575.JPG,3,ISIC_5357288.JPG,ISIC_0031575.JPG,false,1,keypress(m),500,528466,528465,525578,525572,525595,528493,8,400,17,,ISIC_5357288.JPG
break,html.Screen,4_116_1,2023-11-01T17:06:33.287Z,,0,,,NaN,,,,,,false,,,,528466,528466,,528466,,528493,8,400,,,
break_continue,html.Screen,4_116_2,2023-11-01T17:06:33.287Z,,0,,,NaN,,,,,,false,,,,528467,528466,,528466,,528493,8,400,,,
sequence,flow.Sequence,4_116,2023-11-01T17:06:33.287Z,,0,,,2871,completion,,,,,false,,,,528467,528466,525578,525572,525595,528493,8,400,,,
trial,html.Screen,4_117_0,2023-11-01T17:06:36.146Z,,0,3,,2850,response,ISIC_0011012.JPG,15,ISIC_0874261.JPG,ISIC_0011012.JPG,false,1,keypress(m),500,531325,531325,528475,528467,528493,531358,8,400,18,,ISIC_0874261.JPG
break,html.Screen,4_117_1,2023-11-01T17:06:36.146Z,,0,,,NaN,,,,,,false,,,,531325,531325,,531325,,531358,8,400,,,
break_continue,html.Screen,4_117_2,2023-11-01T17:06:36.147Z,,0,,,NaN,,,,,,false,,,,531326,531326,,531326,,531358,8,400,,,
sequence,flow.Sequence,4_117,2023-11-01T17:06:36.147Z,,0,,,2833,completion,,,,,false,,,,531326,531326,528475,528467,528493,531358,8,400,,,
trial,html.Screen,4_118_0,2023-11-01T17:06:38.593Z,,0,3,,2431,response,ISIC_0065219.JPG,13,ISIC_0011534.JPG,ISIC_0065219.JPG,false,1,keypress(m),500,533772,533772,531341,531326,531358,533806,8,400,19,,ISIC_0011534.JPG
break,html.Screen,4_118_1,2023-11-01T17:06:38.593Z,,0,,,NaN,,,,,,false,,,,533773,533773,,533772,,533806,8,400,,,
break_continue,html.Screen,4_118_2,2023-11-01T17:06:38.594Z,,0,,,NaN,,,,,,false,,,,533773,533773,,533773,,533806,8,400,,,
sequence,flow.Sequence,4_118,2023-11-01T17:06:38.594Z,,0,,,2415,completion,,,,,false,,,,533773,533773,531341,531326,531358,533806,8,400,,,
trial,html.Screen,4_119_0,2023-11-01T17:06:41.631Z,,0,3,,3021.0000000001164,response,ISIC_0002675.JPG,0,ISIC_0027804.JPG,ISIC_0002675.JPG,false,1,keypress(m),500,536810.0000000001,536810.0000000001,533789,533773,533806,536837,8,400,20,,ISIC_0027804.JPG
break,html.Screen,4_119_1,2023-11-01T17:06:41.631Z,,0,,,NaN,,,,,,false,,,,536811,536810.0000000001,,536810.0000000001,,536837,8,400,,,
break_continue,html.Screen,4_119_2,2023-11-01T17:06:41.632Z,,0,,,NaN,,,,,,false,,,,536811,536811,,536811,,536837,8,400,,,
sequence,flow.Sequence,4_119,2023-11-01T17:06:41.632Z,,0,,,3005,completion,,,,,false,,,,536811,536811,533789,533773,533806,536837,8,400,,,
trial,html.Screen,4_120_0,2023-11-01T17:06:44.930Z,,0,3,,3288,response,ISIC_0029998.JPG,4,ISIC_0046664.JPG,ISIC_0046664.JPG,false,0,keypress(z),500,540109,540109,536821,536811,536837,540134,8,400,21,,ISIC_0029998.JPG
break,html.Screen,4_120_1,2023-11-01T17:06:44.931Z,,0,,,NaN,,,,,,false,,,,540110,540110,,540110,,540134,8,400,,,
break_continue,html.Screen,4_120_2,2023-11-01T17:06:44.931Z,,0,,,NaN,,,,,,false,,,,540111,540111,,540110,,540134,8,400,,,
sequence,flow.Sequence,4_120,2023-11-01T17:06:44.931Z,,0,,,3274,completion,,,,,false,,,,540111,540111,536821,536811,536837,540134,8,400,,,
trial,html.Screen,4_121_0,2023-11-01T17:06:47.887Z,,0,3,,2948,response,ISIC_2854303.JPG,1,ISIC_7927525.JPG,ISIC_2854303.JPG,false,1,keypress(m),500,543066,543066,540118,540111,540134,543099,8,400,22,,ISIC_7927525.JPG
break,html.Screen,4_121_1,2023-11-01T17:06:47.887Z,,0,,,NaN,,,,,,false,,,,543067,543066,,543066,,543099,8,400,,,
break_continue,html.Screen,4_121_2,2023-11-01T17:06:47.888Z,,0,,,NaN,,,,,,false,,,,543067,543067,,543067,,543099,8,400,,,
sequence,flow.Sequence,4_121,2023-11-01T17:06:47.888Z,,0,,,2933,completion,,,,,false,,,,543067,543067,540118,540111,540134,543099,8,400,,,
trial,html.Screen,4_122_0,2023-11-01T17:06:56.804Z,,0,3,,8900.000000000116,response,ISIC_8646115.JPG,16,ISIC_6985114.JPG,ISIC_6985114.JPG,false,0,keypress(z),500,551983.0000000001,551983.0000000001,543083,543067,543099,552010,8,400,23,,ISIC_8646115.JPG
break,html.Screen,4_122_1,2023-11-01T17:06:56.805Z,,0,,,NaN,,,,,,false,,,,551984,551984,,551984,,552010,8,400,,,
break_continue,html.Screen,4_122_2,2023-11-01T17:06:56.805Z,,0,,,NaN,,,,,,false,,,,551984,551984,,551984,,552010,8,400,,,
sequence,flow.Sequence,4_122,2023-11-01T17:06:56.805Z,,0,,,8885,completion,,,,,false,,,,551984,551984,543083,543067,543099,552010,8,400,,,
trial,html.Screen,4_123_0,2023-11-01T17:07:00.135Z,,0,3,,3320,response,ISIC_3586669.JPG,3,ISIC_0011500.JPG,ISIC_3586669.JPG,false,1,keypress(m),500,555315,555314,551994,551985,552010,555341,8,400,24,,ISIC_0011500.JPG
break,html.Screen,4_123_1,2023-11-01T17:07:00.136Z,,0,,,NaN,,,,,,false,,,,555316,555315,,555315,,555341,8,400,,,
break_continue,html.Screen,4_123_2,2023-11-01T17:07:00.136Z,,0,,,NaN,,,,,,false,,,,555316,555316,,555316,,555341,8,400,,,
sequence,flow.Sequence,4_123,2023-11-01T17:07:00.137Z,,0,,,3306,completion,,,,,false,,,,555316,555316,551994,551985,552010,555341,8,400,,,
trial,html.Screen,4_124_0,2023-11-01T17:07:03.639Z,,0,3,,3493,response,ISIC_0015443.JPG,14,ISIC_7956417.JPG,ISIC_7956417.JPG,false,0,keypress(z),500,558818,558818,555325,555316,555341,558839,8,400,25,,ISIC_0015443.JPG
break,html.Screen,4_124_1,2023-11-01T17:07:03.639Z,,0,,,NaN,,,,,,false,,,,558818,558818,,558818,,558839,8,400,,,
break_continue,html.Screen,4_124_2,2023-11-01T17:07:03.639Z,,0,,,NaN,,,,,,false,,,,558819,558819,,558819,,558839,8,400,,,
sequence,flow.Sequence,4_124,2023-11-01T17:07:03.639Z,,0,,,3478,completion,,,,,false,,,,558819,558819,555325,555316,555341,558839,8,400,,,
trial,html.Screen,4_125_0,2023-11-01T17:07:06.999Z,,0,3,,3356,response,ISIC_0032918.JPG,15,ISIC_2535541.JPG,ISIC_0032918.JPG,false,1,keypress(m),500,562178,562178,558822,558819,558839,562203,8,400,26,,ISIC_2535541.JPG
break,html.Screen,4_125_1,2023-11-01T17:07:07.000Z,,0,,,NaN,,,,,,false,,,,562179,562179,,562179,,562203,8,400,,,
break_continue,html.Screen,4_125_2,2023-11-01T17:07:07.000Z,,0,,,NaN,,,,,,false,,,,562180.0000000001,562180.0000000001,,562179,,562203,8,400,,,
sequence,flow.Sequence,4_125,2023-11-01T17:07:07.001Z,,0,,,3341.0000000001164,completion,,,,,false,,,,562180.0000000001,562180.0000000001,558822,558819,558839,562203,8,400,,,
trial,html.Screen,4_126_0,2023-11-01T17:07:09.680Z,,0,3,,2672,response,ISIC_0012865.JPG,0,ISIC_0055513.JPG,ISIC_0012865.JPG,false,1,keypress(m),500,564859,564859,562187,562180.0000000001,562203,564885,8,400,27,,ISIC_0055513.JPG
break,html.Screen,4_126_1,2023-11-01T17:07:09.680Z,,0,,,NaN,,,,,,false,,,,564860,564859,,564859,,564885,8,400,,,
break_continue,html.Screen,4_126_2,2023-11-01T17:07:09.680Z,,0,,,NaN,,,,,,false,,,,564860,564860,,564860,,564885,8,400,,,
sequence,flow.Sequence,4_126,2023-11-01T17:07:09.681Z,,0,,,2657,completion,,,,,false,,,,564860,564860,562187,562180.0000000001,562203,564885,8,400,,,
trial,html.Screen,4_127_0,2023-11-01T17:07:14.980Z,,0,3,,5290,response,ISIC_0060860.JPG,3,ISIC_0011793.JPG,ISIC_0060860.JPG,false,1,keypress(m),500,570160,570159,564869,564860,564885,570181,8,400,28,,ISIC_0011793.JPG
break,html.Screen,4_127_1,2023-11-01T17:07:14.981Z,,0,,,NaN,,,,,,false,,,,570160,570160,,570160,,570181,8,400,,,
break_continue,html.Screen,4_127_2,2023-11-01T17:07:14.981Z,,0,,,NaN,,,,,,false,,,,570161,570160,,570160,,570181,8,400,,,
sequence,flow.Sequence,4_127,2023-11-01T17:07:14.981Z,,0,,,5275,completion,,,,,false,,,,570161,570160,564869,564860,564885,570181,8,400,,,
trial,html.Screen,4_128_0,2023-11-01T17:07:18.397Z,,0,3,,3411,response,ISIC_9944714.JPG,0,ISIC_0012065.JPG,ISIC_9944714.JPG,false,1,keypress(m),500,573576,573576,570165,570161,570181,573613,8,400,29,,ISIC_0012065.JPG
break,html.Screen,4_128_1,2023-11-01T17:07:18.398Z,,0,,,NaN,,,,,,false,,,,573577,573577,,573576,,573613,8,400,,,
break_continue,html.Screen,4_128_2,2023-11-01T17:07:18.398Z,,0,,,NaN,,,,,,false,,,,573577,573577,,573577,,573613,8,400,,,
sequence,flow.Sequence,4_128,2023-11-01T17:07:18.398Z,,0,,,3396,completion,,,,,false,,,,573577,573577,570165,570161,570181,573613,8,400,,,
trial,html.Screen,4_129_0,2023-11-01T17:07:21.033Z,,0,3,,2617,response,ISIC_0010050.JPG,0,ISIC_0082704.JPG,ISIC_0082704.JPG,false,0,keypress(z),500,576212,576212,573595,573577,573613,576245,8,400,30,,ISIC_0010050.JPG
break,html.Screen,4_129_1,2023-11-01T17:07:21.034Z,,0,,,NaN,,,,,,false,,,,576213,576213,,576212,,576245,8,400,,,
break_continue,html.Screen,4_129_2,2023-11-01T17:07:21.034Z,,0,,,NaN,,,,,,false,,,,576213,576213,,576213,,576245,8,400,,,
sequence,flow.Sequence,4_129,2023-11-01T17:07:21.034Z,,0,,,2600,completion,,,,,false,,,,576213,576213,573595,573577,573613,576245,8,400,,,
trial,html.Screen,4_130_0,2023-11-01T17:07:28.816Z,,0,3,,7768,response,ISIC_0070435.JPG,15,ISIC_0026360.JPG,ISIC_0070435.JPG,false,1,keypress(m),500,583995,583995,576227,576213,576245,584022,8,400,31,,ISIC_0026360.JPG
break,html.Screen,4_130_1,2023-11-01T17:07:28.816Z,,0,,,NaN,,,,,,false,,,,583995,583995,,583995,,584022,8,400,,,
break_continue,html.Screen,4_130_2,2023-11-01T17:07:28.816Z,,0,,,NaN,,,,,,false,,,,583996,583996,,583996,,584022,8,400,,,
sequence,flow.Sequence,4_130,2023-11-01T17:07:28.816Z,,0,,,7751,completion,,,,,false,,,,583996,583996,576227,576213,576245,584022,8,400,,,
trial,html.Screen,4_131_0,2023-11-01T17:07:32.187Z,,0,3,,3359,response,ISIC_1315123.JPG,0,ISIC_0000413.JPG,ISIC_1315123.JPG,false,1,keypress(m),500,587367,587365,584006,583996,584022,587403,8,400,32,,ISIC_0000413.JPG
break,html.Screen,4_131_1,2023-11-01T17:07:32.188Z,,0,,,NaN,,,,,,false,,,,587367,587367,,587367,,587403,8,400,,,
break_continue,html.Screen,4_131_2,2023-11-01T17:07:32.188Z,,0,,,NaN,,,,,,false,,,,587367,587367,,587367,,587403,8,400,,,
sequence,flow.Sequence,4_131,2023-11-01T17:07:32.188Z,,0,,,3345,completion,,,,,false,,,,587367,587367,584006,583996,584022,587403,8,400,,,
trial,html.Screen,4_132_0,2023-11-01T17:07:43.700Z,,0,3,,11509,timeout,ISIC_0059485.JPG,6,ISIC_8651053.JPG,,false,,,500,598879,598879,587387,587368,587403,598912,8,400,33,,
break,html.Screen,4_132_1,2023-11-01T17:07:43.701Z,,0,,,NaN,,,,,,false,,,,598880,598880,,598879,,598912,8,400,,,
break_continue,html.Screen,4_132_2,2023-11-01T17:07:43.701Z,,0,,,NaN,,,,,,false,,,,598880,598880,,598880,,598912,8,400,,,
sequence,flow.Sequence,4_132,2023-11-01T17:07:43.701Z,,0,,,11477,completion,,,,,false,,,,598881,598880,587387,587368,587403,598912,8,400,,,
trial,html.Screen,4_133_0,2023-11-01T17:07:55.210Z,,0,3,,11510,timeout,ISIC_9760652.JPG,5,ISIC_3391254.JPG,,false,,,500,610389,610389,598896,598881,598912,610422,8,400,34,,
break,html.Screen,4_133_1,2023-11-01T17:07:55.210Z,,0,,,NaN,,,,,,false,,,,610389,610389,,610389,,610422,8,400,,,
break_continue,html.Screen,4_133_2,2023-11-01T17:07:55.210Z,,0,,,NaN,,,,,,false,,,,610390,610390,,610389,,610422,8,400,,,
sequence,flow.Sequence,4_133,2023-11-01T17:07:55.210Z,,0,,,11478,completion,,,,,false,,,,610390,610390,598896,598881,598912,610422,8,400,,,
trial,html.Screen,4_134_0,2023-11-01T17:08:00.120Z,,0,3,,4894,response,ISIC_0032140.JPG,3,ISIC_0002347.JPG,ISIC_0002347.JPG,false,0,keypress(z),500,615299,615299,610405,610390,610422,615335,8,400,35,,ISIC_0032140.JPG
break,html.Screen,4_134_1,2023-11-01T17:08:00.120Z,,0,,,NaN,,,,,,false,,,,615299,615299,,615299,,615335,8,400,,,
break_continue,html.Screen,4_134_2,2023-11-01T17:08:00.120Z,,0,,,NaN,,,,,,false,,,,615300.0000000001,615300.0000000001,,615299,,615335,8,400,,,
sequence,flow.Sequence,4_134,2023-11-01T17:08:00.120Z,,0,,,4878.000000000116,completion,,,,,false,,,,615300.0000000001,615300.0000000001,610405,610390,610422,615335,8,400,,,
trial,html.Screen,4_135_0,2023-11-01T17:08:03.499Z,,0,3,,3360,response,ISIC_0067723.JPG,0,ISIC_2245709.JPG,ISIC_2245709.JPG,false,0,keypress(z),500,618678,618678,615318,615300.0000000001,615335,618699,8,400,36,,ISIC_0067723.JPG
break,html.Screen,4_135_1,2023-11-01T17:08:03.499Z,,0,,,NaN,,,,,,false,,,,618678,618678,,618678,,618699,8,400,,,
break_continue,html.Screen,4_135_2,2023-11-01T17:08:03.499Z,,0,,,NaN,,,,,,false,,,,618679,618679,,618678,,618699,8,400,,,
sequence,flow.Sequence,4_135,2023-11-01T17:08:03.499Z,,0,,,3344,completion,,,,,false,,,,618679,618679,615318,615300.0000000001,615335,618699,8,400,,,
trial,html.Screen,4_136_0,2023-11-01T17:08:06.557Z,,0,3,,3054,response,ISIC_0063961.JPG,2,ISIC_0682543.JPG,ISIC_0682543.JPG,false,0,keypress(z),500,621736,621736,618682,618679,618699,621764,8,400,37,,ISIC_0063961.JPG
break,html.Screen,4_136_1,2023-11-01T17:08:06.558Z,,0,,,NaN,,,,,,false,,,,621737,621737,,621736,,621764,8,400,,,
break_continue,html.Screen,4_136_2,2023-11-01T17:08:06.558Z,,0,,,NaN,,,,,,false,,,,621737,621737,,621737,,621764,8,400,,,
sequence,flow.Sequence,4_136,2023-11-01T17:08:06.558Z,,0,,,3038,completion,,,,,false,,,,621737,621737,618682,618679,618699,621764,8,400,,,
trial,html.Screen,4_137_0,2023-11-01T17:08:11.193Z,,0,3,,4625,response,ISIC_0033501.JPG,2,ISIC_6209119.JPG,ISIC_6209119.JPG,false,0,keypress(z),500,626372,626372,621747,621737,621764,626394,8,400,38,,ISIC_0033501.JPG
break,html.Screen,4_137_1,2023-11-01T17:08:11.193Z,,0,,,NaN,,,,,,false,,,,626373,626373,,626372,,626394,8,400,,,
break_continue,html.Screen,4_137_2,2023-11-01T17:08:11.194Z,,0,,,NaN,,,,,,false,,,,626373,626373,,626373,,626394,8,400,,,
sequence,flow.Sequence,4_137,2023-11-01T17:08:11.194Z,,0,,,4609,completion,,,,,false,,,,626374,626373,621747,621737,621764,626394,8,400,,,
trial,html.Screen,4_138_0,2023-11-01T17:08:14.327Z,,0,3,,3129,response,ISIC_2807121.JPG,3,ISIC_6699854.JPG,ISIC_6699854.JPG,false,0,keypress(z),500,629506,629506,626377,626374,626394,629542,8,400,39,,ISIC_2807121.JPG
break,html.Screen,4_138_1,2023-11-01T17:08:14.328Z,,0,,,NaN,,,,,,false,,,,629507.0000000001,629507.0000000001,,629506,,629542,8,400,,,
break_continue,html.Screen,4_138_2,2023-11-01T17:08:14.328Z,,0,,,NaN,,,,,,false,,,,629507.0000000001,629507.0000000001,,629507.0000000001,,629542,8,400,,,
sequence,flow.Sequence,4_138,2023-11-01T17:08:14.328Z,,0,,,3113.0000000001164,completion,,,,,false,,,,629507.0000000001,629507.0000000001,626377,626374,626394,629542,8,400,,,
trial,html.Screen,4_139_0,2023-11-01T17:08:18.288Z,,0,3,,3942,response,ISIC_0202119.JPG,14,ISIC_0766328.JPG,ISIC_0202119.JPG,false,1,keypress(m),500,633467,633467,629525,629507.0000000001,629542,633490,8,400,40,,ISIC_0766328.JPG
break,html.Screen,4_139_1,2023-11-01T17:08:18.289Z,,0,,,NaN,,,,,,false,,,,633468,633468,,633467,,633490,8,400,,,
break_continue,html.Screen,4_139_2,2023-11-01T17:08:18.289Z,,0,,,NaN,,,,,,false,,,,633468,633468,,633468,,633490,8,400,,,
sequence,flow.Sequence,4_139,2023-11-01T17:08:18.289Z,,0,,,3926,completion,,,,,false,,,,633469,633468,629525,629507.0000000001,629542,633490,8,400,,,
trial,html.Screen,4_140_0,2023-11-01T17:08:21.511Z,,0,3,,3218,response,ISIC_0012072.JPG,3,ISIC_0056677.JPG,ISIC_0012072.JPG,false,1,keypress(m),500,636691,636690,633472,633469,633490,636720,8,400,41,,ISIC_0056677.JPG
break,html.Screen,4_140_1,2023-11-01T17:08:21.512Z,,0,,,NaN,,,,,,false,,,,636691,636691,,636691,,636720,8,400,,,
break_continue,html.Screen,4_140_2,2023-11-01T17:08:21.512Z,,0,,,NaN,,,,,,false,,,,636691,636691,,636691,,636720,8,400,,,
sequence,flow.Sequence,4_140,2023-11-01T17:08:21.512Z,,0,,,3201,completion,,,,,false,,,,636691,636691,633472,633469,633490,636720,8,400,,,
trial,html.Screen,4_141_0,2023-11-01T17:08:24.165Z,,0,3,,2640,response,ISIC_4026808.JPG,14,ISIC_0028969.JPG,ISIC_4026808.JPG,false,1,keypress(m),500,639344,639344,636704,636692,636720,639368,8,400,42,,ISIC_0028969.JPG
break,html.Screen,4_141_1,2023-11-01T17:08:24.165Z,,0,,,NaN,,,,,,false,,,,639344,639344,,639344,,639368,8,400,,,
break_continue,html.Screen,4_141_2,2023-11-01T17:08:24.165Z,,0,,,NaN,,,,,,false,,,,639345,639345,,639345,,639368,8,400,,,
sequence,flow.Sequence,4_141,2023-11-01T17:08:24.165Z,,0,,,2625,completion,,,,,false,,,,639345,639345,636704,636691,636720,639368,8,400,,,
trial,html.Screen,4_142_0,2023-11-01T17:08:27.276Z,,0,3,,3103,response,ISIC_3386753.JPG,0,ISIC_0029761.JPG,ISIC_3386753.JPG,false,1,keypress(m),500,642455,642455,639352,639345,639368,642483,8,400,43,,ISIC_0029761.JPG
break,html.Screen,4_142_1,2023-11-01T17:08:27.277Z,,0,,,NaN,,,,,,false,,,,642456,642456,,642456,,642483,8,400,,,
break_continue,html.Screen,4_142_2,2023-11-01T17:08:27.277Z,,0,,,NaN,,,,,,false,,,,642457,642457,,642457,,642483,8,400,,,
sequence,flow.Sequence,4_142,2023-11-01T17:08:27.278Z,,0,,,3089,completion,,,,,false,,,,642457,642457,639352,639345,639368,642483,8,400,,,
trial,html.Screen,4_143_0,2023-11-01T17:08:31.513Z,,0,3,,4225,response,ISIC_4296456.JPG,15,ISIC_6284312.JPG,ISIC_4296456.JPG,false,1,keypress(m),500,646692,646692,642467,642457,642483,646714,8,400,44,,ISIC_6284312.JPG
break,html.Screen,4_143_1,2023-11-01T17:08:31.513Z,,0,,,NaN,,,,,,false,,,,646693,646693,,646692,,646714,8,400,,,
break_continue,html.Screen,4_143_2,2023-11-01T17:08:31.514Z,,0,,,NaN,,,,,,false,,,,646693,646693,,646693,,646714,8,400,,,
sequence,flow.Sequence,4_143,2023-11-01T17:08:31.514Z,,0,,,4210,completion,,,,,false,,,,646693,646693,642467,642457,642483,646714,8,400,,,
trial,html.Screen,4_144_0,2023-11-01T17:08:36.518Z,,0,3,,5000,response,ISIC_7010552.JPG,3,ISIC_2670475.JPG,ISIC_2670475.JPG,false,0,keypress(z),500,651698,651698,646698,646693,646714,651727,8,400,45,,ISIC_7010552.JPG
break,html.Screen,4_144_1,2023-11-01T17:08:36.519Z,,0,,,NaN,,,,,,false,,,,651698,651698,,651698,,651727,8,400,,,
break_continue,html.Screen,4_144_2,2023-11-01T17:08:36.519Z,,0,,,NaN,,,,,,false,,,,651699.0000000001,651699.0000000001,,651698,,651727,8,400,,,
sequence,flow.Sequence,4_144,2023-11-01T17:08:36.519Z,,0,,,4985.000000000116,completion,,,,,false,,,,651699.0000000001,651699.0000000001,646698,646693,646714,651727,8,400,,,
trial,html.Screen,4_145_0,2023-11-01T17:08:39.831Z,,0,3,,3299,response,ISIC_2106823.JPG,3,ISIC_0064784.JPG,ISIC_2106823.JPG,false,1,keypress(m),500,655011,655010,651711,651699.0000000001,651727,655042,8,400,46,,ISIC_0064784.JPG
break,html.Screen,4_145_1,2023-11-01T17:08:39.832Z,,0,,,NaN,,,,,,false,,,,655011,655011,,655011,,655042,8,400,,,
break_continue,html.Screen,4_145_2,2023-11-01T17:08:39.832Z,,0,,,NaN,,,,,,false,,,,655011,655011,,655011,,655042,8,400,,,
sequence,flow.Sequence,4_145,2023-11-01T17:08:39.832Z,,0,,,3284,completion,,,,,false,,,,655012,655011,651711,651699.0000000001,651727,655042,8,400,,,
trial,html.Screen,4_146_0,2023-11-01T17:08:42.471Z,,0,3,,2624,response,ISIC_0011512.JPG,2,ISIC_1473511.JPG,ISIC_1473511.JPG,false,0,keypress(z),500,657651.0000000001,657650,655026,655012,655042,657674,8,400,47,,ISIC_0011512.JPG
break,html.Screen,4_146_1,2023-11-01T17:08:42.472Z,,0,,,NaN,,,,,,false,,,,657651.0000000001,657651.0000000001,,657651.0000000001,,657674,8,400,,,
break_continue,html.Screen,4_146_2,2023-11-01T17:08:42.472Z,,0,,,NaN,,,,,,false,,,,657651.0000000001,657651.0000000001,,657651.0000000001,,657674,8,400,,,
sequence,flow.Sequence,4_146,2023-11-01T17:08:42.472Z,,0,,,2609.0000000001164,completion,,,,,false,,,,657651.0000000001,657651.0000000001,655026,655012,655042,657674,8,400,,,
trial,html.Screen,4_147_0,2023-11-01T17:08:45.696Z,,0,3,,3219,response,ISIC_0028131.JPG,3,ISIC_0010777.JPG,ISIC_0028131.JPG,false,1,keypress(m),500,660876,660875,657656,657651.0000000001,657674,660904,8,400,48,,ISIC_0010777.JPG
break,html.Screen,4_147_1,2023-11-01T17:08:45.697Z,,0,,,NaN,,,,,,false,,,,660876,660876,,660876,,660904,8,400,,,
break_continue,html.Screen,4_147_2,2023-11-01T17:08:45.697Z,,0,,,NaN,,,,,,false,,,,660877.0000000001,660877.0000000001,,660876,,660904,8,400,,,
sequence,flow.Sequence,4_147,2023-11-01T17:08:45.697Z,,0,,,3203.0000000001164,completion,,,,,false,,,,660877.0000000001,660877.0000000001,657656,657651.0000000001,657674,660904,8,400,,,
trial,html.Screen,4_148_0,2023-11-01T17:08:48.196Z,,0,3,,2487,response,ISIC_2364150.JPG,10,ISIC_2177748.JPG,ISIC_2177748.JPG,false,0,keypress(z),500,663376,663375,660888,660877.0000000001,660904,663402,8,400,49,,ISIC_2364150.JPG
break,html.Screen,4_148_1,2023-11-01T17:08:48.197Z,,0,,,NaN,,,,,,false,,,,663377.0000000001,663376,,663376,,663402,8,400,,,
break_continue,html.Screen,4_148_2,2023-11-01T17:08:48.198Z,,0,,,NaN,,,,,,false,,,,663377.0000000001,663377.0000000001,,663377.0000000001,,663402,8,400,,,
sequence,flow.Sequence,4_148,2023-11-01T17:08:48.198Z,,0,,,2473.0000000001164,completion,,,,,false,,,,663377.0000000001,663377.0000000001,660888,660877.0000000001,660904,663402,8,400,,,
trial,html.Screen,4_149_0,2023-11-01T17:08:51.442Z,,0,3,,3234,response,ISIC_0071335.JPG,1,ISIC_0028969.JPG,ISIC_0071335.JPG,false,1,keypress(m),500,666621,666621,663387,663377.0000000001,663402,666650,8,400,50,,ISIC_0028969.JPG
break,html.Screen,4_149_1,2023-11-01T17:09:01.449Z,,0,,,9994,timeout,,,,,false,,,,676628,676628,666635,666621,666650,676644,8,400,,,
break_continue,html.Screen,4_149_2,2023-11-01T17:09:02.741Z,,0,,,1285,response,,,,,false,continue,keypress(Space),,677920,677913,676628,676628,676644,677943,8,400,,,
sequence,flow.Sequence,4_149,2023-11-01T17:09:02.741Z,,0,,,14511,completion,,,,,false,,,,677920,677913,663387,663377.0000000001,663402,677943,8,400,,,
trial,html.Screen,4_150_0,2023-11-01T17:09:07.477Z,,0,4,,4729.000000000116,response,ISIC_0027881.JPG,2,ISIC_4024062.JPG,ISIC_4024062.JPG,false,0,keypress(z),500,682656.0000000001,682656.0000000001,677927,677920,677943,682690,8,400,1,,ISIC_0027881.JPG
break,html.Screen,4_150_1,2023-11-01T17:09:07.477Z,,0,,,NaN,,,,,,false,,,,682657,682656.0000000001,,682656.0000000001,,682690,8,400,,,
break_continue,html.Screen,4_150_2,2023-11-01T17:09:07.478Z,,0,,,NaN,,,,,,false,,,,682657,682657,,682657,,682690,8,400,,,
sequence,flow.Sequence,4_150,2023-11-01T17:09:07.478Z,,0,,,4714,completion,,,,,false,,,,682657,682657,677927,677920,677943,682690,8,400,,,
trial,html.Screen,4_151_0,2023-11-01T17:09:10.042Z,,0,4,,2547,response,ISIC_0034049.JPG,5,ISIC_5284935.JPG,ISIC_5284935.JPG,false,0,keypress(z),500,685221,685221,682674,682657,682690,685256,8,400,2,,ISIC_0034049.JPG
break,html.Screen,4_151_1,2023-11-01T17:09:10.042Z,,0,,,NaN,,,,,,false,,,,685222,685222,,685221,,685256,8,400,,,
break_continue,html.Screen,4_151_2,2023-11-01T17:09:10.043Z,,0,,,NaN,,,,,,false,,,,685222,685222,,685222,,685256,8,400,,,
sequence,flow.Sequence,4_151,2023-11-01T17:09:10.043Z,,0,,,2532,completion,,,,,false,,,,685222,685222,682674,682657,682690,685256,8,400,,,
trial,html.Screen,4_152_0,2023-11-01T17:09:12.961Z,,0,4,,2902,response,ISIC_8020153.JPG,5,ISIC_7306131.JPG,ISIC_7306131.JPG,false,0,keypress(z),500,688141,688141,685239,685222,685256,688170,8,400,3,,ISIC_8020153.JPG
break,html.Screen,4_152_1,2023-11-01T17:09:12.962Z,,0,,,NaN,,,,,,false,,,,688141,688141,,688141,,688170,8,400,,,
break_continue,html.Screen,4_152_2,2023-11-01T17:09:12.962Z,,0,,,NaN,,,,,,false,,,,688142,688142,,688141,,688170,8,400,,,
sequence,flow.Sequence,4_152,2023-11-01T17:09:12.962Z,,0,,,2886,completion,,,,,false,,,,688142,688142,685239,685222,685256,688170,8,400,,,
trial,html.Screen,4_153_0,2023-11-01T17:09:15.914Z,,0,4,,2939,response,ISIC_0069183.JPG,1,ISIC_0034120.JPG,ISIC_0034120.JPG,false,0,keypress(z),500,691093,691093,688154,688142,688170,691118,8,400,4,,ISIC_0069183.JPG
break,html.Screen,4_153_1,2023-11-01T17:09:15.914Z,,0,,,NaN,,,,,,false,,,,691094,691094,,691093,,691118,8,400,,,
break_continue,html.Screen,4_153_2,2023-11-01T17:09:15.915Z,,0,,,NaN,,,,,,false,,,,691094,691094,,691094,,691118,8,400,,,
sequence,flow.Sequence,4_153,2023-11-01T17:09:15.915Z,,0,,,2924,completion,,,,,false,,,,691094,691094,688154,688142,688170,691118,8,400,,,
trial,html.Screen,4_154_0,2023-11-01T17:09:18.702Z,,0,4,,2780,response,ISIC_0010915.JPG,3,ISIC_0058647.JPG,ISIC_0010915.JPG,false,1,keypress(m),500,693881,693881,691101,691094,691118,693917,8,400,5,,ISIC_0058647.JPG
break,html.Screen,4_154_1,2023-11-01T17:09:18.703Z,,0,,,NaN,,,,,,false,,,,693882.0000000001,693882.0000000001,,693882.0000000001,,693917,8,400,,,
break_continue,html.Screen,4_154_2,2023-11-01T17:09:18.703Z,,0,,,NaN,,,,,,false,,,,693883,693882.0000000001,,693882.0000000001,,693917,8,400,,,
sequence,flow.Sequence,4_154,2023-11-01T17:09:18.703Z,,0,,,2764.0000000001164,completion,,,,,false,,,,693883,693882.0000000001,691101,691094,691118,693917,8,400,,,
trial,html.Screen,4_155_0,2023-11-01T17:09:21.405Z,,0,4,,2684.0000000001164,response,ISIC_0009975.JPG,0,ISIC_0002347.JPG,ISIC_0002347.JPG,false,0,keypress(z),500,696584.0000000001,696584.0000000001,693900,693883,693917,696615,8,400,6,,ISIC_0009975.JPG
break,html.Screen,4_155_1,2023-11-01T17:09:21.405Z,,0,,,NaN,,,,,,false,,,,696585,696585,,696584.0000000001,,696615,8,400,,,
break_continue,html.Screen,4_155_2,2023-11-01T17:09:21.406Z,,0,,,NaN,,,,,,false,,,,696585,696585,,696585,,696615,8,400,,,
sequence,flow.Sequence,4_155,2023-11-01T17:09:21.406Z,,0,,,2668,completion,,,,,false,,,,696585,696585,693900,693883,693917,696615,8,400,,,
trial,html.Screen,4_156_0,2023-11-01T17:09:24.532Z,,0,4,,3115,response,ISIC_0024232.JPG,14,ISIC_0845105.JPG,ISIC_0845105.JPG,false,0,keypress(z),500,699712,699712,696597,696585,696615,699746,8,400,7,,ISIC_0024232.JPG
break,html.Screen,4_156_1,2023-11-01T17:09:24.535Z,,0,,,NaN,,,,,,false,,,,699714,699714,,699714,,699746,8,400,,,
break_continue,html.Screen,4_156_2,2023-11-01T17:09:24.535Z,,0,,,NaN,,,,,,false,,,,699714,699714,,699714,,699746,8,400,,,
sequence,flow.Sequence,4_156,2023-11-01T17:09:24.535Z,,0,,,3099,completion,,,,,false,,,,699715,699714,696597,696585,696615,699746,8,400,,,
trial,html.Screen,4_157_0,2023-11-01T17:09:27.060Z,,0,4,,2510,response,ISIC_2957732.JPG,13,ISIC_6891226.JPG,ISIC_6891226.JPG,false,0,keypress(z),500,702239,702239,699729,699715,699746,702260,8,400,8,,ISIC_2957732.JPG
