sender,sender_type,sender_id,timestamp,meta,,blockNo,condition,duration,ended_on,img_left,img_reveal,img_right,loser,practice,response,response_action,selection_duration,time_commit,time_end,time_render,time_run,time_show,time_switch,total_blocks,total_trials,trialNo,url,winner
informed_consent,html.Screen,0,2023-09-08T20:43:11.540Z,"{""labjs_version"":""20.2.4"",""labjs_build"":{""flavor"":""production"",""commit"":""f5b4a49f956347addd546a832a3327688c2c0fef""},""location"":""https://run.pavlovia.org/MurrayBennett/melanoma-2afc/?participant=63e42833b46647e4119fbcb9&STUDY_ID=64f8c92207ba404bcb356c90&SESSION_ID=64fb8719b58a59ee7a5c93c3&platform=prolific"",""userAgent"":""Mozilla/5.0 (Windows NT 10.0; Win64; x64) AppleWebKit/537.36 (KHTML, like Gecko) Chrome/116.0.0.0 Safari/537.36"",""platform"":""Win32"",""language"":""en-US"",""locale"":""en-US"",""timeZone"":""America/Los_Angeles"",""timezoneOffset"":420,""screen_width"":1536,""screen_height"":864,""scroll_width"":1536,""scroll_height"":710,""window_innerWidth"":1536,""window_innerHeight"":758,""devicePixelRatio"":1.25}",,,,47339.444,response,,,,,,consent,click button,,57064.79999998212,57061.5,8576.902,9700.5,9722.056,57080.838,,,,"{""participant"":""63e42833b46647e4119fbcb9"",""STUDY_ID"":""64f8c92207ba404bcb356c90"",""SESSION_ID"":""64fb8719b58a59ee7a5c93c3"",""platform"":""prolific""}",
Welcome,html.Screen,1,2023-09-08T20:43:25.828Z,,,,asymmetry,14266.861999988076,response,,,,,,continue,click button,,71352,71347.69999998808,57047.274,57065.09999999404,57080.838,71365.044,,,,,
trial,html.Screen,2_0_0,2023-09-08T20:43:35.842Z,,0,0,,10001.155999988085,response,ISIC_6997061.JPG,,ISIC_0069348.JPG,ISIC_0069348.JPG,true,0,keypress(z),500,81366.5,81366.19999998808,71348.216,71352.29999998212,71365.044,81389.662,1,6,1,,ISIC_6997061.JPG
sequence,flow.Sequence,2_0,2023-09-08T20:43:35.843Z,,0,,,10001.155999988085,completion,,,,,true,,,,81366.89999997616,81366.19999998808,71348.216,71352.19999998808,71365.044,81389.662,1,6,,,
trial,html.Screen,2_1_0,2023-09-08T20:43:40.170Z,,0,0,,4304.338000000003,response,ISIC_0057368.JPG,,ISIC_0009529.JPG,ISIC_0057368.JPG,true,1,keypress(m),500,85694.19999998808,85694,81351.851,81367,81389.662,85717.283,1,6,2,,ISIC_0009529.JPG
sequence,flow.Sequence,2_1,2023-09-08T20:43:40.170Z,,0,,,4304.338000000003,completion,,,,,true,,,,85694.39999997616,85694,81351.851,81367,81389.662,85717.283,1,6,,,
trial,html.Screen,2_2_0,2023-09-08T20:43:43.490Z,,0,0,,3296.9169999880833,response,ISIC_0064954.JPG,,ISIC_9758671.JPG,ISIC_9758671.JPG,true,0,keypress(z),500,89014.39999997616,89014.19999998808,85682.15,85694.59999999404,85717.283,89037.588,1,6,3,,ISIC_0064954.JPG
sequence,flow.Sequence,2_2,2023-09-08T20:43:43.491Z,,0,,,3296.9169999880833,completion,,,,,true,,,,89014.69999998808,89014.19999998808,85682.15,85694.59999999404,85717.283,89037.588,1,6,,,
trial,html.Screen,2_3_0,2023-09-08T20:43:53.434Z,,0,0,,9920.711999982115,response,ISIC_0000080.JPG,,ISIC_0005785.JPG,ISIC_0000080.JPG,true,1,keypress(m),500,98958.59999999404,98958.29999998212,88999.67,89015,89037.588,98981.858,1,6,4,,ISIC_0005785.JPG
sequence,flow.Sequence,2_3,2023-09-08T20:43:53.435Z,,0,,,9920.711999982115,completion,,,,,true,,,,98958.89999997616,98958.29999998212,88999.67,89015,89037.588,98981.858,1,6,,,
trial,html.Screen,2_4_0,2023-09-08T20:43:56.434Z,,0,0,,2976.5419999761652,response,ISIC_7944028.JPG,,ISIC_5390060.JPG,ISIC_5390060.JPG,true,0,keypress(z),500,101958.5,101958.39999997616,98948.938,98959.19999998808,98981.858,101981.43,1,6,5,,ISIC_7944028.JPG
sequence,flow.Sequence,2_4,2023-09-08T20:43:56.435Z,,0,,,2976.5419999761652,completion,,,,,true,,,,101958.69999998808,101958.39999997616,98948.938,98959.09999999404,98981.858,101981.43,1,6,,,
trial,html.Screen,2_5_0,2023-09-08T20:43:58.874Z,,0,0,,2416.769999988086,response,ISIC_0010188.JPG,,ISIC_0794216.JPG,ISIC_0794216.JPG,true,0,keypress(z),500,104398.39999997616,104398.19999998808,101957.109,101958.89999997616,101981.43,104421.658,1,6,6,,ISIC_0010188.JPG
sequence,flow.Sequence,2_5,2023-09-08T20:43:58.875Z,,0,,,2416.769999988086,completion,,,,,true,,,,104398.69999998808,104398.19999998808,101957.109,101958.89999997616,101981.43,104421.658,1,6,,,
loop,flow.Loop,2,2023-09-08T20:43:58.875Z,,,,,33033.155999988085,completion,,,,,true,,,,104399,104398.19999998808,71348.216,71352.19999998808,71365.044,104421.658,1,6,,,
exp_instructions,html.Screen,3,2023-09-08T20:44:10.727Z,,,,,11829.342000000004,response,,,,,,continue,keypress(Space),,116251.69999998808,116251,104391.149,104399.09999999404,104421.658,116274.421,,,,,
trial,html.Screen,4_0_0,2023-09-08T20:44:14.419Z,,0,1,,3668.078999999998,response,ISIC_4936610.JPG,12,ISIC_0001126.JPG,ISIC_0001126.JPG,false,0,keypress(z),500,119942.69999998808,119942.5,116252.065,116251.79999998212,116274.421,119965.428,8,400,1,,ISIC_4936610.JPG
break,html.Screen,4_0_1,2023-09-08T20:44:14.419Z,,0,,,NaN,,,,,,false,,,,119943.59999999404,119943.29999998212,,119942.79999998212,,119965.428,8,400,,,
break_continue,html.Screen,4_0_2,2023-09-08T20:44:14.420Z,,0,,,NaN,,,,,,false,,,,119944,119943.79999998212,,119943.69999998808,,119965.428,8,400,,,
sequence,flow.Sequence,4_0,2023-09-08T20:44:14.420Z,,0,,,3669.3789999821165,completion,,,,,false,,,,119944.19999998808,119943.79999998212,116252.065,116251.79999998212,116274.421,119965.428,8,400,,,
trial,html.Screen,4_1_0,2023-09-08T20:44:16.874Z,,0,1,,2432.6719999940397,response,ISIC_2603420.JPG,9,ISIC_0033323.JPG,ISIC_2603420.JPG,false,1,keypress(m),500,122398.39999997616,122398.09999999404,119935.666,119944.29999998212,119965.428,122420.999,8,400,2,,ISIC_0033323.JPG
break,html.Screen,4_1_1,2023-09-08T20:44:16.875Z,,0,,,NaN,,,,,,false,,,,122399,122398.79999998212,,122398.5,,122420.999,8,400,,,
break_continue,html.Screen,4_1_2,2023-09-08T20:44:16.875Z,,0,,,NaN,,,,,,false,,,,122399.39999997616,122399.29999998212,,122399.09999999404,,122420.999,8,400,,,
sequence,flow.Sequence,4_1,2023-09-08T20:44:16.875Z,,0,,,2433.8719999821187,completion,,,,,false,,,,122399.59999999404,122399.29999998212,119935.666,119944.29999998212,119965.428,122420.999,8,400,,,
trial,html.Screen,4_2_0,2023-09-08T20:44:20.354Z,,0,1,,3457.200999988083,response,ISIC_0030780.JPG,10,ISIC_7960321.JPG,ISIC_7960321.JPG,false,0,keypress(z),500,125878.39999997616,125878.19999998808,122388.838,122399.69999998808,122420.999,125901.008,8,400,3,,ISIC_0030780.JPG
break,html.Screen,4_2_1,2023-09-08T20:44:20.355Z,,0,,,NaN,,,,,,false,,,,125878.89999997616,125878.69999998808,,125878.5,,125901.008,8,400,,,
break_continue,html.Screen,4_2_2,2023-09-08T20:44:20.355Z,,0,,,NaN,,,,,,false,,,,125879.29999998212,125879.09999999404,,125879,,125901.008,8,400,,,
sequence,flow.Sequence,4_2,2023-09-08T20:44:20.355Z,,0,,,3458.1009999940434,completion,,,,,false,,,,125879.29999998212,125879.09999999404,122388.838,122399.59999999404,122420.999,125901.008,8,400,,,
trial,html.Screen,4_3_0,2023-09-08T20:44:23.298Z,,0,1,,2920.9919999999984,response,ISIC_0024294.JPG,10,ISIC_4730066.JPG,ISIC_0024294.JPG,false,1,keypress(m),500,128822.29999998212,128822,125871.028,125879.39999997616,125901.008,128845.1,8,400,4,,ISIC_4730066.JPG
break,html.Screen,4_3_1,2023-09-08T20:44:23.299Z,,0,,,NaN,,,,,,false,,,,128823.09999999404,128822.79999998212,,128822.5,,128845.1,8,400,,,
break_continue,html.Screen,4_3_2,2023-09-08T20:44:23.299Z,,0,,,NaN,,,,,,false,,,,128823.5,128823.29999998212,,128823.19999998808,,128845.1,8,400,,,
sequence,flow.Sequence,4_3,2023-09-08T20:44:23.300Z,,0,,,2922.291999982117,completion,,,,,false,,,,128823.79999998212,128823.29999998212,125871.028,125879.39999997616,125901.008,128845.1,8,400,,,
trial,html.Screen,4_4_0,2023-09-08T20:44:34.804Z,,0,1,,11520.47199999998,timeout,ISIC_0067443.JPG,10,ISIC_9002603.JPG,,false,,,500,140332.19999998808,140332,128808.815,128823.89999997616,128845.1,140365.572,8,400,5,,
break,html.Screen,4_4_1,2023-09-08T20:44:34.805Z,,0,,,NaN,,,,,,false,,,,140332.59999999404,140332.59999999404,,140332.39999997616,,140365.572,8,400,,,
break_continue,html.Screen,4_4_2,2023-09-08T20:44:34.805Z,,0,,,NaN,,,,,,false,,,,140333,140332.89999997616,,140332.79999998212,,140365.572,8,400,,,
sequence,flow.Sequence,4_4,2023-09-08T20:44:34.805Z,,0,,,11487.799999976152,completion,,,,,false,,,,140333.09999999404,140332.89999997616,128808.815,128823.89999997616,128845.1,140365.572,8,400,,,
trial,html.Screen,4_5_0,2023-09-08T20:44:39.623Z,,0,1,,4785.327999976173,response,ISIC_8206667.JPG,5,ISIC_0069292.JPG,ISIC_0069292.JPG,false,0,keypress(z),500,145151.09999999404,145150.89999997616,140348.725,140333.19999998808,140365.572,145173.908,8,400,6,,ISIC_8206667.JPG
break,html.Screen,4_5_1,2023-09-08T20:44:39.624Z,,0,,,NaN,,,,,,false,,,,145151.79999998212,145151.59999999404,,145151.29999998212,,145173.908,8,400,,,
break_continue,html.Screen,4_5_2,2023-09-08T20:44:39.624Z,,0,,,NaN,,,,,,false,,,,145152.19999998808,145152.09999999404,,145152,,145173.908,8,400,,,
sequence,flow.Sequence,4_5,2023-09-08T20:44:39.624Z,,0,,,4786.527999994054,completion,,,,,false,,,,145152.29999998212,145152.09999999404,140348.725,140333.09999999404,140365.572,145173.908,8,400,,,
trial,html.Screen,4_6_0,2023-09-08T20:44:42.663Z,,0,1,,3017.092000000004,response,ISIC_6098768.JPG,10,ISIC_0068993.JPG,ISIC_6098768.JPG,false,1,keypress(m),500,148191.09999999404,148191,145142.046,145152.5,145173.908,148213.785,8,400,7,,ISIC_0068993.JPG
break,html.Screen,4_6_1,2023-09-08T20:44:42.664Z,,0,,,NaN,,,,,,false,,,,148191.69999998808,148191.59999999404,,148191.19999998808,,148213.785,8,400,,,
break_continue,html.Screen,4_6_2,2023-09-08T20:44:42.664Z,,0,,,NaN,,,,,,false,,,,148192.09999999404,148192,,148191.79999998212,,148213.785,8,400,,,
sequence,flow.Sequence,4_6,2023-09-08T20:44:42.664Z,,0,,,3018.092000000004,completion,,,,,false,,,,148192.29999998212,148192,145142.046,145152.5,145173.908,148213.785,8,400,,,
trial,html.Screen,4_7_0,2023-09-08T20:44:47.183Z,,0,1,,4497.014999982115,response,ISIC_3919752.JPG,10,ISIC_0026360.JPG,ISIC_3919752.JPG,false,1,keypress(m),500,152711,152710.79999998212,148177.612,148192.39999997616,148213.785,152733.9,8,400,8,,ISIC_0026360.JPG
break,html.Screen,4_7_1,2023-09-08T20:44:47.184Z,,0,,,NaN,,,,,,false,,,,152712,152711.79999998212,,152711.19999998808,,152733.9,8,400,,,
break_continue,html.Screen,4_7_2,2023-09-08T20:44:47.184Z,,0,,,NaN,,,,,,false,,,,152712.29999998212,152712.19999998808,,152712.09999999404,,152733.9,8,400,,,
sequence,flow.Sequence,4_7,2023-09-08T20:44:47.184Z,,0,,,4498.414999988076,completion,,,,,false,,,,152712.39999997616,152712.19999998808,148177.612,148192.39999997616,148213.785,152733.9,8,400,,,
trial,html.Screen,4_8_0,2023-09-08T20:44:49.943Z,,0,1,,2736.799999988085,response,ISIC_6025721.JPG,10,ISIC_4136591.JPG,ISIC_4136591.JPG,false,0,keypress(z),500,155471,155470.69999998808,152702.923,152712.59999999404,152733.9,155493.802,8,400,9,,ISIC_6025721.JPG
break,html.Screen,4_8_1,2023-09-08T20:44:49.944Z,,0,,,NaN,,,,,,false,,,,155471.79999998212,155471.5,,155471.19999998808,,155493.802,8,400,,,
break_continue,html.Screen,4_8_2,2023-09-08T20:44:49.944Z,,0,,,NaN,,,,,,false,,,,155472.19999998808,155472.09999999404,,155472,,155493.802,8,400,,,
sequence,flow.Sequence,4_8,2023-09-08T20:44:49.944Z,,0,,,2738.1999999940454,completion,,,,,false,,,,155472.39999997616,155472.09999999404,152702.923,152712.59999999404,152733.9,155493.802,8,400,,,
trial,html.Screen,4_9_0,2023-09-08T20:44:52.463Z,,0,1,,2496.897999988083,response,ISIC_2487188.JPG,9,ISIC_0011039.JPG,ISIC_2487188.JPG,false,1,keypress(m),500,157990.89999997616,157990.69999998808,155463.057,155472.39999997616,155493.802,158013.595,8,400,10,,ISIC_0011039.JPG
break,html.Screen,4_9_1,2023-09-08T20:44:52.464Z,,0,,,NaN,,,,,,false,,,,157991.59999999404,157991.19999998808,,157991,,158013.595,8,400,,,
break_continue,html.Screen,4_9_2,2023-09-08T20:44:52.464Z,,0,,,NaN,,,,,,false,,,,157991.89999997616,157991.79999998212,,157991.69999998808,,158013.595,8,400,,,
sequence,flow.Sequence,4_9,2023-09-08T20:44:52.464Z,,0,,,2497.9979999821226,completion,,,,,false,,,,157992.09999999404,157991.79999998212,155463.057,155472.39999997616,155493.802,158013.595,8,400,,,
trial,html.Screen,4_10_0,2023-09-08T20:44:58.071Z,,0,1,,5585.104999988078,response,ISIC_0009913.JPG,10,ISIC_4847584.JPG,ISIC_4847584.JPG,false,0,keypress(z),500,163598.79999998212,163598.69999998808,157979.29,157992.29999998212,158013.595,163605.009,8,400,11,,ISIC_0009913.JPG
break,html.Screen,4_10_1,2023-09-08T20:44:58.072Z,,0,,,NaN,,,,,,false,,,,163599.5,163599.39999997616,,163599,,163605.009,8,400,,,
break_continue,html.Screen,4_10_2,2023-09-08T20:44:58.072Z,,0,,,NaN,,,,,,false,,,,163599.89999997616,163599.79999998212,,163599.59999999404,,163605.009,8,400,,,
sequence,flow.Sequence,4_10,2023-09-08T20:44:58.072Z,,0,,,5586.204999982117,completion,,,,,false,,,,163600,163599.79999998212,157979.29,157992.19999998808,158013.595,163605.009,8,400,,,
trial,html.Screen,4_11_0,2023-09-08T20:45:00.991Z,,0,1,,2913.390999976167,response,ISIC_0062734.JPG,9,ISIC_0047031.JPG,ISIC_0047031.JPG,false,0,keypress(z),500,166518.59999999404,166518.39999997616,163588.203,163600.19999998808,163605.009,166533.016,8,400,12,,ISIC_0062734.JPG
break,html.Screen,4_11_1,2023-09-08T20:45:00.991Z,,0,,,NaN,,,,,,false,,,,166519.19999998808,166519.09999999404,,166518.79999998212,,166533.016,8,400,,,
break_continue,html.Screen,4_11_2,2023-09-08T20:45:00.992Z,,0,,,NaN,,,,,,false,,,,166519.59999999404,166519.5,,166519.39999997616,,166533.016,8,400,,,
sequence,flow.Sequence,4_11,2023-09-08T20:45:00.992Z,,0,,,2914.491000000009,completion,,,,,false,,,,166519.59999999404,166519.5,163588.203,163600.19999998808,163605.009,166533.016,8,400,,,
trial,html.Screen,4_12_0,2023-09-08T20:45:03.527Z,,0,1,,2521.7839999821153,response,ISIC_4107250.JPG,11,ISIC_0011032.JPG,ISIC_4107250.JPG,false,1,keypress(m),500,169055.09999999404,169054.79999998212,166512.043,166519.79999998212,166533.016,169077.851,8,400,13,,ISIC_0011032.JPG
break,html.Screen,4_12_1,2023-09-08T20:45:03.528Z,,0,,,NaN,,,,,,false,,,,169055.79999998212,169055.59999999404,,169055.19999998808,,169077.851,8,400,,,
break_continue,html.Screen,4_12_2,2023-09-08T20:45:03.528Z,,0,,,NaN,,,,,,false,,,,169056.09999999404,169056,,169055.89999997616,,169077.851,8,400,,,
sequence,flow.Sequence,4_12,2023-09-08T20:45:03.528Z,,0,,,2522.9839999999967,completion,,,,,false,,,,169056.29999998212,169056,166512.043,166519.69999998808,166533.016,169077.851,8,400,,,
trial,html.Screen,4_13_0,2023-09-08T20:45:06.815Z,,0,1,,3264.9489999821235,response,ISIC_9121369.JPG,10,ISIC_0058607.JPG,ISIC_0058607.JPG,false,0,keypress(z),500,172343,172342.79999998212,169051.117,169056.5,169077.851,172365.811,8,400,14,,ISIC_9121369.JPG
break,html.Screen,4_13_1,2023-09-08T20:45:06.816Z,,0,,,NaN,,,,,,false,,,,172343.69999998808,172343.5,,172343.19999998808,,172365.811,8,400,,,
break_continue,html.Screen,4_13_2,2023-09-08T20:45:06.816Z,,0,,,NaN,,,,,,false,,,,172344.19999998808,172344,,172343.89999997616,,172365.811,8,400,,,
sequence,flow.Sequence,4_13,2023-09-08T20:45:06.816Z,,0,,,3266.149000000005,completion,,,,,false,,,,172344.39999997616,172344,169051.117,169056.39999997616,169077.851,172365.811,8,400,,,
trial,html.Screen,4_14_0,2023-09-08T20:45:09.639Z,,0,1,,2800.9889999821316,response,ISIC_0014657.JPG,10,ISIC_5555700.JPG,ISIC_0014657.JPG,false,1,keypress(m),500,175166.89999997616,175166.79999998212,172329.675,172344.59999999404,172365.811,175189.705,8,400,15,,ISIC_5555700.JPG
break,html.Screen,4_14_1,2023-09-08T20:45:09.640Z,,0,,,NaN,,,,,,false,,,,175167.79999998212,175167.59999999404,,175167.09999999404,,175189.705,8,400,,,
break_continue,html.Screen,4_14_2,2023-09-08T20:45:09.640Z,,0,,,NaN,,,,,,false,,,,175168.29999998212,175168.19999998808,,175168,,175189.705,8,400,,,
sequence,flow.Sequence,4_14,2023-09-08T20:45:09.640Z,,0,,,2802.388999988092,completion,,,,,false,,,,175168.5,175168.19999998808,172329.675,172344.5,172365.811,175189.705,8,400,,,
trial,html.Screen,4_15_0,2023-09-08T20:45:12.175Z,,0,1,,2512.795000000013,response,ISIC_9745492.JPG,9,ISIC_8389361.JPG,ISIC_8389361.JPG,false,0,keypress(z),500,177702.59999999404,177702.5,175157.775,175168.69999998808,175189.705,177725.443,8,400,16,,ISIC_9745492.JPG
break,html.Screen,4_15_1,2023-09-08T20:45:12.175Z,,0,,,NaN,,,,,,false,,,,177703.29999998212,177703,,177702.79999998212,,177725.443,8,400,,,
break_continue,html.Screen,4_15_2,2023-09-08T20:45:12.176Z,,0,,,NaN,,,,,,false,,,,177703.59999999404,177703.5,,177703.39999997616,,177725.443,8,400,,,
sequence,flow.Sequence,4_15,2023-09-08T20:45:12.176Z,,0,,,2513.795000000013,completion,,,,,false,,,,177703.69999998808,177703.5,175157.775,175168.59999999404,175189.705,177725.443,8,400,,,
trial,html.Screen,4_16_0,2023-09-08T20:45:18.599Z,,0,1,,6401.25699998808,response,ISIC_0011097.JPG,10,ISIC_0024694.JPG,ISIC_0024694.JPG,false,0,keypress(z),500,184126.89999997616,184126.69999998808,177703.012,177703.79999998212,177725.443,184133.492,8,400,17,,ISIC_0011097.JPG
break,html.Screen,4_16_1,2023-09-08T20:45:18.600Z,,0,,,NaN,,,,,,false,,,,184127.59999999404,184127.39999997616,,184127.09999999404,,184133.492,8,400,,,
break_continue,html.Screen,4_16_2,2023-09-08T20:45:18.600Z,,0,,,NaN,,,,,,false,,,,184127.89999997616,184127.79999998212,,184127.59999999404,,184133.492,8,400,,,
sequence,flow.Sequence,4_16,2023-09-08T20:45:18.600Z,,0,,,6402.356999982119,completion,,,,,false,,,,184128.09999999404,184127.79999998212,177703.012,177703.79999998212,177725.443,184133.492,8,400,,,
trial,html.Screen,4_17_0,2023-09-08T20:45:24.111Z,,0,1,,5505.508000000002,response,ISIC_0031203.JPG,10,ISIC_0030575.JPG,ISIC_0031203.JPG,false,1,keypress(m),500,189639.19999998808,189639,184123.38,184128.19999998808,184133.492,189661.886,8,400,18,,ISIC_0030575.JPG
break,html.Screen,4_17_1,2023-09-08T20:45:24.112Z,,0,,,NaN,,,,,,false,,,,189639.69999998808,189639.5,,189639.29999998212,,189661.886,8,400,,,
break_continue,html.Screen,4_17_2,2023-09-08T20:45:24.112Z,,0,,,NaN,,,,,,false,,,,189640,189639.89999997616,,189639.79999998212,,189661.886,8,400,,,
sequence,flow.Sequence,4_17,2023-09-08T20:45:24.112Z,,0,,,5506.40799997616,completion,,,,,false,,,,189640.09999999404,189639.89999997616,184123.38,184128.19999998808,184133.492,189661.886,8,400,,,
trial,html.Screen,4_18_0,2023-09-08T20:45:28.015Z,,0,1,,3881.1140000000014,response,ISIC_1509635.JPG,10,ISIC_0027951.JPG,ISIC_0027951.JPG,false,0,keypress(z),500,193543.19999998808,193543,189636.057,189640.19999998808,189661.886,193565.819,8,400,19,,ISIC_1509635.JPG
break,html.Screen,4_18_1,2023-09-08T20:45:28.016Z,,0,,,NaN,,,,,,false,,,,193543.79999998212,193543.5,,193543.19999998808,,193565.819,8,400,,,
break_continue,html.Screen,4_18_2,2023-09-08T20:45:28.016Z,,0,,,NaN,,,,,,false,,,,193544.09999999404,193543.89999997616,,193543.89999997616,,193565.819,8,400,,,
sequence,flow.Sequence,4_18,2023-09-08T20:45:28.016Z,,0,,,3882.0139999761595,completion,,,,,false,,,,193544.29999998212,193543.89999997616,189636.057,189640.09999999404,189661.886,193565.819,8,400,,,
trial,html.Screen,4_19_0,2023-09-08T20:45:34.283Z,,0,1,,6240.681000000011,response,ISIC_6155981.JPG,10,ISIC_4780727.JPG,ISIC_4780727.JPG,false,0,keypress(z),500,199806.79999998212,199806.5,193529.796,193544.39999997616,193565.819,199813.921,8,400,20,,ISIC_6155981.JPG
break,html.Screen,4_19_1,2023-09-08T20:45:34.284Z,,0,,,NaN,,,,,,false,,,,199807.69999998808,199807.5,,199807,,199813.921,8,400,,,
break_continue,html.Screen,4_19_2,2023-09-08T20:45:34.284Z,,0,,,NaN,,,,,,false,,,,199808.09999999404,199808,,199807.89999997616,,199813.921,8,400,,,
sequence,flow.Sequence,4_19,2023-09-08T20:45:34.284Z,,0,,,6242.181000000011,completion,,,,,false,,,,199808.39999997616,199808,193529.796,193544.39999997616,193565.819,199813.921,8,400,,,
trial,html.Screen,4_20_0,2023-09-08T20:45:38.015Z,,0,1,,3725.278999988077,response,ISIC_0057028.JPG,9,ISIC_2597678.JPG,ISIC_0057028.JPG,false,1,keypress(m),500,203539.29999998212,203539.19999998808,199797.059,199808.59999999404,199813.921,203572.468,8,400,21,,ISIC_2597678.JPG
break,html.Screen,4_20_1,2023-09-08T20:45:38.016Z,,0,,,NaN,,,,,,false,,,,203539.89999997616,203539.89999997616,,203539.59999999404,,203572.468,8,400,,,
break_continue,html.Screen,4_20_2,2023-09-08T20:45:38.016Z,,0,,,NaN,,,,,,false,,,,203540.29999998212,203540.19999998808,,203540.09999999404,,203572.468,8,400,,,
sequence,flow.Sequence,4_20,2023-09-08T20:45:38.016Z,,0,,,3726.278999988077,completion,,,,,false,,,,203540.5,203540.19999998808,199797.059,199808.5,199813.921,203572.468,8,400,,,
trial,html.Screen,4_21_0,2023-09-08T20:45:43.331Z,,0,1,,5282.0320000000065,response,ISIC_8725878.JPG,13,ISIC_5993356.JPG,ISIC_8725878.JPG,false,1,keypress(m),500,208854.69999998808,208854.5,203555.624,203540.59999999404,203572.468,208877.47,8,400,22,,ISIC_5993356.JPG
break,html.Screen,4_21_1,2023-09-08T20:45:43.331Z,,0,,,NaN,,,,,,false,,,,208855.29999998212,208855.09999999404,,208854.79999998212,,208877.47,8,400,,,
break_continue,html.Screen,4_21_2,2023-09-08T20:45:43.332Z,,0,,,NaN,,,,,,false,,,,208855.69999998808,208855.59999999404,,208855.5,,208877.47,8,400,,,
sequence,flow.Sequence,4_21,2023-09-08T20:45:43.332Z,,0,,,5283.131999994046,completion,,,,,false,,,,208855.79999998212,208855.59999999404,203555.624,203540.59999999404,203572.468,208877.47,8,400,,,
trial,html.Screen,4_22_0,2023-09-08T20:45:48.138Z,,0,1,,4784.729999988078,response,ISIC_9720044.JPG,10,ISIC_0054284.JPG,ISIC_9720044.JPG,false,1,keypress(m),500,213662.39999997616,213662.19999998808,208842.934,208856,208877.47,213664.423,8,400,23,,ISIC_0054284.JPG
break,html.Screen,4_22_1,2023-09-08T20:45:48.139Z,,0,,,NaN,,,,,,false,,,,213663.19999998808,213662.89999997616,,213662.59999999404,,213664.423,8,400,,,
break_continue,html.Screen,4_22_2,2023-09-08T20:45:48.139Z,,0,,,NaN,,,,,,false,,,,213663.59999999404,213663.5,,213663.29999998212,,213664.423,8,400,,,
sequence,flow.Sequence,4_22,2023-09-08T20:45:48.140Z,,0,,,4786.029999999999,completion,,,,,false,,,,213663.79999998212,213663.5,208842.934,208855.89999997616,208877.47,213664.423,8,400,,,
trial,html.Screen,4_23_0,2023-09-08T20:45:57.042Z,,0,1,,8901.476999976148,response,ISIC_0046597.JPG,9,ISIC_1102075.JPG,ISIC_0046597.JPG,false,1,keypress(m),500,222566.19999998808,222565.89999997616,213647.565,213664,213664.423,222589.035,8,400,24,,ISIC_1102075.JPG
break,html.Screen,4_23_1,2023-09-08T20:45:57.043Z,,0,,,NaN,,,,,,false,,,,222567.09999999404,222566.89999997616,,222566.39999997616,,222589.035,8,400,,,
break_continue,html.Screen,4_23_2,2023-09-08T20:45:57.043Z,,0,,,NaN,,,,,,false,,,,222567.59999999404,222567.5,,222567.29999998212,,222589.035,8,400,,,
sequence,flow.Sequence,4_23,2023-09-08T20:45:57.044Z,,0,,,8903.07699999999,completion,,,,,false,,,,222567.89999997616,222567.5,213647.565,213664,213664.423,222589.035,8,400,,,
trial,html.Screen,4_24_0,2023-09-08T20:46:01.930Z,,0,1,,4865.064999994036,response,ISIC_7938688.JPG,9,ISIC_7466175.JPG,ISIC_7466175.JPG,false,0,keypress(z),500,227454.29999998212,227454.09999999404,222557.205,222568,222589.035,227477.085,8,400,25,,ISIC_7938688.JPG
break,html.Screen,4_24_1,2023-09-08T20:46:01.931Z,,0,,,NaN,,,,,,false,,,,227455,227454.69999998808,,227454.5,,227477.085,8,400,,,
break_continue,html.Screen,4_24_2,2023-09-08T20:46:01.931Z,,0,,,NaN,,,,,,false,,,,227455.39999997616,227455.19999998808,,227455.09999999404,,227477.085,8,400,,,
sequence,flow.Sequence,4_24,2023-09-08T20:46:01.931Z,,0,,,4866.164999988076,completion,,,,,false,,,,227455.5,227455.19999998808,222557.205,222568,222589.035,227477.085,8,400,,,
trial,html.Screen,4_25_0,2023-09-08T20:46:13.440Z,,0,1,,11519.736000000004,timeout,ISIC_2015441.JPG,10,ISIC_4900077.JPG,,false,,,500,238963.69999998808,238963.5,227444.145,227455.69999998808,227477.085,238996.821,8,400,26,,
break,html.Screen,4_25_1,2023-09-08T20:46:13.440Z,,0,,,NaN,,,,,,false,,,,238964.39999997616,238964.19999998808,,238963.89999997616,,238996.821,8,400,,,
break_continue,html.Screen,4_25_2,2023-09-08T20:46:13.441Z,,0,,,NaN,,,,,,false,,,,238964.79999998212,238964.69999998808,,238964.59999999404,,238996.821,8,400,,,
sequence,flow.Sequence,4_25,2023-09-08T20:46:13.441Z,,0,,,11487.614999988087,completion,,,,,false,,,,238965,238964.69999998808,227444.145,227455.69999998808,227477.085,238996.821,8,400,,,
trial,html.Screen,4_26_0,2023-09-08T20:46:17.659Z,,0,1,,4185.679000000004,response,ISIC_0069361.JPG,12,ISIC_0071778.JPG,ISIC_0071778.JPG,false,0,keypress(z),500,243182.69999998808,243182.5,238980.101,238965.09999999404,238996.821,243205.599,8,400,27,,ISIC_0069361.JPG
break,html.Screen,4_26_1,2023-09-08T20:46:17.659Z,,0,,,NaN,,,,,,false,,,,243183.5,243183.29999998212,,243182.89999997616,,243205.599,8,400,,,
break_continue,html.Screen,4_26_2,2023-09-08T20:46:17.660Z,,0,,,NaN,,,,,,false,,,,243183.69999998808,243183.59999999404,,243183.59999999404,,243205.599,8,400,,,
sequence,flow.Sequence,4_26,2023-09-08T20:46:17.660Z,,0,,,4186.778999994043,completion,,,,,false,,,,243183.89999997616,243183.59999999404,238980.101,238965.09999999404,238996.821,243205.599,8,400,,,
trial,html.Screen,4_27_0,2023-09-08T20:46:21.203Z,,0,1,,3521.4010000000126,response,ISIC_0027130.JPG,10,ISIC_1104374.JPG,ISIC_0027130.JPG,false,1,keypress(m),500,246727.19999998808,246727,243177.173,243184,243205.599,246750.044,8,400,28,,ISIC_1104374.JPG
break,html.Screen,4_27_1,2023-09-08T20:46:21.204Z,,0,,,NaN,,,,,,false,,,,246728.19999998808,246728,,246727.29999998212,,246750.044,8,400,,,
break_continue,html.Screen,4_27_2,2023-09-08T20:46:21.204Z,,0,,,NaN,,,,,,false,,,,246728.69999998808,246728.5,,246728.29999998212,,246750.044,8,400,,,
sequence,flow.Sequence,4_27,2023-09-08T20:46:21.205Z,,0,,,3522.9010000000126,completion,,,,,false,,,,246728.79999998212,246728.5,243177.173,243183.89999997616,243205.599,246750.044,8,400,,,
trial,html.Screen,4_28_0,2023-09-08T20:46:23.547Z,,0,1,,2320.6559999880847,response,ISIC_0033104.JPG,10,ISIC_0174983.JPG,ISIC_0033104.JPG,false,1,keypress(m),500,249071,249070.69999998808,246711.907,246729,246750.044,249094.632,8,400,29,,ISIC_0174983.JPG
break,html.Screen,4_28_1,2023-09-08T20:46:23.547Z,,0,,,NaN,,,,,,false,,,,249071.69999998808,249071.39999997616,,249071.09999999404,,249094.632,8,400,,,
break_continue,html.Screen,4_28_2,2023-09-08T20:46:23.548Z,,0,,,NaN,,,,,,false,,,,249072,249071.89999997616,,249071.79999998212,,249094.632,8,400,,,
sequence,flow.Sequence,4_28,2023-09-08T20:46:23.548Z,,0,,,2321.8559999761637,completion,,,,,false,,,,249072.19999998808,249071.89999997616,246711.907,246729,246750.044,249094.632,8,400,,,
trial,html.Screen,4_29_0,2023-09-08T20:46:26.490Z,,0,1,,2919.8679999999877,response,ISIC_5569091.JPG,9,ISIC_0029363.JPG,ISIC_0029363.JPG,false,0,keypress(z),500,252014.69999998808,252014.5,249055.415,249072.29999998212,249094.632,252037.421,8,400,30,,ISIC_5569091.JPG
break,html.Screen,4_29_1,2023-09-08T20:46:26.491Z,,0,,,NaN,,,,,,false,,,,252015.29999998212,252015.09999999404,,252014.89999997616,,252037.421,8,400,,,
break_continue,html.Screen,4_29_2,2023-09-08T20:46:26.491Z,,0,,,NaN,,,,,,false,,,,252015.5,252015.39999997616,,252015.29999998212,,252037.421,8,400,,,
sequence,flow.Sequence,4_29,2023-09-08T20:46:26.491Z,,0,,,2920.767999976146,completion,,,,,false,,,,252015.59999999404,252015.39999997616,249055.415,249072.29999998212,249094.632,252037.421,8,400,,,
trial,html.Screen,4_30_0,2023-09-08T20:46:29.107Z,,0,1,,2593.078999999998,response,ISIC_3009493.JPG,10,ISIC_7152347.JPG,ISIC_3009493.JPG,false,1,keypress(m),500,254630.79999998212,254630.5,252001.353,252015.69999998808,252037.421,254653.543,8,400,31,,ISIC_7152347.JPG
break,html.Screen,4_30_1,2023-09-08T20:46:29.107Z,,0,,,NaN,,,,,,false,,,,254631.39999997616,254631.19999998808,,254630.89999997616,,254653.543,8,400,,,
break_continue,html.Screen,4_30_2,2023-09-08T20:46:29.108Z,,0,,,NaN,,,,,,false,,,,254631.79999998212,254631.69999998808,,254631.59999999404,,254653.543,8,400,,,
sequence,flow.Sequence,4_30,2023-09-08T20:46:29.108Z,,0,,,2594.278999988077,completion,,,,,false,,,,254632,254631.69999998808,252001.353,252015.69999998808,252037.421,254653.543,8,400,,,
trial,html.Screen,4_31_0,2023-09-08T20:46:31.811Z,,0,1,,2681.0569999940344,response,ISIC_0032424.JPG,10,ISIC_0027817.JPG,ISIC_0032424.JPG,false,1,keypress(m),500,257334.79999998212,257334.59999999404,254622.171,254632.09999999404,254653.543,257357.43,8,400,32,,ISIC_0027817.JPG
break,html.Screen,4_31_1,2023-09-08T20:46:31.811Z,,0,,,NaN,,,,,,false,,,,257335.29999998212,257335.09999999404,,257334.89999997616,,257357.43,8,400,,,
break_continue,html.Screen,4_31_2,2023-09-08T20:46:31.811Z,,0,,,NaN,,,,,,false,,,,257335.59999999404,257335.5,,257335.39999997616,,257357.43,8,400,,,
sequence,flow.Sequence,4_31,2023-09-08T20:46:31.811Z,,0,,,2681.956999999995,completion,,,,,false,,,,257335.59999999404,257335.5,254622.171,254632.09999999404,254653.543,257357.43,8,400,,,
trial,html.Screen,4_32_0,2023-09-08T20:46:34.394Z,,0,1,,2560.8699999821256,response,ISIC_4796100.JPG,10,ISIC_7413786.JPG,ISIC_4796100.JPG,false,1,keypress(m),500,259918.5,259918.29999998212,257320.447,257335.79999998212,257357.43,259941.179,8,400,33,,ISIC_7413786.JPG
break,html.Screen,4_32_1,2023-09-08T20:46:34.395Z,,0,,,NaN,,,,,,false,,,,259919.09999999404,259918.89999997616,,259918.59999999404,,259941.179,8,400,,,
break_continue,html.Screen,4_32_2,2023-09-08T20:46:34.395Z,,0,,,NaN,,,,,,false,,,,259919.29999998212,259919.19999998808,,259919.09999999404,,259941.179,8,400,,,
sequence,flow.Sequence,4_32,2023-09-08T20:46:34.395Z,,0,,,2561.769999988086,completion,,,,,false,,,,259919.5,259919.19999998808,257320.447,257335.79999998212,257357.43,259941.179,8,400,,,
trial,html.Screen,4_33_0,2023-09-08T20:46:37.170Z,,0,1,,2753.0209999880753,response,ISIC_4350093.JPG,10,ISIC_0014694.JPG,ISIC_0014694.JPG,false,0,keypress(z),500,262694.1999999881,262694.1999999881,259918.113,259919.5,259941.179,262716.967,8,400,34,,ISIC_4350093.JPG
break,html.Screen,4_33_1,2023-09-08T20:46:37.171Z,,0,,,NaN,,,,,,false,,,,262694.89999997616,262694.6999999881,,262694.39999997616,,262716.967,8,400,,,
break_continue,html.Screen,4_33_2,2023-09-08T20:46:37.171Z,,0,,,NaN,,,,,,false,,,,262695.2999999821,262695.1999999881,,262695.09999999404,,262716.967,8,400,,,
sequence,flow.Sequence,4_33,2023-09-08T20:46:37.171Z,,0,,,2754.0209999880753,completion,,,,,false,,,,262695.39999997616,262695.1999999881,259918.113,259919.5,259941.179,262716.967,8,400,,,
trial,html.Screen,4_34_0,2023-09-08T20:46:39.898Z,,0,1,,2704.932999976154,response,ISIC_0026882.JPG,10,ISIC_0046693.JPG,ISIC_0026882.JPG,false,1,keypress(m),500,265422,265421.89999997616,262692.133,262695.5,262716.967,265444.674,8,400,35,,ISIC_0046693.JPG
break,html.Screen,4_34_1,2023-09-08T20:46:39.898Z,,0,,,NaN,,,,,,false,,,,265422.5,265422.39999997616,,265422.09999999404,,265444.674,8,400,,,
break_continue,html.Screen,4_34_2,2023-09-08T20:46:39.899Z,,0,,,NaN,,,,,,false,,,,265422.7999999821,265422.6999999881,,265422.59999999404,,265444.674,8,400,,,
sequence,flow.Sequence,4_34,2023-09-08T20:46:39.899Z,,0,,,2705.732999988075,completion,,,,,false,,,,265422.89999997616,265422.6999999881,262692.133,262695.39999997616,262716.967,265444.674,8,400,,,
trial,html.Screen,4_35_0,2023-09-08T20:46:42.834Z,,0,1,,2912.9259999940405,response,ISIC_3941123.JPG,11,ISIC_0066674.JPG,ISIC_3941123.JPG,false,1,keypress(m),500,268357.6999999881,268357.59999999404,265421.013,265422.89999997616,265444.674,268380.411,8,400,36,,ISIC_0066674.JPG
break,html.Screen,4_35_1,2023-09-08T20:46:42.834Z,,0,,,NaN,,,,,,false,,,,268358.2999999821,268358,,268357.89999997616,,268380.411,8,400,,,
break_continue,html.Screen,4_35_2,2023-09-08T20:46:42.834Z,,0,,,NaN,,,,,,false,,,,268358.5,268358.39999997616,,268358.39999997616,,268380.411,8,400,,,
sequence,flow.Sequence,4_35,2023-09-08T20:46:42.834Z,,0,,,2913.725999976159,completion,,,,,false,,,,268358.6999999881,268358.39999997616,265421.013,265422.89999997616,265444.674,268380.411,8,400,,,
trial,html.Screen,4_36_0,2023-09-08T20:46:45.337Z,,0,1,,2480.9889999761363,response,ISIC_6628544.JPG,4,ISIC_0678758.JPG,ISIC_0678758.JPG,false,0,keypress(z),500,270861.5,270861.39999997616,268343.626,268358.7999999821,268380.411,270884.354,8,400,37,,ISIC_6628544.JPG
break,html.Screen,4_36_1,2023-09-08T20:46:45.338Z,,0,,,NaN,,,,,,false,,,,270862.2999999821,270862,,270861.7999999821,,270884.354,8,400,,,
break_continue,html.Screen,4_36_2,2023-09-08T20:46:45.338Z,,0,,,NaN,,,,,,false,,,,270862.5,270862.39999997616,,270862.2999999821,,270884.354,8,400,,,
sequence,flow.Sequence,4_36,2023-09-08T20:46:45.338Z,,0,,,2481.9889999761363,completion,,,,,false,,,,270862.59999999404,270862.39999997616,268343.626,268358.6999999881,268380.411,270884.354,8,400,,,
trial,html.Screen,4_37_0,2023-09-08T20:46:47.761Z,,0,1,,2400.845999988087,response,ISIC_0032420.JPG,10,ISIC_4536709.JPG,ISIC_0032420.JPG,false,1,keypress(m),500,273285.2999999821,273285.1999999881,270858.37,270862.6999999881,270884.354,273307.957,8,400,38,,ISIC_4536709.JPG
break,html.Screen,4_37_1,2023-09-08T20:46:47.762Z,,0,,,NaN,,,,,,false,,,,273285.7999999821,273285.7999999821,,273285.5,,273307.957,8,400,,,
break_continue,html.Screen,4_37_2,2023-09-08T20:46:47.762Z,,0,,,NaN,,,,,,false,,,,273286.2999999821,273286.1999999881,,273286,,273307.957,8,400,,,
sequence,flow.Sequence,4_37,2023-09-08T20:46:47.762Z,,0,,,2401.845999988087,completion,,,,,false,,,,273286.39999997616,273286.1999999881,270858.37,270862.6999999881,270884.354,273307.957,8,400,,,
trial,html.Screen,4_38_0,2023-09-08T20:46:50.169Z,,0,1,,2384.9429999761633,response,ISIC_0065469.JPG,10,ISIC_1920685.JPG,ISIC_0065469.JPG,false,1,keypress(m),500,275693.09999999404,275692.89999997616,273271.376,273286.39999997616,273307.957,275715.767,8,400,39,,ISIC_1920685.JPG
break,html.Screen,4_38_1,2023-09-08T20:46:50.170Z,,0,,,NaN,,,,,,false,,,,275693.6999999881,275693.5,,275693.1999999881,,275715.767,8,400,,,
break_continue,html.Screen,4_38_2,2023-09-08T20:46:50.170Z,,0,,,NaN,,,,,,false,,,,275694,275693.7999999821,,275693.7999999821,,275715.767,8,400,,,
sequence,flow.Sequence,4_38,2023-09-08T20:46:50.170Z,,0,,,2385.8429999821237,completion,,,,,false,,,,275694,275693.7999999821,273271.376,273286.39999997616,273307.957,275715.767,8,400,,,
trial,html.Screen,4_39_0,2023-09-08T20:46:53.265Z,,0,1,,3072.9329999880865,response,ISIC_0010421.JPG,11,ISIC_7266462.JPG,ISIC_7266462.JPG,false,0,keypress(z),500,278788.7999999821,278788.6999999881,275683.853,275694.09999999404,275715.767,278811.62,8,400,40,,ISIC_0010421.JPG
break,html.Screen,4_39_1,2023-09-08T20:46:53.265Z,,0,,,NaN,,,,,,false,,,,278789.59999999404,278789.2999999821,,278789,,278811.62,8,400,,,
break_continue,html.Screen,4_39_2,2023-09-08T20:46:53.266Z,,0,,,NaN,,,,,,false,,,,278789.89999997616,278789.7999999821,,278789.6999999881,,278811.62,8,400,,,
sequence,flow.Sequence,4_39,2023-09-08T20:46:53.266Z,,0,,,3074.032999982126,completion,,,,,false,,,,278790.09999999404,278789.7999999821,275683.853,275694.09999999404,275715.767,278811.62,8,400,,,
trial,html.Screen,4_40_0,2023-09-08T20:46:56.608Z,,0,1,,3320.6799999821233,response,ISIC_0011987.JPG,9,ISIC_8560106.JPG,ISIC_8560106.JPG,false,0,keypress(z),500,282132.5,282132.2999999821,278774.037,278790.1999999881,278811.62,282155.164,8,400,41,,ISIC_0011987.JPG
break,html.Screen,4_40_1,2023-09-08T20:46:56.609Z,,0,,,NaN,,,,,,false,,,,282133,282132.89999997616,,282132.59999999404,,282155.164,8,400,,,
break_continue,html.Screen,4_40_2,2023-09-08T20:46:56.609Z,,0,,,NaN,,,,,,false,,,,282133.2999999821,282133.1999999881,,282133.09999999404,,282155.164,8,400,,,
sequence,flow.Sequence,4_40,2023-09-08T20:46:56.609Z,,0,,,3321.5799999880837,completion,,,,,false,,,,282133.39999997616,282133.1999999881,278774.037,278790.09999999404,278811.62,282155.164,8,400,,,
trial,html.Screen,4_41_0,2023-09-08T20:46:59.136Z,,0,1,,2504.93599999405,response,ISIC_0027480.JPG,10,ISIC_4945233.JPG,ISIC_0027480.JPG,false,1,keypress(m),500,284660.1999999881,284660.09999999404,282120.664,282133.5,282155.164,284682.893,8,400,42,,ISIC_4945233.JPG
break,html.Screen,4_41_1,2023-09-08T20:46:59.137Z,,0,,,NaN,,,,,,false,,,,284660.7999999821,284660.59999999404,,284660.39999997616,,284682.893,8,400,,,
break_continue,html.Screen,4_41_2,2023-09-08T20:46:59.137Z,,0,,,NaN,,,,,,false,,,,284661.09999999404,284661,,284660.89999997616,,284682.893,8,400,,,
sequence,flow.Sequence,4_41,2023-09-08T20:46:59.137Z,,0,,,2505.8360000000102,completion,,,,,false,,,,284661.1999999881,284661,282120.664,282133.5,282155.164,284682.893,8,400,,,
trial,html.Screen,4_42_0,2023-09-08T20:47:01.552Z,,0,1,,2393.4069999821368,response,ISIC_0056793.JPG,11,ISIC_5420979.JPG,ISIC_5420979.JPG,false,0,keypress(z),500,287076.39999997616,287076.2999999821,284647.315,284661.1999999881,284682.893,287099.113,8,400,43,,ISIC_0056793.JPG
break,html.Screen,4_42_1,2023-09-08T20:47:01.553Z,,0,,,NaN,,,,,,false,,,,287077.09999999404,287076.89999997616,,287076.59999999404,,287099.113,8,400,,,
break_continue,html.Screen,4_42_2,2023-09-08T20:47:01.553Z,,0,,,NaN,,,,,,false,,,,287077.39999997616,287077.2999999821,,287077.1999999881,,287099.113,8,400,,,
sequence,flow.Sequence,4_42,2023-09-08T20:47:01.553Z,,0,,,2394.4069999821368,completion,,,,,false,,,,287077.5,287077.2999999821,284647.315,284661.1999999881,284682.893,287099.113,8,400,,,
trial,html.Screen,4_43_0,2023-09-08T20:47:04.024Z,,0,1,,2449.1869999821065,response,ISIC_9364740.JPG,10,ISIC_3566243.JPG,ISIC_9364740.JPG,false,1,keypress(m),500,289548.39999997616,289548.2999999821,287072.03,287077.6999999881,287099.113,289571.064,8,400,44,,ISIC_3566243.JPG
break,html.Screen,4_43_1,2023-09-08T20:47:04.025Z,,0,,,NaN,,,,,,false,,,,289548.89999997616,289548.6999999881,,289548.5,,289571.064,8,400,,,
break_continue,html.Screen,4_43_2,2023-09-08T20:47:04.025Z,,0,,,NaN,,,,,,false,,,,289549.1999999881,289549.09999999404,,289549.09999999404,,289571.064,8,400,,,
sequence,flow.Sequence,4_43,2023-09-08T20:47:04.025Z,,0,,,2449.9869999940274,completion,,,,,false,,,,289549.2999999821,289549.09999999404,287072.03,287077.6999999881,287099.113,289571.064,8,400,,,
trial,html.Screen,4_44_0,2023-09-08T20:47:06.622Z,,0,1,,2574.7359999821056,response,ISIC_0059948.JPG,10,ISIC_3343475.JPG,ISIC_0059948.JPG,false,1,keypress(m),500,292146,292145.7999999821,289541.756,289549.39999997616,289571.064,292179.119,8,400,45,,ISIC_3343475.JPG
break,html.Screen,4_44_1,2023-09-08T20:47:06.622Z,,0,,,NaN,,,,,,false,,,,292146.59999999404,292146.5,,292146.1999999881,,292179.119,8,400,,,
break_continue,html.Screen,4_44_2,2023-09-08T20:47:06.623Z,,0,,,NaN,,,,,,false,,,,292146.89999997616,292146.7999999821,,292146.6999999881,,292179.119,8,400,,,
sequence,flow.Sequence,4_44,2023-09-08T20:47:06.623Z,,0,,,2575.7359999821056,completion,,,,,false,,,,292147.09999999404,292146.7999999821,289541.756,289549.39999997616,289571.064,292179.119,8,400,,,
trial,html.Screen,4_45_0,2023-09-08T20:47:09.000Z,,0,1,,2345.080999988073,response,ISIC_1102075.JPG,13,ISIC_0034052.JPG,ISIC_0034052.JPG,false,0,keypress(z),500,294524.39999997616,294524.1999999881,292162.267,292147.09999999404,292179.119,294546.528,8,400,46,,ISIC_1102075.JPG
break,html.Screen,4_45_1,2023-09-08T20:47:09.001Z,,0,,,NaN,,,,,,false,,,,294525,294524.89999997616,,294524.59999999404,,294546.528,8,400,,,
break_continue,html.Screen,4_45_2,2023-09-08T20:47:09.001Z,,0,,,NaN,,,,,,false,,,,294525.2999999821,294525.2999999821,,294525.09999999404,,294546.528,8,400,,,
sequence,flow.Sequence,4_45,2023-09-08T20:47:09.001Z,,0,,,2346.1809999821126,completion,,,,,false,,,,294525.5,294525.2999999821,292162.267,292147.09999999404,292179.119,294546.528,8,400,,,
trial,html.Screen,4_46_0,2023-09-08T20:47:11.648Z,,0,1,,2625.871999976167,response,ISIC_0024967.JPG,10,ISIC_4663883.JPG,ISIC_0024967.JPG,false,1,keypress(m),500,297172.59999999404,297172.39999997616,294508.325,294525.59999999404,294546.528,297196.382,8,400,47,,ISIC_4663883.JPG
break,html.Screen,4_46_1,2023-09-08T20:47:11.649Z,,0,,,NaN,,,,,,false,,,,297173.09999999404,297173,,297172.6999999881,,297196.382,8,400,,,
break_continue,html.Screen,4_46_2,2023-09-08T20:47:11.649Z,,0,,,NaN,,,,,,false,,,,297173.39999997616,297173.2999999821,,297173.1999999881,,297196.382,8,400,,,
sequence,flow.Sequence,4_46,2023-09-08T20:47:11.649Z,,0,,,2626.7719999821275,completion,,,,,false,,,,297173.5,297173.2999999821,294508.325,294525.59999999404,294546.528,297196.382,8,400,,,
trial,html.Screen,4_47_0,2023-09-08T20:47:14.809Z,,0,1,,3136.017999976175,response,ISIC_0053760.JPG,10,ISIC_4229473.JPG,ISIC_4229473.JPG,false,0,keypress(z),500,300332.7999999821,300332.39999997616,297156.907,297173.59999999404,297196.382,300355.549,8,400,48,,ISIC_0053760.JPG
break,html.Screen,4_47_1,2023-09-08T20:47:14.809Z,,0,,,NaN,,,,,,false,,,,300333.5,300333.2999999821,,300332.89999997616,,300355.549,8,400,,,
break_continue,html.Screen,4_47_2,2023-09-08T20:47:14.810Z,,0,,,NaN,,,,,,false,,,,300333.7999999821,300333.6999999881,,300333.6999999881,,300355.549,8,400,,,
sequence,flow.Sequence,4_47,2023-09-08T20:47:14.810Z,,0,,,3137.317999988096,completion,,,,,false,,,,300333.89999997616,300333.6999999881,297156.907,297173.59999999404,297196.382,300355.549,8,400,,,
trial,html.Screen,4_48_0,2023-09-08T20:47:17.344Z,,0,1,,2512.7509999821195,response,ISIC_6793603.JPG,10,ISIC_0009048.JPG,ISIC_6793603.JPG,false,1,keypress(m),500,302868.5,302868.2999999821,300330.104,300334.09999999404,300355.549,302891.081,8,400,49,,ISIC_0009048.JPG
break,html.Screen,4_48_1,2023-09-08T20:47:17.345Z,,0,,,NaN,,,,,,false,,,,302869,302868.7999999821,,302868.59999999404,,302891.081,8,400,,,
break_continue,html.Screen,4_48_2,2023-09-08T20:47:17.345Z,,0,,,NaN,,,,,,false,,,,302869.39999997616,302869.1999999881,,302869.09999999404,,302891.081,8,400,,,
sequence,flow.Sequence,4_48,2023-09-08T20:47:17.345Z,,0,,,2513.65099998808,completion,,,,,false,,,,302869.5,302869.1999999881,300330.104,300334,300355.549,302891.081,8,400,,,
trial,html.Screen,4_49_0,2023-09-08T20:47:20.072Z,,0,1,,2704.9189999999944,response,ISIC_0072733.JPG,10,ISIC_0061475.JPG,ISIC_0061475.JPG,false,0,keypress(z),500,305596.09999999404,305596,302865.813,302869.59999999404,302891.081,305618.803,8,400,50,,ISIC_0072733.JPG
break,html.Screen,4_49_1,2023-09-08T20:47:30.081Z,,0,,,10003.141999999993,timeout,,,,,false,,,,315605.59999999404,315605.076,305580.646,305596.2999999821,305618.803,315621.945,8,400,,,
break_continue,html.Screen,4_49_2,2023-09-08T20:47:33.242Z,,0,,,3134.754999988072,response,,,,,false,continue,keypress(Space),,318765.7999999821,318756.6999999881,315605.076,315605.6999999881,315621.945,318788.717,8,400,,,
sequence,flow.Sequence,4_49,2023-09-08T20:47:33.242Z,,0,,,15865.618999988073,completion,,,,,false,,,,318766.09999999404,318756.6999999881,302865.813,302869.59999999404,302891.081,318788.717,8,400,,,
trial,html.Screen,4_50_0,2023-09-08T20:47:38.017Z,,0,2,,4752.082999982114,response,ISIC_2380341.JPG,10,ISIC_9385996.JPG,ISIC_9385996.JPG,false,0,keypress(z),500,323541,323540.7999999821,318754.52,318766.09999999404,318788.717,323563.703,8,400,1,,ISIC_2380341.JPG
break,html.Screen,4_50_1,2023-09-08T20:47:38.017Z,,0,,,NaN,,,,,,false,,,,323541.59999999404,323541.2999999821,,323541.09999999404,,323563.703,8,400,,,
break_continue,html.Screen,4_50_2,2023-09-08T20:47:38.018Z,,0,,,NaN,,,,,,false,,,,323541.7999999821,323541.7999999821,,323541.59999999404,,323563.703,8,400,,,
sequence,flow.Sequence,4_50,2023-09-08T20:47:38.018Z,,0,,,4753.082999982114,completion,,,,,false,,,,323541.89999997616,323541.7999999821,318754.52,318766.09999999404,318788.717,323563.703,8,400,,,
trial,html.Screen,4_51_0,2023-09-08T20:47:40.329Z,,0,2,,2288.89699999406,response,ISIC_8023705.JPG,10,ISIC_0033329.JPG,ISIC_8023705.JPG,false,1,keypress(m),500,325852.6999999881,325852.59999999404,323530.536,323542,323563.703,325875.535,8,400,2,,ISIC_0033329.JPG
break,html.Screen,4_51_1,2023-09-08T20:47:40.329Z,,0,,,NaN,,,,,,false,,,,325853.5,325853.2999999821,,325852.89999997616,,325875.535,8,400,,,
break_continue,html.Screen,4_51_2,2023-09-08T20:47:40.330Z,,0,,,NaN,,,,,,false,,,,325853.7999999821,325853.6999999881,,325853.59999999404,,325875.535,8,400,,,
sequence,flow.Sequence,4_51,2023-09-08T20:47:40.330Z,,0,,,2289.9969999880996,completion,,,,,false,,,,325854,325853.6999999881,323530.536,323542,323563.703,325875.535,8,400,,,
trial,html.Screen,4_52_0,2023-09-08T20:47:42.929Z,,0,2,,2576.9650000000256,response,ISIC_0028477.JPG,10,ISIC_3157046.JPG,ISIC_0028477.JPG,false,1,keypress(m),500,328452.6999999881,328452.5,325840.874,325854.09999999404,325875.535,328475.364,8,400,3,,ISIC_3157046.JPG
break,html.Screen,4_52_1,2023-09-08T20:47:42.929Z,,0,,,NaN,,,,,,false,,,,328453.1999999881,328453,,328452.89999997616,,328475.364,8,400,,,
break_continue,html.Screen,4_52_2,2023-09-08T20:47:42.929Z,,0,,,NaN,,,,,,false,,,,328453.39999997616,328453.39999997616,,328453.2999999821,,328475.364,8,400,,,
sequence,flow.Sequence,4_52,2023-09-08T20:47:42.930Z,,0,,,2577.8649999761838,completion,,,,,false,,,,328453.6999999881,328453.39999997616,325840.874,325854,325875.535,328475.364,8,400,,,
trial,html.Screen,4_53_0,2023-09-08T20:47:45.705Z,,0,2,,2753.3359999880777,response,ISIC_0067333.JPG,10,ISIC_1008609.JPG,ISIC_0067333.JPG,false,1,keypress(m),500,331228.7999999821,331228.6999999881,328451.49,328453.89999997616,328475.364,331251.629,8,400,4,,ISIC_1008609.JPG
break,html.Screen,4_53_1,2023-09-08T20:47:45.705Z,,0,,,NaN,,,,,,false,,,,331229.59999999404,331229.39999997616,,331229,,331251.629,8,400,,,
break_continue,html.Screen,4_53_2,2023-09-08T20:47:45.706Z,,0,,,NaN,,,,,,false,,,,331229.89999997616,331229.7999999821,,331229.59999999404,,331251.629,8,400,,,
sequence,flow.Sequence,4_53,2023-09-08T20:47:45.706Z,,0,,,2754.435999982117,completion,,,,,false,,,,331230,331229.7999999821,328451.49,328453.7999999821,328475.364,331251.629,8,400,,,
trial,html.Screen,4_54_0,2023-09-08T20:47:48.176Z,,0,2,,2448.770999976143,response,ISIC_0504730.JPG,10,ISIC_2331656.JPG,ISIC_2331656.JPG,false,0,keypress(z),500,333700.6999999881,333700.39999997616,331222.412,331230.1999999881,331251.629,333709.639,8,400,5,,ISIC_0504730.JPG
break,html.Screen,4_54_1,2023-09-08T20:47:48.177Z,,0,,,NaN,,,,,,false,,,,333701.2999999821,333701.09999999404,,333700.7999999821,,333709.639,8,400,,,
break_continue,html.Screen,4_54_2,2023-09-08T20:47:48.177Z,,0,,,NaN,,,,,,false,,,,333701.59999999404,333701.5,,333701.39999997616,,333709.639,8,400,,,
sequence,flow.Sequence,4_54,2023-09-08T20:47:48.177Z,,0,,,2449.8709999999846,completion,,,,,false,,,,333701.59999999404,333701.5,331222.412,331230.09999999404,331251.629,333709.639,8,400,,,
trial,html.Screen,4_55_0,2023-09-08T20:47:51.064Z,,0,2,,2878.7609999761335,response,ISIC_8355446.JPG,10,ISIC_3084213.JPG,ISIC_3084213.JPG,false,0,keypress(z),500,336588.5,336588.39999997616,333692.794,333701.7999999821,333709.639,336611.184,8,400,6,,ISIC_8355446.JPG
break,html.Screen,4_55_1,2023-09-08T20:47:51.065Z,,0,,,NaN,,,,,,false,,,,336589.09999999404,336588.89999997616,,336588.59999999404,,336611.184,8,400,,,
break_continue,html.Screen,4_55_2,2023-09-08T20:47:51.065Z,,0,,,NaN,,,,,,false,,,,336589.2999999821,336589.1999999881,,336589.1999999881,,336611.184,8,400,,,
sequence,flow.Sequence,4_55,2023-09-08T20:47:51.065Z,,0,,,2879.5609999880544,completion,,,,,false,,,,336589.5,336589.1999999881,333692.794,333701.7999999821,333709.639,336611.184,8,400,,,
trial,html.Screen,4_56_0,2023-09-08T20:47:53.680Z,,0,2,,2592.915999994031,response,ISIC_6324832.JPG,10,ISIC_0028156.JPG,ISIC_6324832.JPG,false,1,keypress(m),500,339204.2999999821,339204.09999999404,336578.026,336589.59999999404,336611.184,339227.104,8,400,7,,ISIC_0028156.JPG
break,html.Screen,4_56_1,2023-09-08T20:47:53.681Z,,0,,,NaN,,,,,,false,,,,339205,339204.7999999821,,339204.5,,339227.104,8,400,,,
break_continue,html.Screen,4_56_2,2023-09-08T20:47:53.681Z,,0,,,NaN,,,,,,false,,,,339205.2999999821,339205.09999999404,,339205.09999999404,,339227.104,8,400,,,
sequence,flow.Sequence,4_56,2023-09-08T20:47:53.681Z,,0,,,2593.915999994031,completion,,,,,false,,,,339205.2999999821,339205.09999999404,336578.026,336589.5,336611.184,339227.104,8,400,,,
trial,html.Screen,4_57_0,2023-09-08T20:47:56.872Z,,0,2,,3168.9959999940475,response,ISIC_3996796.JPG,10,ISIC_0012057.JPG,ISIC_3996796.JPG,false,1,keypress(m),500,342396.2999999821,342396.09999999404,339191.262,339205.39999997616,339227.104,342418.981,8,400,8,,ISIC_0012057.JPG
break,html.Screen,4_57_1,2023-09-08T20:47:56.873Z,,0,,,NaN,,,,,,false,,,,342396.89999997616,342396.6999999881,,342396.39999997616,,342418.981,8,400,,,
break_continue,html.Screen,4_57_2,2023-09-08T20:47:56.873Z,,0,,,NaN,,,,,,false,,,,342397.09999999404,342397.09999999404,,342397,,342418.981,8,400,,,
sequence,flow.Sequence,4_57,2023-09-08T20:47:56.873Z,,0,,,3169.9959999940475,completion,,,,,false,,,,342397.1999999881,342397.09999999404,339191.262,339205.39999997616,339227.104,342418.981,8,400,,,
trial,html.Screen,4_58_0,2023-09-08T20:47:59.536Z,,0,2,,2641.1189999940107,response,ISIC_1871890.JPG,10,ISIC_7620514.JPG,ISIC_1871890.JPG,false,1,keypress(m),500,345060.2999999821,345060.09999999404,342395.305,342397.2999999821,342418.981,345082.974,8,400,9,,ISIC_7620514.JPG
break,html.Screen,4_58_1,2023-09-08T20:47:59.537Z,,0,,,NaN,,,,,,false,,,,345060.89999997616,345060.59999999404,,345060.39999997616,,345082.974,8,400,,,
break_continue,html.Screen,4_58_2,2023-09-08T20:47:59.537Z,,0,,,NaN,,,,,,false,,,,345061.09999999404,345061,,345061,,345082.974,8,400,,,
sequence,flow.Sequence,4_58,2023-09-08T20:47:59.537Z,,0,,,2642.018999999971,completion,,,,,false,,,,345061.1999999881,345061,342395.305,342397.2999999821,342418.981,345082.974,8,400,,,
trial,html.Screen,4_59_0,2023-09-08T20:48:03.768Z,,0,2,,4208.725999988092,response,ISIC_1144024.JPG,6,ISIC_0061870.JPG,ISIC_1144024.JPG,false,1,keypress(m),500,349291.89999997616,349291.6999999881,345045.36,345061.2999999821,345082.974,349309.068,8,400,10,,ISIC_0061870.JPG
break,html.Screen,4_59_1,2023-09-08T20:48:03.768Z,,0,,,NaN,,,,,,false,,,,349292.5,349292.2999999821,,349292,,349309.068,8,400,,,
break_continue,html.Screen,4_59_2,2023-09-08T20:48:03.769Z,,0,,,NaN,,,,,,false,,,,349292.6999999881,349292.59999999404,,349292.5,,349309.068,8,400,,,
sequence,flow.Sequence,4_59,2023-09-08T20:48:03.769Z,,0,,,4209.625999994052,completion,,,,,false,,,,349292.89999997616,349292.59999999404,345045.36,345061.2999999821,345082.974,349309.068,8,400,,,
trial,html.Screen,4_60_0,2023-09-08T20:48:06.736Z,,0,2,,2950.8319999761297,response,ISIC_0066223.JPG,11,ISIC_0070551.JPG,ISIC_0066223.JPG,false,1,keypress(m),500,352260.1999999881,352259.89999997616,349292.207,349293,349309.068,352282.309,8,400,11,,ISIC_0070551.JPG
break,html.Screen,4_60_1,2023-09-08T20:48:06.737Z,,0,,,NaN,,,,,,false,,,,352260.7999999821,352260.6999999881,,352260.39999997616,,352282.309,8,400,,,
break_continue,html.Screen,4_60_2,2023-09-08T20:48:06.737Z,,0,,,NaN,,,,,,false,,,,352261.1999999881,352261,,352260.89999997616,,352282.309,8,400,,,
sequence,flow.Sequence,4_60,2023-09-08T20:48:06.737Z,,0,,,2951.9319999999716,completion,,,,,false,,,,352261.1999999881,352261,349292.207,349293,349309.068,352282.309,8,400,,,
trial,html.Screen,4_61_0,2023-09-08T20:48:10.696Z,,0,2,,3937.3909999880707,response,ISIC_0069260.JPG,10,ISIC_0031745.JPG,ISIC_0069260.JPG,false,1,keypress(m),500,356219.89999997616,356219.6999999881,352259.833,352261.2999999821,352282.309,356242.609,8,400,12,,ISIC_0031745.JPG
break,html.Screen,4_61_1,2023-09-08T20:48:10.696Z,,0,,,NaN,,,,,,false,,,,356220.5,356220.2999999821,,356220.09999999404,,356242.609,8,400,,,
break_continue,html.Screen,4_61_2,2023-09-08T20:48:10.697Z,,0,,,NaN,,,,,,false,,,,356220.6999999881,356220.6999999881,,356220.5,,356242.609,8,400,,,
sequence,flow.Sequence,4_61,2023-09-08T20:48:10.697Z,,0,,,3938.3909999880707,completion,,,,,false,,,,356220.7999999821,356220.6999999881,352259.833,352261.2999999821,352282.309,356242.609,8,400,,,
trial,html.Screen,4_62_0,2023-09-08T20:48:13.520Z,,0,2,,2801.190999982122,response,ISIC_0056692.JPG,10,ISIC_6971606.JPG,ISIC_0056692.JPG,false,1,keypress(m),500,359044,359043.7999999821,356206.184,356220.89999997616,356242.609,359066.765,8,400,13,,ISIC_6971606.JPG
break,html.Screen,4_62_1,2023-09-08T20:48:13.521Z,,0,,,NaN,,,,,,false,,,,359044.6999999881,359044.5,,359044.1999999881,,359066.765,8,400,,,
break_continue,html.Screen,4_62_2,2023-09-08T20:48:13.521Z,,0,,,NaN,,,,,,false,,,,359045.09999999404,359044.89999997616,,359044.89999997616,,359066.765,8,400,,,
sequence,flow.Sequence,4_62,2023-09-08T20:48:13.521Z,,0,,,2802.2909999761614,completion,,,,,false,,,,359045.2999999821,359044.89999997616,356206.184,356220.89999997616,356242.609,359066.765,8,400,,,
trial,html.Screen,4_63_0,2023-09-08T20:48:16.280Z,,0,2,,2736.934999988065,response,ISIC_4208361.JPG,10,ISIC_8609756.JPG,ISIC_4208361.JPG,false,1,keypress(m),500,361803.89999997616,361803.6999999881,359042.346,359045.39999997616,359066.765,361826.586,8,400,14,,ISIC_8609756.JPG
break,html.Screen,4_63_1,2023-09-08T20:48:16.280Z,,0,,,NaN,,,,,,false,,,,361804.5,361804.1999999881,,361804.09999999404,,361826.586,8,400,,,
break_continue,html.Screen,4_63_2,2023-09-08T20:48:16.281Z,,0,,,NaN,,,,,,false,,,,361804.6999999881,361804.59999999404,,361804.59999999404,,361826.586,8,400,,,
sequence,flow.Sequence,4_63,2023-09-08T20:48:16.281Z,,0,,,2737.8349999940256,completion,,,,,false,,,,361804.7999999821,361804.59999999404,359042.346,359045.2999999821,359066.765,361826.586,8,400,,,
trial,html.Screen,4_64_0,2023-09-08T20:48:19.328Z,,0,2,,3025.113999988069,response,ISIC_1513720.JPG,11,ISIC_4326917.JPG,ISIC_4326917.JPG,false,0,keypress(z),500,364851.89999997616,364851.6999999881,361789.338,361804.89999997616,361826.586,364874.667,8,400,15,,ISIC_1513720.JPG
break,html.Screen,4_64_1,2023-09-08T20:48:19.328Z,,0,,,NaN,,,,,,false,,,,364852.59999999404,364852.39999997616,,364852,,364874.667,8,400,,,
break_continue,html.Screen,4_64_2,2023-09-08T20:48:19.329Z,,0,,,NaN,,,,,,false,,,,364852.7999999821,364852.6999999881,,364852.6999999881,,364874.667,8,400,,,
sequence,flow.Sequence,4_64,2023-09-08T20:48:19.329Z,,0,,,3026.113999988069,completion,,,,,false,,,,364853,364852.6999999881,361789.338,361804.89999997616,361826.586,364874.667,8,400,,,
trial,html.Screen,4_65_0,2023-09-08T20:48:22.024Z,,0,2,,2673.0329999880632,response,ISIC_0066262.JPG,10,ISIC_0007760.JPG,ISIC_0066262.JPG,false,1,keypress(m),500,367547.7999999821,367547.6999999881,364850.804,364853,364874.667,367570.506,8,400,16,,ISIC_0007760.JPG
break,html.Screen,4_65_1,2023-09-08T20:48:22.024Z,,0,,,NaN,,,,,,false,,,,367548.39999997616,367548.1999999881,,367548,,367570.506,8,400,,,
break_continue,html.Screen,4_65_2,2023-09-08T20:48:22.024Z,,0,,,NaN,,,,,,false,,,,367548.59999999404,367548.59999999404,,367548.5,,367570.506,8,400,,,
sequence,flow.Sequence,4_65,2023-09-08T20:48:22.025Z,,0,,,2673.9329999940237,completion,,,,,false,,,,367548.6999999881,367548.59999999404,364850.804,364853,364874.667,367570.506,8,400,,,
trial,html.Screen,4_66_0,2023-09-08T20:48:26.487Z,,0,2,,4440.793999982125,response,ISIC_0878793.JPG,8,ISIC_0058047.JPG,ISIC_0878793.JPG,false,1,keypress(m),500,372011.39999997616,372011.2999999821,367533.581,367548.89999997616,367570.506,372014.922,8,400,17,,ISIC_0058047.JPG
break,html.Screen,4_66_1,2023-09-08T20:48:26.488Z,,0,,,NaN,,,,,,false,,,,372012.1999999881,372012.09999999404,,372011.59999999404,,372014.922,8,400,,,
break_continue,html.Screen,4_66_2,2023-09-08T20:48:26.488Z,,0,,,NaN,,,,,,false,,,,372012.39999997616,372012.2999999821,,372012.2999999821,,372014.922,8,400,,,
sequence,flow.Sequence,4_66,2023-09-08T20:48:26.488Z,,0,,,4441.793999982125,completion,,,,,false,,,,372012.59999999404,372012.2999999821,367533.581,367548.7999999821,367570.506,372014.922,8,400,,,
trial,html.Screen,4_67_0,2023-09-08T20:48:30.000Z,,0,2,,3508.677999994019,response,ISIC_8931948.JPG,10,ISIC_0027021.JPG,ISIC_8931948.JPG,false,1,keypress(m),500,375523.7999999821,375523.59999999404,371998.09,372012.6999999881,372014.922,375546.447,8,400,18,,ISIC_0027021.JPG
break,html.Screen,4_67_1,2023-09-08T20:48:30.000Z,,0,,,NaN,,,,,,false,,,,375524.39999997616,375524.1999999881,,375523.89999997616,,375546.447,8,400,,,
break_continue,html.Screen,4_67_2,2023-09-08T20:48:30.001Z,,0,,,NaN,,,,,,false,,,,375525.39999997616,375525.2999999821,,375525.1999999881,,375546.447,8,400,,,
sequence,flow.Sequence,4_67,2023-09-08T20:48:30.001Z,,0,,,3510.377999982098,completion,,,,,false,,,,375525.59999999404,375525.2999999821,371998.09,372012.59999999404,372014.922,375546.447,8,400,,,
trial,html.Screen,4_68_0,2023-09-08T20:48:32.552Z,,0,2,,2529.152999994054,response,ISIC_0062241.JPG,9,ISIC_0030501.JPG,ISIC_0030501.JPG,false,0,keypress(z),500,378075.7999999821,378075.59999999404,375521.471,375525.6999999881,375546.447,378098.394,8,400,19,,ISIC_0062241.JPG
break,html.Screen,4_68_1,2023-09-08T20:48:32.552Z,,0,,,NaN,,,,,,false,,,,378076.2999999821,378076,,378075.7999999821,,378098.394,8,400,,,
break_continue,html.Screen,4_68_2,2023-09-08T20:48:32.552Z,,0,,,NaN,,,,,,false,,,,378076.5,378076.39999997616,,378076.2999999821,,378098.394,8,400,,,
sequence,flow.Sequence,4_68,2023-09-08T20:48:32.552Z,,0,,,2529.9529999761726,completion,,,,,false,,,,378076.59999999404,378076.39999997616,375521.471,375525.6999999881,375546.447,378098.394,8,400,,,
trial,html.Screen,4_69_0,2023-09-08T20:48:35.176Z,,0,2,,2601.2059999940684,response,ISIC_3098750.JPG,10,ISIC_0028127.JPG,ISIC_0028127.JPG,false,0,keypress(z),500,380699.7999999821,380699.59999999404,378065.982,378076.6999999881,378098.394,380722.452,8,400,20,,ISIC_3098750.JPG
break,html.Screen,4_69_1,2023-09-08T20:48:35.176Z,,0,,,NaN,,,,,,false,,,,380700.39999997616,380700.1999999881,,380699.89999997616,,380722.452,8,400,,,
break_continue,html.Screen,4_69_2,2023-09-08T20:48:35.177Z,,0,,,NaN,,,,,,false,,,,380700.7999999821,380700.59999999404,,380700.5,,380722.452,8,400,,,
sequence,flow.Sequence,4_69,2023-09-08T20:48:35.177Z,,0,,,2602.2059999940684,completion,,,,,false,,,,380700.89999997616,380700.59999999404,378065.982,378076.6999999881,378098.394,380722.452,8,400,,,
trial,html.Screen,4_70_0,2023-09-08T20:48:37.760Z,,0,2,,2561.447999976168,response,ISIC_5754023.JPG,10,ISIC_0057495.JPG,ISIC_5754023.JPG,false,1,keypress(m),500,383284.09999999404,383283.89999997616,380686.78,380701,380722.452,383306.736,8,400,21,,ISIC_0057495.JPG
break,html.Screen,4_70_1,2023-09-08T20:48:37.761Z,,0,,,NaN,,,,,,false,,,,383284.6999999881,383284.39999997616,,383284.1999999881,,383306.736,8,400,,,
break_continue,html.Screen,4_70_2,2023-09-08T20:48:37.761Z,,0,,,NaN,,,,,,false,,,,383284.89999997616,383284.7999999821,,383284.6999999881,,383306.736,8,400,,,
sequence,flow.Sequence,4_70,2023-09-08T20:48:37.761Z,,0,,,2562.3479999821284,completion,,,,,false,,,,383285,383284.7999999821,380686.78,380701,380722.452,383306.736,8,400,,,
trial,html.Screen,4_71_0,2023-09-08T20:48:40.392Z,,0,2,,2609.2640000000247,response,ISIC_0059303.JPG,11,ISIC_0026685.JPG,ISIC_0059303.JPG,false,1,keypress(m),500,385916.09999999404,385916,383276.24,383285.09999999404,383306.736,385938.917,8,400,22,,ISIC_0026685.JPG
break,html.Screen,4_71_1,2023-09-08T20:48:40.393Z,,0,,,NaN,,,,,,false,,,,385917,385916.7999999821,,385916.2999999821,,385938.917,8,400,,,
break_continue,html.Screen,4_71_2,2023-09-08T20:48:40.393Z,,0,,,NaN,,,,,,false,,,,385917.1999999881,385917.09999999404,,385917,,385938.917,8,400,,,
sequence,flow.Sequence,4_71,2023-09-08T20:48:40.393Z,,0,,,2610.363999994064,completion,,,,,false,,,,385917.2999999821,385917.09999999404,383276.24,383285,383306.736,385938.917,8,400,,,
trial,html.Screen,4_72_0,2023-09-08T20:48:43.040Z,,0,2,,2625.082999999984,response,ISIC_0033204.JPG,10,ISIC_0057184.JPG,ISIC_0033204.JPG,false,1,keypress(m),500,388564.1999999881,388564,385915.737,385917.5,385938.917,388586.857,8,400,23,,ISIC_0057184.JPG
break,html.Screen,4_72_1,2023-09-08T20:48:43.041Z,,0,,,NaN,,,,,,false,,,,388564.7999999821,388564.5,,388564.2999999821,,388586.857,8,400,,,
break_continue,html.Screen,4_72_2,2023-09-08T20:48:43.041Z,,0,,,NaN,,,,,,false,,,,388565.09999999404,388565,,388564.89999997616,,388586.857,8,400,,,
sequence,flow.Sequence,4_72,2023-09-08T20:48:43.041Z,,0,,,2626.082999999984,completion,,,,,false,,,,388565.2999999821,388565,385915.737,385917.39999997616,385938.917,388586.857,8,400,,,
trial,html.Screen,4_73_0,2023-09-08T20:48:45.752Z,,0,2,,2689.142999999982,response,ISIC_3651451.JPG,9,ISIC_0063447.JPG,ISIC_0063447.JPG,false,0,keypress(z),500,391276.1999999881,391276,388551.676,388565.39999997616,388586.857,391298.808,8,400,24,,ISIC_3651451.JPG
break,html.Screen,4_73_1,2023-09-08T20:48:45.753Z,,0,,,NaN,,,,,,false,,,,391276.7999999821,391276.5,,391276.1999999881,,391298.808,8,400,,,
break_continue,html.Screen,4_73_2,2023-09-08T20:48:45.753Z,,0,,,NaN,,,,,,false,,,,391277.09999999404,391277,,391276.89999997616,,391298.808,8,400,,,
sequence,flow.Sequence,4_73,2023-09-08T20:48:45.753Z,,0,,,2690.142999999982,completion,,,,,false,,,,391277.2999999821,391277,388551.676,388565.39999997616,388586.857,391298.808,8,400,,,
trial,html.Screen,4_74_0,2023-09-08T20:48:48.368Z,,0,2,,2592.89199998806,response,ISIC_0033374.JPG,10,ISIC_1558504.JPG,ISIC_0033374.JPG,false,1,keypress(m),500,393892,393891.6999999881,391268.718,391277.39999997616,391298.808,393914.721,8,400,25,,ISIC_1558504.JPG
break,html.Screen,4_74_1,2023-09-08T20:48:48.369Z,,0,,,NaN,,,,,,false,,,,393892.59999999404,393892.39999997616,,393892.1999999881,,393914.721,8,400,,,
break_continue,html.Screen,4_74_2,2023-09-08T20:48:48.369Z,,0,,,NaN,,,,,,false,,,,393893.09999999404,393892.89999997616,,393892.7999999821,,393914.721,8,400,,,
sequence,flow.Sequence,4_74,2023-09-08T20:48:48.369Z,,0,,,2594.091999976139,completion,,,,,false,,,,393893.1999999881,393892.89999997616,391268.718,391277.2999999821,391298.808,393914.721,8,400,,,
trial,html.Screen,4_75_0,2023-09-08T20:48:51.128Z,,0,2,,2736.9789999880595,response,ISIC_2337786.JPG,10,ISIC_5459256.JPG,ISIC_5459256.JPG,false,0,keypress(z),500,396652,396651.6999999881,393886.429,393893.2999999821,393914.721,396659.801,8,400,26,,ISIC_2337786.JPG
break,html.Screen,4_75_1,2023-09-08T20:48:51.128Z,,0,,,NaN,,,,,,false,,,,396652.59999999404,396652.39999997616,,396652.1999999881,,396659.801,8,400,,,
break_continue,html.Screen,4_75_2,2023-09-08T20:48:51.129Z,,0,,,NaN,,,,,,false,,,,396652.89999997616,396652.7999999821,,396652.6999999881,,396659.801,8,400,,,
sequence,flow.Sequence,4_75,2023-09-08T20:48:51.129Z,,0,,,2738.078999982099,completion,,,,,false,,,,396653,396652.7999999821,393886.429,393893.2999999821,393914.721,396659.801,8,400,,,
trial,html.Screen,4_76_0,2023-09-08T20:48:53.984Z,,0,2,,2847.798999994062,response,ISIC_4890201.JPG,10,ISIC_4960406.JPG,ISIC_4890201.JPG,false,1,keypress(m),500,399507.7999999821,399507.59999999404,396642.96,396653.09999999404,396659.801,399530.498,8,400,27,,ISIC_4960406.JPG
break,html.Screen,4_76_1,2023-09-08T20:48:53.984Z,,0,,,NaN,,,,,,false,,,,399508.39999997616,399508.2999999821,,399508,,399530.498,8,400,,,
break_continue,html.Screen,4_76_2,2023-09-08T20:48:53.985Z,,0,,,NaN,,,,,,false,,,,399508.6999999881,399508.59999999404,,399508.59999999404,,399530.498,8,400,,,
sequence,flow.Sequence,4_76,2023-09-08T20:48:53.985Z,,0,,,2848.798999994062,completion,,,,,false,,,,399508.7999999821,399508.59999999404,396642.96,396653.09999999404,396659.801,399530.498,8,400,,,
trial,html.Screen,4_77_0,2023-09-08T20:48:57.768Z,,0,2,,3761.301999982097,response,ISIC_2714907.JPG,10,ISIC_0030373.JPG,ISIC_0030373.JPG,false,0,keypress(z),500,403292,403291.7999999821,399500.945,399508.7999999821,399530.498,403314.682,8,400,28,,ISIC_2714907.JPG
break,html.Screen,4_77_1,2023-09-08T20:48:57.768Z,,0,,,NaN,,,,,,false,,,,403292.59999999404,403292.39999997616,,403292.09999999404,,403314.682,8,400,,,
break_continue,html.Screen,4_77_2,2023-09-08T20:48:57.769Z,,0,,,NaN,,,,,,false,,,,403292.7999999821,403292.6999999881,,403292.59999999404,,403314.682,8,400,,,
sequence,flow.Sequence,4_77,2023-09-08T20:48:57.769Z,,0,,,3762.2019999880577,completion,,,,,false,,,,403292.89999997616,403292.6999999881,399500.945,399508.7999999821,399530.498,403314.682,8,400,,,
trial,html.Screen,4_78_0,2023-09-08T20:49:00.456Z,,0,2,,2665.2179999761865,response,ISIC_0032258.JPG,10,ISIC_2614347.JPG,ISIC_0032258.JPG,false,1,keypress(m),500,405980,405979.89999997616,403291.506,403293,403314.682,406002.705,8,400,29,,ISIC_2614347.JPG
break,html.Screen,4_78_1,2023-09-08T20:49:00.456Z,,0,,,NaN,,,,,,false,,,,405980.59999999404,405980.39999997616,,405980.1999999881,,406002.705,8,400,,,
break_continue,html.Screen,4_78_2,2023-09-08T20:49:00.457Z,,0,,,NaN,,,,,,false,,,,405981,405980.89999997616,,405980.7999999821,,406002.705,8,400,,,
sequence,flow.Sequence,4_78,2023-09-08T20:49:00.457Z,,0,,,2666.2179999761865,completion,,,,,false,,,,405981.09999999404,405980.89999997616,403291.506,403292.89999997616,403314.682,406002.705,8,400,,,
trial,html.Screen,4_79_0,2023-09-08T20:49:03.120Z,,0,2,,2641.2949999999837,response,ISIC_7484618.JPG,10,ISIC_0063899.JPG,ISIC_7484618.JPG,false,1,keypress(m),500,408644.09999999404,408644,405967.92,405981.1999999881,406002.705,408666.773,8,400,30,,ISIC_0063899.JPG
break,html.Screen,4_79_1,2023-09-08T20:49:03.121Z,,0,,,NaN,,,,,,false,,,,408644.6999999881,408644.5,,408644.2999999821,,408666.773,8,400,,,
break_continue,html.Screen,4_79_2,2023-09-08T20:49:03.121Z,,0,,,NaN,,,,,,false,,,,408645.09999999404,408644.89999997616,,408644.89999997616,,408666.773,8,400,,,
sequence,flow.Sequence,4_79,2023-09-08T20:49:03.121Z,,0,,,2642.194999976142,completion,,,,,false,,,,408645.2999999821,408644.89999997616,405967.92,405981.1999999881,406002.705,408666.773,8,400,,,
trial,html.Screen,4_80_0,2023-09-08T20:49:05.880Z,,0,2,,2737.1269999761716,response,ISIC_0024865.JPG,10,ISIC_0055714.JPG,ISIC_0024865.JPG,false,1,keypress(m),500,411404.09999999404,411403.89999997616,408627.852,408645.2999999821,408666.773,411426.758,8,400,31,,ISIC_0055714.JPG
break,html.Screen,4_80_1,2023-09-08T20:49:05.880Z,,0,,,NaN,,,,,,false,,,,411404.59999999404,411404.39999997616,,411404.1999999881,,411426.758,8,400,,,
break_continue,html.Screen,4_80_2,2023-09-08T20:49:05.881Z,,0,,,NaN,,,,,,false,,,,411404.89999997616,411404.89999997616,,411404.7999999821,,411426.758,8,400,,,
sequence,flow.Sequence,4_80,2023-09-08T20:49:05.881Z,,0,,,2738.1269999761716,completion,,,,,false,,,,411405,411404.89999997616,408627.852,408645.2999999821,408666.773,411426.758,8,400,,,
trial,html.Screen,4_81_0,2023-09-08T20:49:08.528Z,,0,2,,2624.841999994067,response,ISIC_0069192.JPG,11,ISIC_7353400.JPG,ISIC_7353400.JPG,false,0,keypress(z),500,414051.7999999821,414051.59999999404,411401.053,411405,411426.758,414074.588,8,400,32,,ISIC_0069192.JPG
break,html.Screen,4_81_1,2023-09-08T20:49:08.528Z,,0,,,NaN,,,,,,false,,,,414052.5,414052.2999999821,,414052,,414074.588,8,400,,,
break_continue,html.Screen,4_81_2,2023-09-08T20:49:08.529Z,,0,,,NaN,,,,,,false,,,,414052.7999999821,414052.6999999881,,414052.6999999881,,414074.588,8,400,,,
sequence,flow.Sequence,4_81,2023-09-08T20:49:08.529Z,,0,,,2625.9419999881065,completion,,,,,false,,,,414052.89999997616,414052.6999999881,411401.053,411405,411426.758,414074.588,8,400,,,
trial,html.Screen,4_82_0,2023-09-08T20:49:11.224Z,,0,2,,2673.3119999761693,response,ISIC_0058021.JPG,11,ISIC_8252406.JPG,ISIC_0058021.JPG,false,1,keypress(m),500,416748.09999999404,416747.89999997616,414041.822,414053,414074.588,416770.751,8,400,33,,ISIC_8252406.JPG
break,html.Screen,4_82_1,2023-09-08T20:49:11.224Z,,0,,,NaN,,,,,,false,,,,416748.59999999404,416748.39999997616,,416748.1999999881,,416770.751,8,400,,,
break_continue,html.Screen,4_82_2,2023-09-08T20:49:11.225Z,,0,,,NaN,,,,,,false,,,,416748.89999997616,416748.7999999821,,416748.7999999821,,416770.751,8,400,,,
sequence,flow.Sequence,4_82,2023-09-08T20:49:11.225Z,,0,,,2674.21199998213,completion,,,,,false,,,,416749,416748.7999999821,414041.822,414052.89999997616,414074.588,416770.751,8,400,,,
trial,html.Screen,4_83_0,2023-09-08T20:49:13.936Z,,0,2,,2688.94899998809,response,ISIC_0066952.JPG,11,ISIC_0000002.JPG,ISIC_0066952.JPG,false,1,keypress(m),500,419459.7999999821,419459.6999999881,416735.643,416749.09999999404,416770.751,419482.478,8,400,34,,ISIC_0000002.JPG
break,html.Screen,4_83_1,2023-09-08T20:49:13.936Z,,0,,,NaN,,,,,,false,,,,419460.39999997616,419460.1999999881,,419459.89999997616,,419482.478,8,400,,,
break_continue,html.Screen,4_83_2,2023-09-08T20:49:13.937Z,,0,,,NaN,,,,,,false,,,,419460.7999999821,419460.6999999881,,419460.59999999404,,419482.478,8,400,,,
sequence,flow.Sequence,4_83,2023-09-08T20:49:13.937Z,,0,,,2689.94899998809,completion,,,,,false,,,,419460.89999997616,419460.6999999881,416735.643,416749,416770.751,419482.478,8,400,,,
trial,html.Screen,4_84_0,2023-09-08T20:49:16.456Z,,0,2,,2497.1219999940367,response,ISIC_0033902.JPG,10,ISIC_3651451.JPG,ISIC_3651451.JPG,false,0,keypress(z),500,421979.7999999821,421979.59999999404,419451.211,419461,419482.478,422002.448,8,400,35,,ISIC_0033902.JPG
break,html.Screen,4_84_1,2023-09-08T20:49:16.456Z,,0,,,NaN,,,,,,false,,,,421980.2999999821,421980.09999999404,,421979.89999997616,,422002.448,8,400,,,
break_continue,html.Screen,4_84_2,2023-09-08T20:49:16.456Z,,0,,,NaN,,,,,,false,,,,421980.5,421980.5,,421980.5,,422002.448,8,400,,,
sequence,flow.Sequence,4_84,2023-09-08T20:49:16.457Z,,0,,,2498.021999999997,completion,,,,,false,,,,421980.6999999881,421980.5,419451.211,419460.89999997616,419482.478,422002.448,8,400,,,
trial,html.Screen,4_85_0,2023-09-08T20:49:19.024Z,,0,2,,2545.1519999940647,response,ISIC_8732757.JPG,11,ISIC_0069475.JPG,ISIC_8732757.JPG,false,1,keypress(m),500,424547.7999999821,424547.59999999404,421972.566,421980.7999999821,422002.448,424570.464,8,400,36,,ISIC_0069475.JPG
break,html.Screen,4_85_1,2023-09-08T20:49:19.024Z,,0,,,NaN,,,,,,false,,,,424548.2999999821,424548.09999999404,,424547.89999997616,,424570.464,8,400,,,
break_continue,html.Screen,4_85_2,2023-09-08T20:49:19.024Z,,0,,,NaN,,,,,,false,,,,424548.59999999404,424548.5,,424548.5,,424570.464,8,400,,,
sequence,flow.Sequence,4_85,2023-09-08T20:49:19.025Z,,0,,,2546.052000000025,completion,,,,,false,,,,424548.6999999881,424548.5,421972.566,421980.6999999881,422002.448,424570.464,8,400,,,
trial,html.Screen,4_86_0,2023-09-08T20:49:21.679Z,,0,2,,2632.93599997618,response,ISIC_5237059.JPG,10,ISIC_4166490.JPG,ISIC_5237059.JPG,false,1,keypress(m),500,427203.5,427203.39999997616,424538.4,424548.7999999821,424570.464,427226.162,8,400,37,,ISIC_4166490.JPG
break,html.Screen,4_86_1,2023-09-08T20:49:21.680Z,,0,,,NaN,,,,,,false,,,,427204.1999999881,427204,,427203.59999999404,,427226.162,8,400,,,
break_continue,html.Screen,4_86_2,2023-09-08T20:49:21.680Z,,0,,,NaN,,,,,,false,,,,427204.5,427204.39999997616,,427204.2999999821,,427226.162,8,400,,,
sequence,flow.Sequence,4_86,2023-09-08T20:49:21.681Z,,0,,,2633.93599997618,completion,,,,,false,,,,427204.7999999821,427204.39999997616,424538.4,424548.7999999821,424570.464,427226.162,8,400,,,
trial,html.Screen,4_87_0,2023-09-08T20:49:24.023Z,,0,2,,2321.1379999821074,response,ISIC_7558912.JPG,10,ISIC_4191202.JPG,ISIC_4191202.JPG,false,0,keypress(z),500,429547.5,429547.2999999821,427198.486,427205,427226.162,429564.684,8,400,38,,ISIC_7558912.JPG
break,html.Screen,4_87_1,2023-09-08T20:49:24.024Z,,0,,,NaN,,,,,,false,,,,429548,429547.89999997616,,429547.59999999404,,429564.684,8,400,,,
break_continue,html.Screen,4_87_2,2023-09-08T20:49:24.024Z,,0,,,NaN,,,,,,false,,,,429548.2999999821,429548.1999999881,,429548.09999999404,,429564.684,8,400,,,
sequence,flow.Sequence,4_87,2023-09-08T20:49:24.024Z,,0,,,2322.037999988068,completion,,,,,false,,,,429548.39999997616,429548.1999999881,427198.486,427204.89999997616,427226.162,429564.684,8,400,,,
trial,html.Screen,4_88_0,2023-09-08T20:49:26.751Z,,0,2,,2710.61599998211,response,ISIC_0033217.JPG,10,ISIC_1850196.JPG,ISIC_0033217.JPG,false,1,keypress(m),500,432275.39999997616,432275.2999999821,429547.826,429548.5,429564.684,432298.097,8,400,39,,ISIC_1850196.JPG
break,html.Screen,4_88_1,2023-09-08T20:49:26.752Z,,0,,,NaN,,,,,,false,,,,432276.09999999404,432275.7999999821,,432275.5,,432298.097,8,400,,,
break_continue,html.Screen,4_88_2,2023-09-08T20:49:26.752Z,,0,,,NaN,,,,,,false,,,,432276.2999999821,432276.1999999881,,432276.1999999881,,432298.097,8,400,,,
sequence,flow.Sequence,4_88,2023-09-08T20:49:26.752Z,,0,,,2711.5159999880707,completion,,,,,false,,,,432276.39999997616,432276.1999999881,429547.826,429548.5,429564.684,432298.097,8,400,,,
trial,html.Screen,4_89_0,2023-09-08T20:49:29.352Z,,0,2,,2577.402999999991,response,ISIC_2056104.JPG,10,ISIC_0360988.JPG,ISIC_0360988.JPG,false,0,keypress(z),500,434875.6999999881,434875.5,432263.71,432276.5,432298.097,434898.376,8,400,40,,ISIC_2056104.JPG
break,html.Screen,4_89_1,2023-09-08T20:49:29.352Z,,0,,,NaN,,,,,,false,,,,434876.2999999821,434876.09999999404,,434875.89999997616,,434898.376,8,400,,,
break_continue,html.Screen,4_89_2,2023-09-08T20:49:29.352Z,,0,,,NaN,,,,,,false,,,,434876.5,434876.5,,434876.39999997616,,434898.376,8,400,,,
sequence,flow.Sequence,4_89,2023-09-08T20:49:29.352Z,,0,,,2578.402999999991,completion,,,,,false,,,,434876.59999999404,434876.5,432263.71,432276.39999997616,432298.097,434898.376,8,400,,,
trial,html.Screen,4_90_0,2023-09-08T20:49:31.616Z,,0,2,,2241.1240000000107,response,ISIC_0497390.JPG,10,ISIC_0032945.JPG,ISIC_0032945.JPG,false,0,keypress(z),500,437139.6999999881,437139.5,434865.829,434876.6999999881,434898.376,437166.145,8,400,41,,ISIC_0497390.JPG
break,html.Screen,4_90_1,2023-09-08T20:49:31.616Z,,0,,,NaN,,,,,,false,,,,437140.1999999881,437140,,437139.89999997616,,437166.145,8,400,,,
break_continue,html.Screen,4_90_2,2023-09-08T20:49:31.616Z,,0,,,NaN,,,,,,false,,,,437140.5,437140.5,,437140.2999999821,,437166.145,8,400,,,
sequence,flow.Sequence,4_90,2023-09-08T20:49:31.617Z,,0,,,2242.1240000000107,completion,,,,,false,,,,437140.6999999881,437140.5,434865.829,434876.59999999404,434898.376,437166.145,8,400,,,
trial,html.Screen,4_91_0,2023-09-08T20:49:36.279Z,,0,2,,4636.954999994021,response,ISIC_6951506.JPG,10,ISIC_5376036.JPG,ISIC_6951506.JPG,false,1,keypress(m),500,441803.1999999881,441803.09999999404,437149.307,437140.7999999821,437166.145,441825.943,8,400,42,,ISIC_5376036.JPG
break,html.Screen,4_91_1,2023-09-08T20:49:36.280Z,,0,,,NaN,,,,,,false,,,,441803.7999999821,441803.6999999881,,441803.39999997616,,441825.943,8,400,,,
break_continue,html.Screen,4_91_2,2023-09-08T20:49:36.280Z,,0,,,NaN,,,,,,false,,,,441804.09999999404,441803.89999997616,,441803.89999997616,,441825.943,8,400,,,
sequence,flow.Sequence,4_91,2023-09-08T20:49:36.280Z,,0,,,4637.7549999761395,completion,,,,,false,,,,441804.1999999881,441803.89999997616,437149.307,437140.7999999821,437166.145,441825.943,8,400,,,
trial,html.Screen,4_92_0,2023-09-08T20:49:38.703Z,,0,2,,2401.156999994011,response,ISIC_0033086.JPG,11,ISIC_0033174.JPG,ISIC_0033086.JPG,false,1,keypress(m),500,444227.2999999821,444227.09999999404,441803.517,441804.1999999881,441825.943,444249.969,8,400,43,,ISIC_0033174.JPG
break,html.Screen,4_92_1,2023-09-08T20:49:38.704Z,,0,,,NaN,,,,,,false,,,,444227.89999997616,444227.6999999881,,444227.5,,444249.969,8,400,,,
break_continue,html.Screen,4_92_2,2023-09-08T20:49:38.704Z,,0,,,NaN,,,,,,false,,,,444228.09999999404,444228,,444228,,444249.969,8,400,,,
sequence,flow.Sequence,4_92,2023-09-08T20:49:38.704Z,,0,,,2402.0569999999716,completion,,,,,false,,,,444228.1999999881,444228,441803.517,441804.1999999881,441825.943,444249.969,8,400,,,
trial,html.Screen,4_93_0,2023-09-08T20:49:41.111Z,,0,2,,2385.1309999940568,response,ISIC_0057244.JPG,11,ISIC_0561634.JPG,ISIC_0561634.JPG,false,0,keypress(z),500,446635.2999999821,446635.09999999404,444214.361,444228.2999999821,444249.969,446657.921,8,400,44,,ISIC_0057244.JPG
break,html.Screen,4_93_1,2023-09-08T20:49:41.112Z,,0,,,NaN,,,,,,false,,,,446635.7999999821,446635.59999999404,,446635.39999997616,,446657.921,8,400,,,
break_continue,html.Screen,4_93_2,2023-09-08T20:49:41.112Z,,0,,,NaN,,,,,,false,,,,446636,446636,,446635.89999997616,,446657.921,8,400,,,
sequence,flow.Sequence,4_93,2023-09-08T20:49:41.112Z,,0,,,2386.0310000000172,completion,,,,,false,,,,446636.1999999881,446636,444214.361,444228.1999999881,444249.969,446657.921,8,400,,,
trial,html.Screen,4_94_0,2023-09-08T20:49:43.903Z,,0,2,,2769.3789999821456,response,ISIC_2639144.JPG,11,ISIC_7840728.JPG,ISIC_2639144.JPG,false,1,keypress(m),500,449427.5,449427.2999999821,446623.732,446636.1999999881,446657.921,449450.139,8,400,45,,ISIC_7840728.JPG
break,html.Screen,4_94_1,2023-09-08T20:49:43.904Z,,0,,,NaN,,,,,,false,,,,449428.09999999404,449427.89999997616,,449427.59999999404,,449450.139,8,400,,,
break_continue,html.Screen,4_94_2,2023-09-08T20:49:43.904Z,,0,,,NaN,,,,,,false,,,,449428.39999997616,449428.2999999821,,449428.09999999404,,449450.139,8,400,,,
sequence,flow.Sequence,4_94,2023-09-08T20:49:43.904Z,,0,,,2770.3789999821456,completion,,,,,false,,,,449428.5,449428.2999999821,446623.732,446636.1999999881,446657.921,449450.139,8,400,,,
trial,html.Screen,4_95_0,2023-09-08T20:49:46.455Z,,0,2,,2529.0609999880544,response,ISIC_0068048.JPG,10,ISIC_3386753.JPG,ISIC_0068048.JPG,false,1,keypress(m),500,451979.39999997616,451979.1999999881,449427.739,449428.59999999404,449450.139,451983.255,8,400,46,,ISIC_3386753.JPG
break,html.Screen,4_95_1,2023-09-08T20:49:46.456Z,,0,,,NaN,,,,,,false,,,,451980.09999999404,451979.89999997616,,451979.59999999404,,451983.255,8,400,,,
break_continue,html.Screen,4_95_2,2023-09-08T20:49:46.456Z,,0,,,NaN,,,,,,false,,,,451980.39999997616,451980.2999999821,,451980.1999999881,,451983.255,8,400,,,
sequence,flow.Sequence,4_95,2023-09-08T20:49:46.456Z,,0,,,2530.160999982094,completion,,,,,false,,,,451980.5,451980.2999999821,449427.739,449428.59999999404,449450.139,451983.255,8,400,,,
trial,html.Screen,4_96_0,2023-09-08T20:49:49.023Z,,0,2,,2563.7449999999953,response,ISIC_3436033.JPG,10,ISIC_0063556.JPG,ISIC_0063556.JPG,false,0,keypress(z),500,454547.1999999881,454547,451966.408,451980.59999999404,451983.255,454569.886,8,400,47,,ISIC_3436033.JPG
break,html.Screen,4_96_1,2023-09-08T20:49:49.024Z,,0,,,NaN,,,,,,false,,,,454547.7999999821,454547.5,,454547.39999997616,,454569.886,8,400,,,
break_continue,html.Screen,4_96_2,2023-09-08T20:49:49.024Z,,0,,,NaN,,,,,,false,,,,454548,454547.89999997616,,454547.89999997616,,454569.886,8,400,,,
sequence,flow.Sequence,4_96,2023-09-08T20:49:49.024Z,,0,,,2564.6449999761535,completion,,,,,false,,,,454548.1999999881,454547.89999997616,451966.408,451980.59999999404,451983.255,454569.886,8,400,,,
trial,html.Screen,4_97_0,2023-09-08T20:49:51.695Z,,0,2,,2648.91399998212,response,ISIC_9876004.JPG,11,ISIC_7724764.JPG,ISIC_9876004.JPG,false,1,keypress(m),500,457218.89999997616,457218.7999999821,454535.808,454548.1999999881,454569.886,457241.608,8,400,48,,ISIC_7724764.JPG
break,html.Screen,4_97_1,2023-09-08T20:49:51.695Z,,0,,,NaN,,,,,,false,,,,457219.59999999404,457219.39999997616,,457219.09999999404,,457241.608,8,400,,,
break_continue,html.Screen,4_97_2,2023-09-08T20:49:51.696Z,,0,,,NaN,,,,,,false,,,,457219.89999997616,457219.6999999881,,457219.6999999881,,457241.608,8,400,,,
sequence,flow.Sequence,4_97,2023-09-08T20:49:51.696Z,,0,,,2649.8139999880805,completion,,,,,false,,,,457220,457219.6999999881,454535.808,454548.1999999881,454569.886,457241.608,8,400,,,
trial,html.Screen,4_98_0,2023-09-08T20:49:54.423Z,,0,2,,2705.2919999761507,response,ISIC_8378321.JPG,10,ISIC_0030900.JPG,ISIC_0030900.JPG,false,0,keypress(z),500,459947.09999999404,459946.89999997616,457203.823,457220.09999999404,457241.608,459969.722,8,400,49,,ISIC_8378321.JPG
break,html.Screen,4_98_1,2023-09-08T20:49:54.424Z,,0,,,NaN,,,,,,false,,,,459947.59999999404,459947.5,,459947.1999999881,,459969.722,8,400,,,
break_continue,html.Screen,4_98_2,2023-09-08T20:49:54.424Z,,0,,,NaN,,,,,,false,,,,459948,459947.7999999821,,459947.7999999821,,459969.722,8,400,,,
sequence,flow.Sequence,4_98,2023-09-08T20:49:54.424Z,,0,,,2706.191999982111,completion,,,,,false,,,,459948.1999999881,459947.7999999821,457203.823,457220.09999999404,457241.608,459969.722,8,400,,,
trial,html.Screen,4_99_0,2023-09-08T20:49:57.135Z,,0,2,,2689.0779999821098,response,ISIC_4174592.JPG,10,ISIC_2500254.JPG,ISIC_4174592.JPG,false,1,keypress(m),500,462659,462658.7999999821,459936.385,459948.2999999821,459969.722,462681.785,8,400,50,,ISIC_2500254.JPG
break,html.Screen,4_99_1,2023-09-08T20:50:07.144Z,,0,,,10003.108000000007,timeout,,,,,false,,,,472668.59999999404,472668.05,462646.155,462659.1999999881,462681.785,472684.893,8,400,,,
break_continue,html.Screen,4_99_2,2023-09-08T20:50:08.532Z,,0,,,1353.6070000000182,response,,,,,false,continue,keypress(Space),,474055.89999997616,474038.5,472668.05,472668.6999999881,472684.893,474078.793,8,400,,,
sequence,flow.Sequence,4_99,2023-09-08T20:50:08.532Z,,0,,,14068.777999999991,completion,,,,,false,,,,474056.09999999404,474038.5,459936.385,459948.2999999821,459969.722,474078.793,8,400,,,
trial,html.Screen,4_100_0,2023-09-08T20:50:11.403Z,,0,3,,2847.906999988074,response,ISIC_8152423.JPG,10,ISIC_0033986.JPG,ISIC_8152423.JPG,false,1,keypress(m),500,476926.89999997616,476926.6999999881,474049.103,474056.1999999881,474078.793,476949.518,8,400,1,,ISIC_0033986.JPG
break,html.Screen,4_100_1,2023-09-08T20:50:11.403Z,,0,,,NaN,,,,,,false,,,,476927.5,476927.2999999821,,476927,,476949.518,8,400,,,
break_continue,html.Screen,4_100_2,2023-09-08T20:50:11.404Z,,0,,,NaN,,,,,,false,,,,476927.7999999821,476927.6999999881,,476927.59999999404,,476949.518,8,400,,,
sequence,flow.Sequence,4_100,2023-09-08T20:50:11.404Z,,0,,,2848.906999988074,completion,,,,,false,,,,476927.89999997616,476927.6999999881,474049.103,474056.1999999881,474078.793,476949.518,8,400,,,
trial,html.Screen,4_101_0,2023-09-08T20:50:13.923Z,,0,3,,2497.0819999940577,response,ISIC_0058186.JPG,10,ISIC_7759913.JPG,ISIC_7759913.JPG,false,0,keypress(z),500,479446.7999999821,479446.59999999404,476919.206,476928,476949.518,479469.477,8,400,2,,ISIC_0058186.JPG
break,html.Screen,4_101_1,2023-09-08T20:50:13.923Z,,0,,,NaN,,,,,,false,,,,479447.39999997616,479447.1999999881,,479447,,479469.477,8,400,,,
break_continue,html.Screen,4_101_2,2023-09-08T20:50:13.924Z,,0,,,NaN,,,,,,false,,,,479447.7999999821,479447.59999999404,,479447.59999999404,,479469.477,8,400,,,
sequence,flow.Sequence,4_101,2023-09-08T20:50:13.924Z,,0,,,2498.0819999940577,completion,,,,,false,,,,479447.89999997616,479447.59999999404,476919.206,476928,476949.518,479469.477,8,400,,,
trial,html.Screen,4_102_0,2023-09-08T20:50:16.507Z,,0,3,,2561.322999982105,response,ISIC_5552381.JPG,11,ISIC_0059041.JPG,ISIC_5552381.JPG,false,1,keypress(m),500,482030.89999997616,482030.7999999821,479433.468,479448,479469.477,482053.731,8,400,3,,ISIC_0059041.JPG
break,html.Screen,4_102_1,2023-09-08T20:50:16.507Z,,0,,,NaN,,,,,,false,,,,482031.59999999404,482031.39999997616,,482031.09999999404,,482053.731,8,400,,,
break_continue,html.Screen,4_102_2,2023-09-08T20:50:16.508Z,,0,,,NaN,,,,,,false,,,,482031.89999997616,482031.7999999821,,482031.6999999881,,482053.731,8,400,,,
sequence,flow.Sequence,4_102,2023-09-08T20:50:16.508Z,,0,,,2562.322999982105,completion,,,,,false,,,,482032,482031.7999999821,479433.468,479448,479469.477,482053.731,8,400,,,
trial,html.Screen,4_103_0,2023-09-08T20:50:18.803Z,,0,3,,2272.96899998805,response,ISIC_7373074.JPG,10,ISIC_0030729.JPG,ISIC_0030729.JPG,false,0,keypress(z),500,484326.89999997616,484326.6999999881,482015.974,482032.09999999404,482053.731,484349.548,8,400,4,,ISIC_7373074.JPG
break,html.Screen,4_103_1,2023-09-08T20:50:18.803Z,,0,,,NaN,,,,,,false,,,,484327.39999997616,484327.2999999821,,484327,,484349.548,8,400,,,
break_continue,html.Screen,4_103_2,2023-09-08T20:50:18.804Z,,0,,,NaN,,,,,,false,,,,484327.6999999881,484327.6999999881,,484327.5,,484349.548,8,400,,,
sequence,flow.Sequence,4_103,2023-09-08T20:50:18.804Z,,0,,,2273.96899998805,completion,,,,,false,,,,484327.7999999821,484327.6999999881,482015.974,482032.09999999404,482053.731,484349.548,8,400,,,
trial,html.Screen,4_104_0,2023-09-08T20:50:21.490Z,,0,3,,2664.95199999999,response,ISIC_8995044.JPG,10,ISIC_0058418.JPG,ISIC_8995044.JPG,false,1,keypress(m),500,487014.59999999404,487014.5,484314.778,484327.89999997616,484349.548,487027.111,8,400,5,,ISIC_0058418.JPG
break,html.Screen,4_104_1,2023-09-08T20:50:21.491Z,,0,,,NaN,,,,,,false,,,,487015.1999999881,487015,,487014.7999999821,,487027.111,8,400,,,
break_continue,html.Screen,4_104_2,2023-09-08T20:50:21.491Z,,0,,,NaN,,,,,,false,,,,487015.39999997616,487015.39999997616,,487015.2999999821,,487027.111,8,400,,,
sequence,flow.Sequence,4_104,2023-09-08T20:50:21.491Z,,0,,,2665.8519999761484,completion,,,,,false,,,,487015.5,487015.39999997616,484314.778,484327.89999997616,484349.548,487027.111,8,400,,,
trial,html.Screen,4_105_0,2023-09-08T20:50:24.170Z,,0,3,,2667.0889999881038,response,ISIC_0029705.JPG,10,ISIC_8855102.JPG,ISIC_8855102.JPG,false,0,keypress(z),500,489694.5,489694.1999999881,487010.26,487015.6999999881,487027.111,489717.263,8,400,6,,ISIC_0029705.JPG
break,html.Screen,4_105_1,2023-09-08T20:50:24.171Z,,0,,,NaN,,,,,,false,,,,489695.1999999881,489695,,489694.6999999881,,489717.263,8,400,,,
break_continue,html.Screen,4_105_2,2023-09-08T20:50:24.171Z,,0,,,NaN,,,,,,false,,,,489695.39999997616,489695.2999999821,,489695.2999999821,,489717.263,8,400,,,
sequence,flow.Sequence,4_105,2023-09-08T20:50:24.171Z,,0,,,2668.1889999821433,completion,,,,,false,,,,489695.5,489695.2999999821,487010.26,487015.59999999404,487027.111,489717.263,8,400,,,
trial,html.Screen,4_106_0,2023-09-08T20:50:27.194Z,,0,3,,3000.737000000023,response,ISIC_0026049.JPG,10,ISIC_1858237.JPG,ISIC_1858237.JPG,false,0,keypress(z),500,492718.09999999404,492718,489692.912,489695.59999999404,489717.263,492740.757,8,400,7,,ISIC_0026049.JPG
break,html.Screen,4_106_1,2023-09-08T20:50:27.195Z,,0,,,NaN,,,,,,false,,,,492718.6999999881,492718.5,,492718.1999999881,,492740.757,8,400,,,
break_continue,html.Screen,4_106_2,2023-09-08T20:50:27.195Z,,0,,,NaN,,,,,,false,,,,492718.89999997616,492718.89999997616,,492718.6999999881,,492740.757,8,400,,,
sequence,flow.Sequence,4_106,2023-09-08T20:50:27.195Z,,0,,,3001.636999976181,completion,,,,,false,,,,492719,492718.89999997616,489692.912,489695.5,489717.263,492740.757,8,400,,,
trial,html.Screen,4_107_0,2023-09-08T20:50:29.810Z,,0,3,,2592.942999988096,response,ISIC_1672821.JPG,10,ISIC_0032543.JPG,ISIC_1672821.JPG,false,1,keypress(m),500,495333.89999997616,495333.6999999881,492707.956,492719.09999999404,492740.757,495356.515,8,400,8,,ISIC_0032543.JPG
break,html.Screen,4_107_1,2023-09-08T20:50:29.810Z,,0,,,NaN,,,,,,false,,,,495334.5,495334.2999999821,,495334,,495356.515,8,400,,,
break_continue,html.Screen,4_107_2,2023-09-08T20:50:29.811Z,,0,,,NaN,,,,,,false,,,,495334.7999999821,495334.6999999881,,495334.59999999404,,495356.515,8,400,,,
sequence,flow.Sequence,4_107,2023-09-08T20:50:29.811Z,,0,,,2593.942999988096,completion,,,,,false,,,,495334.89999997616,495334.6999999881,492707.956,492719.09999999404,492740.757,495356.515,8,400,,,
trial,html.Screen,4_108_0,2023-09-08T20:50:32.378Z,,0,3,,2544.984999999986,response,ISIC_0070352.JPG,10,ISIC_0046977.JPG,ISIC_0046977.JPG,false,0,keypress(z),500,497901.6999999881,497901.5,495327.388,495335.09999999404,495356.515,497924.517,8,400,9,,ISIC_0070352.JPG
break,html.Screen,4_108_1,2023-09-08T20:50:32.378Z,,0,,,NaN,,,,,,false,,,,497902.5,497902.2999999821,,497901.89999997616,,497924.517,8,400,,,
break_continue,html.Screen,4_108_2,2023-09-08T20:50:32.380Z,,0,,,NaN,,,,,,false,,,,497903.7999999821,497903.6999999881,,497903.5,,497924.517,8,400,,,
sequence,flow.Sequence,4_108,2023-09-08T20:50:32.380Z,,0,,,2547.184999988065,completion,,,,,false,,,,497904,497903.6999999881,495327.388,495335.09999999404,495356.515,497924.517,8,400,,,
trial,html.Screen,4_109_0,2023-09-08T20:50:34.769Z,,0,3,,2368.782999982126,response,ISIC_3786075.JPG,9,ISIC_0063753.JPG,ISIC_3786075.JPG,false,1,keypress(m),500,500293.39999997616,500293.2999999821,497890.093,497904.09999999404,497924.517,500316.046,8,400,10,,ISIC_0063753.JPG
break,html.Screen,4_109_1,2023-09-08T20:50:34.770Z,,0,,,NaN,,,,,,false,,,,500294,500293.7999999821,,500293.5,,500316.046,8,400,,,
break_continue,html.Screen,4_109_2,2023-09-08T20:50:34.770Z,,0,,,NaN,,,,,,false,,,,500294.2999999821,500294.1999999881,,500294.09999999404,,500316.046,8,400,,,
sequence,flow.Sequence,4_109,2023-09-08T20:50:34.770Z,,0,,,2369.6829999880865,completion,,,,,false,,,,500294.5,500294.1999999881,497890.093,497904,497924.517,500316.046,8,400,,,
trial,html.Screen,4_110_0,2023-09-08T20:50:38.025Z,,0,3,,3232.954000000027,response,ISIC_0059435.JPG,10,ISIC_6255494.JPG,ISIC_6255494.JPG,false,0,keypress(z),500,503549.09999999404,503549,500277.767,500294.59999999404,500316.046,503571.792,8,400,11,,ISIC_0059435.JPG
break,html.Screen,4_110_1,2023-09-08T20:50:38.026Z,,0,,,NaN,,,,,,false,,,,503549.6999999881,503549.39999997616,,503549.2999999821,,503571.792,8,400,,,
break_continue,html.Screen,4_110_2,2023-09-08T20:50:38.026Z,,0,,,NaN,,,,,,false,,,,503549.89999997616,503549.7999999821,,503549.7999999821,,503571.792,8,400,,,
sequence,flow.Sequence,4_110,2023-09-08T20:50:38.026Z,,0,,,3233.7539999821456,completion,,,,,false,,,,503550,503549.7999999821,500277.767,500294.59999999404,500316.046,503571.792,8,400,,,
trial,html.Screen,4_111_0,2023-09-08T20:50:40.833Z,,0,3,,2784.9079999880632,response,ISIC_0030116.JPG,11,ISIC_6712342.JPG,ISIC_0030116.JPG,false,1,keypress(m),500,506356.7999999821,506356.6999999881,503548.104,503550.09999999404,503571.792,506379.482,8,400,12,,ISIC_6712342.JPG
break,html.Screen,4_111_1,2023-09-08T20:50:40.833Z,,0,,,NaN,,,,,,false,,,,506357.39999997616,506357.1999999881,,506356.89999997616,,506379.482,8,400,,,
break_continue,html.Screen,4_111_2,2023-09-08T20:50:40.833Z,,0,,,NaN,,,,,,false,,,,506357.59999999404,506357.5,,506357.5,,506379.482,8,400,,,
sequence,flow.Sequence,4_111,2023-09-08T20:50:40.834Z,,0,,,2785.707999999984,completion,,,,,false,,,,506357.6999999881,506357.5,503548.104,503550.09999999404,503571.792,506379.482,8,400,,,
trial,html.Screen,4_112_0,2023-09-08T20:50:43.617Z,,0,3,,2761.217999988061,response,ISIC_2074764.JPG,5,ISIC_2395624.JPG,ISIC_2074764.JPG,false,1,keypress(m),500,509140.7999999821,509140.6999999881,506355.017,506357.7999999821,506379.482,509163.491,8,400,13,,ISIC_2395624.JPG
break,html.Screen,4_112_1,2023-09-08T20:50:43.617Z,,0,,,NaN,,,,,,false,,,,509141.39999997616,509141.2999999821,,509140.89999997616,,509163.491,8,400,,,
break_continue,html.Screen,4_112_2,2023-09-08T20:50:43.618Z,,0,,,NaN,,,,,,false,,,,509141.6999999881,509141.59999999404,,509141.5,,509163.491,8,400,,,
sequence,flow.Sequence,4_112,2023-09-08T20:50:43.618Z,,0,,,2762.1179999940214,completion,,,,,false,,,,509141.89999997616,509141.59999999404,506355.017,506357.7999999821,506379.482,509163.491,8,400,,,
trial,html.Screen,4_113_0,2023-09-08T20:50:46.425Z,,0,3,,2785.50900000002,response,ISIC_0072559.JPG,11,ISIC_3506204.JPG,ISIC_3506204.JPG,false,0,keypress(z),500,511949.39999997616,511949,509127.291,509142.09999999404,509163.491,511972.07,8,400,14,,ISIC_0072559.JPG
break,html.Screen,4_113_1,2023-09-08T20:50:46.426Z,,0,,,NaN,,,,,,false,,,,511950.09999999404,511949.7999999821,,511949.39999997616,,511972.07,8,400,,,
break_continue,html.Screen,4_113_2,2023-09-08T20:50:46.426Z,,0,,,NaN,,,,,,false,,,,511950.2999999821,511950.2999999821,,511950.09999999404,,511972.07,8,400,,,
sequence,flow.Sequence,4_113,2023-09-08T20:50:46.426Z,,0,,,2786.8089999821386,completion,,,,,false,,,,511950.39999997616,511950.2999999821,509127.291,509142.09999999404,509163.491,511972.07,8,400,,,
trial,html.Screen,4_114_0,2023-09-08T20:50:49.441Z,,0,3,,2992.829999976151,response,ISIC_0063026.JPG,10,ISIC_0758797.JPG,ISIC_0758797.JPG,false,0,keypress(z),500,514965.09999999404,514964.89999997616,511938.336,511950.5,511972.07,514987.842,8,400,15,,ISIC_0063026.JPG
break,html.Screen,4_114_1,2023-09-08T20:50:49.442Z,,0,,,NaN,,,,,,false,,,,514965.89999997616,514965.6999999881,,514965.2999999821,,514987.842,8,400,,,
break_continue,html.Screen,4_114_2,2023-09-08T20:50:49.442Z,,0,,,NaN,,,,,,false,,,,514966.09999999404,514966,,514965.89999997616,,514987.842,8,400,,,
sequence,flow.Sequence,4_114,2023-09-08T20:50:49.442Z,,0,,,2993.929999999993,completion,,,,,false,,,,514966.1999999881,514966,511938.336,511950.39999997616,511972.07,514987.842,8,400,,,
trial,html.Screen,4_115_0,2023-09-08T20:50:53.384Z,,0,3,,3920.657999999996,response,ISIC_0025955.JPG,11,ISIC_0222117.JPG,ISIC_0025955.JPG,false,1,keypress(m),500,518908.6999999881,518908.5,514951.151,514966.2999999821,514987.842,518931.338,8,400,16,,ISIC_0222117.JPG
break,html.Screen,4_115_1,2023-09-08T20:50:53.385Z,,0,,,NaN,,,,,,false,,,,518909.1999999881,518909,,518908.7999999821,,518931.338,8,400,,,
break_continue,html.Screen,4_115_2,2023-09-08T20:50:53.385Z,,0,,,NaN,,,,,,false,,,,518909.39999997616,518909.2999999821,,518909.2999999821,,518931.338,8,400,,,
sequence,flow.Sequence,4_115,2023-09-08T20:50:53.385Z,,0,,,3921.4579999821144,completion,,,,,false,,,,518909.5,518909.2999999821,514951.151,514966.2999999821,514987.842,518931.338,8,400,,,
trial,html.Screen,4_116_0,2023-09-08T20:50:56.128Z,,0,3,,2721.162000000011,response,ISIC_9351418.JPG,10,ISIC_8296881.JPG,ISIC_8296881.JPG,false,0,keypress(z),500,521652.59999999404,521652.5,518894.113,518909.59999999404,518931.338,521675.3,8,400,17,,ISIC_9351418.JPG
break,html.Screen,4_116_1,2023-09-08T20:50:56.129Z,,0,,,NaN,,,,,,false,,,,521653.1999999881,521653,,521652.7999999821,,521675.3,8,400,,,
break_continue,html.Screen,4_116_2,2023-09-08T20:50:56.129Z,,0,,,NaN,,,,,,false,,,,521653.39999997616,521653.2999999821,,521653.2999999821,,521675.3,8,400,,,
sequence,flow.Sequence,4_116,2023-09-08T20:50:56.129Z,,0,,,2721.96199998213,completion,,,,,false,,,,521653.59999999404,521653.2999999821,518894.113,518909.59999999404,518931.338,521675.3,8,400,,,
trial,html.Screen,4_117_0,2023-09-08T20:50:58.889Z,,0,3,,2737.2000000000116,response,ISIC_1927858.JPG,10,ISIC_1308649.JPG,ISIC_1927858.JPG,false,1,keypress(m),500,524412.6999999881,524412.5,521650.301,521653.59999999404,521675.3,524435.316,8,400,18,,ISIC_1308649.JPG
break,html.Screen,4_117_1,2023-09-08T20:50:58.889Z,,0,,,NaN,,,,,,false,,,,524413.2999999821,524413.099999994,,524412.7999999821,,524435.316,8,400,,,
break_continue,html.Screen,4_117_2,2023-09-08T20:50:58.889Z,,0,,,NaN,,,,,,false,,,,524413.599999994,524413.5,,524413.3999999762,,524435.316,8,400,,,
sequence,flow.Sequence,4_117,2023-09-08T20:50:58.890Z,,0,,,2738.2000000000116,completion,,,,,false,,,,524413.6999999881,524413.5,521650.301,521653.59999999404,521675.3,524435.316,8,400,,,
trial,html.Screen,4_118_0,2023-09-08T20:51:02.209Z,,0,3,,3297.283999994048,response,ISIC_0003201.JPG,11,ISIC_0070435.JPG,ISIC_0003201.JPG,false,1,keypress(m),500,527732.7999999821,527732.599999994,524409.207,524413.7999999821,524435.316,527755.47,8,400,19,,ISIC_0070435.JPG
break,html.Screen,4_118_1,2023-09-08T20:51:02.209Z,,0,,,NaN,,,,,,false,,,,527733.2999999821,527733.099999994,,527732.8999999762,,527755.47,8,400,,,
break_continue,html.Screen,4_118_2,2023-09-08T20:51:02.209Z,,0,,,NaN,,,,,,false,,,,527733.599999994,527733.5,,527733.3999999762,,527755.47,8,400,,,
sequence,flow.Sequence,4_118,2023-09-08T20:51:02.210Z,,0,,,3298.1840000000084,completion,,,,,false,,,,527733.6999999881,527733.5,524409.207,524413.7999999821,524435.316,527755.47,8,400,,,
trial,html.Screen,4_119_0,2023-09-08T20:51:05.512Z,,0,3,,3280.8299999821465,response,ISIC_0010411.JPG,10,ISIC_0067697.JPG,ISIC_0010411.JPG,false,1,keypress(m),500,531036.5,531036.2999999821,527716.515,527733.7999999821,527755.47,531059.344,8,400,20,,ISIC_0067697.JPG
break,html.Screen,4_119_1,2023-09-08T20:51:05.513Z,,0,,,NaN,,,,,,false,,,,531037.2999999821,531037.099999994,,531036.6999999881,,531059.344,8,400,,,
break_continue,html.Screen,4_119_2,2023-09-08T20:51:05.513Z,,0,,,NaN,,,,,,false,,,,531037.599999994,531037.5,,531037.3999999762,,531059.344,8,400,,,
sequence,flow.Sequence,4_119,2023-09-08T20:51:05.514Z,,0,,,3282.030000000028,completion,,,,,false,,,,531037.6999999881,531037.5,527716.515,527733.7999999821,527755.47,531059.344,8,400,,,
trial,html.Screen,4_120_0,2023-09-08T20:51:08.440Z,,0,3,,2904.655999999959,response,ISIC_0034222.JPG,10,ISIC_0029950.JPG,ISIC_0029950.JPG,false,0,keypress(z),500,533964.2999999821,533964,531035.601,531037.8999999762,531059.344,533987.002,8,400,21,,ISIC_0034222.JPG
break,html.Screen,4_120_1,2023-09-08T20:51:08.441Z,,0,,,NaN,,,,,,false,,,,533964.8999999762,533964.6999999881,,533964.5,,533987.002,8,400,,,
break_continue,html.Screen,4_120_2,2023-09-08T20:51:08.441Z,,0,,,NaN,,,,,,false,,,,533965.099999994,533965.099999994,,533965,,533987.002,8,400,,,
sequence,flow.Sequence,4_120,2023-09-08T20:51:08.441Z,,0,,,2905.7559999939986,completion,,,,,false,,,,533965.1999999881,533965.099999994,531035.601,531037.7999999821,531059.344,533987.002,8,400,,,
trial,html.Screen,4_121_0,2023-09-08T20:51:11.104Z,,0,3,,2640.6979999881005,response,ISIC_8674332.JPG,10,ISIC_0027683.JPG,ISIC_0027683.JPG,false,0,keypress(z),500,536627.8999999762,536627.6999999881,533950.04,533965.2999999821,533987.002,536650.584,8,400,22,,ISIC_8674332.JPG
break,html.Screen,4_121_1,2023-09-08T20:51:11.104Z,,0,,,NaN,,,,,,false,,,,536628.5,536628.1999999881,,536628,,536650.584,8,400,,,
break_continue,html.Screen,4_121_2,2023-09-08T20:51:11.105Z,,0,,,NaN,,,,,,false,,,,536628.6999999881,536628.599999994,,536628.5,,536650.584,8,400,,,
sequence,flow.Sequence,4_121,2023-09-08T20:51:11.105Z,,0,,,2641.597999994061,completion,,,,,false,,,,536628.7999999821,536628.599999994,533950.04,533965.2999999821,533987.002,536650.584,8,400,,,
trial,html.Screen,4_122_0,2023-09-08T20:51:14.711Z,,0,3,,3584.8159999761265,response,ISIC_2702929.JPG,10,ISIC_0063745.JPG,ISIC_2702929.JPG,false,1,keypress(m),500,540235.599999994,540235.3999999762,536627.597,536628.8999999762,536650.584,540258.29,8,400,23,,ISIC_0063745.JPG
break,html.Screen,4_122_1,2023-09-08T20:51:14.712Z,,0,,,NaN,,,,,,false,,,,540236.099999994,540236,,540235.7999999821,,540258.29,8,400,,,
break_continue,html.Screen,4_122_2,2023-09-08T20:51:14.712Z,,0,,,NaN,,,,,,false,,,,540236.3999999762,540236.3999999762,,540236.2999999821,,540258.29,8,400,,,
sequence,flow.Sequence,4_122,2023-09-08T20:51:14.712Z,,0,,,3585.8159999761265,completion,,,,,false,,,,540236.5,540236.3999999762,536627.597,536628.8999999762,536650.584,540258.29,8,400,,,
trial,html.Screen,4_123_0,2023-09-08T20:51:17.759Z,,0,3,,3024.909999988042,response,ISIC_0065324.JPG,10,ISIC_2969968.JPG,ISIC_2969968.JPG,false,0,keypress(z),500,543283.3999999762,543283.1999999881,540225.151,540236.599999994,540258.29,543306.031,8,400,24,,ISIC_0065324.JPG
break,html.Screen,4_123_1,2023-09-08T20:51:17.760Z,,0,,,NaN,,,,,,false,,,,543283.8999999762,543283.6999999881,,543283.5,,543306.031,8,400,,,
break_continue,html.Screen,4_123_2,2023-09-08T20:51:17.760Z,,0,,,NaN,,,,,,false,,,,543284.099999994,543284,,543284,,543306.031,8,400,,,
sequence,flow.Sequence,4_123,2023-09-08T20:51:17.760Z,,0,,,3025.7099999999627,completion,,,,,false,,,,543284.2999999821,543284,540225.151,540236.599999994,540258.29,543306.031,8,400,,,
trial,html.Screen,4_124_0,2023-09-08T20:51:22.423Z,,0,3,,4640.66899998812,response,ISIC_0047031.JPG,10,ISIC_0032561.JPG,ISIC_0032561.JPG,false,0,keypress(z),500,547946.7999999821,547946.6999999881,543267.787,543284.3999999762,543306.031,547969.558,8,400,25,,ISIC_0047031.JPG
break,html.Screen,4_124_1,2023-09-08T20:51:22.423Z,,0,,,NaN,,,,,,false,,,,547947.5,547947.2999999821,,547947,,547969.558,8,400,,,
break_continue,html.Screen,4_124_2,2023-09-08T20:51:22.424Z,,0,,,NaN,,,,,,false,,,,547947.6999999881,547947.599999994,,547947.5,,547969.558,8,400,,,
sequence,flow.Sequence,4_124,2023-09-08T20:51:22.424Z,,0,,,4641.5689999940805,completion,,,,,false,,,,547947.7999999821,547947.599999994,543267.787,543284.2999999821,543306.031,547969.558,8,400,,,
trial,html.Screen,4_125_0,2023-09-08T20:51:25.022Z,,0,3,,2576.8419999761973,response,ISIC_2935987.JPG,10,ISIC_0032779.JPG,ISIC_2935987.JPG,false,1,keypress(m),500,550546.599999994,550546.3999999762,547936.278,547947.8999999762,547969.558,550569.302,8,400,26,,ISIC_0032779.JPG
break,html.Screen,4_125_1,2023-09-08T20:51:25.023Z,,0,,,NaN,,,,,,false,,,,550547.2999999821,550546.8999999762,,550546.7999999821,,550569.302,8,400,,,
