sender,sender_type,sender_id,timestamp,meta,,blockNo,condition,duration,ended_on,img_left,img_reveal,img_right,loser,practice,response,response_action,selection_duration,time_commit,time_end,time_render,time_run,time_show,time_switch,total_blocks,total_trials,trialNo,url,winner
informed_consent,html.Screen,0,2023-09-16T21:12:02.167Z,"{""labjs_version"":""20.2.4"",""labjs_build"":{""flavor"":""production"",""commit"":""f5b4a49f956347addd546a832a3327688c2c0fef""},""location"":""https://run.pavlovia.org/MurrayBennett/melanoma-2afc/?participant=67344&platform=sona"",""userAgent"":""Mozilla/5.0 (Macintosh; Intel Mac OS X 10_15_7) AppleWebKit/605.1.15 (KHTML, like Gecko) Version/16.1 Safari/605.1.15"",""platform"":""MacIntel"",""language"":""en-US"",""locale"":""en-US"",""timeZone"":""America/Chicago"",""timezoneOffset"":300,""screen_width"":1440,""screen_height"":900,""scroll_width"":1264,""scroll_height"":643,""window_innerWidth"":1264,""window_innerHeight"":691,""devicePixelRatio"":2}",,,,2652,response,,,,,,consent,click button,,5428,5269,2617,2579,2673,5455,,,,"{""participant"":""67344"",""platform"":""sona""}",
Welcome,html.Screen,1,2023-09-16T21:12:22.757Z,,,,colourful,20417,response,,,,,,continue,click button,,26017,25860,5443,5428,5455,26047,,,,,
trial,html.Screen,2_0_0,2023-09-16T21:12:33.939Z,,0,0,,11168,response,ISIC_0025593.JPG,,ISIC_0063388.JPG,ISIC_0063388.JPG,true,0,keypress(z),500,37199,37199,26031,26017,26047,37231,1,6,1,,ISIC_0025593.JPG
sequence,flow.Sequence,2_0,2023-09-16T21:12:33.940Z,,0,,,11152,completion,,,,,true,,,,37200,37199,26031,26017,26047,37231,1,6,,,
trial,html.Screen,2_1_0,2023-09-16T21:12:45.454Z,,0,0,,11517,timeout,ISIC_0028178.JPG,,ISIC_1309015.JPG,,true,,,500,48714,48714,37214,37200,37231,48748,1,6,2,,
sequence,flow.Sequence,2_1,2023-09-16T21:12:45.455Z,,0,,,11483,completion,,,,,true,,,,48714,48714,37214,37200,37231,48748,1,6,,,
trial,html.Screen,2_2_0,2023-09-16T21:12:53.475Z,,0,0,,8004,response,ISIC_0031128.JPG,,ISIC_3314853.JPG,ISIC_3314853.JPG,true,0,keypress(z),500,56735,56735,48731,48714,48748,56764,1,6,3,,ISIC_0031128.JPG
sequence,flow.Sequence,2_2,2023-09-16T21:12:53.476Z,,0,,,7987,completion,,,,,true,,,,56735,56735,48731,48714,48748,56764,1,6,,,
trial,html.Screen,2_3_0,2023-09-16T21:13:01.395Z,,0,0,,7908,response,ISIC_8980141.JPG,,ISIC_0031612.JPG,ISIC_8980141.JPG,true,1,keypress(m),500,64654,64654,56746,56735,56764,64680,1,6,4,,ISIC_0031612.JPG
sequence,flow.Sequence,2_3,2023-09-16T21:13:01.395Z,,0,,,7890,completion,,,,,true,,,,64654,64654,56746,56735,56764,64680,1,6,,,
trial,html.Screen,2_4_0,2023-09-16T21:13:07.150Z,,0,0,,5745,response,ISIC_9721604.JPG,,ISIC_1197737.JPG,ISIC_9721604.JPG,true,1,keypress(m),500,70408,70408,64663,64655,64680,70430,1,6,5,,ISIC_1197737.JPG
sequence,flow.Sequence,2_4,2023-09-16T21:13:07.150Z,,0,,,5728,completion,,,,,true,,,,70409,70408,64663,64655,64680,70430,1,6,,,
trial,html.Screen,2_5_0,2023-09-16T21:13:12.845Z,,0,0,,5690.000000000015,response,ISIC_0010681.JPG,,ISIC_0025346.JPG,ISIC_0025346.JPG,true,0,keypress(z),500,76103.00000000001,76103.00000000001,70413,70409,70430,76130,1,6,6,,ISIC_0010681.JPG
sequence,flow.Sequence,2_5,2023-09-16T21:13:12.845Z,,0,,,5673.000000000015,completion,,,,,true,,,,76104,76103.00000000001,70413,70409,70430,76130,1,6,,,
loop,flow.Loop,2,2023-09-16T21:13:12.845Z,,,,,50056.000000000015,completion,,,,,true,,,,76104,76103.00000000001,26031,26017,26047,76130,1,6,,,
exp_instructions,html.Screen,3,2023-09-16T21:13:50.521Z,,,,,37516,response,,,,,,continue,keypress(Space),,113778,113629,76113,76104,76130,113813,,,,,
trial,html.Screen,4_0_0,2023-09-16T21:13:55.099Z,,0,1,,4560.000000000015,response,ISIC_0029433.JPG,3,ISIC_2867416.JPG,ISIC_2867416.JPG,false,0,keypress(z),500,118356.00000000001,118356.00000000001,113796,113778,113813,118380,8,400,1,,ISIC_0029433.JPG
break,html.Screen,4_0_1,2023-09-16T21:13:55.100Z,,0,,,NaN,,,,,,false,,,,118357,118357,,118356.00000000001,,118380,8,400,,,
break_continue,html.Screen,4_0_2,2023-09-16T21:13:55.100Z,,0,,,NaN,,,,,,false,,,,118357,118357,,118357,,118380,8,400,,,
sequence,flow.Sequence,4_0,2023-09-16T21:13:55.100Z,,0,,,4544,completion,,,,,false,,,,118358,118357,113796,113778,113813,118380,8,400,,,
trial,html.Screen,4_1_0,2023-09-16T21:14:00.052Z,,0,1,,4946,response,ISIC_0188432.JPG,4,ISIC_0061829.JPG,ISIC_0188432.JPG,false,1,keypress(m),500,123309,123309,118363,118358,118380,123345,8,400,2,,ISIC_0061829.JPG
break,html.Screen,4_1_1,2023-09-16T21:14:00.053Z,,0,,,NaN,,,,,,false,,,,123310,123310,,123309,,123345,8,400,,,
break_continue,html.Screen,4_1_2,2023-09-16T21:14:00.053Z,,0,,,NaN,,,,,,false,,,,123311,123310,,123310,,123345,8,400,,,
sequence,flow.Sequence,4_1,2023-09-16T21:14:00.053Z,,0,,,4930,completion,,,,,false,,,,123311,123310,118363,118358,118380,123345,8,400,,,
trial,html.Screen,4_2_0,2023-09-16T21:14:05.635Z,,0,1,,5563,response,ISIC_0897248.JPG,1,ISIC_0813423.JPG,ISIC_0897248.JPG,false,1,keypress(m),500,128892,128892,123329,123311,123345,128929,8,400,3,,ISIC_0813423.JPG
break,html.Screen,4_2_1,2023-09-16T21:14:05.635Z,,0,,,NaN,,,,,,false,,,,128893,128892,,128892,,128929,8,400,,,
break_continue,html.Screen,4_2_2,2023-09-16T21:14:05.636Z,,0,,,NaN,,,,,,false,,,,128893,128893,,128893,,128929,8,400,,,
sequence,flow.Sequence,4_2,2023-09-16T21:14:05.636Z,,0,,,5548,completion,,,,,false,,,,128893,128893,123329,123311,123345,128929,8,400,,,
trial,html.Screen,4_3_0,2023-09-16T21:14:11.548Z,,0,1,,5893,response,ISIC_2520840.JPG,2,ISIC_4394524.JPG,ISIC_4394524.JPG,false,0,keypress(z),500,134805,134805,128912,128893,128929,134829,8,400,4,,ISIC_2520840.JPG
break,html.Screen,4_3_1,2023-09-16T21:14:11.549Z,,0,,,NaN,,,,,,false,,,,134806,134806,,134806,,134829,8,400,,,
break_continue,html.Screen,4_3_2,2023-09-16T21:14:11.550Z,,0,,,NaN,,,,,,false,,,,134807.00000000003,134806,,134806,,134829,8,400,,,
sequence,flow.Sequence,4_3,2023-09-16T21:14:11.550Z,,0,,,5877,completion,,,,,false,,,,134807.00000000003,134806,128912,128893,128929,134829,8,400,,,
trial,html.Screen,4_4_0,2023-09-16T21:14:19.509Z,,0,1,,7953,response,ISIC_0028508.JPG,3,ISIC_0033399.JPG,ISIC_0028508.JPG,false,1,keypress(m),500,142766,142766,134813,134807.00000000003,134829,142796,8,400,5,,ISIC_0033399.JPG
break,html.Screen,4_4_1,2023-09-16T21:14:19.510Z,,0,,,NaN,,,,,,false,,,,142767,142767,,142766,,142796,8,400,,,
break_continue,html.Screen,4_4_2,2023-09-16T21:14:19.511Z,,0,,,NaN,,,,,,false,,,,142767,142767,,142767,,142796,8,400,,,
sequence,flow.Sequence,4_4,2023-09-16T21:14:19.511Z,,0,,,7938,completion,,,,,false,,,,142767,142767,134813,134807.00000000003,134829,142796,8,400,,,
trial,html.Screen,4_5_0,2023-09-16T21:14:24.136Z,,0,1,,4612,response,ISIC_4641968.JPG,4,ISIC_7183212.JPG,ISIC_7183212.JPG,false,0,keypress(z),500,147393,147392,142780,142768,142796,147428,8,400,6,,ISIC_4641968.JPG
break,html.Screen,4_5_1,2023-09-16T21:14:24.137Z,,0,,,NaN,,,,,,false,,,,147393,147393,,147393,,147428,8,400,,,
break_continue,html.Screen,4_5_2,2023-09-16T21:14:24.137Z,,0,,,NaN,,,,,,false,,,,147394,147394,,147393,,147428,8,400,,,
sequence,flow.Sequence,4_5,2023-09-16T21:14:24.137Z,,0,,,4598,completion,,,,,false,,,,147394,147394,142780,142768,142796,147428,8,400,,,
trial,html.Screen,4_6_0,2023-09-16T21:14:28.258Z,,0,1,,4102,response,ISIC_0057696.JPG,4,ISIC_8015541.JPG,ISIC_8015541.JPG,false,0,keypress(z),500,151514,151514,147412,147394,147428,151546,8,400,7,,ISIC_0057696.JPG
break,html.Screen,4_6_1,2023-09-16T21:14:28.258Z,,0,,,NaN,,,,,,false,,,,151515.00000000003,151515.00000000003,,151514,,151546,8,400,,,
break_continue,html.Screen,4_6_2,2023-09-16T21:14:28.259Z,,0,,,NaN,,,,,,false,,,,151515.00000000003,151515.00000000003,,151515.00000000003,,151546,8,400,,,
sequence,flow.Sequence,4_6,2023-09-16T21:14:28.259Z,,0,,,4087.000000000029,completion,,,,,false,,,,151515.00000000003,151515.00000000003,147412,147394,147428,151546,8,400,,,
trial,html.Screen,4_7_0,2023-09-16T21:14:32.957Z,,0,1,,4684,response,ISIC_7555812.JPG,16,ISIC_6588853.JPG,ISIC_7555812.JPG,false,1,keypress(m),500,156213,156213,151529,151516,151546,156245,8,400,8,,ISIC_6588853.JPG
break,html.Screen,4_7_1,2023-09-16T21:14:32.958Z,,0,,,NaN,,,,,,false,,,,156214,156214,,156213,,156245,8,400,,,
break_continue,html.Screen,4_7_2,2023-09-16T21:14:32.958Z,,0,,,NaN,,,,,,false,,,,156214,156214,,156214,,156245,8,400,,,
sequence,flow.Sequence,4_7,2023-09-16T21:14:32.958Z,,0,,,4668,completion,,,,,false,,,,156214,156214,151529,151516,151546,156245,8,400,,,
trial,html.Screen,4_8_0,2023-09-16T21:14:37.131Z,,0,1,,4158,response,ISIC_1552232.JPG,0,ISIC_8174881.JPG,ISIC_8174881.JPG,false,0,keypress(z),500,160387,160387,156229,156214,156245,160412,8,400,9,,ISIC_1552232.JPG
break,html.Screen,4_8_1,2023-09-16T21:14:37.132Z,,0,,,NaN,,,,,,false,,,,160388,160388,,160387,,160412,8,400,,,
break_continue,html.Screen,4_8_2,2023-09-16T21:14:37.132Z,,0,,,NaN,,,,,,false,,,,160388,160388,,160388,,160412,8,400,,,
sequence,flow.Sequence,4_8,2023-09-16T21:14:37.132Z,,0,,,4143,completion,,,,,false,,,,160388,160388,156229,156214,156245,160412,8,400,,,
trial,html.Screen,4_9_0,2023-09-16T21:14:41.415Z,,0,1,,4274.000000000029,response,ISIC_0059052.JPG,8,ISIC_0028597.JPG,ISIC_0028597.JPG,false,0,keypress(z),500,164671,164670.00000000003,160396,160388,160412,164695,8,400,10,,ISIC_0059052.JPG
break,html.Screen,4_9_1,2023-09-16T21:14:41.415Z,,0,,,NaN,,,,,,false,,,,164672,164671,,164671,,164695,8,400,,,
break_continue,html.Screen,4_9_2,2023-09-16T21:14:41.416Z,,0,,,NaN,,,,,,false,,,,164672,164672,,164672,,164695,8,400,,,
sequence,flow.Sequence,4_9,2023-09-16T21:14:41.416Z,,0,,,4260,completion,,,,,false,,,,164672,164672,160396,160388,160412,164695,8,400,,,
trial,html.Screen,4_10_0,2023-09-16T21:14:46.016Z,,0,1,,4592.000000000029,response,ISIC_9019691.JPG,4,ISIC_6284012.JPG,ISIC_9019691.JPG,false,1,keypress(m),500,169272,169271.00000000003,164679,164672,164695,169295,8,400,11,,ISIC_6284012.JPG
break,html.Screen,4_10_1,2023-09-16T21:14:46.016Z,,0,,,NaN,,,,,,false,,,,169272,169272,,169272,,169295,8,400,,,
break_continue,html.Screen,4_10_2,2023-09-16T21:14:46.017Z,,0,,,NaN,,,,,,false,,,,169273,169273,,169272,,169295,8,400,,,
sequence,flow.Sequence,4_10,2023-09-16T21:14:46.017Z,,0,,,4578,completion,,,,,false,,,,169273,169273,164679,164672,164695,169295,8,400,,,
trial,html.Screen,4_11_0,2023-09-16T21:14:49.118Z,,0,1,,3094,response,ISIC_0015045.JPG,4,ISIC_0527170.JPG,ISIC_0527170.JPG,false,0,keypress(z),500,172374,172373,169279,169273,169295,172395,8,400,12,,ISIC_0015045.JPG
break,html.Screen,4_11_1,2023-09-16T21:14:49.119Z,,0,,,NaN,,,,,,false,,,,172374,172374,,172374,,172395,8,400,,,
break_continue,html.Screen,4_11_2,2023-09-16T21:14:49.119Z,,0,,,NaN,,,,,,false,,,,172375,172375,,172375,,172395,8,400,,,
sequence,flow.Sequence,4_11,2023-09-16T21:14:49.119Z,,0,,,3080,completion,,,,,false,,,,172375,172375,169279,169273,169295,172395,8,400,,,
trial,html.Screen,4_12_0,2023-09-16T21:14:54.096Z,,0,1,,4972,response,ISIC_8990907.JPG,1,ISIC_0033086.JPG,ISIC_0033086.JPG,false,0,keypress(z),500,177352,177351,172379,172375,172395,177379,8,400,13,,ISIC_8990907.JPG
break,html.Screen,4_12_1,2023-09-16T21:14:54.097Z,,0,,,NaN,,,,,,false,,,,177352,177352,,177352,,177379,8,400,,,
break_continue,html.Screen,4_12_2,2023-09-16T21:14:54.097Z,,0,,,NaN,,,,,,false,,,,177353,177352,,177352,,177379,8,400,,,
sequence,flow.Sequence,4_12,2023-09-16T21:14:54.097Z,,0,,,4957,completion,,,,,false,,,,177353,177352,172379,172375,172395,177379,8,400,,,
trial,html.Screen,4_13_0,2023-09-16T21:14:57.753Z,,0,1,,3647,response,ISIC_1752943.JPG,13,ISIC_3133127.JPG,ISIC_3133127.JPG,false,0,keypress(z),500,181009,181009,177362,177353,177379,181046,8,400,14,,ISIC_1752943.JPG
break,html.Screen,4_13_1,2023-09-16T21:14:57.754Z,,0,,,NaN,,,,,,false,,,,181010,181010,,181009,,181046,8,400,,,
break_continue,html.Screen,4_13_2,2023-09-16T21:14:57.754Z,,0,,,NaN,,,,,,false,,,,181010,181010,,181010,,181046,8,400,,,
sequence,flow.Sequence,4_13,2023-09-16T21:14:57.754Z,,0,,,3631,completion,,,,,false,,,,181010,181010,177362,177353,177379,181046,8,400,,,
trial,html.Screen,4_14_0,2023-09-16T21:15:01.977Z,,0,1,,4204,response,ISIC_0061231.JPG,4,ISIC_0014088.JPG,ISIC_0014088.JPG,false,0,keypress(z),500,185232,185232,181028,181010,181046,185261,8,400,15,,ISIC_0061231.JPG
break,html.Screen,4_14_1,2023-09-16T21:15:01.977Z,,0,,,NaN,,,,,,false,,,,185233,185233,,185232,,185261,8,400,,,
break_continue,html.Screen,4_14_2,2023-09-16T21:15:01.978Z,,0,,,NaN,,,,,,false,,,,185233,185233,,185233,,185261,8,400,,,
sequence,flow.Sequence,4_14,2023-09-16T21:15:01.978Z,,0,,,4187,completion,,,,,false,,,,185233,185233,181028,181010,181046,185261,8,400,,,
trial,html.Screen,4_15_0,2023-09-16T21:15:05.552Z,,0,1,,3561.000000000029,response,ISIC_1911193.JPG,7,ISIC_0066401.JPG,ISIC_1911193.JPG,false,1,keypress(m),500,188808,188807.00000000003,185246,185233,185261,188828,8,400,16,,ISIC_0066401.JPG
break,html.Screen,4_15_1,2023-09-16T21:15:05.553Z,,0,,,NaN,,,,,,false,,,,188808,188808,,188808,,188828,8,400,,,
break_continue,html.Screen,4_15_2,2023-09-16T21:15:05.553Z,,0,,,NaN,,,,,,false,,,,188809,188808,,188808,,188828,8,400,,,
sequence,flow.Sequence,4_15,2023-09-16T21:15:05.553Z,,0,,,3547,completion,,,,,false,,,,188809,188808,185246,185233,185261,188828,8,400,,,
trial,html.Screen,4_16_0,2023-09-16T21:15:09.558Z,,0,1,,4001.000000000029,response,ISIC_7284399.JPG,11,ISIC_3466769.JPG,ISIC_3466769.JPG,false,0,keypress(z),500,192813.00000000003,192813.00000000003,188812,188809,188828,192844,8,400,17,,ISIC_7284399.JPG
break,html.Screen,4_16_1,2023-09-16T21:15:09.559Z,,0,,,NaN,,,,,,false,,,,192814,192814,,192813.00000000003,,192844,8,400,,,
break_continue,html.Screen,4_16_2,2023-09-16T21:15:09.559Z,,0,,,NaN,,,,,,false,,,,192814,192814,,192814,,192844,8,400,,,
sequence,flow.Sequence,4_16,2023-09-16T21:15:09.559Z,,0,,,3986,completion,,,,,false,,,,192814,192814,188812,188809,188828,192844,8,400,,,
trial,html.Screen,4_17_0,2023-09-16T21:15:13.122Z,,0,1,,3549,response,ISIC_0028114.JPG,9,ISIC_7260492.JPG,ISIC_7260492.JPG,false,0,keypress(z),500,196377,196377,192828,192814,192844,196412,8,400,18,,ISIC_0028114.JPG
break,html.Screen,4_17_1,2023-09-16T21:15:13.123Z,,0,,,NaN,,,,,,false,,,,196378,196378,,196377,,196412,8,400,,,
break_continue,html.Screen,4_17_2,2023-09-16T21:15:13.123Z,,0,,,NaN,,,,,,false,,,,196378,196378,,196378,,196412,8,400,,,
sequence,flow.Sequence,4_17,2023-09-16T21:15:13.123Z,,0,,,3534,completion,,,,,false,,,,196378,196378,192828,192814,192844,196412,8,400,,,
trial,html.Screen,4_18_0,2023-09-16T21:15:17.112Z,,0,1,,3971,response,ISIC_2238901.JPG,5,ISIC_0068633.JPG,ISIC_2238901.JPG,false,1,keypress(m),500,200367,200367,196396,196378,196412,200395,8,400,19,,ISIC_0068633.JPG
break,html.Screen,4_18_1,2023-09-16T21:15:17.113Z,,0,,,NaN,,,,,,false,,,,200368,200368,,200368,,200395,8,400,,,
break_continue,html.Screen,4_18_2,2023-09-16T21:15:17.114Z,,0,,,NaN,,,,,,false,,,,200369,200369,,200368,,200395,8,400,,,
sequence,flow.Sequence,4_18,2023-09-16T21:15:17.114Z,,0,,,3957,completion,,,,,false,,,,200369,200369,196396,196378,196412,200395,8,400,,,
trial,html.Screen,4_19_0,2023-09-16T21:15:20.560Z,,0,1,,3436,response,ISIC_2449919.JPG,2,ISIC_0071457.JPG,ISIC_2449919.JPG,false,1,keypress(m),500,203815,203815,200379,200369,200395,203845,8,400,20,,ISIC_0071457.JPG
break,html.Screen,4_19_1,2023-09-16T21:15:20.561Z,,0,,,NaN,,,,,,false,,,,203816,203816,,203815,,203845,8,400,,,
break_continue,html.Screen,4_19_2,2023-09-16T21:15:20.561Z,,0,,,NaN,,,,,,false,,,,203816,203816,,203816,,203845,8,400,,,
sequence,flow.Sequence,4_19,2023-09-16T21:15:20.561Z,,0,,,3421,completion,,,,,false,,,,203816,203816,200379,200369,200395,203845,8,400,,,
trial,html.Screen,4_20_0,2023-09-16T21:15:24.957Z,,0,1,,4382,response,ISIC_0010649.JPG,9,ISIC_0031649.JPG,ISIC_0031649.JPG,false,0,keypress(z),500,208211,208211,203829,203816,203845,208245,8,400,21,,ISIC_0010649.JPG
break,html.Screen,4_20_1,2023-09-16T21:15:24.957Z,,0,,,NaN,,,,,,false,,,,208212.00000000003,208212.00000000003,,208212.00000000003,,208245,8,400,,,
break_continue,html.Screen,4_20_2,2023-09-16T21:15:24.958Z,,0,,,NaN,,,,,,false,,,,208212.00000000003,208212.00000000003,,208212.00000000003,,208245,8,400,,,
sequence,flow.Sequence,4_20,2023-09-16T21:15:24.958Z,,0,,,4367.000000000029,completion,,,,,false,,,,208213,208212.00000000003,203829,203816,203845,208245,8,400,,,
trial,html.Screen,4_21_0,2023-09-16T21:15:29.006Z,,0,1,,4031,response,ISIC_9969907.JPG,6,ISIC_0046921.JPG,ISIC_9969907.JPG,false,1,keypress(m),500,212260,212260,208229,208213,208245,212295,8,400,22,,ISIC_0046921.JPG
break,html.Screen,4_21_1,2023-09-16T21:15:29.006Z,,0,,,NaN,,,,,,false,,,,212261,212261,,212260,,212295,8,400,,,
break_continue,html.Screen,4_21_2,2023-09-16T21:15:29.006Z,,0,,,NaN,,,,,,false,,,,212261,212261,,212261,,212295,8,400,,,
sequence,flow.Sequence,4_21,2023-09-16T21:15:29.007Z,,0,,,4016,completion,,,,,false,,,,212261,212261,208229,208213,208245,212295,8,400,,,
trial,html.Screen,4_22_0,2023-09-16T21:15:33.879Z,,0,1,,4856,response,ISIC_0010852.JPG,17,ISIC_0029686.JPG,ISIC_0029686.JPG,false,0,keypress(z),500,217134,217134,212278,212261,212295,217162,8,400,23,,ISIC_0010852.JPG
break,html.Screen,4_22_1,2023-09-16T21:15:33.880Z,,0,,,NaN,,,,,,false,,,,217134,217134,,217134,,217162,8,400,,,
break_continue,html.Screen,4_22_2,2023-09-16T21:15:33.880Z,,0,,,NaN,,,,,,false,,,,217135,217135,,217135,,217162,8,400,,,
sequence,flow.Sequence,4_22,2023-09-16T21:15:33.880Z,,0,,,4840,completion,,,,,false,,,,217135,217135,212278,212261,212295,217162,8,400,,,
trial,html.Screen,4_23_0,2023-09-16T21:15:37.055Z,,0,1,,3164,response,ISIC_0031293.JPG,9,ISIC_2532039.JPG,ISIC_2532039.JPG,false,0,keypress(z),500,220309,220309,217145,217135,217162,220344,8,400,24,,ISIC_0031293.JPG
break,html.Screen,4_23_1,2023-09-16T21:15:37.055Z,,0,,,NaN,,,,,,false,,,,220310,220309,,220309,,220344,8,400,,,
break_continue,html.Screen,4_23_2,2023-09-16T21:15:37.055Z,,0,,,NaN,,,,,,false,,,,220310,220310,,220310,,220344,8,400,,,
sequence,flow.Sequence,4_23,2023-09-16T21:15:37.056Z,,0,,,3148,completion,,,,,false,,,,220310,220310,217145,217135,217162,220344,8,400,,,
trial,html.Screen,4_24_0,2023-09-16T21:15:40.398Z,,0,1,,3324.000000000029,response,ISIC_0061647.JPG,4,ISIC_0028024.JPG,ISIC_0028024.JPG,false,0,keypress(z),500,223652.00000000003,223652.00000000003,220328,220310,220344,223679,8,400,25,,ISIC_0061647.JPG
break,html.Screen,4_24_1,2023-09-16T21:15:40.399Z,,0,,,NaN,,,,,,false,,,,223653,223653,,223652.00000000003,,223679,8,400,,,
break_continue,html.Screen,4_24_2,2023-09-16T21:15:40.399Z,,0,,,NaN,,,,,,false,,,,223653,223653,,223653,,223679,8,400,,,
sequence,flow.Sequence,4_24,2023-09-16T21:15:40.399Z,,0,,,3309,completion,,,,,false,,,,223653,223653,220328,220310,220344,223679,8,400,,,
trial,html.Screen,4_25_0,2023-09-16T21:15:43.427Z,,0,1,,3020,response,ISIC_5805349.JPG,10,ISIC_0178370.JPG,ISIC_5805349.JPG,false,1,keypress(m),500,226681,226681,223661,223653,223679,226711,8,400,26,,ISIC_0178370.JPG
break,html.Screen,4_25_1,2023-09-16T21:15:43.427Z,,0,,,NaN,,,,,,false,,,,226682.00000000003,226682.00000000003,,226681,,226711,8,400,,,
break_continue,html.Screen,4_25_2,2023-09-16T21:15:43.428Z,,0,,,NaN,,,,,,false,,,,226682.00000000003,226682.00000000003,,226682.00000000003,,226711,8,400,,,
sequence,flow.Sequence,4_25,2023-09-16T21:15:43.428Z,,0,,,3003.000000000029,completion,,,,,false,,,,226682.00000000003,226682.00000000003,223661,223653,223679,226711,8,400,,,
trial,html.Screen,4_26_0,2023-09-16T21:15:47.311Z,,0,1,,3871,response,ISIC_0033959.JPG,4,ISIC_2668481.JPG,ISIC_2668481.JPG,false,0,keypress(z),500,230565,230565,226694,226682.00000000003,226711,230595,8,400,27,,ISIC_0033959.JPG
break,html.Screen,4_26_1,2023-09-16T21:15:47.312Z,,0,,,NaN,,,,,,false,,,,230566,230566,,230566,,230595,8,400,,,
break_continue,html.Screen,4_26_2,2023-09-16T21:15:47.312Z,,0,,,NaN,,,,,,false,,,,230567,230567,,230566,,230595,8,400,,,
sequence,flow.Sequence,4_26,2023-09-16T21:15:47.313Z,,0,,,3856,completion,,,,,false,,,,230567,230567,226694,226682.00000000003,226711,230595,8,400,,,
trial,html.Screen,4_27_0,2023-09-16T21:15:50.810Z,,0,1,,3486,response,ISIC_0010267.JPG,9,ISIC_2209697.JPG,ISIC_2209697.JPG,false,0,keypress(z),500,234064,234064,230578,230567,230595,234094,8,400,28,,ISIC_0010267.JPG
break,html.Screen,4_27_1,2023-09-16T21:15:50.811Z,,0,,,NaN,,,,,,false,,,,234065,234064,,234064,,234094,8,400,,,
break_continue,html.Screen,4_27_2,2023-09-16T21:15:50.811Z,,0,,,NaN,,,,,,false,,,,234065,234065,,234065,,234094,8,400,,,
sequence,flow.Sequence,4_27,2023-09-16T21:15:50.811Z,,0,,,3470,completion,,,,,false,,,,234065,234065,230578,230567,230595,234094,8,400,,,
trial,html.Screen,4_28_0,2023-09-16T21:15:57.010Z,,0,1,,6185,response,ISIC_0624498.JPG,14,ISIC_0033843.JPG,ISIC_0033843.JPG,false,0,keypress(z),500,240263,240263,234078,234065,234094,240295,8,400,29,,ISIC_0624498.JPG
break,html.Screen,4_28_1,2023-09-16T21:15:57.010Z,,0,,,NaN,,,,,,false,,,,240264,240264,,240264,,240295,8,400,,,
break_continue,html.Screen,4_28_2,2023-09-16T21:15:57.011Z,,0,,,NaN,,,,,,false,,,,240264,240264,,240264,,240295,8,400,,,
sequence,flow.Sequence,4_28,2023-09-16T21:15:57.011Z,,0,,,6170,completion,,,,,false,,,,240265.00000000003,240264,234078,234065,234094,240295,8,400,,,
trial,html.Screen,4_29_0,2023-09-16T21:16:00.321Z,,0,1,,3297.000000000029,response,ISIC_0010759.JPG,16,ISIC_0033168.JPG,ISIC_0010759.JPG,false,1,keypress(m),500,243575.00000000003,243575.00000000003,240278,240265.00000000003,240295,243611,8,400,30,,ISIC_0033168.JPG
break,html.Screen,4_29_1,2023-09-16T21:16:00.322Z,,0,,,NaN,,,,,,false,,,,243576,243576,,243575.00000000003,,243611,8,400,,,
break_continue,html.Screen,4_29_2,2023-09-16T21:16:00.322Z,,0,,,NaN,,,,,,false,,,,243576,243576,,243576,,243611,8,400,,,
sequence,flow.Sequence,4_29,2023-09-16T21:16:00.322Z,,0,,,3281,completion,,,,,false,,,,243576,243576,240278,240265.00000000003,240295,243611,8,400,,,
trial,html.Screen,4_30_0,2023-09-16T21:16:04.069Z,,0,1,,3728,response,ISIC_0010049.JPG,13,ISIC_6670242.JPG,ISIC_0010049.JPG,false,1,keypress(m),500,247322,247322,243594,243576,243611,247345,8,400,31,,ISIC_6670242.JPG
break,html.Screen,4_30_1,2023-09-16T21:16:04.070Z,,0,,,NaN,,,,,,false,,,,247323,247323,,247323,,247345,8,400,,,
break_continue,html.Screen,4_30_2,2023-09-16T21:16:04.070Z,,0,,,NaN,,,,,,false,,,,247324,247323,,247323,,247345,8,400,,,
sequence,flow.Sequence,4_30,2023-09-16T21:16:04.070Z,,0,,,3712,completion,,,,,false,,,,247324,247323,243594,243576,243611,247345,8,400,,,
trial,html.Screen,4_31_0,2023-09-16T21:16:08.427Z,,0,1,,4353,response,ISIC_3110909.JPG,10,ISIC_0054663.JPG,ISIC_0054663.JPG,false,0,keypress(z),500,251681,251681,247328,247324,247345,251711,8,400,32,,ISIC_3110909.JPG
break,html.Screen,4_31_1,2023-09-16T21:16:08.428Z,,0,,,NaN,,,,,,false,,,,251682.00000000003,251681,,251681,,251711,8,400,,,
break_continue,html.Screen,4_31_2,2023-09-16T21:16:08.429Z,,0,,,NaN,,,,,,false,,,,251682.00000000003,251682.00000000003,,251682.00000000003,,251711,8,400,,,
sequence,flow.Sequence,4_31,2023-09-16T21:16:08.429Z,,0,,,4337.000000000029,completion,,,,,false,,,,251682.00000000003,251682.00000000003,247328,247324,247345,251711,8,400,,,
trial,html.Screen,4_32_0,2023-09-16T21:16:11.521Z,,0,1,,3081,response,ISIC_3642043.JPG,14,ISIC_0059884.JPG,ISIC_3642043.JPG,false,1,keypress(m),500,254775,254775,251694,251682.00000000003,251711,254811,8,400,33,,ISIC_0059884.JPG
break,html.Screen,4_32_1,2023-09-16T21:16:11.522Z,,0,,,NaN,,,,,,false,,,,254775,254775,,254775,,254811,8,400,,,
break_continue,html.Screen,4_32_2,2023-09-16T21:16:11.522Z,,0,,,NaN,,,,,,false,,,,254776,254776,,254776,,254811,8,400,,,
sequence,flow.Sequence,4_32,2023-09-16T21:16:11.523Z,,0,,,3065,completion,,,,,false,,,,254776,254776,251694,251682.00000000003,251711,254811,8,400,,,
trial,html.Screen,4_33_0,2023-09-16T21:16:17.177Z,,0,1,,5636,response,ISIC_7428248.JPG,16,ISIC_7342840.JPG,ISIC_7428248.JPG,false,1,keypress(m),500,260430,260430,254794,254776,254811,260461,8,400,34,,ISIC_7342840.JPG
break,html.Screen,4_33_1,2023-09-16T21:16:17.178Z,,0,,,NaN,,,,,,false,,,,260430.99999999997,260430.99999999997,,260430,,260461,8,400,,,
break_continue,html.Screen,4_33_2,2023-09-16T21:16:17.178Z,,0,,,NaN,,,,,,false,,,,260430.99999999997,260430.99999999997,,260430.99999999997,,260461,8,400,,,
sequence,flow.Sequence,4_33,2023-09-16T21:16:17.178Z,,0,,,5619.999999999971,completion,,,,,false,,,,260430.99999999997,260430.99999999997,254794,254776,254811,260461,8,400,,,
trial,html.Screen,4_34_0,2023-09-16T21:16:22.669Z,,0,1,,5476,response,ISIC_0030729.JPG,13,ISIC_2489504.JPG,ISIC_2489504.JPG,false,0,keypress(z),500,265922,265921,260445,260432.00000000003,260461,265943,8,400,35,,ISIC_0030729.JPG
break,html.Screen,4_34_1,2023-09-16T21:16:22.669Z,,0,,,NaN,,,,,,false,,,,265922,265922,,265922,,265943,8,400,,,
break_continue,html.Screen,4_34_2,2023-09-16T21:16:22.670Z,,0,,,NaN,,,,,,false,,,,265923,265923,,265923,,265943,8,400,,,
sequence,flow.Sequence,4_34,2023-09-16T21:16:22.670Z,,0,,,5462,completion,,,,,false,,,,265923,265923,260445,260432.00000000003,260461,265943,8,400,,,
trial,html.Screen,4_35_0,2023-09-16T21:16:28.514Z,,0,1,,5840,response,ISIC_3920274.JPG,12,ISIC_7765349.JPG,ISIC_7765349.JPG,false,0,keypress(z),500,271767,271767,265927,265923,265943,271793,8,400,36,,ISIC_3920274.JPG
break,html.Screen,4_35_1,2023-09-16T21:16:28.515Z,,0,,,NaN,,,,,,false,,,,271768,271768,,271767,,271793,8,400,,,
break_continue,html.Screen,4_35_2,2023-09-16T21:16:28.515Z,,0,,,NaN,,,,,,false,,,,271768,271768,,271768,,271793,8,400,,,
sequence,flow.Sequence,4_35,2023-09-16T21:16:28.515Z,,0,,,5825,completion,,,,,false,,,,271768,271768,265927,265923,265943,271793,8,400,,,
trial,html.Screen,4_36_0,2023-09-16T21:16:32.105Z,,0,1,,3580,response,ISIC_1807276.JPG,11,ISIC_5242216.JPG,ISIC_5242216.JPG,false,0,keypress(z),500,275358,275358,271778,271768,271793,275394,8,400,37,,ISIC_1807276.JPG
break,html.Screen,4_36_1,2023-09-16T21:16:32.106Z,,0,,,NaN,,,,,,false,,,,275358,275358,,275358,,275394,8,400,,,
break_continue,html.Screen,4_36_2,2023-09-16T21:16:32.106Z,,0,,,NaN,,,,,,false,,,,275359,275359,,275359,,275394,8,400,,,
sequence,flow.Sequence,4_36,2023-09-16T21:16:32.106Z,,0,,,3566,completion,,,,,false,,,,275359,275359,271778,271768,271793,275394,8,400,,,
trial,html.Screen,4_37_0,2023-09-16T21:16:38.807Z,,0,1,,6682,response,ISIC_2430937.JPG,2,ISIC_5755836.JPG,ISIC_5755836.JPG,false,0,keypress(z),500,282059,282059,275377,275359,275394,282093,8,400,38,,ISIC_2430937.JPG
break,html.Screen,4_37_1,2023-09-16T21:16:38.807Z,,0,,,NaN,,,,,,false,,,,282060,282060,,282059,,282093,8,400,,,
break_continue,html.Screen,4_37_2,2023-09-16T21:16:38.808Z,,0,,,NaN,,,,,,false,,,,282060,282060,,282060,,282093,8,400,,,
sequence,flow.Sequence,4_37,2023-09-16T21:16:38.808Z,,0,,,6666,completion,,,,,false,,,,282060,282060,275377,275359,275394,282093,8,400,,,
trial,html.Screen,4_38_0,2023-09-16T21:16:42.710Z,,0,1,,3886,response,ISIC_0057199.JPG,11,ISIC_3503302.JPG,ISIC_3503302.JPG,false,0,keypress(z),500,285963,285963,282077,282060,282093,285994,8,400,39,,ISIC_0057199.JPG
break,html.Screen,4_38_1,2023-09-16T21:16:42.711Z,,0,,,NaN,,,,,,false,,,,285964,285963,,285963,,285994,8,400,,,
break_continue,html.Screen,4_38_2,2023-09-16T21:16:42.711Z,,0,,,NaN,,,,,,false,,,,285964,285964,,285964,,285994,8,400,,,
sequence,flow.Sequence,4_38,2023-09-16T21:16:42.711Z,,0,,,3871,completion,,,,,false,,,,285964,285964,282077,282060,282093,285994,8,400,,,
trial,html.Screen,4_39_0,2023-09-16T21:16:46.626Z,,0,1,,3900,response,ISIC_9475559.JPG,4,ISIC_2596574.JPG,ISIC_9475559.JPG,false,1,keypress(m),500,289878,289878,285978,285964,285994,289911,8,400,40,,ISIC_2596574.JPG
break,html.Screen,4_39_1,2023-09-16T21:16:46.626Z,,0,,,NaN,,,,,,false,,,,289879,289879,,289878,,289911,8,400,,,
break_continue,html.Screen,4_39_2,2023-09-16T21:16:46.627Z,,0,,,NaN,,,,,,false,,,,289879,289879,,289879,,289911,8,400,,,
sequence,flow.Sequence,4_39,2023-09-16T21:16:46.627Z,,0,,,3885,completion,,,,,false,,,,289879,289879,285978,285964,285994,289911,8,400,,,
trial,html.Screen,4_40_0,2023-09-16T21:16:51.503Z,,0,1,,4862,response,ISIC_0025217.JPG,5,ISIC_0000410.JPG,ISIC_0000410.JPG,false,0,keypress(z),500,294755,294755,289893,289879,289911,294776,8,400,41,,ISIC_0025217.JPG
break,html.Screen,4_40_1,2023-09-16T21:16:51.503Z,,0,,,NaN,,,,,,false,,,,294756,294755,,294755,,294776,8,400,,,
break_continue,html.Screen,4_40_2,2023-09-16T21:16:51.504Z,,0,,,NaN,,,,,,false,,,,294756,294756,,294756,,294776,8,400,,,
sequence,flow.Sequence,4_40,2023-09-16T21:16:51.504Z,,0,,,4845,completion,,,,,false,,,,294756,294756,289893,289879,289911,294776,8,400,,,
trial,html.Screen,4_41_0,2023-09-16T21:16:55.355Z,,0,1,,3846,response,ISIC_6785680.JPG,16,ISIC_0013984.JPG,ISIC_6785680.JPG,false,1,keypress(m),500,298607,298606,294760,294756,294776,298643,8,400,42,,ISIC_0013984.JPG
break,html.Screen,4_41_1,2023-09-16T21:16:55.355Z,,0,,,NaN,,,,,,false,,,,298607,298607,,298607,,298643,8,400,,,
break_continue,html.Screen,4_41_2,2023-09-16T21:16:55.355Z,,0,,,NaN,,,,,,false,,,,298608,298608,,298607,,298643,8,400,,,
sequence,flow.Sequence,4_41,2023-09-16T21:16:55.356Z,,0,,,3832,completion,,,,,false,,,,298608,298608,294760,294756,294776,298643,8,400,,,
trial,html.Screen,4_42_0,2023-09-16T21:16:58.990Z,,0,1,,3616,response,ISIC_1177153.JPG,5,ISIC_1925623.JPG,ISIC_1925623.JPG,false,0,keypress(z),500,302242,302242,298626,298608,298643,302276,8,400,43,,ISIC_1177153.JPG
break,html.Screen,4_42_1,2023-09-16T21:16:58.991Z,,0,,,NaN,,,,,,false,,,,302243,302243,,302242,,302276,8,400,,,
break_continue,html.Screen,4_42_2,2023-09-16T21:16:58.991Z,,0,,,NaN,,,,,,false,,,,302243,302243,,302243,,302276,8,400,,,
sequence,flow.Sequence,4_42,2023-09-16T21:16:58.991Z,,0,,,3600,completion,,,,,false,,,,302243,302243,298626,298608,298643,302276,8,400,,,
trial,html.Screen,4_43_0,2023-09-16T21:17:03.612Z,,0,1,,4603.000000000058,response,ISIC_0030932.JPG,7,ISIC_2108849.JPG,ISIC_2108849.JPG,false,0,keypress(z),500,306864.00000000006,306864.00000000006,302261,302243,302276,306893,8,400,44,,ISIC_0030932.JPG
break,html.Screen,4_43_1,2023-09-16T21:17:03.613Z,,0,,,NaN,,,,,,false,,,,306865,306864.00000000006,,306864.00000000006,,306893,8,400,,,
break_continue,html.Screen,4_43_2,2023-09-16T21:17:03.613Z,,0,,,NaN,,,,,,false,,,,306865,306865,,306865,,306893,8,400,,,
sequence,flow.Sequence,4_43,2023-09-16T21:17:03.613Z,,0,,,4589,completion,,,,,false,,,,306865,306865,302261,302243,302276,306893,8,400,,,
trial,html.Screen,4_44_0,2023-09-16T21:17:07.732Z,,0,1,,4107,response,ISIC_4768512.JPG,12,ISIC_5578611.JPG,ISIC_5578611.JPG,false,0,keypress(z),500,310984,310984,306877,306865,306893,311010,8,400,45,,ISIC_4768512.JPG
break,html.Screen,4_44_1,2023-09-16T21:17:07.733Z,,0,,,NaN,,,,,,false,,,,310985,310985,,310984,,311010,8,400,,,
break_continue,html.Screen,4_44_2,2023-09-16T21:17:07.733Z,,0,,,NaN,,,,,,false,,,,310985,310985,,310985,,311010,8,400,,,
sequence,flow.Sequence,4_44,2023-09-16T21:17:07.733Z,,0,,,4092,completion,,,,,false,,,,310985,310985,306877,306865,306893,311010,8,400,,,
trial,html.Screen,4_45_0,2023-09-16T21:17:12.123Z,,0,1,,4380,response,ISIC_0062286.JPG,7,ISIC_0028069.JPG,ISIC_0062286.JPG,false,1,keypress(m),500,315374,315374,310994,310985,311010,315410,8,400,46,,ISIC_0028069.JPG
break,html.Screen,4_45_1,2023-09-16T21:17:12.123Z,,0,,,NaN,,,,,,false,,,,315375,315375,,315374,,315410,8,400,,,
break_continue,html.Screen,4_45_2,2023-09-16T21:17:12.123Z,,0,,,NaN,,,,,,false,,,,315375,315375,,315375,,315410,8,400,,,
sequence,flow.Sequence,4_45,2023-09-16T21:17:12.124Z,,0,,,4365,completion,,,,,false,,,,315375,315375,310994,310985,311010,315410,8,400,,,
trial,html.Screen,4_46_0,2023-09-16T21:17:15.075Z,,0,1,,2933,response,ISIC_0029660.JPG,1,ISIC_7262685.JPG,ISIC_7262685.JPG,false,0,keypress(z),500,318326,318326,315393,315375,315410,318360,8,400,47,,ISIC_0029660.JPG
break,html.Screen,4_46_1,2023-09-16T21:17:15.075Z,,0,,,NaN,,,,,,false,,,,318327,318327,,318326,,318360,8,400,,,
break_continue,html.Screen,4_46_2,2023-09-16T21:17:15.076Z,,0,,,NaN,,,,,,false,,,,318327,318327,,318327,,318360,8,400,,,
sequence,flow.Sequence,4_46,2023-09-16T21:17:15.076Z,,0,,,2917,completion,,,,,false,,,,318327,318327,315393,315375,315410,318360,8,400,,,
trial,html.Screen,4_47_0,2023-09-16T21:17:18.547Z,,0,1,,3454,response,ISIC_0026309.JPG,11,ISIC_5703909.JPG,ISIC_5703909.JPG,false,0,keypress(z),500,321799.00000000006,321798,318344,318327,318360,321827,8,400,48,,ISIC_0026309.JPG
break,html.Screen,4_47_1,2023-09-16T21:17:18.548Z,,0,,,NaN,,,,,,false,,,,321799.00000000006,321799.00000000006,,321799.00000000006,,321827,8,400,,,
break_continue,html.Screen,4_47_2,2023-09-16T21:17:18.548Z,,0,,,NaN,,,,,,false,,,,321799.00000000006,321799.00000000006,,321799.00000000006,,321827,8,400,,,
sequence,flow.Sequence,4_47,2023-09-16T21:17:18.548Z,,0,,,3439.000000000058,completion,,,,,false,,,,321800,321799.00000000006,318344,318327,318360,321827,8,400,,,
trial,html.Screen,4_48_0,2023-09-16T21:17:21.398Z,,0,1,,2840,response,ISIC_0011356.JPG,7,ISIC_6901969.JPG,ISIC_6901969.JPG,false,0,keypress(z),500,324650.00000000006,324649,321809,321800,321827,324677,8,400,49,,ISIC_0011356.JPG
break,html.Screen,4_48_1,2023-09-16T21:17:21.399Z,,0,,,NaN,,,,,,false,,,,324650.00000000006,324650.00000000006,,324650.00000000006,,324677,8,400,,,
break_continue,html.Screen,4_48_2,2023-09-16T21:17:21.399Z,,0,,,NaN,,,,,,false,,,,324651,324651,,324650.00000000006,,324677,8,400,,,
sequence,flow.Sequence,4_48,2023-09-16T21:17:21.399Z,,0,,,2824,completion,,,,,false,,,,324651,324651,321809,321800,321827,324677,8,400,,,
trial,html.Screen,4_49_0,2023-09-16T21:17:26.100Z,,0,1,,4691,response,ISIC_0200153.JPG,6,ISIC_0030969.JPG,ISIC_0200153.JPG,false,1,keypress(m),500,329352.00000000006,329351,324660,324651,324677,329376,8,400,50,,ISIC_0030969.JPG
break,html.Screen,4_49_1,2023-09-16T21:17:36.110Z,,0,,,10001,timeout,,,,,false,,,,339360,339360,329360,329352.00000000006,329376,339377,8,400,,,
break_continue,html.Screen,4_49_2,2023-09-16T21:18:49.876Z,,0,,,73604,response,,,,,false,continue,keypress(Space),,413125,412964,339360,339361,339377,413158,8,400,,,
sequence,flow.Sequence,4_49,2023-09-16T21:18:49.877Z,,0,,,88287,completion,,,,,false,,,,413125,412964,324660,324651,324677,413158,8,400,,,
trial,html.Screen,4_50_0,2023-09-16T21:18:55.037Z,,0,2,,5144,response,ISIC_0028520.JPG,6,ISIC_8866651.JPG,ISIC_8866651.JPG,false,0,keypress(z),500,418285,418285,413141,413125,413158,418308,8,400,1,,ISIC_0028520.JPG
break,html.Screen,4_50_1,2023-09-16T21:18:55.037Z,,0,,,NaN,,,,,,false,,,,418286,418286,,418285,,418308,8,400,,,
break_continue,html.Screen,4_50_2,2023-09-16T21:18:55.037Z,,0,,,NaN,,,,,,false,,,,418286,418286,,418286,,418308,8,400,,,
sequence,flow.Sequence,4_50,2023-09-16T21:18:55.038Z,,0,,,5128,completion,,,,,false,,,,418286,418286,413141,413125,413158,418308,8,400,,,
trial,html.Screen,4_51_0,2023-09-16T21:18:58.948Z,,0,2,,3905,response,ISIC_4945233.JPG,5,ISIC_0034144.JPG,ISIC_4945233.JPG,false,1,keypress(m),500,422197,422197,418292,418286,418308,422226,8,400,2,,ISIC_0034144.JPG
break,html.Screen,4_51_1,2023-09-16T21:18:58.949Z,,0,,,NaN,,,,,,false,,,,422198.00000000006,422198.00000000006,,422197,,422226,8,400,,,
break_continue,html.Screen,4_51_2,2023-09-16T21:18:58.950Z,,0,,,NaN,,,,,,false,,,,422198.00000000006,422198.00000000006,,422198.00000000006,,422226,8,400,,,
sequence,flow.Sequence,4_51,2023-09-16T21:18:58.950Z,,0,,,3890.000000000058,completion,,,,,false,,,,422198.00000000006,422198.00000000006,418292,418286,418308,422226,8,400,,,
trial,html.Screen,4_52_0,2023-09-16T21:19:02.286Z,,0,2,,3325,response,ISIC_0046623.JPG,5,ISIC_1479949.JPG,ISIC_1479949.JPG,false,0,keypress(z),500,425535,425534,422209,422198.00000000006,422226,425558,8,400,3,,ISIC_0046623.JPG
break,html.Screen,4_52_1,2023-09-16T21:19:02.287Z,,0,,,NaN,,,,,,false,,,,425535,425535,,425535,,425558,8,400,,,
break_continue,html.Screen,4_52_2,2023-09-16T21:19:02.287Z,,0,,,NaN,,,,,,false,,,,425536,425536,,425535,,425558,8,400,,,
sequence,flow.Sequence,4_52,2023-09-16T21:19:02.287Z,,0,,,3310,completion,,,,,false,,,,425536,425536,422209,422198.00000000006,422226,425558,8,400,,,
trial,html.Screen,4_53_0,2023-09-16T21:19:06.234Z,,0,2,,3941,response,ISIC_6253295.JPG,5,ISIC_0356904.JPG,ISIC_6253295.JPG,false,1,keypress(m),500,429482,429482,425541,425536,425558,429509,8,400,4,,ISIC_0356904.JPG
break,html.Screen,4_53_1,2023-09-16T21:19:06.234Z,,0,,,NaN,,,,,,false,,,,429482,429482,,429482,,429509,8,400,,,
break_continue,html.Screen,4_53_2,2023-09-16T21:19:06.235Z,,0,,,NaN,,,,,,false,,,,429483,429483,,429483,,429509,8,400,,,
sequence,flow.Sequence,4_53,2023-09-16T21:19:06.235Z,,0,,,3925,completion,,,,,false,,,,429483,429483,425541,425536,425558,429509,8,400,,,
trial,html.Screen,4_54_0,2023-09-16T21:19:09.796Z,,0,2,,3552,response,ISIC_3249783.JPG,6,ISIC_0029071.JPG,ISIC_3249783.JPG,false,1,keypress(m),500,433044,433044,429492,429483,429509,433075,8,400,5,,ISIC_0029071.JPG
break,html.Screen,4_54_1,2023-09-16T21:19:09.797Z,,0,,,NaN,,,,,,false,,,,433045,433045,,433045,,433075,8,400,,,
break_continue,html.Screen,4_54_2,2023-09-16T21:19:09.797Z,,0,,,NaN,,,,,,false,,,,433045,433045,,433045,,433075,8,400,,,
sequence,flow.Sequence,4_54,2023-09-16T21:19:09.797Z,,0,,,3536,completion,,,,,false,,,,433045,433045,429492,429483,429509,433075,8,400,,,
trial,html.Screen,4_55_0,2023-09-16T21:19:13.863Z,,0,2,,4052,response,ISIC_8452205.JPG,10,ISIC_0065039.JPG,ISIC_8452205.JPG,false,1,keypress(m),500,437111,437111,433059,433046,433075,437142,8,400,6,,ISIC_0065039.JPG
break,html.Screen,4_55_1,2023-09-16T21:19:13.864Z,,0,,,NaN,,,,,,false,,,,437112,437111,,437111,,437142,8,400,,,
break_continue,html.Screen,4_55_2,2023-09-16T21:19:13.864Z,,0,,,NaN,,,,,,false,,,,437112,437112,,437112,,437142,8,400,,,
sequence,flow.Sequence,4_55,2023-09-16T21:19:13.864Z,,0,,,4037,completion,,,,,false,,,,437112,437112,433059,433045,433075,437142,8,400,,,
trial,html.Screen,4_56_0,2023-09-16T21:19:20.074Z,,0,2,,6197,response,ISIC_0066321.JPG,16,ISIC_6559840.JPG,ISIC_6559840.JPG,false,0,keypress(z),500,443322,443322,437125,437112,437142,443342,8,400,7,,ISIC_0066321.JPG
break,html.Screen,4_56_1,2023-09-16T21:19:20.075Z,,0,,,NaN,,,,,,false,,,,443323.00000000006,443323.00000000006,,443322,,443342,8,400,,,
break_continue,html.Screen,4_56_2,2023-09-16T21:19:20.075Z,,0,,,NaN,,,,,,false,,,,443323.00000000006,443323.00000000006,,443323.00000000006,,443342,8,400,,,
sequence,flow.Sequence,4_56,2023-09-16T21:19:20.075Z,,0,,,6181.000000000058,completion,,,,,false,,,,443323.00000000006,443323.00000000006,437125,437112,437142,443342,8,400,,,
trial,html.Screen,4_57_0,2023-09-16T21:19:23.284Z,,0,2,,3207,response,ISIC_0064107.JPG,3,ISIC_5581936.JPG,ISIC_5581936.JPG,false,0,keypress(z),500,446532,446532,443325,443323.00000000006,443342,446559,8,400,8,,ISIC_0064107.JPG
break,html.Screen,4_57_1,2023-09-16T21:19:23.285Z,,0,,,NaN,,,,,,false,,,,446533,446532,,446532,,446559,8,400,,,
break_continue,html.Screen,4_57_2,2023-09-16T21:19:23.285Z,,0,,,NaN,,,,,,false,,,,446533,446533,,446533,,446559,8,400,,,
sequence,flow.Sequence,4_57,2023-09-16T21:19:23.285Z,,0,,,3191,completion,,,,,false,,,,446533,446533,443325,443323.00000000006,443342,446559,8,400,,,
trial,html.Screen,4_58_0,2023-09-16T21:19:26.476Z,,0,2,,3183,response,ISIC_0046729.JPG,10,ISIC_8073555.JPG,ISIC_0046729.JPG,false,1,keypress(m),500,449724,449724,446541,446533,446559,449758,8,400,9,,ISIC_8073555.JPG
break,html.Screen,4_58_1,2023-09-16T21:19:26.477Z,,0,,,NaN,,,,,,false,,,,449725,449724,,449724,,449758,8,400,,,
break_continue,html.Screen,4_58_2,2023-09-16T21:19:26.477Z,,0,,,NaN,,,,,,false,,,,449725,449725,,449725,,449758,8,400,,,
sequence,flow.Sequence,4_58,2023-09-16T21:19:26.477Z,,0,,,3166,completion,,,,,false,,,,449725,449725,446541,446533,446559,449758,8,400,,,
trial,html.Screen,4_59_0,2023-09-16T21:19:30.077Z,,0,2,,3581,response,ISIC_0064376.JPG,5,ISIC_0008510.JPG,ISIC_0008510.JPG,false,0,keypress(z),500,453324,453324,449743,449725,449758,453342,8,400,10,,ISIC_0064376.JPG
break,html.Screen,4_59_1,2023-09-16T21:19:30.077Z,,0,,,NaN,,,,,,false,,,,453325,453325,,453324,,453342,8,400,,,
break_continue,html.Screen,4_59_2,2023-09-16T21:19:30.078Z,,0,,,NaN,,,,,,false,,,,453325,453325,,453325,,453342,8,400,,,
sequence,flow.Sequence,4_59,2023-09-16T21:19:30.078Z,,0,,,3567,completion,,,,,false,,,,453325,453325,449743,449725,449758,453342,8,400,,,
trial,html.Screen,4_60_0,2023-09-16T21:19:35.678Z,,0,2,,5599,response,ISIC_3212050.JPG,1,ISIC_0029225.JPG,ISIC_0029225.JPG,false,0,keypress(z),500,458926,458925,453326,453325,453342,458958,8,400,11,,ISIC_3212050.JPG
break,html.Screen,4_60_1,2023-09-16T21:19:35.679Z,,0,,,NaN,,,,,,false,,,,458926,458926,,458926,,458958,8,400,,,
break_continue,html.Screen,4_60_2,2023-09-16T21:19:35.679Z,,0,,,NaN,,,,,,false,,,,458927,458926,,458926,,458958,8,400,,,
sequence,flow.Sequence,4_60,2023-09-16T21:19:35.679Z,,0,,,5584,completion,,,,,false,,,,458927,458926,453326,453325,453342,458958,8,400,,,
trial,html.Screen,4_61_0,2023-09-16T21:19:39.585Z,,0,2,,3890,response,ISIC_0033365.JPG,8,ISIC_0014079.JPG,ISIC_0014079.JPG,false,0,keypress(z),500,462833,462832,458942,458927,458958,462858,8,400,12,,ISIC_0033365.JPG
break,html.Screen,4_61_1,2023-09-16T21:19:39.586Z,,0,,,NaN,,,,,,false,,,,462833,462833,,462833,,462858,8,400,,,
break_continue,html.Screen,4_61_2,2023-09-16T21:19:39.586Z,,0,,,NaN,,,,,,false,,,,462833,462833,,462833,,462858,8,400,,,
sequence,flow.Sequence,4_61,2023-09-16T21:19:39.586Z,,0,,,3875,completion,,,,,false,,,,462833,462833,458942,458927,458958,462858,8,400,,,
trial,html.Screen,4_62_0,2023-09-16T21:19:44.058Z,,0,2,,4464,response,ISIC_0013731.JPG,6,ISIC_3031102.JPG,ISIC_3031102.JPG,false,0,keypress(z),500,467305,467305,462841,462833,462858,467341,8,400,13,,ISIC_0013731.JPG
break,html.Screen,4_62_1,2023-09-16T21:19:44.059Z,,0,,,NaN,,,,,,false,,,,467306,467306,,467306,,467341,8,400,,,
break_continue,html.Screen,4_62_2,2023-09-16T21:19:44.059Z,,0,,,NaN,,,,,,false,,,,467306,467306,,467306,,467341,8,400,,,
sequence,flow.Sequence,4_62,2023-09-16T21:19:44.059Z,,0,,,4448,completion,,,,,false,,,,467306,467306,462841,462833,462858,467341,8,400,,,
trial,html.Screen,4_63_0,2023-09-16T21:19:49.342Z,,0,2,,5264,response,ISIC_0009924.JPG,6,ISIC_4142019.JPG,ISIC_4142019.JPG,false,0,keypress(z),500,472589,472589,467325,467307,467341,472624,8,400,14,,ISIC_0009924.JPG
break,html.Screen,4_63_1,2023-09-16T21:19:49.343Z,,0,,,NaN,,,,,,false,,,,472590.00000000006,472590.00000000006,,472589,,472624,8,400,,,
break_continue,html.Screen,4_63_2,2023-09-16T21:19:49.343Z,,0,,,NaN,,,,,,false,,,,472590.00000000006,472590.00000000006,,472590.00000000006,,472624,8,400,,,
sequence,flow.Sequence,4_63,2023-09-16T21:19:49.344Z,,0,,,5249.000000000058,completion,,,,,false,,,,472590.00000000006,472590.00000000006,467325,467307,467341,472624,8,400,,,
trial,html.Screen,4_64_0,2023-09-16T21:19:53.698Z,,0,2,,4336,response,ISIC_0030981.JPG,17,ISIC_0567814.JPG,ISIC_0567814.JPG,false,0,keypress(z),500,476945,476944,472608,472591,472624,476975,8,400,15,,ISIC_0030981.JPG
break,html.Screen,4_64_1,2023-09-16T21:19:53.699Z,,0,,,NaN,,,,,,false,,,,476945,476945,,476945,,476975,8,400,,,
break_continue,html.Screen,4_64_2,2023-09-16T21:19:53.699Z,,0,,,NaN,,,,,,false,,,,476946,476945,,476945,,476975,8,400,,,
sequence,flow.Sequence,4_64,2023-09-16T21:19:53.699Z,,0,,,4321,completion,,,,,false,,,,476946,476945,472608,472591,472624,476975,8,400,,,
trial,html.Screen,4_65_0,2023-09-16T21:19:57.603Z,,0,2,,3891,response,ISIC_0026770.JPG,7,ISIC_5537876.JPG,ISIC_5537876.JPG,false,0,keypress(z),500,480849,480849,476958,476946,476975,480875,8,400,16,,ISIC_0026770.JPG
break,html.Screen,4_65_1,2023-09-16T21:19:57.603Z,,0,,,NaN,,,,,,false,,,,480850,480850,,480850,,480875,8,400,,,
break_continue,html.Screen,4_65_2,2023-09-16T21:19:57.604Z,,0,,,NaN,,,,,,false,,,,480850,480850,,480850,,480875,8,400,,,
sequence,flow.Sequence,4_65,2023-09-16T21:19:57.604Z,,0,,,3875,completion,,,,,false,,,,480850,480850,476958,476946,476975,480875,8,400,,,
trial,html.Screen,4_66_0,2023-09-16T21:20:01.648Z,,0,2,,4037,response,ISIC_0055841.JPG,2,ISIC_8020153.JPG,ISIC_8020153.JPG,false,0,keypress(z),500,484895,484894,480857,480851,480875,484924,8,400,17,,ISIC_0055841.JPG
break,html.Screen,4_66_1,2023-09-16T21:20:01.649Z,,0,,,NaN,,,,,,false,,,,484895,484895,,484895,,484924,8,400,,,
break_continue,html.Screen,4_66_2,2023-09-16T21:20:01.649Z,,0,,,NaN,,,,,,false,,,,484895,484895,,484895,,484924,8,400,,,
sequence,flow.Sequence,4_66,2023-09-16T21:20:01.649Z,,0,,,4020,completion,,,,,false,,,,484895,484895,480857,480851,480875,484924,8,400,,,
trial,html.Screen,4_67_0,2023-09-16T21:20:05.715Z,,0,2,,4053,response,ISIC_5879418.JPG,7,ISIC_4538489.JPG,ISIC_4538489.JPG,false,0,keypress(z),500,488961,488961,484908,484896,484924,488991,8,400,18,,ISIC_5879418.JPG
break,html.Screen,4_67_1,2023-09-16T21:20:05.715Z,,0,,,NaN,,,,,,false,,,,488962,488961,,488961,,488991,8,400,,,
break_continue,html.Screen,4_67_2,2023-09-16T21:20:05.716Z,,0,,,NaN,,,,,,false,,,,488962,488962,,488962,,488991,8,400,,,
sequence,flow.Sequence,4_67,2023-09-16T21:20:05.716Z,,0,,,4038,completion,,,,,false,,,,488962,488962,484908,484896,484924,488991,8,400,,,
trial,html.Screen,4_68_0,2023-09-16T21:20:09.423Z,,0,2,,3694,response,ISIC_2974214.JPG,6,ISIC_2366727.JPG,ISIC_2974214.JPG,false,1,keypress(m),500,492669,492669,488975,488962,488991,492691,8,400,19,,ISIC_2366727.JPG
break,html.Screen,4_68_1,2023-09-16T21:20:09.424Z,,0,,,NaN,,,,,,false,,,,492670,492670,,492670,,492691,8,400,,,
break_continue,html.Screen,4_68_2,2023-09-16T21:20:09.424Z,,0,,,NaN,,,,,,false,,,,492670,492670,,492670,,492691,8,400,,,
sequence,flow.Sequence,4_68,2023-09-16T21:20:09.424Z,,0,,,3679,completion,,,,,false,,,,492671,492670,488975,488962,488991,492691,8,400,,,
trial,html.Screen,4_69_0,2023-09-16T21:20:12.228Z,,0,2,,2800,response,ISIC_3446357.JPG,5,ISIC_3238687.JPG,ISIC_3238687.JPG,false,0,keypress(z),500,495474,495474,492674,492671,492691,495508,8,400,20,,ISIC_3446357.JPG
break,html.Screen,4_69_1,2023-09-16T21:20:12.228Z,,0,,,NaN,,,,,,false,,,,495475,495474,,495474,,495508,8,400,,,
break_continue,html.Screen,4_69_2,2023-09-16T21:20:12.229Z,,0,,,NaN,,,,,,false,,,,495475,495475,,495475,,495508,8,400,,,
sequence,flow.Sequence,4_69,2023-09-16T21:20:12.229Z,,0,,,2784,completion,,,,,false,,,,495475,495475,492674,492671,492691,495508,8,400,,,
trial,html.Screen,4_70_0,2023-09-16T21:20:16.358Z,,0,2,,4113,response,ISIC_9741917.JPG,16,ISIC_2784686.JPG,ISIC_2784686.JPG,false,0,keypress(z),500,499604,499604,495491,495475,495508,499641,8,400,21,,ISIC_9741917.JPG
break,html.Screen,4_70_1,2023-09-16T21:20:16.359Z,,0,,,NaN,,,,,,false,,,,499605,499605,,499605,,499641,8,400,,,
break_continue,html.Screen,4_70_2,2023-09-16T21:20:16.359Z,,0,,,NaN,,,,,,false,,,,499605,499605,,499605,,499641,8,400,,,
sequence,flow.Sequence,4_70,2023-09-16T21:20:16.359Z,,0,,,4097,completion,,,,,false,,,,499605,499605,495491,495475,495508,499641,8,400,,,
trial,html.Screen,4_71_0,2023-09-16T21:20:19.812Z,,0,2,,3434,response,ISIC_6285076.JPG,7,ISIC_8169564.JPG,ISIC_8169564.JPG,false,0,keypress(z),500,503058,503058,499624,499605,499641,503090,8,400,22,,ISIC_6285076.JPG
break,html.Screen,4_71_1,2023-09-16T21:20:19.813Z,,0,,,NaN,,,,,,false,,,,503059,503059,,503058,,503090,8,400,,,
break_continue,html.Screen,4_71_2,2023-09-16T21:20:19.813Z,,0,,,NaN,,,,,,false,,,,503059,503059,,503059,,503090,8,400,,,
sequence,flow.Sequence,4_71,2023-09-16T21:20:19.813Z,,0,,,3418,completion,,,,,false,,,,503059,503059,499624,499605,499641,503090,8,400,,,
trial,html.Screen,4_72_0,2023-09-16T21:20:25.011Z,,0,2,,5182,response,ISIC_9063429.JPG,1,ISIC_0010791.JPG,ISIC_0010791.JPG,false,0,keypress(z),500,508257,508257,503075,503059,503090,508291,8,400,23,,ISIC_9063429.JPG
break,html.Screen,4_72_1,2023-09-16T21:20:25.012Z,,0,,,NaN,,,,,,false,,,,508257,508257,,508257,,508291,8,400,,,
break_continue,html.Screen,4_72_2,2023-09-16T21:20:25.012Z,,0,,,NaN,,,,,,false,,,,508258.00000000006,508258.00000000006,,508258.00000000006,,508291,8,400,,,
sequence,flow.Sequence,4_72,2023-09-16T21:20:25.012Z,,0,,,5168.000000000058,completion,,,,,false,,,,508258.00000000006,508258.00000000006,503075,503059,503090,508291,8,400,,,
trial,html.Screen,4_73_0,2023-09-16T21:20:27.849Z,,0,2,,2821,response,ISIC_0054885.JPG,7,ISIC_0006624.JPG,ISIC_0006624.JPG,false,0,keypress(z),500,511095,511095,508274,508258.00000000006,508291,511124,8,400,24,,ISIC_0054885.JPG
break,html.Screen,4_73_1,2023-09-16T21:20:27.850Z,,0,,,NaN,,,,,,false,,,,511096,511095,,511095,,511124,8,400,,,
break_continue,html.Screen,4_73_2,2023-09-16T21:20:27.850Z,,0,,,NaN,,,,,,false,,,,511096,511096,,511096,,511124,8,400,,,
sequence,flow.Sequence,4_73,2023-09-16T21:20:27.850Z,,0,,,2805,completion,,,,,false,,,,511096,511096,508274,508258.00000000006,508291,511124,8,400,,,
trial,html.Screen,4_74_0,2023-09-16T21:20:31.846Z,,0,2,,3984,response,ISIC_0010235.JPG,1,ISIC_0027260.JPG,ISIC_0027260.JPG,false,0,keypress(z),500,515091,515091,511107,511096,511124,515123,8,400,25,,ISIC_0010235.JPG
break,html.Screen,4_74_1,2023-09-16T21:20:31.847Z,,0,,,NaN,,,,,,false,,,,515092,515092,,515092,,515123,8,400,,,
break_continue,html.Screen,4_74_2,2023-09-16T21:20:31.847Z,,0,,,NaN,,,,,,false,,,,515092,515092,,515092,,515123,8,400,,,
sequence,flow.Sequence,4_74,2023-09-16T21:20:31.847Z,,0,,,3968,completion,,,,,false,,,,515092,515092,511107,511096,511124,515123,8,400,,,
trial,html.Screen,4_75_0,2023-09-16T21:20:35.170Z,,0,2,,3307.999999999942,response,ISIC_8316125.JPG,8,ISIC_6108795.JPG,ISIC_8316125.JPG,false,1,keypress(m),500,518414.99999999994,518414.99999999994,515107,515092.99999999994,515123,518440,8,400,26,,ISIC_6108795.JPG
break,html.Screen,4_75_1,2023-09-16T21:20:35.171Z,,0,,,NaN,,,,,,false,,,,518416.00000000006,518416.00000000006,,518416.00000000006,,518440,8,400,,,
break_continue,html.Screen,4_75_2,2023-09-16T21:20:35.171Z,,0,,,NaN,,,,,,false,,,,518416.00000000006,518416.00000000006,,518416.00000000006,,518440,8,400,,,
sequence,flow.Sequence,4_75,2023-09-16T21:20:35.171Z,,0,,,3293.000000000058,completion,,,,,false,,,,518416.00000000006,518416.00000000006,515107,515092.99999999994,515123,518440,8,400,,,
trial,html.Screen,4_76_0,2023-09-16T21:20:38.577Z,,0,2,,3398,response,ISIC_9684318.JPG,5,ISIC_5367118.JPG,ISIC_9684318.JPG,false,1,keypress(m),500,521822,521822,518424,518417.00000000006,518440,521857,8,400,27,,ISIC_5367118.JPG
break,html.Screen,4_76_1,2023-09-16T21:20:38.578Z,,0,,,NaN,,,,,,false,,,,521823,521823,,521822,,521857,8,400,,,
break_continue,html.Screen,4_76_2,2023-09-16T21:20:38.578Z,,0,,,NaN,,,,,,false,,,,521823,521823,,521823,,521857,8,400,,,
sequence,flow.Sequence,4_76,2023-09-16T21:20:38.578Z,,0,,,3383,completion,,,,,false,,,,521823,521823,518424,518417.00000000006,518440,521857,8,400,,,
trial,html.Screen,4_77_0,2023-09-16T21:20:41.236Z,,0,2,,2640,response,ISIC_0054792.JPG,16,ISIC_0069558.JPG,ISIC_0054792.JPG,false,1,keypress(m),500,524482,524481,521841,521823,521857,524507,8,400,28,,ISIC_0069558.JPG
break,html.Screen,4_77_1,2023-09-16T21:20:41.237Z,,0,,,NaN,,,,,,false,,,,524482,524482,,524482,,524507,8,400,,,
break_continue,html.Screen,4_77_2,2023-09-16T21:20:41.237Z,,0,,,NaN,,,,,,false,,,,524483.0000000001,524483.0000000001,,524482,,524507,8,400,,,
sequence,flow.Sequence,4_77,2023-09-16T21:20:41.237Z,,0,,,2626.0000000001164,completion,,,,,false,,,,524483.0000000001,524483.0000000001,521841,521823,521857,524507,8,400,,,
trial,html.Screen,4_78_0,2023-09-16T21:20:46.133Z,,0,2,,4888,response,ISIC_2294790.JPG,6,ISIC_0032630.JPG,ISIC_2294790.JPG,false,1,keypress(m),500,529378,529378,524490,524483.0000000001,524507,529407,8,400,29,,ISIC_0032630.JPG
break,html.Screen,4_78_1,2023-09-16T21:20:46.134Z,,0,,,NaN,,,,,,false,,,,529379,529379,,529378,,529407,8,400,,,
break_continue,html.Screen,4_78_2,2023-09-16T21:20:46.134Z,,0,,,NaN,,,,,,false,,,,529379,529379,,529379,,529407,8,400,,,
sequence,flow.Sequence,4_78,2023-09-16T21:20:46.134Z,,0,,,4872,completion,,,,,false,,,,529379,529379,524490,524483.0000000001,524507,529407,8,400,,,
trial,html.Screen,4_79_0,2023-09-16T21:20:50.202Z,,0,2,,4057,response,ISIC_8043299.JPG,7,ISIC_0013525.JPG,ISIC_0013525.JPG,false,0,keypress(z),500,533448,533447,529390,529379,529407,533473,8,400,30,,ISIC_8043299.JPG
break,html.Screen,4_79_1,2023-09-16T21:20:50.203Z,,0,,,NaN,,,,,,false,,,,533448,533448,,533448,,533473,8,400,,,
break_continue,html.Screen,4_79_2,2023-09-16T21:20:50.203Z,,0,,,NaN,,,,,,false,,,,533449,533448,,533448,,533473,8,400,,,
sequence,flow.Sequence,4_79,2023-09-16T21:20:50.204Z,,0,,,4041,completion,,,,,false,,,,533449,533448,529390,529379,529407,533473,8,400,,,
trial,html.Screen,4_80_0,2023-09-16T21:20:53.175Z,,0,2,,2963,response,ISIC_0046571.JPG,7,ISIC_0011365.JPG,ISIC_0046571.JPG,false,1,keypress(m),500,536420,536419,533456,533449,533473,536457,8,400,31,,ISIC_0011365.JPG
break,html.Screen,4_80_1,2023-09-16T21:20:53.175Z,,0,,,NaN,,,,,,false,,,,536420,536420,,536420,,536457,8,400,,,
break_continue,html.Screen,4_80_2,2023-09-16T21:20:53.176Z,,0,,,NaN,,,,,,false,,,,536421,536420,,536420,,536457,8,400,,,
sequence,flow.Sequence,4_80,2023-09-16T21:20:53.176Z,,0,,,2947,completion,,,,,false,,,,536421,536420,533456,533449,533473,536457,8,400,,,
trial,html.Screen,4_81_0,2023-09-16T21:20:57.694Z,,0,2,,4499,response,ISIC_0010648.JPG,4,ISIC_2741857.JPG,ISIC_0010648.JPG,false,1,keypress(m),500,540939,540939,536440,536421,536457,540974,8,400,32,,ISIC_2741857.JPG
break,html.Screen,4_81_1,2023-09-16T21:20:57.695Z,,0,,,NaN,,,,,,false,,,,540939,540939,,540939,,540974,8,400,,,
break_continue,html.Screen,4_81_2,2023-09-16T21:20:57.695Z,,0,,,NaN,,,,,,false,,,,540940,540940,,540940,,540974,8,400,,,
sequence,flow.Sequence,4_81,2023-09-16T21:20:57.695Z,,0,,,4483,completion,,,,,false,,,,540940,540940,536440,536421,536457,540974,8,400,,,
trial,html.Screen,4_82_0,2023-09-16T21:21:01.207Z,,0,2,,3496,response,ISIC_9780632.JPG,4,ISIC_9726155.JPG,ISIC_9726155.JPG,false,0,keypress(z),500,544452,544452,540956,540940,540974,544474,8,400,33,,ISIC_9780632.JPG
break,html.Screen,4_82_1,2023-09-16T21:21:01.208Z,,0,,,NaN,,,,,,false,,,,544453,544452,,544452,,544474,8,400,,,
break_continue,html.Screen,4_82_2,2023-09-16T21:21:01.208Z,,0,,,NaN,,,,,,false,,,,544453,544453,,544453,,544474,8,400,,,
sequence,flow.Sequence,4_82,2023-09-16T21:21:01.208Z,,0,,,3479,completion,,,,,false,,,,544453,544453,540956,540940,540974,544474,8,400,,,
trial,html.Screen,4_83_0,2023-09-16T21:21:05.609Z,,0,2,,4397,response,ISIC_7515794.JPG,13,ISIC_5336007.JPG,ISIC_5336007.JPG,false,0,keypress(z),500,548854,548854,544457,544453,544474,548891,8,400,34,,ISIC_7515794.JPG
break,html.Screen,4_83_1,2023-09-16T21:21:05.610Z,,0,,,NaN,,,,,,false,,,,548855,548854,,548854,,548891,8,400,,,
break_continue,html.Screen,4_83_2,2023-09-16T21:21:05.610Z,,0,,,NaN,,,,,,false,,,,548855,548855,,548855,,548891,8,400,,,
sequence,flow.Sequence,4_83,2023-09-16T21:21:05.610Z,,0,,,4381,completion,,,,,false,,,,548855,548855,544457,544453,544474,548891,8,400,,,
trial,html.Screen,4_84_0,2023-09-16T21:21:09.095Z,,0,2,,3467,response,ISIC_1115160.JPG,1,ISIC_4177043.JPG,ISIC_1115160.JPG,false,1,keypress(m),500,552340,552340,548873,548855,548891,552373,8,400,35,,ISIC_4177043.JPG
break,html.Screen,4_84_1,2023-09-16T21:21:09.096Z,,0,,,NaN,,,,,,false,,,,552340,552340,,552340,,552373,8,400,,,
break_continue,html.Screen,4_84_2,2023-09-16T21:21:09.096Z,,0,,,NaN,,,,,,false,,,,552341,552341,,552341,,552373,8,400,,,
sequence,flow.Sequence,4_84,2023-09-16T21:21:09.096Z,,0,,,3450,completion,,,,,false,,,,552341,552341,548873,548855,548891,552373,8,400,,,
trial,html.Screen,4_85_0,2023-09-16T21:21:12.981Z,,0,2,,3868,response,ISIC_0033524.JPG,4,ISIC_9744305.JPG,ISIC_9744305.JPG,false,0,keypress(z),500,556225,556225,552357,552341,552373,556257,8,400,36,,ISIC_0033524.JPG
break,html.Screen,4_85_1,2023-09-16T21:21:12.982Z,,0,,,NaN,,,,,,false,,,,556226,556226,,556226,,556257,8,400,,,
break_continue,html.Screen,4_85_2,2023-09-16T21:21:12.982Z,,0,,,NaN,,,,,,false,,,,556227,556226,,556226,,556257,8,400,,,
sequence,flow.Sequence,4_85,2023-09-16T21:21:12.982Z,,0,,,3853,completion,,,,,false,,,,556227,556226,552357,552341,552373,556257,8,400,,,
trial,html.Screen,4_86_0,2023-09-16T21:21:16.243Z,,0,2,,3246,response,ISIC_0069946.JPG,16,ISIC_0032204.JPG,ISIC_0032204.JPG,false,0,keypress(z),500,559487,559487,556241,556227,556257,559524,8,400,37,,ISIC_0069946.JPG
break,html.Screen,4_86_1,2023-09-16T21:21:16.244Z,,0,,,NaN,,,,,,false,,,,559488,559488,,559488,,559524,8,400,,,
break_continue,html.Screen,4_86_2,2023-09-16T21:21:16.244Z,,0,,,NaN,,,,,,false,,,,559489,559489,,559488,,559524,8,400,,,
sequence,flow.Sequence,4_86,2023-09-16T21:21:16.244Z,,0,,,3232,completion,,,,,false,,,,559489,559489,556241,556227,556257,559524,8,400,,,
trial,html.Screen,4_87_0,2023-09-16T21:21:19.163Z,,0,2,,2900,response,ISIC_3633306.JPG,2,ISIC_3947143.JPG,ISIC_3633306.JPG,false,1,keypress(m),500,562407,562407,559507,559489,559524,562440,8,400,38,,ISIC_3947143.JPG
break,html.Screen,4_87_1,2023-09-16T21:21:19.164Z,,0,,,NaN,,,,,,false,,,,562408,562408,,562407,,562440,8,400,,,
break_continue,html.Screen,4_87_2,2023-09-16T21:21:19.164Z,,0,,,NaN,,,,,,false,,,,562408,562408,,562408,,562440,8,400,,,
sequence,flow.Sequence,4_87,2023-09-16T21:21:19.164Z,,0,,,2884,completion,,,,,false,,,,562408,562408,559507,559489,559524,562440,8,400,,,
trial,html.Screen,4_88_0,2023-09-16T21:21:22.183Z,,0,2,,3003,response,ISIC_5157799.JPG,2,ISIC_7680333.JPG,ISIC_7680333.JPG,false,0,keypress(z),500,565427,565427,562424,562408,562440,565456,8,400,39,,ISIC_5157799.JPG
break,html.Screen,4_88_1,2023-09-16T21:21:22.183Z,,0,,,NaN,,,,,,false,,,,565428,565427,,565427,,565456,8,400,,,
break_continue,html.Screen,4_88_2,2023-09-16T21:21:22.184Z,,0,,,NaN,,,,,,false,,,,565428,565428,,565428,,565456,8,400,,,
sequence,flow.Sequence,4_88,2023-09-16T21:21:22.184Z,,0,,,2988,completion,,,,,false,,,,565428,565428,562424,562408,562440,565456,8,400,,,
trial,html.Screen,4_89_0,2023-09-16T21:21:25.329Z,,0,2,,3133,response,ISIC_0004667.JPG,7,ISIC_0071335.JPG,ISIC_0004667.JPG,false,1,keypress(m),500,568573,568573,565440,565428,565456,568607,8,400,40,,ISIC_0071335.JPG
break,html.Screen,4_89_1,2023-09-16T21:21:25.330Z,,0,,,NaN,,,,,,false,,,,568574,568574,,568573,,568607,8,400,,,
break_continue,html.Screen,4_89_2,2023-09-16T21:21:25.330Z,,0,,,NaN,,,,,,false,,,,568574,568574,,568574,,568607,8,400,,,
sequence,flow.Sequence,4_89,2023-09-16T21:21:25.330Z,,0,,,3118,completion,,,,,false,,,,568574,568574,565440,565428,565456,568607,8,400,,,
trial,html.Screen,4_90_0,2023-09-16T21:21:28.023Z,,0,2,,2677,response,ISIC_0054767.JPG,7,ISIC_0016128.JPG,ISIC_0054767.JPG,false,1,keypress(m),500,571267,571267,568590,568574,568607,571289,8,400,41,,ISIC_0016128.JPG
break,html.Screen,4_90_1,2023-09-16T21:21:28.024Z,,0,,,NaN,,,,,,false,,,,571268,571267,,571267,,571289,8,400,,,
break_continue,html.Screen,4_90_2,2023-09-16T21:21:28.024Z,,0,,,NaN,,,,,,false,,,,571268,571268,,571268,,571289,8,400,,,
sequence,flow.Sequence,4_90,2023-09-16T21:21:28.024Z,,0,,,2661,completion,,,,,false,,,,571268,571268,568590,568574,568607,571289,8,400,,,
trial,html.Screen,4_91_0,2023-09-16T21:21:32.635Z,,0,2,,4606,response,ISIC_2333274.JPG,11,ISIC_9107280.JPG,ISIC_9107280.JPG,false,0,keypress(z),500,575879,575879,571273,571268,571289,575906,8,400,42,,ISIC_2333274.JPG
break,html.Screen,4_91_1,2023-09-16T21:21:32.636Z,,0,,,NaN,,,,,,false,,,,575880,575880,,575879,,575906,8,400,,,
break_continue,html.Screen,4_91_2,2023-09-16T21:21:32.636Z,,0,,,NaN,,,,,,false,,,,575880,575880,,575880,,575906,8,400,,,
sequence,flow.Sequence,4_91,2023-09-16T21:21:32.636Z,,0,,,4591,completion,,,,,false,,,,575880,575880,571273,571268,571289,575906,8,400,,,
trial,html.Screen,4_92_0,2023-09-16T21:21:35.607Z,,0,2,,2961,response,ISIC_3180213.JPG,13,ISIC_1947833.JPG,ISIC_3180213.JPG,false,1,keypress(m),500,578851,578851,575890,575880,575906,578872,8,400,43,,ISIC_1947833.JPG
break,html.Screen,4_92_1,2023-09-16T21:21:35.608Z,,0,,,NaN,,,,,,false,,,,578852,578852,,578851,,578872,8,400,,,
break_continue,html.Screen,4_92_2,2023-09-16T21:21:35.608Z,,0,,,NaN,,,,,,false,,,,578852,578852,,578852,,578872,8,400,,,
sequence,flow.Sequence,4_92,2023-09-16T21:21:35.608Z,,0,,,2946,completion,,,,,false,,,,578852,578852,575890,575880,575906,578872,8,400,,,
trial,html.Screen,4_93_0,2023-09-16T21:21:38.655Z,,0,2,,3042,response,ISIC_0032820.JPG,8,ISIC_0002041.JPG,ISIC_0002041.JPG,false,0,keypress(z),500,581899,581899,578857,578852,578872,581923,8,400,44,,ISIC_0032820.JPG
break,html.Screen,4_93_1,2023-09-16T21:21:38.656Z,,0,,,NaN,,,,,,false,,,,581900,581899,,581899,,581923,8,400,,,
break_continue,html.Screen,4_93_2,2023-09-16T21:21:38.656Z,,0,,,NaN,,,,,,false,,,,581900,581900,,581900,,581923,8,400,,,
sequence,flow.Sequence,4_93,2023-09-16T21:21:38.656Z,,0,,,3028,completion,,,,,false,,,,581900,581900,578857,578852,578872,581923,8,400,,,
trial,html.Screen,4_94_0,2023-09-16T21:21:42.841Z,,0,2,,4177.000000000116,response,ISIC_0068950.JPG,13,ISIC_7462953.JPG,ISIC_7462953.JPG,false,0,keypress(z),500,586084.0000000001,586084.0000000001,581907,581900,581923,586106,8,400,45,,ISIC_0068950.JPG
break,html.Screen,4_94_1,2023-09-16T21:21:42.841Z,,0,,,NaN,,,,,,false,,,,586085,586085,,586084.0000000001,,586106,8,400,,,
break_continue,html.Screen,4_94_2,2023-09-16T21:21:42.841Z,,0,,,NaN,,,,,,false,,,,586085,586085,,586085,,586106,8,400,,,
sequence,flow.Sequence,4_94,2023-09-16T21:21:42.842Z,,0,,,4162,completion,,,,,false,,,,586085,586085,581907,581900,581923,586106,8,400,,,
trial,html.Screen,4_95_0,2023-09-16T21:21:46.147Z,,0,2,,3300,response,ISIC_0062048.JPG,2,ISIC_7491389.JPG,ISIC_7491389.JPG,false,0,keypress(z),500,589390,589390,586090,586085,586106,589422,8,400,46,,ISIC_0062048.JPG
break,html.Screen,4_95_1,2023-09-16T21:21:46.148Z,,0,,,NaN,,,,,,false,,,,589391,589391,,589391,,589422,8,400,,,
break_continue,html.Screen,4_95_2,2023-09-16T21:21:46.148Z,,0,,,NaN,,,,,,false,,,,589391,589391,,589391,,589422,8,400,,,
sequence,flow.Sequence,4_95,2023-09-16T21:21:46.148Z,,0,,,3285,completion,,,,,false,,,,589391,589391,586090,586085,586106,589422,8,400,,,
trial,html.Screen,4_96_0,2023-09-16T21:21:50.119Z,,0,2,,3956,response,ISIC_0199116.JPG,2,ISIC_7814144.JPG,ISIC_7814144.JPG,false,0,keypress(z),500,593363,593363,589407,589391,589422,593390,8,400,47,,ISIC_0199116.JPG
break,html.Screen,4_96_1,2023-09-16T21:21:50.120Z,,0,,,NaN,,,,,,false,,,,593363,593363,,593363,,593390,8,400,,,
break_continue,html.Screen,4_96_2,2023-09-16T21:21:50.120Z,,0,,,NaN,,,,,,false,,,,593363,593363,,593363,,593390,8,400,,,
sequence,flow.Sequence,4_96,2023-09-16T21:21:50.120Z,,0,,,3941,completion,,,,,false,,,,593363,593363,589407,589391,589422,593390,8,400,,,
trial,html.Screen,4_97_0,2023-09-16T21:21:54.288Z,,0,2,,4159.000000000116,response,ISIC_8759207.JPG,6,ISIC_9355535.JPG,ISIC_9355535.JPG,false,0,keypress(z),500,597531.0000000001,597531.0000000001,593372,593363,593390,597557,8,400,48,,ISIC_8759207.JPG
break,html.Screen,4_97_1,2023-09-16T21:21:54.289Z,,0,,,NaN,,,,,,false,,,,597532,597532,,597532,,597557,8,400,,,
break_continue,html.Screen,4_97_2,2023-09-16T21:21:54.289Z,,0,,,NaN,,,,,,false,,,,597532,597532,,597532,,597557,8,400,,,
sequence,flow.Sequence,4_97,2023-09-16T21:21:54.289Z,,0,,,4142,completion,,,,,false,,,,597532,597532,593372,593363,593390,597557,8,400,,,
trial,html.Screen,4_98_0,2023-09-16T21:21:58.571Z,,0,2,,4275,response,ISIC_6539127.JPG,2,ISIC_1042960.JPG,ISIC_1042960.JPG,false,0,keypress(z),500,601814,601814,597539,597532,597557,601839,8,400,49,,ISIC_6539127.JPG
break,html.Screen,4_98_1,2023-09-16T21:21:58.572Z,,0,,,NaN,,,,,,false,,,,601815,601815,,601814,,601839,8,400,,,
break_continue,html.Screen,4_98_2,2023-09-16T21:21:58.572Z,,0,,,NaN,,,,,,false,,,,601815,601815,,601815,,601839,8,400,,,
sequence,flow.Sequence,4_98,2023-09-16T21:21:58.572Z,,0,,,4258,completion,,,,,false,,,,601815,601815,597539,597532,597557,601839,8,400,,,
trial,html.Screen,4_99_0,2023-09-16T21:22:02.683Z,,0,2,,4103,response,ISIC_0024260.JPG,16,ISIC_8779142.JPG,ISIC_0024260.JPG,false,1,keypress(m),500,605926,605926,601823,601816,601839,605956,8,400,50,,ISIC_8779142.JPG
break,html.Screen,4_99_1,2023-09-16T21:22:12.697Z,,0,,,10000,timeout,,,,,false,,,,615940,615939,605940,605926,605956,615956,8,400,,,
break_continue,html.Screen,4_99_2,2023-09-16T21:23:43.985Z,,0,,,91116.00000000012,response,,,,,false,continue,keypress(Space),,707225,707055.0000000001,615939,615940,615956,707256,8,400,,,
sequence,flow.Sequence,4_99,2023-09-16T21:23:43.985Z,,0,,,105216.00000000012,completion,,,,,false,,,,707225,707055.0000000001,601823,601816,601839,707256,8,400,,,
trial,html.Screen,4_100_0,2023-09-16T21:23:47.695Z,,0,3,,3698.0000000001164,response,ISIC_7147713.JPG,16,ISIC_0030575.JPG,ISIC_7147713.JPG,false,1,keypress(m),500,710935.0000000001,710935.0000000001,707237,707225,707256,710972,8,400,1,,ISIC_0030575.JPG
break,html.Screen,4_100_1,2023-09-16T21:23:47.696Z,,0,,,NaN,,,,,,false,,,,710936,710935.0000000001,,710935.0000000001,,710972,8,400,,,
break_continue,html.Screen,4_100_2,2023-09-16T21:23:47.696Z,,0,,,NaN,,,,,,false,,,,710936,710936,,710936,,710972,8,400,,,
sequence,flow.Sequence,4_100,2023-09-16T21:23:47.696Z,,0,,,3680,completion,,,,,false,,,,710936,710936,707237,707225,707256,710972,8,400,,,
trial,html.Screen,4_101_0,2023-09-16T21:23:50.822Z,,0,3,,3107,response,ISIC_0062318.JPG,2,ISIC_0305928.JPG,ISIC_0305928.JPG,false,0,keypress(z),500,714061,714061,710954,710936,710972,714088,8,400,2,,ISIC_0062318.JPG
break,html.Screen,4_101_1,2023-09-16T21:23:50.822Z,,0,,,NaN,,,,,,false,,,,714062,714062,,714061,,714088,8,400,,,
break_continue,html.Screen,4_101_2,2023-09-16T21:23:50.823Z,,0,,,NaN,,,,,,false,,,,714062,714062,,714062,,714088,8,400,,,
sequence,flow.Sequence,4_101,2023-09-16T21:23:50.823Z,,0,,,3090,completion,,,,,false,,,,714062,714062,710954,710936,710972,714088,8,400,,,
trial,html.Screen,4_102_0,2023-09-16T21:23:54.533Z,,0,3,,3701,response,ISIC_0062546.JPG,10,ISIC_0011114.JPG,ISIC_0011114.JPG,false,0,keypress(z),500,717772,717772,714071,714062,714088,717804,8,400,3,,ISIC_0062546.JPG
break,html.Screen,4_102_1,2023-09-16T21:23:54.534Z,,0,,,NaN,,,,,,false,,,,717773,717773,,717772,,717804,8,400,,,
break_continue,html.Screen,4_102_2,2023-09-16T21:23:54.534Z,,0,,,NaN,,,,,,false,,,,717773,717773,,717773,,717804,8,400,,,
sequence,flow.Sequence,4_102,2023-09-16T21:23:54.534Z,,0,,,3685,completion,,,,,false,,,,717774,717773,714071,714062,714088,717804,8,400,,,
trial,html.Screen,4_103_0,2023-09-16T21:23:57.837Z,,0,3,,3288,response,ISIC_0060760.JPG,0,ISIC_0025418.JPG,ISIC_0025418.JPG,false,0,keypress(z),500,721077,721076,717788,717774,717804,721105,8,400,4,,ISIC_0060760.JPG
break,html.Screen,4_103_1,2023-09-16T21:23:57.838Z,,0,,,NaN,,,,,,false,,,,721077,721077,,721077,,721105,8,400,,,
break_continue,html.Screen,4_103_2,2023-09-16T21:23:57.838Z,,0,,,NaN,,,,,,false,,,,721077,721077,,721077,,721105,8,400,,,
sequence,flow.Sequence,4_103,2023-09-16T21:23:57.838Z,,0,,,3273,completion,,,,,false,,,,721078,721077,717788,717774,717804,721105,8,400,,,
trial,html.Screen,4_104_0,2023-09-16T21:24:00.911Z,,0,3,,3062,response,ISIC_0067521.JPG,8,ISIC_0806303.JPG,ISIC_0806303.JPG,false,0,keypress(z),500,724150,724150,721088,721078,721105,724171,8,400,5,,ISIC_0067521.JPG
break,html.Screen,4_104_1,2023-09-16T21:24:00.911Z,,0,,,NaN,,,,,,false,,,,724151.0000000001,724151.0000000001,,724150,,724171,8,400,,,
break_continue,html.Screen,4_104_2,2023-09-16T21:24:00.912Z,,0,,,NaN,,,,,,false,,,,724151.0000000001,724151.0000000001,,724151.0000000001,,724171,8,400,,,
sequence,flow.Sequence,4_104,2023-09-16T21:24:00.912Z,,0,,,3046.0000000001164,completion,,,,,false,,,,724151.0000000001,724151.0000000001,721088,721078,721105,724171,8,400,,,
trial,html.Screen,4_105_0,2023-09-16T21:24:05.037Z,,0,3,,4122.000000000116,response,ISIC_8354042.JPG,14,ISIC_2647643.JPG,ISIC_2647643.JPG,false,0,keypress(z),500,728276.0000000001,728276.0000000001,724154,724151.0000000001,724171,728304,8,400,6,,ISIC_8354042.JPG
break,html.Screen,4_105_1,2023-09-16T21:24:05.038Z,,0,,,NaN,,,,,,false,,,,728277,728277,,728276.0000000001,,728304,8,400,,,
break_continue,html.Screen,4_105_2,2023-09-16T21:24:05.038Z,,0,,,NaN,,,,,,false,,,,728277,728277,,728277,,728304,8,400,,,
sequence,flow.Sequence,4_105,2023-09-16T21:24:05.038Z,,0,,,4106,completion,,,,,false,,,,728277,728277,724154,724151.0000000001,724171,728304,8,400,,,
trial,html.Screen,4_106_0,2023-09-16T21:24:10.135Z,,0,3,,5086,response,ISIC_0028543.JPG,5,ISIC_3372067.JPG,ISIC_3372067.JPG,false,0,keypress(z),500,733374,733374,728288,728277,728304,733404,8,400,7,,ISIC_0028543.JPG
break,html.Screen,4_106_1,2023-09-16T21:24:10.136Z,,0,,,NaN,,,,,,false,,,,733375,733375,,733374,,733404,8,400,,,
break_continue,html.Screen,4_106_2,2023-09-16T21:24:10.136Z,,0,,,NaN,,,,,,false,,,,733375,733375,,733375,,733404,8,400,,,
sequence,flow.Sequence,4_106,2023-09-16T21:24:10.136Z,,0,,,5071,completion,,,,,false,,,,733375,733375,728288,728277,728304,733404,8,400,,,
trial,html.Screen,4_107_0,2023-09-16T21:24:14.607Z,,0,3,,4457,response,ISIC_0033968.JPG,3,ISIC_0008724.JPG,ISIC_0008724.JPG,false,0,keypress(z),500,737845,737845,733388,733375,733404,737871,8,400,8,,ISIC_0033968.JPG
break,html.Screen,4_107_1,2023-09-16T21:24:14.607Z,,0,,,NaN,,,,,,false,,,,737846,737846,,737846,,737871,8,400,,,
break_continue,html.Screen,4_107_2,2023-09-16T21:24:14.608Z,,0,,,NaN,,,,,,false,,,,737847,737846,,737846,,737871,8,400,,,
sequence,flow.Sequence,4_107,2023-09-16T21:24:14.608Z,,0,,,4442,completion,,,,,false,,,,737847,737846,733388,733375,733404,737871,8,400,,,
trial,html.Screen,4_108_0,2023-09-16T21:24:17.702Z,,0,3,,3085,response,ISIC_8588957.JPG,9,ISIC_0011628.JPG,ISIC_8588957.JPG,false,1,keypress(m),500,740941,740940,737855,737847,737871,740971,8,400,9,,ISIC_0011628.JPG
break,html.Screen,4_108_1,2023-09-16T21:24:17.702Z,,0,,,NaN,,,,,,false,,,,740941,740941,,740941,,740971,8,400,,,
break_continue,html.Screen,4_108_2,2023-09-16T21:24:17.703Z,,0,,,NaN,,,,,,false,,,,740941,740941,,740941,,740971,8,400,,,
sequence,flow.Sequence,4_108,2023-09-16T21:24:17.703Z,,0,,,3070,completion,,,,,false,,,,740942,740941,737855,737847,737871,740971,8,400,,,
trial,html.Screen,4_109_0,2023-09-16T21:24:21.011Z,,0,3,,3294,response,ISIC_9286292.JPG,7,ISIC_1872823.JPG,ISIC_1872823.JPG,false,0,keypress(z),500,744250,744249,740955,740942,740971,744270,8,400,10,,ISIC_9286292.JPG
break,html.Screen,4_109_1,2023-09-16T21:24:21.011Z,,0,,,NaN,,,,,,false,,,,744250,744250,,744250,,744270,8,400,,,
break_continue,html.Screen,4_109_2,2023-09-16T21:24:21.012Z,,0,,,NaN,,,,,,false,,,,744251,744250,,744250,,744270,8,400,,,
sequence,flow.Sequence,4_109,2023-09-16T21:24:21.012Z,,0,,,3279,completion,,,,,false,,,,744251,744250,740955,740942,740971,744270,8,400,,,
trial,html.Screen,4_110_0,2023-09-16T21:24:24.038Z,,0,3,,3023,response,ISIC_8417873.JPG,5,ISIC_0010663.JPG,ISIC_8417873.JPG,false,1,keypress(m),500,747277,747277,744254,744251,744270,747303,8,400,11,,ISIC_0010663.JPG
break,html.Screen,4_110_1,2023-09-16T21:24:24.039Z,,0,,,NaN,,,,,,false,,,,747278,747278,,747277,,747303,8,400,,,
break_continue,html.Screen,4_110_2,2023-09-16T21:24:24.039Z,,0,,,NaN,,,,,,false,,,,747278,747278,,747278,,747303,8,400,,,
sequence,flow.Sequence,4_110,2023-09-16T21:24:24.039Z,,0,,,3008,completion,,,,,false,,,,747278,747278,744254,744251,744270,747303,8,400,,,
trial,html.Screen,4_111_0,2023-09-16T21:24:27.274Z,,0,3,,3224,response,ISIC_0356904.JPG,13,ISIC_9618489.JPG,ISIC_9618489.JPG,false,0,keypress(z),500,750512,750512,747288,747278,747303,750537,8,400,12,,ISIC_0356904.JPG
break,html.Screen,4_111_1,2023-09-16T21:24:27.275Z,,0,,,NaN,,,,,,false,,,,750513,750513,,750513,,750537,8,400,,,
break_continue,html.Screen,4_111_2,2023-09-16T21:24:27.275Z,,0,,,NaN,,,,,,false,,,,750514,750513,,750513,,750537,8,400,,,
sequence,flow.Sequence,4_111,2023-09-16T21:24:27.275Z,,0,,,3210,completion,,,,,false,,,,750514,750513,747288,747278,747303,750537,8,400,,,
trial,html.Screen,4_112_0,2023-09-16T21:24:30.139Z,,0,3,,2856.0000000001164,response,ISIC_7662910.JPG,5,ISIC_0034106.JPG,ISIC_7662910.JPG,false,1,keypress(m),500,753378,753377.0000000001,750521,750514,750537,753403,8,400,13,,ISIC_0034106.JPG
break,html.Screen,4_112_1,2023-09-16T21:24:30.140Z,,0,,,NaN,,,,,,false,,,,753378,753378,,753378,,753403,8,400,,,
break_continue,html.Screen,4_112_2,2023-09-16T21:24:30.140Z,,0,,,NaN,,,,,,false,,,,753379,753379,,753378,,753403,8,400,,,
sequence,flow.Sequence,4_112,2023-09-16T21:24:30.140Z,,0,,,2842,completion,,,,,false,,,,753379,753379,750521,750514,750537,753403,8,400,,,
trial,html.Screen,4_113_0,2023-09-16T21:24:33.629Z,,0,3,,3480,response,ISIC_2563568.JPG,16,ISIC_0066626.JPG,ISIC_2563568.JPG,false,1,keypress(m),500,756867,756867,753387,753379,753403,756903,8,400,14,,ISIC_0066626.JPG
break,html.Screen,4_113_1,2023-09-16T21:24:33.629Z,,0,,,NaN,,,,,,false,,,,756868,756867,,756867,,756903,8,400,,,
break_continue,html.Screen,4_113_2,2023-09-16T21:24:33.629Z,,0,,,NaN,,,,,,false,,,,756868,756868,,756868,,756903,8,400,,,
sequence,flow.Sequence,4_113,2023-09-16T21:24:33.629Z,,0,,,3465,completion,,,,,false,,,,756868,756868,753387,753379,753403,756903,8,400,,,
trial,html.Screen,4_114_0,2023-09-16T21:24:37.492Z,,0,3,,3843,response,ISIC_0031077.JPG,2,ISIC_0064979.JPG,ISIC_0064979.JPG,false,0,keypress(z),500,760730,760730,756887,756868,756903,760753,8,400,15,,ISIC_0031077.JPG
break,html.Screen,4_114_1,2023-09-16T21:24:37.493Z,,0,,,NaN,,,,,,false,,,,760731,760731,,760731,,760753,8,400,,,
break_continue,html.Screen,4_114_2,2023-09-16T21:24:37.493Z,,0,,,NaN,,,,,,false,,,,760731,760731,,760731,,760753,8,400,,,
sequence,flow.Sequence,4_114,2023-09-16T21:24:37.493Z,,0,,,3828,completion,,,,,false,,,,760731,760731,756887,756868,756903,760753,8,400,,,
trial,html.Screen,4_115_0,2023-09-16T21:24:40.598Z,,0,3,,3098,response,ISIC_0034092.JPG,4,ISIC_9194220.JPG,ISIC_9194220.JPG,false,0,keypress(z),500,763836,763836,760738,760731,760753,763871,8,400,16,,ISIC_0034092.JPG
break,html.Screen,4_115_1,2023-09-16T21:24:40.598Z,,0,,,NaN,,,,,,false,,,,763837,763836,,763836,,763871,8,400,,,
break_continue,html.Screen,4_115_2,2023-09-16T21:24:40.599Z,,0,,,NaN,,,,,,false,,,,763837,763837,,763837,,763871,8,400,,,
sequence,flow.Sequence,4_115,2023-09-16T21:24:40.599Z,,0,,,3084,completion,,,,,false,,,,763837,763837,760738,760731,760753,763871,8,400,,,
trial,html.Screen,4_116_0,2023-09-16T21:24:44.202Z,,0,3,,3587,response,ISIC_0061252.JPG,1,ISIC_0000046.JPG,ISIC_0000046.JPG,false,0,keypress(z),500,767440,767440,763853,763837,763871,767470,8,400,17,,ISIC_0061252.JPG
break,html.Screen,4_116_1,2023-09-16T21:24:44.203Z,,0,,,NaN,,,,,,false,,,,767441,767440,,767440,,767470,8,400,,,
break_continue,html.Screen,4_116_2,2023-09-16T21:24:44.203Z,,0,,,NaN,,,,,,false,,,,767441,767441,,767441,,767470,8,400,,,
sequence,flow.Sequence,4_116,2023-09-16T21:24:44.203Z,,0,,,3570,completion,,,,,false,,,,767441,767441,763853,763837,763871,767470,8,400,,,
trial,html.Screen,4_117_0,2023-09-16T21:24:47.435Z,,0,3,,3219,response,ISIC_0033174.JPG,6,ISIC_0063447.JPG,ISIC_0033174.JPG,false,1,keypress(m),500,770673,770673,767454,767441,767470,770703,8,400,18,,ISIC_0063447.JPG
break,html.Screen,4_117_1,2023-09-16T21:24:47.436Z,,0,,,NaN,,,,,,false,,,,770674,770674,,770673,,770703,8,400,,,
break_continue,html.Screen,4_117_2,2023-09-16T21:24:47.436Z,,0,,,NaN,,,,,,false,,,,770674,770674,,770674,,770703,8,400,,,
sequence,flow.Sequence,4_117,2023-09-16T21:24:47.436Z,,0,,,3204,completion,,,,,false,,,,770674,770674,767454,767441,767470,770703,8,400,,,
trial,html.Screen,4_118_0,2023-09-16T21:24:51.452Z,,0,3,,4002,response,ISIC_8436492.JPG,17,ISIC_0000000.JPG,ISIC_8436492.JPG,false,1,keypress(m),500,774690,774690,770688,770674,770703,774720,8,400,19,,ISIC_0000000.JPG
break,html.Screen,4_118_1,2023-09-16T21:24:51.453Z,,0,,,NaN,,,,,,false,,,,774691,774691,,774690,,774720,8,400,,,
break_continue,html.Screen,4_118_2,2023-09-16T21:24:51.454Z,,0,,,NaN,,,,,,false,,,,774691,774691,,774691,,774720,8,400,,,
sequence,flow.Sequence,4_118,2023-09-16T21:24:51.454Z,,0,,,3988,completion,,,,,false,,,,774692,774691,770688,770674,770703,774720,8,400,,,
trial,html.Screen,4_119_0,2023-09-16T21:24:56.344Z,,0,3,,4879,response,ISIC_0026516.JPG,0,ISIC_0046222.JPG,ISIC_0026516.JPG,false,1,keypress(m),500,779582,779582,774703,774692,774720,779603,8,400,20,,ISIC_0046222.JPG
break,html.Screen,4_119_1,2023-09-16T21:24:56.345Z,,0,,,NaN,,,,,,false,,,,779582,779582,,779582,,779603,8,400,,,
break_continue,html.Screen,4_119_2,2023-09-16T21:24:56.345Z,,0,,,NaN,,,,,,false,,,,779583,779583,,779583,,779603,8,400,,,
sequence,flow.Sequence,4_119,2023-09-16T21:24:56.345Z,,0,,,4863,completion,,,,,false,,,,779583,779583,774703,774692,774720,779603,8,400,,,
trial,html.Screen,4_120_0,2023-09-16T21:24:59.926Z,,0,3,,3577,response,ISIC_0011094.JPG,5,ISIC_3950753.JPG,ISIC_3950753.JPG,false,0,keypress(z),500,783164,783163,779586,779583,779603,783187,8,400,21,,ISIC_0011094.JPG
break,html.Screen,4_120_1,2023-09-16T21:24:59.927Z,,0,,,NaN,,,,,,false,,,,783164,783164,,783164,,783187,8,400,,,
break_continue,html.Screen,4_120_2,2023-09-16T21:24:59.927Z,,0,,,NaN,,,,,,false,,,,783164,783164,,783164,,783187,8,400,,,
sequence,flow.Sequence,4_120,2023-09-16T21:24:59.927Z,,0,,,3561,completion,,,,,false,,,,783165,783164,779586,779583,779603,783187,8,400,,,
trial,html.Screen,4_121_0,2023-09-16T21:25:03.728Z,,0,3,,3795,response,ISIC_7586566.JPG,6,ISIC_0663824.JPG,ISIC_0663824.JPG,false,0,keypress(z),500,786966,786965,783170,783165,783187,786986,8,400,22,,ISIC_7586566.JPG
break,html.Screen,4_121_1,2023-09-16T21:25:03.729Z,,0,,,NaN,,,,,,false,,,,786966,786966,,786966,,786986,8,400,,,
break_continue,html.Screen,4_121_2,2023-09-16T21:25:03.729Z,,0,,,NaN,,,,,,false,,,,786966,786966,,786966,,786986,8,400,,,
sequence,flow.Sequence,4_121,2023-09-16T21:25:03.729Z,,0,,,3779,completion,,,,,false,,,,786967,786966,783170,783165,783187,786986,8,400,,,
trial,html.Screen,4_122_0,2023-09-16T21:25:06.719Z,,0,3,,2986,response,ISIC_0027964.JPG,2,ISIC_0034164.JPG,ISIC_0034164.JPG,false,0,keypress(z),500,789956,789956,786970,786967,786986,789986,8,400,23,,ISIC_0027964.JPG
break,html.Screen,4_122_1,2023-09-16T21:25:06.719Z,,0,,,NaN,,,,,,false,,,,789956,789956,,789956,,789986,8,400,,,
break_continue,html.Screen,4_122_2,2023-09-16T21:25:06.719Z,,0,,,NaN,,,,,,false,,,,789957,789957,,789957,,789986,8,400,,,
sequence,flow.Sequence,4_122,2023-09-16T21:25:06.719Z,,0,,,2971,completion,,,,,false,,,,789957,789957,786970,786967,786986,789986,8,400,,,
trial,html.Screen,4_123_0,2023-09-16T21:25:12.247Z,,0,3,,5514,response,ISIC_0011369.JPG,3,ISIC_0033752.JPG,ISIC_0011369.JPG,false,1,keypress(m),500,795485,795484,789970,789957,789986,795520,8,400,24,,ISIC_0033752.JPG
break,html.Screen,4_123_1,2023-09-16T21:25:12.248Z,,0,,,NaN,,,,,,false,,,,795485,795485,,795485,,795520,8,400,,,
break_continue,html.Screen,4_123_2,2023-09-16T21:25:12.248Z,,0,,,NaN,,,,,,false,,,,795486,795486,,795485,,795520,8,400,,,
sequence,flow.Sequence,4_123,2023-09-16T21:25:12.248Z,,0,,,5500,completion,,,,,false,,,,795486,795486,789970,789957,789986,795520,8,400,,,
trial,html.Screen,4_124_0,2023-09-16T21:25:15.855Z,,0,3,,3588,response,ISIC_9081663.JPG,1,ISIC_5179620.JPG,ISIC_9081663.JPG,false,1,keypress(m),500,799092,799092,795504,795486,795520,799119,8,400,25,,ISIC_5179620.JPG
break,html.Screen,4_124_1,2023-09-16T21:25:15.855Z,,0,,,NaN,,,,,,false,,,,799092,799092,,799092,,799119,8,400,,,
break_continue,html.Screen,4_124_2,2023-09-16T21:25:15.856Z,,0,,,NaN,,,,,,false,,,,799093,799093,,799093,,799119,8,400,,,
sequence,flow.Sequence,4_124,2023-09-16T21:25:15.856Z,,0,,,3573,completion,,,,,false,,,,799093,799093,795504,795486,795520,799119,8,400,,,
trial,html.Screen,4_125_0,2023-09-16T21:25:18.793Z,,0,3,,2926,response,ISIC_9929097.JPG,13,ISIC_0062026.JPG,ISIC_9929097.JPG,false,1,keypress(m),500,802030,802030,799104,799093,799119,802053,8,400,26,,ISIC_0062026.JPG
break,html.Screen,4_125_1,2023-09-16T21:25:18.793Z,,0,,,NaN,,,,,,false,,,,802030,802030,,802030,,802053,8,400,,,
break_continue,html.Screen,4_125_2,2023-09-16T21:25:18.794Z,,0,,,NaN,,,,,,false,,,,802031.0000000001,802031.0000000001,,802031.0000000001,,802053,8,400,,,
sequence,flow.Sequence,4_125,2023-09-16T21:25:18.794Z,,0,,,2912.0000000001164,completion,,,,,false,,,,802031.0000000001,802031.0000000001,799104,799093,799119,802053,8,400,,,
trial,html.Screen,4_126_0,2023-09-16T21:25:21.998Z,,0,3,,3198,response,ISIC_3686179.JPG,10,ISIC_9397126.JPG,ISIC_9397126.JPG,false,0,keypress(z),500,805235,805235,802037,802031.0000000001,802053,805269,8,400,27,,ISIC_3686179.JPG
break,html.Screen,4_126_1,2023-09-16T21:25:21.999Z,,0,,,NaN,,,,,,false,,,,805236,805236,,805235,,805269,8,400,,,
break_continue,html.Screen,4_126_2,2023-09-16T21:25:21.999Z,,0,,,NaN,,,,,,false,,,,805236,805236,,805236,,805269,8,400,,,
sequence,flow.Sequence,4_126,2023-09-16T21:25:21.999Z,,0,,,3183,completion,,,,,false,,,,805236,805236,802037,802031.0000000001,802053,805269,8,400,,,
trial,html.Screen,4_127_0,2023-09-16T21:25:25.238Z,,0,3,,3221,response,ISIC_2076902.JPG,9,ISIC_0032001.JPG,ISIC_2076902.JPG,false,1,keypress(m),500,808475,808475,805254,805236,805269,808503,8,400,28,,ISIC_0032001.JPG
break,html.Screen,4_127_1,2023-09-16T21:25:25.239Z,,0,,,NaN,,,,,,false,,,,808475,808475,,808475,,808503,8,400,,,
break_continue,html.Screen,4_127_2,2023-09-16T21:25:25.239Z,,0,,,NaN,,,,,,false,,,,808476,808476,,808475,,808503,8,400,,,
sequence,flow.Sequence,4_127,2023-09-16T21:25:25.239Z,,0,,,3207,completion,,,,,false,,,,808476,808476,805254,805236,805269,808503,8,400,,,
trial,html.Screen,4_128_0,2023-09-16T21:25:28.325Z,,0,3,,3076,response,ISIC_0013258.JPG,0,ISIC_6423964.JPG,ISIC_6423964.JPG,false,0,keypress(z),500,811562,811562,808486,808476,808503,811586,8,400,29,,ISIC_0013258.JPG
break,html.Screen,4_128_1,2023-09-16T21:25:28.326Z,,0,,,NaN,,,,,,false,,,,811562,811562,,811562,,811586,8,400,,,
break_continue,html.Screen,4_128_2,2023-09-16T21:25:28.326Z,,0,,,NaN,,,,,,false,,,,811563,811562,,811562,,811586,8,400,,,
sequence,flow.Sequence,4_128,2023-09-16T21:25:28.326Z,,0,,,3059,completion,,,,,false,,,,811563,811562,808486,808476,808503,811586,8,400,,,
trial,html.Screen,4_129_0,2023-09-16T21:25:32.751Z,,0,3,,4418,response,ISIC_5948805.JPG,11,ISIC_0068627.JPG,ISIC_5948805.JPG,false,1,keypress(m),500,815988,815988,811570,811563,811586,816020,8,400,30,,ISIC_0068627.JPG
break,html.Screen,4_129_1,2023-09-16T21:25:32.752Z,,0,,,NaN,,,,,,false,,,,815989,815988,,815988,,816020,8,400,,,
break_continue,html.Screen,4_129_2,2023-09-16T21:25:32.752Z,,0,,,NaN,,,,,,false,,,,815989,815989,,815989,,816020,8,400,,,
sequence,flow.Sequence,4_129,2023-09-16T21:25:32.752Z,,0,,,4403,completion,,,,,false,,,,815989,815989,811570,811563,811586,816020,8,400,,,
trial,html.Screen,4_130_0,2023-09-16T21:25:35.860Z,,0,3,,3092,response,ISIC_0056921.JPG,10,ISIC_0024300.JPG,ISIC_0024300.JPG,false,0,keypress(z),500,819096,819096,816004,815989,816020,819119,8,400,31,,ISIC_0056921.JPG
break,html.Screen,4_130_1,2023-09-16T21:25:35.861Z,,0,,,NaN,,,,,,false,,,,819097,819097,,819096,,819119,8,400,,,
break_continue,html.Screen,4_130_2,2023-09-16T21:25:35.861Z,,0,,,NaN,,,,,,false,,,,819097,819097,,819097,,819119,8,400,,,
sequence,flow.Sequence,4_130,2023-09-16T21:25:35.861Z,,0,,,3077,completion,,,,,false,,,,819097,819097,816004,815989,816020,819119,8,400,,,
trial,html.Screen,4_131_0,2023-09-16T21:25:38.791Z,,0,3,,2926,response,ISIC_5565517.JPG,14,ISIC_1520897.JPG,ISIC_5565517.JPG,false,1,keypress(m),500,822028,822028,819102,819097,819119,822054,8,400,32,,ISIC_1520897.JPG
break,html.Screen,4_131_1,2023-09-16T21:25:38.792Z,,0,,,NaN,,,,,,false,,,,822028,822028,,822028,,822054,8,400,,,
break_continue,html.Screen,4_131_2,2023-09-16T21:25:38.792Z,,0,,,NaN,,,,,,false,,,,822028,822028,,822028,,822054,8,400,,,
sequence,flow.Sequence,4_131,2023-09-16T21:25:38.792Z,,0,,,2909,completion,,,,,false,,,,822028,822028,819102,819097,819119,822054,8,400,,,
trial,html.Screen,4_132_0,2023-09-16T21:25:42.280Z,,0,3,,3480,response,ISIC_0067417.JPG,9,ISIC_0031397.JPG,ISIC_0031397.JPG,false,0,keypress(z),500,825516,825516,822036,822029,822054,825552,8,400,33,,ISIC_0067417.JPG
break,html.Screen,4_132_1,2023-09-16T21:25:42.280Z,,0,,,NaN,,,,,,false,,,,825517,825517,,825516,,825552,8,400,,,
break_continue,html.Screen,4_132_2,2023-09-16T21:25:42.281Z,,0,,,NaN,,,,,,false,,,,825517,825517,,825517,,825552,8,400,,,
sequence,flow.Sequence,4_132,2023-09-16T21:25:42.281Z,,0,,,3463,completion,,,,,false,,,,825517,825517,822036,822028,822054,825552,8,400,,,
trial,html.Screen,4_133_0,2023-09-16T21:25:48.989Z,,0,3,,6689,response,ISIC_0057988.JPG,10,ISIC_0248628.JPG,ISIC_0057988.JPG,false,1,keypress(m),500,832225,832225,825536,825517,825552,832252,8,400,34,,ISIC_0248628.JPG
break,html.Screen,4_133_1,2023-09-16T21:25:48.990Z,,0,,,NaN,,,,,,false,,,,832226,832226,,832225,,832252,8,400,,,
break_continue,html.Screen,4_133_2,2023-09-16T21:25:48.990Z,,0,,,NaN,,,,,,false,,,,832226,832226,,832226,,832252,8,400,,,
sequence,flow.Sequence,4_133,2023-09-16T21:25:48.990Z,,0,,,6674,completion,,,,,false,,,,832226,832226,825536,825517,825552,832252,8,400,,,
trial,html.Screen,4_134_0,2023-09-16T21:25:52.165Z,,0,3,,3165.0000000001164,response,ISIC_0535416.JPG,0,ISIC_7505369.JPG,ISIC_7505369.JPG,false,0,keypress(z),500,835401.0000000001,835401.0000000001,832236,832226,832252,835419,8,400,35,,ISIC_0535416.JPG
break,html.Screen,4_134_1,2023-09-16T21:25:52.165Z,,0,,,NaN,,,,,,false,,,,835401.0000000001,835401.0000000001,,835401.0000000001,,835419,8,400,,,
break_continue,html.Screen,4_134_2,2023-09-16T21:25:52.165Z,,0,,,NaN,,,,,,false,,,,835401.0000000001,835401.0000000001,,835401.0000000001,,835419,8,400,,,
sequence,flow.Sequence,4_134,2023-09-16T21:25:52.165Z,,0,,,3149.0000000001164,completion,,,,,false,,,,835401.0000000001,835401.0000000001,832236,832226,832252,835419,8,400,,,
trial,html.Screen,4_135_0,2023-09-16T21:25:55.483Z,,0,3,,3316,response,ISIC_0056316.JPG,15,ISIC_7839712.JPG,ISIC_7839712.JPG,false,0,keypress(z),500,838719,838719,835403,835402,835419,838752,8,400,36,,ISIC_0056316.JPG
break,html.Screen,4_135_1,2023-09-16T21:25:55.484Z,,0,,,NaN,,,,,,false,,,,838720,838719,,838719,,838752,8,400,,,
break_continue,html.Screen,4_135_2,2023-09-16T21:25:55.484Z,,0,,,NaN,,,,,,false,,,,838720,838720,,838720,,838752,8,400,,,
sequence,flow.Sequence,4_135,2023-09-16T21:25:55.484Z,,0,,,3301,completion,,,,,false,,,,838720,838720,835403,835402,835419,838752,8,400,,,
trial,html.Screen,4_136_0,2023-09-16T21:25:58.808Z,,0,3,,3306,response,ISIC_0012068.JPG,10,ISIC_4568425.JPG,ISIC_4568425.JPG,false,0,keypress(z),500,842044,842043,838737,838720,838752,842070,8,400,37,,ISIC_0012068.JPG
break,html.Screen,4_136_1,2023-09-16T21:25:58.808Z,,0,,,NaN,,,,,,false,,,,842044,842044,,842044,,842070,8,400,,,
break_continue,html.Screen,4_136_2,2023-09-16T21:25:58.809Z,,0,,,NaN,,,,,,false,,,,842044,842044,,842044,,842070,8,400,,,
sequence,flow.Sequence,4_136,2023-09-16T21:25:58.809Z,,0,,,3292,completion,,,,,false,,,,842045.0000000001,842044,838737,838720,838752,842070,8,400,,,
trial,html.Screen,4_137_0,2023-09-16T21:26:01.734Z,,0,3,,2917,response,ISIC_0011726.JPG,4,ISIC_1102391.JPG,ISIC_1102391.JPG,false,0,keypress(z),500,844969,844969,842052,842045.0000000001,842070,845003,8,400,38,,ISIC_0011726.JPG
break,html.Screen,4_137_1,2023-09-16T21:26:01.734Z,,0,,,NaN,,,,,,false,,,,844970,844970,,844969,,845003,8,400,,,
break_continue,html.Screen,4_137_2,2023-09-16T21:26:01.734Z,,0,,,NaN,,,,,,false,,,,844970,844970,,844970,,845003,8,400,,,
sequence,flow.Sequence,4_137,2023-09-16T21:26:01.735Z,,0,,,2900,completion,,,,,false,,,,844970,844970,842052,842045.0000000001,842070,845003,8,400,,,
trial,html.Screen,4_138_0,2023-09-16T21:26:04.494Z,,0,3,,2744,response,ISIC_9574101.JPG,7,ISIC_0011497.JPG,ISIC_9574101.JPG,false,1,keypress(m),500,847730,847730,844986,844970,845003,847753,8,400,39,,ISIC_0011497.JPG
break,html.Screen,4_138_1,2023-09-16T21:26:04.495Z,,0,,,NaN,,,,,,false,,,,847731,847730,,847730,,847753,8,400,,,
break_continue,html.Screen,4_138_2,2023-09-16T21:26:04.495Z,,0,,,NaN,,,,,,false,,,,847731,847731,,847731,,847753,8,400,,,
sequence,flow.Sequence,4_138,2023-09-16T21:26:04.495Z,,0,,,2728,completion,,,,,false,,,,847731,847731,844986,844970,845003,847753,8,400,,,
trial,html.Screen,4_139_0,2023-09-16T21:26:07.351Z,,0,3,,2851,response,ISIC_0067893.JPG,1,ISIC_5971574.JPG,ISIC_5971574.JPG,false,0,keypress(z),500,850587,850586,847735,847731,847753,850619,8,400,40,,ISIC_0067893.JPG
break,html.Screen,4_139_1,2023-09-16T21:26:07.352Z,,0,,,NaN,,,,,,false,,,,850587,850587,,850587,,850619,8,400,,,
break_continue,html.Screen,4_139_2,2023-09-16T21:26:07.352Z,,0,,,NaN,,,,,,false,,,,850587,850587,,850587,,850619,8,400,,,
sequence,flow.Sequence,4_139,2023-09-16T21:26:07.352Z,,0,,,2834,completion,,,,,false,,,,850588,850587,847735,847731,847753,850619,8,400,,,
trial,html.Screen,4_140_0,2023-09-16T21:26:10.929Z,,0,3,,3561,response,ISIC_0026309.JPG,7,ISIC_7302456.JPG,ISIC_0026309.JPG,false,1,keypress(m),500,854164,854164,850603,850588,850619,854185,8,400,41,,ISIC_7302456.JPG
break,html.Screen,4_140_1,2023-09-16T21:26:10.930Z,,0,,,NaN,,,,,,false,,,,854165,854165,,854165,,854185,8,400,,,
break_continue,html.Screen,4_140_2,2023-09-16T21:26:10.930Z,,0,,,NaN,,,,,,false,,,,854165,854165,,854165,,854185,8,400,,,
sequence,flow.Sequence,4_140,2023-09-16T21:26:10.930Z,,0,,,3546,completion,,,,,false,,,,854165,854165,850603,850588,850619,854185,8,400,,,
trial,html.Screen,4_141_0,2023-09-16T21:26:16.503Z,,0,3,,5569,response,ISIC_1974152.JPG,16,ISIC_4391909.JPG,ISIC_1974152.JPG,false,1,keypress(m),500,859738,859738,854169,854165,854185,859769,8,400,42,,ISIC_4391909.JPG
break,html.Screen,4_141_1,2023-09-16T21:26:16.503Z,,0,,,NaN,,,,,,false,,,,859739,859739,,859738,,859769,8,400,,,
break_continue,html.Screen,4_141_2,2023-09-16T21:26:16.504Z,,0,,,NaN,,,,,,false,,,,859739,859739,,859739,,859769,8,400,,,
sequence,flow.Sequence,4_141,2023-09-16T21:26:16.504Z,,0,,,5554,completion,,,,,false,,,,859739,859739,854169,854165,854185,859769,8,400,,,
trial,html.Screen,4_142_0,2023-09-16T21:26:20.333Z,,0,3,,3815,response,ISIC_7319169.JPG,4,ISIC_5370803.JPG,ISIC_5370803.JPG,false,0,keypress(z),500,863568,863568,859753,859739,859769,863602,8,400,43,,ISIC_7319169.JPG
break,html.Screen,4_142_1,2023-09-16T21:26:20.334Z,,0,,,NaN,,,,,,false,,,,863569.0000000001,863569.0000000001,,863569.0000000001,,863602,8,400,,,
break_continue,html.Screen,4_142_2,2023-09-16T21:26:20.334Z,,0,,,NaN,,,,,,false,,,,863569.0000000001,863569.0000000001,,863569.0000000001,,863602,8,400,,,
sequence,flow.Sequence,4_142,2023-09-16T21:26:20.334Z,,0,,,3800.0000000001164,completion,,,,,false,,,,863570,863569.0000000001,859753,859739,859769,863602,8,400,,,
trial,html.Screen,4_143_0,2023-09-16T21:26:24.124Z,,0,3,,3773,response,ISIC_0025458.JPG,2,ISIC_0007029.JPG,ISIC_0007029.JPG,false,0,keypress(z),500,867359,867359,863586,863570,863602,867385,8,400,44,,ISIC_0025458.JPG
break,html.Screen,4_143_1,2023-09-16T21:26:24.125Z,,0,,,NaN,,,,,,false,,,,867360,867360,,867359,,867385,8,400,,,
break_continue,html.Screen,4_143_2,2023-09-16T21:26:24.125Z,,0,,,NaN,,,,,,false,,,,867360,867360,,867360,,867385,8,400,,,
sequence,flow.Sequence,4_143,2023-09-16T21:26:24.125Z,,0,,,3758,completion,,,,,false,,,,867360,867360,863586,863570,863602,867385,8,400,,,
trial,html.Screen,4_144_0,2023-09-16T21:26:27.233Z,,0,3,,3098,response,ISIC_4980079.JPG,2,ISIC_4419686.JPG,ISIC_4980079.JPG,false,1,keypress(m),500,870467,870467,867369,867360,867385,870503,8,400,45,,ISIC_4419686.JPG
break,html.Screen,4_144_1,2023-09-16T21:26:27.233Z,,0,,,NaN,,,,,,false,,,,870468.0000000001,870468.0000000001,,870468.0000000001,,870503,8,400,,,
break_continue,html.Screen,4_144_2,2023-09-16T21:26:27.233Z,,0,,,NaN,,,,,,false,,,,870468.0000000001,870468.0000000001,,870468.0000000001,,870503,8,400,,,
sequence,flow.Sequence,4_144,2023-09-16T21:26:27.233Z,,0,,,3083.0000000001164,completion,,,,,false,,,,870468.0000000001,870468.0000000001,867369,867360,867385,870503,8,400,,,
trial,html.Screen,4_145_0,2023-09-16T21:26:31.691Z,,0,3,,4441,response,ISIC_6207818.JPG,15,ISIC_0058891.JPG,ISIC_6207818.JPG,false,1,keypress(m),500,874926,874926,870485,870469,870503,874952,8,400,46,,ISIC_0058891.JPG
break,html.Screen,4_145_1,2023-09-16T21:26:31.692Z,,0,,,NaN,,,,,,false,,,,874927,874927,,874926,,874952,8,400,,,
break_continue,html.Screen,4_145_2,2023-09-16T21:26:31.692Z,,0,,,NaN,,,,,,false,,,,874927,874927,,874927,,874952,8,400,,,
sequence,flow.Sequence,4_145,2023-09-16T21:26:31.692Z,,0,,,4424,completion,,,,,false,,,,874927,874927,870485,870468.0000000001,870503,874952,8,400,,,
trial,html.Screen,4_146_0,2023-09-16T21:26:35.891Z,,0,3,,4190,response,ISIC_0011922.JPG,0,ISIC_0072516.JPG,ISIC_0072516.JPG,false,0,keypress(z),500,879126,879126,874936,874927,874952,879152,8,400,47,,ISIC_0011922.JPG
break,html.Screen,4_146_1,2023-09-16T21:26:35.892Z,,0,,,NaN,,,,,,false,,,,879127.0000000001,879126,,879126,,879152,8,400,,,
break_continue,html.Screen,4_146_2,2023-09-16T21:26:35.892Z,,0,,,NaN,,,,,,false,,,,879127.0000000001,879127.0000000001,,879127.0000000001,,879152,8,400,,,
sequence,flow.Sequence,4_146,2023-09-16T21:26:35.892Z,,0,,,4175.000000000116,completion,,,,,false,,,,879127.0000000001,879127.0000000001,874936,874927,874952,879152,8,400,,,
trial,html.Screen,4_147_0,2023-09-16T21:26:40.239Z,,0,3,,4338,response,ISIC_7755106.JPG,8,ISIC_0033021.JPG,ISIC_7755106.JPG,false,1,keypress(m),500,883474,883474,879136,879127.0000000001,879152,883503,8,400,48,,ISIC_0033021.JPG
break,html.Screen,4_147_1,2023-09-16T21:26:40.240Z,,0,,,NaN,,,,,,false,,,,883474,883474,,883474,,883503,8,400,,,
break_continue,html.Screen,4_147_2,2023-09-16T21:26:40.240Z,,0,,,NaN,,,,,,false,,,,883475,883475,,883474,,883503,8,400,,,
sequence,flow.Sequence,4_147,2023-09-16T21:26:40.240Z,,0,,,4323,completion,,,,,false,,,,883475,883475,879136,879127.0000000001,879152,883503,8,400,,,
trial,html.Screen,4_148_0,2023-09-16T21:26:44.747Z,,0,3,,4495,response,ISIC_4132082.JPG,14,ISIC_0026402.JPG,ISIC_0026402.JPG,false,0,keypress(z),500,887981,887981,883486,883475,883503,888002,8,400,49,,ISIC_4132082.JPG
break,html.Screen,4_148_1,2023-09-16T21:26:44.748Z,,0,,,NaN,,,,,,false,,,,887982,887982,,887981,,888002,8,400,,,
break_continue,html.Screen,4_148_2,2023-09-16T21:26:44.748Z,,0,,,NaN,,,,,,false,,,,887982,887982,,887982,,888002,8,400,,,
sequence,flow.Sequence,4_148,2023-09-16T21:26:44.748Z,,0,,,4479,completion,,,,,false,,,,887982,887982,883486,883475,883503,888002,8,400,,,
trial,html.Screen,4_149_0,2023-09-16T21:26:50.178Z,,0,3,,5427,response,ISIC_1434141.JPG,1,ISIC_6877295.JPG,ISIC_6877295.JPG,false,0,keypress(z),500,893412,893412,887985,887982,888002,893435,8,400,50,,ISIC_1434141.JPG
break,html.Screen,4_149_1,2023-09-16T21:27:00.184Z,,0,,,10000,timeout,,,,,false,,,,903418,903418,893419,893412,893435,903435,8,400,,,
break_continue,html.Screen,4_149_2,2023-09-16T21:27:05.711Z,,0,,,5350,response,,,,,false,continue,keypress(Space),,908945,908768,903418,903418,903435,908968,8,400,,,
sequence,flow.Sequence,4_149,2023-09-16T21:27:05.711Z,,0,,,20766,completion,,,,,false,,,,908945,908768,887985,887982,888002,908968,8,400,,,
trial,html.Screen,4_150_0,2023-09-16T21:27:10.083Z,,0,4,,4365,response,ISIC_0070814.JPG,2,ISIC_4570724.JPG,ISIC_4570724.JPG,false,0,keypress(z),500,913317,913317,908952,908945,908968,913352,8,400,1,,ISIC_0070814.JPG
break,html.Screen,4_150_1,2023-09-16T21:27:10.084Z,,0,,,NaN,,,,,,false,,,,913317,913317,,913317,,913352,8,400,,,
break_continue,html.Screen,4_150_2,2023-09-16T21:27:10.084Z,,0,,,NaN,,,,,,false,,,,913318,913318,,913317,,913352,8,400,,,
sequence,flow.Sequence,4_150,2023-09-16T21:27:10.084Z,,0,,,4350,completion,,,,,false,,,,913318,913318,908952,908945,908968,913352,8,400,,,
trial,html.Screen,4_151_0,2023-09-16T21:27:13.552Z,,0,4,,3450,response,ISIC_7052658.JPG,0,ISIC_0056326.JPG,ISIC_7052658.JPG,false,1,keypress(m),500,916786,916785,913335,913318,913352,916819,8,400,2,,ISIC_0056326.JPG
break,html.Screen,4_151_1,2023-09-16T21:27:13.552Z,,0,,,NaN,,,,,,false,,,,916786,916786,,916786,,916819,8,400,,,
break_continue,html.Screen,4_151_2,2023-09-16T21:27:13.553Z,,0,,,NaN,,,,,,false,,,,916786,916786,,916786,,916819,8,400,,,
sequence,flow.Sequence,4_151,2023-09-16T21:27:13.553Z,,0,,,3434,completion,,,,,false,,,,916786,916786,913335,913318,913352,916819,8,400,,,
trial,html.Screen,4_152_0,2023-09-16T21:27:16.788Z,,0,4,,3220.0000000001164,response,ISIC_0011645.JPG,14,ISIC_0071352.JPG,ISIC_0071352.JPG,false,0,keypress(z),500,920021.0000000001,920021.0000000001,916801,916786,916819,920052,8,400,3,,ISIC_0011645.JPG
break,html.Screen,4_152_1,2023-09-16T21:27:16.788Z,,0,,,NaN,,,,,,false,,,,920022,920021.0000000001,,920021.0000000001,,920052,8,400,,,
break_continue,html.Screen,4_152_2,2023-09-16T21:27:16.788Z,,0,,,NaN,,,,,,false,,,,920022,920022,,920022,,920052,8,400,,,
sequence,flow.Sequence,4_152,2023-09-16T21:27:16.788Z,,0,,,3203,completion,,,,,false,,,,920022,920022,916801,916786,916819,920052,8,400,,,
trial,html.Screen,4_153_0,2023-09-16T21:27:19.885Z,,0,4,,3085,response,ISIC_0034304.JPG,13,ISIC_4066726.JPG,ISIC_4066726.JPG,false,0,keypress(z),500,923119,923119,920034,920022,920052,923153,8,400,4,,ISIC_0034304.JPG
break,html.Screen,4_153_1,2023-09-16T21:27:19.886Z,,0,,,NaN,,,,,,false,,,,923119,923119,,923119,,923153,8,400,,,
break_continue,html.Screen,4_153_2,2023-09-16T21:27:19.886Z,,0,,,NaN,,,,,,false,,,,923119,923119,,923119,,923153,8,400,,,
sequence,flow.Sequence,4_153,2023-09-16T21:27:19.886Z,,0,,,3067,completion,,,,,false,,,,923119,923119,920034,920022,920052,923153,8,400,,,
trial,html.Screen,4_154_0,2023-09-16T21:27:23.893Z,,0,4,,3992,response,ISIC_9768421.JPG,4,ISIC_0013917.JPG,ISIC_9768421.JPG,false,1,keypress(m),500,927126,927126,923134,923119,923153,927151,8,400,5,,ISIC_0013917.JPG
break,html.Screen,4_154_1,2023-09-16T21:27:23.893Z,,0,,,NaN,,,,,,false,,,,927127.0000000001,927127.0000000001,,927126,,927151,8,400,,,
break_continue,html.Screen,4_154_2,2023-09-16T21:27:23.894Z,,0,,,NaN,,,,,,false,,,,927127.0000000001,927127.0000000001,,927127.0000000001,,927151,8,400,,,
sequence,flow.Sequence,4_154,2023-09-16T21:27:23.894Z,,0,,,3974.0000000001164,completion,,,,,false,,,,927127.0000000001,927127.0000000001,923134,923119,923153,927151,8,400,,,
trial,html.Screen,4_155_0,2023-09-16T21:27:27.927Z,,0,4,,4025,response,ISIC_2153301.JPG,3,ISIC_9795458.JPG,ISIC_9795458.JPG,false,0,keypress(z),500,931160,931159,927134,927127.0000000001,927151,931185,8,400,6,,ISIC_2153301.JPG
break,html.Screen,4_155_1,2023-09-16T21:27:27.927Z,,0,,,NaN,,,,,,false,,,,931160,931160,,931160,,931185,8,400,,,
break_continue,html.Screen,4_155_2,2023-09-16T21:27:27.927Z,,0,,,NaN,,,,,,false,,,,931160,931160,,931160,,931185,8,400,,,
sequence,flow.Sequence,4_155,2023-09-16T21:27:27.927Z,,0,,,4009,completion,,,,,false,,,,931160,931160,927134,927127.0000000001,927151,931185,8,400,,,
trial,html.Screen,4_156_0,2023-09-16T21:27:34.967Z,,0,4,,7032,response,ISIC_0289478.JPG,8,ISIC_0063258.JPG,ISIC_0063258.JPG,false,0,keypress(z),500,938200,938200,931168,931161,931185,938234,8,400,7,,ISIC_0289478.JPG
break,html.Screen,4_156_1,2023-09-16T21:27:34.968Z,,0,,,NaN,,,,,,false,,,,938201,938201,,938200,,938234,8,400,,,
break_continue,html.Screen,4_156_2,2023-09-16T21:27:34.968Z,,0,,,NaN,,,,,,false,,,,938201,938201,,938201,,938234,8,400,,,
sequence,flow.Sequence,4_156,2023-09-16T21:27:34.968Z,,0,,,7016,completion,,,,,false,,,,938201,938201,931168,931160,931185,938234,8,400,,,
trial,html.Screen,4_157_0,2023-09-16T21:27:38.570Z,,0,4,,3585,response,ISIC_0031821.JPG,2,ISIC_8266094.JPG,ISIC_8266094.JPG,false,0,keypress(z),500,941803,941803,938218,938201,938234,941834,8,400,8,,ISIC_0031821.JPG
break,html.Screen,4_157_1,2023-09-16T21:27:38.571Z,,0,,,NaN,,,,,,false,,,,941804,941804,,941803,,941834,8,400,,,
break_continue,html.Screen,4_157_2,2023-09-16T21:27:38.571Z,,0,,,NaN,,,,,,false,,,,941804,941804,,941804,,941834,8,400,,,
sequence,flow.Sequence,4_157,2023-09-16T21:27:38.571Z,,0,,,3570,completion,,,,,false,,,,941804,941804,938218,938201,938234,941834,8,400,,,
trial,html.Screen,4_158_0,2023-09-16T21:27:42.219Z,,0,4,,3634,response,ISIC_8773962.JPG,1,ISIC_0072215.JPG,ISIC_8773962.JPG,false,1,keypress(m),500,945452,945452,941818,941804,941834,945484,8,400,9,,ISIC_0072215.JPG
