sender,sender_type,sender_id,timestamp,meta,,blockNo,condition,duration,ended_on,img_left,img_reveal,img_right,loser,practice,response,response_action,selection_duration,time_commit,time_end,time_render,time_run,time_show,time_switch,total_blocks,total_trials,trialNo,url,winner
informed_consent,html.Screen,0,2023-09-11T18:04:57.587Z,"{""labjs_version"":""20.2.4"",""labjs_build"":{""flavor"":""production"",""commit"":""f5b4a49f956347addd546a832a3327688c2c0fef""},""location"":""https://run.pavlovia.org/MurrayBennett/melanoma-2afc/?participant=67592&platform=sona"",""userAgent"":""Mozilla/5.0 (Macintosh; Intel Mac OS X 10_15_7) AppleWebKit/537.36 (KHTML, like Gecko) Chrome/116.0.0.0 Safari/537.36"",""platform"":""MacIntel"",""language"":""en-US"",""locale"":""en-US"",""timeZone"":""America/Chicago"",""timezoneOffset"":300,""screen_width"":1440,""screen_height"":900,""scroll_width"":1440,""scroll_height"":735,""window_innerWidth"":1440,""window_innerHeight"":783,""devicePixelRatio"":2}",,,,2053.32299999702,response,,,,,,consent,click button,,4427.5,4413.29999999702,2343.311,2340.5999999940395,2359.977,4443.489,,,,"{""participant"":""67592"",""platform"":""sona""}",
Welcome,html.Screen,1,2023-09-11T18:04:59.343Z,,,,uniform,1729.911000005961,response,,,,,,continue,click button,,6183.4000000059605,6173.4000000059605,4410.157,4427.70000000298,4443.489,6193.419,,,,,
trial,html.Screen,2_0_0,2023-09-11T18:05:03.521Z,,0,0,,4168.38099999702,response,ISIC_0025593.JPG,,ISIC_0063388.JPG,ISIC_0063388.JPG,true,0,keypress(z),500,10362.09999999404,10361.79999999702,6176.753,6183.70000000298,6193.419,10393.251,1,6,1,,ISIC_0025593.JPG
sequence,flow.Sequence,2_0,2023-09-11T18:05:03.521Z,,0,,,4168.38099999702,completion,,,,,true,,,,10362.29999999702,10361.79999999702,6176.753,6183.5999999940395,6193.419,10393.251,1,6,,,
trial,html.Screen,2_1_0,2023-09-11T18:05:06.486Z,,0,0,,2933.44900000298,response,ISIC_1309015.JPG,,ISIC_0028178.JPG,ISIC_1309015.JPG,true,1,keypress(m),500,13327,13326.70000000298,10376.585,10362.40000000596,10393.251,13343.133,1,6,2,,ISIC_0028178.JPG
sequence,flow.Sequence,2_1,2023-09-11T18:05:06.486Z,,0,,,2933.44900000298,completion,,,,,true,,,,13327.5,13326.70000000298,10376.585,10362.40000000596,10393.251,13343.133,1,6,,,
trial,html.Screen,2_2_0,2023-09-11T18:05:10.348Z,,0,0,,3845.4669999940397,response,ISIC_3314853.JPG,,ISIC_0031128.JPG,ISIC_3314853.JPG,true,1,keypress(m),500,17188.90000000596,17188.59999999404,13326.467,13327.59999999404,13343.133,17193.248,1,6,3,,ISIC_0031128.JPG
sequence,flow.Sequence,2_2,2023-09-11T18:05:10.348Z,,0,,,3845.4669999940397,completion,,,,,true,,,,17189.20000000298,17188.59999999404,13326.467,13327.59999999404,13343.133,17193.248,1,6,,,
trial,html.Screen,2_3_0,2023-09-11T18:05:13.983Z,,0,0,,3630.7520000000004,response,ISIC_8980141.JPG,,ISIC_0031612.JPG,ISIC_8980141.JPG,true,1,keypress(m),500,20824.29999999702,20824,17176.582,17189.5,17193.248,20826.436,1,6,4,,ISIC_0031612.JPG
sequence,flow.Sequence,2_3,2023-09-11T18:05:13.983Z,,0,,,3630.7520000000004,completion,,,,,true,,,,20824.70000000298,20824,17176.582,17189.40000000596,17193.248,20826.436,1,6,,,
trial,html.Screen,2_4_0,2023-09-11T18:05:17.973Z,,0,0,,3987.2640000029787,response,ISIC_9721604.JPG,,ISIC_1197737.JPG,ISIC_9721604.JPG,true,1,keypress(m),500,24814.09999999404,24813.70000000298,20809.77,20824.90000000596,20826.436,24826.276,1,6,5,,ISIC_1197737.JPG
sequence,flow.Sequence,2_4,2023-09-11T18:05:17.973Z,,0,,,3987.2640000029787,completion,,,,,true,,,,24814.29999999702,24813.70000000298,20809.77,20824.79999999702,20826.436,24826.276,1,6,,,
trial,html.Screen,2_5_0,2023-09-11T18:05:21.635Z,,0,0,,3649.323999994038,response,ISIC_0025346.JPG,,ISIC_0010681.JPG,ISIC_0025346.JPG,true,1,keypress(m),500,28476,28475.59999999404,24809.61,24814.70000000298,24826.276,28493.07,1,6,6,,ISIC_0010681.JPG
sequence,flow.Sequence,2_5,2023-09-11T18:05:21.635Z,,0,,,3649.323999994038,completion,,,,,true,,,,28476.29999999702,28475.59999999404,24809.61,24814.5,24826.276,28493.07,1,6,,,
loop,flow.Loop,2,2023-09-11T18:05:21.635Z,,,,,22282.180999994038,completion,,,,,true,,,,28476.59999999404,28475.59999999404,6176.753,6183.5,6193.419,28493.07,1,6,,,
exp_instructions,html.Screen,3,2023-09-11T18:05:23.754Z,,,,,2095.6300000029805,response,,,,,,continue,keypress(Space),,30595.40000000596,30588.70000000298,28476.404,28476.70000000298,28493.07,30609.652,,,,,
trial,html.Screen,4_0_0,2023-09-11T18:05:27.058Z,,0,1,,3289.1479999970215,response,ISIC_7492530.JPG,4,ISIC_3123711.JPG,ISIC_7492530.JPG,false,1,keypress(m),500,33899.09999999404,33898.79999999702,30592.986,30595.90000000596,30609.652,33909.52,8,400,1,,ISIC_3123711.JPG
break,html.Screen,4_0_1,2023-09-11T18:05:27.059Z,,0,,,NaN,,,,,,false,,,,33900.20000000298,33899.90000000596,,33899.40000000596,,33909.52,8,400,,,
break_continue,html.Screen,4_0_2,2023-09-11T18:05:27.059Z,,0,,,NaN,,,,,,false,,,,33900.79999999702,33900.59999999404,,33900.40000000596,,33909.52,8,400,,,
sequence,flow.Sequence,4_0,2023-09-11T18:05:27.060Z,,0,,,3290.9479999940413,completion,,,,,false,,,,33901,33900.59999999404,30592.986,30595.90000000596,30609.652,33909.52,8,400,,,
trial,html.Screen,4_1_0,2023-09-11T18:05:30.663Z,,0,1,,3594.3800000059637,response,ISIC_0063425.JPG,5,ISIC_7110531.JPG,ISIC_7110531.JPG,false,0,keypress(z),500,37504.20000000298,37503.90000000596,33892.854,33901.20000000298,33909.52,37509.64,8,400,2,,ISIC_0063425.JPG
break,html.Screen,4_1_1,2023-09-11T18:05:30.663Z,,0,,,NaN,,,,,,false,,,,37505,37504.79999999702,,37504.40000000596,,37509.64,8,400,,,
break_continue,html.Screen,4_1_2,2023-09-11T18:05:30.664Z,,0,,,NaN,,,,,,false,,,,37505.40000000596,37505.20000000298,,37505.09999999404,,37509.64,8,400,,,
sequence,flow.Sequence,4_1,2023-09-11T18:05:30.664Z,,0,,,3595.6800000029834,completion,,,,,false,,,,37505.70000000298,37505.20000000298,33892.854,33901.09999999404,33909.52,37509.64,8,400,,,
trial,html.Screen,4_2_0,2023-09-11T18:05:34.350Z,,0,1,,3681.45999999404,response,ISIC_0056167.JPG,7,ISIC_0005304.JPG,ISIC_0005304.JPG,false,0,keypress(z),500,41191.40000000596,41191.09999999404,37492.974,37505.70000000298,37509.64,41192.826,8,400,3,,ISIC_0056167.JPG
break,html.Screen,4_2_1,2023-09-11T18:05:34.351Z,,0,,,NaN,,,,,,false,,,,41192.20000000298,41192,,41191.59999999404,,41192.826,8,400,,,
break_continue,html.Screen,4_2_2,2023-09-11T18:05:34.351Z,,0,,,NaN,,,,,,false,,,,41192.70000000298,41192.5,,41192.29999999702,,41192.826,8,400,,,
sequence,flow.Sequence,4_2,2023-09-11T18:05:34.351Z,,0,,,3682.8600000000006,completion,,,,,false,,,,41192.90000000596,41192.5,37492.974,37505.70000000298,37509.64,41192.826,8,400,,,
trial,html.Screen,4_3_0,2023-09-11T18:05:37.673Z,,0,1,,3321.7739999940386,response,ISIC_7895093.JPG,9,ISIC_3006279.JPG,ISIC_7895093.JPG,false,1,keypress(m),500,44514.79999999702,44514.59999999404,41176.16,41193.09999999404,41192.826,44526.026,8,400,4,,ISIC_3006279.JPG
break,html.Screen,4_3_1,2023-09-11T18:05:37.674Z,,0,,,NaN,,,,,,false,,,,44515.70000000298,44515.5,,44515.09999999404,,44526.026,8,400,,,
break_continue,html.Screen,4_3_2,2023-09-11T18:05:37.675Z,,0,,,NaN,,,,,,false,,,,44516.20000000298,44516.09999999404,,44515.90000000596,,44526.026,8,400,,,
sequence,flow.Sequence,4_3,2023-09-11T18:05:37.675Z,,0,,,3323.2739999940386,completion,,,,,false,,,,44516.5,44516.09999999404,41176.16,41193,41192.826,44526.026,8,400,,,
trial,html.Screen,4_4_0,2023-09-11T18:05:40.737Z,,0,1,,3052.174000002982,response,ISIC_3878174.JPG,7,ISIC_0413173.JPG,ISIC_0413173.JPG,false,0,keypress(z),500,47578.5,47578.20000000298,44509.36,44516.70000000298,44526.026,47592.848,8,400,5,,ISIC_3878174.JPG
break,html.Screen,4_4_1,2023-09-11T18:05:40.738Z,,0,,,NaN,,,,,,false,,,,47579.40000000596,47579.09999999404,,47578.70000000298,,47592.848,8,400,,,
break_continue,html.Screen,4_4_2,2023-09-11T18:05:40.738Z,,0,,,NaN,,,,,,false,,,,47579.79999999702,47579.70000000298,,47579.5,,47592.848,8,400,,,
sequence,flow.Sequence,4_4,2023-09-11T18:05:40.738Z,,0,,,3053.674000002982,completion,,,,,false,,,,47580,47579.70000000298,44509.36,44516.59999999404,44526.026,47592.848,8,400,,,
trial,html.Screen,4_5_0,2023-09-11T18:05:43.813Z,,0,1,,3061.4519999970216,response,ISIC_5777697.JPG,9,ISIC_9754098.JPG,ISIC_9754098.JPG,false,0,keypress(z),500,50654.59999999404,50654.29999999702,47576.182,47580.20000000298,47592.848,50659.392,8,400,6,,ISIC_5777697.JPG
break,html.Screen,4_5_1,2023-09-11T18:05:43.815Z,,0,,,NaN,,,,,,false,,,,50656.40000000596,50655.20000000298,,50654.79999999702,,50659.392,8,400,,,
break_continue,html.Screen,4_5_2,2023-09-11T18:05:43.815Z,,0,,,NaN,,,,,,false,,,,50656.90000000596,50656.70000000298,,50656.59999999404,,50659.392,8,400,,,
sequence,flow.Sequence,4_5,2023-09-11T18:05:43.816Z,,0,,,3063.852000002982,completion,,,,,false,,,,50657.09999999404,50656.70000000298,47576.182,47580.09999999404,47592.848,50659.392,8,400,,,
trial,html.Screen,4_6_0,2023-09-11T18:05:47.138Z,,0,1,,3320.108,response,ISIC_0014666.JPG,7,ISIC_0028230.JPG,ISIC_0028230.JPG,false,0,keypress(z),500,53979.79999999702,53979.5,50642.726,50657.20000000298,50659.392,53992.592,8,400,7,,ISIC_0014666.JPG
break,html.Screen,4_6_1,2023-09-11T18:05:47.139Z,,0,,,NaN,,,,,,false,,,,53980.59999999404,53980.40000000596,,53980,,53992.592,8,400,,,
break_continue,html.Screen,4_6_2,2023-09-11T18:05:47.139Z,,0,,,NaN,,,,,,false,,,,53981,53980.90000000596,,53980.79999999702,,53992.592,8,400,,,
sequence,flow.Sequence,4_6,2023-09-11T18:05:47.140Z,,0,,,3321.5080000059606,completion,,,,,false,,,,53981.20000000298,53980.90000000596,50642.726,50657.20000000298,50659.392,53992.592,8,400,,,
trial,html.Screen,4_7_0,2023-09-11T18:05:50.273Z,,0,1,,3122.0079999940426,response,ISIC_0056796.JPG,5,ISIC_7100813.JPG,ISIC_7100813.JPG,false,0,keypress(z),500,57114.90000000596,57114.59999999404,53975.926,53981.40000000596,53992.592,57126.09,8,400,8,,ISIC_0056796.JPG
break,html.Screen,4_7_1,2023-09-11T18:05:50.274Z,,0,,,NaN,,,,,,false,,,,57115.70000000298,57115.5,,57115.09999999404,,57126.09,8,400,,,
break_continue,html.Screen,4_7_2,2023-09-11T18:05:50.274Z,,0,,,NaN,,,,,,false,,,,57116,57116,,57115.79999999702,,57126.09,8,400,,,
sequence,flow.Sequence,4_7,2023-09-11T18:05:50.275Z,,0,,,3123.408000000003,completion,,,,,false,,,,57116.29999999702,57116,53975.926,53981.29999999702,53992.592,57126.09,8,400,,,
trial,html.Screen,4_8_0,2023-09-11T18:05:53.617Z,,0,1,,3332.310000005964,response,ISIC_0010630.JPG,6,ISIC_1265382.JPG,ISIC_1265382.JPG,false,0,keypress(z),500,60458.70000000298,60458.40000000596,57109.424,57116.5,57126.09,60475.956,8,400,9,,ISIC_0010630.JPG
break,html.Screen,4_8_1,2023-09-11T18:05:53.618Z,,0,,,NaN,,,,,,false,,,,60459.5,60459.29999999702,,60459,,60475.956,8,400,,,
break_continue,html.Screen,4_8_2,2023-09-11T18:05:53.618Z,,0,,,NaN,,,,,,false,,,,60460,60459.79999999702,,60459.70000000298,,60475.956,8,400,,,
sequence,flow.Sequence,4_8,2023-09-11T18:05:53.619Z,,0,,,3333.7099999970233,completion,,,,,false,,,,60460.20000000298,60459.79999999702,57109.424,57116.40000000596,57126.09,60475.956,8,400,,,
trial,html.Screen,4_9_0,2023-09-11T18:05:56.643Z,,0,1,,3008.8439999970215,response,ISIC_0008251.JPG,6,ISIC_0063742.JPG,ISIC_0008251.JPG,false,1,keypress(m),500,63485,63484.79999999702,60459.29,60460.29999999702,60475.956,63492.502,8,400,10,,ISIC_0063742.JPG
break,html.Screen,4_9_1,2023-09-11T18:05:56.644Z,,0,,,NaN,,,,,,false,,,,63485.90000000596,63485.70000000298,,63485.29999999702,,63492.502,8,400,,,
break_continue,html.Screen,4_9_2,2023-09-11T18:05:56.645Z,,0,,,NaN,,,,,,false,,,,63486.40000000596,63486.20000000298,,63486.09999999404,,63492.502,8,400,,,
sequence,flow.Sequence,4_9,2023-09-11T18:05:56.645Z,,0,,,3010.244000002982,completion,,,,,false,,,,63486.5,63486.20000000298,60459.29,60460.29999999702,60475.956,63492.502,8,400,,,
trial,html.Screen,4_10_0,2023-09-11T18:05:59.611Z,,0,1,,2959.597999994039,response,ISIC_2513018.JPG,8,ISIC_0015219.JPG,ISIC_2513018.JPG,false,1,keypress(m),500,66452.40000000596,66452.09999999404,63475.836,63486.70000000298,63492.502,66459.05,8,400,11,,ISIC_0015219.JPG
break,html.Screen,4_10_1,2023-09-11T18:05:59.612Z,,0,,,NaN,,,,,,false,,,,66453.20000000298,66452.90000000596,,66452.59999999404,,66459.05,8,400,,,
break_continue,html.Screen,4_10_2,2023-09-11T18:05:59.612Z,,0,,,NaN,,,,,,false,,,,66453.5,66453.40000000596,,66453.29999999702,,66459.05,8,400,,,
sequence,flow.Sequence,4_10,2023-09-11T18:05:59.612Z,,0,,,2960.89800000596,completion,,,,,false,,,,66453.70000000298,66453.40000000596,63475.836,63486.70000000298,63492.502,66459.05,8,400,,,
trial,html.Screen,4_11_0,2023-09-11T18:06:02.987Z,,0,1,,3369.6500000029773,response,ISIC_0010476.JPG,8,ISIC_0010705.JPG,ISIC_0010705.JPG,false,0,keypress(z),500,69828.90000000596,69828.70000000298,66442.384,66453.79999999702,66459.05,69842.519,8,400,12,,ISIC_0010476.JPG
break,html.Screen,4_11_1,2023-09-11T18:06:02.988Z,,0,,,NaN,,,,,,false,,,,69829.70000000298,69829.5,,69829.09999999404,,69842.519,8,400,,,
break_continue,html.Screen,4_11_2,2023-09-11T18:06:02.988Z,,0,,,NaN,,,,,,false,,,,69830.09999999404,69829.90000000596,,69829.79999999702,,69842.519,8,400,,,
sequence,flow.Sequence,4_11,2023-09-11T18:06:02.989Z,,0,,,3370.8500000059576,completion,,,,,false,,,,69830.29999999702,69829.90000000596,66442.384,66453.79999999702,66459.05,69842.519,8,400,,,
trial,html.Screen,4_12_0,2023-09-11T18:06:06.865Z,,0,1,,3863.9809999999998,response,ISIC_0029303.JPG,8,ISIC_0063672.JPG,ISIC_0029303.JPG,false,1,keypress(m),500,73706.70000000298,73706.5,69825.853,69830.40000000596,69842.519,73709.031,8,400,13,,ISIC_0063672.JPG
break,html.Screen,4_12_1,2023-09-11T18:06:06.866Z,,0,,,NaN,,,,,,false,,,,73707.40000000596,73707.29999999702,,73706.90000000596,,73709.031,8,400,,,
break_continue,html.Screen,4_12_2,2023-09-11T18:06:06.866Z,,0,,,NaN,,,,,,false,,,,73707.90000000596,73707.70000000298,,73707.59999999404,,73709.031,8,400,,,
sequence,flow.Sequence,4_12,2023-09-11T18:06:06.866Z,,0,,,3865.18100000298,completion,,,,,false,,,,73708,73707.70000000298,69825.853,69830.29999999702,69842.519,73709.031,8,400,,,
trial,html.Screen,4_13_0,2023-09-11T18:06:09.877Z,,0,1,,3009.268999997017,response,ISIC_0011483.JPG,7,ISIC_0296580.JPG,ISIC_0296580.JPG,false,0,keypress(z),500,76718.59999999404,76718.29999999702,73692.365,73708.20000000298,73709.031,76725.577,8,400,14,,ISIC_0011483.JPG
break,html.Screen,4_13_1,2023-09-11T18:06:09.878Z,,0,,,NaN,,,,,,false,,,,76719.29999999702,76719.09999999404,,76718.70000000298,,76725.577,8,400,,,
break_continue,html.Screen,4_13_2,2023-09-11T18:06:09.878Z,,0,,,NaN,,,,,,false,,,,76719.70000000298,76719.59999999404,,76719.5,,76725.577,8,400,,,
sequence,flow.Sequence,4_13,2023-09-11T18:06:09.878Z,,0,,,3010.568999994037,completion,,,,,false,,,,76719.90000000596,76719.59999999404,73692.365,73708.20000000298,73709.031,76725.577,8,400,,,
trial,html.Screen,4_14_0,2023-09-11T18:06:14.018Z,,0,1,,4133.6230000029755,response,ISIC_8704668.JPG,8,ISIC_6447663.JPG,ISIC_8704668.JPG,false,1,keypress(m),500,80859.5,80859.20000000298,76708.911,76720,76725.577,80875.693,8,400,15,,ISIC_6447663.JPG
break,html.Screen,4_14_1,2023-09-11T18:06:14.019Z,,0,,,NaN,,,,,,false,,,,80860.29999999702,80860.09999999404,,80859.79999999702,,80875.693,8,400,,,
break_continue,html.Screen,4_14_2,2023-09-11T18:06:14.019Z,,0,,,NaN,,,,,,false,,,,80860.70000000298,80860.59999999404,,80860.5,,80875.693,8,400,,,
sequence,flow.Sequence,4_14,2023-09-11T18:06:14.019Z,,0,,,4135.022999994035,completion,,,,,false,,,,80861,80860.59999999404,76708.911,76720,76725.577,80875.693,8,400,,,
trial,html.Screen,4_15_0,2023-09-11T18:06:16.839Z,,0,1,,2804.8070000000007,response,ISIC_0002184.JPG,6,ISIC_0014745.JPG,ISIC_0002184.JPG,false,1,keypress(m),500,83680.70000000298,83680.5,80859.027,80861.09999999404,80875.693,83708.913,8,400,16,,ISIC_0014745.JPG
break,html.Screen,4_15_1,2023-09-11T18:06:16.840Z,,0,,,NaN,,,,,,false,,,,83681.40000000596,83681.29999999702,,83681,,83708.913,8,400,,,
break_continue,html.Screen,4_15_2,2023-09-11T18:06:16.840Z,,0,,,NaN,,,,,,false,,,,83681.90000000596,83681.70000000298,,83681.59999999404,,83708.913,8,400,,,
sequence,flow.Sequence,4_15,2023-09-11T18:06:16.840Z,,0,,,2806.007000002981,completion,,,,,false,,,,83682,83681.70000000298,80859.027,80861.09999999404,80875.693,83708.913,8,400,,,
trial,html.Screen,4_16_0,2023-09-11T18:06:19.681Z,,0,1,,2813.5869999999995,response,ISIC_0028998.JPG,6,ISIC_5791954.JPG,ISIC_5791954.JPG,false,0,keypress(z),500,86522.70000000298,86522.5,83692.247,83682.20000000298,83708.913,86525.467,8,400,17,,ISIC_0028998.JPG
break,html.Screen,4_16_1,2023-09-11T18:06:19.682Z,,0,,,NaN,,,,,,false,,,,86523.5,86523.29999999702,,86522.90000000596,,86525.467,8,400,,,
break_continue,html.Screen,4_16_2,2023-09-11T18:06:19.682Z,,0,,,NaN,,,,,,false,,,,86523.90000000596,86523.79999999702,,86523.70000000298,,86525.467,8,400,,,
sequence,flow.Sequence,4_16,2023-09-11T18:06:19.682Z,,0,,,2814.8869999970193,completion,,,,,false,,,,86524.09999999404,86523.79999999702,83692.247,83682.20000000298,83708.913,86525.467,8,400,,,
trial,html.Screen,4_17_0,2023-09-11T18:06:23.560Z,,0,1,,3875.532999999996,response,ISIC_7797655.JPG,7,ISIC_0061630.JPG,ISIC_0061630.JPG,false,0,keypress(z),500,90401.29999999702,90401,86508.801,86524.29999999702,86525.467,90408.914,8,400,18,,ISIC_7797655.JPG
break,html.Screen,4_17_1,2023-09-11T18:06:23.560Z,,0,,,NaN,,,,,,false,,,,90402.09999999404,90401.79999999702,,90401.59999999404,,90408.914,8,400,,,
break_continue,html.Screen,4_17_2,2023-09-11T18:06:23.561Z,,0,,,NaN,,,,,,false,,,,90402.5,90402.40000000596,,90402.29999999702,,90408.914,8,400,,,
sequence,flow.Sequence,4_17,2023-09-11T18:06:23.561Z,,0,,,3876.9330000059563,completion,,,,,false,,,,90402.70000000298,90402.40000000596,86508.801,86524.20000000298,86525.467,90408.914,8,400,,,
trial,html.Screen,4_18_0,2023-09-11T18:06:26.241Z,,0,1,,2673.486000005956,response,ISIC_1202785.JPG,6,ISIC_2366727.JPG,ISIC_2366727.JPG,false,0,keypress(z),500,93082.70000000298,93082.40000000596,90392.248,90402.79999999702,90408.914,93092.14,8,400,19,,ISIC_1202785.JPG
break,html.Screen,4_18_1,2023-09-11T18:06:26.242Z,,0,,,NaN,,,,,,false,,,,93083.5,93083.29999999702,,93082.90000000596,,93092.14,8,400,,,
break_continue,html.Screen,4_18_2,2023-09-11T18:06:26.242Z,,0,,,NaN,,,,,,false,,,,93084,93083.79999999702,,93083.70000000298,,93092.14,8,400,,,
sequence,flow.Sequence,4_18,2023-09-11T18:06:26.242Z,,0,,,2674.8859999970155,completion,,,,,false,,,,93084.09999999404,93083.79999999702,90392.248,90402.79999999702,90408.914,93092.14,8,400,,,
trial,html.Screen,4_19_0,2023-09-11T18:06:28.918Z,,0,1,,2667.6599999970203,response,ISIC_7599444.JPG,7,ISIC_1885174.JPG,ISIC_7599444.JPG,false,1,keypress(m),500,95760.09999999404,95759.79999999702,93075.474,93084.29999999702,93092.14,95775.366,8,400,20,,ISIC_1885174.JPG
break,html.Screen,4_19_1,2023-09-11T18:06:28.919Z,,0,,,NaN,,,,,,false,,,,95760.79999999702,95760.59999999404,,95760.29999999702,,95775.366,8,400,,,
break_continue,html.Screen,4_19_2,2023-09-11T18:06:28.920Z,,0,,,NaN,,,,,,false,,,,95761.20000000298,95761.09999999404,,95761,,95775.366,8,400,,,
sequence,flow.Sequence,4_19,2023-09-11T18:06:28.920Z,,0,,,2668.95999999404,completion,,,,,false,,,,95761.40000000596,95761.09999999404,93075.474,93084.20000000298,93092.14,95775.366,8,400,,,
trial,html.Screen,4_20_0,2023-09-11T18:06:32.172Z,,0,1,,3238.534000005966,response,ISIC_7264251.JPG,6,ISIC_7268123.JPG,ISIC_7268123.JPG,false,0,keypress(z),500,99014.09999999404,99013.90000000596,95758.7,95761.59999999404,95775.366,99025.51,8,400,21,,ISIC_7264251.JPG
break,html.Screen,4_20_1,2023-09-11T18:06:32.173Z,,0,,,NaN,,,,,,false,,,,99015,99014.70000000298,,99014.40000000596,,99025.51,8,400,,,
break_continue,html.Screen,4_20_2,2023-09-11T18:06:32.174Z,,0,,,NaN,,,,,,false,,,,99015.29999999702,99015.29999999702,,99015.09999999404,,99025.51,8,400,,,
sequence,flow.Sequence,4_20,2023-09-11T18:06:32.174Z,,0,,,3239.9339999970252,completion,,,,,false,,,,99015.5,99015.29999999702,95758.7,95761.59999999404,95775.366,99025.51,8,400,,,
trial,html.Screen,4_21_0,2023-09-11T18:06:34.729Z,,0,1,,2544.4900000000052,response,ISIC_2483825.JPG,6,ISIC_0033549.JPG,ISIC_2483825.JPG,false,1,keypress(m),500,101570.29999999702,101570,99008.844,99015.70000000298,99025.51,101575.408,8,400,22,,ISIC_0033549.JPG
break,html.Screen,4_21_1,2023-09-11T18:06:34.729Z,,0,,,NaN,,,,,,false,,,,101571.09999999404,101570.90000000596,,101570.5,,101575.408,8,400,,,
break_continue,html.Screen,4_21_2,2023-09-11T18:06:34.730Z,,0,,,NaN,,,,,,false,,,,101571.40000000596,101571.29999999702,,101571.09999999404,,101575.408,8,400,,,
sequence,flow.Sequence,4_21,2023-09-11T18:06:34.730Z,,0,,,2545.789999997025,completion,,,,,false,,,,101571.59999999404,101571.29999999702,99008.844,99015.70000000298,99025.51,101575.408,8,400,,,
trial,html.Screen,4_22_0,2023-09-11T18:06:38.175Z,,0,1,,3440.891999997024,response,ISIC_0029893.JPG,5,ISIC_5854552.JPG,ISIC_5854552.JPG,false,0,keypress(z),500,105016.5,105016.29999999702,101558.742,101571.79999999702,101575.408,105025.27,8,400,23,,ISIC_0029893.JPG
break,html.Screen,4_22_1,2023-09-11T18:06:38.176Z,,0,,,NaN,,,,,,false,,,,105017.29999999702,105017,,105016.70000000298,,105025.27,8,400,,,
break_continue,html.Screen,4_22_2,2023-09-11T18:06:38.176Z,,0,,,NaN,,,,,,false,,,,105017.70000000298,105017.59999999404,,105017.5,,105025.27,8,400,,,
sequence,flow.Sequence,4_22,2023-09-11T18:06:38.176Z,,0,,,3442.1919999940437,completion,,,,,false,,,,105017.90000000596,105017.59999999404,101558.742,101571.70000000298,101575.408,105025.27,8,400,,,
trial,html.Screen,4_23_0,2023-09-11T18:06:40.902Z,,0,1,,2718.1300000059564,response,ISIC_5316803.JPG,9,ISIC_0060508.JPG,ISIC_0060508.JPG,false,0,keypress(z),500,107743.70000000298,107743.40000000596,105008.604,105018,105025.27,107758.494,8,400,24,,ISIC_5316803.JPG
break,html.Screen,4_23_1,2023-09-11T18:06:40.903Z,,0,,,NaN,,,,,,false,,,,107744.5,107744.29999999702,,107743.90000000596,,107758.494,8,400,,,
break_continue,html.Screen,4_23_2,2023-09-11T18:06:40.903Z,,0,,,NaN,,,,,,false,,,,107744.90000000596,107744.79999999702,,107744.70000000298,,107758.494,8,400,,,
sequence,flow.Sequence,4_23,2023-09-11T18:06:40.903Z,,0,,,2719.5299999970157,completion,,,,,false,,,,107745.09999999404,107744.79999999702,105008.604,105018,105025.27,107758.494,8,400,,,
trial,html.Screen,4_24_0,2023-09-11T18:06:44.763Z,,0,1,,3846.1059999940335,response,ISIC_3171104.JPG,7,ISIC_5706908.JPG,ISIC_3171104.JPG,false,1,keypress(m),500,111604.79999999702,111604.59999999404,107741.828,107745.20000000298,107758.494,111625.274,8,400,25,,ISIC_5706908.JPG
break,html.Screen,4_24_1,2023-09-11T18:06:44.764Z,,0,,,NaN,,,,,,false,,,,111605.70000000298,111605.5,,111605,,111625.274,8,400,,,
break_continue,html.Screen,4_24_2,2023-09-11T18:06:44.764Z,,0,,,NaN,,,,,,false,,,,111606.09999999404,111606,,111605.79999999702,,111625.274,8,400,,,
sequence,flow.Sequence,4_24,2023-09-11T18:06:44.765Z,,0,,,3847.505999999994,completion,,,,,false,,,,111606.29999999702,111606,107741.828,107745.20000000298,107758.494,111625.274,8,400,,,
trial,html.Screen,4_25_0,2023-09-11T18:06:47.759Z,,0,1,,2975.3259999940346,response,ISIC_2797576.JPG,8,ISIC_9957389.JPG,ISIC_2797576.JPG,false,1,keypress(m),500,114600.79999999702,114600.59999999404,111608.608,111606.40000000596,111625.274,114608.488,8,400,26,,ISIC_9957389.JPG
break,html.Screen,4_25_1,2023-09-11T18:06:47.760Z,,0,,,NaN,,,,,,false,,,,114601.59999999404,114601.29999999702,,114601,,114608.488,8,400,,,
break_continue,html.Screen,4_25_2,2023-09-11T18:06:47.760Z,,0,,,NaN,,,,,,false,,,,114601.90000000596,114601.90000000596,,114601.70000000298,,114608.488,8,400,,,
sequence,flow.Sequence,4_25,2023-09-11T18:06:47.760Z,,0,,,2976.6260000059556,completion,,,,,false,,,,114602.09999999404,114601.90000000596,111608.608,111606.40000000596,111625.274,114608.488,8,400,,,
trial,html.Screen,4_26_0,2023-09-11T18:06:50.566Z,,0,1,,2798.5120000000024,response,ISIC_0024315.JPG,9,ISIC_4699066.JPG,ISIC_4699066.JPG,false,0,keypress(z),500,117407.20000000298,117407,114591.822,114602.40000000596,114608.488,117408.376,8,400,27,,ISIC_0024315.JPG
break,html.Screen,4_26_1,2023-09-11T18:06:50.566Z,,0,,,NaN,,,,,,false,,,,117408.09999999404,117407.90000000596,,117407.5,,117408.376,8,400,,,
break_continue,html.Screen,4_26_2,2023-09-11T18:06:50.567Z,,0,,,NaN,,,,,,false,,,,117408.5,117408.40000000596,,117408.20000000298,,117408.376,8,400,,,
sequence,flow.Sequence,4_26,2023-09-11T18:06:50.567Z,,0,,,2799.912000005963,completion,,,,,false,,,,117408.70000000298,117408.40000000596,114591.822,114602.29999999702,114608.488,117408.376,8,400,,,
trial,html.Screen,4_27_0,2023-09-11T18:06:53.211Z,,0,1,,2644.3240000029764,response,ISIC_0070551.JPG,7,ISIC_4695396.JPG,ISIC_4695396.JPG,false,0,keypress(z),500,120053,120052.70000000298,117391.71,117408.79999999702,117408.376,120058.536,8,400,28,,ISIC_0070551.JPG
break,html.Screen,4_27_1,2023-09-11T18:06:53.212Z,,0,,,NaN,,,,,,false,,,,120053.79999999702,120053.59999999404,,120053.29999999702,,120058.536,8,400,,,
break_continue,html.Screen,4_27_2,2023-09-11T18:06:53.212Z,,0,,,NaN,,,,,,false,,,,120054.20000000298,120054.09999999404,,120053.90000000596,,120058.536,8,400,,,
sequence,flow.Sequence,4_27,2023-09-11T18:06:53.213Z,,0,,,2645.7239999940357,completion,,,,,false,,,,120054.40000000596,120054.09999999404,117391.71,117408.79999999702,117408.376,120058.536,8,400,,,
trial,html.Screen,4_28_0,2023-09-11T18:06:55.825Z,,0,1,,2608.1640000029874,response,ISIC_5420979.JPG,6,ISIC_0033392.JPG,ISIC_5420979.JPG,false,1,keypress(m),500,122666.90000000596,122666.70000000298,120041.87,120054.5,120058.536,122675.098,8,400,29,,ISIC_0033392.JPG
break,html.Screen,4_28_1,2023-09-11T18:06:55.826Z,,0,,,NaN,,,,,,false,,,,122667.70000000298,122667.5,,122667.20000000298,,122675.098,8,400,,,
break_continue,html.Screen,4_28_2,2023-09-11T18:06:55.826Z,,0,,,NaN,,,,,,false,,,,122668.09999999404,122667.90000000596,,122667.90000000596,,122675.098,8,400,,,
sequence,flow.Sequence,4_28,2023-09-11T18:06:55.827Z,,0,,,2609.3640000059677,completion,,,,,false,,,,122668.29999999702,122667.90000000596,120041.87,120054.5,120058.536,122675.098,8,400,,,
trial,html.Screen,4_29_0,2023-09-11T18:06:58.920Z,,0,1,,3086.0019999940414,response,ISIC_7074321.JPG,7,ISIC_0057307.JPG,ISIC_7074321.JPG,false,1,keypress(m),500,125761.40000000596,125761.09999999404,122658.432,122668.40000000596,122675.098,125774.974,8,400,30,,ISIC_0057307.JPG
break,html.Screen,4_29_1,2023-09-11T18:06:58.920Z,,0,,,NaN,,,,,,false,,,,125762.20000000298,125762,,125761.59999999404,,125774.974,8,400,,,
break_continue,html.Screen,4_29_2,2023-09-11T18:06:58.921Z,,0,,,NaN,,,,,,false,,,,125762.59999999404,125762.5,,125762.29999999702,,125774.974,8,400,,,
sequence,flow.Sequence,4_29,2023-09-11T18:06:58.921Z,,0,,,3087.402000000002,completion,,,,,false,,,,125762.79999999702,125762.5,122658.432,122668.29999999702,122675.098,125774.974,8,400,,,
trial,html.Screen,4_30_0,2023-09-11T18:07:01.579Z,,0,1,,2645.7260000029783,response,ISIC_5510604.JPG,6,ISIC_1477990.JPG,ISIC_1477990.JPG,false,0,keypress(z),500,128421,128420.70000000298,125758.308,125763,125774.974,128424.868,8,400,31,,ISIC_5510604.JPG
break,html.Screen,4_30_1,2023-09-11T18:07:01.580Z,,0,,,NaN,,,,,,false,,,,128421.79999999702,128421.59999999404,,128421.20000000298,,128424.868,8,400,,,
break_continue,html.Screen,4_30_2,2023-09-11T18:07:01.581Z,,0,,,NaN,,,,,,false,,,,128422.29999999702,128422.09999999404,,128421.90000000596,,128424.868,8,400,,,
sequence,flow.Sequence,4_30,2023-09-11T18:07:01.581Z,,0,,,2647.1259999940376,completion,,,,,false,,,,128422.40000000596,128422.09999999404,125758.308,125762.90000000596,125774.974,128424.868,8,400,,,
trial,html.Screen,4_31_0,2023-09-11T18:07:04.673Z,,0,1,,3089.631999999998,response,ISIC_3892947.JPG,6,ISIC_0026010.JPG,ISIC_0026010.JPG,false,0,keypress(z),500,131514.70000000298,131514.5,128408.202,128422.59999999404,128424.868,131525.019,8,400,32,,ISIC_3892947.JPG
break,html.Screen,4_31_1,2023-09-11T18:07:04.673Z,,0,,,NaN,,,,,,false,,,,131515,131514.90000000596,,131514.79999999702,,131525.019,8,400,,,
break_continue,html.Screen,4_31_2,2023-09-11T18:07:04.673Z,,0,,,NaN,,,,,,false,,,,131515.20000000298,131515.09999999404,,131515,,131525.019,8,400,,,
sequence,flow.Sequence,4_31,2023-09-11T18:07:04.674Z,,0,,,3090.2319999940373,completion,,,,,false,,,,131515.29999999702,131515.09999999404,128408.202,128422.5,128424.868,131525.019,8,400,,,
trial,html.Screen,4_32_0,2023-09-11T18:07:07.969Z,,0,1,,3285.4809999999998,response,ISIC_0025755.JPG,7,ISIC_2341875.JPG,ISIC_2341875.JPG,false,0,keypress(z),500,134810.70000000298,134810.5,131508.353,131515.40000000596,131525.019,134824.887,8,400,33,,ISIC_0025755.JPG
break,html.Screen,4_32_1,2023-09-11T18:07:07.970Z,,0,,,NaN,,,,,,false,,,,134811.59999999404,134811.40000000596,,134811,,134824.887,8,400,,,
break_continue,html.Screen,4_32_2,2023-09-11T18:07:07.970Z,,0,,,NaN,,,,,,false,,,,134812,134811.90000000596,,134811.70000000298,,134824.887,8,400,,,
sequence,flow.Sequence,4_32,2023-09-11T18:07:07.970Z,,0,,,3286.8810000059602,completion,,,,,false,,,,134812.20000000298,134811.90000000596,131508.353,131515.29999999702,131525.019,134824.887,8,400,,,
trial,html.Screen,4_33_0,2023-09-11T18:07:10.631Z,,0,1,,2647.8130000029923,response,ISIC_0293086.JPG,7,ISIC_5495413.JPG,ISIC_0293086.JPG,false,1,keypress(m),500,137472.90000000596,137472.70000000298,134808.221,134812.29999999702,134824.887,137474.781,8,400,34,,ISIC_5495413.JPG
break,html.Screen,4_33_1,2023-09-11T18:07:10.632Z,,0,,,NaN,,,,,,false,,,,137473.79999999702,137473.59999999404,,137473.20000000298,,137474.781,8,400,,,
break_continue,html.Screen,4_33_2,2023-09-11T18:07:10.632Z,,0,,,NaN,,,,,,false,,,,137474.20000000298,137474,,137474,,137474.781,8,400,,,
sequence,flow.Sequence,4_33,2023-09-11T18:07:10.633Z,,0,,,2649.113000000012,completion,,,,,false,,,,137474.29999999702,137474,134808.221,134812.29999999702,134824.887,137474.781,8,400,,,
trial,html.Screen,4_34_0,2023-09-11T18:07:13.260Z,,0,1,,2626.419000002992,response,ISIC_1384527.JPG,5,ISIC_0053916.JPG,ISIC_1384527.JPG,false,1,keypress(m),500,140101.40000000596,140101.20000000298,137458.115,137474.5,137474.781,140108.275,8,400,35,,ISIC_0053916.JPG
break,html.Screen,4_34_1,2023-09-11T18:07:13.260Z,,0,,,NaN,,,,,,false,,,,140102.09999999404,140102,,140101.59999999404,,140108.275,8,400,,,
break_continue,html.Screen,4_34_2,2023-09-11T18:07:13.261Z,,0,,,NaN,,,,,,false,,,,140102.59999999404,140102.5,,140102.29999999702,,140108.275,8,400,,,
sequence,flow.Sequence,4_34,2023-09-11T18:07:13.261Z,,0,,,2627.719000000012,completion,,,,,false,,,,140102.70000000298,140102.5,137458.115,137474.5,137474.781,140108.275,8,400,,,
trial,html.Screen,4_35_0,2023-09-11T18:07:15.888Z,,0,1,,2621.3249999940454,response,ISIC_7988794.JPG,6,ISIC_7287303.JPG,ISIC_7988794.JPG,false,1,keypress(m),500,142729.90000000596,142729.59999999404,140091.609,140102.90000000596,140108.275,142741.503,8,400,36,,ISIC_7287303.JPG
break,html.Screen,4_35_1,2023-09-11T18:07:15.889Z,,0,,,NaN,,,,,,false,,,,142730.5,142730.29999999702,,142730,,142741.503,8,400,,,
break_continue,html.Screen,4_35_2,2023-09-11T18:07:15.889Z,,0,,,NaN,,,,,,false,,,,142730.90000000596,142730.70000000298,,142730.70000000298,,142741.503,8,400,,,
sequence,flow.Sequence,4_35,2023-09-11T18:07:15.889Z,,0,,,2622.425000002986,completion,,,,,false,,,,142731.09999999404,142730.70000000298,140091.609,140102.90000000596,140108.275,142741.503,8,400,,,
trial,html.Screen,4_36_0,2023-09-11T18:07:18.486Z,,0,1,,2586.0969999940426,response,ISIC_0899961.JPG,8,ISIC_1412843.JPG,ISIC_0899961.JPG,false,1,keypress(m),500,145327.90000000596,145327.59999999404,142724.837,142731.20000000298,142741.503,145341.399,8,400,37,,ISIC_1412843.JPG
break,html.Screen,4_36_1,2023-09-11T18:07:18.487Z,,0,,,NaN,,,,,,false,,,,145328.59999999404,145328.40000000596,,145328.09999999404,,145341.399,8,400,,,
break_continue,html.Screen,4_36_2,2023-09-11T18:07:18.487Z,,0,,,NaN,,,,,,false,,,,145329,145328.90000000596,,145328.79999999702,,145341.399,8,400,,,
sequence,flow.Sequence,4_36,2023-09-11T18:07:18.487Z,,0,,,2587.3970000059635,completion,,,,,false,,,,145329.20000000298,145328.90000000596,142724.837,142731.20000000298,142741.503,145341.399,8,400,,,
trial,html.Screen,4_37_0,2023-09-11T18:07:21.809Z,,0,1,,3309.100999999995,response,ISIC_3897960.JPG,7,ISIC_5164416.JPG,ISIC_5164416.JPG,false,0,keypress(z),500,148650.70000000298,148650.5,145324.733,145329.40000000596,145341.399,148657.933,8,400,38,,ISIC_3897960.JPG
break,html.Screen,4_37_1,2023-09-11T18:07:21.810Z,,0,,,NaN,,,,,,false,,,,148651.59999999404,148651.29999999702,,148650.90000000596,,148657.933,8,400,,,
break_continue,html.Screen,4_37_2,2023-09-11T18:07:21.810Z,,0,,,NaN,,,,,,false,,,,148652,148651.79999999702,,148651.70000000298,,148657.933,8,400,,,
sequence,flow.Sequence,4_37,2023-09-11T18:07:21.810Z,,0,,,3310.400999997015,completion,,,,,false,,,,148652.20000000298,148651.79999999702,145324.733,145329.40000000596,145341.399,148657.933,8,400,,,
trial,html.Screen,4_38_0,2023-09-11T18:07:25.258Z,,0,1,,3441.56700000001,response,ISIC_3737739.JPG,5,ISIC_1819071.JPG,ISIC_3737739.JPG,false,1,keypress(m),500,152099.70000000298,152099.5,148641.267,148652.29999999702,148657.933,152108.058,8,400,39,,ISIC_1819071.JPG
break,html.Screen,4_38_1,2023-09-11T18:07:25.259Z,,0,,,NaN,,,,,,false,,,,152100.5,152100.29999999702,,152100,,152108.058,8,400,,,
break_continue,html.Screen,4_38_2,2023-09-11T18:07:25.259Z,,0,,,NaN,,,,,,false,,,,152101,152100.79999999702,,152100.70000000298,,152108.058,8,400,,,
sequence,flow.Sequence,4_38,2023-09-11T18:07:25.259Z,,0,,,3442.86699999703,completion,,,,,false,,,,152101.09999999404,152100.79999999702,148641.267,148652.20000000298,148657.933,152108.058,8,400,,,
trial,html.Screen,4_39_0,2023-09-11T18:07:27.825Z,,0,1,,2558.1420000029902,response,ISIC_5166636.JPG,7,ISIC_2559074.JPG,ISIC_2559074.JPG,false,0,keypress(z),500,154666.5,154666.20000000298,152091.392,152101.29999999702,152108.058,154674.622,8,400,40,,ISIC_5166636.JPG
break,html.Screen,4_39_1,2023-09-11T18:07:27.825Z,,0,,,NaN,,,,,,false,,,,154667.29999999702,154667,,154666.70000000298,,154674.622,8,400,,,
break_continue,html.Screen,4_39_2,2023-09-11T18:07:27.826Z,,0,,,NaN,,,,,,false,,,,154667.70000000298,154667.5,,154667.40000000596,,154674.622,8,400,,,
sequence,flow.Sequence,4_39,2023-09-11T18:07:27.826Z,,0,,,2559.44200000001,completion,,,,,false,,,,154667.90000000596,154667.5,152091.392,152101.29999999702,152108.058,154674.622,8,400,,,
trial,html.Screen,4_40_0,2023-09-11T18:07:30.425Z,,0,1,,2591.877999999997,response,ISIC_2954564.JPG,7,ISIC_0028320.JPG,ISIC_2954564.JPG,false,1,keypress(m),500,157266.70000000298,157266.5,154657.956,154668.09999999404,154674.622,157274.518,8,400,41,,ISIC_0028320.JPG
break,html.Screen,4_40_1,2023-09-11T18:07:30.426Z,,0,,,NaN,,,,,,false,,,,157267.59999999404,157267.29999999702,,157266.90000000596,,157274.518,8,400,,,
break_continue,html.Screen,4_40_2,2023-09-11T18:07:30.426Z,,0,,,NaN,,,,,,false,,,,157268,157267.79999999702,,157267.70000000298,,157274.518,8,400,,,
sequence,flow.Sequence,4_40,2023-09-11T18:07:30.426Z,,0,,,2593.1779999970167,completion,,,,,false,,,,157268.09999999404,157267.79999999702,154657.956,154667.90000000596,154674.622,157274.518,8,400,,,
trial,html.Screen,4_41_0,2023-09-11T18:07:33.051Z,,0,1,,2618.1820000029693,response,ISIC_0011095.JPG,6,ISIC_4956965.JPG,ISIC_4956965.JPG,false,0,keypress(z),500,159893,159892.70000000298,157257.852,157268.29999999702,157274.518,159907.746,8,400,42,,ISIC_0011095.JPG
break,html.Screen,4_41_1,2023-09-11T18:07:33.052Z,,0,,,NaN,,,,,,false,,,,159893.79999999702,159893.59999999404,,159893.20000000298,,159907.746,8,400,,,
break_continue,html.Screen,4_41_2,2023-09-11T18:07:33.052Z,,0,,,NaN,,,,,,false,,,,159894.29999999702,159894.09999999404,,159894,,159907.746,8,400,,,
sequence,flow.Sequence,4_41,2023-09-11T18:07:33.053Z,,0,,,2619.5819999940286,completion,,,,,false,,,,159894.5,159894.09999999404,157257.852,157268.29999999702,157274.518,159907.746,8,400,,,
trial,html.Screen,4_42_0,2023-09-11T18:07:36.306Z,,0,1,,3239.7539999999863,response,ISIC_0057531.JPG,7,ISIC_0013525.JPG,ISIC_0057531.JPG,false,1,keypress(m),500,163147.70000000298,163147.5,159891.08,159894.59999999404,159907.746,163157.884,8,400,43,,ISIC_0013525.JPG
break,html.Screen,4_42_1,2023-09-11T18:07:36.307Z,,0,,,NaN,,,,,,false,,,,163148.5,163148.29999999702,,163147.90000000596,,163157.884,8,400,,,
break_continue,html.Screen,4_42_2,2023-09-11T18:07:36.307Z,,0,,,NaN,,,,,,false,,,,163149,163148.79999999702,,163148.59999999404,,163157.884,8,400,,,
sequence,flow.Sequence,4_42,2023-09-11T18:07:36.307Z,,0,,,3241.053999997006,completion,,,,,false,,,,163149.09999999404,163148.79999999702,159891.08,159894.5,159907.746,163157.884,8,400,,,
trial,html.Screen,4_43_0,2023-09-11T18:07:40.010Z,,0,1,,3693.2159999940486,response,ISIC_0001139.JPG,6,ISIC_6920867.JPG,ISIC_0001139.JPG,false,1,keypress(m),500,166851.29999999702,166851.09999999404,163141.218,163149.29999999702,163157.884,166857.736,8,400,44,,ISIC_6920867.JPG
break,html.Screen,4_43_1,2023-09-11T18:07:40.010Z,,0,,,NaN,,,,,,false,,,,166852.09999999404,166851.90000000596,,166851.5,,166857.736,8,400,,,
break_continue,html.Screen,4_43_2,2023-09-11T18:07:40.011Z,,0,,,NaN,,,,,,false,,,,166852.5,166852.40000000596,,166852.29999999702,,166857.736,8,400,,,
sequence,flow.Sequence,4_43,2023-09-11T18:07:40.011Z,,0,,,3694.5160000059695,completion,,,,,false,,,,166852.70000000298,166852.40000000596,163141.218,163149.29999999702,163157.884,166857.736,8,400,,,
trial,html.Screen,4_44_0,2023-09-11T18:07:43.134Z,,0,1,,3117.7639999999956,response,ISIC_0032197.JPG,8,ISIC_0011892.JPG,ISIC_0032197.JPG,false,1,keypress(m),500,169975.70000000298,169975.5,166841.07,166852.90000000596,166857.736,169990.944,8,400,45,,ISIC_0011892.JPG
break,html.Screen,4_44_1,2023-09-11T18:07:43.135Z,,0,,,NaN,,,,,,false,,,,169976.59999999404,169976.29999999702,,169976,,169990.944,8,400,,,
break_continue,html.Screen,4_44_2,2023-09-11T18:07:43.135Z,,0,,,NaN,,,,,,false,,,,169977,169976.90000000596,,169976.70000000298,,169990.944,8,400,,,
sequence,flow.Sequence,4_44,2023-09-11T18:07:43.135Z,,0,,,3119.164000005956,completion,,,,,false,,,,169977.09999999404,169976.90000000596,166841.07,166852.79999999702,166857.736,169990.944,8,400,,,
trial,html.Screen,4_45_0,2023-09-11T18:07:46.441Z,,0,1,,3291.155999994051,response,ISIC_1906141.JPG,8,ISIC_0024894.JPG,ISIC_0024894.JPG,false,0,keypress(z),500,173282.29999999702,173282.09999999404,169974.278,169977.29999999702,169990.944,173291.076,8,400,46,,ISIC_1906141.JPG
break,html.Screen,4_45_1,2023-09-11T18:07:46.441Z,,0,,,NaN,,,,,,false,,,,173283.29999999702,173283,,173282.70000000298,,173291.076,8,400,,,
break_continue,html.Screen,4_45_2,2023-09-11T18:07:46.442Z,,0,,,NaN,,,,,,false,,,,173283.70000000298,173283.5,,173283.40000000596,,173291.076,8,400,,,
sequence,flow.Sequence,4_45,2023-09-11T18:07:46.442Z,,0,,,3292.5560000000114,completion,,,,,false,,,,173283.79999999702,173283.5,169974.278,169977.29999999702,169990.944,173291.076,8,400,,,
trial,html.Screen,4_46_0,2023-09-11T18:07:49.729Z,,0,1,,3279.423999999999,response,ISIC_2134975.JPG,8,ISIC_6174156.JPG,ISIC_6174156.JPG,false,0,keypress(z),500,176570.79999999702,176570.5,173274.41,173284,173291.076,176574.278,8,400,47,,ISIC_2134975.JPG
break,html.Screen,4_46_1,2023-09-11T18:07:49.730Z,,0,,,NaN,,,,,,false,,,,176571.5,176571.29999999702,,176571,,176574.278,8,400,,,
break_continue,html.Screen,4_46_2,2023-09-11T18:07:49.730Z,,0,,,NaN,,,,,,false,,,,176572,176571.90000000596,,176571.70000000298,,176574.278,8,400,,,
sequence,flow.Sequence,4_46,2023-09-11T18:07:49.730Z,,0,,,3280.8240000059595,completion,,,,,false,,,,176572.20000000298,176571.90000000596,173274.41,173283.90000000596,173291.076,176574.278,8,400,,,
trial,html.Screen,4_47_0,2023-09-11T18:07:52.536Z,,0,1,,2803.222000000009,response,ISIC_4777536.JPG,7,ISIC_0064298.JPG,ISIC_4777536.JPG,false,1,keypress(m),500,179377.79999999702,179377.5,176557.612,176572.29999999702,176574.278,179390.832,8,400,48,,ISIC_0064298.JPG
break,html.Screen,4_47_1,2023-09-11T18:07:52.537Z,,0,,,NaN,,,,,,false,,,,179378.5,179378.29999999702,,179377.90000000596,,179390.832,8,400,,,
break_continue,html.Screen,4_47_2,2023-09-11T18:07:52.537Z,,0,,,NaN,,,,,,false,,,,179379,179378.90000000596,,179378.70000000298,,179390.832,8,400,,,
sequence,flow.Sequence,4_47,2023-09-11T18:07:52.537Z,,0,,,2804.6220000059693,completion,,,,,false,,,,179379.20000000298,179378.90000000596,176557.612,176572.29999999702,176574.278,179390.832,8,400,,,
trial,html.Screen,4_48_0,2023-09-11T18:07:55.116Z,,0,1,,2566.467999997025,response,ISIC_0066401.JPG,5,ISIC_4884394.JPG,ISIC_4884394.JPG,false,0,keypress(z),500,181957.59999999404,181957.29999999702,179374.166,179379.29999999702,179390.832,181974.334,8,400,49,,ISIC_0066401.JPG
break,html.Screen,4_48_1,2023-09-11T18:07:55.117Z,,0,,,NaN,,,,,,false,,,,181958.40000000596,181958.09999999404,,181957.79999999702,,181974.334,8,400,,,
break_continue,html.Screen,4_48_2,2023-09-11T18:07:55.117Z,,0,,,NaN,,,,,,false,,,,181958.70000000298,181958.59999999404,,181958.5,,181974.334,8,400,,,
sequence,flow.Sequence,4_48,2023-09-11T18:07:55.117Z,,0,,,2567.7679999940447,completion,,,,,false,,,,181958.90000000596,181958.59999999404,179374.166,179379.29999999702,179390.832,181974.334,8,400,,,
trial,html.Screen,4_49_0,2023-09-11T18:07:57.810Z,,0,1,,2677.066000005958,response,ISIC_0056063.JPG,7,ISIC_1398618.JPG,ISIC_1398618.JPG,false,0,keypress(z),500,184651.59999999404,184651.40000000596,181957.668,181959.09999999404,181974.334,184657.56,8,400,50,,ISIC_0056063.JPG
break,html.Screen,4_49_1,2023-09-11T18:08:07.800Z,,0,,,9999.863000000012,timeout,,,,,false,,,,194642.20000000298,194640.757,184640.894,184651.90000000596,184657.56,194657.423,8,400,,,
break_continue,html.Screen,4_49_2,2023-09-11T18:08:09.525Z,,0,,,1694.2770000029705,response,,,,,false,continue,keypress(Space),,196366.70000000298,196351.70000000298,194640.757,194642.40000000596,194657.423,196374.021,8,400,,,
sequence,flow.Sequence,4_49,2023-09-11T18:08:09.525Z,,0,,,14377.366000002978,completion,,,,,false,,,,196366.79999999702,196351.70000000298,181957.668,181959,181974.334,196374.021,8,400,,,
trial,html.Screen,4_50_0,2023-09-11T18:08:13.066Z,,0,2,,3533.978999999992,response,ISIC_0013639.JPG,7,ISIC_8796968.JPG,ISIC_8796968.JPG,false,0,keypress(z),500,199908.20000000298,199908,196357.355,196366.90000000596,196374.021,199923.879,8,400,1,,ISIC_0013639.JPG
break,html.Screen,4_50_1,2023-09-11T18:08:13.067Z,,0,,,NaN,,,,,,false,,,,199909,199908.79999999702,,199908.40000000596,,199923.879,8,400,,,
break_continue,html.Screen,4_50_2,2023-09-11T18:08:13.068Z,,0,,,NaN,,,,,,false,,,,199909.40000000596,199909.29999999702,,199909.09999999404,,199923.879,8,400,,,
sequence,flow.Sequence,4_50,2023-09-11T18:08:13.068Z,,0,,,3535.278999997012,completion,,,,,false,,,,199909.59999999404,199909.29999999702,196357.355,196366.90000000596,196374.021,199923.879,8,400,,,
trial,html.Screen,4_51_0,2023-09-11T18:08:16.127Z,,0,2,,3044.6210000000137,response,ISIC_7877488.JPG,8,ISIC_1790808.JPG,ISIC_1790808.JPG,false,0,keypress(z),500,202968.79999999702,202968.5,199907.213,199909.79999999702,199923.879,202974.031,8,400,2,,ISIC_7877488.JPG
break,html.Screen,4_51_1,2023-09-11T18:08:16.128Z,,0,,,NaN,,,,,,false,,,,202969.59999999404,202969.40000000596,,202968.90000000596,,202974.031,8,400,,,
break_continue,html.Screen,4_51_2,2023-09-11T18:08:16.128Z,,0,,,NaN,,,,,,false,,,,202970,202969.79999999702,,202969.70000000298,,202974.031,8,400,,,
sequence,flow.Sequence,4_51,2023-09-11T18:08:16.128Z,,0,,,3045.9209999970335,completion,,,,,false,,,,202970.09999999404,202969.79999999702,199907.213,199909.70000000298,199923.879,202974.031,8,400,,,
trial,html.Screen,4_52_0,2023-09-11T18:08:18.870Z,,0,2,,2737.5689999940514,response,ISIC_8690631.JPG,9,ISIC_4894802.JPG,ISIC_8690631.JPG,false,1,keypress(m),500,205711.90000000596,205711.59999999404,202957.365,202970.29999999702,202974.031,205723.921,8,400,3,,ISIC_4894802.JPG
break,html.Screen,4_52_1,2023-09-11T18:08:18.871Z,,0,,,NaN,,,,,,false,,,,205712.70000000298,205712.5,,205712.09999999404,,205723.921,8,400,,,
break_continue,html.Screen,4_52_2,2023-09-11T18:08:18.871Z,,0,,,NaN,,,,,,false,,,,205713.09999999404,205713,,205712.79999999702,,205723.921,8,400,,,
sequence,flow.Sequence,4_52,2023-09-11T18:08:18.872Z,,0,,,2738.969000000012,completion,,,,,false,,,,205713.29999999702,205713,202957.365,202970.29999999702,202974.031,205723.921,8,400,,,
trial,html.Screen,4_53_0,2023-09-11T18:08:21.521Z,,0,2,,2638.4790000059584,response,ISIC_0000179.JPG,7,ISIC_7208412.JPG,ISIC_7208412.JPG,false,0,keypress(z),500,208362.70000000298,208362.40000000596,205707.255,205713.5,205723.921,208373.815,8,400,4,,ISIC_0000179.JPG
break,html.Screen,4_53_1,2023-09-11T18:08:21.522Z,,0,,,NaN,,,,,,false,,,,208363.5,208363.20000000298,,208362.90000000596,,208373.815,8,400,,,
break_continue,html.Screen,4_53_2,2023-09-11T18:08:21.522Z,,0,,,NaN,,,,,,false,,,,208363.90000000596,208363.79999999702,,208363.70000000298,,208373.815,8,400,,,
sequence,flow.Sequence,4_53,2023-09-11T18:08:21.522Z,,0,,,2639.8789999970177,completion,,,,,false,,,,208364.09999999404,208363.79999999702,205707.255,205713.5,205723.921,208373.815,8,400,,,
trial,html.Screen,4_54_0,2023-09-11T18:08:24.180Z,,0,2,,2647.784999994037,response,ISIC_0033754.JPG,7,ISIC_9782083.JPG,ISIC_9782083.JPG,false,0,keypress(z),500,211021.90000000596,211021.59999999404,208357.149,208364.20000000298,208373.815,211023.709,8,400,5,,ISIC_0033754.JPG
break,html.Screen,4_54_1,2023-09-11T18:08:24.181Z,,0,,,NaN,,,,,,false,,,,211022.70000000298,211022.40000000596,,211022.09999999404,,211023.709,8,400,,,
break_continue,html.Screen,4_54_2,2023-09-11T18:08:24.181Z,,0,,,NaN,,,,,,false,,,,211023.09999999404,211022.90000000596,,211022.90000000596,,211023.709,8,400,,,
sequence,flow.Sequence,4_54,2023-09-11T18:08:24.181Z,,0,,,2649.085000005958,completion,,,,,false,,,,211023.29999999702,211022.90000000596,208357.149,208364.20000000298,208373.815,211023.709,8,400,,,
trial,html.Screen,4_55_0,2023-09-11T18:08:27.010Z,,0,2,,2828.191000005958,response,ISIC_0011305.JPG,9,ISIC_3171104.JPG,ISIC_0011305.JPG,false,1,keypress(m),500,213852.09999999404,213851.90000000596,211007.043,211023.40000000596,211023.709,213857.193,8,400,6,,ISIC_3171104.JPG
break,html.Screen,4_55_1,2023-09-11T18:08:27.011Z,,0,,,NaN,,,,,,false,,,,213853,213852.70000000298,,213852.40000000596,,213857.193,8,400,,,
break_continue,html.Screen,4_55_2,2023-09-11T18:08:27.012Z,,0,,,NaN,,,,,,false,,,,213853.29999999702,213853.20000000298,,213853.09999999404,,213857.193,8,400,,,
sequence,flow.Sequence,4_55,2023-09-11T18:08:27.012Z,,0,,,2829.4910000029777,completion,,,,,false,,,,213853.59999999404,213853.20000000298,211007.043,211023.40000000596,211023.709,213857.193,8,400,,,
trial,html.Screen,4_56_0,2023-09-11T18:08:29.736Z,,0,2,,2720.707000005961,response,ISIC_0072612.JPG,5,ISIC_6280523.JPG,ISIC_6280523.JPG,false,0,keypress(z),500,216578.09999999404,216577.90000000596,213840.527,213853.70000000298,213857.193,216590.417,8,400,7,,ISIC_0072612.JPG
break,html.Screen,4_56_1,2023-09-11T18:08:29.737Z,,0,,,NaN,,,,,,false,,,,216578.90000000596,216578.70000000298,,216578.40000000596,,216590.417,8,400,,,
break_continue,html.Screen,4_56_2,2023-09-11T18:08:29.737Z,,0,,,NaN,,,,,,false,,,,216579.29999999702,216579.20000000298,,216579.09999999404,,216590.417,8,400,,,
sequence,flow.Sequence,4_56,2023-09-11T18:08:29.738Z,,0,,,2722.007000002981,completion,,,,,false,,,,216579.5,216579.20000000298,213840.527,213853.70000000298,213857.193,216590.417,8,400,,,
trial,html.Screen,4_57_0,2023-09-11T18:08:33.708Z,,0,2,,3958.7830000029935,response,ISIC_0011665.JPG,8,ISIC_9088774.JPG,ISIC_0011665.JPG,false,1,keypress(m),500,220549.40000000596,220549.20000000298,216573.751,216579.70000000298,216590.417,220556.925,8,400,8,,ISIC_9088774.JPG
break,html.Screen,4_57_1,2023-09-11T18:08:33.708Z,,0,,,NaN,,,,,,false,,,,220550.09999999404,220550,,220549.59999999404,,220556.925,8,400,,,
break_continue,html.Screen,4_57_2,2023-09-11T18:08:33.709Z,,0,,,NaN,,,,,,false,,,,220550.59999999404,220550.5,,220550.29999999702,,220556.925,8,400,,,
sequence,flow.Sequence,4_57,2023-09-11T18:08:33.709Z,,0,,,3960.0830000000133,completion,,,,,false,,,,220550.79999999702,220550.5,216573.751,216579.59999999404,216590.417,220556.925,8,400,,,
trial,html.Screen,4_58_0,2023-09-11T18:08:36.385Z,,0,2,,2669.475000005972,response,ISIC_0013740.JPG,6,ISIC_0027282.JPG,ISIC_0013740.JPG,false,1,keypress(m),500,223226.70000000298,223226.40000000596,220540.259,220551,220556.925,223240.427,8,400,9,,ISIC_0027282.JPG
break,html.Screen,4_58_1,2023-09-11T18:08:36.386Z,,0,,,NaN,,,,,,false,,,,223227.40000000596,223227.29999999702,,223226.90000000596,,223240.427,8,400,,,
break_continue,html.Screen,4_58_2,2023-09-11T18:08:36.386Z,,0,,,NaN,,,,,,false,,,,223227.90000000596,223227.79999999702,,223227.70000000298,,223240.427,8,400,,,
sequence,flow.Sequence,4_58,2023-09-11T18:08:36.386Z,,0,,,2670.8749999970314,completion,,,,,false,,,,223228.09999999404,223227.79999999702,220540.259,220551,220556.925,223240.427,8,400,,,
trial,html.Screen,4_59_0,2023-09-11T18:08:38.998Z,,0,2,,2599.3729999970237,response,ISIC_7967108.JPG,7,ISIC_9160614.JPG,ISIC_7967108.JPG,false,1,keypress(m),500,225840.09999999404,225839.79999999702,223223.761,223228.29999999702,223240.427,225856.989,8,400,10,,ISIC_9160614.JPG
break,html.Screen,4_59_1,2023-09-11T18:08:38.999Z,,0,,,NaN,,,,,,false,,,,225840.90000000596,225840.70000000298,,225840.40000000596,,225856.989,8,400,,,
break_continue,html.Screen,4_59_2,2023-09-11T18:08:38.999Z,,0,,,NaN,,,,,,false,,,,225841.29999999702,225841.09999999404,,225841,,225856.989,8,400,,,
sequence,flow.Sequence,4_59,2023-09-11T18:08:39.000Z,,0,,,2600.6729999940435,completion,,,,,false,,,,225841.59999999404,225841.09999999404,223223.761,223228.20000000298,223240.427,225856.989,8,400,,,
trial,html.Screen,4_60_0,2023-09-11T18:08:41.612Z,,0,2,,2597.110999994038,response,ISIC_0028898.JPG,6,ISIC_1377409.JPG,ISIC_1377409.JPG,false,0,keypress(z),500,228454.20000000298,228454.09999999404,225840.323,225841.79999999702,225856.989,228456.885,8,400,11,,ISIC_0028898.JPG
break,html.Screen,4_60_1,2023-09-11T18:08:41.613Z,,0,,,NaN,,,,,,false,,,,228454.5,228454.40000000596,,228454.20000000298,,228456.885,8,400,,,
break_continue,html.Screen,4_60_2,2023-09-11T18:08:41.613Z,,0,,,NaN,,,,,,false,,,,228454.70000000298,228454.59999999404,,228454.59999999404,,228456.885,8,400,,,
sequence,flow.Sequence,4_60,2023-09-11T18:08:41.613Z,,0,,,2597.610999994038,completion,,,,,false,,,,228454.79999999702,228454.59999999404,225840.323,225841.70000000298,225856.989,228456.885,8,400,,,
trial,html.Screen,4_61_0,2023-09-11T18:08:44.238Z,,0,2,,2623.015000005951,response,ISIC_0025382.JPG,8,ISIC_0028910.JPG,ISIC_0025382.JPG,false,1,keypress(m),500,231080.09999999404,231079.90000000596,228440.219,228454.79999999702,228456.885,231090.113,8,400,12,,ISIC_0028910.JPG
break,html.Screen,4_61_1,2023-09-11T18:08:44.239Z,,0,,,NaN,,,,,,false,,,,231080.90000000596,231080.70000000298,,231080.29999999702,,231090.113,8,400,,,
break_continue,html.Screen,4_61_2,2023-09-11T18:08:44.239Z,,0,,,NaN,,,,,,false,,,,231081.29999999702,231081.09999999404,,231081.09999999404,,231090.113,8,400,,,
sequence,flow.Sequence,4_61,2023-09-11T18:08:44.240Z,,0,,,2624.21499999403,completion,,,,,false,,,,231081.40000000596,231081.09999999404,228440.219,228454.79999999702,228456.885,231090.113,8,400,,,
trial,html.Screen,4_62_0,2023-09-11T18:08:46.820Z,,0,2,,2571.886999999988,response,ISIC_2299749.JPG,9,ISIC_7787118.JPG,ISIC_2299749.JPG,false,1,keypress(m),500,233662.20000000298,233662,231073.447,231081.59999999404,231090.113,233673.619,8,400,13,,ISIC_7787118.JPG
break,html.Screen,4_62_1,2023-09-11T18:08:46.821Z,,0,,,NaN,,,,,,false,,,,233663,233662.79999999702,,233662.40000000596,,233673.619,8,400,,,
break_continue,html.Screen,4_62_2,2023-09-11T18:08:46.822Z,,0,,,NaN,,,,,,false,,,,233663.40000000596,233663.29999999702,,233663.09999999404,,233673.619,8,400,,,
sequence,flow.Sequence,4_62,2023-09-11T18:08:46.822Z,,0,,,2573.1869999970077,completion,,,,,false,,,,233663.59999999404,233663.29999999702,231073.447,231081.59999999404,231090.113,233673.619,8,400,,,
trial,html.Screen,4_63_0,2023-09-11T18:08:49.611Z,,0,2,,2779.2810000059544,response,ISIC_8041078.JPG,7,ISIC_0053763.JPG,ISIC_0053763.JPG,false,0,keypress(z),500,236453.20000000298,236452.90000000596,233656.953,233663.79999999702,233673.619,236456.841,8,400,14,,ISIC_8041078.JPG
break,html.Screen,4_63_1,2023-09-11T18:08:49.612Z,,0,,,NaN,,,,,,false,,,,236454,236453.79999999702,,236453.40000000596,,236456.841,8,400,,,
break_continue,html.Screen,4_63_2,2023-09-11T18:08:49.613Z,,0,,,NaN,,,,,,false,,,,236454.40000000596,236454.29999999702,,236454.20000000298,,236456.841,8,400,,,
sequence,flow.Sequence,4_63,2023-09-11T18:08:49.613Z,,0,,,2780.6809999970137,completion,,,,,false,,,,236454.59999999404,236454.29999999702,233656.953,233663.70000000298,233673.619,236456.841,8,400,,,
trial,html.Screen,4_64_0,2023-09-11T18:08:52.577Z,,0,2,,2961.659000000014,response,ISIC_5518595.JPG,7,ISIC_5220698.JPG,ISIC_5220698.JPG,false,0,keypress(z),500,239418.79999999702,239418.5,236440.175,236454.79999999702,236456.841,239423.389,8,400,15,,ISIC_5518595.JPG
break,html.Screen,4_64_1,2023-09-11T18:08:52.578Z,,0,,,NaN,,,,,,false,,,,239419.59999999404,239419.40000000596,,239419,,239423.389,8,400,,,
break_continue,html.Screen,4_64_2,2023-09-11T18:08:52.578Z,,0,,,NaN,,,,,,false,,,,239420,239419.90000000596,,239419.79999999702,,239423.389,8,400,,,
sequence,flow.Sequence,4_64,2023-09-11T18:08:52.578Z,,0,,,2963.0590000059747,completion,,,,,false,,,,239420.29999999702,239419.90000000596,236440.175,236454.70000000298,236456.841,239423.389,8,400,,,
trial,html.Screen,4_65_0,2023-09-11T18:08:55.862Z,,0,2,,3280.410999997024,response,ISIC_9406755.JPG,7,ISIC_7802213.JPG,ISIC_7802213.JPG,false,0,keypress(z),500,242704.20000000298,242703.79999999702,239406.723,239420.40000000596,239423.389,242706.855,8,400,16,,ISIC_9406755.JPG
break,html.Screen,4_65_1,2023-09-11T18:08:55.863Z,,0,,,NaN,,,,,,false,,,,242705,242704.79999999702,,242704.40000000596,,242706.855,8,400,,,
break_continue,html.Screen,4_65_2,2023-09-11T18:08:55.864Z,,0,,,NaN,,,,,,false,,,,242705.40000000596,242705.29999999702,,242705.09999999404,,242706.855,8,400,,,
sequence,flow.Sequence,4_65,2023-09-11T18:08:55.864Z,,0,,,3281.910999997024,completion,,,,,false,,,,242705.59999999404,242705.29999999702,239406.723,239420.29999999702,239423.389,242706.855,8,400,,,
trial,html.Screen,4_66_0,2023-09-11T18:08:58.497Z,,0,2,,2631.6449999999895,response,ISIC_7650369.JPG,6,ISIC_0033981.JPG,ISIC_7650369.JPG,false,1,keypress(m),500,245338.70000000298,245338.5,242690.189,242705.79999999702,242706.855,245340.083,8,400,17,,ISIC_0033981.JPG
break,html.Screen,4_66_1,2023-09-11T18:08:58.498Z,,0,,,NaN,,,,,,false,,,,245339.5,245339.29999999702,,245338.90000000596,,245340.083,8,400,,,
break_continue,html.Screen,4_66_2,2023-09-11T18:08:58.498Z,,0,,,NaN,,,,,,false,,,,245339.90000000596,245339.79999999702,,245339.70000000298,,245340.083,8,400,,,
sequence,flow.Sequence,4_66,2023-09-11T18:08:58.498Z,,0,,,2632.9449999970093,completion,,,,,false,,,,245340.09999999404,245339.79999999702,242690.189,242705.70000000298,242706.855,245340.083,8,400,,,
trial,html.Screen,4_67_0,2023-09-11T18:09:01.649Z,,0,2,,3150.317000005947,response,ISIC_0032012.JPG,7,ISIC_4691689.JPG,ISIC_0032012.JPG,false,1,keypress(m),500,248490.70000000298,248490.40000000596,245323.417,245340.20000000298,245340.083,248506.623,8,400,18,,ISIC_4691689.JPG
break,html.Screen,4_67_1,2023-09-11T18:09:01.650Z,,0,,,NaN,,,,,,false,,,,248491.5,248491.20000000298,,248490.90000000596,,248506.623,8,400,,,
break_continue,html.Screen,4_67_2,2023-09-11T18:09:01.650Z,,0,,,NaN,,,,,,false,,,,248491.90000000596,248491.70000000298,,248491.70000000298,,248506.623,8,400,,,
sequence,flow.Sequence,4_67,2023-09-11T18:09:01.650Z,,0,,,3151.617000002967,completion,,,,,false,,,,248492.09999999404,248491.70000000298,245323.417,245340.20000000298,245340.083,248506.623,8,400,,,
trial,html.Screen,4_68_0,2023-09-11T18:09:05.050Z,,0,2,,3384.777000005968,response,ISIC_0054444.JPG,6,ISIC_0000142.JPG,ISIC_0054444.JPG,false,1,keypress(m),500,251891.70000000298,251891.40000000596,248489.957,248492.20000000298,248506.623,251906.487,8,400,19,,ISIC_0000142.JPG
break,html.Screen,4_68_1,2023-09-11T18:09:05.051Z,,0,,,NaN,,,,,,false,,,,251892.5,251892.20000000298,,251892,,251906.487,8,400,,,
break_continue,html.Screen,4_68_2,2023-09-11T18:09:05.051Z,,0,,,NaN,,,,,,false,,,,251892.90000000596,251892.70000000298,,251892.70000000298,,251906.487,8,400,,,
sequence,flow.Sequence,4_68,2023-09-11T18:09:05.051Z,,0,,,3386.077000002988,completion,,,,,false,,,,251893.09999999404,251892.70000000298,248489.957,248492.20000000298,248506.623,251906.487,8,400,,,
trial,html.Screen,4_69_0,2023-09-11T18:09:08.240Z,,0,2,,3175.312999997026,response,ISIC_0032583.JPG,9,ISIC_4383671.JPG,ISIC_0032583.JPG,false,1,keypress(m),500,255082.09999999404,255081.79999999702,251889.821,251893.29999999702,251906.487,255089.963,8,400,20,,ISIC_4383671.JPG
break,html.Screen,4_69_1,2023-09-11T18:09:08.241Z,,0,,,NaN,,,,,,false,,,,255082.79999999702,255082.70000000298,,255082.29999999702,,255089.963,8,400,,,
break_continue,html.Screen,4_69_2,2023-09-11T18:09:08.241Z,,0,,,NaN,,,,,,false,,,,255083.29999999702,255083.09999999404,,255083,,255089.963,8,400,,,
sequence,flow.Sequence,4_69,2023-09-11T18:09:08.242Z,,0,,,3176.612999994046,completion,,,,,false,,,,255083.40000000596,255083.09999999404,251889.821,251893.29999999702,251906.487,255089.963,8,400,,,
trial,html.Screen,4_70_0,2023-09-11T18:09:11.321Z,,0,2,,3072.537000000011,response,ISIC_0588322.JPG,8,ISIC_0030193.JPG,ISIC_0588322.JPG,false,1,keypress(m),500,258162.79999999702,258162.5,255073.297,255083.59999999404,255089.963,258173.173,8,400,21,,ISIC_0030193.JPG
break,html.Screen,4_70_1,2023-09-11T18:09:11.323Z,,0,,,NaN,,,,,,false,,,,258164.90000000596,258164.70000000298,,258164.40000000596,,258173.173,8,400,,,
break_continue,html.Screen,4_70_2,2023-09-11T18:09:11.323Z,,0,,,NaN,,,,,,false,,,,258165.29999999702,258165.20000000298,,258165,,258173.173,8,400,,,
sequence,flow.Sequence,4_70,2023-09-11T18:09:11.324Z,,0,,,3075.2370000029914,completion,,,,,false,,,,258165.59999999404,258165.20000000298,255073.297,255083.59999999404,255089.963,258173.173,8,400,,,
trial,html.Screen,4_71_0,2023-09-11T18:09:14.561Z,,0,2,,3229.7270000059507,response,ISIC_6801988.JPG,8,ISIC_7096885.JPG,ISIC_7096885.JPG,false,0,keypress(z),500,261403.09999999404,261402.90000000596,258156.507,258165.70000000298,258173.173,261406.377,8,400,22,,ISIC_6801988.JPG
break,html.Screen,4_71_1,2023-09-11T18:09:14.562Z,,0,,,NaN,,,,,,false,,,,261403.90000000596,261403.70000000298,,261403.40000000596,,261406.377,8,400,,,
break_continue,html.Screen,4_71_2,2023-09-11T18:09:14.562Z,,0,,,NaN,,,,,,false,,,,261404.29999999702,261404.20000000298,,261404,,261406.377,8,400,,,
sequence,flow.Sequence,4_71,2023-09-11T18:09:14.563Z,,0,,,3231.0270000029705,completion,,,,,false,,,,261404.5,261404.20000000298,258156.507,258165.59999999404,258173.173,261406.377,8,400,,,
trial,html.Screen,4_72_0,2023-09-11T18:09:17.174Z,,0,2,,2609.222999994032,response,ISIC_6460137.JPG,8,ISIC_8766254.JPG,ISIC_6460137.JPG,false,1,keypress(m),500,264015.799999997,264015.59999999404,261389.711,261404.70000000298,261406.377,264023.211,8,400,23,,ISIC_8766254.JPG
break,html.Screen,4_72_1,2023-09-11T18:09:17.175Z,,0,,,NaN,,,,,,false,,,,264016.59999999404,264016.40000000596,,264016.09999999404,,264023.211,8,400,,,
break_continue,html.Screen,4_72_2,2023-09-11T18:09:17.175Z,,0,,,NaN,,,,,,false,,,,264017,264016.90000000596,,264016.799999997,,264023.211,8,400,,,
sequence,flow.Sequence,4_72,2023-09-11T18:09:17.175Z,,0,,,2610.523000005953,completion,,,,,false,,,,264017.299999997,264016.90000000596,261389.711,261404.70000000298,261406.377,264023.211,8,400,,,
trial,html.Screen,4_73_0,2023-09-11T18:09:19.745Z,,0,2,,2563.3889999940293,response,ISIC_4026569.JPG,8,ISIC_3558747.JPG,ISIC_4026569.JPG,false,1,keypress(m),500,266586.700000003,266586.59999999404,264006.545,264017.40000000596,264023.211,266589.775,8,400,24,,ISIC_3558747.JPG
break,html.Screen,4_73_1,2023-09-11T18:09:19.746Z,,0,,,NaN,,,,,,false,,,,266587.5,266587.299999997,,266587,,266589.775,8,400,,,
break_continue,html.Screen,4_73_2,2023-09-11T18:09:19.746Z,,0,,,NaN,,,,,,false,,,,266588,266587.799999997,,266587.700000003,,266589.775,8,400,,,
sequence,flow.Sequence,4_73,2023-09-11T18:09:19.746Z,,0,,,2564.5889999970095,completion,,,,,false,,,,266588.09999999404,266587.799999997,264006.545,264017.299999997,264023.211,266589.775,8,400,,,
trial,html.Screen,4_74_0,2023-09-11T18:09:22.473Z,,0,2,,2724.625000005937,response,ISIC_1838876.JPG,6,ISIC_9574191.JPG,ISIC_1838876.JPG,false,1,keypress(m),500,269314.700000003,269314.40000000596,266573.109,266588.299999997,266589.775,269322.999,8,400,25,,ISIC_9574191.JPG
break,html.Screen,4_74_1,2023-09-11T18:09:22.474Z,,0,,,NaN,,,,,,false,,,,269315.40000000596,269315.200000003,,269314.90000000596,,269322.999,8,400,,,
break_continue,html.Screen,4_74_2,2023-09-11T18:09:22.474Z,,0,,,NaN,,,,,,false,,,,269315.90000000596,269315.799999997,,269315.59999999404,,269322.999,8,400,,,
sequence,flow.Sequence,4_74,2023-09-11T18:09:22.474Z,,0,,,2726.0249999969965,completion,,,,,false,,,,269316.200000003,269315.799999997,266573.109,266588.200000003,266589.775,269322.999,8,400,,,
trial,html.Screen,4_75_0,2023-09-11T18:09:25.131Z,,0,2,,2649.4010000059498,response,ISIC_9028997.JPG,9,ISIC_3365692.JPG,ISIC_3365692.JPG,false,0,keypress(z),500,271972.59999999404,271972.40000000596,269306.333,269316.299999997,269322.999,271989.559,8,400,26,,ISIC_9028997.JPG
break,html.Screen,4_75_1,2023-09-11T18:09:25.133Z,,0,,,NaN,,,,,,false,,,,271974.59999999404,271974.299999997,,271974,,271989.559,8,400,,,
break_continue,html.Screen,4_75_2,2023-09-11T18:09:25.133Z,,0,,,NaN,,,,,,false,,,,271975,271974.799999997,,271974.700000003,,271989.559,8,400,,,
sequence,flow.Sequence,4_75,2023-09-11T18:09:25.133Z,,0,,,2651.800999997009,completion,,,,,false,,,,271975.09999999404,271974.799999997,269306.333,269316.200000003,269322.999,271989.559,8,400,,,
trial,html.Screen,4_76_0,2023-09-11T18:09:28.219Z,,0,2,,3071.040999994031,response,ISIC_9470876.JPG,8,ISIC_0070248.JPG,ISIC_9470876.JPG,false,1,keypress(m),500,275060.799999997,275060.59999999404,271972.893,271975.299999997,271989.559,275073.032,8,400,27,,ISIC_0070248.JPG
break,html.Screen,4_76_1,2023-09-11T18:09:28.220Z,,0,,,NaN,,,,,,false,,,,275061.59999999404,275061.40000000596,,275061.09999999404,,275073.032,8,400,,,
break_continue,html.Screen,4_76_2,2023-09-11T18:09:28.220Z,,0,,,NaN,,,,,,false,,,,275062.09999999404,275061.90000000596,,275061.700000003,,275073.032,8,400,,,
sequence,flow.Sequence,4_76,2023-09-11T18:09:28.220Z,,0,,,3072.341000005952,completion,,,,,false,,,,275062.200000003,275061.90000000596,271972.893,271975.299999997,271989.559,275073.032,8,400,,,
trial,html.Screen,4_77_0,2023-09-11T18:09:30.833Z,,0,2,,2601.567999994033,response,ISIC_7873541.JPG,6,ISIC_0072917.JPG,ISIC_7873541.JPG,false,1,keypress(m),500,277674.799999997,277674.59999999404,275056.366,275062.40000000596,275073.032,277689.594,8,400,28,,ISIC_0072917.JPG
break,html.Screen,4_77_1,2023-09-11T18:09:30.834Z,,0,,,NaN,,,,,,false,,,,277675.59999999404,277675.40000000596,,277675.09999999404,,277689.594,8,400,,,
break_continue,html.Screen,4_77_2,2023-09-11T18:09:30.834Z,,0,,,NaN,,,,,,false,,,,277676,277675.90000000596,,277675.799999997,,277689.594,8,400,,,
sequence,flow.Sequence,4_77,2023-09-11T18:09:30.834Z,,0,,,2602.868000005954,completion,,,,,false,,,,277676.200000003,277675.90000000596,275056.366,275062.40000000596,275073.032,277689.594,8,400,,,
trial,html.Screen,4_78_0,2023-09-11T18:09:33.446Z,,0,2,,2598.205999997037,response,ISIC_0027277.JPG,6,ISIC_0064124.JPG,ISIC_0064124.JPG,false,0,keypress(z),500,280288,280287.799999997,277672.928,277676.299999997,277689.594,280289.49,8,400,29,,ISIC_0027277.JPG
break,html.Screen,4_78_1,2023-09-11T18:09:33.447Z,,0,,,NaN,,,,,,false,,,,280288.90000000596,280288.59999999404,,280288.299999997,,280289.49,8,400,,,
break_continue,html.Screen,4_78_2,2023-09-11T18:09:33.447Z,,0,,,NaN,,,,,,false,,,,280289.200000003,280289.09999999404,,280289,,280289.49,8,400,,,
sequence,flow.Sequence,4_78,2023-09-11T18:09:33.448Z,,0,,,2599.5059999940568,completion,,,,,false,,,,280289.5,280289.09999999404,277672.928,277676.299999997,277689.594,280289.49,8,400,,,
trial,html.Screen,4_79_0,2023-09-11T18:09:35.963Z,,0,2,,2515.609999994049,response,ISIC_4427755.JPG,9,ISIC_0046635.JPG,ISIC_4427755.JPG,false,1,keypress(m),500,282805.40000000596,282805.09999999404,280272.824,280289.59999999404,280289.49,282822.722,8,400,30,,ISIC_0046635.JPG
break,html.Screen,4_79_1,2023-09-11T18:09:35.964Z,,0,,,NaN,,,,,,false,,,,282806.200000003,282805.90000000596,,282805.59999999404,,282822.722,8,400,,,
break_continue,html.Screen,4_79_2,2023-09-11T18:09:35.965Z,,0,,,NaN,,,,,,false,,,,282806.59999999404,282806.5,,282806.299999997,,282822.722,8,400,,,
sequence,flow.Sequence,4_79,2023-09-11T18:09:35.965Z,,0,,,2517.0100000000093,completion,,,,,false,,,,282806.700000003,282806.5,280272.824,280289.5,280289.49,282822.722,8,400,,,
trial,html.Screen,4_80_0,2023-09-11T18:09:38.617Z,,0,2,,2635.777999999991,response,ISIC_8523143.JPG,5,ISIC_0011349.JPG,ISIC_8523143.JPG,false,1,keypress(m),500,285458.700000003,285458.5,282806.056,282806.90000000596,282822.722,285472.9,8,400,31,,ISIC_0011349.JPG
break,html.Screen,4_80_1,2023-09-11T18:09:38.617Z,,0,,,NaN,,,,,,false,,,,285459.299999997,285459.09999999404,,285458.90000000596,,285472.9,8,400,,,
break_continue,html.Screen,4_80_2,2023-09-11T18:09:38.618Z,,0,,,NaN,,,,,,false,,,,285459.5,285459.5,,285459.40000000596,,285472.9,8,400,,,
sequence,flow.Sequence,4_80,2023-09-11T18:09:38.618Z,,0,,,2636.777999999991,completion,,,,,false,,,,285459.700000003,285459.5,282806.056,282806.799999997,282822.722,285472.9,8,400,,,
trial,html.Screen,4_81_0,2023-09-11T18:09:41.201Z,,0,2,,2569.6999999940163,response,ISIC_5518557.JPG,7,ISIC_1460249.JPG,ISIC_5518557.JPG,false,1,keypress(m),500,288042.799999997,288042.59999999404,285456.234,285459.799999997,285472.9,288056.13,8,400,32,,ISIC_1460249.JPG
break,html.Screen,4_81_1,2023-09-11T18:09:41.202Z,,0,,,NaN,,,,,,false,,,,288043.59999999404,288043.40000000596,,288043.09999999404,,288056.13,8,400,,,
break_continue,html.Screen,4_81_2,2023-09-11T18:09:41.202Z,,0,,,NaN,,,,,,false,,,,288044,288043.90000000596,,288043.799999997,,288056.13,8,400,,,
sequence,flow.Sequence,4_81,2023-09-11T18:09:41.202Z,,0,,,2571.000000005937,completion,,,,,false,,,,288044.09999999404,288043.90000000596,285456.234,285459.700000003,285472.9,288056.13,8,400,,,
trial,html.Screen,4_82_0,2023-09-11T18:09:44.549Z,,0,2,,3334.3699999999953,response,ISIC_3842916.JPG,7,ISIC_0069379.JPG,ISIC_3842916.JPG,false,1,keypress(m),500,291390.700000003,291390.5,288039.464,288044.299999997,288056.13,291405.996,8,400,33,,ISIC_0069379.JPG
break,html.Screen,4_82_1,2023-09-11T18:09:44.550Z,,0,,,NaN,,,,,,false,,,,291391.5,291391.299999997,,291390.90000000596,,291405.996,8,400,,,
break_continue,html.Screen,4_82_2,2023-09-11T18:09:44.550Z,,0,,,NaN,,,,,,false,,,,291391.90000000596,291391.799999997,,291391.59999999404,,291405.996,8,400,,,
sequence,flow.Sequence,4_82,2023-09-11T18:09:44.550Z,,0,,,3335.669999997015,completion,,,,,false,,,,291392.200000003,291391.799999997,288039.464,288044.200000003,288056.13,291405.996,8,400,,,
trial,html.Screen,4_83_0,2023-09-11T18:09:47.233Z,,0,2,,2668.603999994055,response,ISIC_0377965.JPG,7,ISIC_1543544.JPG,ISIC_1543544.JPG,false,0,keypress(z),500,294074.90000000596,294074.59999999404,291389.33,291392.299999997,291405.996,294089.222,8,400,34,,ISIC_0377965.JPG
break,html.Screen,4_83_1,2023-09-11T18:09:47.234Z,,0,,,NaN,,,,,,false,,,,294075.700000003,294075.5,,294075.09999999404,,294089.222,8,400,,,
break_continue,html.Screen,4_83_2,2023-09-11T18:09:47.234Z,,0,,,NaN,,,,,,false,,,,294076.09999999404,294076,,294075.90000000596,,294089.222,8,400,,,
sequence,flow.Sequence,4_83,2023-09-11T18:09:47.234Z,,0,,,2670.0040000000154,completion,,,,,false,,,,294076.299999997,294076,291389.33,291392.200000003,291405.996,294089.222,8,400,,,
trial,html.Screen,4_84_0,2023-09-11T18:09:50.614Z,,0,2,,3366.577999997011,response,ISIC_8380904.JPG,7,ISIC_0033004.JPG,ISIC_0033004.JPG,false,0,keypress(z),500,297456.09999999404,297455.799999997,294072.556,294076.40000000596,294089.222,297472.688,8,400,35,,ISIC_8380904.JPG
break,html.Screen,4_84_1,2023-09-11T18:09:50.615Z,,0,,,NaN,,,,,,false,,,,297456.90000000596,297456.59999999404,,297456.299999997,,297472.688,8,400,,,
break_continue,html.Screen,4_84_2,2023-09-11T18:09:50.615Z,,0,,,NaN,,,,,,false,,,,297457.200000003,297457.09999999404,,297457,,297472.688,8,400,,,
sequence,flow.Sequence,4_84,2023-09-11T18:09:50.615Z,,0,,,3367.8779999940307,completion,,,,,false,,,,297457.40000000596,297457.09999999404,294072.556,294076.40000000596,294089.222,297472.688,8,400,,,
trial,html.Screen,4_85_0,2023-09-11T18:09:53.841Z,,0,2,,3209.7120000059367,response,ISIC_0003324.JPG,7,ISIC_9969907.JPG,ISIC_0003324.JPG,false,1,keypress(m),500,300682.700000003,300682.40000000596,297456.022,297457.59999999404,297472.688,300689.226,8,400,36,,ISIC_9969907.JPG
break,html.Screen,4_85_1,2023-09-11T18:09:53.842Z,,0,,,NaN,,,,,,false,,,,300683.5,300683.299999997,,300682.90000000596,,300689.226,8,400,,,
break_continue,html.Screen,4_85_2,2023-09-11T18:09:53.842Z,,0,,,NaN,,,,,,false,,,,300683.90000000596,300683.700000003,,300683.59999999404,,300689.226,8,400,,,
sequence,flow.Sequence,4_85,2023-09-11T18:09:53.842Z,,0,,,3211.0120000029565,completion,,,,,false,,,,300684.09999999404,300683.700000003,297456.022,297457.59999999404,297472.688,300689.226,8,400,,,
trial,html.Screen,4_86_0,2023-09-11T18:09:56.657Z,,0,2,,2809.273999999976,response,ISIC_0065278.JPG,7,ISIC_0024367.JPG,ISIC_0065278.JPG,false,1,keypress(m),500,303498.700000003,303498.5,300672.56,300684.200000003,300689.226,303505.78,8,400,37,,ISIC_0024367.JPG
break,html.Screen,4_86_1,2023-09-11T18:09:56.658Z,,0,,,NaN,,,,,,false,,,,303499.5,303499.299999997,,303498.90000000596,,303505.78,8,400,,,
break_continue,html.Screen,4_86_2,2023-09-11T18:09:56.658Z,,0,,,NaN,,,,,,false,,,,303499.90000000596,303499.799999997,,303499.59999999404,,303505.78,8,400,,,
sequence,flow.Sequence,4_86,2023-09-11T18:09:56.658Z,,0,,,2810.5739999969956,completion,,,,,false,,,,303500.09999999404,303499.799999997,300672.56,300684.200000003,300689.226,303505.78,8,400,,,
trial,html.Screen,4_87_0,2023-09-11T18:09:59.513Z,,0,2,,2848.6200000059325,response,ISIC_8627293.JPG,7,ISIC_2644988.JPG,ISIC_2644988.JPG,false,0,keypress(z),500,306354.700000003,306354.40000000596,303489.114,303500.299999997,303505.78,306355.939,8,400,38,,ISIC_8627293.JPG
break,html.Screen,4_87_1,2023-09-11T18:09:59.514Z,,0,,,NaN,,,,,,false,,,,306355.5,306355.299999997,,306354.90000000596,,306355.939,8,400,,,
break_continue,html.Screen,4_87_2,2023-09-11T18:09:59.514Z,,0,,,NaN,,,,,,false,,,,306355.90000000596,306355.700000003,,306355.700000003,,306355.939,8,400,,,
sequence,flow.Sequence,4_87,2023-09-11T18:09:59.514Z,,0,,,2849.9200000029523,completion,,,,,false,,,,306356.09999999404,306355.700000003,303489.114,303500.200000003,303505.78,306355.939,8,400,,,
trial,html.Screen,4_88_0,2023-09-11T18:10:02.172Z,,0,2,,2658.060999999987,response,ISIC_4699066.JPG,8,ISIC_0056110.JPG,ISIC_4699066.JPG,false,1,keypress(m),500,309014.299999997,309014,306339.273,306356.299999997,306355.939,309022.499,8,400,39,,ISIC_0056110.JPG
break,html.Screen,4_88_1,2023-09-11T18:10:02.173Z,,0,,,NaN,,,,,,false,,,,309015.09999999404,309014.90000000596,,309014.5,,309022.499,8,400,,,
break_continue,html.Screen,4_88_2,2023-09-11T18:10:02.173Z,,0,,,NaN,,,,,,false,,,,309015.40000000596,309015.299999997,,309015.200000003,,309022.499,8,400,,,
sequence,flow.Sequence,4_88,2023-09-11T18:10:02.174Z,,0,,,2659.3609999970067,completion,,,,,false,,,,309015.59999999404,309015.299999997,306339.273,306356.200000003,306355.939,309022.499,8,400,,,
trial,html.Screen,4_89_0,2023-09-11T18:10:05.620Z,,0,2,,3439.0009999999893,response,ISIC_0072271.JPG,5,ISIC_6443984.JPG,ISIC_6443984.JPG,false,0,keypress(z),500,312461.700000003,312461.5,309005.833,309015.799999997,309022.499,312472.361,8,400,40,,ISIC_0072271.JPG
break,html.Screen,4_89_1,2023-09-11T18:10:05.621Z,,0,,,NaN,,,,,,false,,,,312462.5,312462.299999997,,312462,,312472.361,8,400,,,
break_continue,html.Screen,4_89_2,2023-09-11T18:10:05.621Z,,0,,,NaN,,,,,,false,,,,312462.90000000596,312462.799999997,,312462.59999999404,,312472.361,8,400,,,
sequence,flow.Sequence,4_89,2023-09-11T18:10:05.621Z,,0,,,3440.300999997009,completion,,,,,false,,,,312463,312462.799999997,309005.833,309015.799999997,309022.499,312472.361,8,400,,,
trial,html.Screen,4_90_0,2023-09-11T18:10:08.170Z,,0,2,,2539.539000005985,response,ISIC_0012840.JPG,8,ISIC_0060999.JPG,ISIC_0012840.JPG,false,1,keypress(m),500,315012.200000003,315011.90000000596,312455.695,312463.200000003,312472.361,315022.259,8,400,41,,ISIC_0060999.JPG
break,html.Screen,4_90_1,2023-09-11T18:10:08.171Z,,0,,,NaN,,,,,,false,,,,315013.09999999404,315012.799999997,,315012.40000000596,,315022.259,8,400,,,
break_continue,html.Screen,4_90_2,2023-09-11T18:10:08.172Z,,0,,,NaN,,,,,,false,,,,315014.5,315013.799999997,,315013.299999997,,315022.259,8,400,,,
sequence,flow.Sequence,4_90,2023-09-11T18:10:08.173Z,,0,,,2541.4389999970444,completion,,,,,false,,,,315015.09999999404,315013.799999997,312455.695,312463.09999999404,312472.361,315022.259,8,400,,,
trial,html.Screen,4_91_0,2023-09-11T18:10:10.971Z,,0,2,,2790.3409999940195,response,ISIC_0011729.JPG,5,ISIC_0028009.JPG,ISIC_0028009.JPG,false,0,keypress(z),500,317812.90000000596,317812.59999999404,315005.593,315015.5,315022.259,317822.422,8,400,42,,ISIC_0011729.JPG
break,html.Screen,4_91_1,2023-09-11T18:10:10.972Z,,0,,,NaN,,,,,,false,,,,317813.700000003,317813.40000000596,,317813.200000003,,317822.422,8,400,,,
break_continue,html.Screen,4_91_2,2023-09-11T18:10:10.972Z,,0,,,NaN,,,,,,false,,,,317814.09999999404,317814,,317813.799999997,,317822.422,8,400,,,
sequence,flow.Sequence,4_91,2023-09-11T18:10:10.972Z,,0,,,2791.74099999998,completion,,,,,false,,,,317814.299999997,317814,315005.593,315015.40000000596,315022.259,317822.422,8,400,,,
trial,html.Screen,4_92_0,2023-09-11T18:10:14.490Z,,0,2,,3509.5779999999795,response,ISIC_9716860.JPG,7,ISIC_0014675.JPG,ISIC_9716860.JPG,false,1,keypress(m),500,321332,321332,317805.756,317814.5,317822.422,321338.948,8,400,43,,ISIC_0014675.JPG
break,html.Screen,4_92_1,2023-09-11T18:10:14.490Z,,0,,,NaN,,,,,,false,,,,321332.5,321332.299999997,,321332.09999999404,,321338.948,8,400,,,
break_continue,html.Screen,4_92_2,2023-09-11T18:10:14.491Z,,0,,,NaN,,,,,,false,,,,321332.59999999404,321332.5,,321332.5,,321338.948,8,400,,,
sequence,flow.Sequence,4_92,2023-09-11T18:10:14.491Z,,0,,,3510.0779999999795,completion,,,,,false,,,,321332.59999999404,321332.5,317805.756,317814.40000000596,317822.422,321338.948,8,400,,,
trial,html.Screen,4_93_0,2023-09-11T18:10:17.073Z,,0,2,,2575.552000000025,response,ISIC_3269018.JPG,8,ISIC_0014157.JPG,ISIC_0014157.JPG,false,0,keypress(z),500,323914.799999997,323914.5,321322.282,321332.700000003,321338.948,323922.178,8,400,44,,ISIC_3269018.JPG
break,html.Screen,4_93_1,2023-09-11T18:10:17.074Z,,0,,,NaN,,,,,,false,,,,323915.700000003,323915.40000000596,,323915,,323922.178,8,400,,,
break_continue,html.Screen,4_93_2,2023-09-11T18:10:17.074Z,,0,,,NaN,,,,,,false,,,,323916,323915.799999997,,323915.799999997,,323922.178,8,400,,,
sequence,flow.Sequence,4_93,2023-09-11T18:10:17.074Z,,0,,,2576.851999997045,completion,,,,,false,,,,323916.09999999404,323915.799999997,321322.282,321332.700000003,321338.948,323922.178,8,400,,,
trial,html.Screen,4_94_0,2023-09-11T18:10:20.067Z,,0,2,,2986.1219999970053,response,ISIC_0032046.JPG,6,ISIC_0054885.JPG,ISIC_0032046.JPG,false,1,keypress(m),500,326908.5,326908.299999997,323905.512,323916.299999997,323922.178,326922.33,8,400,45,,ISIC_0054885.JPG
break,html.Screen,4_94_1,2023-09-11T18:10:20.067Z,,0,,,NaN,,,,,,false,,,,326909.299999997,326909,,326908.799999997,,326922.33,8,400,,,
break_continue,html.Screen,4_94_2,2023-09-11T18:10:20.068Z,,0,,,NaN,,,,,,false,,,,326909.799999997,326909.700000003,,326909.5,,326922.33,8,400,,,
sequence,flow.Sequence,4_94,2023-09-11T18:10:20.068Z,,0,,,2987.522000002966,completion,,,,,false,,,,326909.90000000596,326909.700000003,323905.512,323916.200000003,323922.178,326922.33,8,400,,,
trial,html.Screen,4_95_0,2023-09-11T18:10:22.657Z,,0,2,,2576.2699999940232,response,ISIC_8671662.JPG,5,ISIC_5127759.JPG,ISIC_8671662.JPG,false,1,keypress(m),500,329498.799999997,329498.59999999404,326905.664,326910.09999999404,326922.33,329505.56,8,400,46,,ISIC_5127759.JPG
break,html.Screen,4_95_1,2023-09-11T18:10:22.658Z,,0,,,NaN,,,,,,false,,,,329499.59999999404,329499.40000000596,,329499,,329505.56,8,400,,,
break_continue,html.Screen,4_95_2,2023-09-11T18:10:22.658Z,,0,,,NaN,,,,,,false,,,,329499.90000000596,329499.799999997,,329499.59999999404,,329505.56,8,400,,,
sequence,flow.Sequence,4_95,2023-09-11T18:10:22.658Z,,0,,,2577.4699999970035,completion,,,,,false,,,,329500,329499.799999997,326905.664,326910,326922.33,329505.56,8,400,,,
trial,html.Screen,4_96_0,2023-09-11T18:10:25.926Z,,0,2,,3262.239999997022,response,ISIC_0063369.JPG,7,ISIC_0062770.JPG,ISIC_0063369.JPG,false,1,keypress(m),500,332768,332767.799999997,329488.894,329500.200000003,329505.56,332772.096,8,400,47,,ISIC_0062770.JPG
break,html.Screen,4_96_1,2023-09-11T18:10:25.927Z,,0,,,NaN,,,,,,false,,,,332768.799999997,332768.59999999404,,332768.299999997,,332772.096,8,400,,,
break_continue,html.Screen,4_96_2,2023-09-11T18:10:25.927Z,,0,,,NaN,,,,,,false,,,,332769.299999997,332769,,332769,,332772.096,8,400,,,
sequence,flow.Sequence,4_96,2023-09-11T18:10:25.927Z,,0,,,3263.4400000000023,completion,,,,,false,,,,332769.40000000596,332769,329488.894,329500.200000003,329505.56,332772.096,8,400,,,
trial,html.Screen,4_97_0,2023-09-11T18:10:28.593Z,,0,2,,2662.304000005941,response,ISIC_0033916.JPG,7,ISIC_0031170.JPG,ISIC_0031170.JPG,false,0,keypress(z),500,335434.700000003,335434.40000000596,332755.43,332769.59999999404,332772.096,335438.656,8,400,48,,ISIC_0033916.JPG
break,html.Screen,4_97_1,2023-09-11T18:10:28.593Z,,0,,,NaN,,,,,,false,,,,335435.5,335435.200000003,,335434.90000000596,,335438.656,8,400,,,
break_continue,html.Screen,4_97_2,2023-09-11T18:10:28.594Z,,0,,,NaN,,,,,,false,,,,335435.90000000596,335435.700000003,,335435.59999999404,,335438.656,8,400,,,
sequence,flow.Sequence,4_97,2023-09-11T18:10:28.594Z,,0,,,2663.6040000029607,completion,,,,,false,,,,335436.09999999404,335435.700000003,332755.43,332769.5,332772.096,335438.656,8,400,,,
trial,html.Screen,4_98_0,2023-09-11T18:10:32.489Z,,0,2,,3891.8439999999828,response,ISIC_0066379.JPG,5,ISIC_2364150.JPG,ISIC_2364150.JPG,false,0,keypress(z),500,339330.799999997,339330.5,335421.99,335436.200000003,335438.656,339338.763,8,400,49,,ISIC_0066379.JPG
break,html.Screen,4_98_1,2023-09-11T18:10:32.489Z,,0,,,NaN,,,,,,false,,,,339331.5,339331.299999997,,339331,,339338.763,8,400,,,
break_continue,html.Screen,4_98_2,2023-09-11T18:10:32.490Z,,0,,,NaN,,,,,,false,,,,339331.90000000596,339331.799999997,,339331.700000003,,339338.763,8,400,,,
sequence,flow.Sequence,4_98,2023-09-11T18:10:32.490Z,,0,,,3893.1439999970025,completion,,,,,false,,,,339332.09999999404,339331.799999997,335421.99,335436.09999999404,335438.656,339338.763,8,400,,,
trial,html.Screen,4_99_0,2023-09-11T18:10:35.579Z,,0,2,,3082.0369999970426,response,ISIC_2562668.JPG,7,ISIC_9122215.JPG,ISIC_2562668.JPG,false,1,keypress(m),500,342421,342420.799999997,339322.097,339332.200000003,339338.763,342421.973,8,400,50,,ISIC_9122215.JPG
break,html.Screen,4_99_1,2023-09-11T18:10:45.567Z,,0,,,9999.862000000023,timeout,,,,,false,,,,352409.09999999404,352405.169,342405.307,342421.200000003,342421.973,352421.835,8,400,,,
break_continue,html.Screen,4_99_2,2023-09-11T18:10:59.236Z,,0,,,13635.764999994019,response,,,,,false,continue,keypress(Space),,366077.799999997,366057.59999999404,352405.169,352409.299999997,352421.835,366087.955,8,400,,,
sequence,flow.Sequence,4_99,2023-09-11T18:10:59.236Z,,0,,,26718.836999994062,completion,,,,,false,,,,366078,366057.59999999404,339322.097,339332.200000003,339338.763,366087.955,8,400,,,
trial,html.Screen,4_100_0,2023-09-11T18:11:01.985Z,,0,3,,2738.445000005944,response,ISIC_4397068.JPG,6,ISIC_0062517.JPG,ISIC_4397068.JPG,false,1,keypress(m),500,368826.700000003,368826.40000000596,366071.289,366078.09999999404,366087.955,368838.384,8,400,1,,ISIC_0062517.JPG
break,html.Screen,4_100_1,2023-09-11T18:11:01.985Z,,0,,,NaN,,,,,,false,,,,368827.5,368827.299999997,,368827,,368838.384,8,400,,,
break_continue,html.Screen,4_100_2,2023-09-11T18:11:01.986Z,,0,,,NaN,,,,,,false,,,,368827.90000000596,368827.799999997,,368827.59999999404,,368838.384,8,400,,,
sequence,flow.Sequence,4_100,2023-09-11T18:11:01.986Z,,0,,,2739.8449999970035,completion,,,,,false,,,,368828.09999999404,368827.799999997,366071.289,366078.09999999404,366087.955,368838.384,8,400,,,
trial,html.Screen,4_101_0,2023-09-11T18:11:04.647Z,,0,3,,2650.81600000296,response,ISIC_0059925.JPG,7,ISIC_0029803.JPG,ISIC_0059925.JPG,false,1,keypress(m),500,371489.5,371489.200000003,368821.718,368828.200000003,368838.384,371504.944,8,400,2,,ISIC_0029803.JPG
break,html.Screen,4_101_1,2023-09-11T18:11:04.648Z,,0,,,NaN,,,,,,false,,,,371490.299999997,371490.09999999404,,371489.799999997,,371504.944,8,400,,,
break_continue,html.Screen,4_101_2,2023-09-11T18:11:04.649Z,,0,,,NaN,,,,,,false,,,,371490.700000003,371490.59999999404,,371490.5,,371504.944,8,400,,,
sequence,flow.Sequence,4_101,2023-09-11T18:11:04.649Z,,0,,,2652.2159999940195,completion,,,,,false,,,,371490.799999997,371490.59999999404,368821.718,368828.09999999404,368838.384,371504.944,8,400,,,
trial,html.Screen,4_102_0,2023-09-11T18:11:07.457Z,,0,3,,2793.7560000029625,response,ISIC_7526548.JPG,5,ISIC_3492490.JPG,ISIC_7526548.JPG,false,1,keypress(m),500,374298.90000000596,374298.700000003,371488.278,371491.09999999404,371504.944,374304.832,8,400,3,,ISIC_3492490.JPG
break,html.Screen,4_102_1,2023-09-11T18:11:07.458Z,,0,,,NaN,,,,,,false,,,,374299.700000003,374299.5,,374299.09999999404,,374304.832,8,400,,,
break_continue,html.Screen,4_102_2,2023-09-11T18:11:07.458Z,,0,,,NaN,,,,,,false,,,,374300.09999999404,374299.90000000596,,374299.799999997,,374304.832,8,400,,,
sequence,flow.Sequence,4_102,2023-09-11T18:11:07.458Z,,0,,,2794.9560000059428,completion,,,,,false,,,,374300.299999997,374299.90000000596,371488.278,371491,371504.944,374304.832,8,400,,,
trial,html.Screen,4_103_0,2023-09-11T18:11:10.202Z,,0,3,,2738.5680000059656,response,ISIC_0010265.JPG,7,ISIC_1258763.JPG,ISIC_1258763.JPG,false,0,keypress(z),500,377043.700000003,377043.40000000596,374288.166,374300.40000000596,374304.832,377054.996,8,400,4,,ISIC_0010265.JPG
break,html.Screen,4_103_1,2023-09-11T18:11:10.202Z,,0,,,NaN,,,,,,false,,,,377044.40000000596,377044.200000003,,377043.90000000596,,377054.996,8,400,,,
break_continue,html.Screen,4_103_2,2023-09-11T18:11:10.203Z,,0,,,NaN,,,,,,false,,,,377044.90000000596,377044.799999997,,377044.700000003,,377054.996,8,400,,,
sequence,flow.Sequence,4_103,2023-09-11T18:11:10.203Z,,0,,,2739.967999997025,completion,,,,,false,,,,377045,377044.799999997,374288.166,374300.40000000596,374304.832,377054.996,8,400,,,
trial,html.Screen,4_104_0,2023-09-11T18:11:14.059Z,,0,3,,3845.803999997035,response,ISIC_4903988.JPG,8,ISIC_0027590.JPG,ISIC_0027590.JPG,false,0,keypress(z),500,380901,380900.799999997,377038.33,377045.200000003,377054.996,380904.842,8,400,5,,ISIC_4903988.JPG
break,html.Screen,4_104_1,2023-09-11T18:11:14.060Z,,0,,,NaN,,,,,,false,,,,380901.799999997,380901.5,,380901.200000003,,380904.842,8,400,,,
break_continue,html.Screen,4_104_2,2023-09-11T18:11:14.060Z,,0,,,NaN,,,,,,false,,,,380902.200000003,380902,,380901.90000000596,,380904.842,8,400,,,
sequence,flow.Sequence,4_104,2023-09-11T18:11:14.060Z,,0,,,3847.0040000000154,completion,,,,,false,,,,380902.40000000596,380902,377038.33,377045.200000003,377054.996,380904.842,8,400,,,
trial,html.Screen,4_105_0,2023-09-11T18:11:17.179Z,,0,3,,3115.7579999940353,response,ISIC_3993510.JPG,7,ISIC_7205745.JPG,ISIC_3993510.JPG,false,1,keypress(m),500,384020.799999997,384020.59999999404,380888.176,380902.5,380904.842,384038.05,8,400,6,,ISIC_7205745.JPG
break,html.Screen,4_105_1,2023-09-11T18:11:17.180Z,,0,,,NaN,,,,,,false,,,,384021.700000003,384021.40000000596,,384021.09999999404,,384038.05,8,400,,,
break_continue,html.Screen,4_105_2,2023-09-11T18:11:17.180Z,,0,,,NaN,,,,,,false,,,,384022,384022,,384021.799999997,,384038.05,8,400,,,
sequence,flow.Sequence,4_105,2023-09-11T18:11:17.180Z,,0,,,3117.157999999996,completion,,,,,false,,,,384022.299999997,384022,380888.176,380902.5,380904.842,384038.05,8,400,,,
trial,html.Screen,4_106_0,2023-09-11T18:11:19.793Z,,0,3,,2596.850000005972,response,ISIC_3493866.JPG,7,ISIC_6666329.JPG,ISIC_6666329.JPG,false,0,keypress(z),500,386635.09999999404,386634.90000000596,384021.384,384022.40000000596,384038.05,386637.946,8,400,7,,ISIC_3493866.JPG
break,html.Screen,4_106_1,2023-09-11T18:11:19.794Z,,0,,,NaN,,,,,,false,,,,386636,386635.700000003,,386635.40000000596,,386637.946,8,400,,,
break_continue,html.Screen,4_106_2,2023-09-11T18:11:19.794Z,,0,,,NaN,,,,,,false,,,,386636.40000000596,386636.200000003,,386636.09999999404,,386637.946,8,400,,,
sequence,flow.Sequence,4_106,2023-09-11T18:11:19.794Z,,0,,,2598.150000002992,completion,,,,,false,,,,386636.5,386636.200000003,384021.384,384022.40000000596,384038.05,386637.946,8,400,,,
trial,html.Screen,4_107_0,2023-09-11T18:11:23.873Z,,0,3,,4076.454000005964,response,ISIC_9119549.JPG,7,ISIC_7227223.JPG,ISIC_7227223.JPG,false,0,keypress(z),500,390714.700000003,390714.40000000596,386621.28,386636.700000003,386637.946,390721.379,8,400,8,,ISIC_9119549.JPG
break,html.Screen,4_107_1,2023-09-11T18:11:23.873Z,,0,,,NaN,,,,,,false,,,,390715.5,390715.200000003,,390714.90000000596,,390721.379,8,400,,,
break_continue,html.Screen,4_107_2,2023-09-11T18:11:23.874Z,,0,,,NaN,,,,,,false,,,,390715.90000000596,390715.700000003,,390715.59999999404,,390721.379,8,400,,,
sequence,flow.Sequence,4_107,2023-09-11T18:11:23.874Z,,0,,,4077.754000002984,completion,,,,,false,,,,390716,390715.700000003,386621.28,386636.700000003,386637.946,390721.379,8,400,,,
trial,html.Screen,4_108_0,2023-09-11T18:11:26.442Z,,0,3,,2562.1209999999846,response,ISIC_0963531.JPG,8,ISIC_0011956.JPG,ISIC_0963531.JPG,false,1,keypress(m),500,393283.700000003,393283.5,390704.713,390716.200000003,390721.379,393287.943,8,400,9,,ISIC_0011956.JPG
break,html.Screen,4_108_1,2023-09-11T18:11:26.442Z,,0,,,NaN,,,,,,false,,,,393284.5,393284.299999997,,393284,,393287.943,8,400,,,
break_continue,html.Screen,4_108_2,2023-09-11T18:11:26.443Z,,0,,,NaN,,,,,,false,,,,393285,393284.799999997,,393284.59999999404,,393287.943,8,400,,,
sequence,flow.Sequence,4_108,2023-09-11T18:11:26.443Z,,0,,,2563.4209999970044,completion,,,,,false,,,,393285.09999999404,393284.799999997,390704.713,390716.200000003,390721.379,393287.943,8,400,,,
trial,html.Screen,4_109_0,2023-09-11T18:11:30.561Z,,0,3,,4114.556999999972,response,ISIC_0012049.JPG,7,ISIC_0056739.JPG,ISIC_0012049.JPG,false,1,keypress(m),500,397402.700000003,397402.5,393271.277,393285.299999997,393287.943,397404.714,8,400,10,,ISIC_0056739.JPG
break,html.Screen,4_109_1,2023-09-11T18:11:30.561Z,,0,,,NaN,,,,,,false,,,,397403.5,397403.299999997,,397403,,397404.714,8,400,,,
break_continue,html.Screen,4_109_2,2023-09-11T18:11:30.562Z,,0,,,NaN,,,,,,false,,,,397403.90000000596,397403.700000003,,397403.59999999404,,397404.714,8,400,,,
sequence,flow.Sequence,4_109,2023-09-11T18:11:30.562Z,,0,,,4115.757000002952,completion,,,,,false,,,,397404.09999999404,397403.700000003,393271.277,393285.299999997,393287.943,397404.714,8,400,,,
trial,html.Screen,4_110_0,2023-09-11T18:11:33.270Z,,0,3,,2707.0859999970417,response,ISIC_1113265.JPG,5,ISIC_4532303.JPG,ISIC_4532303.JPG,false,0,keypress(z),500,400112.09999999404,400111.799999997,397388.048,397404.200000003,397404.714,400121.272,8,400,11,,ISIC_1113265.JPG
break,html.Screen,4_110_1,2023-09-11T18:11:33.271Z,,0,,,NaN,,,,,,false,,,,400112.90000000596,400112.59999999404,,400112.299999997,,400121.272,8,400,,,
break_continue,html.Screen,4_110_2,2023-09-11T18:11:33.271Z,,0,,,NaN,,,,,,false,,,,400113.200000003,400113.09999999404,,400113,,400121.272,8,400,,,
sequence,flow.Sequence,4_110,2023-09-11T18:11:33.271Z,,0,,,2708.3859999940614,completion,,,,,false,,,,400113.40000000596,400113.09999999404,397388.048,397404.200000003,397404.714,400121.272,8,400,,,
trial,html.Screen,4_111_0,2023-09-11T18:11:35.915Z,,0,3,,2635.928000002983,response,ISIC_0025128.JPG,7,ISIC_7125023.JPG,ISIC_7125023.JPG,false,0,keypress(z),500,402757.40000000596,402757.200000003,400104.606,400113.5,400121.272,402771.166,8,400,12,,ISIC_0025128.JPG
break,html.Screen,4_111_1,2023-09-11T18:11:35.916Z,,0,,,NaN,,,,,,false,,,,402758.200000003,402757.90000000596,,402757.59999999404,,402771.166,8,400,,,
break_continue,html.Screen,4_111_2,2023-09-11T18:11:35.916Z,,0,,,NaN,,,,,,false,,,,402758.59999999404,402758.40000000596,,402758.40000000596,,402771.166,8,400,,,
sequence,flow.Sequence,4_111,2023-09-11T18:11:35.917Z,,0,,,2637.1280000059633,completion,,,,,false,,,,402758.799999997,402758.40000000596,400104.606,400113.5,400121.272,402771.166,8,400,,,
trial,html.Screen,4_112_0,2023-09-11T18:11:38.491Z,,0,3,,2561.433999994013,response,ISIC_9403390.JPG,6,ISIC_0060975.JPG,ISIC_9403390.JPG,false,1,keypress(m),500,405332.90000000596,405332.59999999404,402754.5,402758.90000000596,402771.166,405337.73,8,400,13,,ISIC_0060975.JPG
break,html.Screen,4_112_1,2023-09-11T18:11:38.492Z,,0,,,NaN,,,,,,false,,,,405333.700000003,405333.40000000596,,405333.09999999404,,405337.73,8,400,,,
break_continue,html.Screen,4_112_2,2023-09-11T18:11:38.492Z,,0,,,NaN,,,,,,false,,,,405334.09999999404,405333.90000000596,,405333.799999997,,405337.73,8,400,,,
sequence,flow.Sequence,4_112,2023-09-11T18:11:38.492Z,,0,,,2562.734000005934,completion,,,,,false,,,,405334.200000003,405333.90000000596,402754.5,402758.799999997,402771.166,405337.73,8,400,,,
trial,html.Screen,4_113_0,2023-09-11T18:11:40.929Z,,0,3,,2432.7700000000186,response,ISIC_0046908.JPG,7,ISIC_5425721.JPG,ISIC_5425721.JPG,false,0,keypress(z),500,407770.700000003,407770.5,405321.064,405334.40000000596,405337.73,407787.903,8,400,14,,ISIC_0046908.JPG
break,html.Screen,4_113_1,2023-09-11T18:11:40.929Z,,0,,,NaN,,,,,,false,,,,407771.5,407771.299999997,,407771,,407787.903,8,400,,,
break_continue,html.Screen,4_113_2,2023-09-11T18:11:40.930Z,,0,,,NaN,,,,,,false,,,,407771.90000000596,407771.799999997,,407771.59999999404,,407787.903,8,400,,,
sequence,flow.Sequence,4_113,2023-09-11T18:11:40.930Z,,0,,,2434.0699999970384,completion,,,,,false,,,,407772.09999999404,407771.799999997,405321.064,405334.40000000596,405337.73,407787.903,8,400,,,
trial,html.Screen,4_114_0,2023-09-11T18:11:43.590Z,,0,3,,2643.8969999970286,response,ISIC_0068905.JPG,8,ISIC_0000180.JPG,ISIC_0000180.JPG,false,0,keypress(z),500,410432.09999999404,410431.799999997,407771.237,407772.200000003,407787.903,410437.797,8,400,15,,ISIC_0068905.JPG
break,html.Screen,4_114_1,2023-09-11T18:11:43.591Z,,0,,,NaN,,,,,,false,,,,410432.799999997,410432.59999999404,,410432.200000003,,410437.797,8,400,,,
break_continue,html.Screen,4_114_2,2023-09-11T18:11:43.591Z,,0,,,NaN,,,,,,false,,,,410433.299999997,410433.09999999404,,410433,,410437.797,8,400,,,
sequence,flow.Sequence,4_114,2023-09-11T18:11:43.591Z,,0,,,2645.1969999940484,completion,,,,,false,,,,410433.40000000596,410433.09999999404,407771.237,407772.200000003,407787.903,410437.797,8,400,,,
trial,html.Screen,4_115_0,2023-09-11T18:11:46.221Z,,0,3,,2624.9030000029597,response,ISIC_8978290.JPG,7,ISIC_6373500.JPG,ISIC_8978290.JPG,false,1,keypress(m),500,413063,413062.700000003,410421.131,410433.59999999404,410437.797,413071.025,8,400,16,,ISIC_6373500.JPG
break,html.Screen,4_115_1,2023-09-11T18:11:46.222Z,,0,,,NaN,,,,,,false,,,,413063.799999997,413063.59999999404,,413063.200000003,,413071.025,8,400,,,
break_continue,html.Screen,4_115_2,2023-09-11T18:11:46.222Z,,0,,,NaN,,,,,,false,,,,413064.200000003,413064.09999999404,,413064,,413071.025,8,400,,,
sequence,flow.Sequence,4_115,2023-09-11T18:11:46.222Z,,0,,,2626.302999994019,completion,,,,,false,,,,413064.40000000596,413064.09999999404,410421.131,410433.5,410437.797,413071.025,8,400,,,
trial,html.Screen,4_116_0,2023-09-11T18:11:48.649Z,,0,3,,2419.875000005937,response,ISIC_2720971.JPG,5,ISIC_8916136.JPG,ISIC_8916136.JPG,false,0,keypress(z),500,415491.200000003,415490.90000000596,413054.359,413064.59999999404,413071.025,415504.261,8,400,17,,ISIC_2720971.JPG
break,html.Screen,4_116_1,2023-09-11T18:11:48.650Z,,0,,,NaN,,,,,,false,,,,415491.799999997,415491.59999999404,,415491.299999997,,415504.261,8,400,,,
break_continue,html.Screen,4_116_2,2023-09-11T18:11:48.650Z,,0,,,NaN,,,,,,false,,,,415492.200000003,415492,,415492,,415504.261,8,400,,,
sequence,flow.Sequence,4_116,2023-09-11T18:11:48.650Z,,0,,,2420.9749999999767,completion,,,,,false,,,,415492.299999997,415492,413054.359,413064.5,413071.025,415504.261,8,400,,,
trial,html.Screen,4_117_0,2023-09-11T18:11:51.243Z,,0,3,,2580.338999994041,response,ISIC_5281485.JPG,7,ISIC_1334438.JPG,ISIC_5281485.JPG,false,1,keypress(m),500,418084.799999997,418084.59999999404,415487.595,415492.5,415504.261,418087.761,8,400,18,,ISIC_1334438.JPG
break,html.Screen,4_117_1,2023-09-11T18:11:51.243Z,,0,,,NaN,,,,,,false,,,,418085.59999999404,418085.40000000596,,418085.09999999404,,418087.761,8,400,,,
break_continue,html.Screen,4_117_2,2023-09-11T18:11:51.244Z,,0,,,NaN,,,,,,false,,,,418086,418085.90000000596,,418085.799999997,,418087.761,8,400,,,
sequence,flow.Sequence,4_117,2023-09-11T18:11:51.244Z,,0,,,2581.639000005962,completion,,,,,false,,,,418086.200000003,418085.90000000596,415487.595,415492.40000000596,415504.261,418087.761,8,400,,,
trial,html.Screen,4_118_0,2023-09-11T18:11:53.787Z,,0,3,,2541.338999994041,response,ISIC_0064784.JPG,7,ISIC_9154716.JPG,ISIC_9154716.JPG,false,0,keypress(z),500,420629.40000000596,420629.09999999404,418071.095,418086.40000000596,418087.761,420637.659,8,400,19,,ISIC_0064784.JPG
break,html.Screen,4_118_1,2023-09-11T18:11:53.788Z,,0,,,NaN,,,,,,false,,,,420630.200000003,420630,,420629.59999999404,,420637.659,8,400,,,
break_continue,html.Screen,4_118_2,2023-09-11T18:11:53.788Z,,0,,,NaN,,,,,,false,,,,420630.59999999404,420630.5,,420630.40000000596,,420637.659,8,400,,,
sequence,flow.Sequence,4_118,2023-09-11T18:11:53.789Z,,0,,,2542.7390000000014,completion,,,,,false,,,,420630.799999997,420630.5,418071.095,418086.299999997,418087.761,420637.659,8,400,,,
trial,html.Screen,4_119_0,2023-09-11T18:11:56.593Z,,0,3,,2796.841000000015,response,ISIC_1352841.JPG,8,ISIC_1453671.JPG,ISIC_1453671.JPG,false,0,keypress(z),500,423434.700000003,423434.5,420620.993,420631,420637.659,423437.547,8,400,20,,ISIC_1352841.JPG
break,html.Screen,4_119_1,2023-09-11T18:11:56.593Z,,0,,,NaN,,,,,,false,,,,423435.59999999404,423435.40000000596,,423435,,423437.547,8,400,,,
break_continue,html.Screen,4_119_2,2023-09-11T18:11:56.594Z,,0,,,NaN,,,,,,false,,,,423436,423435.799999997,,423435.59999999404,,423437.547,8,400,,,
sequence,flow.Sequence,4_119,2023-09-11T18:11:56.594Z,,0,,,2798.1409999970347,completion,,,,,false,,,,423436.09999999404,423435.799999997,420620.993,420630.90000000596,420637.659,423437.547,8,400,,,
trial,html.Screen,4_120_0,2023-09-11T18:11:59.377Z,,0,3,,2780.85300000594,response,ISIC_1352841.JPG,7,ISIC_4899386.JPG,ISIC_4899386.JPG,false,0,keypress(z),500,426218.799999997,426218.40000000596,423420.881,423436.299999997,423437.547,426220.769,8,400,21,,ISIC_1352841.JPG
break,html.Screen,4_120_1,2023-09-11T18:11:59.377Z,,0,,,NaN,,,,,,false,,,,426219.59999999404,426219.299999997,,426218.90000000596,,426220.769,8,400,,,
break_continue,html.Screen,4_120_2,2023-09-11T18:11:59.378Z,,0,,,NaN,,,,,,false,,,,426219.90000000596,426219.799999997,,426219.700000003,,426220.769,8,400,,,
sequence,flow.Sequence,4_120,2023-09-11T18:11:59.378Z,,0,,,2782.2529999969993,completion,,,,,false,,,,426220.09999999404,426219.799999997,423420.881,423436.200000003,423437.547,426220.769,8,400,,,
trial,html.Screen,4_121_0,2023-09-11T18:12:01.876Z,,0,3,,2497.5309999970486,response,ISIC_9108776.JPG,7,ISIC_2482653.JPG,ISIC_9108776.JPG,false,1,keypress(m),500,428718.59999999404,428718.299999997,426204.103,426220.200000003,426220.769,428720.935,8,400,22,,ISIC_2482653.JPG
break,html.Screen,4_121_1,2023-09-11T18:12:01.877Z,,0,,,NaN,,,,,,false,,,,428719.40000000596,428719.200000003,,428718.799999997,,428720.935,8,400,,,
break_continue,html.Screen,4_121_2,2023-09-11T18:12:01.878Z,,0,,,NaN,,,,,,false,,,,428719.799999997,428719.700000003,,428719.5,,428720.935,8,400,,,
sequence,flow.Sequence,4_121,2023-09-11T18:12:01.878Z,,0,,,2498.931000003009,completion,,,,,false,,,,428720,428719.700000003,426204.103,426220.200000003,426220.769,428720.935,8,400,,,
trial,html.Screen,4_122_0,2023-09-11T18:12:05.035Z,,0,3,,3156.2650000029826,response,ISIC_0010382.JPG,5,ISIC_0027941.JPG,ISIC_0010382.JPG,false,1,keypress(m),500,431877.40000000596,431877.200000003,428704.269,428720.09999999404,428720.935,431887.475,8,400,23,,ISIC_0027941.JPG
break,html.Screen,4_122_1,2023-09-11T18:12:05.036Z,,0,,,NaN,,,,,,false,,,,431878.200000003,431878,,431877.59999999404,,431887.475,8,400,,,
break_continue,html.Screen,4_122_2,2023-09-11T18:12:05.036Z,,0,,,NaN,,,,,,false,,,,431878.59999999404,431878.40000000596,,431878.299999997,,431887.475,8,400,,,
sequence,flow.Sequence,4_122,2023-09-11T18:12:05.037Z,,0,,,3157.465000005963,completion,,,,,false,,,,431878.799999997,431878.40000000596,428704.269,428720.09999999404,428720.935,431887.475,8,400,,,
trial,html.Screen,4_123_0,2023-09-11T18:12:07.498Z,,0,3,,2452.0250000000233,response,ISIC_0033500.JPG,7,ISIC_5443837.JPG,ISIC_5443837.JPG,false,0,keypress(z),500,434339.799999997,434339.5,431870.809,431878.90000000596,431887.475,434354.043,8,400,24,,ISIC_0033500.JPG
break,html.Screen,4_123_1,2023-09-11T18:12:07.498Z,,0,,,NaN,,,,,,false,,,,434340.59999999404,434340.40000000596,,434340,,434354.043,8,400,,,
break_continue,html.Screen,4_123_2,2023-09-11T18:12:07.499Z,,0,,,NaN,,,,,,false,,,,434341,434340.90000000596,,434340.799999997,,434354.043,8,400,,,
sequence,flow.Sequence,4_123,2023-09-11T18:12:07.499Z,,0,,,2453.4250000059837,completion,,,,,false,,,,434341.200000003,434340.90000000596,431870.809,431878.90000000596,431887.475,434354.043,8,400,,,
trial,html.Screen,4_124_0,2023-09-11T18:12:10.048Z,,0,3,,2535.5569999940344,response,ISIC_0046471.JPG,5,ISIC_6375439.JPG,ISIC_6375439.JPG,false,0,keypress(z),500,436889.799999997,436889.59999999404,434337.377,434341.40000000596,434354.043,436903.941,8,400,25,,ISIC_0046471.JPG
break,html.Screen,4_124_1,2023-09-11T18:12:10.048Z,,0,,,NaN,,,,,,false,,,,436890.59999999404,436890.40000000596,,436890.09999999404,,436903.941,8,400,,,
break_continue,html.Screen,4_124_2,2023-09-11T18:12:10.049Z,,0,,,NaN,,,,,,false,,,,436891,436890.90000000596,,436890.700000003,,436903.941,8,400,,,
sequence,flow.Sequence,4_124,2023-09-11T18:12:10.049Z,,0,,,2536.8570000059553,completion,,,,,false,,,,436891.09999999404,436890.90000000596,434337.377,434341.299999997,434354.043,436903.941,8,400,,,
trial,html.Screen,4_125_0,2023-09-11T18:12:13.206Z,,0,3,,3143.858999997028,response,ISIC_0010235.JPG,8,ISIC_0250064.JPG,ISIC_0010235.JPG,false,1,keypress(m),500,440048.09999999404,440047.799999997,436887.275,436891.40000000596,436903.941,440054.081,8,400,26,,ISIC_0250064.JPG
break,html.Screen,4_125_1,2023-09-11T18:12:13.207Z,,0,,,NaN,,,,,,false,,,,440048.90000000596,440048.59999999404,,440048.40000000596,,440054.081,8,400,,,
break_continue,html.Screen,4_125_2,2023-09-11T18:12:13.207Z,,0,,,NaN,,,,,,false,,,,440049.299999997,440049.09999999404,,440049.09999999404,,440054.081,8,400,,,
sequence,flow.Sequence,4_125,2023-09-11T18:12:13.207Z,,0,,,3145.158999994048,completion,,,,,false,,,,440049.5,440049.09999999404,436887.275,436891.299999997,436903.941,440054.081,8,400,,,
