sender,sender_type,sender_id,timestamp,meta,,blockNo,condition,duration,ended_on,img_left,img_reveal,img_right,loser,practice,response,response_action,selection_duration,time_commit,time_end,time_render,time_run,time_show,time_switch,total_blocks,total_trials,trialNo,url,winner
informed_consent,html.Screen,0,2023-11-01T16:43:54.556Z,"{""labjs_version"":""20.2.4"",""labjs_build"":{""flavor"":""production"",""commit"":""f5b4a49f956347addd546a832a3327688c2c0fef""},""location"":""https://run.pavlovia.org/MurrayBennett/melanoma-2afc/?participant=67582&platform=sona"",""userAgent"":""Mozilla/5.0 (Macintosh; Intel Mac OS X 10_15_7) AppleWebKit/605.1.15 (KHTML, like Gecko) Version/16.6 Safari/605.1.15"",""platform"":""MacIntel"",""language"":""en-US"",""locale"":""en-US"",""timeZone"":""America/Chicago"",""timezoneOffset"":300,""screen_width"":1440,""screen_height"":900,""scroll_width"":1440,""scroll_height"":772,""window_innerWidth"":1440,""window_innerHeight"":820,""devicePixelRatio"":2}",,,,10143.000000000002,response,,,,,,consent,click button,,12321,12197.000000000002,2054,2046.0000000000002,2122,12351,,,,"{""participant"":""67582"",""platform"":""sona""}",
Welcome,html.Screen,1,2023-11-01T16:44:55.635Z,,,,symmetry,61056,response,,,,,,continue,click button,,73403,73396,12340,12322.000000000002,12351,73427,,,,,
trial,html.Screen,2_0_0,2023-11-01T16:45:03.493Z,,0,0,,7852,response,ISIC_6997061.JPG,,ISIC_0069348.JPG,ISIC_0069348.JPG,true,0,keypress(z),500,81261,81261,73409,73403,73427,81288,1,6,1,,ISIC_6997061.JPG
sequence,flow.Sequence,2_0,2023-11-01T16:45:03.494Z,,0,,,7834,completion,,,,,true,,,,81262,81261,73409,73403,73427,81288,1,6,,,
trial,html.Screen,2_1_0,2023-11-01T16:45:07.808Z,,0,0,,4305.000000000015,response,ISIC_0009529.JPG,,ISIC_0057368.JPG,ISIC_0057368.JPG,true,0,keypress(z),500,85576.00000000001,85576.00000000001,81271,81262,81288,85602,1,6,2,,ISIC_0009529.JPG
sequence,flow.Sequence,2_1,2023-11-01T16:45:07.809Z,,0,,,4288.000000000015,completion,,,,,true,,,,85577,85576.00000000001,81271,81262,81288,85602,1,6,,,
trial,html.Screen,2_2_0,2023-11-01T16:45:12.057Z,,0,0,,4242.000000000015,response,ISIC_9758671.JPG,,ISIC_0064954.JPG,ISIC_9758671.JPG,true,1,keypress(m),500,89826.00000000001,89826.00000000001,85584,85577,85602,89849,1,6,3,,ISIC_0064954.JPG
sequence,flow.Sequence,2_2,2023-11-01T16:45:12.058Z,,0,,,4224.000000000015,completion,,,,,true,,,,89826.00000000001,89826.00000000001,85584,85577,85602,89849,1,6,,,
trial,html.Screen,2_3_0,2023-11-01T16:45:15.425Z,,0,0,,3361,response,ISIC_0000080.JPG,,ISIC_0005785.JPG,ISIC_0005785.JPG,true,0,keypress(z),500,93193,93193,89832,89826.00000000001,89849,93230,1,6,4,,ISIC_0000080.JPG
sequence,flow.Sequence,2_3,2023-11-01T16:45:15.425Z,,0,,,3344,completion,,,,,true,,,,93194,93193,89832,89826.00000000001,89849,93230,1,6,,,
trial,html.Screen,2_4_0,2023-11-01T16:45:18.315Z,,0,0,,2871,response,ISIC_5390060.JPG,,ISIC_7944028.JPG,ISIC_5390060.JPG,true,1,keypress(m),500,96084,96084,93213,93194,93230,96111,1,6,5,,ISIC_7944028.JPG
sequence,flow.Sequence,2_4,2023-11-01T16:45:18.316Z,,0,,,2854,completion,,,,,true,,,,96084,96084,93213,93194,93230,96111,1,6,,,
trial,html.Screen,2_5_0,2023-11-01T16:45:21.961Z,,0,0,,3634,response,ISIC_0010188.JPG,,ISIC_0794216.JPG,ISIC_0010188.JPG,true,1,keypress(m),500,99729,99729,96095,96084,96111,99758,1,6,6,,ISIC_0794216.JPG
sequence,flow.Sequence,2_5,2023-11-01T16:45:21.961Z,,0,,,3618,completion,,,,,true,,,,99730,99729,96095,96084,96111,99758,1,6,,,
loop,flow.Loop,2,2023-11-01T16:45:21.961Z,,,,,26302,completion,,,,,true,,,,99730,99729,73409,73403,73427,99758,1,6,,,
exp_instructions,html.Screen,3,2023-11-01T16:45:35.742Z,,,,,13784,response,,,,,,continue,keypress(Space),,113512,113527,99743,99730,99758,113532,,,,,
trial,html.Screen,4_0_0,2023-11-01T16:45:41.064Z,,0,1,,5317,response,ISIC_9688534.JPG,0,ISIC_6313487.JPG,ISIC_6313487.JPG,false,0,keypress(z),500,118833,118833,113516,113512,113532,118863,8,400,1,,ISIC_9688534.JPG
break,html.Screen,4_0_1,2023-11-01T16:45:41.065Z,,0,,,NaN,,,,,,false,,,,118834,118834,,118834,,118863,8,400,,,
break_continue,html.Screen,4_0_2,2023-11-01T16:45:41.065Z,,0,,,NaN,,,,,,false,,,,118835.00000000001,118835.00000000001,,118834,,118863,8,400,,,
sequence,flow.Sequence,4_0,2023-11-01T16:45:41.065Z,,0,,,5303.000000000015,completion,,,,,false,,,,118835.00000000001,118835.00000000001,113516,113512,113532,118863,8,400,,,
trial,html.Screen,4_1_0,2023-11-01T16:45:44.359Z,,0,1,,3282,response,ISIC_0000026.JPG,0,ISIC_8433108.JPG,ISIC_8433108.JPG,false,0,keypress(z),500,122129,122128,118846,118835.00000000001,118863,122161,8,400,2,,ISIC_0000026.JPG
break,html.Screen,4_1_1,2023-11-01T16:45:44.360Z,,0,,,NaN,,,,,,false,,,,122130,122129,,122129,,122161,8,400,,,
break_continue,html.Screen,4_1_2,2023-11-01T16:45:44.360Z,,0,,,NaN,,,,,,false,,,,122130,122130,,122130,,122161,8,400,,,
sequence,flow.Sequence,4_1,2023-11-01T16:45:44.360Z,,0,,,3267,completion,,,,,false,,,,122130,122130,118846,118835.00000000001,118863,122161,8,400,,,
trial,html.Screen,4_2_0,2023-11-01T16:45:47.267Z,,0,1,,2893,response,ISIC_0072371.JPG,15,ISIC_3323866.JPG,ISIC_3323866.JPG,false,0,keypress(z),500,125037,125037,122144,122130,122161,125058,8,400,3,,ISIC_0072371.JPG
break,html.Screen,4_2_1,2023-11-01T16:45:47.268Z,,0,,,NaN,,,,,,false,,,,125038,125038,,125037,,125058,8,400,,,
break_continue,html.Screen,4_2_2,2023-11-01T16:45:47.268Z,,0,,,NaN,,,,,,false,,,,125038,125038,,125038,,125058,8,400,,,
sequence,flow.Sequence,4_2,2023-11-01T16:45:47.268Z,,0,,,2877,completion,,,,,false,,,,125038,125038,122144,122130,122161,125058,8,400,,,
trial,html.Screen,4_3_0,2023-11-01T16:45:53.783Z,,0,1,,6512,response,ISIC_0024865.JPG,1,ISIC_0000118.JPG,ISIC_0024865.JPG,false,1,keypress(m),500,131553,131553,125041,125038,125058,131588,8,400,4,,ISIC_0000118.JPG
break,html.Screen,4_3_1,2023-11-01T16:45:53.784Z,,0,,,NaN,,,,,,false,,,,131554,131554,,131553,,131588,8,400,,,
break_continue,html.Screen,4_3_2,2023-11-01T16:45:53.784Z,,0,,,NaN,,,,,,false,,,,131554,131554,,131554,,131588,8,400,,,
sequence,flow.Sequence,4_3,2023-11-01T16:45:53.784Z,,0,,,6496,completion,,,,,false,,,,131554,131554,125041,125038,125058,131588,8,400,,,
trial,html.Screen,4_4_0,2023-11-01T16:45:56.927Z,,0,1,,3125,response,ISIC_3979826.JPG,10,ISIC_8253326.JPG,ISIC_3979826.JPG,false,1,keypress(m),500,134697,134697,131572,131555,131588,134719,8,400,5,,ISIC_8253326.JPG
break,html.Screen,4_4_1,2023-11-01T16:45:56.928Z,,0,,,NaN,,,,,,false,,,,134698,134698,,134697,,134719,8,400,,,
break_continue,html.Screen,4_4_2,2023-11-01T16:45:56.928Z,,0,,,NaN,,,,,,false,,,,134699,134699,,134698,,134719,8,400,,,
sequence,flow.Sequence,4_4,2023-11-01T16:45:56.928Z,,0,,,3111,completion,,,,,false,,,,134699,134699,131572,131555,131588,134719,8,400,,,
trial,html.Screen,4_5_0,2023-11-01T16:46:00.177Z,,0,1,,3246,response,ISIC_0068233.JPG,1,ISIC_0010663.JPG,ISIC_0010663.JPG,false,0,keypress(z),500,137948,137948,134702,134699,134719,137983,8,400,6,,ISIC_0068233.JPG
break,html.Screen,4_5_1,2023-11-01T16:46:00.178Z,,0,,,NaN,,,,,,false,,,,137948,137948,,137948,,137983,8,400,,,
break_continue,html.Screen,4_5_2,2023-11-01T16:46:00.178Z,,0,,,NaN,,,,,,false,,,,137949,137949,,137948,,137983,8,400,,,
sequence,flow.Sequence,4_5,2023-11-01T16:46:00.178Z,,0,,,3230,completion,,,,,false,,,,137949,137949,134702,134699,134719,137983,8,400,,,
trial,html.Screen,4_6_0,2023-11-01T16:46:04.344Z,,0,1,,4148,response,ISIC_4474352.JPG,2,ISIC_4358550.JPG,ISIC_4474352.JPG,false,1,keypress(m),500,142115,142115,137967,137949,137983,142148,8,400,7,,ISIC_4358550.JPG
break,html.Screen,4_6_1,2023-11-01T16:46:04.345Z,,0,,,NaN,,,,,,false,,,,142116,142115,,142115,,142148,8,400,,,
break_continue,html.Screen,4_6_2,2023-11-01T16:46:04.345Z,,0,,,NaN,,,,,,false,,,,142116,142116,,142116,,142148,8,400,,,
sequence,flow.Sequence,4_6,2023-11-01T16:46:04.345Z,,0,,,4133,completion,,,,,false,,,,142116,142116,137967,137949,137983,142148,8,400,,,
trial,html.Screen,4_7_0,2023-11-01T16:46:08.210Z,,0,1,,3849,response,ISIC_6507412.JPG,4,ISIC_0067609.JPG,ISIC_6507412.JPG,false,1,keypress(m),500,145981,145980,142131,142116,142148,146012,8,400,8,,ISIC_0067609.JPG
break,html.Screen,4_7_1,2023-11-01T16:46:08.211Z,,0,,,NaN,,,,,,false,,,,145981,145981,,145981,,146012,8,400,,,
break_continue,html.Screen,4_7_2,2023-11-01T16:46:08.211Z,,0,,,NaN,,,,,,false,,,,145982,145982,,145982,,146012,8,400,,,
sequence,flow.Sequence,4_7,2023-11-01T16:46:08.211Z,,0,,,3834,completion,,,,,false,,,,145982,145982,142131,142116,142148,146012,8,400,,,
trial,html.Screen,4_8_0,2023-11-01T16:46:11.941Z,,0,1,,3717,response,ISIC_0024552.JPG,16,ISIC_0056983.JPG,ISIC_0056983.JPG,false,0,keypress(z),500,149712,149712,145995,145982,146012,149742,8,400,9,,ISIC_0024552.JPG
break,html.Screen,4_8_1,2023-11-01T16:46:11.942Z,,0,,,NaN,,,,,,false,,,,149713,149712,,149712,,149742,8,400,,,
break_continue,html.Screen,4_8_2,2023-11-01T16:46:11.942Z,,0,,,NaN,,,,,,false,,,,149713,149713,,149713,,149742,8,400,,,
sequence,flow.Sequence,4_8,2023-11-01T16:46:11.943Z,,0,,,3701,completion,,,,,false,,,,149714,149713,145995,145982,146012,149742,8,400,,,
trial,html.Screen,4_9_0,2023-11-01T16:46:15.449Z,,0,1,,3495,response,ISIC_0028366.JPG,16,ISIC_1739667.JPG,ISIC_0028366.JPG,false,1,keypress(m),500,153220,153220,149725,149714,149742,153257,8,400,10,,ISIC_1739667.JPG
break,html.Screen,4_9_1,2023-11-01T16:46:15.449Z,,0,,,NaN,,,,,,false,,,,153220,153220,,153220,,153257,8,400,,,
break_continue,html.Screen,4_9_2,2023-11-01T16:46:15.449Z,,0,,,NaN,,,,,,false,,,,153221,153220,,153220,,153257,8,400,,,
sequence,flow.Sequence,4_9,2023-11-01T16:46:15.450Z,,0,,,3478,completion,,,,,false,,,,153221,153220,149725,149714,149742,153257,8,400,,,
trial,html.Screen,4_10_0,2023-11-01T16:46:18.512Z,,0,1,,3042,response,ISIC_0028317.JPG,2,ISIC_1144024.JPG,ISIC_1144024.JPG,false,0,keypress(z),500,156284,156281,153239,153221,153257,156304,8,400,11,,ISIC_0028317.JPG
break,html.Screen,4_10_1,2023-11-01T16:46:18.513Z,,0,,,NaN,,,,,,false,,,,156284,156284,,156284,,156304,8,400,,,
break_continue,html.Screen,4_10_2,2023-11-01T16:46:18.514Z,,0,,,NaN,,,,,,false,,,,156285,156285,,156285,,156304,8,400,,,
sequence,flow.Sequence,4_10,2023-11-01T16:46:18.514Z,,0,,,3028,completion,,,,,false,,,,156285,156285,153239,153221,153257,156304,8,400,,,
trial,html.Screen,4_11_0,2023-11-01T16:46:21.451Z,,0,1,,2934,response,ISIC_0062864.JPG,16,ISIC_5595054.JPG,ISIC_0062864.JPG,false,1,keypress(m),500,159222,159222,156288,156285,156304,159253,8,400,12,,ISIC_5595054.JPG
break,html.Screen,4_11_1,2023-11-01T16:46:21.452Z,,0,,,NaN,,,,,,false,,,,159223,159223,,159223,,159253,8,400,,,
break_continue,html.Screen,4_11_2,2023-11-01T16:46:21.452Z,,0,,,NaN,,,,,,false,,,,159223,159223,,159223,,159253,8,400,,,
sequence,flow.Sequence,4_11,2023-11-01T16:46:21.452Z,,0,,,2919,completion,,,,,false,,,,159224,159223,156288,156285,156304,159253,8,400,,,
trial,html.Screen,4_12_0,2023-11-01T16:46:24.107Z,,0,1,,2642,response,ISIC_6801680.JPG,1,ISIC_3691320.JPG,ISIC_3691320.JPG,false,0,keypress(z),500,161878,161878,159236,159224,159253,161901,8,400,13,,ISIC_6801680.JPG
break,html.Screen,4_12_1,2023-11-01T16:46:24.108Z,,0,,,NaN,,,,,,false,,,,161879,161879,,161879,,161901,8,400,,,
break_continue,html.Screen,4_12_2,2023-11-01T16:46:24.108Z,,0,,,NaN,,,,,,false,,,,161880,161879,,161879,,161901,8,400,,,
sequence,flow.Sequence,4_12,2023-11-01T16:46:24.108Z,,0,,,2626,completion,,,,,false,,,,161880,161879,159236,159224,159253,161901,8,400,,,
trial,html.Screen,4_13_0,2023-11-01T16:46:26.680Z,,0,1,,2567,response,ISIC_0033612.JPG,3,ISIC_0000296.JPG,ISIC_0000296.JPG,false,0,keypress(z),500,164452,164451,161884,161880,161901,164483,8,400,14,,ISIC_0033612.JPG
break,html.Screen,4_13_1,2023-11-01T16:46:26.681Z,,0,,,NaN,,,,,,false,,,,164452,164452,,164452,,164483,8,400,,,
break_continue,html.Screen,4_13_2,2023-11-01T16:46:26.681Z,,0,,,NaN,,,,,,false,,,,164453,164453,,164452,,164483,8,400,,,
sequence,flow.Sequence,4_13,2023-11-01T16:46:26.681Z,,0,,,2552,completion,,,,,false,,,,164453,164453,161884,161880,161901,164483,8,400,,,
trial,html.Screen,4_14_0,2023-11-01T16:46:29.303Z,,0,1,,2608,response,ISIC_0698821.JPG,8,ISIC_2520840.JPG,ISIC_2520840.JPG,false,0,keypress(z),500,167075.00000000003,167074,164466,164453,164483,167097,8,400,15,,ISIC_0698821.JPG
break,html.Screen,4_14_1,2023-11-01T16:46:29.304Z,,0,,,NaN,,,,,,false,,,,167075.00000000003,167075.00000000003,,167075.00000000003,,167097,8,400,,,
break_continue,html.Screen,4_14_2,2023-11-01T16:46:29.304Z,,0,,,NaN,,,,,,false,,,,167076,167076,,167075.00000000003,,167097,8,400,,,
sequence,flow.Sequence,4_14,2023-11-01T16:46:29.304Z,,0,,,2593,completion,,,,,false,,,,167076,167076,164466,164453,164483,167097,8,400,,,
trial,html.Screen,4_15_0,2023-11-01T16:46:31.907Z,,0,1,,2597,response,ISIC_5422432.JPG,3,ISIC_0056247.JPG,ISIC_0056247.JPG,false,0,keypress(z),500,169678,169678,167081,167076,167097,169713,8,400,16,,ISIC_5422432.JPG
break,html.Screen,4_15_1,2023-11-01T16:46:31.907Z,,0,,,NaN,,,,,,false,,,,169679,169679,,169679,,169713,8,400,,,
break_continue,html.Screen,4_15_2,2023-11-01T16:46:31.908Z,,0,,,NaN,,,,,,false,,,,169679,169679,,169679,,169713,8,400,,,
sequence,flow.Sequence,4_15,2023-11-01T16:46:31.908Z,,0,,,2582,completion,,,,,false,,,,169680,169679,167081,167076,167097,169713,8,400,,,
trial,html.Screen,4_16_0,2023-11-01T16:46:35.408Z,,0,1,,3484,response,ISIC_0024496.JPG,1,ISIC_4836699.JPG,ISIC_0024496.JPG,false,1,keypress(m),500,173180,173180,169696,169680,169713,173210,8,400,17,,ISIC_4836699.JPG
break,html.Screen,4_16_1,2023-11-01T16:46:35.409Z,,0,,,NaN,,,,,,false,,,,173181,173181,,173180,,173210,8,400,,,
break_continue,html.Screen,4_16_2,2023-11-01T16:46:35.409Z,,0,,,NaN,,,,,,false,,,,173181,173181,,173181,,173210,8,400,,,
sequence,flow.Sequence,4_16,2023-11-01T16:46:35.410Z,,0,,,3468,completion,,,,,false,,,,173182.00000000003,173181,169696,169680,169713,173210,8,400,,,
trial,html.Screen,4_17_0,2023-11-01T16:46:38.399Z,,0,1,,2978,response,ISIC_0070852.JPG,12,ISIC_0030695.JPG,ISIC_0070852.JPG,false,1,keypress(m),500,176172,176171,173193,173182.00000000003,173210,176208,8,400,18,,ISIC_0030695.JPG
break,html.Screen,4_17_1,2023-11-01T16:46:38.400Z,,0,,,NaN,,,,,,false,,,,176172,176172,,176172,,176208,8,400,,,
break_continue,html.Screen,4_17_2,2023-11-01T16:46:38.400Z,,0,,,NaN,,,,,,false,,,,176173,176172,,176172,,176208,8,400,,,
sequence,flow.Sequence,4_17,2023-11-01T16:46:38.401Z,,0,,,2962,completion,,,,,false,,,,176173,176172,173193,173182.00000000003,173210,176208,8,400,,,
trial,html.Screen,4_18_0,2023-11-01T16:46:41.085Z,,0,1,,2666,response,ISIC_9719936.JPG,3,ISIC_5722914.JPG,ISIC_5722914.JPG,false,0,keypress(z),500,178857,178857,176191,176173,176208,178889,8,400,19,,ISIC_9719936.JPG
break,html.Screen,4_18_1,2023-11-01T16:46:41.085Z,,0,,,NaN,,,,,,false,,,,178858,178858,,178857,,178889,8,400,,,
break_continue,html.Screen,4_18_2,2023-11-01T16:46:41.086Z,,0,,,NaN,,,,,,false,,,,178858,178858,,178858,,178889,8,400,,,
sequence,flow.Sequence,4_18,2023-11-01T16:46:41.086Z,,0,,,2650,completion,,,,,false,,,,178858,178858,176191,176173,176208,178889,8,400,,,
trial,html.Screen,4_19_0,2023-11-01T16:46:43.653Z,,0,1,,2552,response,ISIC_3487151.JPG,13,ISIC_0069274.JPG,ISIC_0069274.JPG,false,0,keypress(z),500,181425,181425,178873,178858,178889,181454,8,400,20,,ISIC_3487151.JPG
break,html.Screen,4_19_1,2023-11-01T16:46:43.653Z,,0,,,NaN,,,,,,false,,,,181426.00000000003,181425,,181425,,181454,8,400,,,
break_continue,html.Screen,4_19_2,2023-11-01T16:46:43.653Z,,0,,,NaN,,,,,,false,,,,181426.00000000003,181426.00000000003,,181426.00000000003,,181454,8,400,,,
sequence,flow.Sequence,4_19,2023-11-01T16:46:43.654Z,,0,,,2537.000000000029,completion,,,,,false,,,,181426.00000000003,181426.00000000003,178873,178858,178889,181454,8,400,,,
trial,html.Screen,4_20_0,2023-11-01T16:46:46.215Z,,0,1,,2550,response,ISIC_2524005.JPG,2,ISIC_5307086.JPG,ISIC_5307086.JPG,false,0,keypress(z),500,183988,183988,181438,181426.00000000003,181454,184019,8,400,21,,ISIC_2524005.JPG
break,html.Screen,4_20_1,2023-11-01T16:46:46.216Z,,0,,,NaN,,,,,,false,,,,183988,183988,,183988,,184019,8,400,,,
break_continue,html.Screen,4_20_2,2023-11-01T16:46:46.216Z,,0,,,NaN,,,,,,false,,,,183989,183989,,183988,,184019,8,400,,,
sequence,flow.Sequence,4_20,2023-11-01T16:46:46.216Z,,0,,,2535,completion,,,,,false,,,,183989,183989,181438,181426.00000000003,181454,184019,8,400,,,
trial,html.Screen,4_21_0,2023-11-01T16:46:49.442Z,,0,1,,3209.000000000029,response,ISIC_0057692.JPG,12,ISIC_0033524.JPG,ISIC_0033524.JPG,false,0,keypress(z),500,187214,187212.00000000003,184003,183989,184019,187250,8,400,22,,ISIC_0057692.JPG
break,html.Screen,4_21_1,2023-11-01T16:46:49.442Z,,0,,,NaN,,,,,,false,,,,187215,187215,,187215,,187250,8,400,,,
break_continue,html.Screen,4_21_2,2023-11-01T16:46:49.443Z,,0,,,NaN,,,,,,false,,,,187215,187215,,187215,,187250,8,400,,,
sequence,flow.Sequence,4_21,2023-11-01T16:46:49.443Z,,0,,,3196,completion,,,,,false,,,,187215,187215,184003,183989,184019,187250,8,400,,,
trial,html.Screen,4_22_0,2023-11-01T16:46:51.983Z,,0,1,,2521,response,ISIC_0059341.JPG,0,ISIC_5010212.JPG,ISIC_5010212.JPG,false,0,keypress(z),500,189756,189755,187234,187216,187250,189782,8,400,23,,ISIC_0059341.JPG
break,html.Screen,4_22_1,2023-11-01T16:46:51.984Z,,0,,,NaN,,,,,,false,,,,189756,189756,,189756,,189782,8,400,,,
break_continue,html.Screen,4_22_2,2023-11-01T16:46:51.984Z,,0,,,NaN,,,,,,false,,,,189757,189757,,189756,,189782,8,400,,,
sequence,flow.Sequence,4_22,2023-11-01T16:46:51.984Z,,0,,,2507,completion,,,,,false,,,,189757,189757,187234,187216,187250,189782,8,400,,,
trial,html.Screen,4_23_0,2023-11-01T16:46:54.527Z,,0,1,,2534,response,ISIC_0072991.JPG,3,ISIC_9291926.JPG,ISIC_9291926.JPG,false,0,keypress(z),500,192300,192300,189766,189757,189782,192330,8,400,24,,ISIC_0072991.JPG
break,html.Screen,4_23_1,2023-11-01T16:46:54.528Z,,0,,,NaN,,,,,,false,,,,192300,192300,,192300,,192330,8,400,,,
break_continue,html.Screen,4_23_2,2023-11-01T16:46:54.528Z,,0,,,NaN,,,,,,false,,,,192301.00000000003,192301.00000000003,,192301.00000000003,,192330,8,400,,,
sequence,flow.Sequence,4_23,2023-11-01T16:46:54.528Z,,0,,,2519.000000000029,completion,,,,,false,,,,192301.00000000003,192301.00000000003,189766,189757,189782,192330,8,400,,,
trial,html.Screen,4_24_0,2023-11-01T16:46:57.081Z,,0,1,,2538,response,ISIC_7161069.JPG,13,ISIC_0031425.JPG,ISIC_0031425.JPG,false,0,keypress(z),500,194853,194853,192315,192301.00000000003,192330,194880,8,400,25,,ISIC_7161069.JPG
break,html.Screen,4_24_1,2023-11-01T16:46:57.081Z,,0,,,NaN,,,,,,false,,,,194854,194854,,194854,,194880,8,400,,,
break_continue,html.Screen,4_24_2,2023-11-01T16:46:57.082Z,,0,,,NaN,,,,,,false,,,,194855.00000000003,194854,,194854,,194880,8,400,,,
sequence,flow.Sequence,4_24,2023-11-01T16:46:57.082Z,,0,,,2524,completion,,,,,false,,,,194855.00000000003,194854,192315,192301.00000000003,192330,194880,8,400,,,
trial,html.Screen,4_25_0,2023-11-01T16:46:59.745Z,,0,1,,2656,response,ISIC_3445468.JPG,3,ISIC_0010527.JPG,ISIC_3445468.JPG,false,1,keypress(m),500,197518,197518,194862,194855.00000000003,194880,197544,8,400,26,,ISIC_0010527.JPG
break,html.Screen,4_25_1,2023-11-01T16:46:59.746Z,,0,,,NaN,,,,,,false,,,,197519,197518,,197518,,197544,8,400,,,
break_continue,html.Screen,4_25_2,2023-11-01T16:46:59.746Z,,0,,,NaN,,,,,,false,,,,197519,197519,,197519,,197544,8,400,,,
sequence,flow.Sequence,4_25,2023-11-01T16:46:59.746Z,,0,,,2639,completion,,,,,false,,,,197519,197519,194862,194855.00000000003,194880,197544,8,400,,,
trial,html.Screen,4_26_0,2023-11-01T16:47:02.252Z,,0,1,,2497,response,ISIC_0011987.JPG,16,ISIC_0014325.JPG,ISIC_0014325.JPG,false,0,keypress(z),500,200025,200025,197528,197519,197544,200059,8,400,27,,ISIC_0011987.JPG
break,html.Screen,4_26_1,2023-11-01T16:47:02.252Z,,0,,,NaN,,,,,,false,,,,200025,200025,,200025,,200059,8,400,,,
break_continue,html.Screen,4_26_2,2023-11-01T16:47:02.253Z,,0,,,NaN,,,,,,false,,,,200026,200026,,200026,,200059,8,400,,,
sequence,flow.Sequence,4_26,2023-11-01T16:47:02.253Z,,0,,,2482,completion,,,,,false,,,,200026,200026,197528,197519,197544,200059,8,400,,,
trial,html.Screen,4_27_0,2023-11-01T16:47:04.713Z,,0,1,,2443.000000000029,response,ISIC_0027091.JPG,3,ISIC_1768733.JPG,ISIC_1768733.JPG,false,0,keypress(z),500,202487,202486.00000000003,200043,200026,200059,202507,8,400,28,,ISIC_0027091.JPG
break,html.Screen,4_27_1,2023-11-01T16:47:04.714Z,,0,,,NaN,,,,,,false,,,,202487,202487,,202487,,202507,8,400,,,
break_continue,html.Screen,4_27_2,2023-11-01T16:47:04.714Z,,0,,,NaN,,,,,,false,,,,202488,202487,,202487,,202507,8,400,,,
sequence,flow.Sequence,4_27,2023-11-01T16:47:04.715Z,,0,,,2428,completion,,,,,false,,,,202488,202487,200043,200026,200059,202507,8,400,,,
trial,html.Screen,4_28_0,2023-11-01T16:47:07.452Z,,0,1,,2735,response,ISIC_4620425.JPG,4,ISIC_5092834.JPG,ISIC_4620425.JPG,false,1,keypress(m),500,205225,205225,202490,202488,202507,205256,8,400,29,,ISIC_5092834.JPG
break,html.Screen,4_28_1,2023-11-01T16:47:07.453Z,,0,,,NaN,,,,,,false,,,,205226,205226,,205225,,205256,8,400,,,
break_continue,html.Screen,4_28_2,2023-11-01T16:47:07.453Z,,0,,,NaN,,,,,,false,,,,205226,205226,,205226,,205256,8,400,,,
sequence,flow.Sequence,4_28,2023-11-01T16:47:07.453Z,,0,,,2719,completion,,,,,false,,,,205226,205226,202490,202488,202507,205256,8,400,,,
trial,html.Screen,4_29_0,2023-11-01T16:47:09.933Z,,0,1,,2467.000000000029,response,ISIC_0029651.JPG,16,ISIC_0025653.JPG,ISIC_0025653.JPG,false,0,keypress(z),500,207707,207706.00000000003,205239,205227,205256,207737,8,400,30,,ISIC_0029651.JPG
break,html.Screen,4_29_1,2023-11-01T16:47:09.934Z,,0,,,NaN,,,,,,false,,,,207707,207707,,207707,,207737,8,400,,,
break_continue,html.Screen,4_29_2,2023-11-01T16:47:09.934Z,,0,,,NaN,,,,,,false,,,,207707,207707,,207707,,207737,8,400,,,
sequence,flow.Sequence,4_29,2023-11-01T16:47:09.934Z,,0,,,2451,completion,,,,,false,,,,207708,207707,205239,205226,205256,207737,8,400,,,
trial,html.Screen,4_30_0,2023-11-01T16:47:12.433Z,,0,1,,2485.000000000029,response,ISIC_2266011.JPG,9,ISIC_9312264.JPG,ISIC_9312264.JPG,false,0,keypress(z),500,210206.00000000003,210206.00000000003,207721,207708,207737,210235,8,400,31,,ISIC_2266011.JPG
break,html.Screen,4_30_1,2023-11-01T16:47:12.433Z,,0,,,NaN,,,,,,false,,,,210207,210207,,210206.00000000003,,210235,8,400,,,
break_continue,html.Screen,4_30_2,2023-11-01T16:47:12.433Z,,0,,,NaN,,,,,,false,,,,210207,210207,,210207,,210235,8,400,,,
sequence,flow.Sequence,4_30,2023-11-01T16:47:12.434Z,,0,,,2470,completion,,,,,false,,,,210207,210207,207721,207708,207737,210235,8,400,,,
trial,html.Screen,4_31_0,2023-11-01T16:47:15.176Z,,0,1,,2731.000000000029,response,ISIC_7747712.JPG,9,ISIC_2513018.JPG,ISIC_7747712.JPG,false,1,keypress(m),500,212950.00000000003,212950.00000000003,210219,210207,210235,212984,8,400,32,,ISIC_2513018.JPG
break,html.Screen,4_31_1,2023-11-01T16:47:15.177Z,,0,,,NaN,,,,,,false,,,,212951,212951,,212950.00000000003,,212984,8,400,,,
break_continue,html.Screen,4_31_2,2023-11-01T16:47:15.177Z,,0,,,NaN,,,,,,false,,,,212951,212951,,212951,,212984,8,400,,,
sequence,flow.Sequence,4_31,2023-11-01T16:47:15.177Z,,0,,,2716,completion,,,,,false,,,,212951,212951,210219,210207,210235,212984,8,400,,,
trial,html.Screen,4_32_0,2023-11-01T16:47:17.642Z,,0,1,,2448,response,ISIC_0027087.JPG,4,ISIC_0000058.JPG,ISIC_0000058.JPG,false,0,keypress(z),500,215416,215416,212968,212951,212984,215449,8,400,33,,ISIC_0027087.JPG
break,html.Screen,4_32_1,2023-11-01T16:47:17.643Z,,0,,,NaN,,,,,,false,,,,215417,215416,,215416,,215449,8,400,,,
break_continue,html.Screen,4_32_2,2023-11-01T16:47:17.643Z,,0,,,NaN,,,,,,false,,,,215417,215417,,215417,,215449,8,400,,,
sequence,flow.Sequence,4_32,2023-11-01T16:47:17.643Z,,0,,,2433,completion,,,,,false,,,,215417,215417,212968,212951,212984,215449,8,400,,,
trial,html.Screen,4_33_0,2023-11-01T16:47:20.239Z,,0,1,,2580,response,ISIC_8559515.JPG,1,ISIC_0061475.JPG,ISIC_0061475.JPG,false,0,keypress(z),500,218013,218013,215433,215417,215449,218030,8,400,34,,ISIC_8559515.JPG
break,html.Screen,4_33_1,2023-11-01T16:47:20.240Z,,0,,,NaN,,,,,,false,,,,218014,218014,,218013,,218030,8,400,,,
break_continue,html.Screen,4_33_2,2023-11-01T16:47:20.240Z,,0,,,NaN,,,,,,false,,,,218014,218014,,218014,,218030,8,400,,,
sequence,flow.Sequence,4_33,2023-11-01T16:47:20.241Z,,0,,,2565,completion,,,,,false,,,,218014,218014,215433,215417,215449,218030,8,400,,,
trial,html.Screen,4_34_0,2023-11-01T16:47:22.818Z,,0,1,,2576,response,ISIC_0000520.JPG,5,ISIC_8773478.JPG,ISIC_0000520.JPG,false,1,keypress(m),500,220592,220592,218016,218015.00000000003,218030,220629,8,400,35,,ISIC_8773478.JPG
break,html.Screen,4_34_1,2023-11-01T16:47:22.819Z,,0,,,NaN,,,,,,false,,,,220593.00000000003,220592,,220592,,220629,8,400,,,
break_continue,html.Screen,4_34_2,2023-11-01T16:47:22.819Z,,0,,,NaN,,,,,,false,,,,220593.00000000003,220593.00000000003,,220593.00000000003,,220629,8,400,,,
sequence,flow.Sequence,4_34,2023-11-01T16:47:22.819Z,,0,,,2563.000000000029,completion,,,,,false,,,,220593.00000000003,220593.00000000003,218016,218015.00000000003,218030,220629,8,400,,,
trial,html.Screen,4_35_0,2023-11-01T16:47:25.431Z,,0,1,,2591,response,ISIC_0028211.JPG,14,ISIC_0072576.JPG,ISIC_0028211.JPG,false,1,keypress(m),500,223205,223203,220612,220593.00000000003,220629,223478,8,400,36,,ISIC_0072576.JPG
break,html.Screen,4_35_1,2023-11-01T16:47:25.431Z,,0,,,NaN,,,,,,false,,,,223205,223205,,223205,,223478,8,400,,,
break_continue,html.Screen,4_35_2,2023-11-01T16:47:25.431Z,,0,,,NaN,,,,,,false,,,,223205,223205,,223205,,223478,8,400,,,
sequence,flow.Sequence,4_35,2023-11-01T16:47:25.431Z,,0,,,2576,completion,,,,,false,,,,223205,223205,220612,220593.00000000003,220629,223478,8,400,,,
trial,html.Screen,4_36_0,2023-11-01T16:47:27.965Z,,0,1,,2264,response,ISIC_0027666.JPG,9,ISIC_0027993.JPG,ISIC_0027993.JPG,false,0,keypress(z),500,225739,225739,223475,223205,223478,225758,8,400,37,,ISIC_0027666.JPG
break,html.Screen,4_36_1,2023-11-01T16:47:27.966Z,,0,,,NaN,,,,,,false,,,,225740,225740,,225740,,225758,8,400,,,
break_continue,html.Screen,4_36_2,2023-11-01T16:47:27.966Z,,0,,,NaN,,,,,,false,,,,225740,225740,,225740,,225758,8,400,,,
sequence,flow.Sequence,4_36,2023-11-01T16:47:27.966Z,,0,,,2262,completion,,,,,false,,,,225740,225740,223475,223205,223478,225758,8,400,,,
trial,html.Screen,4_37_0,2023-11-01T16:47:30.637Z,,0,1,,2669,response,ISIC_0563516.JPG,3,ISIC_6639094.JPG,ISIC_0563516.JPG,false,1,keypress(m),500,228411,228411,225742,225740,225758,228440,8,400,38,,ISIC_6639094.JPG
break,html.Screen,4_37_1,2023-11-01T16:47:30.637Z,,0,,,NaN,,,,,,false,,,,228412,228412,,228411,,228440,8,400,,,
break_continue,html.Screen,4_37_2,2023-11-01T16:47:30.638Z,,0,,,NaN,,,,,,false,,,,228412,228412,,228412,,228440,8,400,,,
sequence,flow.Sequence,4_37,2023-11-01T16:47:30.638Z,,0,,,2654,completion,,,,,false,,,,228412,228412,225742,225740,225758,228440,8,400,,,
trial,html.Screen,4_38_0,2023-11-01T16:47:33.122Z,,0,1,,2472.000000000029,response,ISIC_0032687.JPG,0,ISIC_0711360.JPG,ISIC_0711360.JPG,false,0,keypress(z),500,230897,230896.00000000003,228424,228412,228440,230921,8,400,39,,ISIC_0032687.JPG
break,html.Screen,4_38_1,2023-11-01T16:47:33.123Z,,0,,,NaN,,,,,,false,,,,230897,230897,,230897,,230921,8,400,,,
break_continue,html.Screen,4_38_2,2023-11-01T16:47:33.123Z,,0,,,NaN,,,,,,false,,,,230897,230897,,230897,,230921,8,400,,,
sequence,flow.Sequence,4_38,2023-11-01T16:47:33.123Z,,0,,,2457,completion,,,,,false,,,,230898,230897,228424,228412,228440,230921,8,400,,,
trial,html.Screen,4_39_0,2023-11-01T16:47:35.576Z,,0,1,,2445,response,ISIC_2466892.JPG,10,ISIC_0523125.JPG,ISIC_0523125.JPG,false,0,keypress(z),500,233350,233350,230905,230898,230921,233370,8,400,40,,ISIC_2466892.JPG
break,html.Screen,4_39_1,2023-11-01T16:47:35.576Z,,0,,,NaN,,,,,,false,,,,233351,233351,,233351,,233370,8,400,,,
break_continue,html.Screen,4_39_2,2023-11-01T16:47:35.577Z,,0,,,NaN,,,,,,false,,,,233351,233351,,233351,,233370,8,400,,,
sequence,flow.Sequence,4_39,2023-11-01T16:47:35.577Z,,0,,,2430,completion,,,,,false,,,,233351,233351,230905,230898,230921,233370,8,400,,,
trial,html.Screen,4_40_0,2023-11-01T16:47:38.399Z,,0,1,,2821,response,ISIC_6916924.JPG,1,ISIC_9382494.JPG,ISIC_6916924.JPG,false,1,keypress(m),500,236174,236174,233353,233352,233370,236201,8,400,41,,ISIC_9382494.JPG
break,html.Screen,4_40_1,2023-11-01T16:47:38.400Z,,0,,,NaN,,,,,,false,,,,236175,236174,,236174,,236201,8,400,,,
break_continue,html.Screen,4_40_2,2023-11-01T16:47:38.400Z,,0,,,NaN,,,,,,false,,,,236175,236175,,236175,,236201,8,400,,,
sequence,flow.Sequence,4_40,2023-11-01T16:47:38.400Z,,0,,,2805,completion,,,,,false,,,,236175,236175,233353,233352,233370,236201,8,400,,,
trial,html.Screen,4_41_0,2023-11-01T16:47:40.863Z,,0,1,,2453,response,ISIC_4345000.JPG,2,ISIC_0027683.JPG,ISIC_4345000.JPG,false,1,keypress(m),500,238638,238638,236185,236175,236201,238667,8,400,42,,ISIC_0027683.JPG
break,html.Screen,4_41_1,2023-11-01T16:47:40.864Z,,0,,,NaN,,,,,,false,,,,238639,238638,,238638,,238667,8,400,,,
break_continue,html.Screen,4_41_2,2023-11-01T16:47:40.864Z,,0,,,NaN,,,,,,false,,,,238639,238639,,238639,,238667,8,400,,,
sequence,flow.Sequence,4_41,2023-11-01T16:47:40.864Z,,0,,,2438,completion,,,,,false,,,,238639,238639,236185,236175,236201,238667,8,400,,,
trial,html.Screen,4_42_0,2023-11-01T16:47:43.375Z,,0,1,,2500,response,ISIC_7948290.JPG,15,ISIC_0443835.JPG,ISIC_0443835.JPG,false,0,keypress(z),500,241150,241150,238650,238639,238667,241181,8,400,43,,ISIC_7948290.JPG
break,html.Screen,4_42_1,2023-11-01T16:47:43.376Z,,0,,,NaN,,,,,,false,,,,241151,241150,,241150,,241181,8,400,,,
break_continue,html.Screen,4_42_2,2023-11-01T16:47:43.376Z,,0,,,NaN,,,,,,false,,,,241151,241151,,241151,,241181,8,400,,,
sequence,flow.Sequence,4_42,2023-11-01T16:47:43.376Z,,0,,,2484,completion,,,,,false,,,,241151,241151,238650,238639,238667,241181,8,400,,,
trial,html.Screen,4_43_0,2023-11-01T16:47:45.971Z,,0,1,,2580,response,ISIC_1520897.JPG,0,ISIC_9555291.JPG,ISIC_1520897.JPG,false,1,keypress(m),500,243746,243746,241166,241151,241181,243779,8,400,44,,ISIC_9555291.JPG
break,html.Screen,4_43_1,2023-11-01T16:47:45.972Z,,0,,,NaN,,,,,,false,,,,243747,243747,,243746,,243779,8,400,,,
break_continue,html.Screen,4_43_2,2023-11-01T16:47:45.972Z,,0,,,NaN,,,,,,false,,,,243747,243747,,243747,,243779,8,400,,,
sequence,flow.Sequence,4_43,2023-11-01T16:47:45.972Z,,0,,,2566,completion,,,,,false,,,,243747,243747,241166,241151,241181,243779,8,400,,,
trial,html.Screen,4_44_0,2023-11-01T16:47:48.500Z,,0,1,,2512,response,ISIC_7748144.JPG,2,ISIC_0013777.JPG,ISIC_0013777.JPG,false,0,keypress(z),500,246275,246275,243763,243747,243779,246295,8,400,45,,ISIC_7748144.JPG
break,html.Screen,4_44_1,2023-11-01T16:47:48.501Z,,0,,,NaN,,,,,,false,,,,246276,246276,,246275,,246295,8,400,,,
break_continue,html.Screen,4_44_2,2023-11-01T16:47:48.501Z,,0,,,NaN,,,,,,false,,,,246276,246276,,246276,,246295,8,400,,,
sequence,flow.Sequence,4_44,2023-11-01T16:47:48.501Z,,0,,,2497,completion,,,,,false,,,,246276,246276,243763,243747,243779,246295,8,400,,,
trial,html.Screen,4_45_0,2023-11-01T16:47:51.294Z,,0,1,,2791.000000000029,response,ISIC_0027122.JPG,3,ISIC_1988058.JPG,ISIC_1988058.JPG,false,0,keypress(z),500,249070,249069.00000000003,246278,246276,246295,249094,8,400,46,,ISIC_0027122.JPG
break,html.Screen,4_45_1,2023-11-01T16:47:51.296Z,,0,,,NaN,,,,,,false,,,,249072,249072,,249071,,249094,8,400,,,
break_continue,html.Screen,4_45_2,2023-11-01T16:47:51.297Z,,0,,,NaN,,,,,,false,,,,249072,249072,,249072,,249094,8,400,,,
sequence,flow.Sequence,4_45,2023-11-01T16:47:51.297Z,,0,,,2777,completion,,,,,false,,,,249072,249072,246278,246276,246295,249094,8,400,,,
trial,html.Screen,4_46_0,2023-11-01T16:47:53.785Z,,0,1,,2483,response,ISIC_8130596.JPG,5,ISIC_5233226.JPG,ISIC_5233226.JPG,false,0,keypress(z),500,251561,251559,249076,249072,249094,251592,8,400,47,,ISIC_8130596.JPG
break,html.Screen,4_46_1,2023-11-01T16:47:53.786Z,,0,,,NaN,,,,,,false,,,,251561,251561,,251561,,251592,8,400,,,
break_continue,html.Screen,4_46_2,2023-11-01T16:47:53.786Z,,0,,,NaN,,,,,,false,,,,251562,251562,,251562,,251592,8,400,,,
sequence,flow.Sequence,4_46,2023-11-01T16:47:53.786Z,,0,,,2468,completion,,,,,false,,,,251562,251562,249076,249072,249094,251592,8,400,,,
trial,html.Screen,4_47_0,2023-11-01T16:47:56.264Z,,0,1,,2465.000000000029,response,ISIC_0013558.JPG,5,ISIC_0046422.JPG,ISIC_0013558.JPG,false,1,keypress(m),500,254039.00000000003,254039.00000000003,251574,251562,251592,254073,8,400,48,,ISIC_0046422.JPG
break,html.Screen,4_47_1,2023-11-01T16:47:56.264Z,,0,,,NaN,,,,,,false,,,,254040,254040,,254039.00000000003,,254073,8,400,,,
break_continue,html.Screen,4_47_2,2023-11-01T16:47:56.264Z,,0,,,NaN,,,,,,false,,,,254040,254040,,254040,,254073,8,400,,,
sequence,flow.Sequence,4_47,2023-11-01T16:47:56.265Z,,0,,,2448,completion,,,,,false,,,,254040,254040,251574,251562,251592,254073,8,400,,,
trial,html.Screen,4_48_0,2023-11-01T16:47:58.952Z,,0,1,,2671,response,ISIC_8127394.JPG,1,ISIC_2532039.JPG,ISIC_8127394.JPG,false,1,keypress(m),500,256728,256728,254057,254040,254073,256754,8,400,49,,ISIC_2532039.JPG
break,html.Screen,4_48_1,2023-11-01T16:47:58.953Z,,0,,,NaN,,,,,,false,,,,256728.99999999997,256728,,256728,,256754,8,400,,,
break_continue,html.Screen,4_48_2,2023-11-01T16:47:58.953Z,,0,,,NaN,,,,,,false,,,,256728.99999999997,256728.99999999997,,256728.99999999997,,256754,8,400,,,
sequence,flow.Sequence,4_48,2023-11-01T16:47:58.953Z,,0,,,2655.999999999971,completion,,,,,false,,,,256728.99999999997,256728.99999999997,254057,254040,254073,256754,8,400,,,
trial,html.Screen,4_49_0,2023-11-01T16:48:02.251Z,,0,1,,3288,response,ISIC_0013491.JPG,15,ISIC_0025231.JPG,ISIC_0013491.JPG,false,1,keypress(m),500,260027,260027,256739,256728.99999999997,256754,260053,8,400,50,,ISIC_0025231.JPG
break,html.Screen,4_49_1,2023-11-01T16:48:12.254Z,,0,,,9993,timeout,,,,,false,,,,270030.00000000006,270030,260036,260027,260053,270046,8,400,,,
break_continue,html.Screen,4_49_2,2023-11-02T02:57:10.532Z,,0,,,270737,response,,,,,false,continue,keypress(Space),,540892,540767,270030,270030.00000000006,270046,540934,8,400,,,
sequence,flow.Sequence,4_49,2023-11-02T02:57:10.534Z,,0,,,284013,completion,,,,,false,,,,540894,540767,256739,256728.99999999997,256754,540934,8,400,,,
trial,html.Screen,4_50_0,2023-11-02T02:57:14.581Z,,0,2,,4026,response,ISIC_0031397.JPG,7,ISIC_0000054.JPG,ISIC_0031397.JPG,false,1,keypress(m),500,544942,544942,540916,540895,540934,544963,8,400,1,,ISIC_0000054.JPG
break,html.Screen,4_50_1,2023-11-02T02:57:14.582Z,,0,,,NaN,,,,,,false,,,,544943,544943,,544942,,544963,8,400,,,
break_continue,html.Screen,4_50_2,2023-11-02T02:57:14.583Z,,0,,,NaN,,,,,,false,,,,544944,544944,,544943,,544963,8,400,,,
sequence,flow.Sequence,4_50,2023-11-02T02:57:14.583Z,,0,,,4010,completion,,,,,false,,,,544944,544944,540916,540894,540934,544963,8,400,,,
trial,html.Screen,4_51_0,2023-11-02T02:57:17.990Z,,0,2,,3405,response,ISIC_0031170.JPG,10,ISIC_5482426.JPG,ISIC_0031170.JPG,false,1,keypress(m),500,548352,548352,544947,544944,544963,548377,8,400,2,,ISIC_5482426.JPG
break,html.Screen,4_51_1,2023-11-02T02:57:17.991Z,,0,,,NaN,,,,,,false,,,,548353.0000000001,548352,,548352,,548377,8,400,,,
break_continue,html.Screen,4_51_2,2023-11-02T02:57:17.991Z,,0,,,NaN,,,,,,false,,,,548353.0000000001,548353.0000000001,,548353.0000000001,,548377,8,400,,,
sequence,flow.Sequence,4_51,2023-11-02T02:57:17.992Z,,0,,,3390.0000000001164,completion,,,,,false,,,,548353.0000000001,548353.0000000001,544947,544944,544963,548377,8,400,,,
trial,html.Screen,4_52_0,2023-11-02T02:57:20.696Z,,0,2,,2697,response,ISIC_0032400.JPG,0,ISIC_0010364.JPG,ISIC_0032400.JPG,false,1,keypress(m),500,551058,551058,548361,548354,548377,551092,8,400,3,,ISIC_0010364.JPG
break,html.Screen,4_52_1,2023-11-02T02:57:20.697Z,,0,,,NaN,,,,,,false,,,,551059,551058,,551058,,551092,8,400,,,
break_continue,html.Screen,4_52_2,2023-11-02T02:57:20.697Z,,0,,,NaN,,,,,,false,,,,551059,551059,,551059,,551092,8,400,,,
sequence,flow.Sequence,4_52,2023-11-02T02:57:20.697Z,,0,,,2682,completion,,,,,false,,,,551059,551059,548361,548354,548377,551092,8,400,,,
trial,html.Screen,4_53_0,2023-11-02T02:57:23.514Z,,0,2,,2799,response,ISIC_0004455.JPG,11,ISIC_0026356.JPG,ISIC_0004455.JPG,false,1,keypress(m),500,553876,553876,551077,551060.0000000001,551092,553909,8,400,4,,ISIC_0026356.JPG
break,html.Screen,4_53_1,2023-11-02T02:57:23.515Z,,0,,,NaN,,,,,,false,,,,553877.0000000001,553877.0000000001,,553877.0000000001,,553909,8,400,,,
break_continue,html.Screen,4_53_2,2023-11-02T02:57:23.515Z,,0,,,NaN,,,,,,false,,,,553877.0000000001,553877.0000000001,,553877.0000000001,,553909,8,400,,,
sequence,flow.Sequence,4_53,2023-11-02T02:57:23.515Z,,0,,,2785.0000000001164,completion,,,,,false,,,,553878,553877.0000000001,551077,551059,551092,553909,8,400,,,
trial,html.Screen,4_54_0,2023-11-02T02:57:26.432Z,,0,2,,2904,response,ISIC_0012081.JPG,1,ISIC_0000077.JPG,ISIC_0012081.JPG,false,1,keypress(m),500,556795,556795,553891,553878,553909,556822,8,400,5,,ISIC_0000077.JPG
break,html.Screen,4_54_1,2023-11-02T02:57:26.433Z,,0,,,NaN,,,,,,false,,,,556796,556796,,556795,,556822,8,400,,,
break_continue,html.Screen,4_54_2,2023-11-02T02:57:26.433Z,,0,,,NaN,,,,,,false,,,,556796,556796,,556796,,556822,8,400,,,
sequence,flow.Sequence,4_54,2023-11-02T02:57:26.434Z,,0,,,2887,completion,,,,,false,,,,556796,556796,553891,553878,553909,556822,8,400,,,
trial,html.Screen,4_55_0,2023-11-02T02:57:31.061Z,,0,2,,4618,response,ISIC_0030951.JPG,1,ISIC_0025061.JPG,ISIC_0030951.JPG,false,1,keypress(m),500,561424,561424,556806,556797,556822,561452,8,400,6,,ISIC_0025061.JPG
break,html.Screen,4_55_1,2023-11-02T02:57:31.062Z,,0,,,NaN,,,,,,false,,,,561425.0000000001,561425.0000000001,,561425.0000000001,,561452,8,400,,,
break_continue,html.Screen,4_55_2,2023-11-02T02:57:31.062Z,,0,,,NaN,,,,,,false,,,,561425.0000000001,561425.0000000001,,561425.0000000001,,561452,8,400,,,
sequence,flow.Sequence,4_55,2023-11-02T02:57:31.063Z,,0,,,4603.000000000116,completion,,,,,false,,,,561426,561425.0000000001,556806,556796,556822,561452,8,400,,,
trial,html.Screen,4_56_0,2023-11-02T02:57:33.813Z,,0,2,,2740,response,ISIC_0012722.JPG,9,ISIC_2513018.JPG,ISIC_2513018.JPG,false,0,keypress(z),500,564176,564176,561436,561426,561452,564200,8,400,7,,ISIC_0012722.JPG
break,html.Screen,4_56_1,2023-11-02T02:57:33.814Z,,0,,,NaN,,,,,,false,,,,564177,564177,,564176,,564200,8,400,,,
break_continue,html.Screen,4_56_2,2023-11-02T02:57:33.814Z,,0,,,NaN,,,,,,false,,,,564177,564177,,564177,,564200,8,400,,,
sequence,flow.Sequence,4_56,2023-11-02T02:57:33.814Z,,0,,,2725,completion,,,,,false,,,,564178,564177,561436,561426,561452,564200,8,400,,,
trial,html.Screen,4_57_0,2023-11-02T02:57:37.992Z,,0,2,,4172,response,ISIC_8869929.JPG,5,ISIC_1154109.JPG,ISIC_1154109.JPG,false,0,keypress(z),500,568356,568356,564184,564178,564200,568382,8,400,8,,ISIC_8869929.JPG
break,html.Screen,4_57_1,2023-11-02T02:57:37.993Z,,0,,,NaN,,,,,,false,,,,568357,568356,,568356,,568382,8,400,,,
break_continue,html.Screen,4_57_2,2023-11-02T02:57:37.993Z,,0,,,NaN,,,,,,false,,,,568357,568357,,568357,,568382,8,400,,,
sequence,flow.Sequence,4_57,2023-11-02T02:57:37.993Z,,0,,,4157,completion,,,,,false,,,,568357,568357,564184,564178,564200,568382,8,400,,,
trial,html.Screen,4_58_0,2023-11-02T02:57:41.306Z,,0,2,,3304,response,ISIC_4069836.JPG,9,ISIC_0030995.JPG,ISIC_4069836.JPG,false,1,keypress(m),500,571670,571669,568365,568357,568382,571696,8,400,9,,ISIC_0030995.JPG
break,html.Screen,4_58_1,2023-11-02T02:57:41.306Z,,0,,,NaN,,,,,,false,,,,571670,571670,,571670,,571696,8,400,,,
break_continue,html.Screen,4_58_2,2023-11-02T02:57:41.306Z,,0,,,NaN,,,,,,false,,,,571670,571670,,571670,,571696,8,400,,,
sequence,flow.Sequence,4_58,2023-11-02T02:57:41.307Z,,0,,,3288,completion,,,,,false,,,,571670,571670,568365,568357,568382,571696,8,400,,,
trial,html.Screen,4_59_0,2023-11-02T02:57:45.132Z,,0,2,,3816,response,ISIC_0056501.JPG,8,ISIC_5772144.JPG,ISIC_0056501.JPG,false,1,keypress(m),500,575496,575496,571680,571671,571696,575527,8,400,10,,ISIC_5772144.JPG
break,html.Screen,4_59_1,2023-11-02T02:57:45.133Z,,0,,,NaN,,,,,,false,,,,575497,575497,,575496,,575527,8,400,,,
break_continue,html.Screen,4_59_2,2023-11-02T02:57:45.133Z,,0,,,NaN,,,,,,false,,,,575497,575497,,575497,,575527,8,400,,,
sequence,flow.Sequence,4_59,2023-11-02T02:57:45.133Z,,0,,,3801,completion,,,,,false,,,,575497,575497,571680,571671,571696,575527,8,400,,,
trial,html.Screen,4_60_0,2023-11-02T02:57:48.055Z,,0,2,,2910,response,ISIC_1915890.JPG,4,ISIC_0000429.JPG,ISIC_1915890.JPG,false,1,keypress(m),500,578419,578419,575509,575497,575527,578442,8,400,11,,ISIC_0000429.JPG
break,html.Screen,4_60_1,2023-11-02T02:57:48.055Z,,0,,,NaN,,,,,,false,,,,578420,578420,,578419,,578442,8,400,,,
break_continue,html.Screen,4_60_2,2023-11-02T02:57:48.056Z,,0,,,NaN,,,,,,false,,,,578420,578420,,578420,,578442,8,400,,,
sequence,flow.Sequence,4_60,2023-11-02T02:57:48.056Z,,0,,,2893,completion,,,,,false,,,,578420,578420,575509,575497,575527,578442,8,400,,,
trial,html.Screen,4_61_0,2023-11-02T02:57:51.704Z,,0,2,,3644,response,ISIC_0059170.JPG,2,ISIC_2212473.JPG,ISIC_2212473.JPG,false,0,keypress(z),500,582068,582068,578424,578420,578442,582090,8,400,12,,ISIC_0059170.JPG
break,html.Screen,4_61_1,2023-11-02T02:57:51.704Z,,0,,,NaN,,,,,,false,,,,582069,582069,,582068,,582090,8,400,,,
break_continue,html.Screen,4_61_2,2023-11-02T02:57:51.704Z,,0,,,NaN,,,,,,false,,,,582069,582069,,582069,,582090,8,400,,,
sequence,flow.Sequence,4_61,2023-11-02T02:57:51.705Z,,0,,,3627,completion,,,,,false,,,,582069,582069,578424,578420,578442,582090,8,400,,,
trial,html.Screen,4_62_0,2023-11-02T02:57:55.594Z,,0,2,,3886,response,ISIC_0010834.JPG,2,ISIC_5308066.JPG,ISIC_5308066.JPG,false,0,keypress(z),500,585958,585958,582072,582070,582090,585987,8,400,13,,ISIC_0010834.JPG
break,html.Screen,4_62_1,2023-11-02T02:57:55.594Z,,0,,,NaN,,,,,,false,,,,585959.0000000001,585959.0000000001,,585958,,585987,8,400,,,
break_continue,html.Screen,4_62_2,2023-11-02T02:57:55.594Z,,0,,,NaN,,,,,,false,,,,585959.0000000001,585959.0000000001,,585959.0000000001,,585987,8,400,,,
sequence,flow.Sequence,4_62,2023-11-02T02:57:55.594Z,,0,,,3869.0000000001164,completion,,,,,false,,,,585959.0000000001,585959.0000000001,582072,582069,582090,585987,8,400,,,
trial,html.Screen,4_63_0,2023-11-02T02:58:05.944Z,,0,2,,10339,response,ISIC_0028520.JPG,8,ISIC_0011227.JPG,ISIC_0028520.JPG,false,1,keypress(m),500,596309,596309,585970,585959.0000000001,585987,596329,8,400,14,,ISIC_0011227.JPG
break,html.Screen,4_63_1,2023-11-02T02:58:05.944Z,,0,,,NaN,,,,,,false,,,,596310.0000000001,596310.0000000001,,596310.0000000001,,596329,8,400,,,
break_continue,html.Screen,4_63_2,2023-11-02T02:58:05.945Z,,0,,,NaN,,,,,,false,,,,596310.0000000001,596310.0000000001,,596310.0000000001,,596329,8,400,,,
sequence,flow.Sequence,4_63,2023-11-02T02:58:05.945Z,,0,,,10323.000000000116,completion,,,,,false,,,,596310.0000000001,596310.0000000001,585970,585959.0000000001,585987,596329,8,400,,,
trial,html.Screen,4_64_0,2023-11-02T02:58:10.615Z,,0,2,,4668,response,ISIC_0239178.JPG,16,ISIC_0026247.JPG,ISIC_0026247.JPG,false,0,keypress(z),500,600980,600980,596312,596310.0000000001,596329,601010,8,400,15,,ISIC_0239178.JPG
break,html.Screen,4_64_1,2023-11-02T02:58:10.615Z,,0,,,NaN,,,,,,false,,,,600981,600981,,600980,,601010,8,400,,,
break_continue,html.Screen,4_64_2,2023-11-02T02:58:10.615Z,,0,,,NaN,,,,,,false,,,,600981,600981,,600981,,601010,8,400,,,
sequence,flow.Sequence,4_64,2023-11-02T02:58:10.616Z,,0,,,4652,completion,,,,,false,,,,600981,600981,596312,596310.0000000001,596329,601010,8,400,,,
trial,html.Screen,4_65_0,2023-11-02T02:58:13.850Z,,0,2,,3223,response,ISIC_0024423.JPG,14,ISIC_9203914.JPG,ISIC_0024423.JPG,false,1,keypress(m),500,604216,604216,600993,600981,601010,604241,8,400,16,,ISIC_9203914.JPG
break,html.Screen,4_65_1,2023-11-02T02:58:13.851Z,,0,,,NaN,,,,,,false,,,,604217,604216,,604216,,604241,8,400,,,
break_continue,html.Screen,4_65_2,2023-11-02T02:58:13.851Z,,0,,,NaN,,,,,,false,,,,604217,604217,,604217,,604241,8,400,,,
sequence,flow.Sequence,4_65,2023-11-02T02:58:13.851Z,,0,,,3207,completion,,,,,false,,,,604217,604217,600993,600981,601010,604241,8,400,,,
trial,html.Screen,4_66_0,2023-11-02T02:58:16.642Z,,0,2,,2784,response,ISIC_0011329.JPG,0,ISIC_6001716.JPG,ISIC_0011329.JPG,false,1,keypress(m),500,607008,607008,604224,604217,604241,607039,8,400,17,,ISIC_6001716.JPG
break,html.Screen,4_66_1,2023-11-02T02:58:16.643Z,,0,,,NaN,,,,,,false,,,,607009,607009,,607009,,607039,8,400,,,
break_continue,html.Screen,4_66_2,2023-11-02T02:58:16.643Z,,0,,,NaN,,,,,,false,,,,607009,607009,,607009,,607039,8,400,,,
sequence,flow.Sequence,4_66,2023-11-02T02:58:16.643Z,,0,,,2768,completion,,,,,false,,,,607009,607009,604224,604217,604241,607039,8,400,,,
trial,html.Screen,4_67_0,2023-11-02T02:58:19.641Z,,0,2,,2984.0000000001164,response,ISIC_1605945.JPG,14,ISIC_0065013.JPG,ISIC_1605945.JPG,false,1,keypress(m),500,610007.0000000001,610007.0000000001,607023,607009,607039,610037,8,400,18,,ISIC_0065013.JPG
break,html.Screen,4_67_1,2023-11-02T02:58:19.642Z,,0,,,NaN,,,,,,false,,,,610008,610008,,610007.0000000001,,610037,8,400,,,
break_continue,html.Screen,4_67_2,2023-11-02T02:58:19.642Z,,0,,,NaN,,,,,,false,,,,610008,610008,,610008,,610037,8,400,,,
sequence,flow.Sequence,4_67,2023-11-02T02:58:19.642Z,,0,,,2969,completion,,,,,false,,,,610009,610008,607023,607009,607039,610037,8,400,,,
trial,html.Screen,4_68_0,2023-11-02T02:58:23.040Z,,0,2,,3385.0000000001164,response,ISIC_0061184.JPG,8,ISIC_0011247.JPG,ISIC_0061184.JPG,false,1,keypress(m),500,613406.0000000001,613406.0000000001,610021,610009,610037,613435,8,400,19,,ISIC_0011247.JPG
break,html.Screen,4_68_1,2023-11-02T02:58:23.041Z,,0,,,NaN,,,,,,false,,,,613407,613407,,613407,,613435,8,400,,,
break_continue,html.Screen,4_68_2,2023-11-02T02:58:23.041Z,,0,,,NaN,,,,,,false,,,,613407,613407,,613407,,613435,8,400,,,
sequence,flow.Sequence,4_68,2023-11-02T02:58:23.041Z,,0,,,3370,completion,,,,,false,,,,613407,613407,610021,610009,610037,613435,8,400,,,
trial,html.Screen,4_69_0,2023-11-02T02:58:26.673Z,,0,2,,3620,response,ISIC_5602724.JPG,8,ISIC_0002693.JPG,ISIC_0002693.JPG,false,0,keypress(z),500,617039,617039,613419,613407,613435,617065,8,400,20,,ISIC_5602724.JPG
break,html.Screen,4_69_1,2023-11-02T02:58:26.673Z,,0,,,NaN,,,,,,false,,,,617040,617040,,617039,,617065,8,400,,,
break_continue,html.Screen,4_69_2,2023-11-02T02:58:26.674Z,,0,,,NaN,,,,,,false,,,,617040,617040,,617040,,617065,8,400,,,
sequence,flow.Sequence,4_69,2023-11-02T02:58:26.674Z,,0,,,3605,completion,,,,,false,,,,617040,617040,613419,613407,613435,617065,8,400,,,
trial,html.Screen,4_70_0,2023-11-02T02:58:29.833Z,,0,2,,3151,response,ISIC_2861793.JPG,2,ISIC_7323761.JPG,ISIC_2861793.JPG,false,1,keypress(m),500,620200,620200,617049,617040,617065,620231,8,400,21,,ISIC_7323761.JPG
break,html.Screen,4_70_1,2023-11-02T02:58:29.834Z,,0,,,NaN,,,,,,false,,,,620201,620200,,620200,,620231,8,400,,,
break_continue,html.Screen,4_70_2,2023-11-02T02:58:29.834Z,,0,,,NaN,,,,,,false,,,,620201,620201,,620201,,620231,8,400,,,
sequence,flow.Sequence,4_70,2023-11-02T02:58:29.834Z,,0,,,3136,completion,,,,,false,,,,620201,620201,617049,617040,617065,620231,8,400,,,
trial,html.Screen,4_71_0,2023-11-02T02:58:33.598Z,,0,2,,3752,response,ISIC_3273370.JPG,8,ISIC_7779155.JPG,ISIC_3273370.JPG,false,1,keypress(m),500,623965,623965,620213,620201,620231,623994,8,400,22,,ISIC_7779155.JPG
break,html.Screen,4_71_1,2023-11-02T02:58:33.599Z,,0,,,NaN,,,,,,false,,,,623966,623966,,623966,,623994,8,400,,,
break_continue,html.Screen,4_71_2,2023-11-02T02:58:33.599Z,,0,,,NaN,,,,,,false,,,,623966,623966,,623966,,623994,8,400,,,
sequence,flow.Sequence,4_71,2023-11-02T02:58:33.599Z,,0,,,3735,completion,,,,,false,,,,623966,623966,620213,620201,620231,623994,8,400,,,
trial,html.Screen,4_72_0,2023-11-02T02:58:36.251Z,,0,2,,2640,response,ISIC_0032476.JPG,10,ISIC_0013572.JPG,ISIC_0032476.JPG,false,1,keypress(m),500,626619,626618,623978,623967,623994,626642,8,400,23,,ISIC_0013572.JPG
break,html.Screen,4_72_1,2023-11-02T02:58:36.252Z,,0,,,NaN,,,,,,false,,,,626619,626619,,626619,,626642,8,400,,,
break_continue,html.Screen,4_72_2,2023-11-02T02:58:36.252Z,,0,,,NaN,,,,,,false,,,,626619,626619,,626619,,626642,8,400,,,
sequence,flow.Sequence,4_72,2023-11-02T02:58:36.252Z,,0,,,2625,completion,,,,,false,,,,626620,626619,623978,623966,623994,626642,8,400,,,
trial,html.Screen,4_73_0,2023-11-02T02:58:39.403Z,,0,2,,3144,response,ISIC_0197584.JPG,0,ISIC_0011703.JPG,ISIC_0011703.JPG,false,0,keypress(z),500,629770,629770,626626,626620,626642,629790,8,400,24,,ISIC_0197584.JPG
break,html.Screen,4_73_1,2023-11-02T02:58:39.403Z,,0,,,NaN,,,,,,false,,,,629770,629770,,629770,,629790,8,400,,,
break_continue,html.Screen,4_73_2,2023-11-02T02:58:39.403Z,,0,,,NaN,,,,,,false,,,,629771,629771,,629770,,629790,8,400,,,
sequence,flow.Sequence,4_73,2023-11-02T02:58:39.404Z,,0,,,3129,completion,,,,,false,,,,629771,629771,626626,626620,626642,629790,8,400,,,
trial,html.Screen,4_74_0,2023-11-02T02:58:42.946Z,,0,2,,3540,response,ISIC_0029982.JPG,13,ISIC_1453671.JPG,ISIC_0029982.JPG,false,1,keypress(m),500,633314,633314,629774,629771,629790,633338,8,400,25,,ISIC_1453671.JPG
break,html.Screen,4_74_1,2023-11-02T02:58:42.947Z,,0,,,NaN,,,,,,false,,,,633314,633314,,633314,,633338,8,400,,,
break_continue,html.Screen,4_74_2,2023-11-02T02:58:42.947Z,,0,,,NaN,,,,,,false,,,,633315,633315,,633315,,633338,8,400,,,
sequence,flow.Sequence,4_74,2023-11-02T02:58:42.947Z,,0,,,3525,completion,,,,,false,,,,633315,633315,629774,629771,629790,633338,8,400,,,
trial,html.Screen,4_75_0,2023-11-02T02:58:46.194Z,,0,2,,3240,response,ISIC_0025897.JPG,2,ISIC_5433087.JPG,ISIC_0025897.JPG,false,1,keypress(m),500,636562,636562,633322,633315,633338,636586,8,400,26,,ISIC_5433087.JPG
break,html.Screen,4_75_1,2023-11-02T02:58:46.195Z,,0,,,NaN,,,,,,false,,,,636562,636562,,636562,,636586,8,400,,,
break_continue,html.Screen,4_75_2,2023-11-02T02:58:46.195Z,,0,,,NaN,,,,,,false,,,,636563,636563,,636563,,636586,8,400,,,
sequence,flow.Sequence,4_75,2023-11-02T02:58:46.195Z,,0,,,3225,completion,,,,,false,,,,636563,636563,633322,633315,633338,636586,8,400,,,
trial,html.Screen,4_76_0,2023-11-02T02:58:49.410Z,,0,2,,3208,response,ISIC_9786863.JPG,2,ISIC_2226940.JPG,ISIC_2226940.JPG,false,0,keypress(z),500,639778,639778,636570,636563,636586,639801,8,400,27,,ISIC_9786863.JPG
break,html.Screen,4_76_1,2023-11-02T02:58:49.411Z,,0,,,NaN,,,,,,false,,,,639778,639778,,639778,,639801,8,400,,,
break_continue,html.Screen,4_76_2,2023-11-02T02:58:49.411Z,,0,,,NaN,,,,,,false,,,,639779,639778,,639778,,639801,8,400,,,
sequence,flow.Sequence,4_76,2023-11-02T02:58:49.411Z,,0,,,3192,completion,,,,,false,,,,639779,639778,636570,636563,636586,639801,8,400,,,
trial,html.Screen,4_77_0,2023-11-02T02:58:52.102Z,,0,2,,2686,response,ISIC_9559922.JPG,11,ISIC_0030470.JPG,ISIC_9559922.JPG,false,1,keypress(m),500,642470,642470,639784,639779,639801,642498,8,400,28,,ISIC_0030470.JPG
break,html.Screen,4_77_1,2023-11-02T02:58:52.102Z,,0,,,NaN,,,,,,false,,,,642470,642470,,642470,,642498,8,400,,,
break_continue,html.Screen,4_77_2,2023-11-02T02:58:52.103Z,,0,,,NaN,,,,,,false,,,,642471,642471,,642470,,642498,8,400,,,
sequence,flow.Sequence,4_77,2023-11-02T02:58:52.103Z,,0,,,2670,completion,,,,,false,,,,642471,642471,639784,639779,639801,642498,8,400,,,
trial,html.Screen,4_78_0,2023-11-02T02:59:01.531Z,,0,2,,9417,response,ISIC_0331389.JPG,12,ISIC_0010379.JPG,ISIC_0331389.JPG,false,1,keypress(m),500,651899,651899,642482,642471,642498,651926,8,400,29,,ISIC_0010379.JPG
break,html.Screen,4_78_1,2023-11-02T02:59:01.531Z,,0,,,NaN,,,,,,false,,,,651900,651899,,651899,,651926,8,400,,,
break_continue,html.Screen,4_78_2,2023-11-02T02:59:01.531Z,,0,,,NaN,,,,,,false,,,,651900,651900,,651900,,651926,8,400,,,
sequence,flow.Sequence,4_78,2023-11-02T02:59:01.531Z,,0,,,9402,completion,,,,,false,,,,651900,651900,642482,642471,642498,651926,8,400,,,
trial,html.Screen,4_79_0,2023-11-02T02:59:04.734Z,,0,2,,3193,response,ISIC_2797576.JPG,13,ISIC_8764464.JPG,ISIC_2797576.JPG,false,1,keypress(m),500,655103.0000000001,655102,651909,651900,651926,655124,8,400,30,,ISIC_8764464.JPG
break,html.Screen,4_79_1,2023-11-02T02:59:04.734Z,,0,,,NaN,,,,,,false,,,,655103.0000000001,655103.0000000001,,655103.0000000001,,655124,8,400,,,
break_continue,html.Screen,4_79_2,2023-11-02T02:59:04.735Z,,0,,,NaN,,,,,,false,,,,655103.0000000001,655103.0000000001,,655103.0000000001,,655124,8,400,,,
sequence,flow.Sequence,4_79,2023-11-02T02:59:04.735Z,,0,,,3177.0000000001164,completion,,,,,false,,,,655103.0000000001,655103.0000000001,651909,651900,651926,655124,8,400,,,
trial,html.Screen,4_80_0,2023-11-02T02:59:07.504Z,,0,2,,2765,response,ISIC_0030860.JPG,14,ISIC_8414396.JPG,ISIC_0030860.JPG,false,1,keypress(m),500,657873,657872,655107,655103.0000000001,655124,657905,8,400,31,,ISIC_8414396.JPG
break,html.Screen,4_80_1,2023-11-02T02:59:07.504Z,,0,,,NaN,,,,,,false,,,,657873,657873,,657873,,657905,8,400,,,
break_continue,html.Screen,4_80_2,2023-11-02T02:59:07.504Z,,0,,,NaN,,,,,,false,,,,657873,657873,,657873,,657905,8,400,,,
sequence,flow.Sequence,4_80,2023-11-02T02:59:07.505Z,,0,,,2749,completion,,,,,false,,,,657873,657873,655107,655103.0000000001,655124,657905,8,400,,,
trial,html.Screen,4_81_0,2023-11-02T02:59:10.952Z,,0,2,,3432,response,ISIC_5423896.JPG,12,ISIC_1949126.JPG,ISIC_1949126.JPG,false,0,keypress(z),500,661321,661321,657889,657873,657905,661353,8,400,32,,ISIC_5423896.JPG
break,html.Screen,4_81_1,2023-11-02T02:59:10.952Z,,0,,,NaN,,,,,,false,,,,661321,661321,,661321,,661353,8,400,,,
break_continue,html.Screen,4_81_2,2023-11-02T02:59:10.953Z,,0,,,NaN,,,,,,false,,,,661322,661321,,661321,,661353,8,400,,,
sequence,flow.Sequence,4_81,2023-11-02T02:59:10.953Z,,0,,,3416,completion,,,,,false,,,,661322,661321,657889,657873,657905,661353,8,400,,,
trial,html.Screen,4_82_0,2023-11-02T02:59:14.629Z,,0,2,,3662,response,ISIC_9626241.JPG,12,ISIC_8169564.JPG,ISIC_8169564.JPG,false,0,keypress(z),500,664998,664998,661336,661322,661353,665017,8,400,33,,ISIC_9626241.JPG
break,html.Screen,4_82_1,2023-11-02T02:59:14.629Z,,0,,,NaN,,,,,,false,,,,664998,664998,,664998,,665017,8,400,,,
break_continue,html.Screen,4_82_2,2023-11-02T02:59:14.629Z,,0,,,NaN,,,,,,false,,,,664998,664998,,664998,,665017,8,400,,,
sequence,flow.Sequence,4_82,2023-11-02T02:59:14.629Z,,0,,,3645,completion,,,,,false,,,,664998,664998,661336,661322,661353,665017,8,400,,,
trial,html.Screen,4_83_0,2023-11-02T02:59:18.601Z,,0,2,,3969,response,ISIC_9510497.JPG,2,ISIC_5900778.JPG,ISIC_5900778.JPG,false,0,keypress(z),500,668970,668970,665001,664998,665017,668998,8,400,34,,ISIC_9510497.JPG
break,html.Screen,4_83_1,2023-11-02T02:59:18.601Z,,0,,,NaN,,,,,,false,,,,668971,668971,,668970,,668998,8,400,,,
break_continue,html.Screen,4_83_2,2023-11-02T02:59:18.602Z,,0,,,NaN,,,,,,false,,,,668971,668971,,668971,,668998,8,400,,,
sequence,flow.Sequence,4_83,2023-11-02T02:59:18.602Z,,0,,,3954,completion,,,,,false,,,,668971,668971,665001,664998,665017,668998,8,400,,,
trial,html.Screen,4_84_0,2023-11-02T02:59:22.226Z,,0,2,,3614,response,ISIC_0024962.JPG,13,ISIC_0061829.JPG,ISIC_0061829.JPG,false,0,keypress(z),500,672595,672595,668981,668971,668998,672629,8,400,35,,ISIC_0024962.JPG
break,html.Screen,4_84_1,2023-11-02T02:59:22.226Z,,0,,,NaN,,,,,,false,,,,672596,672596,,672595,,672629,8,400,,,
break_continue,html.Screen,4_84_2,2023-11-02T02:59:22.226Z,,0,,,NaN,,,,,,false,,,,672596,672596,,672596,,672629,8,400,,,
sequence,flow.Sequence,4_84,2023-11-02T02:59:22.227Z,,0,,,3598,completion,,,,,false,,,,672596,672596,668981,668971,668998,672629,8,400,,,
trial,html.Screen,4_85_0,2023-11-02T02:59:25.841Z,,0,2,,3597,response,ISIC_0057881.JPG,6,ISIC_2852805.JPG,ISIC_2852805.JPG,false,0,keypress(z),500,676210,676210,672613,672596,672629,676244,8,400,36,,ISIC_0057881.JPG
break,html.Screen,4_85_1,2023-11-02T02:59:25.841Z,,0,,,NaN,,,,,,false,,,,676211,676211,,676211,,676244,8,400,,,
break_continue,html.Screen,4_85_2,2023-11-02T02:59:25.841Z,,0,,,NaN,,,,,,false,,,,676211,676211,,676211,,676244,8,400,,,
sequence,flow.Sequence,4_85,2023-11-02T02:59:25.841Z,,0,,,3582,completion,,,,,false,,,,676211,676211,672613,672596,672629,676244,8,400,,,
trial,html.Screen,4_86_0,2023-11-02T02:59:29.120Z,,0,2,,3264,response,ISIC_0031742.JPG,11,ISIC_0029732.JPG,ISIC_0031742.JPG,false,1,keypress(m),500,679490,679490,676226,676211,676244,679524,8,400,37,,ISIC_0029732.JPG
break,html.Screen,4_86_1,2023-11-02T02:59:29.121Z,,0,,,NaN,,,,,,false,,,,679491,679491,,679490,,679524,8,400,,,
break_continue,html.Screen,4_86_2,2023-11-02T02:59:29.121Z,,0,,,NaN,,,,,,false,,,,679491,679491,,679491,,679524,8,400,,,
sequence,flow.Sequence,4_86,2023-11-02T02:59:29.121Z,,0,,,3247,completion,,,,,false,,,,679491,679491,676226,676211,676244,679524,8,400,,,
trial,html.Screen,4_87_0,2023-11-02T02:59:35.972Z,,0,2,,6834,response,ISIC_7131973.JPG,16,ISIC_0004509.JPG,ISIC_7131973.JPG,false,1,keypress(m),500,686342,686342,679508,679491,679524,686370,8,400,38,,ISIC_0004509.JPG
break,html.Screen,4_87_1,2023-11-02T02:59:35.972Z,,0,,,NaN,,,,,,false,,,,686342,686342,,686342,,686370,8,400,,,
break_continue,html.Screen,4_87_2,2023-11-02T02:59:35.972Z,,0,,,NaN,,,,,,false,,,,686343,686343,,686343,,686370,8,400,,,
sequence,flow.Sequence,4_87,2023-11-02T02:59:35.972Z,,0,,,6819,completion,,,,,false,,,,686343,686343,679508,679491,679524,686370,8,400,,,
trial,html.Screen,4_88_0,2023-11-02T02:59:39.349Z,,0,2,,3366,response,ISIC_8350973.JPG,9,ISIC_0010017.JPG,ISIC_8350973.JPG,false,1,keypress(m),500,689720,689720,686354,686343,686370,689751,8,400,39,,ISIC_0010017.JPG
break,html.Screen,4_88_1,2023-11-02T02:59:39.350Z,,0,,,NaN,,,,,,false,,,,689720,689720,,689720,,689751,8,400,,,
break_continue,html.Screen,4_88_2,2023-11-02T02:59:39.350Z,,0,,,NaN,,,,,,false,,,,689720,689720,,689720,,689751,8,400,,,
sequence,flow.Sequence,4_88,2023-11-02T02:59:39.350Z,,0,,,3350,completion,,,,,false,,,,689720,689720,686354,686343,686370,689751,8,400,,,
trial,html.Screen,4_89_0,2023-11-02T02:59:45.250Z,,0,2,,5886,response,ISIC_5835414.JPG,9,ISIC_0063492.JPG,ISIC_0063492.JPG,false,0,keypress(z),500,695621,695621,689735,689721,689751,695647,8,400,40,,ISIC_5835414.JPG
break,html.Screen,4_89_1,2023-11-02T02:59:45.250Z,,0,,,NaN,,,,,,false,,,,695621,695621,,695621,,695647,8,400,,,
break_continue,html.Screen,4_89_2,2023-11-02T02:59:45.251Z,,0,,,NaN,,,,,,false,,,,695621,695621,,695621,,695647,8,400,,,
sequence,flow.Sequence,4_89,2023-11-02T02:59:45.251Z,,0,,,5870,completion,,,,,false,,,,695622.0000000001,695621,689735,689721,689751,695647,8,400,,,
trial,html.Screen,4_90_0,2023-11-02T02:59:47.948Z,,0,2,,2688,response,ISIC_6609484.JPG,8,ISIC_1091626.JPG,ISIC_1091626.JPG,false,0,keypress(z),500,698319,698318,695630,695622.0000000001,695647,698345,8,400,41,,ISIC_6609484.JPG
break,html.Screen,4_90_1,2023-11-02T02:59:47.948Z,,0,,,NaN,,,,,,false,,,,698319,698319,,698319,,698345,8,400,,,
break_continue,html.Screen,4_90_2,2023-11-02T02:59:47.948Z,,0,,,NaN,,,,,,false,,,,698319,698319,,698319,,698345,8,400,,,
sequence,flow.Sequence,4_90,2023-11-02T02:59:47.949Z,,0,,,2672,completion,,,,,false,,,,698320,698319,695630,695622.0000000001,695647,698345,8,400,,,
trial,html.Screen,4_91_0,2023-11-02T02:59:50.556Z,,0,2,,2598,response,ISIC_3856662.JPG,6,ISIC_5405889.JPG,ISIC_5405889.JPG,false,0,keypress(z),500,700927,700927,698329,698320,698345,700960,8,400,42,,ISIC_3856662.JPG
break,html.Screen,4_91_1,2023-11-02T02:59:50.557Z,,0,,,NaN,,,,,,false,,,,700928,700928,,700927,,700960,8,400,,,
break_continue,html.Screen,4_91_2,2023-11-02T02:59:50.557Z,,0,,,NaN,,,,,,false,,,,700928,700928,,700928,,700960,8,400,,,
sequence,flow.Sequence,4_91,2023-11-02T02:59:50.557Z,,0,,,2583,completion,,,,,false,,,,700928,700928,698329,698320,698345,700960,8,400,,,
trial,html.Screen,4_92_0,2023-11-02T02:59:53.267Z,,0,2,,2695,response,ISIC_0031034.JPG,14,ISIC_8138363.JPG,ISIC_8138363.JPG,false,0,keypress(z),500,703638,703638,700943,700928,700960,703675,8,400,43,,ISIC_0031034.JPG
break,html.Screen,4_92_1,2023-11-02T02:59:53.267Z,,0,,,NaN,,,,,,false,,,,703639,703638,,703638,,703675,8,400,,,
break_continue,html.Screen,4_92_2,2023-11-02T02:59:53.267Z,,0,,,NaN,,,,,,false,,,,703639,703639,,703639,,703675,8,400,,,
sequence,flow.Sequence,4_92,2023-11-02T02:59:53.268Z,,0,,,2679,completion,,,,,false,,,,703639,703639,700943,700928,700960,703675,8,400,,,
trial,html.Screen,4_93_0,2023-11-02T02:59:55.979Z,,0,2,,2692,response,ISIC_0063164.JPG,14,ISIC_0032722.JPG,ISIC_0063164.JPG,false,1,keypress(m),500,706351,706350,703658,703639,703675,706373,8,400,44,,ISIC_0032722.JPG
break,html.Screen,4_93_1,2023-11-02T02:59:55.980Z,,0,,,NaN,,,,,,false,,,,706351,706351,,706351,,706373,8,400,,,
break_continue,html.Screen,4_93_2,2023-11-02T02:59:55.980Z,,0,,,NaN,,,,,,false,,,,706351,706351,,706351,,706373,8,400,,,
sequence,flow.Sequence,4_93,2023-11-02T02:59:55.980Z,,0,,,2676,completion,,,,,false,,,,706351,706351,703658,703639,703675,706373,8,400,,,
trial,html.Screen,4_94_0,2023-11-02T02:59:58.627Z,,0,2,,2641,response,ISIC_6289346.JPG,14,ISIC_0484171.JPG,ISIC_6289346.JPG,false,1,keypress(m),500,708999,708998,706357,706352,706373,709021,8,400,45,,ISIC_0484171.JPG
break,html.Screen,4_94_1,2023-11-02T02:59:58.627Z,,0,,,NaN,,,,,,false,,,,708999,708999,,708999,,709021,8,400,,,
break_continue,html.Screen,4_94_2,2023-11-02T02:59:58.628Z,,0,,,NaN,,,,,,false,,,,708999,708999,,708999,,709021,8,400,,,
sequence,flow.Sequence,4_94,2023-11-02T02:59:58.628Z,,0,,,2626,completion,,,,,false,,,,708999,708999,706357,706352,706373,709021,8,400,,,
trial,html.Screen,4_95_0,2023-11-02T03:00:01.305Z,,0,2,,2671,response,ISIC_1722909.JPG,11,ISIC_0011238.JPG,ISIC_0011238.JPG,false,0,keypress(z),500,711677,711676,709005,709000,709021,711703,8,400,46,,ISIC_1722909.JPG
break,html.Screen,4_95_1,2023-11-02T03:00:01.305Z,,0,,,NaN,,,,,,false,,,,711677,711677,,711677,,711703,8,400,,,
break_continue,html.Screen,4_95_2,2023-11-02T03:00:01.306Z,,0,,,NaN,,,,,,false,,,,711677,711677,,711677,,711703,8,400,,,
sequence,flow.Sequence,4_95,2023-11-02T03:00:01.306Z,,0,,,2656,completion,,,,,false,,,,711677,711677,709005,709000,709021,711703,8,400,,,
trial,html.Screen,4_96_0,2023-11-02T03:00:03.795Z,,0,2,,2480,response,ISIC_0060397.JPG,11,ISIC_0030506.JPG,ISIC_0060397.JPG,false,1,keypress(m),500,714167,714167,711687,711677,711703,714202,8,400,47,,ISIC_0030506.JPG
break,html.Screen,4_96_1,2023-11-02T03:00:03.796Z,,0,,,NaN,,,,,,false,,,,714167,714167,,714167,,714202,8,400,,,
break_continue,html.Screen,4_96_2,2023-11-02T03:00:03.796Z,,0,,,NaN,,,,,,false,,,,714168,714167,,714167,,714202,8,400,,,
sequence,flow.Sequence,4_96,2023-11-02T03:00:03.796Z,,0,,,2464,completion,,,,,false,,,,714168,714167,711687,711677,711703,714202,8,400,,,
trial,html.Screen,4_97_0,2023-11-02T03:00:06.277Z,,0,2,,2462,response,ISIC_8893501.JPG,13,ISIC_0054528.JPG,ISIC_0054528.JPG,false,0,keypress(z),500,716649,716648,714186,714168,714202,716666,8,400,48,,ISIC_8893501.JPG
break,html.Screen,4_97_1,2023-11-02T03:00:06.277Z,,0,,,NaN,,,,,,false,,,,716649,716649,,716649,,716666,8,400,,,
break_continue,html.Screen,4_97_2,2023-11-02T03:00:06.277Z,,0,,,NaN,,,,,,false,,,,716649,716649,,716649,,716666,8,400,,,
sequence,flow.Sequence,4_97,2023-11-02T03:00:06.277Z,,0,,,2447,completion,,,,,false,,,,716649,716649,714186,714168,714202,716666,8,400,,,
trial,html.Screen,4_98_0,2023-11-02T03:00:09.719Z,,0,2,,3440,response,ISIC_7919133.JPG,14,ISIC_0163812.JPG,ISIC_0163812.JPG,false,0,keypress(z),500,720091,720091,716651,716649,716666,720114,8,400,49,,ISIC_7919133.JPG
break,html.Screen,4_98_1,2023-11-02T03:00:09.720Z,,0,,,NaN,,,,,,false,,,,720092,720092,,720092,,720114,8,400,,,
break_continue,html.Screen,4_98_2,2023-11-02T03:00:09.720Z,,0,,,NaN,,,,,,false,,,,720092,720092,,720092,,720114,8,400,,,
sequence,flow.Sequence,4_98,2023-11-02T03:00:09.720Z,,0,,,3426,completion,,,,,false,,,,720092,720092,716651,716649,716666,720114,8,400,,,
trial,html.Screen,4_99_0,2023-11-02T03:00:12.834Z,,0,2,,3109,response,ISIC_3568218.JPG,14,ISIC_0069633.JPG,ISIC_3568218.JPG,false,1,keypress(m),500,723206,723206,720097,720092,720114,723229,8,400,50,,ISIC_0069633.JPG
break,html.Screen,4_99_1,2023-11-02T03:15:35.652Z,,0,,,922904,timeout,,,,,false,,,,1646073,1646067,723212,723207,723229,1646133,8,400,,,
break_continue,html.Screen,4_99_2,2023-11-02T03:15:39.914Z,,0,,,4321.000000000233,response,,,,,false,continue,keypress(Space),,1650335,1650388.0000000002,1646067,1646075,1646133,1650364,8,400,,,
sequence,flow.Sequence,4_99,2023-11-02T03:15:39.917Z,,0,,,930274.0000000002,completion,,,,,false,,,,1650338,1650388.0000000002,720097,720092,720114,1650364,8,400,,,
trial,html.Screen,4_100_0,2023-11-02T03:15:44.047Z,,0,3,,4114,response,ISIC_8910589.JPG,15,ISIC_0028930.JPG,ISIC_0028930.JPG,false,0,keypress(z),500,1654469,1654468,1650354,1650340.0000000002,1650364,1654495,8,400,1,,ISIC_8910589.JPG
break,html.Screen,4_100_1,2023-11-02T03:15:44.048Z,,0,,,NaN,,,,,,false,,,,1654470,1654470,,1654469,,1654495,8,400,,,
break_continue,html.Screen,4_100_2,2023-11-02T03:15:44.049Z,,0,,,NaN,,,,,,false,,,,1654471,1654470,,1654470,,1654495,8,400,,,
sequence,flow.Sequence,4_100,2023-11-02T03:15:44.050Z,,0,,,4106,completion,,,,,false,,,,1654471,1654470,1650354,1650340.0000000002,1650364,1654495,8,400,,,
trial,html.Screen,4_101_0,2023-11-02T03:15:47.033Z,,0,3,,2976,response,ISIC_2508901.JPG,11,ISIC_0060148.JPG,ISIC_0060148.JPG,false,0,keypress(z),500,1657455,1657455,1654479,1654471,1654495,1657476,8,400,2,,ISIC_2508901.JPG
break,html.Screen,4_101_1,2023-11-02T03:15:47.034Z,,0,,,NaN,,,,,,false,,,,1657456.0000000002,1657456.0000000002,,1657455,,1657476,8,400,,,
break_continue,html.Screen,4_101_2,2023-11-02T03:15:47.035Z,,0,,,NaN,,,,,,false,,,,1657456.0000000002,1657456.0000000002,,1657456.0000000002,,1657476,8,400,,,
sequence,flow.Sequence,4_101,2023-11-02T03:15:47.035Z,,0,,,2961.000000000233,completion,,,,,false,,,,1657457,1657456.0000000002,1654479,1654471,1654495,1657476,8,400,,,
trial,html.Screen,4_102_0,2023-11-02T03:15:49.657Z,,0,3,,2620,response,ISIC_1484525.JPG,2,ISIC_9155855.JPG,ISIC_9155855.JPG,false,0,keypress(z),500,1660079,1660079,1657459,1657457,1657476,1660108,8,400,3,,ISIC_1484525.JPG
break,html.Screen,4_102_1,2023-11-02T03:15:49.658Z,,0,,,NaN,,,,,,false,,,,1660080,1660080,,1660080,,1660108,8,400,,,
break_continue,html.Screen,4_102_2,2023-11-02T03:15:49.659Z,,0,,,NaN,,,,,,false,,,,1660080,1660080,,1660080,,1660108,8,400,,,
sequence,flow.Sequence,4_102,2023-11-02T03:15:49.659Z,,0,,,2604,completion,,,,,false,,,,1660081.0000000002,1660080,1657459,1657457,1657476,1660108,8,400,,,
trial,html.Screen,4_103_0,2023-11-02T03:15:52.321Z,,0,3,,2651,response,ISIC_8909957.JPG,14,ISIC_0071040.JPG,ISIC_0071040.JPG,false,0,keypress(z),500,1662743,1662743,1660092,1660081.0000000002,1660108,1662772,8,400,4,,ISIC_8909957.JPG
break,html.Screen,4_103_1,2023-11-02T03:15:52.322Z,,0,,,NaN,,,,,,false,,,,1662744.0000000002,1662744.0000000002,,1662743,,1662772,8,400,,,
break_continue,html.Screen,4_103_2,2023-11-02T03:15:52.322Z,,0,,,NaN,,,,,,false,,,,1662744.0000000002,1662744.0000000002,,1662744.0000000002,,1662772,8,400,,,
sequence,flow.Sequence,4_103,2023-11-02T03:15:52.322Z,,0,,,2636.000000000233,completion,,,,,false,,,,1662744.0000000002,1662744.0000000002,1660092,1660081.0000000002,1660108,1662772,8,400,,,
trial,html.Screen,4_104_0,2023-11-02T03:15:55.273Z,,0,3,,2939,response,ISIC_8015541.JPG,2,ISIC_4646815.JPG,ISIC_8015541.JPG,false,1,keypress(m),500,1665695,1665695,1662756,1662745.0000000002,1662772,1665721,8,400,5,,ISIC_4646815.JPG
break,html.Screen,4_104_1,2023-11-02T03:15:55.274Z,,0,,,NaN,,,,,,false,,,,1665696.0000000002,1665696.0000000002,,1665695,,1665721,8,400,,,
break_continue,html.Screen,4_104_2,2023-11-02T03:15:55.274Z,,0,,,NaN,,,,,,false,,,,1665696.0000000002,1665696.0000000002,,1665696.0000000002,,1665721,8,400,,,
sequence,flow.Sequence,4_104,2023-11-02T03:15:55.274Z,,0,,,2924.000000000233,completion,,,,,false,,,,1665697,1665696.0000000002,1662756,1662745.0000000002,1662772,1665721,8,400,,,
trial,html.Screen,4_105_0,2023-11-02T03:15:58.241Z,,0,3,,2959,response,ISIC_0006757.JPG,7,ISIC_0054364.JPG,ISIC_0006757.JPG,false,1,keypress(m),500,1668663,1668663,1665704,1665697,1665721,1668685,8,400,6,,ISIC_0054364.JPG
break,html.Screen,4_105_1,2023-11-02T03:15:58.242Z,,0,,,NaN,,,,,,false,,,,1668664,1668664,,1668663,,1668685,8,400,,,
break_continue,html.Screen,4_105_2,2023-11-02T03:15:58.242Z,,0,,,NaN,,,,,,false,,,,1668664,1668664,,1668664,,1668685,8,400,,,
sequence,flow.Sequence,4_105,2023-11-02T03:15:58.242Z,,0,,,2943,completion,,,,,false,,,,1668665,1668664,1665704,1665697,1665721,1668685,8,400,,,
trial,html.Screen,4_106_0,2023-11-02T03:16:01.832Z,,0,3,,3586.000000000233,response,ISIC_7327423.JPG,3,ISIC_6416533.JPG,ISIC_6416533.JPG,false,0,keypress(z),500,1672254.0000000002,1672254.0000000002,1668668,1668665,1668685,1672283,8,400,7,,ISIC_7327423.JPG
break,html.Screen,4_106_1,2023-11-02T03:16:01.833Z,,0,,,NaN,,,,,,false,,,,1672255,1672255,,1672255,,1672283,8,400,,,
break_continue,html.Screen,4_106_2,2023-11-02T03:16:01.833Z,,0,,,NaN,,,,,,false,,,,1672256,1672255,,1672255,,1672283,8,400,,,
sequence,flow.Sequence,4_106,2023-11-02T03:16:01.833Z,,0,,,3570,completion,,,,,false,,,,1672256,1672255,1668668,1668665,1668685,1672283,8,400,,,
trial,html.Screen,4_107_0,2023-11-02T03:16:04.534Z,,0,3,,2689.000000000233,response,ISIC_1177505.JPG,2,ISIC_3025889.JPG,ISIC_1177505.JPG,false,1,keypress(m),500,1674956.0000000002,1674956.0000000002,1672267,1672256,1672283,1674982,8,400,8,,ISIC_3025889.JPG
break,html.Screen,4_107_1,2023-11-02T03:16:04.534Z,,0,,,NaN,,,,,,false,,,,1674957,1674957,,1674957,,1674982,8,400,,,
break_continue,html.Screen,4_107_2,2023-11-02T03:16:04.535Z,,0,,,NaN,,,,,,false,,,,1674957,1674957,,1674957,,1674982,8,400,,,
sequence,flow.Sequence,4_107,2023-11-02T03:16:04.535Z,,0,,,2674,completion,,,,,false,,,,1674958,1674957,1672267,1672256,1672283,1674982,8,400,,,
trial,html.Screen,4_108_0,2023-11-02T03:16:07.622Z,,0,3,,3080,response,ISIC_6821316.JPG,4,ISIC_6444989.JPG,ISIC_6821316.JPG,false,1,keypress(m),500,1678044,1678044,1674964,1674958,1674982,1678079,8,400,9,,ISIC_6444989.JPG
break,html.Screen,4_108_1,2023-11-02T03:16:07.622Z,,0,,,NaN,,,,,,false,,,,1678045,1678045,,1678045,,1678079,8,400,,,
break_continue,html.Screen,4_108_2,2023-11-02T03:16:07.623Z,,0,,,NaN,,,,,,false,,,,1678045,1678045,,1678045,,1678079,8,400,,,
sequence,flow.Sequence,4_108,2023-11-02T03:16:07.623Z,,0,,,3063,completion,,,,,false,,,,1678046,1678045,1674964,1674958,1674982,1678079,8,400,,,
trial,html.Screen,4_109_0,2023-11-02T03:16:10.533Z,,0,3,,2893.000000000233,response,ISIC_5929687.JPG,2,ISIC_0063988.JPG,ISIC_0063988.JPG,false,0,keypress(z),500,1680956.0000000002,1680956.0000000002,1678063,1678046,1678079,1680977,8,400,10,,ISIC_5929687.JPG
break,html.Screen,4_109_1,2023-11-02T03:16:10.534Z,,0,,,NaN,,,,,,false,,,,1680957,1680957,,1680956.0000000002,,1680977,8,400,,,
break_continue,html.Screen,4_109_2,2023-11-02T03:16:10.534Z,,0,,,NaN,,,,,,false,,,,1680957,1680957,,1680957,,1680977,8,400,,,
sequence,flow.Sequence,4_109,2023-11-02T03:16:10.534Z,,0,,,2878,completion,,,,,false,,,,1680957,1680957,1678063,1678046,1678079,1680977,8,400,,,
trial,html.Screen,4_110_0,2023-11-02T03:16:13.237Z,,0,3,,2700,response,ISIC_0000145.JPG,2,ISIC_0000036.JPG,ISIC_0000036.JPG,false,0,keypress(z),500,1683660,1683660,1680960,1680958,1680977,1683692,8,400,11,,ISIC_0000145.JPG
break,html.Screen,4_110_1,2023-11-02T03:16:13.238Z,,0,,,NaN,,,,,,false,,,,1683661,1683661,,1683660,,1683692,8,400,,,
break_continue,html.Screen,4_110_2,2023-11-02T03:16:13.238Z,,0,,,NaN,,,,,,false,,,,1683661,1683661,,1683661,,1683692,8,400,,,
sequence,flow.Sequence,4_110,2023-11-02T03:16:13.238Z,,0,,,2684,completion,,,,,false,,,,1683662,1683661,1680960,1680958,1680977,1683692,8,400,,,
trial,html.Screen,4_111_0,2023-11-02T03:16:15.966Z,,0,3,,2714.000000000233,response,ISIC_2863397.JPG,13,ISIC_0072215.JPG,ISIC_0072215.JPG,false,0,keypress(z),500,1686390,1686389.0000000002,1683675,1683662,1683692,1686424,8,400,12,,ISIC_2863397.JPG
break,html.Screen,4_111_1,2023-11-02T03:16:15.967Z,,0,,,NaN,,,,,,false,,,,1686390,1686390,,1686390,,1686424,8,400,,,
break_continue,html.Screen,4_111_2,2023-11-02T03:16:15.967Z,,0,,,NaN,,,,,,false,,,,1686391,1686390,,1686390,,1686424,8,400,,,
sequence,flow.Sequence,4_111,2023-11-02T03:16:15.968Z,,0,,,2698,completion,,,,,false,,,,1686391,1686390,1683675,1683662,1683692,1686424,8,400,,,
trial,html.Screen,4_112_0,2023-11-02T03:16:18.797Z,,0,3,,2813,response,ISIC_6285925.JPG,5,ISIC_0031397.JPG,ISIC_6285925.JPG,false,1,keypress(m),500,1689220,1689220,1686407,1686391,1686424,1689255,8,400,13,,ISIC_0031397.JPG
break,html.Screen,4_112_1,2023-11-02T03:16:18.797Z,,0,,,NaN,,,,,,false,,,,1689221,1689221,,1689220,,1689255,8,400,,,
break_continue,html.Screen,4_112_2,2023-11-02T03:16:18.798Z,,0,,,NaN,,,,,,false,,,,1689221,1689221,,1689221,,1689255,8,400,,,
sequence,flow.Sequence,4_112,2023-11-02T03:16:18.798Z,,0,,,2797,completion,,,,,false,,,,1689221,1689221,1686407,1686391,1686424,1689255,8,400,,,
trial,html.Screen,4_113_0,2023-11-02T03:16:22.295Z,,0,3,,3480,response,ISIC_9974299.JPG,1,ISIC_0000151.JPG,ISIC_0000151.JPG,false,0,keypress(z),500,1692719,1692719,1689239,1689221,1689255,1692753,8,400,14,,ISIC_9974299.JPG
break,html.Screen,4_113_1,2023-11-02T03:16:22.296Z,,0,,,NaN,,,,,,false,,,,1692720,1692719,,1692719,,1692753,8,400,,,
break_continue,html.Screen,4_113_2,2023-11-02T03:16:22.297Z,,0,,,NaN,,,,,,false,,,,1692720,1692720,,1692720,,1692753,8,400,,,
sequence,flow.Sequence,4_113,2023-11-02T03:16:22.297Z,,0,,,3465,completion,,,,,false,,,,1692721,1692720,1689239,1689221,1689255,1692753,8,400,,,
trial,html.Screen,4_114_0,2023-11-02T03:16:24.562Z,,0,3,,2248.000000000233,response,ISIC_0839675.JPG,12,ISIC_4154293.JPG,ISIC_0839675.JPG,false,1,keypress(m),500,1694986,1694985.0000000002,1692737,1692721,1692753,1695017,8,400,15,,ISIC_4154293.JPG
break,html.Screen,4_114_1,2023-11-02T03:16:24.562Z,,0,,,NaN,,,,,,false,,,,1694986,1694986,,1694986,,1695017,8,400,,,
break_continue,html.Screen,4_114_2,2023-11-02T03:16:24.563Z,,0,,,NaN,,,,,,false,,,,1694987,1694986,,1694986,,1695017,8,400,,,
sequence,flow.Sequence,4_114,2023-11-02T03:16:24.563Z,,0,,,2233,completion,,,,,false,,,,1694987,1694986,1692737,1692721,1692753,1695017,8,400,,,
trial,html.Screen,4_115_0,2023-11-02T03:16:27.971Z,,0,3,,3394,response,ISIC_0031325.JPG,13,ISIC_8409024.JPG,ISIC_8409024.JPG,false,0,keypress(z),500,1698395,1698395,1695001,1694987,1695017,1698415,8,400,16,,ISIC_0031325.JPG
break,html.Screen,4_115_1,2023-11-02T03:16:27.972Z,,0,,,NaN,,,,,,false,,,,1698395,1698395,,1698395,,1698415,8,400,,,
break_continue,html.Screen,4_115_2,2023-11-02T03:16:27.972Z,,0,,,NaN,,,,,,false,,,,1698396,1698396,,1698396,,1698415,8,400,,,
sequence,flow.Sequence,4_115,2023-11-02T03:16:27.972Z,,0,,,3379,completion,,,,,false,,,,1698396,1698396,1695001,1694987,1695017,1698415,8,400,,,
trial,html.Screen,4_116_0,2023-11-02T03:16:30.780Z,,0,3,,2805,response,ISIC_6547707.JPG,16,ISIC_0033168.JPG,ISIC_6547707.JPG,false,1,keypress(m),500,1701204,1701204,1698399,1698396,1698415,1701231,8,400,17,,ISIC_0033168.JPG
break,html.Screen,4_116_1,2023-11-02T03:16:30.781Z,,0,,,NaN,,,,,,false,,,,1701205,1701205,,1701204,,1701231,8,400,,,
break_continue,html.Screen,4_116_2,2023-11-02T03:16:30.781Z,,0,,,NaN,,,,,,false,,,,1701205,1701205,,1701205,,1701231,8,400,,,
sequence,flow.Sequence,4_116,2023-11-02T03:16:30.781Z,,0,,,2790,completion,,,,,false,,,,1701205,1701205,1698399,1698396,1698415,1701231,8,400,,,
trial,html.Screen,4_117_0,2023-11-02T03:16:34.167Z,,0,3,,3377.000000000233,response,ISIC_0068950.JPG,2,ISIC_3086579.JPG,ISIC_3086579.JPG,false,0,keypress(z),500,1704591.0000000002,1704591.0000000002,1701214,1701205,1701231,1704628,8,400,18,,ISIC_0068950.JPG
break,html.Screen,4_117_1,2023-11-02T03:16:34.168Z,,0,,,NaN,,,,,,false,,,,1704592,1704592,,1704591.0000000002,,1704628,8,400,,,
break_continue,html.Screen,4_117_2,2023-11-02T03:16:34.168Z,,0,,,NaN,,,,,,false,,,,1704592,1704592,,1704592,,1704628,8,400,,,
sequence,flow.Sequence,4_117,2023-11-02T03:16:34.168Z,,0,,,3361,completion,,,,,false,,,,1704592,1704592,1701214,1701205,1701231,1704628,8,400,,,
trial,html.Screen,4_118_0,2023-11-02T03:16:36.862Z,,0,3,,2675,response,ISIC_2275181.JPG,7,ISIC_0058954.JPG,ISIC_0058954.JPG,false,0,keypress(z),500,1707287,1707287,1704612,1704592,1704628,1707310,8,400,19,,ISIC_2275181.JPG
break,html.Screen,4_118_1,2023-11-02T03:16:36.863Z,,0,,,NaN,,,,,,false,,,,1707287,1707287,,1707287,,1707310,8,400,,,
break_continue,html.Screen,4_118_2,2023-11-02T03:16:36.863Z,,0,,,NaN,,,,,,false,,,,1707288,1707288,,1707288,,1707310,8,400,,,
sequence,flow.Sequence,4_118,2023-11-02T03:16:36.863Z,,0,,,2660,completion,,,,,false,,,,1707288,1707288,1704612,1704592,1704628,1707310,8,400,,,
trial,html.Screen,4_119_0,2023-11-02T03:16:40.186Z,,0,3,,3317.000000000233,response,ISIC_0033273.JPG,16,ISIC_9815788.JPG,ISIC_9815788.JPG,false,0,keypress(z),500,1710611,1710610.0000000002,1707293,1707288,1707310,1710641,8,400,20,,ISIC_0033273.JPG
break,html.Screen,4_119_1,2023-11-02T03:16:40.187Z,,0,,,NaN,,,,,,false,,,,1710611,1710611,,1710611,,1710641,8,400,,,
break_continue,html.Screen,4_119_2,2023-11-02T03:16:40.187Z,,0,,,NaN,,,,,,false,,,,1710612,1710612,,1710612,,1710641,8,400,,,
sequence,flow.Sequence,4_119,2023-11-02T03:16:40.188Z,,0,,,3302,completion,,,,,false,,,,1710612,1710612,1707293,1707288,1707310,1710641,8,400,,,
trial,html.Screen,4_120_0,2023-11-02T03:16:43.070Z,,0,3,,2870.000000000233,response,ISIC_2673511.JPG,11,ISIC_9059250.JPG,ISIC_9059250.JPG,false,0,keypress(z),500,1713495.0000000002,1713495.0000000002,1710625,1710613,1710641,1713522,8,400,21,,ISIC_2673511.JPG
break,html.Screen,4_120_1,2023-11-02T03:16:43.071Z,,0,,,NaN,,,,,,false,,,,1713495.0000000002,1713495.0000000002,,1713495.0000000002,,1713522,8,400,,,
break_continue,html.Screen,4_120_2,2023-11-02T03:16:43.071Z,,0,,,NaN,,,,,,false,,,,1713496,1713496,,1713496,,1713522,8,400,,,
sequence,flow.Sequence,4_120,2023-11-02T03:16:43.071Z,,0,,,2855,completion,,,,,false,,,,1713496,1713496,1710625,1710612,1710641,1713522,8,400,,,
trial,html.Screen,4_121_0,2023-11-02T03:16:45.814Z,,0,3,,2733,response,ISIC_0072087.JPG,1,ISIC_0061315.JPG,ISIC_0072087.JPG,false,1,keypress(m),500,1716239,1716238,1713505,1713496,1713522,1716271,8,400,22,,ISIC_0061315.JPG
break,html.Screen,4_121_1,2023-11-02T03:16:45.815Z,,0,,,NaN,,,,,,false,,,,1716239,1716239,,1716239,,1716271,8,400,,,
break_continue,html.Screen,4_121_2,2023-11-02T03:16:45.815Z,,0,,,NaN,,,,,,false,,,,1716240,1716240,,1716239,,1716271,8,400,,,
sequence,flow.Sequence,4_121,2023-11-02T03:16:45.815Z,,0,,,2718,completion,,,,,false,,,,1716240,1716240,1713505,1713496,1713522,1716271,8,400,,,
trial,html.Screen,4_122_0,2023-11-02T03:16:48.384Z,,0,3,,2554,response,ISIC_0006727.JPG,0,ISIC_0026401.JPG,ISIC_0006727.JPG,false,1,keypress(m),500,1718809,1718808,1716254,1716240,1716271,1718835,8,400,23,,ISIC_0026401.JPG
break,html.Screen,4_122_1,2023-11-02T03:16:48.384Z,,0,,,NaN,,,,,,false,,,,1718809,1718809,,1718809,,1718835,8,400,,,
break_continue,html.Screen,4_122_2,2023-11-02T03:16:48.385Z,,0,,,NaN,,,,,,false,,,,1718810,1718810,,1718810,,1718835,8,400,,,
sequence,flow.Sequence,4_122,2023-11-02T03:16:48.385Z,,0,,,2539,completion,,,,,false,,,,1718810,1718810,1716254,1716240,1716271,1718835,8,400,,,
trial,html.Screen,4_123_0,2023-11-02T03:16:50.968Z,,0,3,,2574,response,ISIC_7533216.JPG,16,ISIC_0033759.JPG,ISIC_7533216.JPG,false,1,keypress(m),500,1721393,1721393,1718819,1718810,1718835,1721417,8,400,24,,ISIC_0033759.JPG
break,html.Screen,4_123_1,2023-11-02T03:16:50.969Z,,0,,,NaN,,,,,,false,,,,1721394,1721393,,1721393,,1721417,8,400,,,
break_continue,html.Screen,4_123_2,2023-11-02T03:16:50.969Z,,0,,,NaN,,,,,,false,,,,1721394,1721394,,1721394,,1721417,8,400,,,
sequence,flow.Sequence,4_123,2023-11-02T03:16:50.969Z,,0,,,2559,completion,,,,,false,,,,1721394,1721394,1718819,1718810,1718835,1721417,8,400,,,
trial,html.Screen,4_124_0,2023-11-02T03:16:53.572Z,,0,3,,2596,response,ISIC_6390738.JPG,3,ISIC_0000176.JPG,ISIC_6390738.JPG,false,1,keypress(m),500,1723997,1723997,1721401,1721394,1721417,1724033,8,400,25,,ISIC_0000176.JPG
break,html.Screen,4_124_1,2023-11-02T03:16:53.573Z,,0,,,NaN,,,,,,false,,,,1723998,1723998,,1723997,,1724033,8,400,,,
break_continue,html.Screen,4_124_2,2023-11-02T03:16:53.574Z,,0,,,NaN,,,,,,false,,,,1723999,1723998,,1723998,,1724033,8,400,,,
sequence,flow.Sequence,4_124,2023-11-02T03:16:53.574Z,,0,,,2581,completion,,,,,false,,,,1723999,1723998,1721401,1721394,1721417,1724033,8,400,,,
trial,html.Screen,4_125_0,2023-11-02T03:16:56.138Z,,0,3,,2547,response,ISIC_0014489.JPG,1,ISIC_0068580.JPG,ISIC_0014489.JPG,false,1,keypress(m),500,1726564,1726563,1724016,1724000,1724033,1726597,8,400,26,,ISIC_0068580.JPG
break,html.Screen,4_125_1,2023-11-02T03:16:56.139Z,,0,,,NaN,,,,,,false,,,,1726564,1726564,,1726564,,1726597,8,400,,,
break_continue,html.Screen,4_125_2,2023-11-02T03:16:56.140Z,,0,,,NaN,,,,,,false,,,,1726565,1726565,,1726565,,1726597,8,400,,,
sequence,flow.Sequence,4_125,2023-11-02T03:16:56.140Z,,0,,,2532,completion,,,,,false,,,,1726565,1726565,1724016,1723999,1724033,1726597,8,400,,,
trial,html.Screen,4_126_0,2023-11-02T03:16:58.682Z,,0,3,,2527,response,ISIC_0024310.JPG,13,ISIC_0067027.JPG,ISIC_0024310.JPG,false,1,keypress(m),500,1729108,1729107,1726580,1726565,1726597,1729128,8,400,27,,ISIC_0067027.JPG
break,html.Screen,4_126_1,2023-11-02T03:16:58.683Z,,0,,,NaN,,,,,,false,,,,1729108,1729108,,1729108,,1729128,8,400,,,
break_continue,html.Screen,4_126_2,2023-11-02T03:16:58.683Z,,0,,,NaN,,,,,,false,,,,1729109,1729109,,1729109,,1729128,8,400,,,
sequence,flow.Sequence,4_126,2023-11-02T03:16:58.683Z,,0,,,2512,completion,,,,,false,,,,1729109,1729109,1726580,1726565,1726597,1729128,8,400,,,
trial,html.Screen,4_127_0,2023-11-02T03:17:01.917Z,,0,3,,3232,response,ISIC_0032940.JPG,2,ISIC_2577938.JPG,ISIC_2577938.JPG,false,0,keypress(z),500,1732343,1732343,1729111,1729109,1729128,1732376,8,400,28,,ISIC_0032940.JPG
break,html.Screen,4_127_1,2023-11-02T03:17:01.918Z,,0,,,NaN,,,,,,false,,,,1732343,1732343,,1732343,,1732376,8,400,,,
break_continue,html.Screen,4_127_2,2023-11-02T03:17:01.918Z,,0,,,NaN,,,,,,false,,,,1732344,1732344,,1732344,,1732376,8,400,,,
sequence,flow.Sequence,4_127,2023-11-02T03:17:01.918Z,,0,,,3216,completion,,,,,false,,,,1732344,1732344,1729111,1729109,1729128,1732376,8,400,,,
trial,html.Screen,4_128_0,2023-11-02T03:17:04.714Z,,0,3,,2780,response,ISIC_0027302.JPG,4,ISIC_9764024.JPG,ISIC_0027302.JPG,false,1,keypress(m),500,1735140,1735140,1732360,1732344,1732376,1735175,8,400,29,,ISIC_9764024.JPG
break,html.Screen,4_128_1,2023-11-02T03:17:04.715Z,,0,,,NaN,,,,,,false,,,,1735141,1735140,,1735140,,1735175,8,400,,,
break_continue,html.Screen,4_128_2,2023-11-02T03:17:04.715Z,,0,,,NaN,,,,,,false,,,,1735141,1735141,,1735141,,1735175,8,400,,,
sequence,flow.Sequence,4_128,2023-11-02T03:17:04.715Z,,0,,,2765,completion,,,,,false,,,,1735141,1735141,1732360,1732344,1732376,1735175,8,400,,,
trial,html.Screen,4_129_0,2023-11-02T03:17:07.831Z,,0,3,,3098,response,ISIC_9015182.JPG,15,ISIC_0034048.JPG,ISIC_0034048.JPG,false,0,keypress(z),500,1738257,1738257,1735159,1735141,1735175,1738290,8,400,30,,ISIC_9015182.JPG
break,html.Screen,4_129_1,2023-11-02T03:17:07.832Z,,0,,,NaN,,,,,,false,,,,1738258,1738257,,1738257,,1738290,8,400,,,
break_continue,html.Screen,4_129_2,2023-11-02T03:17:07.832Z,,0,,,NaN,,,,,,false,,,,1738258,1738258,,1738258,,1738290,8,400,,,
sequence,flow.Sequence,4_129,2023-11-02T03:17:07.832Z,,0,,,3083,completion,,,,,false,,,,1738258,1738258,1735159,1735141,1735175,1738290,8,400,,,
trial,html.Screen,4_130_0,2023-11-02T03:17:10.698Z,,0,3,,2851,response,ISIC_7759376.JPG,14,ISIC_0032559.JPG,ISIC_7759376.JPG,false,1,keypress(m),500,1741125,1741124,1738273,1738258,1738290,1741153,8,400,31,,ISIC_0032559.JPG
break,html.Screen,4_130_1,2023-11-02T03:17:10.699Z,,0,,,NaN,,,,,,false,,,,1741125,1741125,,1741125,,1741153,8,400,,,
break_continue,html.Screen,4_130_2,2023-11-02T03:17:10.699Z,,0,,,NaN,,,,,,false,,,,1741125,1741125,,1741125,,1741153,8,400,,,
sequence,flow.Sequence,4_130,2023-11-02T03:17:10.700Z,,0,,,2835,completion,,,,,false,,,,1741126,1741125,1738273,1738258,1738290,1741153,8,400,,,
trial,html.Screen,4_131_0,2023-11-02T03:17:14.820Z,,0,3,,4109,response,ISIC_0029572.JPG,0,ISIC_7533983.JPG,ISIC_7533983.JPG,false,0,keypress(z),500,1745247,1745246,1741137,1741126,1741153,1745267,8,400,32,,ISIC_0029572.JPG
break,html.Screen,4_131_1,2023-11-02T03:17:14.821Z,,0,,,NaN,,,,,,false,,,,1745247,1745247,,1745247,,1745267,8,400,,,
break_continue,html.Screen,4_131_2,2023-11-02T03:17:14.821Z,,0,,,NaN,,,,,,false,,,,1745248,1745247,,1745247,,1745267,8,400,,,
sequence,flow.Sequence,4_131,2023-11-02T03:17:14.821Z,,0,,,4094,completion,,,,,false,,,,1745248,1745247,1741137,1741126,1741153,1745267,8,400,,,
trial,html.Screen,4_132_0,2023-11-02T03:17:17.925Z,,0,3,,3099,response,ISIC_0011778.JPG,7,ISIC_0062443.JPG,ISIC_0011778.JPG,false,1,keypress(m),500,1748351,1748351,1745252,1745248,1745267,1748383,8,400,33,,ISIC_0062443.JPG
break,html.Screen,4_132_1,2023-11-02T03:17:17.925Z,,0,,,NaN,,,,,,false,,,,1748352,1748352,,1748351,,1748383,8,400,,,
break_continue,html.Screen,4_132_2,2023-11-02T03:17:17.926Z,,0,,,NaN,,,,,,false,,,,1748352,1748352,,1748352,,1748383,8,400,,,
sequence,flow.Sequence,4_132,2023-11-02T03:17:17.926Z,,0,,,3085,completion,,,,,false,,,,1748353,1748352,1745252,1745248,1745267,1748383,8,400,,,
trial,html.Screen,4_133_0,2023-11-02T03:17:20.759Z,,0,3,,2819,response,ISIC_2664946.JPG,10,ISIC_6839272.JPG,ISIC_6839272.JPG,false,0,keypress(z),500,1751185,1751185,1748366,1748353,1748383,1751214,8,400,34,,ISIC_2664946.JPG
break,html.Screen,4_133_1,2023-11-02T03:17:20.759Z,,0,,,NaN,,,,,,false,,,,1751186.0000000002,1751186.0000000002,,1751185,,1751214,8,400,,,
break_continue,html.Screen,4_133_2,2023-11-02T03:17:20.760Z,,0,,,NaN,,,,,,false,,,,1751186.0000000002,1751186.0000000002,,1751186.0000000002,,1751214,8,400,,,
sequence,flow.Sequence,4_133,2023-11-02T03:17:20.760Z,,0,,,2803.000000000233,completion,,,,,false,,,,1751187.0000000002,1751186.0000000002,1748366,1748353,1748383,1751214,8,400,,,
trial,html.Screen,4_134_0,2023-11-02T03:17:23.855Z,,0,3,,3083,response,ISIC_0024911.JPG,2,ISIC_0026264.JPG,ISIC_0024911.JPG,false,1,keypress(m),500,1754281,1754281,1751198,1751187.0000000002,1751214,1754312,8,400,35,,ISIC_0026264.JPG
break,html.Screen,4_134_1,2023-11-02T03:17:23.856Z,,0,,,NaN,,,,,,false,,,,1754282,1754282,,1754282,,1754312,8,400,,,
break_continue,html.Screen,4_134_2,2023-11-02T03:17:23.856Z,,0,,,NaN,,,,,,false,,,,1754283.0000000002,1754283.0000000002,,1754283.0000000002,,1754312,8,400,,,
sequence,flow.Sequence,4_134,2023-11-02T03:17:23.856Z,,0,,,3069.000000000233,completion,,,,,false,,,,1754283.0000000002,1754283.0000000002,1751198,1751187.0000000002,1751214,1754312,8,400,,,
trial,html.Screen,4_135_0,2023-11-02T03:17:26.947Z,,0,3,,3078,response,ISIC_0028082.JPG,3,ISIC_5552066.JPG,ISIC_5552066.JPG,false,0,keypress(z),500,1757374,1757373,1754295,1754283.0000000002,1754312,1757410,8,400,36,,ISIC_0028082.JPG
break,html.Screen,4_135_1,2023-11-02T03:17:26.947Z,,0,,,NaN,,,,,,false,,,,1757374,1757374,,1757374,,1757410,8,400,,,
break_continue,html.Screen,4_135_2,2023-11-02T03:17:26.948Z,,0,,,NaN,,,,,,false,,,,1757375,1757375,,1757374,,1757410,8,400,,,
sequence,flow.Sequence,4_135,2023-11-02T03:17:26.948Z,,0,,,3063,completion,,,,,false,,,,1757375,1757375,1754295,1754283.0000000002,1754312,1757410,8,400,,,
trial,html.Screen,4_136_0,2023-11-02T03:17:29.849Z,,0,3,,2883,response,ISIC_0046405.JPG,3,ISIC_7539727.JPG,ISIC_7539727.JPG,false,0,keypress(z),500,1760276,1760276,1757393,1757375,1757410,1760308,8,400,37,,ISIC_0046405.JPG
break,html.Screen,4_136_1,2023-11-02T03:17:29.849Z,,0,,,NaN,,,,,,false,,,,1760276,1760276,,1760276,,1760308,8,400,,,
break_continue,html.Screen,4_136_2,2023-11-02T03:17:29.850Z,,0,,,NaN,,,,,,false,,,,1760277,1760277,,1760277,,1760308,8,400,,,
sequence,flow.Sequence,4_136,2023-11-02T03:17:29.850Z,,0,,,2867,completion,,,,,false,,,,1760277,1760277,1757393,1757375,1757410,1760308,8,400,,,
trial,html.Screen,4_137_0,2023-11-02T03:17:33.221Z,,0,3,,3356.000000000233,response,ISIC_0010886.JPG,13,ISIC_6914698.JPG,ISIC_0010886.JPG,false,1,keypress(m),500,1763649,1763648.0000000002,1760292,1760277,1760308,1763672,8,400,38,,ISIC_6914698.JPG
break,html.Screen,4_137_1,2023-11-02T03:17:33.222Z,,0,,,NaN,,,,,,false,,,,1763650,1763649,,1763649,,1763672,8,400,,,
break_continue,html.Screen,4_137_2,2023-11-02T03:17:33.222Z,,0,,,NaN,,,,,,false,,,,1763650,1763650,,1763650,,1763672,8,400,,,
sequence,flow.Sequence,4_137,2023-11-02T03:17:33.223Z,,0,,,3342,completion,,,,,false,,,,1763650,1763650,1760292,1760277,1760308,1763672,8,400,,,
trial,html.Screen,4_138_0,2023-11-02T03:17:36.262Z,,0,3,,3033,response,ISIC_1285870.JPG,10,ISIC_0061336.JPG,ISIC_0061336.JPG,false,0,keypress(z),500,1766689,1766689,1763656,1763650,1763672,1766721,8,400,39,,ISIC_1285870.JPG
break,html.Screen,4_138_1,2023-11-02T03:17:36.262Z,,0,,,NaN,,,,,,false,,,,1766690,1766690,,1766689,,1766721,8,400,,,
break_continue,html.Screen,4_138_2,2023-11-02T03:17:36.263Z,,0,,,NaN,,,,,,false,,,,1766690,1766690,,1766690,,1766721,8,400,,,
sequence,flow.Sequence,4_138,2023-11-02T03:17:36.263Z,,0,,,3018,completion,,,,,false,,,,1766690,1766690,1763656,1763650,1763672,1766721,8,400,,,
trial,html.Screen,4_139_0,2023-11-02T03:17:39.023Z,,0,3,,2746,response,ISIC_2372468.JPG,10,ISIC_0031350.JPG,ISIC_0031350.JPG,false,0,keypress(z),500,1769451,1769450,1766704,1766691,1766721,1769486,8,400,40,,ISIC_2372468.JPG
break,html.Screen,4_139_1,2023-11-02T03:17:39.024Z,,0,,,NaN,,,,,,false,,,,1769452,1769451,,1769451,,1769486,8,400,,,
break_continue,html.Screen,4_139_2,2023-11-02T03:17:39.024Z,,0,,,NaN,,,,,,false,,,,1769452,1769452,,1769452,,1769486,8,400,,,
sequence,flow.Sequence,4_139,2023-11-02T03:17:39.025Z,,0,,,2731,completion,,,,,false,,,,1769452,1769452,1766704,1766691,1766721,1769486,8,400,,,
trial,html.Screen,4_140_0,2023-11-02T03:17:41.588Z,,0,3,,2547,response,ISIC_4417495.JPG,15,ISIC_4863784.JPG,ISIC_4417495.JPG,false,1,keypress(m),500,1772016,1772015,1769468,1769452,1769486,1772051,8,400,41,,ISIC_4863784.JPG
break,html.Screen,4_140_1,2023-11-02T03:17:41.589Z,,0,,,NaN,,,,,,false,,,,1772016,1772016,,1772016,,1772051,8,400,,,
break_continue,html.Screen,4_140_2,2023-11-02T03:17:41.589Z,,0,,,NaN,,,,,,false,,,,1772017,1772016,,1772016,,1772051,8,400,,,
sequence,flow.Sequence,4_140,2023-11-02T03:17:41.589Z,,0,,,2530,completion,,,,,false,,,,1772017,1772016,1769468,1769452,1769486,1772051,8,400,,,
trial,html.Screen,4_141_0,2023-11-02T03:17:44.592Z,,0,3,,2987,response,ISIC_8822331.JPG,15,ISIC_3416107.JPG,ISIC_8822331.JPG,false,1,keypress(m),500,1775020,1775020,1772033,1772017,1772051,1775049,8,400,42,,ISIC_3416107.JPG
break,html.Screen,4_141_1,2023-11-02T03:17:44.593Z,,0,,,NaN,,,,,,false,,,,1775021,1775020,,1775020,,1775049,8,400,,,
break_continue,html.Screen,4_141_2,2023-11-02T03:17:44.595Z,,0,,,NaN,,,,,,false,,,,1775023.0000000002,1775021,,1775021,,1775049,8,400,,,
sequence,flow.Sequence,4_141,2023-11-02T03:17:44.598Z,,0,,,2970,completion,,,,,false,,,,1775026,1775021,1772033,1772017,1772051,1775049,8,400,,,
trial,html.Screen,4_142_0,2023-11-02T03:17:47.661Z,,0,3,,3058,response,ISIC_0057949.JPG,1,ISIC_8650269.JPG,ISIC_8650269.JPG,false,0,keypress(z),500,1778089,1778089,1775031,1775026,1775049,1778113,8,400,43,,ISIC_0057949.JPG
break,html.Screen,4_142_1,2023-11-02T03:17:47.662Z,,0,,,NaN,,,,,,false,,,,1778090.0000000002,1778090.0000000002,,1778089,,1778113,8,400,,,
break_continue,html.Screen,4_142_2,2023-11-02T03:17:47.662Z,,0,,,NaN,,,,,,false,,,,1778090.0000000002,1778090.0000000002,,1778090.0000000002,,1778113,8,400,,,
sequence,flow.Sequence,4_142,2023-11-02T03:17:47.662Z,,0,,,3041.000000000233,completion,,,,,false,,,,1778090.0000000002,1778090.0000000002,1775031,1775026,1775049,1778113,8,400,,,
trial,html.Screen,4_143_0,2023-11-02T03:17:50.877Z,,0,3,,3209,response,ISIC_0054528.JPG,0,ISIC_0033206.JPG,ISIC_0054528.JPG,false,1,keypress(m),500,1781305,1781305,1778096,1778090.0000000002,1778113,1781328,8,400,44,,ISIC_0033206.JPG
break,html.Screen,4_143_1,2023-11-02T03:17:50.877Z,,0,,,NaN,,,,,,false,,,,1781306,1781305,,1781305,,1781328,8,400,,,
break_continue,html.Screen,4_143_2,2023-11-02T03:17:50.878Z,,0,,,NaN,,,,,,false,,,,1781306,1781306,,1781306,,1781328,8,400,,,
sequence,flow.Sequence,4_143,2023-11-02T03:17:50.878Z,,0,,,3193,completion,,,,,false,,,,1781306,1781306,1778096,1778090.0000000002,1778113,1781328,8,400,,,
trial,html.Screen,4_144_0,2023-11-02T03:17:54.321Z,,0,3,,3440,response,ISIC_5404908.JPG,1,ISIC_0030780.JPG,ISIC_5404908.JPG,false,1,keypress(m),500,1784750,1784750,1781310,1781306,1781328,1784774,8,400,45,,ISIC_0030780.JPG
break,html.Screen,4_144_1,2023-11-02T03:17:54.322Z,,0,,,NaN,,,,,,false,,,,1784751,1784750,,1784750,,1784774,8,400,,,
break_continue,html.Screen,4_144_2,2023-11-02T03:17:54.322Z,,0,,,NaN,,,,,,false,,,,1784751,1784751,,1784751,,1784774,8,400,,,
sequence,flow.Sequence,4_144,2023-11-02T03:17:54.322Z,,0,,,3423,completion,,,,,false,,,,1784751,1784751,1781310,1781306,1781328,1784774,8,400,,,
trial,html.Screen,4_145_0,2023-11-02T03:17:57.169Z,,0,3,,2839,response,ISIC_0055797.JPG,1,ISIC_7997132.JPG,ISIC_0055797.JPG,false,1,keypress(m),500,1787597,1787597,1784758,1784751,1784774,1787624,8,400,46,,ISIC_7997132.JPG
break,html.Screen,4_145_1,2023-11-02T03:17:57.169Z,,0,,,NaN,,,,,,false,,,,1787598,1787598,,1787597,,1787624,8,400,,,
break_continue,html.Screen,4_145_2,2023-11-02T03:17:57.170Z,,0,,,NaN,,,,,,false,,,,1787598,1787598,,1787598,,1787624,8,400,,,
sequence,flow.Sequence,4_145,2023-11-02T03:17:57.170Z,,0,,,2824,completion,,,,,false,,,,1787599,1787598,1784758,1784751,1784774,1787624,8,400,,,
trial,html.Screen,4_146_0,2023-11-02T03:18:00.003Z,,0,3,,2826,response,ISIC_0056501.JPG,6,ISIC_0485996.JPG,ISIC_0485996.JPG,false,0,keypress(z),500,1790432,1790432,1787606,1787599,1787624,1790454,8,400,47,,ISIC_0056501.JPG
break,html.Screen,4_146_1,2023-11-02T03:18:00.004Z,,0,,,NaN,,,,,,false,,,,1790432,1790432,,1790432,,1790454,8,400,,,
break_continue,html.Screen,4_146_2,2023-11-02T03:18:00.004Z,,0,,,NaN,,,,,,false,,,,1790433,1790433,,1790432,,1790454,8,400,,,
sequence,flow.Sequence,4_146,2023-11-02T03:18:00.004Z,,0,,,2809,completion,,,,,false,,,,1790433,1790433,1787606,1787599,1787624,1790454,8,400,,,
trial,html.Screen,4_147_0,2023-11-02T03:18:03.188Z,,0,3,,3179,response,ISIC_0068438.JPG,3,ISIC_3743283.JPG,ISIC_0068438.JPG,false,1,keypress(m),500,1793617,1793617,1790438,1790433,1790454,1793652,8,400,48,,ISIC_3743283.JPG
break,html.Screen,4_147_1,2023-11-02T03:18:03.189Z,,0,,,NaN,,,,,,false,,,,1793618,1793618,,1793617,,1793652,8,400,,,
break_continue,html.Screen,4_147_2,2023-11-02T03:18:03.189Z,,0,,,NaN,,,,,,false,,,,1793618,1793618,,1793618,,1793652,8,400,,,
sequence,flow.Sequence,4_147,2023-11-02T03:18:03.189Z,,0,,,3164,completion,,,,,false,,,,1793618,1793618,1790438,1790433,1790454,1793652,8,400,,,
trial,html.Screen,4_148_0,2023-11-02T03:18:05.964Z,,0,3,,2757,response,ISIC_4804158.JPG,15,ISIC_0065346.JPG,ISIC_0065346.JPG,false,0,keypress(z),500,1796393,1796393,1793636,1793618,1793652,1796417,8,400,49,,ISIC_4804158.JPG
break,html.Screen,4_148_1,2023-11-02T03:18:05.965Z,,0,,,NaN,,,,,,false,,,,1796394,1796393,,1796393,,1796417,8,400,,,
break_continue,html.Screen,4_148_2,2023-11-02T03:18:05.965Z,,0,,,NaN,,,,,,false,,,,1796394,1796394,,1796394,,1796417,8,400,,,
sequence,flow.Sequence,4_148,2023-11-02T03:18:05.965Z,,0,,,2742,completion,,,,,false,,,,1796394,1796394,1793636,1793618,1793652,1796417,8,400,,,
trial,html.Screen,4_149_0,2023-11-02T03:18:09.429Z,,0,3,,3457,response,ISIC_6784593.JPG,11,ISIC_5611515.JPG,ISIC_5611515.JPG,false,0,keypress(z),500,1799859.0000000002,1799858,1796401,1796394,1796417,1799882,8,400,50,,ISIC_6784593.JPG
break,html.Screen,4_149_1,2023-11-02T03:18:19.429Z,,0,,,9994,timeout,,,,,false,,,,1809859.0000000002,1809858,1799865,1799859.0000000002,1799882,1809876,8,400,,,
break_continue,html.Screen,4_149_2,2023-11-02T03:18:19.899Z,,0,,,538,response,,,,,false,continue,keypress(Space),,1810329,1810396,1809858,1809859.0000000002,1809876,1810358,8,400,,,
sequence,flow.Sequence,4_149,2023-11-02T03:18:19.899Z,,0,,,13979,completion,,,,,false,,,,1810329,1810396,1796401,1796394,1796417,1810358,8,400,,,
trial,html.Screen,4_150_0,2023-11-02T03:18:22.934Z,,0,4,,3022,response,ISIC_7334117.JPG,5,ISIC_9828053.JPG,ISIC_7334117.JPG,false,1,keypress(m),500,1813364,1813363,1810341,1810329,1810358,1813389,8,400,1,,ISIC_9828053.JPG
break,html.Screen,4_150_1,2023-11-02T03:18:22.934Z,,0,,,NaN,,,,,,false,,,,1813364,1813364,,1813364,,1813389,8,400,,,
break_continue,html.Screen,4_150_2,2023-11-02T03:18:22.935Z,,0,,,NaN,,,,,,false,,,,1813365,1813364,,1813364,,1813389,8,400,,,
sequence,flow.Sequence,4_150,2023-11-02T03:18:22.935Z,,0,,,3006,completion,,,,,false,,,,1813365,1813364,1810341,1810329,1810358,1813389,8,400,,,
trial,html.Screen,4_151_0,2023-11-02T03:18:25.790Z,,0,4,,2846,response,ISIC_8181142.JPG,5,ISIC_8073555.JPG,ISIC_8181142.JPG,false,1,keypress(m),500,1816220,1816219,1813373,1813365,1813389,1816254,8,400,2,,ISIC_8073555.JPG
break,html.Screen,4_151_1,2023-11-02T03:18:25.790Z,,0,,,NaN,,,,,,false,,,,1816221,1816220,,1816220,,1816254,8,400,,,
break_continue,html.Screen,4_151_2,2023-11-02T03:18:25.791Z,,0,,,NaN,,,,,,false,,,,1816221,1816221,,1816221,,1816254,8,400,,,
sequence,flow.Sequence,4_151,2023-11-02T03:18:25.791Z,,0,,,2832,completion,,,,,false,,,,1816221,1816221,1813373,1813365,1813389,1816254,8,400,,,
trial,html.Screen,4_152_0,2023-11-02T03:18:28.722Z,,0,4,,2913,response,ISIC_9227392.JPG,13,ISIC_0000541.JPG,ISIC_9227392.JPG,false,1,keypress(m),500,1819153,1819152,1816239,1816221,1816254,1819185,8,400,3,,ISIC_0000541.JPG
break,html.Screen,4_152_1,2023-11-02T03:18:28.723Z,,0,,,NaN,,,,,,false,,,,1819153,1819153,,1819153,,1819185,8,400,,,
break_continue,html.Screen,4_152_2,2023-11-02T03:18:28.723Z,,0,,,NaN,,,,,,false,,,,1819154,1819153,,1819153,,1819185,8,400,,,
sequence,flow.Sequence,4_152,2023-11-02T03:18:28.723Z,,0,,,2899,completion,,,,,false,,,,1819154,1819153,1816239,1816221,1816254,1819185,8,400,,,
trial,html.Screen,4_153_0,2023-11-02T03:18:31.756Z,,0,4,,3017.000000000233,response,ISIC_4964478.JPG,15,ISIC_0029814.JPG,ISIC_4964478.JPG,false,1,keypress(m),500,1822186.0000000002,1822186.0000000002,1819169,1819154,1819185,1822217,8,400,4,,ISIC_0029814.JPG
break,html.Screen,4_153_1,2023-11-02T03:18:31.756Z,,0,,,NaN,,,,,,false,,,,1822187.0000000002,1822186.0000000002,,1822186.0000000002,,1822217,8,400,,,
break_continue,html.Screen,4_153_2,2023-11-02T03:18:31.756Z,,0,,,NaN,,,,,,false,,,,1822187.0000000002,1822187.0000000002,,1822187.0000000002,,1822217,8,400,,,
sequence,flow.Sequence,4_153,2023-11-02T03:18:31.757Z,,0,,,3002.000000000233,completion,,,,,false,,,,1822187.0000000002,1822187.0000000002,1819169,1819154,1819185,1822217,8,400,,,
trial,html.Screen,4_154_0,2023-11-02T03:18:34.769Z,,0,4,,2998,response,ISIC_0026356.JPG,12,ISIC_0002349.JPG,ISIC_0002349.JPG,false,0,keypress(z),500,1825200,1825199,1822201,1822187.0000000002,1822217,1825232,8,400,5,,ISIC_0026356.JPG
break,html.Screen,4_154_1,2023-11-02T03:18:34.770Z,,0,,,NaN,,,,,,false,,,,1825200,1825200,,1825200,,1825232,8,400,,,
break_continue,html.Screen,4_154_2,2023-11-02T03:18:34.770Z,,0,,,NaN,,,,,,false,,,,1825200,1825200,,1825200,,1825232,8,400,,,
sequence,flow.Sequence,4_154,2023-11-02T03:18:34.770Z,,0,,,2983,completion,,,,,false,,,,1825201,1825200,1822201,1822187.0000000002,1822217,1825232,8,400,,,
trial,html.Screen,4_155_0,2023-11-02T03:18:38.676Z,,0,4,,3891,response,ISIC_0010416.JPG,15,ISIC_0067953.JPG,ISIC_0010416.JPG,false,1,keypress(m),500,1829107,1829106,1825215,1825201,1825232,1829128,8,400,6,,ISIC_0067953.JPG
break,html.Screen,4_155_1,2023-11-02T03:18:38.676Z,,0,,,NaN,,,,,,false,,,,1829107,1829107,,1829107,,1829128,8,400,,,
break_continue,html.Screen,4_155_2,2023-11-02T03:18:38.677Z,,0,,,NaN,,,,,,false,,,,1829107,1829107,,1829107,,1829128,8,400,,,
sequence,flow.Sequence,4_155,2023-11-02T03:18:38.677Z,,0,,,3875,completion,,,,,false,,,,1829108,1829107,1825215,1825201,1825232,1829128,8,400,,,
