sender,sender_type,sender_id,timestamp,meta,,blockNo,condition,duration,ended_on,img_left,img_reveal,img_right,loser,practice,response,response_action,selection_duration,time_commit,time_end,time_render,time_run,time_show,time_switch,total_blocks,total_trials,trialNo,url,winner
informed_consent,html.Screen,0,2023-09-16T01:40:09.663Z,"{""labjs_version"":""20.2.4"",""labjs_build"":{""flavor"":""production"",""commit"":""f5b4a49f956347addd546a832a3327688c2c0fef""},""location"":""https://run.pavlovia.org/MurrayBennett/melanoma-2afc/?participant=65709&platform=sona"",""userAgent"":""Mozilla/5.0 (Windows NT 10.0; Win64; x64) AppleWebKit/537.36 (KHTML, like Gecko) Chrome/116.0.0.0 Safari/537.36"",""platform"":""Win32"",""language"":""en-US"",""locale"":""en-US"",""timeZone"":""America/Chicago"",""timezoneOffset"":300,""screen_width"":1920,""screen_height"":1080,""scroll_width"":1920,""scroll_height"":915,""window_innerWidth"":1920,""window_innerHeight"":963,""devicePixelRatio"":1}",,,,3888.751999976158,response,,,,,,consent,click button,,5535.199999988079,5534.399999976158,1628.966,1639,1645.648,5549.623,,,,"{""participant"":""65709"",""platform"":""sona""}",
Welcome,html.Screen,1,2023-09-16T01:41:45.686Z,,,,asymmetry,96007.47699996424,response,,,,,,continue,click button,,101557.69999998808,101557.09999996424,5533.082,5535.399999976158,5549.623,101564.386,,,,,
trial,html.Screen,2_0_0,2023-09-16T01:41:52.841Z,,0,0,,7148.5139999761595,response,ISIC_6997061.JPG,,ISIC_0069348.JPG,ISIC_6997061.JPG,true,1,keypress(m),500,108713.09999996424,108712.89999997616,101547.731,101557.80000001192,101564.386,108721.636,1,6,1,,ISIC_0069348.JPG
sequence,flow.Sequence,2_0,2023-09-16T01:41:52.841Z,,0,,,7148.5139999761595,completion,,,,,true,,,,108713.19999998808,108712.89999997616,101547.731,101557.80000001192,101564.386,108721.636,1,6,,,
trial,html.Screen,2_1_0,2023-09-16T01:41:57.903Z,,0,0,,5053.0639999880805,response,ISIC_0009529.JPG,,ISIC_0057368.JPG,ISIC_0009529.JPG,true,1,keypress(m),500,113774.89999997616,113774.69999998808,108705.029,108713.30000001192,108721.636,113776.806,1,6,2,,ISIC_0057368.JPG
sequence,flow.Sequence,2_1,2023-09-16T01:41:57.903Z,,0,,,5053.0639999880805,completion,,,,,true,,,,113775,113774.69999998808,108705.029,108713.30000001192,108721.636,113776.806,1,6,,,
trial,html.Screen,2_2_0,2023-09-16T01:42:05.385Z,,0,0,,7479.093999976161,response,ISIC_9758671.JPG,,ISIC_0064954.JPG,ISIC_0064954.JPG,true,0,keypress(z),500,121256.39999997616,121255.89999997616,113760.085,113775.19999998808,113776.806,121267.839,1,6,3,,ISIC_9758671.JPG
sequence,flow.Sequence,2_2,2023-09-16T01:42:05.385Z,,0,,,7479.093999976161,completion,,,,,true,,,,121256.80000001192,121255.89999997616,113760.085,113775.19999998808,113776.806,121267.839,1,6,,,
trial,html.Screen,2_3_0,2023-09-16T01:42:10.333Z,,0,0,,4936.060999976151,response,ISIC_0000080.JPG,,ISIC_0005785.JPG,ISIC_0000080.JPG,true,1,keypress(m),500,126204.19999998808,126203.89999997616,121251.1,121257.19999998808,121267.839,126223.478,1,6,4,,ISIC_0005785.JPG
sequence,flow.Sequence,2_3,2023-09-16T01:42:10.333Z,,0,,,4936.060999976151,completion,,,,,true,,,,126204.89999997616,126203.89999997616,121251.1,121257.09999996424,121267.839,126223.478,1,6,,,
trial,html.Screen,2_4_0,2023-09-16T01:42:15.060Z,,0,0,,4708.322000011918,response,ISIC_7944028.JPG,,ISIC_5390060.JPG,ISIC_7944028.JPG,true,1,keypress(m),500,130932,130931.80000001192,126189.575,126205.30000001192,126223.478,130944.289,1,6,5,,ISIC_5390060.JPG
sequence,flow.Sequence,2_4,2023-09-16T01:42:15.061Z,,0,,,4708.322000011918,completion,,,,,true,,,,130932.09999996424,130931.80000001192,126189.575,126205.09999996424,126223.478,130944.289,1,6,,,
trial,html.Screen,2_5_0,2023-09-16T01:42:19.931Z,,0,0,,4857.610999976154,response,ISIC_0010188.JPG,,ISIC_0794216.JPG,ISIC_0794216.JPG,true,0,keypress(z),500,135802.30000001192,135801.89999997616,130927.747,130932.19999998808,130944.289,135815.989,1,6,6,,ISIC_0010188.JPG
sequence,flow.Sequence,2_5,2023-09-16T01:42:19.931Z,,0,,,4857.610999976154,completion,,,,,true,,,,135803,135801.89999997616,130927.747,130932.19999998808,130944.289,135815.989,1,6,,,
loop,flow.Loop,2,2023-09-16T01:42:19.932Z,,,,,34237.51399997616,completion,,,,,true,,,,135803.39999997616,135801.89999997616,101547.731,101557.80000001192,101564.386,135815.989,1,6,,,
exp_instructions,html.Screen,3,2023-09-16T01:42:36.616Z,,,,,16670.910999976157,response,,,,,,continue,keypress(Space),,152487.39999997616,152486.89999997616,135799.268,135803.59999996424,135815.989,152499.717,,,,,
trial,html.Screen,4_0_0,2023-09-16T01:42:42.864Z,,0,1,,6236.182999976154,response,ISIC_3474472.JPG,5,ISIC_1387456.JPG,ISIC_1387456.JPG,false,0,keypress(z),500,158736,158735.89999997616,152482.508,152487.5,152499.717,158739.397,8,400,1,,ISIC_3474472.JPG
break,html.Screen,4_0_1,2023-09-16T01:42:42.865Z,,0,,,NaN,,,,,,false,,,,158736.59999996424,158736.5,,158736.09999996424,,158739.397,8,400,,,
break_continue,html.Screen,4_0_2,2023-09-16T01:42:42.865Z,,0,,,NaN,,,,,,false,,,,158736.80000001192,158736.80000001192,,158736.69999998808,,158739.397,8,400,,,
sequence,flow.Sequence,4_0,2023-09-16T01:42:42.865Z,,0,,,6237.083000011917,completion,,,,,false,,,,158737,158736.80000001192,152482.508,152487.39999997616,152499.717,158739.397,8,400,,,
trial,html.Screen,4_1_0,2023-09-16T01:42:48.233Z,,0,1,,5365.403000011924,response,ISIC_0024826.JPG,4,ISIC_1605945.JPG,ISIC_0024826.JPG,false,1,keypress(m),500,164104.89999997616,164104.80000001192,158722.745,158737,158739.397,164111.527,8,400,2,,ISIC_1605945.JPG
break,html.Screen,4_1_1,2023-09-16T01:42:48.234Z,,0,,,NaN,,,,,,false,,,,164105.30000001192,164105.19999998808,,164104.89999997616,,164111.527,8,400,,,
break_continue,html.Screen,4_1_2,2023-09-16T01:42:48.234Z,,0,,,NaN,,,,,,false,,,,164105.5,164105.5,,164105.30000001192,,164111.527,8,400,,,
sequence,flow.Sequence,4_1,2023-09-16T01:42:48.234Z,,0,,,5366.103000000003,completion,,,,,false,,,,164105.5,164105.5,158722.745,158737,158739.397,164111.527,8,400,,,
trial,html.Screen,4_2_0,2023-09-16T01:42:53.195Z,,0,1,,4955.273000011919,response,ISIC_1436929.JPG,5,ISIC_0060893.JPG,ISIC_1436929.JPG,false,1,keypress(m),500,169067,169066.80000001192,164094.818,164105.59999996424,164111.527,169083.348,8,400,3,,ISIC_0060893.JPG
break,html.Screen,4_2_1,2023-09-16T01:42:53.196Z,,0,,,NaN,,,,,,false,,,,169067.59999996424,169067.5,,169067.09999996424,,169083.348,8,400,,,
break_continue,html.Screen,4_2_2,2023-09-16T01:42:53.196Z,,0,,,NaN,,,,,,false,,,,169067.89999997616,169067.80000001192,,169067.69999998808,,169083.348,8,400,,,
sequence,flow.Sequence,4_2,2023-09-16T01:42:53.196Z,,0,,,4956.273000011919,completion,,,,,false,,,,169068,169067.80000001192,164094.818,164105.59999996424,164111.527,169083.348,8,400,,,
trial,html.Screen,4_3_0,2023-09-16T01:43:00.495Z,,0,1,,7282.652000000002,response,ISIC_0026407.JPG,5,ISIC_0027951.JPG,ISIC_0027951.JPG,false,0,keypress(z),500,176366.30000001192,176366,169066.698,169068.09999996424,169083.348,176374.175,8,400,4,,ISIC_0026407.JPG
break,html.Screen,4_3_1,2023-09-16T01:43:00.496Z,,0,,,NaN,,,,,,false,,,,176367.89999997616,176367.39999997616,,176366.59999996424,,176374.175,8,400,,,
break_continue,html.Screen,4_3_2,2023-09-16T01:43:00.497Z,,0,,,NaN,,,,,,false,,,,176368.69999998808,176368.5,,176368.09999996424,,176374.175,8,400,,,
sequence,flow.Sequence,4_3,2023-09-16T01:43:00.497Z,,0,,,7285.152000000002,completion,,,,,false,,,,176369,176368.5,169066.698,169068.09999996424,169083.348,176374.175,8,400,,,
trial,html.Screen,4_4_0,2023-09-16T01:43:04.453Z,,0,1,,3950.72499997617,response,ISIC_4042619.JPG,5,ISIC_2293230.JPG,ISIC_2293230.JPG,false,0,keypress(z),500,180325,180324.89999997616,176357.462,176369.30000001192,176374.175,180328.073,8,400,5,,ISIC_4042619.JPG
break,html.Screen,4_4_1,2023-09-16T01:43:04.454Z,,0,,,NaN,,,,,,false,,,,180325.39999997616,180325.30000001192,,180325.09999996424,,180328.073,8,400,,,
break_continue,html.Screen,4_4_2,2023-09-16T01:43:04.454Z,,0,,,NaN,,,,,,false,,,,180325.5,180325.5,,180325.5,,180328.073,8,400,,,
sequence,flow.Sequence,4_4,2023-09-16T01:43:04.454Z,,0,,,3951.3250000000116,completion,,,,,false,,,,180325.59999996424,180325.5,176357.462,176369.19999998808,176374.175,180328.073,8,400,,,
trial,html.Screen,4_5_0,2023-09-16T01:43:09.273Z,,0,1,,4815.926999999996,response,ISIC_0027769.JPG,5,ISIC_0070852.JPG,ISIC_0027769.JPG,false,1,keypress(m),500,185144.30000001192,185144,180311.479,180325.59999996424,180328.073,185149.812,8,400,6,,ISIC_0070852.JPG
break,html.Screen,4_5_1,2023-09-16T01:43:09.275Z,,0,,,NaN,,,,,,false,,,,185146.30000001192,185145.69999998808,,185144.59999996424,,185149.812,8,400,,,
break_continue,html.Screen,4_5_2,2023-09-16T01:43:09.276Z,,0,,,NaN,,,,,,false,,,,185147.30000001192,185147.09999996424,,185146.59999996424,,185149.812,8,400,,,
sequence,flow.Sequence,4_5,2023-09-16T01:43:09.276Z,,0,,,4819.026999964233,completion,,,,,false,,,,185147.69999998808,185147.09999996424,180311.479,180325.59999996424,180328.073,185149.812,8,400,,,
trial,html.Screen,4_6_0,2023-09-16T01:43:14.239Z,,0,1,,4961.087999976153,response,ISIC_0058186.JPG,6,ISIC_0058496.JPG,ISIC_0058186.JPG,false,1,keypress(m),500,190111.09999996424,190110.89999997616,185133.109,185147.89999997616,185149.812,190121.488,8,400,7,,ISIC_0058496.JPG
break,html.Screen,4_6_1,2023-09-16T01:43:14.240Z,,0,,,NaN,,,,,,false,,,,190111.39999997616,190111.30000001192,,190111.09999996424,,190121.488,8,400,,,
break_continue,html.Screen,4_6_2,2023-09-16T01:43:14.240Z,,0,,,NaN,,,,,,false,,,,190111.5,190111.5,,190111.39999997616,,190121.488,8,400,,,
sequence,flow.Sequence,4_6,2023-09-16T01:43:14.240Z,,0,,,4961.687999999995,completion,,,,,false,,,,190111.69999998808,190111.5,185133.109,185147.89999997616,185149.812,190121.488,8,400,,,
trial,html.Screen,4_7_0,2023-09-16T01:43:21.073Z,,0,1,,6823.511999999988,response,ISIC_0061441.JPG,6,ISIC_0061936.JPG,ISIC_0061936.JPG,false,0,keypress(z),500,196945.09999996424,196945,190104.821,190111.69999998808,190121.488,196961.855,8,400,8,,ISIC_0061441.JPG
break,html.Screen,4_7_1,2023-09-16T01:43:21.074Z,,0,,,NaN,,,,,,false,,,,196945.5,196945.39999997616,,196945.19999998808,,196961.855,8,400,,,
break_continue,html.Screen,4_7_2,2023-09-16T01:43:21.074Z,,0,,,NaN,,,,,,false,,,,196945.59999996424,196945.59999996424,,196945.5,,196961.855,8,400,,,
sequence,flow.Sequence,4_7,2023-09-16T01:43:21.074Z,,0,,,6824.111999964225,completion,,,,,false,,,,196945.69999998808,196945.59999996424,190104.821,190111.69999998808,190121.488,196961.855,8,400,,,
trial,html.Screen,4_8_0,2023-09-16T01:43:26.420Z,,0,1,,5329.94500001191,response,ISIC_7515794.JPG,6,ISIC_0068168.JPG,ISIC_7515794.JPG,false,1,keypress(m),500,202291.89999997616,202291.80000001192,196945.083,196945.69999998808,196961.855,202300.566,8,400,9,,ISIC_0068168.JPG
break,html.Screen,4_8_1,2023-09-16T01:43:26.421Z,,0,,,NaN,,,,,,false,,,,202292.30000001192,202292.19999998808,,202292,,202300.566,8,400,,,
break_continue,html.Screen,4_8_2,2023-09-16T01:43:26.421Z,,0,,,NaN,,,,,,false,,,,202292.59999996424,202292.59999996424,,202292.5,,202300.566,8,400,,,
sequence,flow.Sequence,4_8,2023-09-16T01:43:26.421Z,,0,,,5330.744999964227,completion,,,,,false,,,,202292.59999996424,202292.59999996424,196945.083,196945.69999998808,196961.855,202300.566,8,400,,,
trial,html.Screen,4_9_0,2023-09-16T01:43:31.752Z,,0,1,,5322.3339999761665,response,ISIC_0072221.JPG,6,ISIC_0012708.JPG,ISIC_0012708.JPG,false,0,keypress(z),500,207623.19999998808,207622.89999997616,202283.96,202292.69999998808,202300.566,207639.297,8,400,10,,ISIC_0072221.JPG
break,html.Screen,4_9_1,2023-09-16T01:43:31.753Z,,0,,,NaN,,,,,,false,,,,207625,207624.39999997616,,207623.59999996424,,207639.297,8,400,,,
break_continue,html.Screen,4_9_2,2023-09-16T01:43:31.754Z,,0,,,NaN,,,,,,false,,,,207625.69999998808,207625.59999996424,,207625.19999998808,,207639.297,8,400,,,
sequence,flow.Sequence,4_9,2023-09-16T01:43:31.754Z,,0,,,5325.033999964246,completion,,,,,false,,,,207626.09999996424,207625.59999996424,202283.96,202292.59999996424,202300.566,207639.297,8,400,,,
trial,html.Screen,4_10_0,2023-09-16T01:43:39.055Z,,0,1,,7287.5030000119295,response,ISIC_3058800.JPG,4,ISIC_5771106.JPG,ISIC_5771106.JPG,false,0,keypress(z),500,214927.09999996424,214926.80000001192,207622.702,207626.30000001192,207639.297,214930.201,8,400,11,,ISIC_3058800.JPG
break,html.Screen,4_10_1,2023-09-16T01:43:39.057Z,,0,,,NaN,,,,,,false,,,,214929,214928.5,,214927.5,,214930.201,8,400,,,
break_continue,html.Screen,4_10_2,2023-09-16T01:43:39.058Z,,0,,,NaN,,,,,,false,,,,214929.80000001192,214929.59999996424,,214929.30000001192,,214930.201,8,400,,,
sequence,flow.Sequence,4_10,2023-09-16T01:43:39.059Z,,0,,,7290.302999964246,completion,,,,,false,,,,214930.5,214929.59999996424,207622.702,207626.30000001192,207639.297,214930.201,8,400,,,
trial,html.Screen,4_11_0,2023-09-16T01:43:44.343Z,,0,1,,5283.798999999999,response,ISIC_0025499.JPG,5,ISIC_0054006.JPG,ISIC_0025499.JPG,false,1,keypress(m),500,220214.30000001192,220214,214913.548,214930.80000001192,214930.201,220218.946,8,400,12,,ISIC_0054006.JPG
break,html.Screen,4_11_1,2023-09-16T01:43:44.344Z,,0,,,NaN,,,,,,false,,,,220215.89999997616,220215.39999997616,,220214.59999996424,,220218.946,8,400,,,
break_continue,html.Screen,4_11_2,2023-09-16T01:43:44.347Z,,0,,,NaN,,,,,,false,,,,220218.5,220218.30000001192,,220217.69999998808,,220218.946,8,400,,,
sequence,flow.Sequence,4_11,2023-09-16T01:43:44.347Z,,0,,,5288.09900001192,completion,,,,,false,,,,220218.80000001192,220218.30000001192,214913.548,214930.69999998808,214930.201,220218.946,8,400,,,
trial,html.Screen,4_12_0,2023-09-16T01:43:49.734Z,,0,1,,5386.054000000004,response,ISIC_4298761.JPG,5,ISIC_9944714.JPG,ISIC_4298761.JPG,false,1,keypress(m),500,225605.19999998808,225605,220202.293,220219,220218.946,225607.736,8,400,13,,ISIC_9944714.JPG
break,html.Screen,4_12_1,2023-09-16T01:43:49.735Z,,0,,,NaN,,,,,,false,,,,225607,225606.5,,225605.59999996424,,225607.736,8,400,,,
break_continue,html.Screen,4_12_2,2023-09-16T01:43:49.736Z,,0,,,NaN,,,,,,false,,,,225607.69999998808,225607.39999997616,,225607.09999996424,,225607.736,8,400,,,
sequence,flow.Sequence,4_12,2023-09-16T01:43:49.736Z,,0,,,5388.453999976162,completion,,,,,false,,,,225608,225607.39999997616,220202.293,220218.89999997616,220218.946,225607.736,8,400,,,
trial,html.Screen,4_13_0,2023-09-16T01:43:55.851Z,,0,1,,6115.0640000119165,response,ISIC_0012740.JPG,4,ISIC_3378691.JPG,ISIC_0012740.JPG,false,1,keypress(m),500,231723,231722.80000001192,225591.052,225608.30000001192,225607.736,231730.621,8,400,14,,ISIC_3378691.JPG
break,html.Screen,4_13_1,2023-09-16T01:43:55.852Z,,0,,,NaN,,,,,,false,,,,231723.39999997616,231723.30000001192,,231723.09999996424,,231730.621,8,400,,,
break_continue,html.Screen,4_13_2,2023-09-16T01:43:55.852Z,,0,,,NaN,,,,,,false,,,,231723.69999998808,231723.5,,231723.5,,231730.621,8,400,,,
sequence,flow.Sequence,4_13,2023-09-16T01:43:55.852Z,,0,,,6115.763999999996,completion,,,,,false,,,,231723.69999998808,231723.5,225591.052,225608.09999996424,225607.736,231730.621,8,400,,,
trial,html.Screen,4_14_0,2023-09-16T01:44:03.070Z,,0,1,,7211.078999988065,response,ISIC_0033679.JPG,5,ISIC_0066532.JPG,ISIC_0033679.JPG,false,1,keypress(m),500,238941.80000001192,238941.69999998808,231713.887,231723.80000001192,231730.621,238954.601,8,400,15,,ISIC_0066532.JPG
break,html.Screen,4_14_1,2023-09-16T01:44:03.071Z,,0,,,NaN,,,,,,false,,,,238942.59999996424,238942.39999997616,,238942,,238954.601,8,400,,,
break_continue,html.Screen,4_14_2,2023-09-16T01:44:03.071Z,,0,,,NaN,,,,,,false,,,,238942.80000001192,238942.69999998808,,238942.59999996424,,238954.601,8,400,,,
sequence,flow.Sequence,4_14,2023-09-16T01:44:03.071Z,,0,,,7212.078999988065,completion,,,,,false,,,,238942.89999997616,238942.69999998808,231713.887,231723.80000001192,231730.621,238954.601,8,400,,,
trial,html.Screen,4_15_0,2023-09-16T01:44:08.743Z,,0,1,,5660.199000011926,response,ISIC_0033800.JPG,5,ISIC_2470790.JPG,ISIC_2470790.JPG,false,0,keypress(z),500,244614.89999997616,244614.80000001192,238937.978,238943,238954.601,244627.09,8,400,16,,ISIC_0033800.JPG
break,html.Screen,4_15_1,2023-09-16T01:44:08.744Z,,0,,,NaN,,,,,,false,,,,244615.19999998808,244615.09999996424,,244615,,244627.09,8,400,,,
break_continue,html.Screen,4_15_2,2023-09-16T01:44:08.744Z,,0,,,NaN,,,,,,false,,,,244615.39999997616,244615.30000001192,,244615.30000001192,,244627.09,8,400,,,
sequence,flow.Sequence,4_15,2023-09-16T01:44:08.744Z,,0,,,5660.699000011926,completion,,,,,false,,,,244615.39999997616,244615.30000001192,238937.978,238943,238954.601,244627.09,8,400,,,
trial,html.Screen,4_16_0,2023-09-16T01:44:16.233Z,,0,1,,7477.710000011924,response,ISIC_0014860.JPG,5,ISIC_0064557.JPG,ISIC_0064557.JPG,false,0,keypress(z),500,252105.09999996424,252104.80000001192,244610.475,244615.5,244627.09,252118.112,8,400,17,,ISIC_0014860.JPG
break,html.Screen,4_16_1,2023-09-16T01:44:16.234Z,,0,,,NaN,,,,,,false,,,,252106.09999996424,252105.80000001192,,252105.30000001192,,252118.112,8,400,,,
break_continue,html.Screen,4_16_2,2023-09-16T01:44:16.235Z,,0,,,NaN,,,,,,false,,,,252106.59999996424,252106.5,,252106.19999998808,,252118.112,8,400,,,
sequence,flow.Sequence,4_16,2023-09-16T01:44:16.235Z,,0,,,7479.4100000000035,completion,,,,,false,,,,252107,252106.5,244610.475,244615.39999997616,244627.09,252118.112,8,400,,,
trial,html.Screen,4_17_0,2023-09-16T01:44:23.135Z,,0,1,,6887.688000011927,response,ISIC_1658623.JPG,6,ISIC_0192893.JPG,ISIC_1658623.JPG,false,1,keypress(m),500,259006.19999998808,259005.80000001192,252101.464,252107.19999998808,252118.112,259008.492,8,400,18,,ISIC_0192893.JPG
break,html.Screen,4_17_1,2023-09-16T01:44:23.136Z,,0,,,NaN,,,,,,false,,,,259007.80000001192,259007.39999997616,,259006.69999998808,,259008.492,8,400,,,
break_continue,html.Screen,4_17_2,2023-09-16T01:44:23.137Z,,0,,,NaN,,,,,,false,,,,259008.89999997616,259008.59999996424,,259008,,259008.492,8,400,,,
sequence,flow.Sequence,4_17,2023-09-16T01:44:23.137Z,,0,,,6890.4879999642435,completion,,,,,false,,,,259009.09999996424,259008.59999996424,252101.464,252107.09999996424,252118.112,259008.492,8,400,,,
trial,html.Screen,4_18_0,2023-09-16T01:44:28.404Z,,0,1,,5267.308000011923,response,ISIC_2232883.JPG,5,ISIC_0033238.JPG,ISIC_2232883.JPG,false,1,keypress(m),500,264276.09999996424,264275.8000000119,258991.828,259009.30000001192,259008.492,264280.537,8,400,19,,ISIC_0033238.JPG
break,html.Screen,4_18_1,2023-09-16T01:44:28.406Z,,0,,,NaN,,,,,,false,,,,264277.59999996424,264277.3000000119,,264276.39999997616,,264280.537,8,400,,,
break_continue,html.Screen,4_18_2,2023-09-16T01:44:28.407Z,,0,,,NaN,,,,,,false,,,,264278.3000000119,264278.09999996424,,264277.89999997616,,264280.537,8,400,,,
sequence,flow.Sequence,4_18,2023-09-16T01:44:28.407Z,,0,,,5269.607999964239,completion,,,,,false,,,,264278.5,264278.09999996424,258991.828,259009.30000001192,259008.492,264280.537,8,400,,,
trial,html.Screen,4_19_0,2023-09-16T01:44:33.613Z,,0,1,,5204.26300001191,response,ISIC_0003201.JPG,5,ISIC_0032892.JPG,ISIC_0003201.JPG,false,1,keypress(m),500,269485,269484.8000000119,264263.782,264278.6999999881,264280.537,269503.719,8,400,20,,ISIC_0032892.JPG
break,html.Screen,4_19_1,2023-09-16T01:44:33.614Z,,0,,,NaN,,,,,,false,,,,269485.39999997616,269485.39999997616,,269485.09999996424,,269503.719,8,400,,,
break_continue,html.Screen,4_19_2,2023-09-16T01:44:33.614Z,,0,,,NaN,,,,,,false,,,,269485.59999996424,269485.59999996424,,269485.5,,269503.719,8,400,,,
sequence,flow.Sequence,4_19,2023-09-16T01:44:33.614Z,,0,,,5205.062999964226,completion,,,,,false,,,,269485.6999999881,269485.59999996424,264263.782,264278.6999999881,264280.537,269503.719,8,400,,,
trial,html.Screen,4_20_0,2023-09-16T01:44:39.984Z,,0,1,,6352.081000011938,response,ISIC_8468512.JPG,5,ISIC_0029572.JPG,ISIC_0029572.JPG,false,0,keypress(z),500,275855.89999997616,275855.8000000119,269469.215,269485.8000000119,269503.719,275858.982,8,400,21,,ISIC_8468512.JPG
break,html.Screen,4_20_1,2023-09-16T01:44:39.985Z,,0,,,NaN,,,,,,false,,,,275856.5,275856.3000000119,,275856,,275858.982,8,400,,,
break_continue,html.Screen,4_20_2,2023-09-16T01:44:39.985Z,,0,,,NaN,,,,,,false,,,,275856.8000000119,275856.8000000119,,275856.6999999881,,275858.982,8,400,,,
sequence,flow.Sequence,4_20,2023-09-16T01:44:39.985Z,,0,,,6353.081000011938,completion,,,,,false,,,,275856.8000000119,275856.8000000119,269469.215,269485.6999999881,269503.719,275858.982,8,400,,,
trial,html.Screen,4_21_0,2023-09-16T01:44:43.944Z,,0,1,,3956.717999988061,response,ISIC_5396394.JPG,4,ISIC_2498215.JPG,ISIC_2498215.JPG,false,0,keypress(z),500,279815.8000000119,279815.6999999881,275842.263,275857,275858.982,279829.758,8,400,22,,ISIC_5396394.JPG
break,html.Screen,4_21_1,2023-09-16T01:44:43.945Z,,0,,,NaN,,,,,,false,,,,279816.3000000119,279816.09999996424,,279815.89999997616,,279829.758,8,400,,,
break_continue,html.Screen,4_21_2,2023-09-16T01:44:43.945Z,,0,,,NaN,,,,,,false,,,,279816.39999997616,279816.39999997616,,279816.3000000119,,279829.758,8,400,,,
sequence,flow.Sequence,4_21,2023-09-16T01:44:43.945Z,,0,,,3957.41799997614,completion,,,,,false,,,,279816.5,279816.39999997616,275842.263,275857,275858.982,279829.758,8,400,,,
trial,html.Screen,4_22_0,2023-09-16T01:44:48.893Z,,0,1,,4934.2420000000275,response,ISIC_0014434.JPG,5,ISIC_7586566.JPG,ISIC_0014434.JPG,false,1,keypress(m),500,284764.3000000119,284764,279813.108,279816.5,279829.758,284768.152,8,400,23,,ISIC_7586566.JPG
break,html.Screen,4_22_1,2023-09-16T01:44:48.894Z,,0,,,NaN,,,,,,false,,,,284765.6999999881,284765.39999997616,,284764.6999999881,,284768.152,8,400,,,
break_continue,html.Screen,4_22_2,2023-09-16T01:44:48.895Z,,0,,,NaN,,,,,,false,,,,284766.59999996424,284766.39999997616,,284766,,284768.152,8,400,,,
sequence,flow.Sequence,4_22,2023-09-16T01:44:48.895Z,,0,,,4936.641999976186,completion,,,,,false,,,,284766.89999997616,284766.39999997616,279813.108,279816.5,279829.758,284768.152,8,400,,,
trial,html.Screen,4_23_0,2023-09-16T01:44:53.508Z,,0,1,,4611.648000011919,response,ISIC_0064941.JPG,4,ISIC_0061152.JPG,ISIC_0064941.JPG,false,1,keypress(m),500,289380,289379.8000000119,284751.51,284767.1999999881,284768.152,289389.469,8,400,24,,ISIC_0061152.JPG
break,html.Screen,4_23_1,2023-09-16T01:44:53.509Z,,0,,,NaN,,,,,,false,,,,289380.89999997616,289380.59999996424,,289380.1999999881,,289389.469,8,400,,,
break_continue,html.Screen,4_23_2,2023-09-16T01:44:53.510Z,,0,,,NaN,,,,,,false,,,,289381.3000000119,289381.1999999881,,289381,,289389.469,8,400,,,
sequence,flow.Sequence,4_23,2023-09-16T01:44:53.510Z,,0,,,4613.047999988077,completion,,,,,false,,,,289381.39999997616,289381.1999999881,284751.51,284767.09999996424,284768.152,289389.469,8,400,,,
trial,html.Screen,4_24_0,2023-09-16T01:44:58.528Z,,0,1,,5010.031000000017,response,ISIC_0027956.JPG,5,ISIC_9358630.JPG,ISIC_9358630.JPG,false,0,keypress(z),500,294399.59999996424,294399.5,289372.862,289381.6999999881,289389.469,294411.265,8,400,25,,ISIC_0027956.JPG
break,html.Screen,4_24_1,2023-09-16T01:44:58.528Z,,0,,,NaN,,,,,,false,,,,294400.09999996424,294400,,294399.6999999881,,294411.265,8,400,,,
break_continue,html.Screen,4_24_2,2023-09-16T01:44:58.529Z,,0,,,NaN,,,,,,false,,,,294400.3000000119,294400.1999999881,,294400.1999999881,,294411.265,8,400,,,
sequence,flow.Sequence,4_24,2023-09-16T01:44:58.529Z,,0,,,5010.730999988096,completion,,,,,false,,,,294400.5,294400.1999999881,289372.862,289381.59999996424,289389.469,294411.265,8,400,,,
trial,html.Screen,4_25_0,2023-09-16T01:45:05.508Z,,0,1,,6967.634999976144,response,ISIC_0025817.JPG,6,ISIC_0011892.JPG,ISIC_0025817.JPG,false,1,keypress(m),500,301379.1999999881,301378.89999997616,294394.583,294400.5,294411.265,301385.023,8,400,26,,ISIC_0011892.JPG
break,html.Screen,4_25_1,2023-09-16T01:45:05.509Z,,0,,,NaN,,,,,,false,,,,301380.59999996424,301380.1999999881,,301379.5,,301385.023,8,400,,,
break_continue,html.Screen,4_25_2,2023-09-16T01:45:05.510Z,,0,,,NaN,,,,,,false,,,,301381.39999997616,301381.1999999881,,301380.8000000119,,301385.023,8,400,,,
sequence,flow.Sequence,4_25,2023-09-16T01:45:05.510Z,,0,,,6969.934999988065,completion,,,,,false,,,,301381.59999996424,301381.1999999881,294394.583,294400.5,294411.265,301385.023,8,400,,,
trial,html.Screen,4_26_0,2023-09-16T01:45:09.552Z,,0,1,,4038.5769999642507,response,ISIC_0010346.JPG,5,ISIC_2456538.JPG,ISIC_2456538.JPG,false,0,keypress(z),500,305423.8000000119,305423.59999996424,301368.445,301381.89999997616,301385.023,305439.224,8,400,27,,ISIC_0010346.JPG
break,html.Screen,4_26_1,2023-09-16T01:45:09.553Z,,0,,,NaN,,,,,,false,,,,305424.6999999881,305424.39999997616,,305424,,305439.224,8,400,,,
break_continue,html.Screen,4_26_2,2023-09-16T01:45:09.553Z,,0,,,NaN,,,,,,false,,,,305424.89999997616,305424.8000000119,,305424.6999999881,,305439.224,8,400,,,
sequence,flow.Sequence,4_26,2023-09-16T01:45:09.553Z,,0,,,4039.7770000119344,completion,,,,,false,,,,305425,305424.8000000119,301368.445,301381.8000000119,301385.023,305439.224,8,400,,,
trial,html.Screen,4_27_0,2023-09-16T01:45:13.476Z,,0,1,,3908.5760000119335,response,ISIC_5281485.JPG,5,ISIC_0013311.JPG,ISIC_0013311.JPG,false,0,keypress(z),500,309348,309347.8000000119,305422.589,305425.09999996424,305439.224,309359.903,8,400,28,,ISIC_5281485.JPG
break,html.Screen,4_27_1,2023-09-16T01:45:13.478Z,,0,,,NaN,,,,,,false,,,,309349.1999999881,309348.8000000119,,309348.3000000119,,309359.903,8,400,,,
break_continue,html.Screen,4_27_2,2023-09-16T01:45:13.478Z,,0,,,NaN,,,,,,false,,,,309349.8000000119,309349.5,,309349.39999997616,,309359.903,8,400,,,
sequence,flow.Sequence,4_27,2023-09-16T01:45:13.478Z,,0,,,3910.2760000000126,completion,,,,,false,,,,309349.89999997616,309349.5,305422.589,305425,305439.224,309359.903,8,400,,,
trial,html.Screen,4_28_0,2023-09-16T01:45:18.985Z,,0,1,,5496.89700001193,response,ISIC_0770920.JPG,5,ISIC_0033058.JPG,ISIC_0033058.JPG,false,0,keypress(z),500,314857.09999996424,314856.8000000119,309343.209,309350.09999996424,309359.903,314865.512,8,400,29,,ISIC_0770920.JPG
break,html.Screen,4_28_1,2023-09-16T01:45:18.986Z,,0,,,NaN,,,,,,false,,,,314858.09999996424,314857.6999999881,,314857.3000000119,,314865.512,8,400,,,
break_continue,html.Screen,4_28_2,2023-09-16T01:45:18.987Z,,0,,,NaN,,,,,,false,,,,314858.39999997616,314858.3000000119,,314858.09999996424,,314865.512,8,400,,,
sequence,flow.Sequence,4_28,2023-09-16T01:45:18.987Z,,0,,,5498.39700001193,completion,,,,,false,,,,314858.59999996424,314858.3000000119,309343.209,309350.09999996424,309359.903,314865.512,8,400,,,
trial,html.Screen,4_29_0,2023-09-16T01:45:26.061Z,,0,1,,7067.187999988091,response,ISIC_8479104.JPG,5,ISIC_0026272.JPG,ISIC_0026272.JPG,false,0,keypress(z),500,321932.89999997616,321932.6999999881,314848.762,314858.6999999881,314865.512,321939.377,8,400,30,,ISIC_8479104.JPG
break,html.Screen,4_29_1,2023-09-16T01:45:26.062Z,,0,,,NaN,,,,,,false,,,,321933.1999999881,321933.09999996424,,321932.89999997616,,321939.377,8,400,,,
break_continue,html.Screen,4_29_2,2023-09-16T01:45:26.062Z,,0,,,NaN,,,,,,false,,,,321933.39999997616,321933.39999997616,,321933.1999999881,,321939.377,8,400,,,
sequence,flow.Sequence,4_29,2023-09-16T01:45:26.062Z,,0,,,7067.88799997617,completion,,,,,false,,,,321933.5,321933.39999997616,314848.762,314858.6999999881,314865.512,321939.377,8,400,,,
trial,html.Screen,4_30_0,2023-09-16T01:45:36.334Z,,0,1,,10266.52299997618,response,ISIC_0062301.JPG,4,ISIC_0024720.JPG,ISIC_0024720.JPG,false,0,keypress(z),500,332206,332205.89999997616,321922.664,321933.5,321939.377,332216.573,8,400,31,,ISIC_0062301.JPG
break,html.Screen,4_30_1,2023-09-16T01:45:36.335Z,,0,,,NaN,,,,,,false,,,,332206.39999997616,332206.3000000119,,332206.09999996424,,332216.573,8,400,,,
break_continue,html.Screen,4_30_2,2023-09-16T01:45:36.335Z,,0,,,NaN,,,,,,false,,,,332206.59999996424,332206.5,,332206.5,,332216.573,8,400,,,
sequence,flow.Sequence,4_30,2023-09-16T01:45:36.335Z,,0,,,10267.123000000021,completion,,,,,false,,,,332206.6999999881,332206.5,321922.664,321933.5,321939.377,332216.573,8,400,,,
trial,html.Screen,4_31_0,2023-09-16T01:45:43.811Z,,0,1,,7466.227000011946,response,ISIC_3800974.JPG,5,ISIC_2129020.JPG,ISIC_3800974.JPG,false,1,keypress(m),500,339683.1999999881,339682.8000000119,332199.917,332206.8000000119,332216.573,339690.935,8,400,32,,ISIC_2129020.JPG
break,html.Screen,4_31_1,2023-09-16T01:45:43.813Z,,0,,,NaN,,,,,,false,,,,339685,339684.5,,339683.39999997616,,339690.935,8,400,,,
break_continue,html.Screen,4_31_2,2023-09-16T01:45:43.814Z,,0,,,NaN,,,,,,false,,,,339685.6999999881,339685.59999996424,,339685.1999999881,,339690.935,8,400,,,
sequence,flow.Sequence,4_31,2023-09-16T01:45:43.814Z,,0,,,7469.026999964262,completion,,,,,false,,,,339686,339685.59999996424,332199.917,332206.6999999881,332216.573,339690.935,8,400,,,
trial,html.Screen,4_32_0,2023-09-16T01:45:48.226Z,,0,1,,4405.9649999761605,response,ISIC_3016754.JPG,4,ISIC_6697332.JPG,ISIC_6697332.JPG,false,0,keypress(z),500,344097.1999999881,344096.89999997616,339674.224,339688.39999997616,339690.935,344112.177,8,400,33,,ISIC_3016754.JPG
break,html.Screen,4_32_1,2023-09-16T01:45:48.227Z,,0,,,NaN,,,,,,false,,,,344098.6999999881,344098.1999999881,,344097.59999996424,,344112.177,8,400,,,
break_continue,html.Screen,4_32_2,2023-09-16T01:45:48.228Z,,0,,,NaN,,,,,,false,,,,344099.39999997616,344099.1999999881,,344098.89999997616,,344112.177,8,400,,,
sequence,flow.Sequence,4_32,2023-09-16T01:45:48.228Z,,0,,,4408.264999988081,completion,,,,,false,,,,344099.6999999881,344099.1999999881,339674.224,339688.1999999881,339690.935,344112.177,8,400,,,
trial,html.Screen,4_33_0,2023-09-16T01:45:52.967Z,,0,1,,4726.623000011896,response,ISIC_0032029.JPG,5,ISIC_0000161.JPG,ISIC_0032029.JPG,false,1,keypress(m),500,348838.89999997616,348838.8000000119,344095.302,344099.89999997616,344112.177,348850.15,8,400,34,,ISIC_0000161.JPG
break,html.Screen,4_33_1,2023-09-16T01:45:52.968Z,,0,,,NaN,,,,,,false,,,,348839.3000000119,348839.1999999881,,348839,,348850.15,8,400,,,
break_continue,html.Screen,4_33_2,2023-09-16T01:45:52.968Z,,0,,,NaN,,,,,,false,,,,348839.39999997616,348839.3000000119,,348839.3000000119,,348850.15,8,400,,,
sequence,flow.Sequence,4_33,2023-09-16T01:45:52.968Z,,0,,,4727.123000011896,completion,,,,,false,,,,348839.5,348839.3000000119,344095.302,344099.89999997616,344112.177,348850.15,8,400,,,
trial,html.Screen,4_34_0,2023-09-16T01:46:01.249Z,,0,1,,8270.349999999977,response,ISIC_0941085.JPG,5,ISIC_0000022.JPG,ISIC_0941085.JPG,false,1,keypress(m),500,357120.89999997616,357120.5,348833.608,348839.5,348850.15,357125.392,8,400,35,,ISIC_0000022.JPG
break,html.Screen,4_34_1,2023-09-16T01:46:01.251Z,,0,,,NaN,,,,,,false,,,,357122.1999999881,357121.89999997616,,357121.1999999881,,357125.392,8,400,,,
break_continue,html.Screen,4_34_2,2023-09-16T01:46:01.251Z,,0,,,NaN,,,,,,false,,,,357123,357122.8000000119,,357122.39999997616,,357125.392,8,400,,,
sequence,flow.Sequence,4_34,2023-09-16T01:46:01.252Z,,0,,,8272.650000011898,completion,,,,,false,,,,357123.3000000119,357122.8000000119,348833.608,348839.5,348850.15,357125.392,8,400,,,
trial,html.Screen,4_35_0,2023-09-16T01:46:05.689Z,,0,1,,4435.408000011928,response,ISIC_9295267.JPG,5,ISIC_0025702.JPG,ISIC_0025702.JPG,false,0,keypress(z),500,361561.09999996424,361560.8000000119,357108.66,357123.5,357125.392,361563.265,8,400,36,,ISIC_9295267.JPG
break,html.Screen,4_35_1,2023-09-16T01:46:05.691Z,,0,,,NaN,,,,,,false,,,,361562.5,361562.1999999881,,361561.39999997616,,361563.265,8,400,,,
break_continue,html.Screen,4_35_2,2023-09-16T01:46:05.692Z,,0,,,NaN,,,,,,false,,,,361563.3000000119,361563.09999996424,,361562.8000000119,,361563.265,8,400,,,
sequence,flow.Sequence,4_35,2023-09-16T01:46:05.692Z,,0,,,4437.707999964245,completion,,,,,false,,,,361563.59999996424,361563.09999996424,357108.66,357123.5,357125.392,361563.265,8,400,,,
trial,html.Screen,4_36_0,2023-09-16T01:46:12.095Z,,0,1,,6402.634999976144,response,ISIC_0071957.JPG,4,ISIC_8121679.JPG,ISIC_0071957.JPG,false,1,keypress(m),500,367966.3000000119,367965.89999997616,361546.554,361564.09999996424,361563.265,367969.811,8,400,37,,ISIC_8121679.JPG
break,html.Screen,4_36_1,2023-09-16T01:46:12.096Z,,0,,,NaN,,,,,,false,,,,367967.6999999881,367967.3000000119,,367966.5,,367969.811,8,400,,,
break_continue,html.Screen,4_36_2,2023-09-16T01:46:12.097Z,,0,,,NaN,,,,,,false,,,,367968.5,367968.1999999881,,367967.89999997616,,367969.811,8,400,,,
sequence,flow.Sequence,4_36,2023-09-16T01:46:12.097Z,,0,,,6404.934999988065,completion,,,,,false,,,,367968.6999999881,367968.1999999881,361546.554,361564,361563.265,367969.811,8,400,,,
trial,html.Screen,4_37_0,2023-09-16T01:46:20.599Z,,0,1,,8499.989000011934,response,ISIC_0033856.JPG,5,ISIC_9088774.JPG,ISIC_9088774.JPG,false,0,keypress(z),500,376470.09999996424,376469.8000000119,367953.072,367969,367969.811,376478.519,8,400,38,,ISIC_0033856.JPG
break,html.Screen,4_37_1,2023-09-16T01:46:20.600Z,,0,,,NaN,,,,,,false,,,,376471.6999999881,376471.3000000119,,376470.5,,376478.519,8,400,,,
break_continue,html.Screen,4_37_2,2023-09-16T01:46:20.601Z,,0,,,NaN,,,,,,false,,,,376472.5,376472.1999999881,,376471.89999997616,,376478.519,8,400,,,
sequence,flow.Sequence,4_37,2023-09-16T01:46:20.601Z,,0,,,8502.388999988092,completion,,,,,false,,,,376472.89999997616,376472.1999999881,367953.072,367968.89999997616,367969.811,376478.519,8,400,,,
trial,html.Screen,4_38_0,2023-09-16T01:46:29.105Z,,0,1,,8498.180999988108,response,ISIC_0033178.JPG,6,ISIC_0063852.JPG,ISIC_0063852.JPG,false,0,keypress(z),500,384976.8000000119,384976.6999999881,376461.851,376473.1999999881,376478.519,384987.027,8,400,39,,ISIC_0033178.JPG
break,html.Screen,4_38_1,2023-09-16T01:46:29.106Z,,0,,,NaN,,,,,,false,,,,384977.5,384977.3000000119,,384977,,384987.027,8,400,,,
break_continue,html.Screen,4_38_2,2023-09-16T01:46:29.106Z,,0,,,NaN,,,,,,false,,,,384977.59999996424,384977.59999996424,,384977.5,,384987.027,8,400,,,
sequence,flow.Sequence,4_38,2023-09-16T01:46:29.106Z,,0,,,8499.080999964266,completion,,,,,false,,,,384977.6999999881,384977.59999996424,376461.851,376473.09999996424,376478.519,384987.027,8,400,,,
trial,html.Screen,4_39_0,2023-09-16T01:46:36.804Z,,0,1,,7687.872999976156,response,ISIC_0029389.JPG,5,ISIC_0065360.JPG,ISIC_0029389.JPG,false,1,keypress(m),500,392675.1999999881,392674.89999997616,384970.427,384977.6999999881,384987.027,392678.373,8,400,40,,ISIC_0065360.JPG
break,html.Screen,4_39_1,2023-09-16T01:46:36.805Z,,0,,,NaN,,,,,,false,,,,392676.6999999881,392676.3000000119,,392675.5,,392678.373,8,400,,,
break_continue,html.Screen,4_39_2,2023-09-16T01:46:36.806Z,,0,,,NaN,,,,,,false,,,,392677.39999997616,392677.09999996424,,392676.89999997616,,392678.373,8,400,,,
sequence,flow.Sequence,4_39,2023-09-16T01:46:36.806Z,,0,,,7690.072999964235,completion,,,,,false,,,,392677.6999999881,392677.09999996424,384970.427,384977.6999999881,384987.027,392678.373,8,400,,,
trial,html.Screen,4_40_0,2023-09-16T01:46:42.697Z,,0,1,,5890.4270000118995,response,ISIC_0033204.JPG,6,ISIC_0055251.JPG,ISIC_0033204.JPG,false,1,keypress(m),500,398569,398568.8000000119,392661.694,392677.89999997616,392678.373,398584.295,8,400,41,,ISIC_0055251.JPG
break,html.Screen,4_40_1,2023-09-16T01:46:42.698Z,,0,,,NaN,,,,,,false,,,,398569.5,398569.39999997616,,398569.09999996424,,398584.295,8,400,,,
break_continue,html.Screen,4_40_2,2023-09-16T01:46:42.698Z,,0,,,NaN,,,,,,false,,,,398569.6999999881,398569.6999999881,,398569.59999996424,,398584.295,8,400,,,
sequence,flow.Sequence,4_40,2023-09-16T01:46:42.698Z,,0,,,5891.326999988058,completion,,,,,false,,,,398569.89999997616,398569.6999999881,392661.694,392677.8000000119,392678.373,398584.295,8,400,,,
trial,html.Screen,4_41_0,2023-09-16T01:46:51.133Z,,0,1,,8420.604999976174,response,ISIC_0027081.JPG,5,ISIC_0011994.JPG,ISIC_0011994.JPG,false,0,keypress(z),500,407005,407004.89999997616,398567.761,398569.89999997616,398584.295,407009.615,8,400,42,,ISIC_0027081.JPG
break,html.Screen,4_41_1,2023-09-16T01:46:51.134Z,,0,,,NaN,,,,,,false,,,,407005.8000000119,407005.5,,407005.1999999881,,407009.615,8,400,,,
break_continue,html.Screen,4_41_2,2023-09-16T01:46:51.135Z,,0,,,NaN,,,,,,false,,,,407006.3000000119,407006.09999996424,,407006,,407009.615,8,400,,,
sequence,flow.Sequence,4_41,2023-09-16T01:46:51.135Z,,0,,,8421.804999964254,completion,,,,,false,,,,407006.39999997616,407006.09999996424,398567.761,398569.89999997616,398584.295,407009.615,8,400,,,
trial,html.Screen,4_42_0,2023-09-16T01:47:01.396Z,,0,1,,10258.18500001193,response,ISIC_0000555.JPG,5,ISIC_9053988.JPG,ISIC_9053988.JPG,false,0,keypress(z),500,417268,417267.8000000119,406992.987,407006.5,407009.615,417270.057,8,400,43,,ISIC_0000555.JPG
break,html.Screen,4_42_1,2023-09-16T01:47:01.397Z,,0,,,NaN,,,,,,false,,,,417268.3000000119,417268.1999999881,,417268,,417270.057,8,400,,,
break_continue,html.Screen,4_42_2,2023-09-16T01:47:01.397Z,,0,,,NaN,,,,,,false,,,,417268.5,417268.5,,417268.39999997616,,417270.057,8,400,,,
sequence,flow.Sequence,4_42,2023-09-16T01:47:01.397Z,,0,,,10258.88500000001,completion,,,,,false,,,,417268.59999996424,417268.5,406992.987,407006.5,407009.615,417270.057,8,400,,,
trial,html.Screen,4_43_0,2023-09-16T01:47:07.959Z,,0,1,,6560.743000011949,response,ISIC_8214287.JPG,6,ISIC_0062099.JPG,ISIC_8214287.JPG,false,1,keypress(m),500,423830.89999997616,423830.8000000119,417253.422,417268.59999996424,417270.057,423843.494,8,400,44,,ISIC_0062099.JPG
break,html.Screen,4_43_1,2023-09-16T01:47:07.960Z,,0,,,NaN,,,,,,false,,,,423831.3000000119,423831.09999996424,,423830.89999997616,,423843.494,8,400,,,
break_continue,html.Screen,4_43_2,2023-09-16T01:47:07.960Z,,0,,,NaN,,,,,,false,,,,423831.39999997616,423831.39999997616,,423831.3000000119,,423843.494,8,400,,,
sequence,flow.Sequence,4_43,2023-09-16T01:47:07.960Z,,0,,,6561.342999976187,completion,,,,,false,,,,423831.39999997616,423831.39999997616,417253.422,417268.59999996424,417270.057,423843.494,8,400,,,
trial,html.Screen,4_44_0,2023-09-16T01:47:13.290Z,,0,1,,5318.306000011915,response,ISIC_0024516.JPG,5,ISIC_0066430.JPG,ISIC_0066430.JPG,false,0,keypress(z),500,429161.89999997616,429161.8000000119,423826.708,423831.5,423843.494,429165.534,8,400,45,,ISIC_0024516.JPG
break,html.Screen,4_44_1,2023-09-16T01:47:13.291Z,,0,,,NaN,,,,,,false,,,,429162.1999999881,429162.09999996424,,429162,,429165.534,8,400,,,
break_continue,html.Screen,4_44_2,2023-09-16T01:47:13.291Z,,0,,,NaN,,,,,,false,,,,429162.39999997616,429162.3000000119,,429162.3000000119,,429165.534,8,400,,,
sequence,flow.Sequence,4_44,2023-09-16T01:47:13.291Z,,0,,,5318.806000011915,completion,,,,,false,,,,429162.5,429162.3000000119,423826.708,423831.5,423843.494,429165.534,8,400,,,
trial,html.Screen,4_45_0,2023-09-16T01:47:17.741Z,,0,1,,4447.065999964252,response,ISIC_6981061.JPG,5,ISIC_0027407.JPG,ISIC_6981061.JPG,false,1,keypress(m),500,433612.6999999881,433612.59999996424,429148.932,429162.5,429165.534,433620.211,8,400,46,,ISIC_0027407.JPG
break,html.Screen,4_45_1,2023-09-16T01:47:17.742Z,,0,,,NaN,,,,,,false,,,,433613.1999999881,433613.09999996424,,433612.8000000119,,433620.211,8,400,,,
break_continue,html.Screen,4_45_2,2023-09-16T01:47:17.742Z,,0,,,NaN,,,,,,false,,,,433613.39999997616,433613.39999997616,,433613.3000000119,,433620.211,8,400,,,
sequence,flow.Sequence,4_45,2023-09-16T01:47:17.742Z,,0,,,4447.865999976173,completion,,,,,false,,,,433613.59999996424,433613.39999997616,429148.932,429162.5,429165.534,433620.211,8,400,,,
trial,html.Screen,4_46_0,2023-09-16T01:47:27.985Z,,0,1,,10235.78899999999,response,ISIC_5646706.JPG,6,ISIC_0283957.JPG,ISIC_5646706.JPG,false,1,keypress(m),500,443856.3000000119,443856,433603.449,433613.6999999881,433620.211,443864.007,8,400,47,,ISIC_0283957.JPG
break,html.Screen,4_46_1,2023-09-16T01:47:27.986Z,,0,,,NaN,,,,,,false,,,,443857.8000000119,443857.39999997616,,443856.59999996424,,443864.007,8,400,,,
break_continue,html.Screen,4_46_2,2023-09-16T01:47:27.987Z,,0,,,NaN,,,,,,false,,,,443858.59999996424,443858.3000000119,,443858.09999996424,,443864.007,8,400,,,
sequence,flow.Sequence,4_46,2023-09-16T01:47:27.987Z,,0,,,10238.08900001191,completion,,,,,false,,,,443858.8000000119,443858.3000000119,433603.449,433613.6999999881,433620.211,443864.007,8,400,,,
trial,html.Screen,4_47_0,2023-09-16T01:47:33.861Z,,0,1,,5868.892999976175,response,ISIC_0058950.JPG,5,ISIC_0046917.JPG,ISIC_0058950.JPG,false,1,keypress(m),500,449733,449732.89999997616,443847.263,443859.09999996424,443864.007,449736.494,8,400,48,,ISIC_0046917.JPG
break,html.Screen,4_47_1,2023-09-16T01:47:33.862Z,,0,,,NaN,,,,,,false,,,,449733.39999997616,449733.3000000119,,449733.09999996424,,449736.494,8,400,,,
break_continue,html.Screen,4_47_2,2023-09-16T01:47:33.862Z,,0,,,NaN,,,,,,false,,,,449733.59999996424,449733.5,,449733.5,,449736.494,8,400,,,
sequence,flow.Sequence,4_47,2023-09-16T01:47:33.862Z,,0,,,5869.493000000017,completion,,,,,false,,,,449733.59999996424,449733.5,443847.263,443859,443864.007,449736.494,8,400,,,
trial,html.Screen,4_48_0,2023-09-16T01:47:40.750Z,,0,1,,6884.405999976152,response,ISIC_6317162.JPG,5,ISIC_0014171.JPG,ISIC_6317162.JPG,false,1,keypress(m),500,456621.1999999881,456620.89999997616,449719.926,449733.6999999881,449736.494,456627.002,8,400,49,,ISIC_0014171.JPG
break,html.Screen,4_48_1,2023-09-16T01:47:40.751Z,,0,,,NaN,,,,,,false,,,,456622.6999999881,456622.1999999881,,456621.5,,456627.002,8,400,,,
break_continue,html.Screen,4_48_2,2023-09-16T01:47:40.752Z,,0,,,NaN,,,,,,false,,,,456623.39999997616,456623.1999999881,,456622.89999997616,,456627.002,8,400,,,
sequence,flow.Sequence,4_48,2023-09-16T01:47:40.752Z,,0,,,6886.705999988073,completion,,,,,false,,,,456623.6999999881,456623.1999999881,449719.926,449733.6999999881,449736.494,456627.002,8,400,,,
trial,html.Screen,4_49_0,2023-09-16T01:47:45.209Z,,0,1,,4453.798000011942,response,ISIC_4248013.JPG,5,ISIC_0024263.JPG,ISIC_0024263.JPG,false,0,keypress(z),500,461080.89999997616,461080.8000000119,456610.254,456624,456627.002,461098.86,8,400,50,,ISIC_4248013.JPG
break,html.Screen,4_49_1,2023-09-16T01:47:55.204Z,,0,,,9992.87599999999,timeout,,,,,false,,,,471075.39999997616,471075.014,461064.861,461081,461098.86,471091.736,8,400,,,
break_continue,html.Screen,4_49_2,2023-09-16T01:48:05.792Z,,0,,,10553.663999976183,response,,,,,false,continue,keypress(Space),,481663.39999997616,481645.39999997616,471075.014,471075.5,471091.736,481669.095,8,400,,,
sequence,flow.Sequence,4_49,2023-09-16T01:48:05.792Z,,0,,,25018.39799997618,completion,,,,,false,,,,481663.5,481645.39999997616,456610.254,456623.89999997616,456627.002,481669.095,8,400,,,
trial,html.Screen,4_50_0,2023-09-16T01:48:14.689Z,,0,2,,8891.804999976186,response,ISIC_0026924.JPG,6,ISIC_3039880.JPG,ISIC_3039880.JPG,false,0,keypress(z),500,490561,490560.89999997616,481652.333,481663.59999996424,481669.095,490578.779,8,400,1,,ISIC_0026924.JPG
break,html.Screen,4_50_1,2023-09-16T01:48:14.690Z,,0,,,NaN,,,,,,false,,,,490561.3000000119,490561.3000000119,,490561.09999996424,,490578.779,8,400,,,
break_continue,html.Screen,4_50_2,2023-09-16T01:48:14.690Z,,0,,,NaN,,,,,,false,,,,490561.5,490561.39999997616,,490561.39999997616,,490578.779,8,400,,,
sequence,flow.Sequence,4_50,2023-09-16T01:48:14.690Z,,0,,,8892.304999976186,completion,,,,,false,,,,490561.5,490561.39999997616,481652.333,481663.59999996424,481669.095,490578.779,8,400,,,
trial,html.Screen,4_51_0,2023-09-16T01:48:22.067Z,,0,2,,7360.120999976178,response,ISIC_3249783.JPG,5,ISIC_1607865.JPG,ISIC_3249783.JPG,false,1,keypress(m),500,497939.3000000119,497938.89999997616,490544.979,490561.59999996424,490578.779,497952.533,8,400,2,,ISIC_1607865.JPG
break,html.Screen,4_51_1,2023-09-16T01:48:22.069Z,,0,,,NaN,,,,,,false,,,,497940.6999999881,497940.3000000119,,497939.59999996424,,497952.533,8,400,,,
break_continue,html.Screen,4_51_2,2023-09-16T01:48:22.070Z,,0,,,NaN,,,,,,false,,,,497941.39999997616,497941.1999999881,,497940.89999997616,,497952.533,8,400,,,
sequence,flow.Sequence,4_51,2023-09-16T01:48:22.070Z,,0,,,7362.420999988099,completion,,,,,false,,,,497941.6999999881,497941.1999999881,490544.979,490561.5,490578.779,497952.533,8,400,,,
trial,html.Screen,4_52_0,2023-09-16T01:48:30.444Z,,0,2,,8363.166999988083,response,ISIC_2131962.JPG,5,ISIC_9061511.JPG,ISIC_2131962.JPG,false,1,keypress(m),500,506316.09999996424,506315.6999999881,497935.758,497942,497952.533,506327.708,8,400,3,,ISIC_9061511.JPG
break,html.Screen,4_52_1,2023-09-16T01:48:30.446Z,,0,,,NaN,,,,,,false,,,,506317.6999999881,506317.09999996424,,506316.5,,506327.708,8,400,,,
break_continue,html.Screen,4_52_2,2023-09-16T01:48:30.447Z,,0,,,NaN,,,,,,false,,,,506318.5,506318.3000000119,,506317.89999997616,,506327.708,8,400,,,
sequence,flow.Sequence,4_52,2023-09-16T01:48:30.447Z,,0,,,8365.767000011925,completion,,,,,false,,,,506318.8000000119,506318.3000000119,497935.758,497941.8000000119,497952.533,506327.708,8,400,,,
trial,html.Screen,4_53_0,2023-09-16T01:48:37.208Z,,0,2,,6752.191999976174,response,ISIC_7775535.JPG,5,ISIC_5884700.JPG,ISIC_5884700.JPG,false,0,keypress(z),500,513080.1999999881,513079.89999997616,506311.001,506319,506327.708,513084.626,8,400,4,,ISIC_7775535.JPG
break,html.Screen,4_53_1,2023-09-16T01:48:37.210Z,,0,,,NaN,,,,,,false,,,,513081.59999996424,513081.3000000119,,513080.5,,513084.626,8,400,,,
break_continue,html.Screen,4_53_2,2023-09-16T01:48:37.211Z,,0,,,NaN,,,,,,false,,,,513082.39999997616,513082.1999999881,,513081.8000000119,,513084.626,8,400,,,
sequence,flow.Sequence,4_53,2023-09-16T01:48:37.211Z,,0,,,6754.491999988095,completion,,,,,false,,,,513082.6999999881,513082.1999999881,506311.001,506319,506327.708,513084.626,8,400,,,
trial,html.Screen,4_54_0,2023-09-16T01:48:43.454Z,,0,2,,6241.174000011932,response,ISIC_0027445.JPG,6,ISIC_0007148.JPG,ISIC_0007148.JPG,false,0,keypress(z),500,519326.09999996424,519325.8000000119,513067.961,513082.89999997616,513084.626,519340.988,8,400,5,,ISIC_0027445.JPG
break,html.Screen,4_54_1,2023-09-16T01:48:43.455Z,,0,,,NaN,,,,,,false,,,,519327,519326.8000000119,,519326.3000000119,,519340.988,8,400,,,
break_continue,html.Screen,4_54_2,2023-09-16T01:48:43.456Z,,0,,,NaN,,,,,,false,,,,519327.5,519327.39999997616,,519327.1999999881,,519340.988,8,400,,,
sequence,flow.Sequence,4_54,2023-09-16T01:48:43.456Z,,0,,,6242.773999976169,completion,,,,,false,,,,519327.6999999881,519327.39999997616,513067.961,513082.89999997616,513084.626,519340.988,8,400,,,
trial,html.Screen,4_55_0,2023-09-16T01:48:51.974Z,,0,2,,8504.812000011909,response,ISIC_6995731.JPG,5,ISIC_0000026.JPG,ISIC_6995731.JPG,false,1,keypress(m),500,527845.8999999762,527845.8000000119,519324.287,519327.89999997616,519340.988,527849.669,8,400,6,,ISIC_0000026.JPG
break,html.Screen,4_55_1,2023-09-16T01:48:51.974Z,,0,,,NaN,,,,,,false,,,,527846.3000000119,527846.1999999881,,527846,,527849.669,8,400,,,
break_continue,html.Screen,4_55_2,2023-09-16T01:48:51.975Z,,0,,,NaN,,,,,,false,,,,527846.3999999762,527846.3999999762,,527846.3999999762,,527849.669,8,400,,,
sequence,flow.Sequence,4_55,2023-09-16T01:48:51.975Z,,0,,,8505.411999976146,completion,,,,,false,,,,527846.5,527846.3999999762,519324.287,519327.89999997616,519340.988,527849.669,8,400,,,
trial,html.Screen,4_56_0,2023-09-16T01:48:58.669Z,,0,2,,6691.1310000119265,response,ISIC_0746397.JPG,5,ISIC_0026627.JPG,ISIC_0746397.JPG,false,1,keypress(m),500,534541.0999999642,534540.8000000119,527832.971,527846.5,527849.669,534556.542,8,400,7,,ISIC_0026627.JPG
break,html.Screen,4_56_1,2023-09-16T01:48:58.671Z,,0,,,NaN,,,,,,false,,,,534542.5999999642,534542.0999999642,,534541.3999999762,,534556.542,8,400,,,
break_continue,html.Screen,4_56_2,2023-09-16T01:48:58.671Z,,0,,,NaN,,,,,,false,,,,534543.3000000119,534543.0999999642,,534542.6999999881,,534556.542,8,400,,,
sequence,flow.Sequence,4_56,2023-09-16T01:48:58.672Z,,0,,,6693.430999964243,completion,,,,,false,,,,534543.5,534543.0999999642,527832.971,527846.5,527849.669,534556.542,8,400,,,
trial,html.Screen,4_57_0,2023-09-16T01:49:05.463Z,,0,2,,6777.557999964221,response,ISIC_0000866.JPG,6,ISIC_0033104.JPG,ISIC_0000866.JPG,false,1,keypress(m),500,541334.5,541334.0999999642,534539.873,534543.8000000119,534556.542,541346.764,8,400,8,,ISIC_0033104.JPG
break,html.Screen,4_57_1,2023-09-16T01:49:05.464Z,,0,,,NaN,,,,,,false,,,,541336.0999999642,541335.6999999881,,541334.8999999762,,541346.764,8,400,,,
break_continue,html.Screen,4_57_2,2023-09-16T01:49:05.465Z,,0,,,NaN,,,,,,false,,,,541337.0999999642,541336.8000000119,,541336.3000000119,,541346.764,8,400,,,
sequence,flow.Sequence,4_57,2023-09-16T01:49:05.466Z,,0,,,6780.258000011905,completion,,,,,false,,,,541337.3999999762,541336.8000000119,534539.873,534543.6999999881,534556.542,541346.764,8,400,,,
trial,html.Screen,4_58_0,2023-09-16T01:49:10.819Z,,0,2,,5343.935999988113,response,ISIC_2039579.JPG,5,ISIC_0033021.JPG,ISIC_0033021.JPG,false,0,keypress(z),500,546690.8999999762,546690.6999999881,541330.043,541337.8000000119,541346.764,546702.26,8,400,9,,ISIC_2039579.JPG
break,html.Screen,4_58_1,2023-09-16T01:49:10.820Z,,0,,,NaN,,,,,,false,,,,546691.5999999642,546691.3999999762,,546691,,546702.26,8,400,,,
break_continue,html.Screen,4_58_2,2023-09-16T01:49:10.820Z,,0,,,NaN,,,,,,false,,,,546692,546692,,546691.8000000119,,546702.26,8,400,,,
sequence,flow.Sequence,4_58,2023-09-16T01:49:10.821Z,,0,,,5345.2360000000335,completion,,,,,false,,,,546692.0999999642,546692,541330.043,541337.5999999642,541346.764,546702.26,8,400,,,
trial,html.Screen,4_59_0,2023-09-16T01:49:18.839Z,,0,2,,8007.639999976149,response,ISIC_6721869.JPG,6,ISIC_2733043.JPG,ISIC_6721869.JPG,false,1,keypress(m),500,554710.1999999881,554709.8999999762,546685.497,546692.3000000119,546702.26,554727.076,8,400,10,,ISIC_2733043.JPG
break,html.Screen,4_59_1,2023-09-16T01:49:18.840Z,,0,,,NaN,,,,,,false,,,,554711.8000000119,554711.3999999762,,554710.5999999642,,554727.076,8,400,,,
break_continue,html.Screen,4_59_2,2023-09-16T01:49:18.841Z,,0,,,NaN,,,,,,false,,,,554712.3999999762,554712.3000000119,,554712,,554727.076,8,400,,,
sequence,flow.Sequence,4_59,2023-09-16T01:49:18.841Z,,0,,,8010.040000011912,completion,,,,,false,,,,554712.8999999762,554712.3000000119,546685.497,546692.3000000119,546702.26,554727.076,8,400,,,
trial,html.Screen,4_60_0,2023-09-16T01:49:23.020Z,,0,2,,4163.823999976157,response,ISIC_0025303.JPG,5,ISIC_3686179.JPG,ISIC_0025303.JPG,false,1,keypress(m),500,558891.3000000119,558890.8999999762,554710.47,554713.1999999881,554727.076,558898.117,8,400,11,,ISIC_3686179.JPG
break,html.Screen,4_60_1,2023-09-16T01:49:23.021Z,,0,,,NaN,,,,,,false,,,,558892.8000000119,558892.3000000119,,558891.5999999642,,558898.117,8,400,,,
break_continue,html.Screen,4_60_2,2023-09-16T01:49:23.024Z,,0,,,NaN,,,,,,false,,,,558896,558895.8000000119,,558895.3000000119,,558898.117,8,400,,,
sequence,flow.Sequence,4_60,2023-09-16T01:49:23.025Z,,0,,,4168.72400001192,completion,,,,,false,,,,558896.3000000119,558895.8000000119,554710.47,554713.0999999642,554727.076,558898.117,8,400,,,
trial,html.Screen,4_61_0,2023-09-16T01:49:26.579Z,,0,2,,3552.8830000000307,response,ISIC_3979323.JPG,6,ISIC_0000398.JPG,ISIC_3979323.JPG,false,1,keypress(m),500,562451.0999999642,562451,558881.384,558896.5999999642,558898.117,562468.771,8,400,12,,ISIC_0000398.JPG
break,html.Screen,4_61_1,2023-09-16T01:49:26.580Z,,0,,,NaN,,,,,,false,,,,562451.5,562451.3999999762,,562451.0999999642,,562468.771,8,400,,,
break_continue,html.Screen,4_61_2,2023-09-16T01:49:26.580Z,,0,,,NaN,,,,,,false,,,,562451.6999999881,562451.5999999642,,562451.5,,562468.771,8,400,,,
sequence,flow.Sequence,4_61,2023-09-16T01:49:26.580Z,,0,,,3553.482999964268,completion,,,,,false,,,,562451.6999999881,562451.5999999642,558881.384,558896.5,558898.117,562468.771,8,400,,,
trial,html.Screen,4_62_0,2023-09-16T01:49:32.382Z,,0,2,,5784.128999976208,response,ISIC_5442578.JPG,6,ISIC_7747998.JPG,ISIC_7747998.JPG,false,0,keypress(z),500,568253.1999999881,568252.8999999762,562435.073,562451.8000000119,562468.771,568257.652,8,400,13,,ISIC_5442578.JPG
break,html.Screen,4_62_1,2023-09-16T01:49:32.383Z,,0,,,NaN,,,,,,false,,,,568254.8999999762,568254.3999999762,,568253.5,,568257.652,8,400,,,
break_continue,html.Screen,4_62_2,2023-09-16T01:49:32.384Z,,0,,,NaN,,,,,,false,,,,568255.8000000119,568255.5,,568255.1999999881,,568257.652,8,400,,,
sequence,flow.Sequence,4_62,2023-09-16T01:49:32.384Z,,0,,,5786.72900000005,completion,,,,,false,,,,568256.1999999881,568255.5,562435.073,562451.8000000119,562468.771,568257.652,8,400,,,
trial,html.Screen,4_63_0,2023-09-16T01:49:40.039Z,,0,2,,7653.247999976156,response,ISIC_0054528.JPG,6,ISIC_0000487.JPG,ISIC_0054528.JPG,false,1,keypress(m),500,575910.8999999762,575910.8999999762,568240.995,568256.3999999762,568257.652,575915.397,8,400,14,,ISIC_0000487.JPG
break,html.Screen,4_63_1,2023-09-16T01:49:40.040Z,,0,,,NaN,,,,,,false,,,,575911.3000000119,575911.1999999881,,575911,,575915.397,8,400,,,
break_continue,html.Screen,4_63_2,2023-09-16T01:49:40.040Z,,0,,,NaN,,,,,,false,,,,575911.5,575911.3999999762,,575911.3000000119,,575915.397,8,400,,,
sequence,flow.Sequence,4_63,2023-09-16T01:49:40.040Z,,0,,,7653.747999976156,completion,,,,,false,,,,575911.5,575911.3999999762,568240.995,568256.3000000119,568257.652,575915.397,8,400,,,
trial,html.Screen,4_64_0,2023-09-16T01:49:44.717Z,,0,2,,4673.302999988082,response,ISIC_0067027.JPG,6,ISIC_0000553.JPG,ISIC_0067027.JPG,false,1,keypress(m),500,580588.8999999762,580588.6999999881,575898.739,575911.5,575915.397,580603.601,8,400,15,,ISIC_0000553.JPG
break,html.Screen,4_64_1,2023-09-16T01:49:44.718Z,,0,,,NaN,,,,,,false,,,,580589.3000000119,580589.0999999642,,580588.8999999762,,580603.601,8,400,,,
break_continue,html.Screen,4_64_2,2023-09-16T01:49:44.718Z,,0,,,NaN,,,,,,false,,,,580589.3999999762,580589.3999999762,,580589.3000000119,,580603.601,8,400,,,
sequence,flow.Sequence,4_64,2023-09-16T01:49:44.718Z,,0,,,4674.002999976161,completion,,,,,false,,,,580589.5,580589.3999999762,575898.739,575911.5,575915.397,580603.601,8,400,,,
trial,html.Screen,4_65_0,2023-09-16T01:49:49.478Z,,0,2,,4746.298999976134,response,ISIC_3151260.JPG,5,ISIC_9879723.JPG,ISIC_3151260.JPG,false,1,keypress(m),500,585350.0999999642,585349.8999999762,580586.893,580589.5,580603.601,585358.379,8,400,16,,ISIC_9879723.JPG
break,html.Screen,4_65_1,2023-09-16T01:49:49.479Z,,0,,,NaN,,,,,,false,,,,585350.8000000119,585350.5,,585350.1999999881,,585358.379,8,400,,,
break_continue,html.Screen,4_65_2,2023-09-16T01:49:49.480Z,,0,,,NaN,,,,,,false,,,,585351.3000000119,585351.1999999881,,585351,,585358.379,8,400,,,
sequence,flow.Sequence,4_65,2023-09-16T01:49:49.480Z,,0,,,4747.598999988055,completion,,,,,false,,,,585351.3999999762,585351.1999999881,580586.893,580589.5,580603.601,585358.379,8,400,,,
trial,html.Screen,4_66_0,2023-09-16T01:49:53.644Z,,0,2,,4157.320999988122,response,ISIC_7799968.JPG,5,ISIC_0033289.JPG,ISIC_7799968.JPG,false,1,keypress(m),500,589516,589515.6999999881,585341.705,585351.5,585358.379,589529.277,8,400,17,,ISIC_0033289.JPG
break,html.Screen,4_66_1,2023-09-16T01:49:53.646Z,,0,,,NaN,,,,,,false,,,,589517.1999999881,589516.8999999762,,589516.3000000119,,589529.277,8,400,,,
break_continue,html.Screen,4_66_2,2023-09-16T01:49:53.646Z,,0,,,NaN,,,,,,false,,,,589517.8999999762,589517.8000000119,,589517.5,,589529.277,8,400,,,
sequence,flow.Sequence,4_66,2023-09-16T01:49:53.646Z,,0,,,4159.421000011964,completion,,,,,false,,,,589518.0999999642,589517.8000000119,585341.705,585351.5,585358.379,589529.277,8,400,,,
trial,html.Screen,4_67_0,2023-09-16T01:49:57.860Z,,0,2,,4202.322999964235,response,ISIC_0027234.JPG,6,ISIC_8822331.JPG,ISIC_8822331.JPG,false,0,keypress(z),500,593731.6999999881,593731.5999999642,589512.668,589518.3000000119,589529.277,593733.599,8,400,18,,ISIC_0027234.JPG
break,html.Screen,4_67_1,2023-09-16T01:49:57.861Z,,0,,,NaN,,,,,,false,,,,593732.3000000119,593732.1999999881,,593731.8999999762,,593733.599,8,400,,,
break_continue,html.Screen,4_67_2,2023-09-16T01:49:57.861Z,,0,,,NaN,,,,,,false,,,,593732.5999999642,593732.5,,593732.3999999762,,593733.599,8,400,,,
sequence,flow.Sequence,4_67,2023-09-16T01:49:57.861Z,,0,,,4203.222999999998,completion,,,,,false,,,,593732.6999999881,593732.5,589512.668,589518.1999999881,589529.277,593733.599,8,400,,,
trial,html.Screen,4_68_0,2023-09-16T01:50:07.048Z,,0,2,,9186.300999976113,response,ISIC_4118762.JPG,5,ISIC_2746860.JPG,ISIC_2746860.JPG,false,0,keypress(z),500,602920,602919.8999999762,593716.994,593732.8000000119,593733.599,602926.332,8,400,19,,ISIC_4118762.JPG
break,html.Screen,4_68_1,2023-09-16T01:50:07.049Z,,0,,,NaN,,,,,,false,,,,602920.3999999762,602920.3000000119,,602920.0999999642,,602926.332,8,400,,,
break_continue,html.Screen,4_68_2,2023-09-16T01:50:07.049Z,,0,,,NaN,,,,,,false,,,,602920.5999999642,602920.5999999642,,602920.5,,602926.332,8,400,,,
sequence,flow.Sequence,4_68,2023-09-16T01:50:07.049Z,,0,,,9187.000999964192,completion,,,,,false,,,,602920.6999999881,602920.5999999642,593716.994,593732.6999999881,593733.599,602926.332,8,400,,,
trial,html.Screen,4_69_0,2023-09-16T01:50:12.625Z,,0,2,,5570.367999988026,response,ISIC_4007322.JPG,6,ISIC_4369035.JPG,ISIC_4369035.JPG,false,0,keypress(z),500,608496.8000000119,608496.6999999881,602909.725,602920.8000000119,602926.332,608498.613,8,400,20,,ISIC_4007322.JPG
break,html.Screen,4_69_1,2023-09-16T01:50:12.626Z,,0,,,NaN,,,,,,false,,,,608497.3999999762,608497.1999999881,,608497,,608498.613,8,400,,,
break_continue,html.Screen,4_69_2,2023-09-16T01:50:12.626Z,,0,,,NaN,,,,,,false,,,,608497.5999999642,608497.5,,608497.3999999762,,608498.613,8,400,,,
sequence,flow.Sequence,4_69,2023-09-16T01:50:12.626Z,,0,,,5571.167999999947,completion,,,,,false,,,,608497.6999999881,608497.5,602909.725,602920.6999999881,602926.332,608498.613,8,400,,,
trial,html.Screen,4_70_0,2023-09-16T01:50:21.241Z,,0,2,,8613.086999988067,response,ISIC_4322954.JPG,6,ISIC_9881460.JPG,ISIC_9881460.JPG,false,0,keypress(z),500,617112.0999999642,617111.6999999881,608482.088,608497.6999999881,608498.613,617124.194,8,400,21,,ISIC_4322954.JPG
break,html.Screen,4_70_1,2023-09-16T01:50:21.242Z,,0,,,NaN,,,,,,false,,,,617113.5999999642,617113.0999999642,,617112.3999999762,,617124.194,8,400,,,
break_continue,html.Screen,4_70_2,2023-09-16T01:50:21.243Z,,0,,,NaN,,,,,,false,,,,617114.8000000119,617114.3999999762,,617113.8999999762,,617124.194,8,400,,,
sequence,flow.Sequence,4_70,2023-09-16T01:50:21.243Z,,0,,,8615.786999976146,completion,,,,,false,,,,617115,617114.3999999762,608482.088,608497.6999999881,608498.613,617124.194,8,400,,,
trial,html.Screen,4_71_0,2023-09-16T01:50:29.343Z,,0,2,,8089.70599997614,response,ISIC_0066150.JPG,4,ISIC_0027391.JPG,ISIC_0027391.JPG,false,0,keypress(z),500,625214.0999999642,625213.8999999762,617107.48,617115.3000000119,617124.194,625232.856,8,400,22,,ISIC_0066150.JPG
break,html.Screen,4_71_1,2023-09-16T01:50:29.343Z,,0,,,NaN,,,,,,false,,,,625215,625214.6999999881,,625214.3999999762,,625232.856,8,400,,,
break_continue,html.Screen,4_71_2,2023-09-16T01:50:29.344Z,,0,,,NaN,,,,,,false,,,,625215.3999999762,625215.3000000119,,625215.0999999642,,625232.856,8,400,,,
sequence,flow.Sequence,4_71,2023-09-16T01:50:29.344Z,,0,,,8091.106000011903,completion,,,,,false,,,,625215.5,625215.3000000119,617107.48,617115.1999999881,617124.194,625232.856,8,400,,,
trial,html.Screen,4_72_0,2023-09-16T01:50:34.913Z,,0,2,,5551.944000011892,response,ISIC_3093026.JPG,4,ISIC_0331389.JPG,ISIC_3093026.JPG,false,1,keypress(m),500,630785,630784.8000000119,625199.114,625215.5999999642,625232.856,630788.111,8,400,23,,ISIC_0331389.JPG
break,html.Screen,4_72_1,2023-09-16T01:50:34.914Z,,0,,,NaN,,,,,,false,,,,630785.5999999642,630785.3999999762,,630785.0999999642,,630788.111,8,400,,,
break_continue,html.Screen,4_72_2,2023-09-16T01:50:34.914Z,,0,,,NaN,,,,,,false,,,,630786,630785.8000000119,,630785.6999999881,,630788.111,8,400,,,
sequence,flow.Sequence,4_72,2023-09-16T01:50:34.914Z,,0,,,5552.944000011892,completion,,,,,false,,,,630786,630785.8000000119,625199.114,625215.5999999642,625232.856,630788.111,8,400,,,
trial,html.Screen,4_73_0,2023-09-16T01:50:40.884Z,,0,2,,5966.788999976125,response,ISIC_0014795.JPG,4,ISIC_5290521.JPG,ISIC_5290521.JPG,false,0,keypress(z),500,636755.0999999642,636754.8999999762,630771.44,630786.1999999881,630788.111,636760.847,8,400,24,,ISIC_0014795.JPG
break,html.Screen,4_73_1,2023-09-16T01:50:40.884Z,,0,,,NaN,,,,,,false,,,,636755.6999999881,636755.5,,636755.1999999881,,636760.847,8,400,,,
break_continue,html.Screen,4_73_2,2023-09-16T01:50:40.884Z,,0,,,NaN,,,,,,false,,,,636756,636755.8999999762,,636755.8000000119,,636760.847,8,400,,,
sequence,flow.Sequence,4_73,2023-09-16T01:50:40.885Z,,0,,,5967.788999976125,completion,,,,,false,,,,636756.0999999642,636755.8999999762,630771.44,630786.0999999642,630788.111,636760.847,8,400,,,
trial,html.Screen,4_74_0,2023-09-16T01:50:45.737Z,,0,2,,4846.95300001197,response,ISIC_3544821.JPG,5,ISIC_1200192.JPG,ISIC_3544821.JPG,false,1,keypress(m),500,641608.1999999881,641607.8000000119,636744.287,636756.1999999881,636760.847,641615.878,8,400,25,,ISIC_1200192.JPG
break,html.Screen,4_74_1,2023-09-16T01:50:45.738Z,,0,,,NaN,,,,,,false,,,,641609.5999999642,641609.1999999881,,641608.5,,641615.878,8,400,,,
break_continue,html.Screen,4_74_2,2023-09-16T01:50:45.739Z,,0,,,NaN,,,,,,false,,,,641610.1999999881,641610,,641609.6999999881,,641615.878,8,400,,,
sequence,flow.Sequence,4_74,2023-09-16T01:50:45.739Z,,0,,,4849.153000000049,completion,,,,,false,,,,641610.5,641610,636744.287,636756.1999999881,636760.847,641615.878,8,400,,,
trial,html.Screen,4_75_0,2023-09-16T01:50:51.206Z,,0,2,,5461.721999964211,response,ISIC_2999018.JPG,5,ISIC_3430447.JPG,ISIC_2999018.JPG,false,1,keypress(m),500,647077.8000000119,647077.5999999642,641599.164,641610.6999999881,641615.878,647088.08,8,400,26,,ISIC_3430447.JPG
break,html.Screen,4_75_1,2023-09-16T01:50:51.208Z,,0,,,NaN,,,,,,false,,,,647079.0999999642,647078.8000000119,,647078.0999999642,,647088.08,8,400,,,
break_continue,html.Screen,4_75_2,2023-09-16T01:50:51.208Z,,0,,,NaN,,,,,,false,,,,647079.8999999762,647079.5999999642,,647079.3000000119,,647088.08,8,400,,,
sequence,flow.Sequence,4_75,2023-09-16T01:50:51.209Z,,0,,,5463.721999964211,completion,,,,,false,,,,647080.1999999881,647079.5999999642,641599.164,641610.6999999881,641615.878,647088.08,8,400,,,
trial,html.Screen,4_76_0,2023-09-16T01:50:59.730Z,,0,2,,8512.720000011963,response,ISIC_7534592.JPG,5,ISIC_0016013.JPG,ISIC_7534592.JPG,false,1,keypress(m),500,655601.1999999881,655600.8000000119,647071.429,647080.3999999762,647088.08,655613.516,8,400,27,,ISIC_0016013.JPG
break,html.Screen,4_76_1,2023-09-16T01:50:59.731Z,,0,,,NaN,,,,,,false,,,,655602.5999999642,655602.3000000119,,655601.5,,655613.516,8,400,,,
break_continue,html.Screen,4_76_2,2023-09-16T01:50:59.732Z,,0,,,NaN,,,,,,false,,,,655603.3999999762,655603.1999999881,,655602.8999999762,,655613.516,8,400,,,
sequence,flow.Sequence,4_76,2023-09-16T01:50:59.732Z,,0,,,8515.119999988121,completion,,,,,false,,,,655603.6999999881,655603.1999999881,647071.429,647080.3999999762,647088.08,655613.516,8,400,,,
trial,html.Screen,4_77_0,2023-09-16T01:51:05.994Z,,0,2,,6251.484000000055,response,ISIC_0016127.JPG,5,ISIC_6668197.JPG,ISIC_6668197.JPG,false,0,keypress(z),500,661865.3999999762,661865,655596.811,655603.8999999762,655613.516,661869.805,8,400,28,,ISIC_0016127.JPG
break,html.Screen,4_77_1,2023-09-16T01:51:05.995Z,,0,,,NaN,,,,,,false,,,,661866.6999999881,661866.6999999881,,661865.6999999881,,661869.805,8,400,,,
break_continue,html.Screen,4_77_2,2023-09-16T01:51:05.995Z,,0,,,NaN,,,,,,false,,,,661867,661866.8999999762,,661866.8000000119,,661869.805,8,400,,,
sequence,flow.Sequence,4_77,2023-09-16T01:51:05.995Z,,0,,,6253.383999976213,completion,,,,,false,,,,661867,661866.8999999762,655596.811,655603.8999999762,655613.516,661869.805,8,400,,,
trial,html.Screen,4_78_0,2023-09-16T01:51:16.093Z,,0,2,,10094.094999976107,response,ISIC_5238649.JPG,5,ISIC_4853597.JPG,ISIC_5238649.JPG,false,1,keypress(m),500,671964.1999999881,671963.8999999762,661853.18,661867.0999999642,661869.805,671980.196,8,400,29,,ISIC_4853597.JPG
break,html.Screen,4_78_1,2023-09-16T01:51:16.094Z,,0,,,NaN,,,,,,false,,,,671965.8000000119,671965.3000000119,,671964.5,,671980.196,8,400,,,
break_continue,html.Screen,4_78_2,2023-09-16T01:51:16.095Z,,0,,,NaN,,,,,,false,,,,671966.5999999642,671966.3999999762,,671966,,671980.196,8,400,,,
sequence,flow.Sequence,4_78,2023-09-16T01:51:16.095Z,,0,,,10096.594999976107,completion,,,,,false,,,,671966.8999999762,671966.3999999762,661853.18,661867,661869.805,671980.196,8,400,,,
trial,html.Screen,4_79_0,2023-09-16T01:51:20.802Z,,0,2,,4693.503999988083,response,ISIC_9385996.JPG,4,ISIC_0030995.JPG,ISIC_9385996.JPG,false,1,keypress(m),500,676674,676673.6999999881,671963.524,671967.0999999642,671980.196,676684.936,8,400,30,,ISIC_0030995.JPG
break,html.Screen,4_79_1,2023-09-16T01:51:20.803Z,,0,,,NaN,,,,,,false,,,,676674.5999999642,676674.5,,676674.0999999642,,676684.936,8,400,,,
break_continue,html.Screen,4_79_2,2023-09-16T01:51:20.803Z,,0,,,NaN,,,,,,false,,,,676674.8999999762,676674.8999999762,,676674.8000000119,,676684.936,8,400,,,
sequence,flow.Sequence,4_79,2023-09-16T01:51:20.804Z,,0,,,4694.703999976162,completion,,,,,false,,,,676675.0999999642,676674.8999999762,671963.524,671967,671980.196,676684.936,8,400,,,
trial,html.Screen,4_80_0,2023-09-16T01:51:28.357Z,,0,2,,7543.864000011934,response,ISIC_8664718.JPG,6,ISIC_9859495.JPG,ISIC_9859495.JPG,false,0,keypress(z),500,684229,684228.8000000119,676668.322,676675.1999999881,676684.936,684242.773,8,400,31,,ISIC_8664718.JPG
break,html.Screen,4_80_1,2023-09-16T01:51:28.358Z,,0,,,NaN,,,,,,false,,,,684229.3000000119,684229.1999999881,,684229,,684242.773,8,400,,,
break_continue,html.Screen,4_80_2,2023-09-16T01:51:28.358Z,,0,,,NaN,,,,,,false,,,,684229.5,684229.5,,684229.3000000119,,684242.773,8,400,,,
sequence,flow.Sequence,4_80,2023-09-16T01:51:28.358Z,,0,,,7544.564000000013,completion,,,,,false,,,,684229.5,684229.5,676668.322,676675.1999999881,676684.936,684242.773,8,400,,,
trial,html.Screen,4_81_0,2023-09-16T01:51:38.920Z,,0,2,,10549.027000011876,response,ISIC_6272501.JPG,5,ISIC_0029150.JPG,ISIC_0029150.JPG,false,0,keypress(z),500,694791.8999999762,694791.8000000119,684226.059,684229.5,684242.773,694803.47,8,400,32,,ISIC_6272501.JPG
break,html.Screen,4_81_1,2023-09-16T01:51:38.921Z,,0,,,NaN,,,,,,false,,,,694792.3000000119,694792.1999999881,,694792,,694803.47,8,400,,,
break_continue,html.Screen,4_81_2,2023-09-16T01:51:38.921Z,,0,,,NaN,,,,,,false,,,,694792.5,694792.5,,694792.3999999762,,694803.47,8,400,,,
sequence,flow.Sequence,4_81,2023-09-16T01:51:38.921Z,,0,,,10549.726999999955,completion,,,,,false,,,,694792.5999999642,694792.5,684226.059,684229.5,684242.773,694803.47,8,400,,,
trial,html.Screen,4_82_0,2023-09-16T01:51:44.396Z,,0,2,,5464.330000011949,response,ISIC_3836576.JPG,6,ISIC_0010540.JPG,ISIC_3836576.JPG,false,1,keypress(m),500,700267.8999999762,700267.8000000119,694786.735,694792.5999999642,694803.47,700275.702,8,400,33,,ISIC_0010540.JPG
break,html.Screen,4_82_1,2023-09-16T01:51:44.397Z,,0,,,NaN,,,,,,false,,,,700268.5,700268.3999999762,,700268,,700275.702,8,400,,,
break_continue,html.Screen,4_82_2,2023-09-16T01:51:44.397Z,,0,,,NaN,,,,,,false,,,,700268.8000000119,700268.8000000119,,700268.5999999642,,700275.702,8,400,,,
sequence,flow.Sequence,4_82,2023-09-16T01:51:44.397Z,,0,,,5465.330000011949,completion,,,,,false,,,,700269,700268.8000000119,694786.735,694792.5999999642,694803.47,700275.702,8,400,,,
trial,html.Screen,4_83_0,2023-09-16T01:51:50.997Z,,0,2,,6592.19799997611,response,ISIC_1885174.JPG,5,ISIC_9859495.JPG,ISIC_1885174.JPG,false,1,keypress(m),500,706868.3000000119,706867.8999999762,700259.062,700269.0999999642,700275.702,706882.53,8,400,34,,ISIC_9859495.JPG
break,html.Screen,4_83_1,2023-09-16T01:51:50.998Z,,0,,,NaN,,,,,,false,,,,706869.8000000119,706869.3999999762,,706868.6999999881,,706882.53,8,400,,,
break_continue,html.Screen,4_83_2,2023-09-16T01:51:50.999Z,,0,,,NaN,,,,,,false,,,,706870.5999999642,706870.3000000119,,706870,,706882.53,8,400,,,
sequence,flow.Sequence,4_83,2023-09-16T01:51:50.999Z,,0,,,6594.5980000118725,completion,,,,,false,,,,706870.8000000119,706870.3000000119,700259.062,700269,700275.702,706882.53,8,400,,,
trial,html.Screen,4_84_0,2023-09-16T01:52:01.803Z,,0,2,,10792.169999988051,response,ISIC_0067427.JPG,5,ISIC_0000406.JPG,ISIC_0067427.JPG,false,1,keypress(m),500,717674.8999999762,717674.6999999881,706865.835,706871.0999999642,706882.53,717676.817,8,400,35,,ISIC_0000406.JPG
break,html.Screen,4_84_1,2023-09-16T01:52:01.804Z,,0,,,NaN,,,,,,false,,,,717675.5999999642,717675.3999999762,,717675,,717676.817,8,400,,,
break_continue,html.Screen,4_84_2,2023-09-16T01:52:01.804Z,,0,,,NaN,,,,,,false,,,,717675.8999999762,717675.8000000119,,717675.5999999642,,717676.817,8,400,,,
sequence,flow.Sequence,4_84,2023-09-16T01:52:01.804Z,,0,,,10793.270000011893,completion,,,,,false,,,,717676,717675.8000000119,706865.835,706871.0999999642,706882.53,717676.817,8,400,,,
trial,html.Screen,4_85_0,2023-09-16T01:52:08.991Z,,0,2,,7184.983000011882,response,ISIC_6722934.JPG,5,ISIC_5837098.JPG,ISIC_6722934.JPG,false,1,keypress(m),500,724862.1999999881,724861.8000000119,717660.219,717676.0999999642,717676.817,724867.579,8,400,36,,ISIC_5837098.JPG
break,html.Screen,4_85_1,2023-09-16T01:52:08.992Z,,0,,,NaN,,,,,,false,,,,724863.5999999642,724863.0999999642,,724862.5,,724867.579,8,400,,,
break_continue,html.Screen,4_85_2,2023-09-16T01:52:08.993Z,,0,,,NaN,,,,,,false,,,,724864.3000000119,724864.0999999642,,724863.8000000119,,724867.579,8,400,,,
sequence,flow.Sequence,4_85,2023-09-16T01:52:08.993Z,,0,,,7187.282999964198,completion,,,,,false,,,,724864.5,724864.0999999642,717660.219,717676,717676.817,724867.579,8,400,,,
trial,html.Screen,4_86_0,2023-09-16T01:52:13.013Z,,0,2,,4016.320999976131,response,ISIC_0025683.JPG,6,ISIC_6155782.JPG,ISIC_6155782.JPG,false,0,keypress(z),500,728884.1999999881,728883.8999999762,724850.896,724864.8000000119,724867.579,728888.345,8,400,37,,ISIC_0025683.JPG
break,html.Screen,4_86_1,2023-09-16T01:52:13.014Z,,0,,,NaN,,,,,,false,,,,728885.1999999881,728884.8999999762,,728884.3999999762,,728888.345,8,400,,,
break_continue,html.Screen,4_86_2,2023-09-16T01:52:13.014Z,,0,,,NaN,,,,,,false,,,,728885.5,728885.3999999762,,728885.1999999881,,728888.345,8,400,,,
sequence,flow.Sequence,4_86,2023-09-16T01:52:13.014Z,,0,,,4017.820999976131,completion,,,,,false,,,,728885.6999999881,728885.3999999762,724850.896,724864.6999999881,724867.579,728888.345,8,400,,,
trial,html.Screen,4_87_0,2023-09-16T01:52:19.952Z,,0,2,,6933.554999976186,response,ISIC_1155782.JPG,5,ISIC_0009230.JPG,ISIC_0009230.JPG,false,0,keypress(z),500,735823.6999999881,735821.8999999762,728871.594,728885.8000000119,728888.345,735828.769,8,400,38,,ISIC_1155782.JPG
break,html.Screen,4_87_1,2023-09-16T01:52:19.954Z,,0,,,NaN,,,,,,false,,,,735825.3999999762,735825,,735824.1999999881,,735828.769,8,400,,,
break_continue,html.Screen,4_87_2,2023-09-16T01:52:19.954Z,,0,,,NaN,,,,,,false,,,,735826.0999999642,735825.8999999762,,735825.5999999642,,735828.769,8,400,,,
sequence,flow.Sequence,4_87,2023-09-16T01:52:19.955Z,,0,,,6937.554999976186,completion,,,,,false,,,,735826.3999999762,735825.8999999762,728871.594,728885.8000000119,728888.345,735828.769,8,400,,,
trial,html.Screen,4_88_0,2023-09-16T01:52:27.416Z,,0,2,,7458.630999976187,response,ISIC_0268187.JPG,6,ISIC_0033801.JPG,ISIC_0268187.JPG,false,1,keypress(m),500,743287.5,743287.3999999762,735812.014,735826.5999999642,735828.769,743303.077,8,400,39,,ISIC_0033801.JPG
break,html.Screen,4_88_1,2023-09-16T01:52:27.416Z,,0,,,NaN,,,,,,false,,,,743287.8999999762,743287.8000000119,,743287.5999999642,,743303.077,8,400,,,
break_continue,html.Screen,4_88_2,2023-09-16T01:52:27.416Z,,0,,,NaN,,,,,,false,,,,743288,743288,,743287.8999999762,,743303.077,8,400,,,
sequence,flow.Sequence,4_88,2023-09-16T01:52:27.416Z,,0,,,7459.231000000029,completion,,,,,false,,,,743288.0999999642,743288,735812.014,735826.5,735828.769,743303.077,8,400,,,
trial,html.Screen,4_89_0,2023-09-16T01:52:31.020Z,,0,2,,3588.6229999880306,response,ISIC_0010658.JPG,4,ISIC_8324870.JPG,ISIC_8324870.JPG,false,0,keypress(z),500,746891.8000000119,746891.6999999881,743286.312,743288.0999999642,743303.077,746906.649,8,400,40,,ISIC_0010658.JPG
break,html.Screen,4_89_1,2023-09-16T01:52:31.021Z,,0,,,NaN,,,,,,false,,,,746892.3000000119,746892.1999999881,,746891.8999999762,,746906.649,8,400,,,
break_continue,html.Screen,4_89_2,2023-09-16T01:52:31.021Z,,0,,,NaN,,,,,,false,,,,746892.5,746892.5,,746892.3999999762,,746906.649,8,400,,,
sequence,flow.Sequence,4_89,2023-09-16T01:52:31.021Z,,0,,,3589.4229999999516,completion,,,,,false,,,,746892.6999999881,746892.5,743286.312,743288.0999999642,743303.077,746906.649,8,400,,,
trial,html.Screen,4_90_0,2023-09-16T01:52:36.210Z,,0,2,,5175.151000011945,response,ISIC_0450295.JPG,6,ISIC_9171071.JPG,ISIC_0450295.JPG,false,1,keypress(m),500,752082.0999999642,752081.8000000119,746889.946,746892.6999999881,746906.649,752095.299,8,400,41,,ISIC_9171071.JPG
break,html.Screen,4_90_1,2023-09-16T01:52:36.212Z,,0,,,NaN,,,,,,false,,,,752083.5,752083.0999999642,,752082.3999999762,,752095.299,8,400,,,
break_continue,html.Screen,4_90_2,2023-09-16T01:52:36.213Z,,0,,,NaN,,,,,,false,,,,752084.5,752084.3000000119,,752083.8999999762,,752095.299,8,400,,,
sequence,flow.Sequence,4_90,2023-09-16T01:52:36.213Z,,0,,,5177.651000011945,completion,,,,,false,,,,752085,752084.3000000119,746889.946,746892.6999999881,746906.649,752095.299,8,400,,,
trial,html.Screen,4_91_0,2023-09-16T01:52:41.832Z,,0,2,,5608.501000011922,response,ISIC_3070206.JPG,5,ISIC_5622348.JPG,ISIC_3070206.JPG,false,1,keypress(m),500,757703.8000000119,757703.8000000119,752078.672,752085.1999999881,752095.299,757717.746,8,400,42,,ISIC_5622348.JPG
break,html.Screen,4_91_1,2023-09-16T01:52:41.833Z,,0,,,NaN,,,,,,false,,,,757704.1999999881,757704.0999999642,,757703.8999999762,,757717.746,8,400,,,
break_continue,html.Screen,4_91_2,2023-09-16T01:52:41.833Z,,0,,,NaN,,,,,,false,,,,757704.3000000119,757704.1999999881,,757704.1999999881,,757717.746,8,400,,,
sequence,flow.Sequence,4_91,2023-09-16T01:52:41.833Z,,0,,,5608.90099998808,completion,,,,,false,,,,757704.3999999762,757704.1999999881,752078.672,752085.1999999881,752095.299,757717.746,8,400,,,
trial,html.Screen,4_92_0,2023-09-16T01:52:46.462Z,,0,2,,4615.253999999957,response,ISIC_3799267.JPG,5,ISIC_0033710.JPG,ISIC_3799267.JPG,false,1,keypress(m),500,762333.3000000119,762333,757701.103,757704.3999999762,757717.746,762339.233,8,400,43,,ISIC_0033710.JPG
break,html.Screen,4_92_1,2023-09-16T01:52:46.464Z,,0,,,NaN,,,,,,false,,,,762335.8000000119,762335.0999999642,,762333.8999999762,,762339.233,8,400,,,
break_continue,html.Screen,4_92_2,2023-09-16T01:52:46.465Z,,0,,,NaN,,,,,,false,,,,762336.5999999642,762336.3999999762,,762336,,762339.233,8,400,,,
sequence,flow.Sequence,4_92,2023-09-16T01:52:46.465Z,,0,,,4618.653999976115,completion,,,,,false,,,,762337,762336.3999999762,757701.103,757704.3999999762,757717.746,762339.233,8,400,,,
trial,html.Screen,4_93_0,2023-09-16T01:52:53.669Z,,0,2,,7200.666999976151,response,ISIC_0026505.JPG,4,ISIC_5835765.JPG,ISIC_0026505.JPG,false,1,keypress(m),500,769540.3000000119,769539.8999999762,762322.485,762337.1999999881,762339.233,769546.509,8,400,44,,ISIC_5835765.JPG
break,html.Screen,4_93_1,2023-09-16T01:52:53.670Z,,0,,,NaN,,,,,,false,,,,769541.6999999881,769541.3000000119,,769540.5999999642,,769546.509,8,400,,,
break_continue,html.Screen,4_93_2,2023-09-16T01:52:53.671Z,,0,,,NaN,,,,,,false,,,,769542.3999999762,769542.1999999881,,769541.8000000119,,769546.509,8,400,,,
sequence,flow.Sequence,4_93,2023-09-16T01:52:53.671Z,,0,,,7202.966999988072,completion,,,,,false,,,,769542.5999999642,769542.1999999881,762322.485,762337.1999999881,762339.233,769546.509,8,400,,,
trial,html.Screen,4_94_0,2023-09-16T01:52:58.474Z,,0,2,,4799.090999964275,response,ISIC_0026595.JPG,6,ISIC_0026548.JPG,ISIC_0026548.JPG,false,0,keypress(z),500,774345.8000000119,774345.5999999642,769529.825,769542.8999999762,769546.509,774351.395,8,400,45,,ISIC_0026595.JPG
break,html.Screen,4_94_1,2023-09-16T01:52:58.475Z,,0,,,NaN,,,,,,false,,,,774346.3999999762,774346.1999999881,,774345.8999999762,,774351.395,8,400,,,
break_continue,html.Screen,4_94_2,2023-09-16T01:52:58.475Z,,0,,,NaN,,,,,,false,,,,774346.8000000119,774346.6999999881,,774346.5,,774351.395,8,400,,,
sequence,flow.Sequence,4_94,2023-09-16T01:52:58.475Z,,0,,,4800.190999988117,completion,,,,,false,,,,774347,774346.6999999881,769529.825,769542.8999999762,769546.509,774351.395,8,400,,,
trial,html.Screen,4_95_0,2023-09-16T01:53:06.030Z,,0,2,,7549.30499998806,response,ISIC_0069257.JPG,5,ISIC_8287726.JPG,ISIC_0069257.JPG,false,1,keypress(m),500,781901.1999999881,781900.6999999881,774334.751,774347,774351.395,781909.047,8,400,46,,ISIC_8287726.JPG
break,html.Screen,4_95_1,2023-09-16T01:53:06.030Z,,0,,,NaN,,,,,,false,,,,781901.5999999642,781901.5,,781901.1999999881,,781909.047,8,400,,,
break_continue,html.Screen,4_95_2,2023-09-16T01:53:06.030Z,,0,,,NaN,,,,,,false,,,,781901.6999999881,781901.5999999642,,781901.5999999642,,781909.047,8,400,,,
sequence,flow.Sequence,4_95,2023-09-16T01:53:06.030Z,,0,,,7550.204999964219,completion,,,,,false,,,,781901.8000000119,781901.5999999642,774334.751,774347,774351.395,781909.047,8,400,,,
trial,html.Screen,4_96_0,2023-09-16T01:53:13.139Z,,0,2,,7100.7530000119,response,ISIC_1772828.JPG,6,ISIC_0069264.JPG,ISIC_0069264.JPG,false,0,keypress(z),500,789010.3000000119,789009.8000000119,781892.382,781901.8000000119,781909.047,789016.42,8,400,47,,ISIC_1772828.JPG
break,html.Screen,4_96_1,2023-09-16T01:53:13.140Z,,0,,,NaN,,,,,,false,,,,789011.5999999642,789011.1999999881,,789010.5999999642,,789016.42,8,400,,,
break_continue,html.Screen,4_96_2,2023-09-16T01:53:13.141Z,,0,,,NaN,,,,,,false,,,,789012.3999999762,789012.0999999642,,789011.8000000119,,789016.42,8,400,,,
sequence,flow.Sequence,4_96,2023-09-16T01:53:13.141Z,,0,,,7103.052999964217,completion,,,,,false,,,,789012.5999999642,789012.0999999642,781892.382,781901.8000000119,781909.047,789016.42,8,400,,,
trial,html.Screen,4_97_0,2023-09-16T01:53:22.088Z,,0,2,,8942.479999976116,response,ISIC_8539990.JPG,5,ISIC_5219334.JPG,ISIC_5219334.JPG,false,0,keypress(z),500,797959.3000000119,797958.8999999762,788999.648,789012.8999999762,789016.42,797975.54,8,400,48,,ISIC_8539990.JPG
break,html.Screen,4_97_1,2023-09-16T01:53:22.089Z,,0,,,NaN,,,,,,false,,,,797960.5999999642,797960.1999999881,,797959.5999999642,,797975.54,8,400,,,
break_continue,html.Screen,4_97_2,2023-09-16T01:53:22.090Z,,0,,,NaN,,,,,,false,,,,797961.3000000119,797961.0999999642,,797960.8000000119,,797975.54,8,400,,,
sequence,flow.Sequence,4_97,2023-09-16T01:53:22.090Z,,0,,,8944.679999964195,completion,,,,,false,,,,797961.5999999642,797961.0999999642,788999.648,789012.8000000119,789016.42,797975.54,8,400,,,
trial,html.Screen,4_98_0,2023-09-16T01:53:26.637Z,,0,2,,4533.260000011884,response,ISIC_3060145.JPG,6,ISIC_0057059.JPG,ISIC_3060145.JPG,false,1,keypress(m),500,802508.8000000119,802508.8000000119,797958.788,797961.8000000119,797975.54,802513.487,8,400,49,,ISIC_0057059.JPG
break,html.Screen,4_98_1,2023-09-16T01:53:26.638Z,,0,,,NaN,,,,,,false,,,,802509.3000000119,802509.0999999642,,802508.8999999762,,802513.487,8,400,,,
break_continue,html.Screen,4_98_2,2023-09-16T01:53:26.638Z,,0,,,NaN,,,,,,false,,,,802509.3999999762,802509.3999999762,,802509.3000000119,,802513.487,8,400,,,
sequence,flow.Sequence,4_98,2023-09-16T01:53:26.638Z,,0,,,4533.859999976121,completion,,,,,false,,,,802509.5,802509.3999999762,797958.788,797961.6999999881,797975.54,802513.487,8,400,,,
trial,html.Screen,4_99_0,2023-09-16T01:53:30.735Z,,0,2,,4093.3130000119563,response,ISIC_5722914.JPG,5,ISIC_0032012.JPG,ISIC_5722914.JPG,false,1,keypress(m),500,806606.8999999762,806606.8000000119,802496.788,802509.5,802513.487,806617.658,8,400,50,,ISIC_0032012.JPG
break,html.Screen,4_99_1,2023-09-16T01:53:40.723Z,,0,,,9993.505999999936,timeout,,,,,false,,,,816594.8999999762,816594.549,806601.008,806607.0999999642,806617.658,816611.164,8,400,,,
break_continue,html.Screen,4_99_2,2023-09-16T01:53:43.154Z,,0,,,2409.136000011931,response,,,,,false,continue,keypress(Space),,819025.5999999642,819020.3000000119,816594.549,816595,816611.164,819030.321,8,400,,,
sequence,flow.Sequence,4_99,2023-09-16T01:53:43.154Z,,0,,,16506.813000011956,completion,,,,,false,,,,819025.8000000119,819020.3000000119,802496.788,802509.5,802513.487,819030.321,8,400,,,
trial,html.Screen,4_100_0,2023-09-16T01:53:47.815Z,,0,3,,4656.378999988083,response,ISIC_9958062.JPG,5,ISIC_0046633.JPG,ISIC_9958062.JPG,false,1,keypress(m),500,823686.8000000119,823686.6999999881,819013.551,819025.8000000119,819030.321,823701.714,8,400,1,,ISIC_0046633.JPG
break,html.Screen,4_100_1,2023-09-16T01:53:47.816Z,,0,,,NaN,,,,,,false,,,,823687.3999999762,823687.1999999881,,823686.8999999762,,823701.714,8,400,,,
break_continue,html.Screen,4_100_2,2023-09-16T01:53:47.816Z,,0,,,NaN,,,,,,false,,,,823687.5,823687.5,,823687.3999999762,,823701.714,8,400,,,
sequence,flow.Sequence,4_100,2023-09-16T01:53:47.816Z,,0,,,4657.179000000004,completion,,,,,false,,,,823687.5999999642,823687.5,819013.551,819025.8000000119,819030.321,823701.714,8,400,,,
trial,html.Screen,4_101_0,2023-09-16T01:53:59.309Z,,0,3,,11511.841000000015,timeout,ISIC_3981101.JPG,6,ISIC_3882374.JPG,ISIC_3981101.JPG,false,,,500,835180.5,835180.3999999762,823685.119,823687.5999999642,823701.714,835213.555,8,400,2,,ISIC_3882374.JPG
break,html.Screen,4_101_1,2023-09-16T01:53:59.309Z,,0,,,NaN,,,,,,false,,,,835180.8999999762,835180.8999999762,,835180.6999999881,,835213.555,8,400,,,
break_continue,html.Screen,4_101_2,2023-09-16T01:53:59.309Z,,0,,,NaN,,,,,,false,,,,835181,835181,,835180.8999999762,,835213.555,8,400,,,
sequence,flow.Sequence,4_101,2023-09-16T01:53:59.309Z,,0,,,11479.285999999964,completion,,,,,false,,,,835181.0999999642,835181,823685.119,823687.5999999642,823701.714,835213.555,8,400,,,
trial,html.Screen,4_102_0,2023-09-16T01:54:03.713Z,,0,3,,4371.24500001187,response,ISIC_0056692.JPG,4,ISIC_9217340.JPG,ISIC_0056692.JPG,false,1,keypress(m),500,839585.0999999642,839584.8000000119,835196.882,835181.0999999642,835213.555,839601.288,8,400,3,,ISIC_9217340.JPG
break,html.Screen,4_102_1,2023-09-16T01:54:03.715Z,,0,,,NaN,,,,,,false,,,,839586.3999999762,839586,,839585.3999999762,,839601.288,8,400,,,
break_continue,html.Screen,4_102_2,2023-09-16T01:54:03.715Z,,0,,,NaN,,,,,,false,,,,839587,839586.8000000119,,839586.5,,839601.288,8,400,,,
sequence,flow.Sequence,4_102,2023-09-16T01:54:03.716Z,,0,,,4373.24500001187,completion,,,,,false,,,,839587.1999999881,839586.8000000119,835196.882,835181.0999999642,835213.555,839601.288,8,400,,,
trial,html.Screen,4_103_0,2023-09-16T01:54:08.215Z,,0,3,,4484.611999976216,response,ISIC_0028903.JPG,6,ISIC_3597812.JPG,ISIC_3597812.JPG,false,0,keypress(z),500,844086.1999999881,844085.8999999762,839584.704,839587.5,839601.288,844089.3,8,400,4,,ISIC_0028903.JPG
break,html.Screen,4_103_1,2023-09-16T01:54:08.216Z,,0,,,NaN,,,,,,false,,,,844087.5,844087.1999999881,,844086.5,,844089.3,8,400,,,
break_continue,html.Screen,4_103_2,2023-09-16T01:54:08.217Z,,0,,,NaN,,,,,,false,,,,844088.1999999881,844087.8999999762,,844087.6999999881,,844089.3,8,400,,,
sequence,flow.Sequence,4_103,2023-09-16T01:54:08.217Z,,0,,,4486.611999976216,completion,,,,,false,,,,844088.3999999762,844087.8999999762,839584.704,839587.3999999762,839601.288,844089.3,8,400,,,
trial,html.Screen,4_104_0,2023-09-16T01:54:14.076Z,,0,3,,5858.299999964191,response,ISIC_4129321.JPG,6,ISIC_0007257.JPG,ISIC_0007257.JPG,false,0,keypress(z),500,849947.6999999881,849947.5999999642,844072.638,844088.5999999642,844089.3,849961.895,8,400,5,,ISIC_4129321.JPG
break,html.Screen,4_104_1,2023-09-16T01:54:14.077Z,,0,,,NaN,,,,,,false,,,,849948.6999999881,849948.3999999762,,849947.8999999762,,849961.895,8,400,,,
break_continue,html.Screen,4_104_2,2023-09-16T01:54:14.078Z,,0,,,NaN,,,,,,false,,,,849949.1999999881,849949.0999999642,,849948.8000000119,,849961.895,8,400,,,
sequence,flow.Sequence,4_104,2023-09-16T01:54:14.078Z,,0,,,5859.799999964191,completion,,,,,false,,,,849949.3000000119,849949.0999999642,844072.638,844088.5999999642,844089.3,849961.895,8,400,,,
trial,html.Screen,4_105_0,2023-09-16T01:54:18.870Z,,0,3,,4780.0049999761395,response,ISIC_0028781.JPG,6,ISIC_4055833.JPG,ISIC_4055833.JPG,false,0,keypress(z),500,854741.8999999762,854741.8999999762,849945.295,849949.5,849961.895,854750.143,8,400,6,,ISIC_0028781.JPG
break,html.Screen,4_105_1,2023-09-16T01:54:18.871Z,,0,,,NaN,,,,,,false,,,,854742.3999999762,854742.3000000119,,854742,,854750.143,8,400,,,
break_continue,html.Screen,4_105_2,2023-09-16T01:54:18.871Z,,0,,,NaN,,,,,,false,,,,854742.5999999642,854742.5,,854742.5,,854750.143,8,400,,,
sequence,flow.Sequence,4_105,2023-09-16T01:54:18.871Z,,0,,,4780.604999999981,completion,,,,,false,,,,854742.6999999881,854742.5,849945.295,849949.5,849961.895,854750.143,8,400,,,
trial,html.Screen,4_106_0,2023-09-16T01:54:23.871Z,,0,3,,4992.556999988039,response,ISIC_6398283.JPG,6,ISIC_7271745.JPG,ISIC_7271745.JPG,false,0,keypress(z),500,859742.8999999762,859742.6999999881,854733.483,854742.8000000119,854750.143,859755.265,8,400,7,,ISIC_6398283.JPG
break,html.Screen,4_106_1,2023-09-16T01:54:23.872Z,,0,,,NaN,,,,,,false,,,,859743.8000000119,859743.5,,859743.0999999642,,859755.265,8,400,,,
break_continue,html.Screen,4_106_2,2023-09-16T01:54:23.873Z,,0,,,NaN,,,,,,false,,,,859744.1999999881,859744.1999999881,,859743.8999999762,,859755.265,8,400,,,
sequence,flow.Sequence,4_106,2023-09-16T01:54:23.873Z,,0,,,4994.056999988039,completion,,,,,false,,,,859744.3999999762,859744.1999999881,854733.483,854742.8000000119,854750.143,859755.265,8,400,,,
trial,html.Screen,4_107_0,2023-09-16T01:54:29.428Z,,0,3,,5543.634999976144,response,ISIC_1735204.JPG,4,ISIC_0027420.JPG,ISIC_1735204.JPG,false,1,keypress(m),500,865299.1999999881,865298.8999999762,859738.553,859744.5,859755.265,865310.976,8,400,8,,ISIC_0027420.JPG
break,html.Screen,4_107_1,2023-09-16T01:54:29.429Z,,0,,,NaN,,,,,,false,,,,865300.5999999642,865300.0999999642,,865299.5,,865310.976,8,400,,,
break_continue,html.Screen,4_107_2,2023-09-16T01:54:29.430Z,,0,,,NaN,,,,,,false,,,,865301.1999999881,865301,,865300.6999999881,,865310.976,8,400,,,
sequence,flow.Sequence,4_107,2023-09-16T01:54:29.430Z,,0,,,5545.734999999986,completion,,,,,false,,,,865301.5,865301,859738.553,859744.3999999762,859755.265,865310.976,8,400,,,
trial,html.Screen,4_108_0,2023-09-16T01:54:33.806Z,,0,3,,4366.824000011897,response,ISIC_4885444.JPG,6,ISIC_0010852.JPG,ISIC_4885444.JPG,false,1,keypress(m),500,869678.0999999642,869677.8000000119,865294.288,865301.8000000119,865310.976,869698.768,8,400,9,,ISIC_0010852.JPG
break,html.Screen,4_108_1,2023-09-16T01:54:33.808Z,,0,,,NaN,,,,,,false,,,,869679.0999999642,869678.8000000119,,869678.1999999881,,869698.768,8,400,,,
break_continue,html.Screen,4_108_2,2023-09-16T01:54:33.808Z,,0,,,NaN,,,,,,false,,,,869679.5999999642,869679.5,,869679.1999999881,,869698.768,8,400,,,
sequence,flow.Sequence,4_108,2023-09-16T01:54:33.808Z,,0,,,4368.523999999976,completion,,,,,false,,,,869680,869679.5,865294.288,865301.6999999881,865310.976,869698.768,8,400,,,
trial,html.Screen,4_109_0,2023-09-16T01:54:39.235Z,,0,3,,5408.032000011881,response,ISIC_0065200.JPG,6,ISIC_3433060.JPG,ISIC_0065200.JPG,false,1,keypress(m),500,875106.8999999762,875106.8000000119,869682.086,869680.0999999642,869698.768,875120.876,8,400,10,,ISIC_3433060.JPG
break,html.Screen,4_109_1,2023-09-16T01:54:39.236Z,,0,,,NaN,,,,,,false,,,,875107.3999999762,875107.3000000119,,875107,,875120.876,8,400,,,
break_continue,html.Screen,4_109_2,2023-09-16T01:54:39.236Z,,0,,,NaN,,,,,,false,,,,875107.6999999881,875107.5999999642,,875107.5,,875120.876,8,400,,,
sequence,flow.Sequence,4_109,2023-09-16T01:54:39.236Z,,0,,,5408.831999964197,completion,,,,,false,,,,875107.8000000119,875107.5999999642,869682.086,869680,869698.768,875120.876,8,400,,,
trial,html.Screen,4_110_0,2023-09-16T01:54:43.229Z,,0,3,,3979.0239999761106,response,ISIC_9747194.JPG,5,ISIC_7424320.JPG,ISIC_9747194.JPG,false,1,keypress(m),500,879100.1999999881,879099.8999999762,875104.181,875107.8000000119,875120.876,879108.432,8,400,11,,ISIC_7424320.JPG
break,html.Screen,4_110_1,2023-09-16T01:54:43.230Z,,0,,,NaN,,,,,,false,,,,879101.5999999642,879101.1999999881,,879100.5999999642,,879108.432,8,400,,,
break_continue,html.Screen,4_110_2,2023-09-16T01:54:43.231Z,,0,,,NaN,,,,,,false,,,,879102.3999999762,879102.1999999881,,879101.8000000119,,879108.432,8,400,,,
sequence,flow.Sequence,4_110,2023-09-16T01:54:43.231Z,,0,,,3981.3239999880316,completion,,,,,false,,,,879102.6999999881,879102.1999999881,875104.181,875107.8000000119,875120.876,879108.432,8,400,,,
trial,html.Screen,4_111_0,2023-09-16T01:54:48.921Z,,0,3,,5684.267999988049,response,ISIC_8578732.JPG,4,ISIC_5336007.JPG,ISIC_5336007.JPG,false,0,keypress(z),500,884792.8999999762,884792.6999999881,879091.739,879103,879108.432,884797.428,8,400,12,,ISIC_8578732.JPG
break,html.Screen,4_111_1,2023-09-16T01:54:48.922Z,,0,,,NaN,,,,,,false,,,,884793.3000000119,884793.1999999881,,884792.8999999762,,884797.428,8,400,,,
break_continue,html.Screen,4_111_2,2023-09-16T01:54:48.922Z,,0,,,NaN,,,,,,false,,,,884793.5999999642,884793.5,,884793.3999999762,,884797.428,8,400,,,
sequence,flow.Sequence,4_111,2023-09-16T01:54:48.922Z,,0,,,5685.06799999997,completion,,,,,false,,,,884793.6999999881,884793.5,879091.739,879102.8999999762,879108.432,884797.428,8,400,,,
trial,html.Screen,4_112_0,2023-09-16T01:54:53.999Z,,0,3,,5073.372000011965,response,ISIC_0011546.JPG,5,ISIC_6907218.JPG,ISIC_0011546.JPG,false,1,keypress(m),500,889870.8999999762,889870.8000000119,884780.84,884793.8000000119,884797.428,889886.002,8,400,13,,ISIC_6907218.JPG
break,html.Screen,4_112_1,2023-09-16T01:54:54.000Z,,0,,,NaN,,,,,,false,,,,889871.3000000119,889871.1999999881,,889871,,889886.002,8,400,,,
break_continue,html.Screen,4_112_2,2023-09-16T01:54:54.000Z,,0,,,NaN,,,,,,false,,,,889871.3999999762,889871.3999999762,,889871.3999999762,,889886.002,8,400,,,
sequence,flow.Sequence,4_112,2023-09-16T01:54:54.000Z,,0,,,5073.971999976202,completion,,,,,false,,,,889871.5,889871.3999999762,884780.84,884793.8000000119,884797.428,889886.002,8,400,,,
trial,html.Screen,4_113_0,2023-09-16T01:54:59.826Z,,0,3,,5810.89799997618,response,ISIC_0032233.JPG,5,ISIC_0003201.JPG,ISIC_0003201.JPG,false,0,keypress(z),500,895697.1999999881,895696.8999999762,889869.415,889871.5999999642,889886.002,895708.657,8,400,14,,ISIC_0032233.JPG
break,html.Screen,4_113_1,2023-09-16T01:54:59.827Z,,0,,,NaN,,,,,,false,,,,895698.3999999762,895698.0999999642,,895697.5,,895708.657,8,400,,,
break_continue,html.Screen,4_113_2,2023-09-16T01:54:59.827Z,,0,,,NaN,,,,,,false,,,,895699,895698.8000000119,,895698.5999999642,,895708.657,8,400,,,
sequence,flow.Sequence,4_113,2023-09-16T01:54:59.828Z,,0,,,5812.798000011942,completion,,,,,false,,,,895699.1999999881,895698.8000000119,889869.415,889871.5,889886.002,895708.657,8,400,,,
trial,html.Screen,4_114_0,2023-09-16T01:55:05.192Z,,0,3,,5354.143000011914,response,ISIC_3727059.JPG,4,ISIC_1753877.JPG,ISIC_1753877.JPG,false,0,keypress(z),500,901063.1999999881,901062.8000000119,895691.885,895699.3999999762,895708.657,901080.792,8,400,15,,ISIC_3727059.JPG
break,html.Screen,4_114_1,2023-09-16T01:55:05.193Z,,0,,,NaN,,,,,,false,,,,901065,901064.3999999762,,901063.5,,901080.792,8,400,,,
break_continue,html.Screen,4_114_2,2023-09-16T01:55:05.194Z,,0,,,NaN,,,,,,false,,,,901065.6999999881,901065.5,,901065.0999999642,,901080.792,8,400,,,
sequence,flow.Sequence,4_114,2023-09-16T01:55:05.194Z,,0,,,5356.8429999999935,completion,,,,,false,,,,901066,901065.5,895691.885,895699.3999999762,895708.657,901080.792,8,400,,,
trial,html.Screen,4_115_0,2023-09-16T01:55:09.261Z,,0,3,,4051.1079999761423,response,ISIC_0031350.JPG,5,ISIC_5762714.JPG,ISIC_0031350.JPG,false,1,keypress(m),500,905132.3000000119,905131.8999999762,901064.139,901066.3000000119,901080.792,905134.975,8,400,16,,ISIC_5762714.JPG
break,html.Screen,4_115_1,2023-09-16T01:55:09.262Z,,0,,,NaN,,,,,,false,,,,905133.5999999642,905133.1999999881,,905132.5,,905134.975,8,400,,,
break_continue,html.Screen,4_115_2,2023-09-16T01:55:09.263Z,,0,,,NaN,,,,,,false,,,,905134.5,905134.1999999881,,905133.8999999762,,905134.975,8,400,,,
sequence,flow.Sequence,4_115,2023-09-16T01:55:09.263Z,,0,,,4053.4079999880632,completion,,,,,false,,,,905134.6999999881,905134.1999999881,901064.139,901066.0999999642,901080.792,905134.975,8,400,,,
trial,html.Screen,4_116_0,2023-09-16T01:55:13.555Z,,0,3,,4291.724999988102,response,ISIC_0011772.JPG,6,ISIC_0013497.JPG,ISIC_0013497.JPG,false,0,keypress(z),500,909426.8000000119,909426.6999999881,905118.332,905134.8999999762,905134.975,909439.248,8,400,17,,ISIC_0011772.JPG
break,html.Screen,4_116_1,2023-09-16T01:55:13.556Z,,0,,,NaN,,,,,,false,,,,909427.3000000119,909427.1999999881,,909426.8999999762,,909439.248,8,400,,,
break_continue,html.Screen,4_116_2,2023-09-16T01:55:13.556Z,,0,,,NaN,,,,,,false,,,,909427.5,909427.3999999762,,909427.3999999762,,909439.248,8,400,,,
sequence,flow.Sequence,4_116,2023-09-16T01:55:13.556Z,,0,,,4292.424999976181,completion,,,,,false,,,,909427.5,909427.3999999762,905118.332,905134.8999999762,905134.975,909439.248,8,400,,,
trial,html.Screen,4_117_0,2023-09-16T01:55:19.643Z,,0,3,,6075.651999976137,response,ISIC_8790198.JPG,5,ISIC_5776158.JPG,ISIC_8790198.JPG,false,1,keypress(m),500,915515,915514.8999999762,909422.681,909427.5999999642,909439.248,915528.841,8,400,18,,ISIC_5776158.JPG
break,html.Screen,4_117_1,2023-09-16T01:55:19.644Z,,0,,,NaN,,,,,,false,,,,915515.3000000119,915515.3000000119,,915515,,915528.841,8,400,,,
break_continue,html.Screen,4_117_2,2023-09-16T01:55:19.644Z,,0,,,NaN,,,,,,false,,,,915515.5999999642,915515.5,,915515.5,,915528.841,8,400,,,
sequence,flow.Sequence,4_117,2023-09-16T01:55:19.644Z,,0,,,6076.251999999979,completion,,,,,false,,,,915515.5999999642,915515.5,909422.681,909427.5999999642,909439.248,915528.841,8,400,,,
trial,html.Screen,4_118_0,2023-09-16T01:55:25.421Z,,0,3,,5763.258999964222,response,ISIC_0029244.JPG,6,ISIC_6618943.JPG,ISIC_6618943.JPG,false,0,keypress(z),500,921292.1999999881,921292.0999999642,915512.242,915515.6999999881,915528.841,921301.381,8,400,19,,ISIC_0029244.JPG
break,html.Screen,4_118_1,2023-09-16T01:55:25.421Z,,0,,,NaN,,,,,,false,,,,921292.5999999642,921292.5999999642,,921292.3000000119,,921301.381,8,400,,,
break_continue,html.Screen,4_118_2,2023-09-16T01:55:25.421Z,,0,,,NaN,,,,,,false,,,,921292.8000000119,921292.6999999881,,921292.6999999881,,921301.381,8,400,,,
sequence,flow.Sequence,4_118,2023-09-16T01:55:25.421Z,,0,,,5763.858999988064,completion,,,,,false,,,,921292.8000000119,921292.6999999881,915512.242,915515.5999999642,915528.841,921301.381,8,400,,,
trial,html.Screen,4_119_0,2023-09-16T01:55:28.965Z,,0,3,,3534.419000011869,response,ISIC_3239813.JPG,6,ISIC_2647643.JPG,ISIC_3239813.JPG,false,1,keypress(m),500,924836.1999999881,924835.8000000119,921284.759,921292.8000000119,921301.381,924838.416,8,400,20,,ISIC_2647643.JPG
break,html.Screen,4_119_1,2023-09-16T01:55:28.966Z,,0,,,NaN,,,,,,false,,,,924837.5,924837.0999999642,,924836.3999999762,,924838.416,8,400,,,
break_continue,html.Screen,4_119_2,2023-09-16T01:55:28.967Z,,0,,,NaN,,,,,,false,,,,924838.1999999881,924838,,924837.5999999642,,924838.416,8,400,,,
sequence,flow.Sequence,4_119,2023-09-16T01:55:28.967Z,,0,,,3536.618999999948,completion,,,,,false,,,,924838.5,924838,921284.759,921292.8000000119,921301.381,924838.416,8,400,,,
trial,html.Screen,4_120_0,2023-09-16T01:55:33.871Z,,0,3,,4901.384000011953,response,ISIC_0059733.JPG,4,ISIC_8041550.JPG,ISIC_8041550.JPG,false,0,keypress(z),500,929742.0999999642,929739.8000000119,924821.723,924839,924838.416,929760.063,8,400,21,,ISIC_0059733.JPG
break,html.Screen,4_120_1,2023-09-16T01:55:33.872Z,,0,,,NaN,,,,,,false,,,,929744,929743.3999999762,,929742.5999999642,,929760.063,8,400,,,
break_continue,html.Screen,4_120_2,2023-09-16T01:55:33.873Z,,0,,,NaN,,,,,,false,,,,929744.8000000119,929744.5999999642,,929744.0999999642,,929760.063,8,400,,,
sequence,flow.Sequence,4_120,2023-09-16T01:55:33.873Z,,0,,,4906.183999964269,completion,,,,,false,,,,929745.0999999642,929744.5999999642,924821.723,924838.8999999762,924838.416,929760.063,8,400,,,
trial,html.Screen,4_121_0,2023-09-16T01:55:37.301Z,,0,3,,3411.8369999761926,response,ISIC_1356715.JPG,6,ISIC_4505178.JPG,ISIC_1356715.JPG,false,1,keypress(m),500,933172.3000000119,933171.8999999762,929726.734,929745.3000000119,929760.063,933180.286,8,400,22,,ISIC_4505178.JPG
break,html.Screen,4_121_1,2023-09-16T01:55:37.302Z,,0,,,NaN,,,,,,false,,,,933173.6999999881,933173.3000000119,,933172.5,,933180.286,8,400,,,
break_continue,html.Screen,4_121_2,2023-09-16T01:55:37.303Z,,0,,,NaN,,,,,,false,,,,933174.5,933174.3999999762,,933174.0999999642,,933180.286,8,400,,,
sequence,flow.Sequence,4_121,2023-09-16T01:55:37.303Z,,0,,,3414.3369999761926,completion,,,,,false,,,,933174.8999999762,933174.3999999762,929726.734,929745.1999999881,929760.063,933180.286,8,400,,,
trial,html.Screen,4_122_0,2023-09-16T01:55:43.291Z,,0,3,,5982.514000011957,response,ISIC_1838888.JPG,5,ISIC_4303228.JPG,ISIC_1838888.JPG,false,1,keypress(m),500,939163,939162.8000000119,933163.543,933175.1999999881,933180.286,939169.627,8,400,23,,ISIC_4303228.JPG
break,html.Screen,4_122_1,2023-09-16T01:55:43.292Z,,0,,,NaN,,,,,,false,,,,939163.5,939163.3000000119,,939163.0999999642,,939169.627,8,400,,,
break_continue,html.Screen,4_122_2,2023-09-16T01:55:43.292Z,,0,,,NaN,,,,,,false,,,,939163.6999999881,939163.5999999642,,939163.5,,939169.627,8,400,,,
sequence,flow.Sequence,4_122,2023-09-16T01:55:43.292Z,,0,,,5983.3139999642735,completion,,,,,false,,,,939163.8000000119,939163.5999999642,933163.543,933175.0999999642,933180.286,939169.627,8,400,,,
trial,html.Screen,4_123_0,2023-09-16T01:55:46.814Z,,0,3,,3516.1730000119423,response,ISIC_9358630.JPG,6,ISIC_0000314.JPG,ISIC_0000314.JPG,false,0,keypress(z),500,942686,942685.8000000119,939153.068,939163.8000000119,939169.627,942689.892,8,400,24,,ISIC_9358630.JPG
break,html.Screen,4_123_1,2023-09-16T01:55:46.815Z,,0,,,NaN,,,,,,false,,,,942686.3000000119,942686.1999999881,,942686,,942689.892,8,400,,,
break_continue,html.Screen,4_123_2,2023-09-16T01:55:46.815Z,,0,,,NaN,,,,,,false,,,,942686.3999999762,942686.3999999762,,942686.3999999762,,942689.892,8,400,,,
sequence,flow.Sequence,4_123,2023-09-16T01:55:46.815Z,,0,,,3516.7729999761796,completion,,,,,false,,,,942686.5,942686.3999999762,939153.068,939163.8000000119,939169.627,942689.892,8,400,,,
trial,html.Screen,4_124_0,2023-09-16T01:55:54.083Z,,0,3,,7263.908000011928,response,ISIC_3817292.JPG,5,ISIC_6985859.JPG,ISIC_6985859.JPG,false,0,keypress(z),500,949954.0999999642,949953.8000000119,942673.258,942686.5,942689.892,949964.07,8,400,25,,ISIC_3817292.JPG
break,html.Screen,4_124_1,2023-09-16T01:55:54.084Z,,0,,,NaN,,,,,,false,,,,949955.3000000119,949955,,949954.3999999762,,949964.07,8,400,,,
break_continue,html.Screen,4_124_2,2023-09-16T01:55:54.084Z,,0,,,NaN,,,,,,false,,,,949955.8999999762,949955.6999999881,,949955.5,,949964.07,8,400,,,
sequence,flow.Sequence,4_124,2023-09-16T01:55:54.085Z,,0,,,7265.8079999880865,completion,,,,,false,,,,949956.1999999881,949955.6999999881,942673.258,942686.5,942689.892,949964.07,8,400,,,
trial,html.Screen,4_125_0,2023-09-16T01:56:01.016Z,,0,3,,6922.730000011972,response,ISIC_0059411.JPG,4,ISIC_0060946.JPG,ISIC_0060946.JPG,false,0,keypress(z),500,956887.0999999642,956886.8000000119,949947.403,949956.3000000119,949964.07,956904.461,8,400,26,,ISIC_0059411.JPG
break,html.Screen,4_125_1,2023-09-16T01:56:01.017Z,,0,,,NaN,,,,,,false,,,,956888.6999999881,956888.1999999881,,956887.5,,956904.461,8,400,,,
break_continue,html.Screen,4_125_2,2023-09-16T01:56:01.018Z,,0,,,NaN,,,,,,false,,,,956889.5,956889.3000000119,,956888.8999999762,,956904.461,8,400,,,
sequence,flow.Sequence,4_125,2023-09-16T01:56:01.018Z,,0,,,6925.230000011972,completion,,,,,false,,,,956889.8000000119,956889.3000000119,949947.403,949956.3000000119,949964.07,956904.461,8,400,,,
trial,html.Screen,4_126_0,2023-09-16T01:56:05.199Z,,0,3,,4166.339000011911,response,ISIC_8397077.JPG,5,ISIC_0003217.JPG,ISIC_0003217.JPG,false,0,keypress(z),500,961070.8999999762,961070.8000000119,956887.788,956890,956904.461,961075.369,8,400,27,,ISIC_8397077.JPG
