sender,sender_type,sender_id,timestamp,meta,,blockNo,condition,duration,ended_on,img_left,img_reveal,img_right,loser,practice,response,response_action,selection_duration,time_commit,time_end,time_render,time_run,time_show,time_switch,total_blocks,total_trials,trialNo,url,winner
informed_consent,html.Screen,0,2023-05-02T02:23:32.128Z,"{""labjs_version"":""20.2.4"",""labjs_build"":{""flavor"":""production"",""commit"":""f5b4a49f956347addd546a832a3327688c2c0fef""},""location"":""https://run.pavlovia.org/MurrayBennett/melanoma-2afc/?participant=64821"",""userAgent"":""Mozilla/5.0 (Windows NT 10.0; Win64; x64) AppleWebKit/537.36 (KHTML, like Gecko) Chrome/112.0.0.0 Safari/537.36 Edg/112.0.1722.64"",""platform"":""Win32"",""language"":""en-US"",""locale"":""en-US"",""timeZone"":""America/Chicago"",""timezoneOffset"":300,""screen_width"":1536,""screen_height"":864,""scroll_width"":1479,""scroll_height"":698,""window_innerWidth"":1479,""window_innerHeight"":746,""devicePixelRatio"":1.25}",,,,2039.4239999999068,response,,,,,,consent,click button,,5965.300000000279,5963.399999999907,3907.282,3905.899999999907,3923.976,5973.56,,,,"{""participant"":""64821""}",
Welcome,html.Screen,1,2023-05-02T02:23:32.747Z,,,,regular,610.5400000000927,response,,,,,,continue,click button,,6584.899999999907,6584.100000000093,5956.915,5965.5,5973.56,6590.134,,,,,
trial,html.Screen,2_0_0,2023-05-02T02:23:39.091Z,,0,0,,6334.366,response,ISIC_0061792.JPG,,ISIC_4679428.JPG,ISIC_0061792.JPG,true,1,keypress(m),500,12924.80000000028,12924.5,6573.705,6585,6590.134,12939.752,1,6,1,,ISIC_4679428.JPG
sequence,flow.Sequence,2_0,2023-05-02T02:23:39.091Z,,0,,,6334.366,completion,,,,,true,,,,12925,12924.5,6573.705,6585,6590.134,12939.752,1,6,,,
trial,html.Screen,2_1_0,2023-05-02T02:23:42.050Z,,0,0,,2946.6479999999065,response,ISIC_0776486.JPG,,ISIC_5199497.JPG,ISIC_0776486.JPG,true,1,keypress(m),500,15886.700000000186,15886.399999999907,12922.554,12925.200000000186,12939.752,15888.68,1,6,2,,ISIC_5199497.JPG
sequence,flow.Sequence,2_1,2023-05-02T02:23:42.050Z,,0,,,2946.6479999999065,completion,,,,,true,,,,15887,15886.399999999907,12922.554,12925.100000000093,12939.752,15888.68,1,6,,,
trial,html.Screen,2_2_0,2023-05-02T02:23:45.554Z,,0,0,,3500.920000000093,response,ISIC_2556187.JPG,,ISIC_8575776.JPG,ISIC_2556187.JPG,true,1,keypress(m),500,19389.80000000028,19389.600000000093,15872.579,15887,15888.68,19405.099,1,6,3,,ISIC_8575776.JPG
sequence,flow.Sequence,2_2,2023-05-02T02:23:45.554Z,,0,,,3500.920000000093,completion,,,,,true,,,,19390,19389.600000000093,15872.579,15887,15888.68,19405.099,1,6,,,
trial,html.Screen,2_3_0,2023-05-02T02:23:49.190Z,,0,0,,3619.501000000095,response,ISIC_8141769.JPG,,ISIC_9238366.JPG,ISIC_9238366.JPG,true,0,keypress(z),500,23024.700000000186,23024.600000000093,19388.389,19390.200000000186,19405.099,23037.844,1,6,4,,ISIC_8141769.JPG
sequence,flow.Sequence,2_3,2023-05-02T02:23:49.191Z,,0,,,3619.501000000095,completion,,,,,true,,,,23024.899999999907,23024.600000000093,19388.389,19390.200000000186,19405.099,23037.844,1,6,,,
trial,html.Screen,2_4_0,2023-05-02T02:23:53.511Z,,0,0,,4306.655999999999,response,ISIC_8949026.JPG,,ISIC_9959593.JPG,ISIC_9959593.JPG,true,0,keypress(z),500,27344.700000000186,27344.5,23020.821,23025,23037.844,27353.889,1,6,5,,ISIC_8949026.JPG
sequence,flow.Sequence,2_4,2023-05-02T02:23:53.511Z,,0,,,4306.655999999999,completion,,,,,true,,,,27344.899999999907,27344.5,23020.821,23025,23037.844,27353.889,1,6,,,
trial,html.Screen,2_5_0,2023-05-02T02:23:56.446Z,,0,0,,2925.5109999999077,response,ISIC_0010479.JPG,,ISIC_0460240.JPG,ISIC_0010479.JPG,true,1,keypress(m),500,30279.5,30279.399999999907,27337.063,27345,27353.889,30286.449,1,6,6,,ISIC_0460240.JPG
sequence,flow.Sequence,2_5,2023-05-02T02:23:56.446Z,,0,,,2925.5109999999077,completion,,,,,true,,,,30279.600000000093,30279.399999999907,27337.063,27345,27353.889,30286.449,1,6,,,
loop,flow.Loop,2,2023-05-02T02:23:56.446Z,,,,,23689.26599999991,completion,,,,,true,,,,30279.700000000186,30279.399999999907,6573.705,6584.899999999907,6590.134,30286.449,1,6,,,
exp_instructions,html.Screen,3,2023-05-02T02:23:58.618Z,,,,,2163.4509999999063,response,,,,,,continue,keypress(Space),,32451,32449.899999999907,30270.192,30279.80000000028,30286.449,32452.722,,,,,
trial,html.Screen,4_0_0,2023-05-02T02:24:02.105Z,,0,1,,3487.7779999999984,response,ISIC_0032856.JPG,,ISIC_1077375.JPG,ISIC_0032856.JPG,false,1,keypress(m),500,35941,35940.5,32436.148,32451.100000000093,32452.722,35952.352,8,400,1,,ISIC_1077375.JPG
break,html.Screen,4_0_1,2023-05-02T02:24:02.107Z,,0,,,NaN,,,,,,false,,,,35942.39999999991,35942,,35941.200000000186,,35952.352,8,400,,,
break_continue,html.Screen,4_0_2,2023-05-02T02:24:02.107Z,,0,,,NaN,,,,,,false,,,,35943,35942.80000000028,,35942.60000000009,,35952.352,8,400,,,
sequence,flow.Sequence,4_0,2023-05-02T02:24:02.107Z,,0,,,3490.078000000278,completion,,,,,false,,,,35943.10000000009,35942.80000000028,32436.148,32451.100000000093,32452.722,35952.352,8,400,,,
trial,html.Screen,4_1_0,2023-05-02T02:24:06.125Z,,0,1,,4007.748000000094,response,ISIC_9203812.JPG,,ISIC_5486460.JPG,ISIC_9203812.JPG,false,1,keypress(m),500,39960.5,39960.10000000009,35935.685,35943.200000000186,35952.352,39968.465,8,400,2,,ISIC_5486460.JPG
break,html.Screen,4_1_1,2023-05-02T02:24:06.127Z,,0,,,NaN,,,,,,false,,,,39962,39961.30000000028,,39960.700000000186,,39968.465,8,400,,,
break_continue,html.Screen,4_1_2,2023-05-02T02:24:06.127Z,,0,,,NaN,,,,,,false,,,,39962.5,39962.30000000028,,39962.200000000186,,39968.465,8,400,,,
sequence,flow.Sequence,4_1,2023-05-02T02:24:06.128Z,,0,,,4009.9480000002804,completion,,,,,false,,,,39962.60000000009,39962.30000000028,35935.685,35943.200000000186,35952.352,39968.465,8,400,,,
trial,html.Screen,4_2_0,2023-05-02T02:24:10.415Z,,0,1,,4278.835000000283,response,ISIC_0974833.JPG,,ISIC_9101055.JPG,ISIC_9101055.JPG,false,0,keypress(z),500,44247.60000000009,44247.30000000028,39951.919,39962.80000000028,39968.465,44250.929,8,400,3,,ISIC_0974833.JPG
break,html.Screen,4_2_1,2023-05-02T02:24:10.416Z,,0,,,NaN,,,,,,false,,,,44248.89999999991,44248.39999999991,,44247.700000000186,,44250.929,8,400,,,
break_continue,html.Screen,4_2_2,2023-05-02T02:24:10.416Z,,0,,,NaN,,,,,,false,,,,44249.200000000186,44249.10000000009,,44249,,44250.929,8,400,,,
sequence,flow.Sequence,4_2,2023-05-02T02:24:10.416Z,,0,,,4280.635000000097,completion,,,,,false,,,,44249.39999999991,44249.10000000009,39951.919,39962.700000000186,39968.465,44250.929,8,400,,,
trial,html.Screen,4_3_0,2023-05-02T02:24:14.534Z,,0,1,,4116.27100000019,response,ISIC_8711854.JPG,,ISIC_1632696.JPG,ISIC_1632696.JPG,false,0,keypress(z),500,48367.60000000009,48367.200000000186,44234.617,44249.5,44250.929,48383.992,8,400,4,,ISIC_8711854.JPG
break,html.Screen,4_3_1,2023-05-02T02:24:14.535Z,,0,,,NaN,,,,,,false,,,,48369.10000000009,48368.700000000186,,48367.89999999991,,48383.992,8,400,,,
break_continue,html.Screen,4_3_2,2023-05-02T02:24:14.536Z,,0,,,NaN,,,,,,false,,,,48369.5,48369.30000000028,,48369.200000000186,,48383.992,8,400,,,
sequence,flow.Sequence,4_3,2023-05-02T02:24:14.536Z,,0,,,4118.371000000283,completion,,,,,false,,,,48369.60000000009,48369.30000000028,44234.617,44249.5,44250.929,48383.992,8,400,,,
trial,html.Screen,4_4_0,2023-05-02T02:24:19.258Z,,0,1,,4709.108000000095,response,ISIC_0066674.JPG,,ISIC_0027817.JPG,ISIC_0066674.JPG,false,1,keypress(m),500,53093.200000000186,53093.10000000009,48367.291,48369.89999999991,48383.992,53099.7,8,400,5,,ISIC_0027817.JPG
break,html.Screen,4_4_1,2023-05-02T02:24:19.259Z,,0,,,NaN,,,,,,false,,,,53093.80000000028,53093.700000000186,,53093.30000000028,,53099.7,8,400,,,
break_continue,html.Screen,4_4_2,2023-05-02T02:24:19.259Z,,0,,,NaN,,,,,,false,,,,53094.10000000009,53094,,53093.89999999991,,53099.7,8,400,,,
sequence,flow.Sequence,4_4,2023-05-02T02:24:19.259Z,,0,,,4710.008000000002,completion,,,,,false,,,,53094.10000000009,53094,48367.291,48369.700000000186,48383.992,53099.7,8,400,,,
trial,html.Screen,4_5_0,2023-05-02T02:24:24.117Z,,0,1,,4853.19999999991,response,ISIC_0032441.JPG,,ISIC_0000763.JPG,ISIC_0032441.JPG,false,1,keypress(m),500,57953.10000000009,57952.89999999991,53083.438,53094.200000000186,53099.7,57982.545,8,400,6,,ISIC_0000763.JPG
break,html.Screen,4_5_1,2023-05-02T02:24:24.118Z,,0,,,NaN,,,,,,false,,,,57953.89999999991,57953.80000000028,,57953.39999999991,,57982.545,8,400,,,
break_continue,html.Screen,4_5_2,2023-05-02T02:24:24.119Z,,0,,,NaN,,,,,,false,,,,57954.200000000186,57954.200000000186,,57954.10000000009,,57982.545,8,400,,,
sequence,flow.Sequence,4_5,2023-05-02T02:24:24.119Z,,0,,,4854.500000000189,completion,,,,,false,,,,57954.30000000028,57954.200000000186,53083.438,53094.200000000186,53099.7,57982.545,8,400,,,
trial,html.Screen,4_6_0,2023-05-02T02:24:27.701Z,,0,1,,3551.255000000281,response,ISIC_1453146.JPG,,ISIC_0056501.JPG,ISIC_0056501.JPG,false,0,keypress(z),500,61534.5,61533.80000000028,57965.985,57954.5,57982.545,61548.475,8,400,7,,ISIC_1453146.JPG
break,html.Screen,4_6_1,2023-05-02T02:24:27.702Z,,0,,,NaN,,,,,,false,,,,61535.80000000028,61535.60000000009,,61534.700000000186,,61548.475,8,400,,,
break_continue,html.Screen,4_6_2,2023-05-02T02:24:27.703Z,,0,,,NaN,,,,,,false,,,,61536.10000000009,61536,,61535.89999999991,,61548.475,8,400,,,
sequence,flow.Sequence,4_6,2023-05-02T02:24:27.703Z,,0,,,3553.4550000000017,completion,,,,,false,,,,61536.30000000028,61536,57965.985,57954.39999999991,57982.545,61548.475,8,400,,,
trial,html.Screen,4_7_0,2023-05-02T02:24:32.884Z,,0,1,,5168.225000000188,response,ISIC_6678508.JPG,,ISIC_4748605.JPG,ISIC_6678508.JPG,false,1,keypress(m),500,66716.8999999999,66716.70000000019,61531.842,61536.39999999991,61548.475,66730.948,8,400,8,,ISIC_4748605.JPG
break,html.Screen,4_7_1,2023-05-02T02:24:32.885Z,,0,,,NaN,,,,,,false,,,,66717.8999999999,66717.80000000028,,66717.20000000019,,66730.948,8,400,,,
break_continue,html.Screen,4_7_2,2023-05-02T02:24:32.885Z,,0,,,NaN,,,,,,false,,,,66718.1000000001,66718.1000000001,,66718,,66730.948,8,400,,,
sequence,flow.Sequence,4_7,2023-05-02T02:24:32.885Z,,0,,,5169.625000000095,completion,,,,,false,,,,66718.20000000019,66718.1000000001,61531.842,61536.39999999991,61548.475,66730.948,8,400,,,
trial,html.Screen,4_8_0,2023-05-02T02:24:36.049Z,,0,1,,3159.951999999903,response,ISIC_0068413.JPG,,ISIC_6718969.JPG,ISIC_0068413.JPG,false,1,keypress(m),500,69891.1000000001,69890.8999999999,66714.653,66718.20000000019,66730.948,69896.831,8,400,9,,ISIC_6718969.JPG
break,html.Screen,4_8_1,2023-05-02T02:24:36.050Z,,0,,,NaN,,,,,,false,,,,69892.30000000028,69892.1000000001,,69891.30000000028,,69896.831,8,400,,,
break_continue,html.Screen,4_8_2,2023-05-02T02:24:36.051Z,,0,,,NaN,,,,,,false,,,,69892.8999999999,69892.70000000019,,69892.5,,69896.831,8,400,,,
sequence,flow.Sequence,4_8,2023-05-02T02:24:36.051Z,,0,,,3161.7520000001823,completion,,,,,false,,,,69893,69892.70000000019,66714.653,66718.20000000019,66730.948,69896.831,8,400,,,
trial,html.Screen,4_9_0,2023-05-02T02:24:39.775Z,,0,1,,3712.2690000000875,response,ISIC_7562708.JPG,,ISIC_0027842.JPG,ISIC_0027842.JPG,false,0,keypress(z),500,73609.30000000028,73609.1000000001,69880.302,69893.1000000001,69896.831,73612.944,8,400,10,,ISIC_7562708.JPG
break,html.Screen,4_9_1,2023-05-02T02:24:39.776Z,,0,,,NaN,,,,,,false,,,,73610.70000000019,73610.30000000028,,73609.5,,73612.944,8,400,,,
break_continue,html.Screen,4_9_2,2023-05-02T02:24:39.776Z,,0,,,NaN,,,,,,false,,,,73611.1000000001,73611,,73610.80000000028,,73612.944,8,400,,,
sequence,flow.Sequence,4_9,2023-05-02T02:24:39.777Z,,0,,,3714.1689999999944,completion,,,,,false,,,,73611.6000000001,73611,69880.302,69893,69896.831,73612.944,8,400,,,
trial,html.Screen,4_10_0,2023-05-02T02:24:44.342Z,,0,1,,4573.856000000276,response,ISIC_0014795.JPG,,ISIC_9351418.JPG,ISIC_0014795.JPG,false,1,keypress(m),500,78187.1000000001,78186.80000000028,73596.38,73611.80000000028,73612.944,78195.543,8,400,11,,ISIC_9351418.JPG
break,html.Screen,4_10_1,2023-05-02T02:24:44.344Z,,0,,,NaN,,,,,,false,,,,78188.70000000019,78188.1000000001,,78187.30000000028,,78195.543,8,400,,,
break_continue,html.Screen,4_10_2,2023-05-02T02:24:44.344Z,,0,,,NaN,,,,,,false,,,,78189.1000000001,78189,,78188.8999999999,,78195.543,8,400,,,
sequence,flow.Sequence,4_10,2023-05-02T02:24:44.344Z,,0,,,4576.055999999997,completion,,,,,false,,,,78189.30000000028,78189,73596.38,73611.70000000019,73612.944,78195.543,8,400,,,
trial,html.Screen,4_11_0,2023-05-02T02:24:48.578Z,,0,1,,4217.456999999995,response,ISIC_0025964.JPG,,ISIC_4548995.JPG,ISIC_4548995.JPG,false,0,keypress(z),500,82413.30000000028,82413,78179.152,78189.3999999999,78195.543,82428.316,8,400,12,,ISIC_0025964.JPG
break,html.Screen,4_11_1,2023-05-02T02:24:48.579Z,,0,,,NaN,,,,,,false,,,,82414.80000000028,82414.3999999999,,82413.6000000001,,82428.316,8,400,,,
break_continue,html.Screen,4_11_2,2023-05-02T02:24:48.580Z,,0,,,NaN,,,,,,false,,,,82415.20000000019,82415,,82415,,82428.316,8,400,,,
sequence,flow.Sequence,4_11,2023-05-02T02:24:48.580Z,,0,,,4219.456999999995,completion,,,,,false,,,,82415.3999999999,82415,78179.152,78189.3999999999,78195.543,82428.316,8,400,,,
trial,html.Screen,4_12_0,2023-05-02T02:24:52.560Z,,0,1,,3967.784000000087,response,ISIC_0966527.JPG,,ISIC_6553389.JPG,ISIC_0966527.JPG,false,1,keypress(m),500,86396.30000000028,86396.1000000001,82412.207,82415.5,82428.316,86411.228,8,400,13,,ISIC_6553389.JPG
break,html.Screen,4_12_1,2023-05-02T02:24:52.562Z,,0,,,NaN,,,,,,false,,,,86398,86397.20000000019,,86396.6000000001,,86411.228,8,400,,,
break_continue,html.Screen,4_12_2,2023-05-02T02:24:52.562Z,,0,,,NaN,,,,,,false,,,,86398.6000000001,86398.3999999999,,86398.1000000001,,86411.228,8,400,,,
sequence,flow.Sequence,4_12,2023-05-02T02:24:52.562Z,,0,,,3970.0839999999007,completion,,,,,false,,,,86398.80000000028,86398.3999999999,82412.207,82415.5,82428.316,86411.228,8,400,,,
trial,html.Screen,4_13_0,2023-05-02T02:24:57.166Z,,0,1,,4589.37200000009,response,ISIC_5308066.JPG,,ISIC_0026185.JPG,ISIC_5308066.JPG,false,1,keypress(m),500,91000.8999999999,91000.6000000001,86394.415,86399,86411.228,91010.217,8,400,14,,ISIC_0026185.JPG
break,html.Screen,4_13_1,2023-05-02T02:24:57.167Z,,0,,,NaN,,,,,,false,,,,91002.30000000028,91002.1000000001,,91001.20000000019,,91010.217,8,400,,,
break_continue,html.Screen,4_13_2,2023-05-02T02:24:57.167Z,,0,,,NaN,,,,,,false,,,,91002.6000000001,91002.5,,91002.3999999999,,91010.217,8,400,,,
sequence,flow.Sequence,4_13,2023-05-02T02:24:57.167Z,,0,,,4591.271999999997,completion,,,,,false,,,,91002.80000000028,91002.5,86394.415,86398.8999999999,86411.228,91010.217,8,400,,,
trial,html.Screen,4_14_0,2023-05-02T02:25:02.029Z,,0,1,,4851.682999999903,response,ISIC_0011508.JPG,,ISIC_0064393.JPG,ISIC_0011508.JPG,false,1,keypress(m),500,95862.5,95861.8999999999,90993.732,91002.8999999999,91010.217,95876.169,8,400,15,,ISIC_0064393.JPG
break,html.Screen,4_14_1,2023-05-02T02:25:02.030Z,,0,,,NaN,,,,,,false,,,,95863.30000000028,95863.1000000001,,95862.80000000028,,95876.169,8,400,,,
break_continue,html.Screen,4_14_2,2023-05-02T02:25:02.030Z,,0,,,NaN,,,,,,false,,,,95863.5,95863.3999999999,,95863.3999999999,,95876.169,8,400,,,
sequence,flow.Sequence,4_14,2023-05-02T02:25:02.030Z,,0,,,4853.182999999903,completion,,,,,false,,,,95863.70000000019,95863.3999999999,90993.732,91002.80000000028,91010.217,95876.169,8,400,,,
trial,html.Screen,4_15_0,2023-05-02T02:25:06.473Z,,0,1,,4432.331000000006,response,ISIC_0033584.JPG,,ISIC_0025755.JPG,ISIC_0025755.JPG,false,0,keypress(z),500,100309,100308.5,95860.029,95863.80000000028,95876.169,100325.477,8,400,16,,ISIC_0033584.JPG
break,html.Screen,4_15_1,2023-05-02T02:25:06.475Z,,0,,,NaN,,,,,,false,,,,100310.5,100310.20000000019,,100309.6000000001,,100325.477,8,400,,,
break_continue,html.Screen,4_15_2,2023-05-02T02:25:06.475Z,,0,,,NaN,,,,,,false,,,,100311,100310.80000000028,,100310.6000000001,,100325.477,8,400,,,
sequence,flow.Sequence,4_15,2023-05-02T02:25:06.475Z,,0,,,4434.631000000285,completion,,,,,false,,,,100311.1000000001,100310.80000000028,95860.029,95863.80000000028,95876.169,100325.477,8,400,,,
trial,html.Screen,4_16_0,2023-05-02T02:25:11.038Z,,0,1,,4551.723000000187,response,ISIC_0000550.JPG,,ISIC_0010346.JPG,ISIC_0010346.JPG,false,0,keypress(z),500,104877.3999999999,104877.20000000019,100309.11,100311.30000000028,100325.477,104891.622,8,400,17,,ISIC_0000550.JPG
break,html.Screen,4_16_1,2023-05-02T02:25:11.039Z,,0,,,NaN,,,,,,false,,,,104878.3999999999,104878.1000000001,,104877.6000000001,,104891.622,8,400,,,
break_continue,html.Screen,4_16_2,2023-05-02T02:25:11.039Z,,0,,,NaN,,,,,,false,,,,104878.8999999999,104878.80000000028,,104878.6000000001,,104891.622,8,400,,,
sequence,flow.Sequence,4_16,2023-05-02T02:25:11.039Z,,0,,,4553.32300000028,completion,,,,,false,,,,104879.20000000019,104878.80000000028,100309.11,100311.20000000019,100325.477,104891.622,8,400,,,
trial,html.Screen,4_17_0,2023-05-02T02:25:16.467Z,,0,1,,5408.678000000276,response,ISIC_7650369.JPG,,ISIC_0005655.JPG,ISIC_7650369.JPG,false,1,keypress(m),500,110300.5,110300.30000000028,104874.858,104879.30000000028,104891.622,110307.267,8,400,18,,ISIC_0005655.JPG
break,html.Screen,4_17_1,2023-05-02T02:25:16.468Z,,0,,,NaN,,,,,,false,,,,110301.3999999999,110301.1000000001,,110300.70000000019,,110307.267,8,400,,,
break_continue,html.Screen,4_17_2,2023-05-02T02:25:16.469Z,,0,,,NaN,,,,,,false,,,,110302.1000000001,110301.80000000028,,110301.5,,110307.267,8,400,,,
sequence,flow.Sequence,4_17,2023-05-02T02:25:16.469Z,,0,,,5410.178000000276,completion,,,,,false,,,,110302.3999999999,110301.80000000028,104874.858,104879.20000000019,104891.622,110307.267,8,400,,,
trial,html.Screen,4_18_0,2023-05-02T02:25:19.350Z,,0,1,,2880.732999999993,response,ISIC_7283084.JPG,,ISIC_0066588.JPG,ISIC_0066588.JPG,false,0,keypress(z),500,113188.30000000028,113188,110290.764,110302.6000000001,110307.267,113219.166,8,400,19,,ISIC_7283084.JPG
break,html.Screen,4_18_1,2023-05-02T02:25:19.351Z,,0,,,NaN,,,,,,false,,,,113189,113188.80000000028,,113188.5,,113219.166,8,400,,,
break_continue,html.Screen,4_18_2,2023-05-02T02:25:19.352Z,,0,,,NaN,,,,,,false,,,,113189.6000000001,113189.3999999999,,113189.20000000019,,113219.166,8,400,,,
sequence,flow.Sequence,4_18,2023-05-02T02:25:19.352Z,,0,,,2882.1329999998998,completion,,,,,false,,,,113189.80000000028,113189.3999999999,110290.764,110302.5,110307.267,113219.166,8,400,,,
trial,html.Screen,4_19_0,2023-05-02T02:25:22.889Z,,0,1,,3504.9340000000957,response,ISIC_3885041.JPG,,ISIC_9529971.JPG,ISIC_9529971.JPG,false,0,keypress(z),500,116724.5,116724.1000000001,113173.686,113190.1000000001,113219.166,116739.648,8,400,20,,ISIC_3885041.JPG
break,html.Screen,4_19_1,2023-05-02T02:25:22.890Z,,0,,,NaN,,,,,,false,,,,116725.3999999999,116725.30000000028,,116724.70000000019,,116739.648,8,400,,,
break_continue,html.Screen,4_19_2,2023-05-02T02:25:22.891Z,,0,,,NaN,,,,,,false,,,,116726,116725.80000000028,,116725.6000000001,,116739.648,8,400,,,
sequence,flow.Sequence,4_19,2023-05-02T02:25:22.891Z,,0,,,3506.634000000282,completion,,,,,false,,,,116726.5,116725.80000000028,113173.686,113190,113219.166,116739.648,8,400,,,
trial,html.Screen,4_20_0,2023-05-02T02:25:25.747Z,,0,1,,2843.552000000185,response,ISIC_1269461.JPG,,ISIC_0033166.JPG,ISIC_1269461.JPG,false,1,keypress(m),500,119583.3999999999,119583.20000000019,116723.121,116726.70000000019,116739.648,119589.036,8,400,21,,ISIC_0033166.JPG
break,html.Screen,4_20_1,2023-05-02T02:25:25.748Z,,0,,,NaN,,,,,,false,,,,119584.20000000019,119584.1000000001,,119583.70000000019,,119589.036,8,400,,,
break_continue,html.Screen,4_20_2,2023-05-02T02:25:25.748Z,,0,,,NaN,,,,,,false,,,,119584.6000000001,119584.5,,119584.30000000028,,119589.036,8,400,,,
sequence,flow.Sequence,4_20,2023-05-02T02:25:25.749Z,,0,,,2844.851999999999,completion,,,,,false,,,,119584.70000000019,119584.5,116723.121,116726.70000000019,116739.648,119589.036,8,400,,,
trial,html.Screen,4_21_0,2023-05-02T02:25:29.174Z,,0,1,,3433.2640000002866,response,ISIC_0069175.JPG,,ISIC_8622204.JPG,ISIC_0069175.JPG,false,1,keypress(m),500,123022.5,123022.30000000028,119572.287,119584.80000000028,119589.036,123038.666,8,400,22,,ISIC_8622204.JPG
break,html.Screen,4_21_1,2023-05-02T02:25:29.175Z,,0,,,NaN,,,,,,false,,,,123023.3999999999,123023.20000000019,,123022.8999999999,,123038.666,8,400,,,
break_continue,html.Screen,4_21_2,2023-05-02T02:25:29.176Z,,0,,,NaN,,,,,,false,,,,123023.80000000028,123023.6000000001,,123023.5,,123038.666,8,400,,,
sequence,flow.Sequence,4_21,2023-05-02T02:25:29.176Z,,0,,,3434.5640000001004,completion,,,,,false,,,,123024.30000000028,123023.6000000001,119572.287,119584.80000000028,119589.036,123038.666,8,400,,,
trial,html.Screen,4_22_0,2023-05-02T02:25:32.627Z,,0,1,,3424.3340000000026,response,ISIC_0014093.JPG,,ISIC_5569568.JPG,ISIC_5569568.JPG,false,0,keypress(z),500,126463.1000000001,126463,123021.883,123024.3999999999,123038.666,126471.582,8,400,23,,ISIC_0014093.JPG
break,html.Screen,4_22_1,2023-05-02T02:25:32.628Z,,0,,,NaN,,,,,,false,,,,126464,126463.5,,126463.20000000019,,126471.582,8,400,,,
break_continue,html.Screen,4_22_2,2023-05-02T02:25:32.628Z,,0,,,NaN,,,,,,false,,,,126464.20000000019,126464.1000000001,,126464.1000000001,,126471.582,8,400,,,
sequence,flow.Sequence,4_22,2023-05-02T02:25:32.628Z,,0,,,3425.4340000000957,completion,,,,,false,,,,126464.30000000028,126464.1000000001,123021.883,123024.3999999999,123038.666,126471.582,8,400,,,
trial,html.Screen,4_23_0,2023-05-02T02:25:36.167Z,,0,1,,3528.7180000002845,response,ISIC_0059506.JPG,,ISIC_7180418.JPG,ISIC_0059506.JPG,false,1,keypress(m),500,130000.3999999999,130000.30000000028,126454.823,126464.30000000028,126471.582,130004.299,8,400,24,,ISIC_7180418.JPG
break,html.Screen,4_23_1,2023-05-02T02:25:36.167Z,,0,,,NaN,,,,,,false,,,,130001,130000.8999999999,,130000.6000000001,,130004.299,8,400,,,
break_continue,html.Screen,4_23_2,2023-05-02T02:25:36.167Z,,0,,,NaN,,,,,,false,,,,130001.30000000028,130001.1000000001,,130001.1000000001,,130004.299,8,400,,,
sequence,flow.Sequence,4_23,2023-05-02T02:25:36.167Z,,0,,,3529.5180000000983,completion,,,,,false,,,,130001.30000000028,130001.1000000001,126454.823,126464.30000000028,126471.582,130004.299,8,400,,,
trial,html.Screen,4_24_0,2023-05-02T02:25:39.285Z,,0,1,,3114.301000000094,response,ISIC_0553565.JPG,,ISIC_3492490.JPG,ISIC_3492490.JPG,false,0,keypress(z),500,133118.80000000028,133118.6000000001,129987.746,130001.30000000028,130004.299,133120.287,8,400,25,,ISIC_0553565.JPG
break,html.Screen,4_24_1,2023-05-02T02:25:39.285Z,,0,,,NaN,,,,,,false,,,,133119.30000000028,133119.30000000028,,133118.8999999999,,133120.287,8,400,,,
break_continue,html.Screen,4_24_2,2023-05-02T02:25:39.285Z,,0,,,NaN,,,,,,false,,,,133119.5,133119.3999999999,,133119.3999999999,,133120.287,8,400,,,
sequence,flow.Sequence,4_24,2023-05-02T02:25:39.285Z,,0,,,3115.100999999908,completion,,,,,false,,,,133119.6000000001,133119.3999999999,129987.746,130001.30000000028,130004.299,133120.287,8,400,,,
trial,html.Screen,4_25_0,2023-05-02T02:25:42.556Z,,0,1,,3270.313000000082,response,ISIC_0027113.JPG,,ISIC_0057244.JPG,ISIC_0027113.JPG,false,1,keypress(m),500,136390.80000000028,136390.6000000001,133103.322,133119.6000000001,133120.287,136403.482,8,400,26,,ISIC_0057244.JPG
break,html.Screen,4_25_1,2023-05-02T02:25:42.557Z,,0,,,NaN,,,,,,false,,,,136392.2000000002,136392,,136391.1000000001,,136403.482,8,400,,,
break_continue,html.Screen,4_25_2,2023-05-02T02:25:42.557Z,,0,,,NaN,,,,,,false,,,,136392.7000000002,136392.5,,136392.30000000028,,136403.482,8,400,,,
sequence,flow.Sequence,4_25,2023-05-02T02:25:42.557Z,,0,,,3272.212999999989,completion,,,,,false,,,,136392.80000000028,136392.5,133103.322,133119.6000000001,133120.287,136403.482,8,400,,,
trial,html.Screen,4_26_0,2023-05-02T02:25:46.833Z,,0,1,,4267.018000000011,response,ISIC_7776719.JPG,,ISIC_9203812.JPG,ISIC_7776719.JPG,false,1,keypress(m),500,140670.8999999999,140670.5,136386.571,136393,136403.482,140686.027,8,400,27,,ISIC_9203812.JPG
break,html.Screen,4_26_1,2023-05-02T02:25:46.835Z,,0,,,NaN,,,,,,false,,,,140672.30000000028,140672.1000000001,,140671.1000000001,,140686.027,8,400,,,
break_continue,html.Screen,4_26_2,2023-05-02T02:25:46.835Z,,0,,,NaN,,,,,,false,,,,140672.80000000028,140672.6000000001,,140672.5,,140686.027,8,400,,,
sequence,flow.Sequence,4_26,2023-05-02T02:25:46.835Z,,0,,,4269.118000000104,completion,,,,,false,,,,140673,140672.6000000001,136386.571,136393,136403.482,140686.027,8,400,,,
trial,html.Screen,4_27_0,2023-05-02T02:25:51.539Z,,0,1,,4697.7730000002775,response,ISIC_0911264.JPG,,ISIC_0973194.JPG,ISIC_0911264.JPG,false,1,keypress(m),500,145384.1000000001,145383.80000000028,140669.418,140673.2000000002,140686.027,145401.942,8,400,28,,ISIC_0973194.JPG
break,html.Screen,4_27_1,2023-05-02T02:25:51.540Z,,0,,,NaN,,,,,,false,,,,145385.5,145385,,145384.3999999999,,145401.942,8,400,,,
break_continue,html.Screen,4_27_2,2023-05-02T02:25:51.541Z,,0,,,NaN,,,,,,false,,,,145386,145385.80000000028,,145385.7000000002,,145401.942,8,400,,,
sequence,flow.Sequence,4_27,2023-05-02T02:25:51.541Z,,0,,,4699.7730000002775,completion,,,,,false,,,,145386.2000000002,145385.80000000028,140669.418,140673.1000000001,140686.027,145401.942,8,400,,,
trial,html.Screen,4_28_0,2023-05-02T02:25:54.492Z,,0,1,,2924.8580000002694,response,ISIC_0025186.JPG,,ISIC_0071966.JPG,ISIC_0071966.JPG,false,0,keypress(z),500,148327,148326.80000000028,145368.711,145386.30000000028,145401.942,148335.097,8,400,29,,ISIC_0025186.JPG
break,html.Screen,4_28_1,2023-05-02T02:25:54.493Z,,0,,,NaN,,,,,,false,,,,148328.6000000001,148328.30000000028,,148327.2000000002,,148335.097,8,400,,,
break_continue,html.Screen,4_28_2,2023-05-02T02:25:54.493Z,,0,,,NaN,,,,,,false,,,,148328.8999999999,148328.7000000002,,148328.7000000002,,148335.097,8,400,,,
sequence,flow.Sequence,4_28,2023-05-02T02:25:54.494Z,,0,,,2926.7580000001763,completion,,,,,false,,,,148329,148328.7000000002,145368.711,145386.30000000028,145401.942,148335.097,8,400,,,
trial,html.Screen,4_29_0,2023-05-02T02:25:57.882Z,,0,1,,3390.402999999991,response,ISIC_0058658.JPG,,ISIC_6038355.JPG,ISIC_0058658.JPG,false,0,keypress(z),500,151725.80000000028,151725.5,148317.796,148329.1000000001,148335.097,151733.958,8,400,30,,ISIC_6038355.JPG
break,html.Screen,4_29_1,2023-05-02T02:25:57.883Z,,0,,,NaN,,,,,,false,,,,151726.7000000002,151726.3999999999,,151726.1000000001,,151733.958,8,400,,,
break_continue,html.Screen,4_29_2,2023-05-02T02:25:57.883Z,,0,,,NaN,,,,,,false,,,,151727,151726.80000000028,,151726.7000000002,,151733.958,8,400,,,
sequence,flow.Sequence,4_29,2023-05-02T02:25:57.883Z,,0,,,3391.7030000002705,completion,,,,,false,,,,151727.30000000028,151726.80000000028,148317.796,148329.1000000001,148335.097,151733.958,8,400,,,
trial,html.Screen,4_30_0,2023-05-02T02:26:00.765Z,,0,1,,2863.5419999999867,response,ISIC_8253326.JPG,,ISIC_8290994.JPG,ISIC_8290994.JPG,false,0,keypress(z),500,154597.7000000002,154597.5,151717.423,151727.5,151733.958,154600.189,8,400,31,,ISIC_8253326.JPG
break,html.Screen,4_30_1,2023-05-02T02:26:00.766Z,,0,,,NaN,,,,,,false,,,,154599,154598.80000000028,,154597.8999999999,,154600.189,8,400,,,
break_continue,html.Screen,4_30_2,2023-05-02T02:26:00.766Z,,0,,,NaN,,,,,,false,,,,154599.30000000028,154599.2000000002,,154599.1000000001,,154600.189,8,400,,,
sequence,flow.Sequence,4_30,2023-05-02T02:26:00.766Z,,0,,,2865.242000000173,completion,,,,,false,,,,154599.5,154599.2000000002,151717.423,151727.3999999999,151733.958,154600.189,8,400,,,
trial,html.Screen,4_31_0,2023-05-02T02:26:04.188Z,,0,1,,3421.310999999987,response,ISIC_0013244.JPG,,ISIC_7895093.JPG,ISIC_7895093.JPG,false,0,keypress(z),500,158021.80000000028,158021.5,154583.714,154599.6000000001,154600.189,158033.079,8,400,32,,ISIC_0013244.JPG
break,html.Screen,4_31_1,2023-05-02T02:26:04.189Z,,0,,,NaN,,,,,,false,,,,158023.1000000001,158022.8999999999,,158022,,158033.079,8,400,,,
break_continue,html.Screen,4_31_2,2023-05-02T02:26:04.190Z,,0,,,NaN,,,,,,false,,,,158023.5,158023.3999999999,,158023.2000000002,,158033.079,8,400,,,
sequence,flow.Sequence,4_31,2023-05-02T02:26:04.190Z,,0,,,3423.210999999894,completion,,,,,false,,,,158023.7000000002,158023.3999999999,154583.714,154599.6000000001,154600.189,158033.079,8,400,,,
trial,html.Screen,4_32_0,2023-05-02T02:26:10.406Z,,0,1,,6206.521000000095,response,ISIC_0054334.JPG,,ISIC_0069370.JPG,ISIC_0054334.JPG,false,1,keypress(m),500,164239.80000000028,164239.6000000001,158016.311,158023.80000000028,158033.079,164248.705,8,400,33,,ISIC_0069370.JPG
break,html.Screen,4_32_1,2023-05-02T02:26:10.407Z,,0,,,NaN,,,,,,false,,,,164240.8999999999,164240.3999999999,,164240,,164248.705,8,400,,,
break_continue,html.Screen,4_32_2,2023-05-02T02:26:10.407Z,,0,,,NaN,,,,,,false,,,,164241.2000000002,164241.2000000002,,164241,,164248.705,8,400,,,
sequence,flow.Sequence,4_32,2023-05-02T02:26:10.407Z,,0,,,6208.121000000188,completion,,,,,false,,,,164241.3999999999,164241.2000000002,158016.311,158023.80000000028,158033.079,164248.705,8,400,,,
trial,html.Screen,4_33_0,2023-05-02T02:26:15.545Z,,0,1,,5132.995000000199,response,ISIC_3591332.JPG,,ISIC_0029106.JPG,ISIC_0029106.JPG,false,0,keypress(z),500,169381.8999999999,169381.7000000002,164231.915,164241.5,164248.705,169398.087,8,400,34,,ISIC_3591332.JPG
break,html.Screen,4_33_1,2023-05-02T02:26:15.546Z,,0,,,NaN,,,,,,false,,,,169382.30000000028,169382.1000000001,,169382,,169398.087,8,400,,,
break_continue,html.Screen,4_33_2,2023-05-02T02:26:15.546Z,,0,,,NaN,,,,,,false,,,,169382.6000000001,169382.5,,169382.3999999999,,169398.087,8,400,,,
sequence,flow.Sequence,4_33,2023-05-02T02:26:15.546Z,,0,,,5133.795000000013,completion,,,,,false,,,,169382.6000000001,169382.5,164231.915,164241.3999999999,164248.705,169398.087,8,400,,,
trial,html.Screen,4_34_0,2023-05-02T02:26:20.766Z,,0,1,,5210.21300000028,response,ISIC_0014189.JPG,,ISIC_0066492.JPG,ISIC_0014189.JPG,false,1,keypress(m),500,174608.5,174608.30000000028,169381.371,169382.6000000001,169398.087,174613.994,8,400,35,,ISIC_0066492.JPG
break,html.Screen,4_34_1,2023-05-02T02:26:20.767Z,,0,,,NaN,,,,,,false,,,,174609.5,174609.1000000001,,174608.7000000002,,174613.994,8,400,,,
break_continue,html.Screen,4_34_2,2023-05-02T02:26:20.767Z,,0,,,NaN,,,,,,false,,,,174609.7000000002,174609.6000000001,,174609.6000000001,,174613.994,8,400,,,
sequence,flow.Sequence,4_34,2023-05-02T02:26:20.767Z,,0,,,5211.513000000094,completion,,,,,false,,,,174609.80000000028,174609.6000000001,169381.371,169382.6000000001,169398.087,174613.994,8,400,,,
trial,html.Screen,4_35_0,2023-05-02T02:26:26.707Z,,0,1,,5927.306000000273,response,ISIC_0062162.JPG,,ISIC_1023339.JPG,ISIC_1023339.JPG,false,0,keypress(z),500,180541.3999999999,180541.30000000028,174597.083,174610.1000000001,174613.994,180546.075,8,400,36,,ISIC_0062162.JPG
break,html.Screen,4_35_1,2023-05-02T02:26:26.707Z,,0,,,NaN,,,,,,false,,,,180542,180541.80000000028,,180541.5,,180546.075,8,400,,,
break_continue,html.Screen,4_35_2,2023-05-02T02:26:26.707Z,,0,,,NaN,,,,,,false,,,,180542.1000000001,180542,,180542,,180546.075,8,400,,,
sequence,flow.Sequence,4_35,2023-05-02T02:26:26.707Z,,0,,,5928.005999999994,completion,,,,,false,,,,180542.1000000001,180542,174597.083,174610,174613.994,180546.075,8,400,,,
trial,html.Screen,4_36_0,2023-05-02T02:26:32.355Z,,0,1,,5643.5250000000815,response,ISIC_0072843.JPG,,ISIC_1831600.JPG,ISIC_0072843.JPG,false,1,keypress(m),500,186189.80000000028,186189.6000000001,180529.778,180542.2000000002,180546.075,186195.16,8,400,37,,ISIC_1831600.JPG
break,html.Screen,4_36_1,2023-05-02T02:26:32.355Z,,0,,,NaN,,,,,,false,,,,186190.5,186190.2000000002,,186190,,186195.16,8,400,,,
break_continue,html.Screen,4_36_2,2023-05-02T02:26:32.356Z,,0,,,NaN,,,,,,false,,,,186191,186190.80000000028,,186190.6000000001,,186195.16,8,400,,,
sequence,flow.Sequence,4_36,2023-05-02T02:26:32.356Z,,0,,,5644.725000000268,completion,,,,,false,,,,186191.1000000001,186190.80000000028,180529.778,180542.2000000002,180546.075,186195.16,8,400,,,
trial,html.Screen,4_37_0,2023-05-02T02:26:35.925Z,,0,1,,3565.3399999999965,response,ISIC_2015441.JPG,,ISIC_0009991.JPG,ISIC_0009991.JPG,false,0,keypress(z),500,189760.80000000028,189760.5,186179.173,186191.2000000002,186195.16,189777.981,8,400,38,,ISIC_2015441.JPG
break,html.Screen,4_37_1,2023-05-02T02:26:35.926Z,,0,,,NaN,,,,,,false,,,,189762,189761.7000000002,,189761.2000000002,,189777.981,8,400,,,
break_continue,html.Screen,4_37_2,2023-05-02T02:26:35.927Z,,0,,,NaN,,,,,,false,,,,189762.6000000001,189762.3999999999,,189762.2000000002,,189777.981,8,400,,,
sequence,flow.Sequence,4_37,2023-05-02T02:26:35.927Z,,0,,,3567.2399999999034,completion,,,,,false,,,,189762.8999999999,189762.3999999999,186179.173,186191.2000000002,186195.16,189777.981,8,400,,,
trial,html.Screen,4_38_0,2023-05-02T02:26:39.391Z,,0,1,,3457.6190000000934,response,ISIC_0032836.JPG,,ISIC_1985569.JPG,ISIC_0032836.JPG,false,1,keypress(m),500,193235.80000000028,193235.6000000001,189761.734,189763,189777.981,193244.169,8,400,39,,ISIC_1985569.JPG
break,html.Screen,4_38_1,2023-05-02T02:26:39.392Z,,0,,,NaN,,,,,,false,,,,193236.30000000028,193236.2000000002,,193235.8999999999,,193244.169,8,400,,,
break_continue,html.Screen,4_38_2,2023-05-02T02:26:39.392Z,,0,,,NaN,,,,,,false,,,,193236.5,193236.5,,193236.3999999999,,193244.169,8,400,,,
sequence,flow.Sequence,4_38,2023-05-02T02:26:39.392Z,,0,,,3458.5190000000002,completion,,,,,false,,,,193236.6000000001,193236.5,189761.734,189763,189777.981,193244.169,8,400,,,
trial,html.Screen,4_39_0,2023-05-02T02:26:42.441Z,,0,1,,3031.2309999999125,response,ISIC_8167374.JPG,,ISIC_9422630.JPG,ISIC_8167374.JPG,false,1,keypress(m),500,196275.6000000001,196275.3999999999,193227.599,193236.7000000002,193244.169,196293.57,8,400,40,,ISIC_9422630.JPG
break,html.Screen,4_39_1,2023-05-02T02:26:42.443Z,,0,,,NaN,,,,,,false,,,,196277.30000000028,196276.80000000028,,196276.2000000002,,196293.57,8,400,,,
break_continue,html.Screen,4_39_2,2023-05-02T02:26:42.443Z,,0,,,NaN,,,,,,false,,,,196277.80000000028,196277.7000000002,,196277.3999999999,,196293.57,8,400,,,
sequence,flow.Sequence,4_39,2023-05-02T02:26:42.443Z,,0,,,3033.531000000192,completion,,,,,false,,,,196277.8999999999,196277.7000000002,193227.599,193236.7000000002,193244.169,196293.57,8,400,,,
trial,html.Screen,4_40_0,2023-05-02T02:26:45.363Z,,0,1,,2902.929999999993,response,ISIC_0029283.JPG,,ISIC_4460849.JPG,ISIC_4460849.JPG,false,0,keypress(z),500,199196.7000000002,199196.5,196260.548,196278.2000000002,196293.57,199210.122,8,400,41,,ISIC_0029283.JPG
break,html.Screen,4_40_1,2023-05-02T02:26:45.363Z,,0,,,NaN,,,,,,false,,,,199197.1000000001,199197,,199196.7000000002,,199210.122,8,400,,,
break_continue,html.Screen,4_40_2,2023-05-02T02:26:45.363Z,,0,,,NaN,,,,,,false,,,,199197.3999999999,199197.30000000028,,199197.2000000002,,199210.122,8,400,,,
sequence,flow.Sequence,4_40,2023-05-02T02:26:45.363Z,,0,,,2903.7300000002724,completion,,,,,false,,,,199197.3999999999,199197.30000000028,196260.548,196278.2000000002,196293.57,199210.122,8,400,,,
trial,html.Screen,4_41_0,2023-05-02T02:26:49.905Z,,0,1,,4538.377999999997,response,ISIC_0011642.JPG,,ISIC_0011958.JPG,ISIC_0011958.JPG,false,0,keypress(z),500,203748.80000000028,203748.5,199193.392,199197.5,199210.122,203760.551,8,400,42,,ISIC_0011642.JPG
break,html.Screen,4_41_1,2023-05-02T02:26:49.906Z,,0,,,NaN,,,,,,false,,,,203749.3999999999,203749.3999999999,,203748.8999999999,,203760.551,8,400,,,
break_continue,html.Screen,4_41_2,2023-05-02T02:26:49.906Z,,0,,,NaN,,,,,,false,,,,203749.7000000002,203749.6000000001,,203749.6000000001,,203760.551,8,400,,,
sequence,flow.Sequence,4_41,2023-05-02T02:26:49.906Z,,0,,,4539.47800000009,completion,,,,,false,,,,203749.80000000028,203749.6000000001,199193.392,199197.5,199210.122,203760.551,8,400,,,
trial,html.Screen,4_42_0,2023-05-02T02:26:54.061Z,,0,1,,4133.1490000001795,response,ISIC_1076474.JPG,,ISIC_6780901.JPG,ISIC_1076474.JPG,false,1,keypress(m),500,207893.8999999999,207893.7000000002,203743.308,203749.80000000028,203760.551,207908.442,8,400,43,,ISIC_6780901.JPG
break,html.Screen,4_42_1,2023-05-02T02:26:54.061Z,,0,,,NaN,,,,,,false,,,,207894.2000000002,207894.1000000001,,207894,,207908.442,8,400,,,
break_continue,html.Screen,4_42_2,2023-05-02T02:26:54.061Z,,0,,,NaN,,,,,,false,,,,207894.6000000001,207894.3999999999,,207894.3999999999,,207908.442,8,400,,,
sequence,flow.Sequence,4_42,2023-05-02T02:26:54.061Z,,0,,,4133.8489999999,completion,,,,,false,,,,207894.6000000001,207894.3999999999,203743.308,203749.80000000028,203760.551,207908.442,8,400,,,
trial,html.Screen,4_43_0,2023-05-02T02:26:57.793Z,,0,1,,3717.457999999897,response,ISIC_7035368.JPG,,ISIC_0011064.JPG,ISIC_7035368.JPG,false,1,keypress(m),500,211626.1000000001,211625.8999999999,207892.409,207894.7000000002,207908.442,211641.752,8,400,44,,ISIC_0011064.JPG
break,html.Screen,4_43_1,2023-05-02T02:26:57.794Z,,0,,,NaN,,,,,,false,,,,211627,211626.80000000028,,211626.2000000002,,211641.752,8,400,,,
break_continue,html.Screen,4_43_2,2023-05-02T02:26:57.794Z,,0,,,NaN,,,,,,false,,,,211627.2000000002,211627.1000000001,,211627,,211641.752,8,400,,,
sequence,flow.Sequence,4_43,2023-05-02T02:26:57.794Z,,0,,,3718.658000000083,completion,,,,,false,,,,211627.7000000002,211627.1000000001,207892.409,207894.7000000002,207908.442,211641.752,8,400,,,
trial,html.Screen,4_44_0,2023-05-02T02:27:01.519Z,,0,1,,3714.7479999999923,response,ISIC_0013719.JPG,,ISIC_0067801.JPG,ISIC_0067801.JPG,false,0,keypress(z),500,215356.7000000002,215356.5,211624.884,211627.80000000028,211641.752,215387.864,8,400,45,,ISIC_0013719.JPG
break,html.Screen,4_44_1,2023-05-02T02:27:01.519Z,,0,,,NaN,,,,,,false,,,,215357.30000000028,215357,,215356.7000000002,,215387.864,8,400,,,
break_continue,html.Screen,4_44_2,2023-05-02T02:27:01.520Z,,0,,,NaN,,,,,,false,,,,215357.6000000001,215357.5,,215357.3999999999,,215387.864,8,400,,,
sequence,flow.Sequence,4_44,2023-05-02T02:27:01.520Z,,0,,,3715.7479999999923,completion,,,,,false,,,,215357.6000000001,215357.5,211624.884,211627.80000000028,211641.752,215387.864,8,400,,,
trial,html.Screen,4_45_0,2023-05-02T02:27:05.132Z,,0,1,,3585.336000000185,response,ISIC_0027387.JPG,,ISIC_0063268.JPG,ISIC_0063268.JPG,false,0,keypress(z),500,218973.3999999999,218973.2000000002,215340.828,215357.7000000002,215387.864,218989.993,8,400,46,,ISIC_0027387.JPG
break,html.Screen,4_45_1,2023-05-02T02:27:05.133Z,,0,,,NaN,,,,,,false,,,,218974,218973.8999999999,,218973.6000000001,,218989.993,8,400,,,
break_continue,html.Screen,4_45_2,2023-05-02T02:27:05.133Z,,0,,,NaN,,,,,,false,,,,218974.30000000028,218974.2000000002,,218974.1000000001,,218989.993,8,400,,,
sequence,flow.Sequence,4_45,2023-05-02T02:27:05.133Z,,0,,,3586.336000000185,completion,,,,,false,,,,218974.30000000028,218974.2000000002,215340.828,215357.7000000002,215387.864,218989.993,8,400,,,
trial,html.Screen,4_46_0,2023-05-02T02:27:09.366Z,,0,1,,4221.307000000292,response,ISIC_0064964.JPG,,ISIC_5778927.JPG,ISIC_5778927.JPG,false,0,keypress(z),500,223211.5,223211.30000000028,218973.881,218974.30000000028,218989.993,223222.909,8,400,47,,ISIC_0064964.JPG
break,html.Screen,4_46_1,2023-05-02T02:27:09.368Z,,0,,,NaN,,,,,,false,,,,223212.7000000002,223212.2000000002,,223211.7000000002,,223222.909,8,400,,,
break_continue,html.Screen,4_46_2,2023-05-02T02:27:09.368Z,,0,,,NaN,,,,,,false,,,,223213.1000000001,223213,,223212.80000000028,,223222.909,8,400,,,
sequence,flow.Sequence,4_46,2023-05-02T02:27:09.368Z,,0,,,4223.007000000012,completion,,,,,false,,,,223213.30000000028,223213,218973.881,218974.30000000028,218989.993,223222.909,8,400,,,
trial,html.Screen,4_47_0,2023-05-02T02:27:12.899Z,,0,1,,3509.4909999998927,response,ISIC_0014150.JPG,,ISIC_0056260.JPG,ISIC_0014150.JPG,false,1,keypress(m),500,226732.80000000028,226732.3999999999,223206.098,223213.5,223222.909,226738.984,8,400,48,,ISIC_0056260.JPG
break,html.Screen,4_47_1,2023-05-02T02:27:12.900Z,,0,,,NaN,,,,,,false,,,,226733.6000000001,226733.3999999999,,226733,,226738.984,8,400,,,
break_continue,html.Screen,4_47_2,2023-05-02T02:27:12.901Z,,0,,,NaN,,,,,,false,,,,226734,226733.8999999999,,226733.80000000028,,226738.984,8,400,,,
sequence,flow.Sequence,4_47,2023-05-02T02:27:12.901Z,,0,,,3510.9909999998927,completion,,,,,false,,,,226734.2000000002,226733.8999999999,223206.098,223213.3999999999,223222.909,226738.984,8,400,,,
trial,html.Screen,4_48_0,2023-05-02T02:27:15.813Z,,0,1,,2908.2160000001895,response,ISIC_0071906.JPG,,ISIC_7566505.JPG,ISIC_7566505.JPG,false,0,keypress(z),500,229647.5,229647.2000000002,226722.154,226734.30000000028,226738.984,229655.015,8,400,49,,ISIC_0071906.JPG
break,html.Screen,4_48_1,2023-05-02T02:27:15.813Z,,0,,,NaN,,,,,,false,,,,229648.30000000028,229648.1000000001,,229647.6000000001,,229655.015,8,400,,,
break_continue,html.Screen,4_48_2,2023-05-02T02:27:15.814Z,,0,,,NaN,,,,,,false,,,,229648.7000000002,229648.5,,229648.3999999999,,229655.015,8,400,,,
sequence,flow.Sequence,4_48,2023-05-02T02:27:15.814Z,,0,,,2909.5160000000033,completion,,,,,false,,,,229648.80000000028,229648.5,226722.154,226734.2000000002,226738.984,229655.015,8,400,,,
trial,html.Screen,4_49_0,2023-05-02T02:27:18.393Z,,0,1,,2580.884999999893,response,ISIC_0011422.JPG,,ISIC_3439215.JPG,ISIC_0011422.JPG,false,1,keypress(m),500,232236.1000000001,232235.8999999999,229638.622,229648.8999999999,229655.015,232238.071,8,400,50,,ISIC_3439215.JPG
break,html.Screen,4_49_1,2023-05-02T02:27:23.379Z,,0,,,4999.265000000014,timeout,,,,,false,,,,237221.8999999999,237220.657,232221.676,232236.2000000002,232238.071,237237.336,8,400,,,
break_continue,html.Screen,4_49_2,2023-05-02T02:27:24.559Z,,0,,,1152.4640000002692,response,,,,,false,continue,keypress(Space),,238401.2000000002,238389.80000000028,237220.657,237222.1000000001,237237.336,238420.419,8,400,,,
sequence,flow.Sequence,4_49,2023-05-02T02:27:24.559Z,,0,,,8734.785000000265,completion,,,,,false,,,,238401.5,238389.80000000028,229638.622,229648.8999999999,229655.015,238420.419,8,400,,,
trial,html.Screen,4_50_0,2023-05-02T02:27:27.976Z,,0,2,,3396.5810000000056,response,ISIC_4329176.JPG,,ISIC_1225511.JPG,ISIC_4329176.JPG,false,1,keypress(m),500,241817.30000000028,241817,238403.831,238401.6000000001,238420.419,241819.86,8,400,1,,ISIC_1225511.JPG
break,html.Screen,4_50_1,2023-05-02T02:27:27.978Z,,0,,,NaN,,,,,,false,,,,241818.3999999999,241818.2000000002,,241817.6000000001,,241819.86,8,400,,,
break_continue,html.Screen,4_50_2,2023-05-02T02:27:27.978Z,,0,,,NaN,,,,,,false,,,,241818.8999999999,241818.7000000002,,241818.6000000001,,241819.86,8,400,,,
sequence,flow.Sequence,4_50,2023-05-02T02:27:27.978Z,,0,,,3398.281000000192,completion,,,,,false,,,,241819.2000000002,241818.7000000002,238403.831,238401.6000000001,238420.419,241819.86,8,400,,,
trial,html.Screen,4_51_0,2023-05-02T02:27:30.363Z,,0,2,,2376.9400000002934,response,ISIC_0025499.JPG,,ISIC_8931948.JPG,ISIC_8931948.JPG,false,0,keypress(z),500,244197.1000000001,244196.80000000028,241803.105,241819.30000000028,241819.86,244202.838,8,400,2,,ISIC_0025499.JPG
break,html.Screen,4_51_1,2023-05-02T02:27:30.364Z,,0,,,NaN,,,,,,false,,,,244198.2000000002,244197.8999999999,,244197.3999999999,,244202.838,8,400,,,
break_continue,html.Screen,4_51_2,2023-05-02T02:27:30.365Z,,0,,,NaN,,,,,,false,,,,244198.7000000002,244198.6000000001,,244198.30000000028,,244202.838,8,400,,,
sequence,flow.Sequence,4_51,2023-05-02T02:27:30.365Z,,0,,,2378.740000000107,completion,,,,,false,,,,244199,244198.6000000001,241803.105,241819.30000000028,241819.86,244202.838,8,400,,,
trial,html.Screen,4_52_0,2023-05-02T02:27:32.828Z,,0,2,,2461.662000000011,response,ISIC_9859495.JPG,,ISIC_0740449.JPG,ISIC_9859495.JPG,false,1,keypress(m),500,246664.80000000028,246664.5,244186.006,244199.2000000002,244202.838,246685.896,8,400,3,,ISIC_0740449.JPG
break,html.Screen,4_52_1,2023-05-02T02:27:32.828Z,,0,,,NaN,,,,,,false,,,,246665.6000000001,246665.3999999999,,246665,,246685.896,8,400,,,
break_continue,html.Screen,4_52_2,2023-05-02T02:27:32.829Z,,0,,,NaN,,,,,,false,,,,246666,246665.8999999999,,246665.7000000002,,246685.896,8,400,,,
sequence,flow.Sequence,4_52,2023-05-02T02:27:32.829Z,,0,,,2463.061999999918,completion,,,,,false,,,,246666.1000000001,246665.8999999999,244186.006,244199.1000000001,244202.838,246685.896,8,400,,,
trial,html.Screen,4_53_0,2023-05-02T02:27:35.604Z,,0,2,,2763.4040000002715,response,ISIC_0072422.JPG,,ISIC_2376758.JPG,ISIC_0072422.JPG,false,1,keypress(m),500,249449.6000000001,249449.30000000028,246669.015,246666.2000000002,246685.896,249452.017,8,400,4,,ISIC_2376758.JPG
break,html.Screen,4_53_1,2023-05-02T02:27:35.605Z,,0,,,NaN,,,,,,false,,,,249450.7000000002,249450.3999999999,,249449.80000000028,,249452.017,8,400,,,
break_continue,html.Screen,4_53_2,2023-05-02T02:27:35.605Z,,0,,,NaN,,,,,,false,,,,249451.2000000002,249451,,249450.8999999999,,249452.017,8,400,,,
sequence,flow.Sequence,4_53,2023-05-02T02:27:35.605Z,,0,,,2765.103999999992,completion,,,,,false,,,,249451.2000000002,249451,246669.015,246666.2000000002,246685.896,249452.017,8,400,,,
trial,html.Screen,4_54_0,2023-05-02T02:27:38.878Z,,0,2,,3259.283000000287,response,ISIC_2304753.JPG,,ISIC_2809019.JPG,ISIC_2304753.JPG,false,1,keypress(m),500,252711.6000000001,252711.30000000028,249435.318,249451.3999999999,249452.017,252718.08,8,400,5,,ISIC_2809019.JPG
break,html.Screen,4_54_1,2023-05-02T02:27:38.879Z,,0,,,NaN,,,,,,false,,,,252712.80000000028,252712.3999999999,,252712,,252718.08,8,400,,,
break_continue,html.Screen,4_54_2,2023-05-02T02:27:38.880Z,,0,,,NaN,,,,,,false,,,,252713.2000000002,252713.1000000001,,252712.8999999999,,252718.08,8,400,,,
sequence,flow.Sequence,4_54,2023-05-02T02:27:38.880Z,,0,,,3261.0830000001006,completion,,,,,false,,,,252713.5,252713.1000000001,249435.318,249451.30000000028,249452.017,252718.08,8,400,,,
trial,html.Screen,4_55_0,2023-05-02T02:27:41.960Z,,0,2,,3075.420000000013,response,ISIC_0070046.JPG,,ISIC_0485881.JPG,ISIC_0070046.JPG,false,1,keypress(m),500,255793.80000000028,255793.5,252701.408,252713.80000000028,252718.08,255800.906,8,400,6,,ISIC_0485881.JPG
break,html.Screen,4_55_1,2023-05-02T02:27:41.961Z,,0,,,NaN,,,,,,false,,,,255794.80000000028,255794.6000000001,,255794.1000000001,,255800.906,8,400,,,
break_continue,html.Screen,4_55_2,2023-05-02T02:27:41.962Z,,0,,,NaN,,,,,,false,,,,255795.6000000001,255795.30000000028,,255795.1000000001,,255800.906,8,400,,,
sequence,flow.Sequence,4_55,2023-05-02T02:27:41.962Z,,0,,,3077.220000000292,completion,,,,,false,,,,255795.8999999999,255795.30000000028,252701.408,252713.6000000001,252718.08,255800.906,8,400,,,
trial,html.Screen,4_56_0,2023-05-02T02:27:44.978Z,,0,2,,3010.294000000198,response,ISIC_2056104.JPG,,ISIC_0067733.JPG,ISIC_0067733.JPG,false,0,keypress(z),500,258811.6000000001,258811.2000000002,255784.252,255796,255800.906,258817.255,8,400,7,,ISIC_2056104.JPG
break,html.Screen,4_56_1,2023-05-02T02:27:44.980Z,,0,,,NaN,,,,,,false,,,,258813.2000000002,258812.80000000028,,258811.8999999999,,258817.255,8,400,,,
break_continue,html.Screen,4_56_2,2023-05-02T02:27:44.981Z,,0,,,NaN,,,,,,false,,,,258813.80000000028,258813.6000000001,,258813.5,,258817.255,8,400,,,
sequence,flow.Sequence,4_56,2023-05-02T02:27:44.981Z,,0,,,3012.694000000105,completion,,,,,false,,,,258813.8999999999,258813.6000000001,255784.252,255796,255800.906,258817.255,8,400,,,
trial,html.Screen,4_57_0,2023-05-02T02:27:47.447Z,,0,2,,2465.9450000001816,response,ISIC_0015079.JPG,,ISIC_8065633.JPG,ISIC_0015079.JPG,false,1,keypress(m),500,261283.5,261283.2000000002,258800.704,258814.1000000001,258817.255,261300.115,8,400,8,,ISIC_8065633.JPG
break,html.Screen,4_57_1,2023-05-02T02:27:47.448Z,,0,,,NaN,,,,,,false,,,,261284.7000000002,261284.3999999999,,261283.80000000028,,261300.115,8,400,,,
break_continue,html.Screen,4_57_2,2023-05-02T02:27:47.449Z,,0,,,NaN,,,,,,false,,,,261285.3999999999,261285.1000000001,,261285,,261300.115,8,400,,,
sequence,flow.Sequence,4_57,2023-05-02T02:27:47.449Z,,0,,,2467.8450000000885,completion,,,,,false,,,,261285.6000000001,261285.1000000001,258800.704,258814.1000000001,258817.255,261300.115,8,400,,,
trial,html.Screen,4_58_0,2023-05-02T02:27:50.072Z,,0,2,,2607.6850000002887,response,ISIC_0032165.JPG,,ISIC_0009868.JPG,ISIC_0032165.JPG,false,1,keypress(m),500,263908.1000000001,263907.8000000003,261283.484,261285.80000000028,261300.115,263916.471,8,400,9,,ISIC_0009868.JPG
break,html.Screen,4_58_1,2023-05-02T02:27:50.073Z,,0,,,NaN,,,,,,false,,,,263909.1000000001,263908.8999999999,,263908.3999999999,,263916.471,8,400,,,
break_continue,html.Screen,4_58_2,2023-05-02T02:27:50.074Z,,0,,,NaN,,,,,,false,,,,263909.6000000001,263909.5,,263909.3000000003,,263916.471,8,400,,,
sequence,flow.Sequence,4_58,2023-05-02T02:27:50.074Z,,0,,,2609.3850000000093,completion,,,,,false,,,,263909.7000000002,263909.5,261283.484,261285.80000000028,261300.115,263916.471,8,400,,,
trial,html.Screen,4_59_0,2023-05-02T02:27:53.111Z,,0,2,,3030.5289999999804,response,ISIC_0000555.JPG,,ISIC_0013845.JPG,ISIC_0013845.JPG,false,0,keypress(z),500,266947.5,266947,263899.603,263909.8999999999,263916.471,266978.739,8,400,10,,ISIC_0000555.JPG
break,html.Screen,4_59_1,2023-05-02T02:27:53.112Z,,0,,,NaN,,,,,,false,,,,266948.5,266948.2000000002,,266947.8000000003,,266978.739,8,400,,,
break_continue,html.Screen,4_59_2,2023-05-02T02:27:53.112Z,,0,,,NaN,,,,,,false,,,,266948.8999999999,266948.8000000003,,266948.6000000001,,266978.739,8,400,,,
sequence,flow.Sequence,4_59,2023-05-02T02:27:53.113Z,,0,,,3032.32900000026,completion,,,,,false,,,,266949.1000000001,266948.8000000003,263899.603,263909.8999999999,263916.471,266978.739,8,400,,,
trial,html.Screen,4_60_0,2023-05-02T02:27:56.093Z,,0,2,,2961.961000000185,response,ISIC_0026460.JPG,,ISIC_0031118.JPG,ISIC_0031118.JPG,false,0,keypress(z),500,269941.1000000001,269940.7000000002,266932.638,266949.3000000003,266978.739,269948.76,8,400,11,,ISIC_0026460.JPG
break,html.Screen,4_60_1,2023-05-02T02:27:56.094Z,,0,,,NaN,,,,,,false,,,,269942,269941.8000000003,,269941.3000000003,,269948.76,8,400,,,
break_continue,html.Screen,4_60_2,2023-05-02T02:27:56.094Z,,0,,,NaN,,,,,,false,,,,269942.3999999999,269942.3000000003,,269942.3000000003,,269948.76,8,400,,,
sequence,flow.Sequence,4_60,2023-05-02T02:27:56.095Z,,0,,,2963.561000000278,completion,,,,,false,,,,269942.6000000001,269942.3000000003,266932.638,266949.3000000003,266978.739,269948.76,8,400,,,
trial,html.Screen,4_61_0,2023-05-02T02:27:59.299Z,,0,2,,3185.940000000177,response,ISIC_7888672.JPG,,ISIC_7327423.JPG,ISIC_7327423.JPG,false,0,keypress(z),500,273135,273134.7000000002,269932.638,269942.7000000002,269948.76,273148.319,8,400,12,,ISIC_7888672.JPG
break,html.Screen,4_61_1,2023-05-02T02:27:59.301Z,,0,,,NaN,,,,,,false,,,,273136,273135.8000000003,,273135.3000000003,,273148.319,8,400,,,
break_continue,html.Screen,4_61_2,2023-05-02T02:27:59.301Z,,0,,,NaN,,,,,,false,,,,273136.5,273136.5,,273136.3000000003,,273148.319,8,400,,,
sequence,flow.Sequence,4_61,2023-05-02T02:27:59.301Z,,0,,,3187.7399999999907,completion,,,,,false,,,,273136.8000000003,273136.5,269932.638,269942.7000000002,269948.76,273148.319,8,400,,,
trial,html.Screen,4_62_0,2023-05-02T02:28:02.131Z,,0,2,,2828.6809999999823,response,ISIC_0046921.JPG,,ISIC_6685513.JPG,ISIC_0046921.JPG,false,1,keypress(m),500,275977.3000000003,275977,273131.727,273137,273148.319,275981.163,8,400,13,,ISIC_6685513.JPG
break,html.Screen,4_62_1,2023-05-02T02:28:02.132Z,,0,,,NaN,,,,,,false,,,,275978.3999999999,275978.2000000002,,275977.6000000001,,275981.163,8,400,,,
break_continue,html.Screen,4_62_2,2023-05-02T02:28:02.133Z,,0,,,NaN,,,,,,false,,,,275979,275978.7000000002,,275978.6000000001,,275981.163,8,400,,,
sequence,flow.Sequence,4_62,2023-05-02T02:28:02.133Z,,0,,,2830.3810000001686,completion,,,,,false,,,,275979.2000000002,275978.7000000002,273131.727,273136.8999999999,273148.319,275981.163,8,400,,,
trial,html.Screen,4_63_0,2023-05-02T02:28:05.319Z,,0,2,,3177.3369999999995,response,ISIC_1342117.JPG,,ISIC_8462364.JPG,ISIC_8462364.JPG,false,0,keypress(z),500,279158.8999999999,279158.5,275964.49,275979.3999999999,275981.163,279163.889,8,400,14,,ISIC_1342117.JPG
break,html.Screen,4_63_1,2023-05-02T02:28:05.320Z,,0,,,NaN,,,,,,false,,,,279159.8999999999,279159.6000000001,,279159.3000000003,,279163.889,8,400,,,
break_continue,html.Screen,4_63_2,2023-05-02T02:28:05.321Z,,0,,,NaN,,,,,,false,,,,279160.5,279160.3000000003,,279160.2000000002,,279163.889,8,400,,,
sequence,flow.Sequence,4_63,2023-05-02T02:28:05.321Z,,0,,,3179.137000000279,completion,,,,,false,,,,279160.7000000002,279160.3000000003,275964.49,275979.3000000003,275981.163,279163.889,8,400,,,
trial,html.Screen,4_64_0,2023-05-02T02:28:08.305Z,,0,2,,2983.1109999999753,response,ISIC_0028579.JPG,,ISIC_4933735.JPG,ISIC_4933735.JPG,false,0,keypress(z),500,282147.2000000002,282147,279147.312,279160.8000000003,279163.889,282163.435,8,400,15,,ISIC_0028579.JPG
break,html.Screen,4_64_1,2023-05-02T02:28:08.306Z,,0,,,NaN,,,,,,false,,,,282148.5,282148.1000000001,,282147.5,,282163.435,8,400,,,
break_continue,html.Screen,4_64_2,2023-05-02T02:28:08.307Z,,0,,,NaN,,,,,,false,,,,282149.1000000001,282148.8999999999,,282148.8000000003,,282163.435,8,400,,,
sequence,flow.Sequence,4_64,2023-05-02T02:28:08.307Z,,0,,,2985.010999999882,completion,,,,,false,,,,282149.3000000003,282148.8999999999,279147.312,279160.7000000002,279163.889,282163.435,8,400,,,
trial,html.Screen,4_65_0,2023-05-02T02:28:11.166Z,,0,2,,2842.0650000000023,response,ISIC_0014173.JPG,,ISIC_0256926.JPG,ISIC_0014173.JPG,false,1,keypress(m),500,285005.8000000003,285005.5,282146.996,282149.5,282163.435,285013.059,8,400,16,,ISIC_0256926.JPG
break,html.Screen,4_65_1,2023-05-02T02:28:11.167Z,,0,,,NaN,,,,,,false,,,,285006.8999999999,285006.6000000001,,285006.2000000002,,285013.059,8,400,,,
break_continue,html.Screen,4_65_2,2023-05-02T02:28:11.167Z,,0,,,NaN,,,,,,false,,,,285007.3000000003,285007.3000000003,,285007.1000000001,,285013.059,8,400,,,
sequence,flow.Sequence,4_65,2023-05-02T02:28:11.167Z,,0,,,2843.8650000002817,completion,,,,,false,,,,285007.5,285007.3000000003,282146.996,282149.3999999999,282163.435,285013.059,8,400,,,
trial,html.Screen,4_66_0,2023-05-02T02:28:14.733Z,,0,2,,3552.641000000178,response,ISIC_0003281.JPG,,ISIC_0644590.JPG,ISIC_0003281.JPG,false,1,keypress(m),500,288566.1000000001,288565.7000000002,284996.329,285007.6000000001,285013.059,288579.159,8,400,17,,ISIC_0644590.JPG
break,html.Screen,4_66_1,2023-05-02T02:28:14.734Z,,0,,,NaN,,,,,,false,,,,288567.3999999999,288567.2000000002,,288566.5,,288579.159,8,400,,,
break_continue,html.Screen,4_66_2,2023-05-02T02:28:14.735Z,,0,,,NaN,,,,,,false,,,,288568,288567.8999999999,,288567.6000000001,,288579.159,8,400,,,
sequence,flow.Sequence,4_66,2023-05-02T02:28:14.735Z,,0,,,3554.8409999998985,completion,,,,,false,,,,288568.2000000002,288567.8999999999,284996.329,285007.6000000001,285013.059,288579.159,8,400,,,
trial,html.Screen,4_67_0,2023-05-02T02:28:18.193Z,,0,2,,3446.941000000108,response,ISIC_5935362.JPG,,ISIC_0032546.JPG,ISIC_0032546.JPG,false,0,keypress(z),500,292026.3999999999,292026.1000000001,288562.912,288568.3000000003,288579.159,292028.506,8,400,18,,ISIC_5935362.JPG
break,html.Screen,4_67_1,2023-05-02T02:28:18.194Z,,0,,,NaN,,,,,,false,,,,292027.6000000001,292027.1000000001,,292026.7000000002,,292028.506,8,400,,,
break_continue,html.Screen,4_67_2,2023-05-02T02:28:18.194Z,,0,,,NaN,,,,,,false,,,,292028.2000000002,292027.8999999999,,292027.8000000003,,292028.506,8,400,,,
sequence,flow.Sequence,4_67,2023-05-02T02:28:18.195Z,,0,,,3448.7409999999218,completion,,,,,false,,,,292028.3999999999,292027.8999999999,288562.912,288568.3000000003,288579.159,292028.506,8,400,,,
trial,html.Screen,4_68_0,2023-05-02T02:28:21.187Z,,0,2,,2992.594000000099,response,ISIC_0060397.JPG,,ISIC_5922931.JPG,ISIC_0060397.JPG,false,1,keypress(m),500,295021.3999999999,295021.1000000001,292011.951,292028.5,292028.506,295028.041,8,400,19,,ISIC_5922931.JPG
break,html.Screen,4_68_1,2023-05-02T02:28:21.189Z,,0,,,NaN,,,,,,false,,,,295022.7000000002,295022.3999999999,,295021.7000000002,,295028.041,8,400,,,
break_continue,html.Screen,4_68_2,2023-05-02T02:28:21.189Z,,0,,,NaN,,,,,,false,,,,295023.2000000002,295023,,295022.8999999999,,295028.041,8,400,,,
sequence,flow.Sequence,4_68,2023-05-02T02:28:21.189Z,,0,,,2994.494000000006,completion,,,,,false,,,,295023.5,295023,292011.951,292028.3999999999,292028.506,295028.041,8,400,,,
trial,html.Screen,4_69_0,2023-05-02T02:28:23.612Z,,0,2,,2420.1590000001597,response,ISIC_0011356.JPG,,ISIC_5039396.JPG,ISIC_0011356.JPG,false,1,keypress(m),500,297448.6000000001,297448.2000000002,295012.933,295023.6000000001,295028.041,297477.891,8,400,20,,ISIC_5039396.JPG
break,html.Screen,4_69_1,2023-05-02T02:28:23.613Z,,0,,,NaN,,,,,,false,,,,297449.6000000001,297449.3000000003,,297448.8000000003,,297477.891,8,400,,,
break_continue,html.Screen,4_69_2,2023-05-02T02:28:23.613Z,,0,,,NaN,,,,,,false,,,,297450.1000000001,297449.8999999999,,297449.7000000002,,297477.891,8,400,,,
sequence,flow.Sequence,4_69,2023-05-02T02:28:23.614Z,,0,,,2421.8589999998803,completion,,,,,false,,,,297450.2000000002,297449.8999999999,295012.933,295023.6000000001,295028.041,297477.891,8,400,,,
trial,html.Screen,4_70_0,2023-05-02T02:28:25.802Z,,0,2,,2157.809000000183,response,ISIC_0071771.JPG,,ISIC_0026700.JPG,ISIC_0026700.JPG,false,1,keypress(m),500,299636,299635.7000000002,297461.293,297450.3000000003,297477.891,299644.169,8,400,21,,ISIC_0071771.JPG
break,html.Screen,4_70_1,2023-05-02T02:28:25.803Z,,0,,,NaN,,,,,,false,,,,299637.1000000001,299636.8999999999,,299636.2000000002,,299644.169,8,400,,,
break_continue,html.Screen,4_70_2,2023-05-02T02:28:25.803Z,,0,,,NaN,,,,,,false,,,,299637.3000000003,299637.2000000002,,299637.1000000001,,299644.169,8,400,,,
sequence,flow.Sequence,4_70,2023-05-02T02:28:25.803Z,,0,,,2159.309000000183,completion,,,,,false,,,,299637.3999999999,299637.2000000002,297461.293,297450.3000000003,297477.891,299644.169,8,400,,,
trial,html.Screen,4_71_0,2023-05-02T02:28:27.875Z,,0,2,,2066.4310000000987,response,ISIC_5392118.JPG,,ISIC_0905367.JPG,ISIC_0905367.JPG,false,1,keypress(m),500,301711.3000000003,301710.6000000001,299635.552,299637.5,299644.169,301726.999,8,400,22,,ISIC_5392118.JPG
break,html.Screen,4_71_1,2023-05-02T02:28:27.877Z,,0,,,NaN,,,,,,false,,,,301712.5,301712.1000000001,,301711.5,,301726.999,8,400,,,
break_continue,html.Screen,4_71_2,2023-05-02T02:28:27.877Z,,0,,,NaN,,,,,,false,,,,301713,301712.8999999999,,301712.6000000001,,301726.999,8,400,,,
sequence,flow.Sequence,4_71,2023-05-02T02:28:27.877Z,,0,,,2068.7309999999125,completion,,,,,false,,,,301713.3000000003,301712.8999999999,299635.552,299637.5,299644.169,301726.999,8,400,,,
trial,html.Screen,4_72_0,2023-05-02T02:28:29.905Z,,0,2,,2014.9009999998962,response,ISIC_0027498.JPG,,ISIC_1223849.JPG,ISIC_0027498.JPG,false,0,keypress(z),500,303742,303741.8999999999,301710.496,301713.3999999999,301726.999,303760.297,8,400,23,,ISIC_1223849.JPG
break,html.Screen,4_72_1,2023-05-02T02:28:29.906Z,,0,,,NaN,,,,,,false,,,,303742.7000000002,303742.5,,303742.2000000002,,303760.297,8,400,,,
break_continue,html.Screen,4_72_2,2023-05-02T02:28:29.906Z,,0,,,NaN,,,,,,false,,,,303742.8999999999,303742.8000000003,,303742.8000000003,,303760.297,8,400,,,
sequence,flow.Sequence,4_72,2023-05-02T02:28:29.906Z,,0,,,2015.8010000002687,completion,,,,,false,,,,303743,303742.8000000003,301710.496,301713.3000000003,301726.999,303760.297,8,400,,,
trial,html.Screen,4_73_0,2023-05-02T02:28:31.986Z,,0,2,,2062.503000000259,response,ISIC_0056790.JPG,,ISIC_0032413.JPG,ISIC_0032413.JPG,false,0,keypress(z),500,305823,305822.8000000003,303743.334,303743,303760.297,305826.37,8,400,24,,ISIC_0056790.JPG
break,html.Screen,4_73_1,2023-05-02T02:28:31.986Z,,0,,,NaN,,,,,,false,,,,305823.7000000002,305823.5,,305823.2000000002,,305826.37,8,400,,,
break_continue,html.Screen,4_73_2,2023-05-02T02:28:31.987Z,,0,,,NaN,,,,,,false,,,,305824.1000000001,305824,,305823.8999999999,,305826.37,8,400,,,
sequence,flow.Sequence,4_73,2023-05-02T02:28:31.987Z,,0,,,2063.7029999999795,completion,,,,,false,,,,305824.3000000003,305824,303743.334,303743,303760.297,305826.37,8,400,,,
trial,html.Screen,4_74_0,2023-05-02T02:28:34.173Z,,0,2,,2190.5299999999115,response,ISIC_8174881.JPG,,ISIC_4591316.JPG,ISIC_8174881.JPG,false,1,keypress(m),500,308017.1000000001,308016.8999999999,305816.282,305824.3999999999,305826.37,308026.043,8,400,25,,ISIC_4591316.JPG
break,html.Screen,4_74_1,2023-05-02T02:28:34.174Z,,0,,,NaN,,,,,,false,,,,308017.8000000003,308017.5,,308017.2000000002,,308026.043,8,400,,,
break_continue,html.Screen,4_74_2,2023-05-02T02:28:34.174Z,,0,,,NaN,,,,,,false,,,,308018.3000000003,308018.1000000001,,308018,,308026.043,8,400,,,
sequence,flow.Sequence,4_74,2023-05-02T02:28:34.175Z,,0,,,2191.730000000098,completion,,,,,false,,,,308018.3999999999,308018.1000000001,305816.282,305824.3999999999,305826.37,308026.043,8,400,,,
trial,html.Screen,4_75_0,2023-05-02T02:28:36.691Z,,0,2,,2509.057000000088,response,ISIC_5102688.JPG,,ISIC_8105020.JPG,ISIC_8105020.JPG,false,0,keypress(z),500,310535.3000000003,310535.1000000001,308009.41,308018.3999999999,308026.043,310542.265,8,400,26,,ISIC_5102688.JPG
break,html.Screen,4_75_1,2023-05-02T02:28:36.691Z,,0,,,NaN,,,,,,false,,,,310535.8000000003,310535.7000000002,,310535.5,,310542.265,8,400,,,
break_continue,html.Screen,4_75_2,2023-05-02T02:28:36.692Z,,0,,,NaN,,,,,,false,,,,310536.1000000001,310536,,310536,,310542.265,8,400,,,
sequence,flow.Sequence,4_75,2023-05-02T02:28:36.692Z,,0,,,2509.956999999995,completion,,,,,false,,,,310536.3000000003,310536,308009.41,308018.3999999999,308026.043,310542.265,8,400,,,
trial,html.Screen,4_76_0,2023-05-02T02:28:38.849Z,,0,2,,2149.5350000002654,response,ISIC_0029970.JPG,,ISIC_6458982.JPG,ISIC_6458982.JPG,false,0,keypress(z),500,312692,312691.8000000003,310525.507,310536.3000000003,310542.265,312708.562,8,400,27,,ISIC_0029970.JPG
break,html.Screen,4_76_1,2023-05-02T02:28:38.850Z,,0,,,NaN,,,,,,false,,,,312692.7000000002,312692.5,,312692.2000000002,,312708.562,8,400,,,
break_continue,html.Screen,4_76_2,2023-05-02T02:28:38.850Z,,0,,,NaN,,,,,,false,,,,312693,312692.8999999999,,312692.8000000003,,312708.562,8,400,,,
sequence,flow.Sequence,4_76,2023-05-02T02:28:38.850Z,,0,,,2150.634999999893,completion,,,,,false,,,,312693.1000000001,312692.8999999999,310525.507,310536.3000000003,310542.265,312708.562,8,400,,,
trial,html.Screen,4_77_0,2023-05-02T02:28:41.500Z,,0,2,,2629.538000000117,response,ISIC_0069193.JPG,,ISIC_8234773.JPG,ISIC_0069193.JPG,false,1,keypress(m),500,315338.3000000003,315338.1000000001,312692.24,312693.3000000003,312708.562,315341.565,8,400,28,,ISIC_8234773.JPG
break,html.Screen,4_77_1,2023-05-02T02:28:41.501Z,,0,,,NaN,,,,,,false,,,,315339.5,315339.1000000001,,315338.6000000001,,315341.565,8,400,,,
break_continue,html.Screen,4_77_2,2023-05-02T02:28:41.501Z,,0,,,NaN,,,,,,false,,,,315339.8999999999,315339.7000000002,,315339.6000000001,,315341.565,8,400,,,
sequence,flow.Sequence,4_77,2023-05-02T02:28:41.502Z,,0,,,2631.13800000021,completion,,,,,false,,,,315339.8999999999,315339.7000000002,312692.24,312693.3000000003,312708.562,315341.565,8,400,,,
trial,html.Screen,4_78_0,2023-05-02T02:28:44.043Z,,0,2,,2543.135000000184,response,ISIC_3319229.JPG,,ISIC_0069492.JPG,ISIC_3319229.JPG,false,1,keypress(m),500,317885,317884.7000000002,315324.995,315340,315341.565,317891.395,8,400,29,,ISIC_0069492.JPG
break,html.Screen,4_78_1,2023-05-02T02:28:44.044Z,,0,,,NaN,,,,,,false,,,,317885.8999999999,317885.6000000001,,317885.3000000003,,317891.395,8,400,,,
break_continue,html.Screen,4_78_2,2023-05-02T02:28:44.044Z,,0,,,NaN,,,,,,false,,,,317886.3000000003,317886.1000000001,,317886,,317891.395,8,400,,,
sequence,flow.Sequence,4_78,2023-05-02T02:28:44.044Z,,0,,,2544.535000000091,completion,,,,,false,,,,317886.3000000003,317886.1000000001,315324.995,315340,315341.565,317891.395,8,400,,,
trial,html.Screen,4_79_0,2023-05-02T02:28:49.317Z,,0,2,,5266.405000000261,response,ISIC_0033668.JPG,,ISIC_1410408.JPG,ISIC_0033668.JPG,false,1,keypress(m),500,323158.1000000001,323157.8000000003,317874.642,317886.5,317891.395,323173.621,8,400,30,,ISIC_1410408.JPG
break,html.Screen,4_79_1,2023-05-02T02:28:49.318Z,,0,,,NaN,,,,,,false,,,,323159.3999999999,323159.2000000002,,323158.3000000003,,323173.621,8,400,,,
break_continue,html.Screen,4_79_2,2023-05-02T02:28:49.319Z,,0,,,NaN,,,,,,false,,,,323159.8000000003,323159.6000000001,,323159.6000000001,,323173.621,8,400,,,
sequence,flow.Sequence,4_79,2023-05-02T02:28:49.319Z,,0,,,5268.2050000000745,completion,,,,,false,,,,323159.8999999999,323159.6000000001,317874.642,317886.3999999999,317891.395,323173.621,8,400,,,
trial,html.Screen,4_80_0,2023-05-02T02:29:00.821Z,,0,2,,11515.160000000033,timeout,ISIC_1296490.JPG,,ISIC_0032549.JPG,,false,,,500,334656.6000000001,334656.2000000002,323157.18,323160,323173.621,334688.781,8,400,31,,
break,html.Screen,4_80_1,2023-05-02T02:29:00.822Z,,0,,,NaN,,,,,,false,,,,334657.2000000002,334657.1000000001,,334656.7000000002,,334688.781,8,400,,,
break_continue,html.Screen,4_80_2,2023-05-02T02:29:00.822Z,,0,,,NaN,,,,,,false,,,,334657.6000000001,334657.3999999999,,334657.3999999999,,334688.781,8,400,,,
sequence,flow.Sequence,4_80,2023-05-02T02:29:00.822Z,,0,,,11483.778999999922,completion,,,,,false,,,,334657.8000000003,334657.3999999999,323157.18,323159.8999999999,323173.621,334688.781,8,400,,,
trial,html.Screen,4_81_0,2023-05-02T02:29:12.338Z,,0,2,,11514.897999999986,timeout,ISIC_9556334.JPG,,ISIC_0063369.JPG,,false,,,500,346171.3000000003,346171,334672.016,334658,334688.781,346203.679,8,400,32,,
break,html.Screen,4_81_1,2023-05-02T02:29:12.339Z,,0,,,NaN,,,,,,false,,,,346172,346171.8999999999,,346171.3999999999,,346203.679,8,400,,,
break_continue,html.Screen,4_81_2,2023-05-02T02:29:12.339Z,,0,,,NaN,,,,,,false,,,,346172.3999999999,346172.2000000002,,346172.1000000001,,346203.679,8,400,,,
sequence,flow.Sequence,4_81,2023-05-02T02:29:12.339Z,,0,,,11483.419000000169,completion,,,,,false,,,,346172.5,346172.2000000002,334672.016,334658,334688.781,346203.679,8,400,,,
trial,html.Screen,4_82_0,2023-05-02T02:29:16.567Z,,0,2,,4196.421000000089,response,ISIC_6938608.JPG,,ISIC_7327423.JPG,ISIC_6938608.JPG,false,1,keypress(m),500,350400.3999999999,350400.1000000001,346186.724,346172.6000000001,346203.679,350402.712,8,400,33,,ISIC_7327423.JPG
break,html.Screen,4_82_1,2023-05-02T02:29:16.568Z,,0,,,NaN,,,,,,false,,,,350401.2000000002,350401,,350400.6000000001,,350402.712,8,400,,,
break_continue,html.Screen,4_82_2,2023-05-02T02:29:16.568Z,,0,,,NaN,,,,,,false,,,,350401.6000000001,350401.5,,350401.2000000002,,350402.712,8,400,,,
sequence,flow.Sequence,4_82,2023-05-02T02:29:16.568Z,,0,,,4197.820999999996,completion,,,,,false,,,,350401.7000000002,350401.5,346186.724,346172.6000000001,346203.679,350402.712,8,400,,,
trial,html.Screen,4_83_0,2023-05-02T02:29:18.989Z,,0,2,,2419.8880000000936,response,ISIC_9002603.JPG,,ISIC_0054705.JPG,ISIC_0054705.JPG,false,0,keypress(z),500,352823,352822.6000000001,350386.311,350401.8999999999,350402.712,352835.912,8,400,34,,ISIC_9002603.JPG
break,html.Screen,4_83_1,2023-05-02T02:29:18.990Z,,0,,,NaN,,,,,,false,,,,352824.3000000003,352823.7000000002,,352823.2000000002,,352835.912,8,400,,,
break_continue,html.Screen,4_83_2,2023-05-02T02:29:18.991Z,,0,,,NaN,,,,,,false,,,,352824.6000000001,352824.5,,352824.3999999999,,352835.912,8,400,,,
sequence,flow.Sequence,4_83,2023-05-02T02:29:18.991Z,,0,,,2421.7880000000005,completion,,,,,false,,,,352824.8000000003,352824.5,350386.311,350401.8999999999,350402.712,352835.912,8,400,,,
trial,html.Screen,4_84_0,2023-05-02T02:29:21.973Z,,0,2,,2970.188000000082,response,ISIC_0033472.JPG,,ISIC_0000040.JPG,ISIC_0033472.JPG,false,1,keypress(m),500,355806.3999999999,355806.1000000001,352818.93,352824.8000000003,352835.912,355818.536,8,400,35,,ISIC_0000040.JPG
break,html.Screen,4_84_1,2023-05-02T02:29:21.974Z,,0,,,NaN,,,,,,false,,,,355807.3999999999,355807.2000000002,,355806.7000000002,,355818.536,8,400,,,
break_continue,html.Screen,4_84_2,2023-05-02T02:29:21.974Z,,0,,,NaN,,,,,,false,,,,355807.8999999999,355807.8000000003,,355807.6000000001,,355818.536,8,400,,,
sequence,flow.Sequence,4_84,2023-05-02T02:29:21.974Z,,0,,,2971.888000000268,completion,,,,,false,,,,355808.2000000002,355807.8000000003,352818.93,352824.8000000003,352835.912,355818.536,8,400,,,
trial,html.Screen,4_85_0,2023-05-02T02:29:24.460Z,,0,2,,2480.1640000001644,response,ISIC_0001120.JPG,,ISIC_0053594.JPG,ISIC_0001120.JPG,false,1,keypress(m),500,358299,358298.7000000002,355802.228,355808.3000000003,355818.536,358301.437,8,400,36,,ISIC_0053594.JPG
break,html.Screen,4_85_1,2023-05-02T02:29:24.462Z,,0,,,NaN,,,,,,false,,,,358300.3999999999,358300.2000000002,,358299.2000000002,,358301.437,8,400,,,
break_continue,html.Screen,4_85_2,2023-05-02T02:29:24.462Z,,0,,,NaN,,,,,,false,,,,358300.7000000002,358300.7000000002,,358300.5,,358301.437,8,400,,,
sequence,flow.Sequence,4_85,2023-05-02T02:29:24.462Z,,0,,,2482.1640000001644,completion,,,,,false,,,,358300.8999999999,358300.7000000002,355802.228,355808.3000000003,355818.536,358301.437,8,400,,,
trial,html.Screen,4_86_0,2023-05-02T02:29:28.125Z,,0,2,,3659.5630000000237,response,ISIC_3520591.JPG,,ISIC_4172470.JPG,ISIC_4172470.JPG,false,0,keypress(z),500,361961.2000000002,361961,358284.757,358301.1000000001,358301.437,361967.551,8,400,37,,ISIC_3520591.JPG
break,html.Screen,4_86_1,2023-05-02T02:29:28.126Z,,0,,,NaN,,,,,,false,,,,361962,361961.8000000003,,361961.5,,361967.551,8,400,,,
break_continue,html.Screen,4_86_2,2023-05-02T02:29:28.126Z,,0,,,NaN,,,,,,false,,,,361962.5,361962.2000000002,,361962.2000000002,,361967.551,8,400,,,
sequence,flow.Sequence,4_86,2023-05-02T02:29:28.127Z,,0,,,3660.76300000021,completion,,,,,false,,,,361962.6000000001,361962.2000000002,358284.757,358301,358301.437,361967.551,8,400,,,
trial,html.Screen,4_87_0,2023-05-02T02:29:31.289Z,,0,2,,3167.9490000000224,response,ISIC_0029056.JPG,,ISIC_0014114.JPG,ISIC_0029056.JPG,false,1,keypress(m),500,365136.1000000001,365135.5,361951.158,361962.8000000003,361967.551,365150.412,8,400,38,,ISIC_0014114.JPG
break,html.Screen,4_87_1,2023-05-02T02:29:31.291Z,,0,,,NaN,,,,,,false,,,,365137.8000000003,365137.5,,365136.7000000002,,365150.412,8,400,,,
break_continue,html.Screen,4_87_2,2023-05-02T02:29:31.292Z,,0,,,NaN,,,,,,false,,,,365138.6000000001,365138.3000000003,,365138,,365150.412,8,400,,,
sequence,flow.Sequence,4_87,2023-05-02T02:29:31.293Z,,0,,,3170.7490000003017,completion,,,,,false,,,,365139.2000000002,365138.3000000003,361951.158,361962.8000000003,361967.551,365150.412,8,400,,,
trial,html.Screen,4_88_0,2023-05-02T02:29:35.476Z,,0,2,,4172.688000000082,response,ISIC_2287151.JPG,,ISIC_0030592.JPG,ISIC_2287151.JPG,false,1,keypress(m),500,369323.3000000003,369323.1000000001,365133.762,365139.6000000001,365150.412,369333.026,8,400,39,,ISIC_0030592.JPG
break,html.Screen,4_88_1,2023-05-02T02:29:35.477Z,,0,,,NaN,,,,,,false,,,,369324.8000000003,369324.5,,369323.7000000002,,369333.026,8,400,,,
break_continue,html.Screen,4_88_2,2023-05-02T02:29:35.478Z,,0,,,NaN,,,,,,false,,,,369325.2000000002,369325.1000000001,,369325,,369333.026,8,400,,,
sequence,flow.Sequence,4_88,2023-05-02T02:29:35.478Z,,0,,,4174.688000000082,completion,,,,,false,,,,369325.3999999999,369325.1000000001,365133.762,365139.3999999999,365150.412,369333.026,8,400,,,
trial,html.Screen,4_89_0,2023-05-02T02:29:40.930Z,,0,2,,5433.373999999894,response,ISIC_2945891.JPG,,ISIC_0062639.JPG,ISIC_0062639.JPG,false,0,keypress(z),500,374766.8000000003,374766.3999999999,369316.614,369325.6000000001,369333.026,374782.27,8,400,40,,ISIC_2945891.JPG
break,html.Screen,4_89_1,2023-05-02T02:29:40.932Z,,0,,,NaN,,,,,,false,,,,374768.3999999999,374767.8999999999,,374767.1000000001,,374782.27,8,400,,,
break_continue,html.Screen,4_89_2,2023-05-02T02:29:40.932Z,,0,,,NaN,,,,,,false,,,,374768.8000000003,374768.7000000002,,374768.5,,374782.27,8,400,,,
sequence,flow.Sequence,4_89,2023-05-02T02:29:40.933Z,,0,,,5435.674000000174,completion,,,,,false,,,,374769,374768.7000000002,369316.614,369325.5,369333.026,374782.27,8,400,,,
trial,html.Screen,4_90_0,2023-05-02T02:29:43.967Z,,0,2,,3021.1299999998882,response,ISIC_9280171.JPG,,ISIC_6052860.JPG,ISIC_6052860.JPG,false,0,keypress(z),500,377803.8000000003,377803.3999999999,374765.691,374769.1000000001,374782.27,377815.381,8,400,41,,ISIC_9280171.JPG
break,html.Screen,4_90_1,2023-05-02T02:29:43.968Z,,0,,,NaN,,,,,,false,,,,377805.2000000002,377804.8999999999,,377804,,377815.381,8,400,,,
break_continue,html.Screen,4_90_2,2023-05-02T02:29:43.968Z,,0,,,NaN,,,,,,false,,,,377805.5,377805.3999999999,,377805.3000000003,,377815.381,8,400,,,
sequence,flow.Sequence,4_90,2023-05-02T02:29:43.969Z,,0,,,3023.1299999998882,completion,,,,,false,,,,377805.7000000002,377805.3999999999,374765.691,374769,374782.27,377815.381,8,400,,,
trial,html.Screen,4_91_0,2023-05-02T02:29:49.513Z,,0,2,,5539.619000000006,response,ISIC_9668514.JPG,,ISIC_0071707.JPG,ISIC_0071707.JPG,false,0,keypress(z),500,383355.3000000003,383355,377798.661,377805.8000000003,377815.381,383364.221,8,400,42,,ISIC_9668514.JPG
break,html.Screen,4_91_1,2023-05-02T02:29:49.515Z,,0,,,NaN,,,,,,false,,,,383356.6000000001,383356.5,,383355.5,,383364.221,8,400,,,
break_continue,html.Screen,4_91_2,2023-05-02T02:29:49.515Z,,0,,,NaN,,,,,,false,,,,383357,383356.8000000003,,383356.8000000003,,383364.221,8,400,,,
sequence,flow.Sequence,4_91,2023-05-02T02:29:49.515Z,,0,,,5541.419000000285,completion,,,,,false,,,,383357.1000000001,383356.8000000003,377798.661,377805.7000000002,377815.381,383364.221,8,400,,,
trial,html.Screen,4_92_0,2023-05-02T02:29:53.503Z,,0,2,,3972.4790000001667,response,ISIC_0595080.JPG,,ISIC_0032783.JPG,ISIC_0032783.JPG,false,0,keypress(z),500,387337,387336.7000000002,383347.564,383357.3000000003,383364.221,387346.819,8,400,43,,ISIC_0595080.JPG
break,html.Screen,4_92_1,2023-05-02T02:29:53.505Z,,0,,,NaN,,,,,,false,,,,387338.2000000002,387338,,387337.2000000002,,387346.819,8,400,,,
break_continue,html.Screen,4_92_2,2023-05-02T02:29:53.505Z,,0,,,NaN,,,,,,false,,,,387338.5,387338.5,,387338.3999999999,,387346.819,8,400,,,
sequence,flow.Sequence,4_92,2023-05-02T02:29:53.505Z,,0,,,3974.2789999999804,completion,,,,,false,,,,387338.7000000002,387338.5,383347.564,383357.1000000001,383364.221,387346.819,8,400,,,
trial,html.Screen,4_93_0,2023-05-02T02:29:57.304Z,,0,2,,3803.2810000000754,response,ISIC_0033068.JPG,,ISIC_1851605.JPG,ISIC_0033068.JPG,false,1,keypress(m),500,391150.3999999999,391150.1000000001,387330.534,387338.8000000003,387346.819,391163.221,8,400,44,,ISIC_1851605.JPG
break,html.Screen,4_93_1,2023-05-02T02:29:57.305Z,,0,,,NaN,,,,,,false,,,,391151.2000000002,391151.1000000001,,391150.6000000001,,391163.221,8,400,,,
break_continue,html.Screen,4_93_2,2023-05-02T02:29:57.306Z,,0,,,NaN,,,,,,false,,,,391151.7000000002,391151.6000000001,,391151.5,,391163.221,8,400,,,
sequence,flow.Sequence,4_93,2023-05-02T02:29:57.306Z,,0,,,3804.7810000000754,completion,,,,,false,,,,391151.8999999999,391151.6000000001,387330.534,387338.7000000002,387346.819,391163.221,8,400,,,
trial,html.Screen,4_94_0,2023-05-02T02:30:00.135Z,,0,2,,2804.7789999999804,response,ISIC_2167209.JPG,,ISIC_7262685.JPG,ISIC_7262685.JPG,false,0,keypress(z),500,393968.3000000003,393968,391146.517,391152,391163.221,393979.531,8,400,45,,ISIC_2167209.JPG
break,html.Screen,4_94_1,2023-05-02T02:30:00.136Z,,0,,,NaN,,,,,,false,,,,393969.3999999999,393969.3000000003,,393968.3999999999,,393979.531,8,400,,,
break_continue,html.Screen,4_94_2,2023-05-02T02:30:00.136Z,,0,,,NaN,,,,,,false,,,,393969.8000000003,393969.7000000002,,393969.6000000001,,393979.531,8,400,,,
sequence,flow.Sequence,4_94,2023-05-02T02:30:00.136Z,,0,,,2806.4790000001667,completion,,,,,false,,,,393969.8999999999,393969.7000000002,391146.517,391152,391163.221,393979.531,8,400,,,
trial,html.Screen,4_95_0,2023-05-02T02:30:03.461Z,,0,2,,3315.069000000076,response,ISIC_4407580.JPG,,ISIC_0029244.JPG,ISIC_4407580.JPG,false,1,keypress(m),500,397294.8000000003,397294.6000000001,393962.685,393970.1000000001,393979.531,397311.914,8,400,46,,ISIC_0029244.JPG
break,html.Screen,4_95_1,2023-05-02T02:30:03.462Z,,0,,,NaN,,,,,,false,,,,397296.1000000001,397295.8000000003,,397294.8999999999,,397311.914,8,400,,,
break_continue,html.Screen,4_95_2,2023-05-02T02:30:03.462Z,,0,,,NaN,,,,,,false,,,,397296.5,397296.3999999999,,397296.3000000003,,397311.914,8,400,,,
sequence,flow.Sequence,4_95,2023-05-02T02:30:03.462Z,,0,,,3316.8689999998896,completion,,,,,false,,,,397296.6000000001,397296.3999999999,393962.685,393969.8999999999,393979.531,397311.914,8,400,,,
trial,html.Screen,4_96_0,2023-05-02T02:30:06.095Z,,0,2,,2616.985999999917,response,ISIC_0063300.JPG,,ISIC_9486917.JPG,ISIC_0063300.JPG,false,1,keypress(m),500,399929.2000000002,399928.8999999999,397278.925,397296.7000000002,397311.914,399945.232,8,400,47,,ISIC_9486917.JPG
break,html.Screen,4_96_1,2023-05-02T02:30:06.096Z,,0,,,NaN,,,,,,false,,,,399930.5,399930.1000000001,,399929.5,,399945.232,8,400,,,
break_continue,html.Screen,4_96_2,2023-05-02T02:30:06.097Z,,0,,,NaN,,,,,,false,,,,399931.3000000003,399930.8999999999,,399930.7000000002,,399945.232,8,400,,,
sequence,flow.Sequence,4_96,2023-05-02T02:30:06.097Z,,0,,,2618.985999999917,completion,,,,,false,,,,399931.6000000001,399930.8999999999,397278.925,397296.7000000002,397311.914,399945.232,8,400,,,
trial,html.Screen,4_97_0,2023-05-02T02:30:08.845Z,,0,2,,2732.767999999982,response,ISIC_0033047.JPG,,ISIC_5298608.JPG,ISIC_5298608.JPG,false,0,keypress(z),500,402678.3000000003,402678,399928.357,399931.7000000002,399945.232,402694.721,8,400,48,,ISIC_0033047.JPG
break,html.Screen,4_97_1,2023-05-02T02:30:08.847Z,,0,,,NaN,,,,,,false,,,,402679.8999999999,402679.3000000003,,402678.7000000002,,402694.721,8,400,,,
break_continue,html.Screen,4_97_2,2023-05-02T02:30:08.847Z,,0,,,NaN,,,,,,false,,,,402680.3999999999,402680.1000000001,,402680.1000000001,,402694.721,8,400,,,
sequence,flow.Sequence,4_97,2023-05-02T02:30:08.847Z,,0,,,2734.868000000075,completion,,,,,false,,,,402680.5,402680.1000000001,399928.357,399931.7000000002,399945.232,402694.721,8,400,,,
trial,html.Screen,4_98_0,2023-05-02T02:30:11.238Z,,0,2,,2376.6789999998873,response,ISIC_8504479.JPG,,ISIC_0061252.JPG,ISIC_8504479.JPG,false,1,keypress(m),500,405071.6000000001,405071.3999999999,402678.057,402680.6000000001,402694.721,405077.452,8,400,49,,ISIC_0061252.JPG
break,html.Screen,4_98_1,2023-05-02T02:30:11.239Z,,0,,,NaN,,,,,,false,,,,405072,405071.8999999999,,405071.7000000002,,405077.452,8,400,,,
break_continue,html.Screen,4_98_2,2023-05-02T02:30:11.239Z,,0,,,NaN,,,,,,false,,,,405072.3000000003,405072.3000000003,,405072.1000000001,,405077.452,8,400,,,
sequence,flow.Sequence,4_98,2023-05-02T02:30:11.239Z,,0,,,2377.57900000026,completion,,,,,false,,,,405072.3999999999,405072.3000000003,402678.057,402680.6000000001,402694.721,405077.452,8,400,,,
trial,html.Screen,4_99_0,2023-05-02T02:30:13.572Z,,0,2,,2342.748000000196,response,ISIC_0922552.JPG,,ISIC_0061705.JPG,ISIC_0061705.JPG,false,0,keypress(z),500,407420.5,407420.2000000002,405060.726,405072.3999999999,405077.452,407426.934,8,400,50,,ISIC_0922552.JPG
break,html.Screen,4_99_1,2023-05-02T02:30:18.564Z,,0,,,4999.627999999968,timeout,,,,,false,,,,412411.7000000002,412409.846,407410.339,407420.7000000002,407426.934,412426.562,8,400,,,
break_continue,html.Screen,4_99_2,2023-05-02T02:30:25.521Z,,0,,,6924.438000000024,response,,,,,false,continue,keypress(Space),,419369.3999999999,419351,412409.846,412411.8999999999,412426.562,419375.113,8,400,,,
sequence,flow.Sequence,4_99,2023-05-02T02:30:25.522Z,,0,,,14273.54800000001,completion,,,,,false,,,,419369.5,419351,405060.726,405072.3999999999,405077.452,419375.113,8,400,,,
trial,html.Screen,4_100_0,2023-05-02T02:30:28.313Z,,0,3,,2777.386999999988,response,ISIC_7648726.JPG,,ISIC_0378399.JPG,ISIC_0378399.JPG,false,0,keypress(z),500,422152.8000000003,422152.5,419359.089,419369.6000000001,419375.113,422157.977,8,400,1,,ISIC_7648726.JPG
break,html.Screen,4_100_1,2023-05-02T02:30:28.315Z,,0,,,NaN,,,,,,false,,,,422154,422153.7000000002,,422152.8999999999,,422157.977,8,400,,,
break_continue,html.Screen,4_100_2,2023-05-02T02:30:28.315Z,,0,,,NaN,,,,,,false,,,,422154.3999999999,422154.3000000003,,422154.1000000001,,422157.977,8,400,,,
sequence,flow.Sequence,4_100,2023-05-02T02:30:28.315Z,,0,,,2779.1870000002673,completion,,,,,false,,,,422154.6000000001,422154.3000000003,419359.089,419369.6000000001,419375.113,422157.977,8,400,,,
trial,html.Screen,4_101_0,2023-05-02T02:30:30.833Z,,0,3,,2516.323000000266,response,ISIC_0024686.JPG,,ISIC_4964478.JPG,ISIC_0024686.JPG,false,1,keypress(m),500,424675,424674.3000000003,422141.534,422154.7000000002,422157.977,424691.206,8,400,2,,ISIC_4964478.JPG
break,html.Screen,4_101_1,2023-05-02T02:30:30.835Z,,0,,,NaN,,,,,,false,,,,424676.7000000002,424676.5,,424675.5,,424691.206,8,400,,,
break_continue,html.Screen,4_101_2,2023-05-02T02:30:30.836Z,,0,,,NaN,,,,,,false,,,,424677.8000000003,424677.3000000003,,424677,,424691.206,8,400,,,
sequence,flow.Sequence,4_101,2023-05-02T02:30:30.836Z,,0,,,2519.323000000266,completion,,,,,false,,,,424678.3000000003,424677.3000000003,422141.534,422154.7000000002,422157.977,424691.206,8,400,,,
trial,html.Screen,4_102_0,2023-05-02T02:30:35.169Z,,0,3,,4322.793999999994,response,ISIC_0026759.JPG,,ISIC_0026498.JPG,ISIC_0026498.JPG,false,0,keypress(z),500,429014.3999999999,429014,424674.652,424678.7000000002,424691.206,429023.807,8,400,3,,ISIC_0026759.JPG
break,html.Screen,4_102_1,2023-05-02T02:30:35.170Z,,0,,,NaN,,,,,,false,,,,429015.3999999999,429015.2000000002,,429014.6000000001,,429023.807,8,400,,,
break_continue,html.Screen,4_102_2,2023-05-02T02:30:35.170Z,,0,,,NaN,,,,,,false,,,,429016,429015.8000000003,,429015.7000000002,,429023.807,8,400,,,
sequence,flow.Sequence,4_102,2023-05-02T02:30:35.170Z,,0,,,4324.594000000274,completion,,,,,false,,,,429016.1000000001,429015.8000000003,424674.652,424678.5,424691.206,429023.807,8,400,,,
trial,html.Screen,4_103_0,2023-05-02T02:30:38.371Z,,0,3,,3193.6930000000284,response,ISIC_5385528.JPG,,ISIC_6037869.JPG,ISIC_5385528.JPG,false,1,keypress(m),500,432217.7000000002,432217.5,429006.889,429016.2000000002,429023.807,432223.142,8,400,4,,ISIC_6037869.JPG
break,html.Screen,4_103_1,2023-05-02T02:30:38.372Z,,0,,,NaN,,,,,,false,,,,432218.8999999999,432218.7000000002,,432217.8999999999,,432223.142,8,400,,,
break_continue,html.Screen,4_103_2,2023-05-02T02:30:38.372Z,,0,,,NaN,,,,,,false,,,,432219.2000000002,432219.1000000001,,432219,,432223.142,8,400,,,
sequence,flow.Sequence,4_103,2023-05-02T02:30:38.372Z,,0,,,3195.2930000001215,completion,,,,,false,,,,432219.3999999999,432219.1000000001,429006.889,429016.2000000002,429023.807,432223.142,8,400,,,
trial,html.Screen,4_104_0,2023-05-02T02:30:41.877Z,,0,3,,3500.158000000287,response,ISIC_0026089.JPG,,ISIC_9291926.JPG,ISIC_0026089.JPG,false,1,keypress(m),500,435723.7000000002,435723.3000000003,432206.79,432219.3999999999,432223.142,435739.156,8,400,5,,ISIC_9291926.JPG
break,html.Screen,4_104_1,2023-05-02T02:30:41.878Z,,0,,,NaN,,,,,,false,,,,435725.1000000001,435724.8999999999,,435724.1000000001,,435739.156,8,400,,,
break_continue,html.Screen,4_104_2,2023-05-02T02:30:41.879Z,,0,,,NaN,,,,,,false,,,,435725.6000000001,435725.3000000003,,435725.2000000002,,435739.156,8,400,,,
sequence,flow.Sequence,4_104,2023-05-02T02:30:41.879Z,,0,,,3502.158000000287,completion,,,,,false,,,,435725.7000000002,435725.3000000003,432206.79,432219.3999999999,432223.142,435739.156,8,400,,,
trial,html.Screen,4_105_0,2023-05-02T02:30:45.401Z,,0,3,,3506.544000000169,response,ISIC_2320481.JPG,,ISIC_0069633.JPG,ISIC_2320481.JPG,false,1,keypress(m),500,439246,439245.7000000002,435722.635,435726,435739.156,439255.458,8,400,6,,ISIC_0069633.JPG
break,html.Screen,4_105_1,2023-05-02T02:30:45.403Z,,0,,,NaN,,,,,,false,,,,439247.1000000001,439247,,439246.2000000002,,439255.458,8,400,,,
break_continue,html.Screen,4_105_2,2023-05-02T02:30:45.403Z,,0,,,NaN,,,,,,false,,,,439247.5,439247.3999999999,,439247.2000000002,,439255.458,8,400,,,
sequence,flow.Sequence,4_105,2023-05-02T02:30:45.403Z,,0,,,3508.2439999998896,completion,,,,,false,,,,439247.6000000001,439247.3999999999,435722.635,435725.8999999999,435739.156,439255.458,8,400,,,
trial,html.Screen,4_106_0,2023-05-02T02:30:48.608Z,,0,3,,3188.8420000002952,response,ISIC_0011484.JPG,,ISIC_7806612.JPG,ISIC_0011484.JPG,false,1,keypress(m),500,442444.6000000001,442444.3000000003,439239.058,439247.7000000002,439255.458,442455.126,8,400,7,,ISIC_7806612.JPG
break,html.Screen,4_106_1,2023-05-02T02:30:48.609Z,,0,,,NaN,,,,,,false,,,,442445.8999999999,442445.7000000002,,442444.8000000003,,442455.126,8,400,,,
break_continue,html.Screen,4_106_2,2023-05-02T02:30:48.610Z,,0,,,NaN,,,,,,false,,,,442446.3000000003,442446.2000000002,,442446.1000000001,,442455.126,8,400,,,
sequence,flow.Sequence,4_106,2023-05-02T02:30:48.610Z,,0,,,3190.742000000202,completion,,,,,false,,,,442446.5,442446.2000000002,439239.058,439247.7000000002,439255.458,442455.126,8,400,,,
trial,html.Screen,4_107_0,2023-05-02T02:30:51.627Z,,0,3,,3005.574000000197,response,ISIC_9259989.JPG,,ISIC_4236274.JPG,ISIC_4236274.JPG,false,0,keypress(z),500,445461,445460.7000000002,442438.585,442446.5,442455.126,445471.085,8,400,8,,ISIC_9259989.JPG
break,html.Screen,4_107_1,2023-05-02T02:30:51.628Z,,0,,,NaN,,,,,,false,,,,445461.8000000003,445461.5,,445461.1000000001,,445471.085,8,400,,,
break_continue,html.Screen,4_107_2,2023-05-02T02:30:51.628Z,,0,,,NaN,,,,,,false,,,,445462.3000000003,445462.1000000001,,445462,,445471.085,8,400,,,
sequence,flow.Sequence,4_107,2023-05-02T02:30:51.628Z,,0,,,3006.974000000104,completion,,,,,false,,,,445462.5,445462.1000000001,442438.585,442446.5,442455.126,445471.085,8,400,,,
trial,html.Screen,4_108_0,2023-05-02T02:30:55.843Z,,0,3,,4206.414999999979,response,ISIC_0034059.JPG,,ISIC_4307205.JPG,ISIC_0034059.JPG,false,1,keypress(m),500,449677.6000000001,449677.5,445454.741,445462.7000000002,445471.085,449687.153,8,400,9,,ISIC_4307205.JPG
break,html.Screen,4_108_1,2023-05-02T02:30:55.844Z,,0,,,NaN,,,,,,false,,,,449678.1000000001,449678,,449677.7000000002,,449687.153,8,400,,,
break_continue,html.Screen,4_108_2,2023-05-02T02:30:55.844Z,,0,,,NaN,,,,,,false,,,,449678.3000000003,449678.2000000002,,449678.2000000002,,449687.153,8,400,,,
sequence,flow.Sequence,4_108,2023-05-02T02:30:55.844Z,,0,,,4207.115000000165,completion,,,,,false,,,,449678.3999999999,449678.2000000002,445454.741,445462.7000000002,445471.085,449687.153,8,400,,,
trial,html.Screen,4_109_0,2023-05-02T02:31:00.377Z,,0,3,,4526.647000000288,response,ISIC_0029815.JPG,,ISIC_3963183.JPG,ISIC_0029815.JPG,false,1,keypress(m),500,454214,454213.8000000003,449670.438,449678.5,449687.153,454219.595,8,400,10,,ISIC_3963183.JPG
break,html.Screen,4_109_1,2023-05-02T02:31:00.378Z,,0,,,NaN,,,,,,false,,,,454215.2000000002,454214.7000000002,,454214.2000000002,,454219.595,8,400,,,
break_continue,html.Screen,4_109_2,2023-05-02T02:31:00.379Z,,0,,,NaN,,,,,,false,,,,454215.5,454215.3999999999,,454215.3000000003,,454219.595,8,400,,,
sequence,flow.Sequence,4_109,2023-05-02T02:31:00.379Z,,0,,,4528.246999999916,completion,,,,,false,,,,454215.7000000002,454215.3999999999,449670.438,449678.3999999999,449687.153,454219.595,8,400,,,
trial,html.Screen,4_110_0,2023-05-02T02:31:05.145Z,,0,3,,4758.405000000028,response,ISIC_7592920.JPG,,ISIC_6844752.JPG,ISIC_7592920.JPG,false,1,keypress(m),500,458978.1000000001,458978,454203.654,454215.8000000003,454219.595,458985.703,8,400,11,,ISIC_6844752.JPG
break,html.Screen,4_110_1,2023-05-02T02:31:05.146Z,,0,,,NaN,,,,,,false,,,,458979,458978.6000000001,,458978.2000000002,,458985.703,8,400,,,
break_continue,html.Screen,4_110_2,2023-05-02T02:31:05.146Z,,0,,,NaN,,,,,,false,,,,458979.3000000003,458979.2000000002,,458979.1000000001,,458985.703,8,400,,,
sequence,flow.Sequence,4_110,2023-05-02T02:31:05.146Z,,0,,,4759.605000000214,completion,,,,,false,,,,458979.3999999999,458979.2000000002,454203.654,454215.7000000002,454219.595,458985.703,8,400,,,
trial,html.Screen,4_111_0,2023-05-02T02:31:10.371Z,,0,3,,5225.497000000207,response,ISIC_7755875.JPG,,ISIC_6779421.JPG,ISIC_7755875.JPG,false,1,keypress(m),500,464211.3999999999,464211.2000000002,458968.715,458979.5,458985.703,464218.009,8,400,12,,ISIC_6779421.JPG
break,html.Screen,4_111_1,2023-05-02T02:31:10.372Z,,0,,,NaN,,,,,,false,,,,464212.7000000002,464212.5,,464211.5,,464218.009,8,400,,,
break_continue,html.Screen,4_111_2,2023-05-02T02:31:10.372Z,,0,,,NaN,,,,,,false,,,,464213.1000000001,464213,,464212.8999999999,,464218.009,8,400,,,
sequence,flow.Sequence,4_111,2023-05-02T02:31:10.372Z,,0,,,5227.2970000000205,completion,,,,,false,,,,464213.2000000002,464213,458968.715,458979.5,458985.703,464218.009,8,400,,,
trial,html.Screen,4_112_0,2023-05-02T02:31:13.362Z,,0,3,,2977.6910000001662,response,ISIC_0056192.JPG,,ISIC_2658858.JPG,ISIC_0056192.JPG,false,1,keypress(m),500,467195.8999999999,467195.7000000002,464201.705,464213.3000000003,464218.009,467200.914,8,400,13,,ISIC_2658858.JPG
break,html.Screen,4_112_1,2023-05-02T02:31:13.363Z,,0,,,NaN,,,,,,false,,,,467197.2000000002,467197,,467196.1000000001,,467200.914,8,400,,,
break_continue,html.Screen,4_112_2,2023-05-02T02:31:13.364Z,,0,,,NaN,,,,,,false,,,,467197.5,467197.3999999999,,467197.3000000003,,467200.914,8,400,,,
sequence,flow.Sequence,4_112,2023-05-02T02:31:13.364Z,,0,,,2979.390999999887,completion,,,,,false,,,,467197.6000000001,467197.3999999999,464201.705,464213.2000000002,464218.009,467200.914,8,400,,,
trial,html.Screen,4_113_0,2023-05-02T02:31:16.840Z,,0,3,,3478.3860000002896,response,ISIC_0046596.JPG,,ISIC_8635853.JPG,ISIC_8635853.JPG,false,0,keypress(z),500,470679.6000000001,470679.3000000003,467184.443,467197.8000000003,467200.914,470683.972,8,400,14,,ISIC_0046596.JPG
break,html.Screen,4_113_1,2023-05-02T02:31:16.841Z,,0,,,NaN,,,,,,false,,,,470680.7000000002,470680.3000000003,,470679.8000000003,,470683.972,8,400,,,
break_continue,html.Screen,4_113_2,2023-05-02T02:31:16.841Z,,0,,,NaN,,,,,,false,,,,470681,470680.8999999999,,470680.8999999999,,470683.972,8,400,,,
sequence,flow.Sequence,4_113,2023-05-02T02:31:16.841Z,,0,,,3479.985999999917,completion,,,,,false,,,,470681.2000000002,470680.8999999999,467184.443,467197.7000000002,467200.914,470683.972,8,400,,,
trial,html.Screen,4_114_0,2023-05-02T02:31:21.032Z,,0,3,,4181.828000000271,response,ISIC_2768787.JPG,,ISIC_7837503.JPG,ISIC_2768787.JPG,false,1,keypress(m),500,474866,474865.8000000003,470667.291,470681.3000000003,470683.972,474883.339,8,400,15,,ISIC_7837503.JPG
break,html.Screen,4_114_1,2023-05-02T02:31:21.033Z,,0,,,NaN,,,,,,false,,,,474866.8000000003,474866.3000000003,,474866.1000000001,,474883.339,8,400,,,
break_continue,html.Screen,4_114_2,2023-05-02T02:31:21.033Z,,0,,,NaN,,,,,,false,,,,474867.3999999999,474867.2000000002,,474867.1000000001,,474883.339,8,400,,,
sequence,flow.Sequence,4_114,2023-05-02T02:31:21.033Z,,0,,,4183.228000000177,completion,,,,,false,,,,474867.6000000001,474867.2000000002,470667.291,470681.2000000002,470683.972,474883.339,8,400,,,
trial,html.Screen,4_115_0,2023-05-02T02:31:25.277Z,,0,3,,4236.060999999929,response,ISIC_1178518.JPG,,ISIC_0065597.JPG,ISIC_0065597.JPG,false,0,keypress(z),500,479119.8000000003,479119.3999999999,474866.473,474867.7000000002,474883.339,479132.67,8,400,16,,ISIC_1178518.JPG
break,html.Screen,4_115_1,2023-05-02T02:31:25.278Z,,0,,,NaN,,,,,,false,,,,479121,479120.8999999999,,479120,,479132.67,8,400,,,
break_continue,html.Screen,4_115_2,2023-05-02T02:31:25.279Z,,0,,,NaN,,,,,,false,,,,479121.3999999999,479121.2000000002,,479121.2000000002,,479132.67,8,400,,,
sequence,flow.Sequence,4_115,2023-05-02T02:31:25.279Z,,0,,,4237.861000000208,completion,,,,,false,,,,479121.3999999999,479121.2000000002,474866.473,474867.7000000002,474883.339,479132.67,8,400,,,
trial,html.Screen,4_116_0,2023-05-02T02:31:30.379Z,,0,3,,5080.030000000203,response,ISIC_0065039.JPG,,ISIC_4601527.JPG,ISIC_4601527.JPG,false,0,keypress(z),500,484212.8000000003,484212.7000000002,479115.659,479121.6000000001,479132.67,484214.852,8,400,17,,ISIC_0065039.JPG
break,html.Screen,4_116_1,2023-05-02T02:31:30.379Z,,0,,,NaN,,,,,,false,,,,484213.1000000001,484213,,484212.8999999999,,484214.852,8,400,,,
break_continue,html.Screen,4_116_2,2023-05-02T02:31:30.379Z,,0,,,NaN,,,,,,false,,,,484213.2000000002,484213.2000000002,,484213.2000000002,,484214.852,8,400,,,
sequence,flow.Sequence,4_116,2023-05-02T02:31:30.379Z,,0,,,5080.530000000203,completion,,,,,false,,,,484213.3000000003,484213.2000000002,479115.659,479121.6000000001,479132.67,484214.852,8,400,,,
trial,html.Screen,4_117_0,2023-05-02T02:31:35.588Z,,0,3,,5206.24800000008,response,ISIC_0024421.JPG,,ISIC_3760796.JPG,ISIC_0024421.JPG,false,1,keypress(m),500,489421.3000000003,489421.1000000001,484198.78,484213.3999999999,484214.852,489430.717,8,400,18,,ISIC_3760796.JPG
break,html.Screen,4_117_1,2023-05-02T02:31:35.588Z,,0,,,NaN,,,,,,false,,,,489421.8999999999,489421.8000000003,,489421.3999999999,,489430.717,8,400,,,
break_continue,html.Screen,4_117_2,2023-05-02T02:31:35.589Z,,0,,,NaN,,,,,,false,,,,489422.2000000002,489422,,489422,,489430.717,8,400,,,
sequence,flow.Sequence,4_117,2023-05-02T02:31:35.589Z,,0,,,5207.1479999999865,completion,,,,,false,,,,489422.2000000002,489422,484198.78,484213.3999999999,484214.852,489430.717,8,400,,,
trial,html.Screen,4_118_0,2023-05-02T02:31:47.078Z,,0,3,,11515.045999999973,timeout,ISIC_4062017.JPG,,ISIC_0061625.JPG,,false,,,500,500913.2000000002,500912.8999999999,489414.079,489422.3000000003,489430.717,500945.763,8,400,19,,
break,html.Screen,4_118_1,2023-05-02T02:31:47.078Z,,0,,,NaN,,,,,,false,,,,500914.1000000001,500913.8999999999,,500913.5,,500945.763,8,400,,,
break_continue,html.Screen,4_118_2,2023-05-02T02:31:47.079Z,,0,,,NaN,,,,,,false,,,,500914.5,500914.3999999999,,500914.3000000003,,500945.763,8,400,,,
sequence,flow.Sequence,4_118,2023-05-02T02:31:47.079Z,,0,,,11483.682999999903,completion,,,,,false,,,,500914.6000000001,500914.3999999999,489414.079,489422.3000000003,489430.717,500945.763,8,400,,,
trial,html.Screen,4_119_0,2023-05-02T02:31:50.845Z,,0,3,,3736.437000000209,response,ISIC_8960223.JPG,,ISIC_7364041.JPG,ISIC_8960223.JPG,false,1,keypress(m),500,504682.5,504682.2000000002,500928.991,500914.8000000003,500945.763,504695.06,8,400,20,,ISIC_7364041.JPG
break,html.Screen,4_119_1,2023-05-02T02:31:50.846Z,,0,,,NaN,,,,,,false,,,,504684,504683.6000000001,,504682.8000000003,,504695.06,8,400,,,
break_continue,html.Screen,4_119_2,2023-05-02T02:31:50.847Z,,0,,,NaN,,,,,,false,,,,504684.3999999999,504684.3000000003,,504684.1000000001,,504695.06,8,400,,,
sequence,flow.Sequence,4_119,2023-05-02T02:31:50.847Z,,0,,,3738.537000000302,completion,,,,,false,,,,504684.5,504684.3000000003,500928.991,500914.7000000002,500945.763,504695.06,8,400,,,
trial,html.Screen,4_120_0,2023-05-02T02:31:53.933Z,,0,3,,3076.7400000002817,response,ISIC_0026369.JPG,,ISIC_0029574.JPG,ISIC_0029574.JPG,false,0,keypress(z),500,507772.2000000002,507771.8000000003,504678.713,504684.6000000001,504695.06,507777.906,8,400,21,,ISIC_0026369.JPG
break,html.Screen,4_120_1,2023-05-02T02:31:53.934Z,,0,,,NaN,,,,,,false,,,,507772.8999999999,507772.8000000003,,507772.3999999999,,507777.906,8,400,,,
break_continue,html.Screen,4_120_2,2023-05-02T02:31:53.934Z,,0,,,NaN,,,,,,false,,,,507773.1000000001,507773.1000000001,,507773,,507777.906,8,400,,,
sequence,flow.Sequence,4_120,2023-05-02T02:31:53.934Z,,0,,,3078.0400000000955,completion,,,,,false,,,,507773.2000000002,507773.1000000001,504678.713,504684.6000000001,504695.06,507777.906,8,400,,,
trial,html.Screen,4_121_0,2023-05-02T02:31:56.590Z,,0,3,,2645.294000000169,response,ISIC_9934037.JPG,,ISIC_7010552.JPG,ISIC_9934037.JPG,false,1,keypress(m),500,510423.3999999999,510423.2000000002,507761.175,507773.3999999999,507777.906,510427.42,8,400,22,,ISIC_7010552.JPG
break,html.Screen,4_121_1,2023-05-02T02:31:56.590Z,,0,,,NaN,,,,,,false,,,,510424.2000000002,510423.8999999999,,510423.6000000001,,510427.42,8,400,,,
break_continue,html.Screen,4_121_2,2023-05-02T02:31:56.591Z,,0,,,NaN,,,,,,false,,,,510424.7000000002,510424.5,,510424.3000000003,,510427.42,8,400,,,
sequence,flow.Sequence,4_121,2023-05-02T02:31:56.591Z,,0,,,2646.5939999999828,completion,,,,,false,,,,510424.8000000003,510424.5,507761.175,507773.3000000003,507777.906,510427.42,8,400,,,
trial,html.Screen,4_122_0,2023-05-02T02:31:59.335Z,,0,3,,2741.1800000001094,response,ISIC_0027113.JPG,,ISIC_7206167.JPG,ISIC_0027113.JPG,false,1,keypress(m),500,513168.8000000003,513168.6000000001,510410.958,510424.8000000003,510427.42,513176.927,8,400,23,,ISIC_7206167.JPG
break,html.Screen,4_122_1,2023-05-02T02:31:59.336Z,,0,,,NaN,,,,,,false,,,,513169.6000000001,513169.3000000003,,513169,,513176.927,8,400,,,
break_continue,html.Screen,4_122_2,2023-05-02T02:31:59.337Z,,0,,,NaN,,,,,,false,,,,513170.2000000002,513170,,513169.7000000002,,513176.927,8,400,,,
sequence,flow.Sequence,4_122,2023-05-02T02:31:59.337Z,,0,,,2742.5800000000163,completion,,,,,false,,,,513170.3000000003,513170,510410.958,510424.8000000003,510427.42,513176.927,8,400,,,
trial,html.Screen,4_123_0,2023-05-02T02:32:02.137Z,,0,3,,2797.572999999975,response,ISIC_0028520.JPG,,ISIC_5813642.JPG,ISIC_0028520.JPG,false,1,keypress(m),500,515974.8000000003,515974.5,513160.216,513170.5,513176.927,516005.791,8,400,24,,ISIC_5813642.JPG
break,html.Screen,4_123_1,2023-05-02T02:32:02.138Z,,0,,,NaN,,,,,,false,,,,515976.1000000001,515975.8000000003,,515975,,516005.791,8,400,,,
break_continue,html.Screen,4_123_2,2023-05-02T02:32:02.139Z,,0,,,NaN,,,,,,false,,,,515976.3999999999,515976.3000000003,,515976.2000000002,,516005.791,8,400,,,
sequence,flow.Sequence,4_123,2023-05-02T02:32:02.139Z,,0,,,2799.3730000002543,completion,,,,,false,,,,515976.7000000002,515976.3000000003,513160.216,513170.3999999999,513176.927,516005.791,8,400,,,
trial,html.Screen,4_124_0,2023-05-02T02:32:04.932Z,,0,3,,2774.009000000253,response,ISIC_0054914.JPG,,ISIC_0009913.JPG,ISIC_0054914.JPG,false,1,keypress(m),500,518780.2000000002,518779.8000000003,515960.146,515976.8000000003,516005.791,518793.134,8,400,25,,ISIC_0009913.JPG
break,html.Screen,4_124_1,2023-05-02T02:32:04.933Z,,0,,,NaN,,,,,,false,,,,518781.6000000001,518781.1000000001,,518780.5,,518793.134,8,400,,,
break_continue,html.Screen,4_124_2,2023-05-02T02:32:04.934Z,,0,,,NaN,,,,,,false,,,,518781.8999999999,518781.8000000003,,518781.7000000002,,518793.134,8,400,,,
sequence,flow.Sequence,4_124,2023-05-02T02:32:04.934Z,,0,,,2776.009000000253,completion,,,,,false,,,,518782.1000000001,518781.8000000003,515960.146,515976.8000000003,516005.791,518793.134,8,400,,,
trial,html.Screen,4_125_0,2023-05-02T02:32:07.671Z,,0,3,,2718.1660000002594,response,ISIC_2299749.JPG,,ISIC_8033373.JPG,ISIC_2299749.JPG,false,1,keypress(m),500,521511.3999999999,521511.3000000003,518776.451,518782.2000000002,518793.134,521526.006,8,400,26,,ISIC_8033373.JPG
break,html.Screen,4_125_1,2023-05-02T02:32:07.672Z,,0,,,NaN,,,,,,false,,,,521511.8999999999,521511.8000000003,,521511.5,,521526.006,8,400,,,
break_continue,html.Screen,4_125_2,2023-05-02T02:32:07.672Z,,0,,,NaN,,,,,,false,,,,521512.2000000002,521512.1000000001,,521512,,521526.006,8,400,,,
sequence,flow.Sequence,4_125,2023-05-02T02:32:07.672Z,,0,,,2718.966000000073,completion,,,,,false,,,,521512.2000000002,521512.1000000001,518776.451,518782.2000000002,518793.134,521526.006,8,400,,,
trial,html.Screen,4_126_0,2023-05-02T02:32:09.967Z,,0,3,,2280.594000000099,response,ISIC_3509838.JPG,,ISIC_0001126.JPG,ISIC_0001126.JPG,false,0,keypress(z),500,523806.8000000003,523806.6000000001,521509.227,521512.3000000003,521526.006,523808.643,8,400,27,,ISIC_3509838.JPG
break,html.Screen,4_126_1,2023-05-02T02:32:09.967Z,,0,,,NaN,,,,,,false,,,,523807.5,523807.3999999999,,523806.8999999999,,523808.643,8,400,,,
break_continue,html.Screen,4_126_2,2023-05-02T02:32:09.968Z,,0,,,NaN,,,,,,false,,,,523807.8999999999,523807.8000000003,,523807.7000000002,,523808.643,8,400,,,
sequence,flow.Sequence,4_126,2023-05-02T02:32:09.968Z,,0,,,2281.7940000002855,completion,,,,,false,,,,523808,523807.8000000003,521509.227,521512.2000000002,521526.006,523808.643,8,400,,,
trial,html.Screen,4_127_0,2023-05-02T02:32:12.283Z,,0,3,,2314.256999999925,response,ISIC_0054941.JPG,,ISIC_0029982.JPG,ISIC_0054941.JPG,false,1,keypress(m),500,526123,526122.8999999999,523792.314,523808.1000000001,523808.643,526124.89,8,400,28,,ISIC_0029982.JPG
