sender,sender_type,sender_id,timestamp,meta,,blockNo,condition,duration,ended_on,img_left,img_reveal,img_right,loser,practice,response,response_action,selection_duration,time_commit,time_end,time_render,time_run,time_show,time_switch,total_blocks,total_trials,trialNo,url,winner
informed_consent,html.Screen,0,2023-11-01T16:59:34.824Z,"{""labjs_version"":""20.2.4"",""labjs_build"":{""flavor"":""production"",""commit"":""f5b4a49f956347addd546a832a3327688c2c0fef""},""location"":""https://run.pavlovia.org/MurrayBennett/melanoma-2afc/?participant=66480&platform=sona"",""userAgent"":""Mozilla/5.0 (Macintosh; Intel Mac OS X 10_15_7) AppleWebKit/537.36 (KHTML, like Gecko) Chrome/118.0.0.0 Safari/537.36"",""platform"":""MacIntel"",""language"":""en-US"",""locale"":""en-US"",""timeZone"":""America/Chicago"",""timezoneOffset"":300,""screen_width"":1366,""screen_height"":768,""scroll_width"":1366,""scroll_height"":599,""window_innerWidth"":1366,""window_innerHeight"":647,""devicePixelRatio"":1}",,,,119646.04500000001,response,,,,,,consent,click button,,130151.50000000006,130146.20000000001,5499.945,10488.200000000012,10500.155,130183.566,,,,"{""participant"":""66480"",""platform"":""sona""}",
Welcome,html.Screen,1,2023-11-01T16:59:37.043Z,,,,colourful,2184.733999999982,response,,,,,,continue,click button,,132370.7,132368.3,130150.234,130151.89999999997,130183.566,132383.478,,,,,
trial,html.Screen,2_0_0,2023-11-01T16:59:43.975Z,,0,0,,6918.522000000055,response,ISIC_0063388.JPG,,ISIC_0025593.JPG,ISIC_0063388.JPG,true,1,keypress(m),500,139302.3,139302.00000000006,132366.812,132371.10000000003,132383.478,139317.028,1,6,1,,ISIC_0025593.JPG
sequence,flow.Sequence,2_0,2023-11-01T16:59:43.976Z,,0,,,6918.522000000055,completion,,,,,true,,,,139302.8,139302.00000000006,132366.812,132371.00000000006,132383.478,139317.028,1,6,,,
trial,html.Screen,2_1_0,2023-11-01T16:59:50.732Z,,0,0,,6741.572000000044,response,ISIC_0028178.JPG,,ISIC_1309015.JPG,ISIC_1309015.JPG,true,0,keypress(z),500,146059.00000000006,146058.60000000003,139300.362,139303.00000000006,139317.028,146066.758,1,6,2,,ISIC_0028178.JPG
sequence,flow.Sequence,2_1,2023-11-01T16:59:50.732Z,,0,,,6741.572000000044,completion,,,,,true,,,,146059.3,146058.60000000003,139300.362,139303.00000000006,139317.028,146066.758,1,6,,,
trial,html.Screen,2_2_0,2023-11-01T17:00:00.834Z,,0,0,,10093.94200000001,response,ISIC_3314853.JPG,,ISIC_0031128.JPG,ISIC_3314853.JPG,true,1,keypress(m),500,156161.00000000006,156160.7,146050.092,146059.50000000006,146066.758,156166.843,1,6,3,,ISIC_0031128.JPG
sequence,flow.Sequence,2_2,2023-11-01T17:00:00.834Z,,0,,,10093.94200000001,completion,,,,,true,,,,156161.39999999997,156160.7,146050.092,146059.39999999997,146066.758,156166.843,1,6,,,
trial,html.Screen,2_3_0,2023-11-01T17:00:12.537Z,,0,0,,23733.619000000006,timeout,ISIC_0031612.JPG,,ISIC_8980141.JPG,,true,,,500,167864.60000000003,167864.3,156150.177,156161.60000000003,156166.843,179900.462,1,6,4,,
sequence,flow.Sequence,2_3,2023-11-01T17:00:12.538Z,,0,,,11697.456999999995,completion,,,,,true,,,,167864.8,167864.3,156150.177,156161.60000000003,156166.843,179900.462,1,6,,,
trial,html.Screen,2_4_0,2023-11-01T17:00:32.397Z,,0,0,,7823.738000000012,response,ISIC_1197737.JPG,,ISIC_9721604.JPG,ISIC_9721604.JPG,true,0,keypress(z),500,187724.50000000006,187724.2,179883.796,167865.10000000003,179900.462,187733.482,1,6,5,,ISIC_1197737.JPG
sequence,flow.Sequence,2_4,2023-11-01T17:00:32.398Z,,0,,,7823.738000000012,completion,,,,,true,,,,187725.00000000006,187724.2,179883.796,167865.00000000006,179900.462,187733.482,1,6,,,
trial,html.Screen,2_5_0,2023-11-01T17:00:36.707Z,,0,0,,4300.718000000023,response,ISIC_0025346.JPG,,ISIC_0010681.JPG,ISIC_0010681.JPG,true,0,keypress(z),500,192034.60000000003,192034.2,187716.816,187725.2,187733.482,192050.403,1,6,6,,ISIC_0025346.JPG
sequence,flow.Sequence,2_5,2023-11-01T17:00:36.708Z,,0,,,4300.718000000023,completion,,,,,true,,,,192035.00000000006,192034.2,187716.816,187725.10000000003,187733.482,192050.403,1,6,,,
loop,flow.Loop,2,2023-11-01T17:00:36.708Z,,,,,59650.72200000001,completion,,,,,true,,,,192035.3,192034.2,132366.812,132370.89999999997,132383.478,192050.403,1,6,,,
exp_instructions,html.Screen,3,2023-11-01T17:01:01.044Z,,,,,24314.697000000044,response,,,,,,continue,keypress(Space),,216371.60000000003,216365.10000000003,192033.737,192035.50000000006,192050.403,216383.494,,,,,
trial,html.Screen,4_0_0,2023-11-01T17:01:04.975Z,,0,1,,3918.006000000052,response,ISIC_1578399.JPG,5,ISIC_1819358.JPG,ISIC_1819358.JPG,false,0,keypress(z),500,220301.89999999997,220301.50000000006,216366.828,216371.89999999997,216383.494,220317.124,8,400,1,,ISIC_1578399.JPG
break,html.Screen,4_0_1,2023-11-01T17:01:04.976Z,,0,,,NaN,,,,,,false,,,,220302.89999999997,220302.60000000003,,220302.10000000003,,220317.124,8,400,,,
break_continue,html.Screen,4_0_2,2023-11-01T17:01:04.977Z,,0,,,NaN,,,,,,false,,,,220304.60000000003,220304.3,,220304.00000000006,,220317.124,8,400,,,
sequence,flow.Sequence,4_0,2023-11-01T17:01:04.978Z,,0,,,3920.8059999999823,completion,,,,,false,,,,220304.7,220304.3,216366.828,216371.89999999997,216383.494,220317.124,8,400,,,
trial,html.Screen,4_1_0,2023-11-01T17:01:08.758Z,,0,1,,3767.7759999999544,response,ISIC_1576437.JPG,9,ISIC_3335505.JPG,ISIC_3335505.JPG,false,0,keypress(z),500,224085.39999999997,224084.89999999997,220300.458,220304.89999999997,220317.124,224100.306,8,400,2,,ISIC_1576437.JPG
break,html.Screen,4_1_1,2023-11-01T17:01:08.759Z,,0,,,NaN,,,,,,false,,,,224086.50000000006,224086.10000000003,,224085.7,,224100.306,8,400,,,
break_continue,html.Screen,4_1_2,2023-11-01T17:01:08.760Z,,0,,,NaN,,,,,,false,,,,224086.89999999997,224086.7,,224086.60000000003,,224100.306,8,400,,,
sequence,flow.Sequence,4_1,2023-11-01T17:01:08.760Z,,0,,,3769.576000000001,completion,,,,,false,,,,224087.2,224086.7,220300.458,220304.89999999997,220317.124,224100.306,8,400,,,
trial,html.Screen,4_2_0,2023-11-01T17:01:12.255Z,,0,1,,3480.993999999977,response,ISIC_0069192.JPG,6,ISIC_7312551.JPG,ISIC_7312551.JPG,false,0,keypress(z),500,227581.60000000003,227581.3,224083.64,224087.3,224100.306,227583.5,8,400,3,,ISIC_0069192.JPG
break,html.Screen,4_2_1,2023-11-01T17:01:12.256Z,,0,,,NaN,,,,,,false,,,,227582.89999999997,227582.50000000006,,227582.00000000006,,227583.5,8,400,,,
break_continue,html.Screen,4_2_2,2023-11-01T17:01:12.256Z,,0,,,NaN,,,,,,false,,,,227583.50000000006,227583.2,,227583.00000000006,,227583.5,8,400,,,
sequence,flow.Sequence,4_2,2023-11-01T17:01:12.257Z,,0,,,3482.8940000000002,completion,,,,,false,,,,227583.7,227583.2,224083.64,224087.2,224100.306,227583.5,8,400,,,
trial,html.Screen,4_3_0,2023-11-01T17:01:15.464Z,,0,1,,3207.600000000035,response,ISIC_0014527.JPG,8,ISIC_0011097.JPG,ISIC_0014527.JPG,false,1,keypress(m),500,230791.39999999997,230791.10000000003,227566.834,227583.89999999997,227583.5,230800.562,8,400,4,,ISIC_0011097.JPG
break,html.Screen,4_3_1,2023-11-01T17:01:15.465Z,,0,,,NaN,,,,,,false,,,,230792.50000000006,230792.3,,230791.8,,230800.562,8,400,,,
break_continue,html.Screen,4_3_2,2023-11-01T17:01:15.466Z,,0,,,NaN,,,,,,false,,,,230793.2,230793.00000000006,,230792.7,,230800.562,8,400,,,
sequence,flow.Sequence,4_3,2023-11-01T17:01:15.466Z,,0,,,3209.500000000058,completion,,,,,false,,,,230793.39999999997,230793.00000000006,227566.834,227583.8,227583.5,230800.562,8,400,,,
trial,html.Screen,4_4_0,2023-11-01T17:01:18.831Z,,0,1,,3356.938000000053,response,ISIC_9974613.JPG,8,ISIC_0015204.JPG,ISIC_9974613.JPG,false,1,keypress(m),500,234157.7,234157.50000000006,230783.896,230793.50000000006,230800.562,234167.094,8,400,5,,ISIC_0015204.JPG
break,html.Screen,4_4_1,2023-11-01T17:01:18.831Z,,0,,,NaN,,,,,,false,,,,234158.50000000006,234158.3,,234157.89999999997,,234167.094,8,400,,,
break_continue,html.Screen,4_4_2,2023-11-01T17:01:18.832Z,,0,,,NaN,,,,,,false,,,,234158.89999999997,234158.8,,234158.7,,234167.094,8,400,,,
sequence,flow.Sequence,4_4,2023-11-01T17:01:18.832Z,,0,,,3358.237999999983,completion,,,,,false,,,,234159.10000000003,234158.8,230783.896,230793.50000000006,230800.562,234167.094,8,400,,,
trial,html.Screen,4_5_0,2023-11-01T17:01:24.965Z,,0,1,,6125.106,response,ISIC_7702857.JPG,9,ISIC_3673517.JPG,ISIC_3673517.JPG,false,0,keypress(z),500,240292.39999999997,240292.2,234150.428,234159.3,234167.094,240300.182,8,400,6,,ISIC_7702857.JPG
break,html.Screen,4_5_1,2023-11-01T17:01:24.966Z,,0,,,NaN,,,,,,false,,,,240293.2,240292.89999999997,,240292.50000000006,,240300.182,8,400,,,
break_continue,html.Screen,4_5_2,2023-11-01T17:01:24.966Z,,0,,,NaN,,,,,,false,,,,240293.60000000003,240293.50000000006,,240293.3,,240300.182,8,400,,,
sequence,flow.Sequence,4_5,2023-11-01T17:01:24.967Z,,0,,,6126.406000000046,completion,,,,,false,,,,240293.7,240293.50000000006,234150.428,234159.2,234167.094,240300.182,8,400,,,
trial,html.Screen,4_6_0,2023-11-01T17:01:28.346Z,,0,1,,3372.518000000011,response,ISIC_6829008.JPG,7,ISIC_7787118.JPG,ISIC_7787118.JPG,false,0,keypress(z),500,243673.00000000006,243672.7,240283.516,240293.89999999997,240300.182,243683.799,8,400,7,,ISIC_6829008.JPG
break,html.Screen,4_6_1,2023-11-01T17:01:28.347Z,,0,,,NaN,,,,,,false,,,,243673.7,243673.50000000006,,243673.2,,243683.799,8,400,,,
break_continue,html.Screen,4_6_2,2023-11-01T17:01:28.347Z,,0,,,NaN,,,,,,false,,,,243674.00000000006,243674.00000000006,,243673.8,,243683.799,8,400,,,
sequence,flow.Sequence,4_6,2023-11-01T17:01:28.347Z,,0,,,3373.8180000000575,completion,,,,,false,,,,243674.2,243674.00000000006,240283.516,240293.89999999997,240300.182,243683.799,8,400,,,
trial,html.Screen,4_7_0,2023-11-01T17:01:32.158Z,,0,1,,3801.201000000059,response,ISIC_9765024.JPG,5,ISIC_0030139.JPG,ISIC_9765024.JPG,false,1,keypress(m),500,247485.3,247485.00000000006,243667.133,243674.39999999997,243683.799,247500.313,8,400,8,,ISIC_0030139.JPG
break,html.Screen,4_7_1,2023-11-01T17:01:32.159Z,,0,,,NaN,,,,,,false,,,,247486.00000000006,247485.8,,247485.39999999997,,247500.313,8,400,,,
break_continue,html.Screen,4_7_2,2023-11-01T17:01:32.159Z,,0,,,NaN,,,,,,false,,,,247486.3,247486.2,,247486.10000000003,,247500.313,8,400,,,
sequence,flow.Sequence,4_7,2023-11-01T17:01:32.159Z,,0,,,3802.4010000000126,completion,,,,,false,,,,247486.50000000006,247486.2,243667.133,243674.3,243683.799,247500.313,8,400,,,
trial,html.Screen,4_8_0,2023-11-01T17:01:35.351Z,,0,1,,3177.5869999999704,response,ISIC_1366765.JPG,7,ISIC_0060386.JPG,ISIC_1366765.JPG,false,1,keypress(m),500,250678.10000000003,250677.89999999997,247483.647,247486.7,247500.313,250683.519,8,400,9,,ISIC_0060386.JPG
break,html.Screen,4_8_1,2023-11-01T17:01:35.352Z,,0,,,NaN,,,,,,false,,,,250678.89999999997,250678.60000000003,,250678.3,,250683.519,8,400,,,
break_continue,html.Screen,4_8_2,2023-11-01T17:01:35.352Z,,0,,,NaN,,,,,,false,,,,250679.3,250679.2,,250679.00000000006,,250683.519,8,400,,,
sequence,flow.Sequence,4_8,2023-11-01T17:01:35.352Z,,0,,,3178.887000000017,completion,,,,,false,,,,250679.50000000006,250679.2,247483.647,247486.60000000003,247500.313,250683.519,8,400,,,
trial,html.Screen,4_9_0,2023-11-01T17:01:38.781Z,,0,1,,3424.280999999988,response,ISIC_6293107.JPG,7,ISIC_9175856.JPG,ISIC_9175856.JPG,false,0,keypress(z),500,254107.89999999997,254107.8,250666.853,250679.60000000003,250683.519,254117.147,8,400,10,,ISIC_6293107.JPG
break,html.Screen,4_9_1,2023-11-01T17:01:38.782Z,,0,,,NaN,,,,,,false,,,,254108.8,254108.50000000006,,254108.10000000003,,254117.147,8,400,,,
break_continue,html.Screen,4_9_2,2023-11-01T17:01:38.782Z,,0,,,NaN,,,,,,false,,,,254109.10000000003,254109.00000000006,,254108.8,,254117.147,8,400,,,
sequence,flow.Sequence,4_9,2023-11-01T17:01:38.782Z,,0,,,3425.481000000058,completion,,,,,false,,,,254109.3,254109.00000000006,250666.853,250679.60000000003,250683.519,254117.147,8,400,,,
trial,html.Screen,4_10_0,2023-11-01T17:01:42.245Z,,0,1,,3454.4530000000377,response,ISIC_0028883.JPG,8,ISIC_5536710.JPG,ISIC_5536710.JPG,false,0,keypress(z),500,257571.89999999997,257571.60000000003,254100.481,254109.39999999997,254117.147,257583.675,8,400,11,,ISIC_0028883.JPG
break,html.Screen,4_10_1,2023-11-01T17:01:42.246Z,,0,,,NaN,,,,,,false,,,,257572.60000000003,257572.50000000006,,257572.10000000003,,257583.675,8,400,,,
break_continue,html.Screen,4_10_2,2023-11-01T17:01:42.246Z,,0,,,NaN,,,,,,false,,,,257573.10000000003,257572.89999999997,,257572.8,,257583.675,8,400,,,
sequence,flow.Sequence,4_10,2023-11-01T17:01:42.246Z,,0,,,3455.752999999968,completion,,,,,false,,,,257573.2,257572.89999999997,254100.481,254109.3,254117.147,257583.675,8,400,,,
trial,html.Screen,4_11_0,2023-11-01T17:01:45.387Z,,0,1,,3130.5250000000233,response,ISIC_7521698.JPG,7,ISIC_0057286.JPG,ISIC_7521698.JPG,false,1,keypress(m),500,260714.39999999997,260714.2,257567.009,257573.39999999997,257583.675,260733.549,8,400,12,,ISIC_0057286.JPG
break,html.Screen,4_11_1,2023-11-01T17:01:45.388Z,,0,,,NaN,,,,,,false,,,,260715.3,260715.00000000006,,260714.7,,260733.549,8,400,,,
break_continue,html.Screen,4_11_2,2023-11-01T17:01:45.389Z,,0,,,NaN,,,,,,false,,,,260715.60000000003,260715.50000000006,,260715.39999999997,,260733.549,8,400,,,
sequence,flow.Sequence,4_11,2023-11-01T17:01:45.389Z,,0,,,3131.82500000007,completion,,,,,false,,,,260715.8,260715.50000000006,257567.009,257573.39999999997,257583.675,260733.549,8,400,,,
trial,html.Screen,4_12_0,2023-11-01T17:01:48.335Z,,0,1,,2928.2509999999893,response,ISIC_0066783.JPG,7,ISIC_7227223.JPG,ISIC_7227223.JPG,false,0,keypress(z),500,263662.10000000003,263661.8,260716.883,260716.00000000006,260733.549,263683.816,8,400,13,,ISIC_0066783.JPG
break,html.Screen,4_12_1,2023-11-01T17:01:48.337Z,,0,,,NaN,,,,,,false,,,,263663.8,263663.2,,263662.89999999997,,263683.816,8,400,,,
break_continue,html.Screen,4_12_2,2023-11-01T17:01:48.337Z,,0,,,NaN,,,,,,false,,,,263664.39999999997,263664.2,,263664.00000000006,,263683.816,8,400,,,
sequence,flow.Sequence,4_12,2023-11-01T17:01:48.338Z,,0,,,2930.6510000000126,completion,,,,,false,,,,263664.60000000003,263664.2,260716.883,260715.89999999997,260733.549,263683.816,8,400,,,
trial,html.Screen,4_13_0,2023-11-01T17:01:51.302Z,,0,1,,2945.1840000000666,response,ISIC_0063496.JPG,8,ISIC_7450481.JPG,ISIC_7450481.JPG,false,0,keypress(z),500,266629.2,266629.00000000006,263667.15,263664.8,263683.816,266633.698,8,400,14,,ISIC_0063496.JPG
break,html.Screen,4_13_1,2023-11-01T17:01:51.303Z,,0,,,NaN,,,,,,false,,,,266630.00000000006,266629.89999999997,,266629.50000000006,,266633.698,8,400,,,
break_continue,html.Screen,4_13_2,2023-11-01T17:01:51.303Z,,0,,,NaN,,,,,,false,,,,266630.39999999997,266630.3,,266630.2,,266633.698,8,400,,,
sequence,flow.Sequence,4_13,2023-11-01T17:01:51.304Z,,0,,,2946.4839999999967,completion,,,,,false,,,,266630.60000000003,266630.3,263667.15,263664.7,263683.816,266633.698,8,400,,,
trial,html.Screen,4_14_0,2023-11-01T17:01:54.716Z,,0,1,,3408.8020000000834,response,ISIC_4819371.JPG,7,ISIC_0032996.JPG,ISIC_0032996.JPG,false,0,keypress(z),500,270042.8,270042.50000000006,266617.032,266630.8,266633.698,270050.228,8,400,15,,ISIC_4819371.JPG
break,html.Screen,4_14_1,2023-11-01T17:01:54.716Z,,0,,,NaN,,,,,,false,,,,270043.50000000006,270043.39999999997,,270043.00000000006,,270050.228,8,400,,,
break_continue,html.Screen,4_14_2,2023-11-01T17:01:54.717Z,,0,,,NaN,,,,,,false,,,,270043.89999999997,270043.8,,270043.7,,270050.228,8,400,,,
sequence,flow.Sequence,4_14,2023-11-01T17:01:54.717Z,,0,,,3410.1020000000135,completion,,,,,false,,,,270044.2,270043.8,266617.032,266630.8,266633.698,270050.228,8,400,,,
trial,html.Screen,4_15_0,2023-11-01T17:01:59.458Z,,0,1,,4734.972000000009,response,ISIC_0025357.JPG,7,ISIC_3256116.JPG,ISIC_3256116.JPG,false,0,keypress(z),500,274785.39999999997,274785.2,270033.562,270044.3,270050.228,274800.434,8,400,16,,ISIC_0025357.JPG
break,html.Screen,4_15_1,2023-11-01T17:01:59.459Z,,0,,,NaN,,,,,,false,,,,274786.2,274786.00000000006,,274785.7,,274800.434,8,400,,,
break_continue,html.Screen,4_15_2,2023-11-01T17:01:59.460Z,,0,,,NaN,,,,,,false,,,,274786.60000000003,274786.50000000006,,274786.39999999997,,274800.434,8,400,,,
sequence,flow.Sequence,4_15,2023-11-01T17:01:59.460Z,,0,,,4736.272000000055,completion,,,,,false,,,,274786.8,274786.50000000006,270033.562,270044.3,270050.228,274800.434,8,400,,,
trial,html.Screen,4_16_0,2023-11-01T17:02:04.730Z,,0,1,,5256.1660000000265,response,ISIC_5754070.JPG,4,ISIC_7997132.JPG,ISIC_7997132.JPG,false,0,keypress(z),500,280056.8,280056.60000000003,274783.768,274787.00000000006,274800.434,280066.89,8,400,17,,ISIC_5754070.JPG
break,html.Screen,4_16_1,2023-11-01T17:02:04.731Z,,0,,,NaN,,,,,,false,,,,280057.60000000003,280057.39999999997,,280057.00000000006,,280066.89,8,400,,,
break_continue,html.Screen,4_16_2,2023-11-01T17:02:04.731Z,,0,,,NaN,,,,,,false,,,,280058.00000000006,280057.8,,280057.7,,280066.89,8,400,,,
sequence,flow.Sequence,4_16,2023-11-01T17:02:04.731Z,,0,,,5257.36599999998,completion,,,,,false,,,,280058.2,280057.8,274783.768,274786.89999999997,274800.434,280066.89,8,400,,,
trial,html.Screen,4_17_0,2023-11-01T17:02:08.852Z,,0,1,,4111.710000000021,response,ISIC_6125358.JPG,7,ISIC_0065278.JPG,ISIC_0065278.JPG,false,0,keypress(z),500,284178.89999999997,284178.60000000003,280050.224,280058.3,280066.89,284183.843,8,400,18,,ISIC_6125358.JPG
break,html.Screen,4_17_1,2023-11-01T17:02:08.853Z,,0,,,NaN,,,,,,false,,,,284179.60000000003,284179.39999999997,,284179.10000000003,,284183.843,8,400,,,
break_continue,html.Screen,4_17_2,2023-11-01T17:02:08.853Z,,0,,,NaN,,,,,,false,,,,284180.00000000006,284179.89999999997,,284179.8,,284183.843,8,400,,,
sequence,flow.Sequence,4_17,2023-11-01T17:02:08.853Z,,0,,,4113.009999999951,completion,,,,,false,,,,284180.3,284179.89999999997,280050.224,280058.3,280066.89,284183.843,8,400,,,
trial,html.Screen,4_18_0,2023-11-01T17:02:12.088Z,,0,1,,3230.857000000018,response,ISIC_0024516.JPG,7,ISIC_0034242.JPG,ISIC_0024516.JPG,false,1,keypress(m),500,287414.89999999997,287414.7,284167.177,284180.39999999997,284183.843,287417.047,8,400,19,,ISIC_0034242.JPG
break,html.Screen,4_18_1,2023-11-01T17:02:12.089Z,,0,,,NaN,,,,,,false,,,,287415.60000000003,287415.50000000006,,287415.10000000003,,287417.047,8,400,,,
break_continue,html.Screen,4_18_2,2023-11-01T17:02:12.089Z,,0,,,NaN,,,,,,false,,,,287416.10000000003,287415.89999999997,,287415.8,,287417.047,8,400,,,
sequence,flow.Sequence,4_18,2023-11-01T17:02:12.089Z,,0,,,3232.0569999999716,completion,,,,,false,,,,287416.2,287415.89999999997,284167.177,284180.3,284183.843,287417.047,8,400,,,
trial,html.Screen,4_19_0,2023-11-01T17:02:15.325Z,,0,1,,3234.9530000000377,response,ISIC_0054146.JPG,5,ISIC_0024280.JPG,ISIC_0024280.JPG,false,0,keypress(z),500,290652.10000000003,290652.00000000006,287400.381,287416.39999999997,287417.047,290666.917,8,400,20,,ISIC_0054146.JPG
break,html.Screen,4_19_1,2023-11-01T17:02:15.326Z,,0,,,NaN,,,,,,false,,,,290653.00000000006,290652.7,,290652.39999999997,,290666.917,8,400,,,
break_continue,html.Screen,4_19_2,2023-11-01T17:02:15.326Z,,0,,,NaN,,,,,,false,,,,290653.3,290653.2,,290653.00000000006,,290666.917,8,400,,,
sequence,flow.Sequence,4_19,2023-11-01T17:02:15.326Z,,0,,,3236.152999999991,completion,,,,,false,,,,290653.50000000006,290653.2,287400.381,287416.3,287417.047,290666.917,8,400,,,
trial,html.Screen,4_20_0,2023-11-01T17:02:18.948Z,,0,1,,3607.683000000019,response,ISIC_0029998.JPG,6,ISIC_0031575.JPG,ISIC_0031575.JPG,false,0,keypress(z),500,294274.8,294274.60000000003,290650.251,290653.7,290666.917,294283.888,8,400,21,,ISIC_0029998.JPG
break,html.Screen,4_20_1,2023-11-01T17:02:18.949Z,,0,,,NaN,,,,,,false,,,,294275.60000000003,294275.39999999997,,294275.00000000006,,294283.888,8,400,,,
break_continue,html.Screen,4_20_2,2023-11-01T17:02:18.949Z,,0,,,NaN,,,,,,false,,,,294276.00000000006,294275.89999999997,,294275.7,,294283.888,8,400,,,
sequence,flow.Sequence,4_20,2023-11-01T17:02:18.949Z,,0,,,3608.9829999999492,completion,,,,,false,,,,294276.2,294275.89999999997,290650.251,290653.60000000003,290666.917,294283.888,8,400,,,
trial,html.Screen,4_21_0,2023-11-01T17:02:23.466Z,,0,1,,4508.712000000058,response,ISIC_0030417.JPG,7,ISIC_5354202.JPG,ISIC_0030417.JPG,false,1,keypress(m),500,298792.8,298792.60000000003,294267.222,294276.3,294283.888,298800.374,8,400,22,,ISIC_5354202.JPG
break,html.Screen,4_21_1,2023-11-01T17:02:23.467Z,,0,,,NaN,,,,,,false,,,,298793.50000000006,298793.3,,298793.00000000006,,298800.374,8,400,,,
break_continue,html.Screen,4_21_2,2023-11-01T17:02:23.467Z,,0,,,NaN,,,,,,false,,,,298793.89999999997,298793.8,,298793.7,,298800.374,8,400,,,
sequence,flow.Sequence,4_21,2023-11-01T17:02:23.467Z,,0,,,4509.912000000011,completion,,,,,false,,,,298794.2,298793.8,294267.222,294276.3,294283.888,298800.374,8,400,,,
trial,html.Screen,4_22_0,2023-11-01T17:02:26.896Z,,0,1,,3422.326000000001,response,ISIC_0027420.JPG,7,ISIC_0034044.JPG,ISIC_0034044.JPG,false,0,keypress(z),500,302222.89999999997,302222.7,298783.708,298794.39999999997,298800.374,302233.99,8,400,23,,ISIC_0027420.JPG
break,html.Screen,4_22_1,2023-11-01T17:02:26.897Z,,0,,,NaN,,,,,,false,,,,302224.10000000003,302223.89999999997,,302223.3,,302233.99,8,400,,,
break_continue,html.Screen,4_22_2,2023-11-01T17:02:26.898Z,,0,,,NaN,,,,,,false,,,,302224.7,302224.50000000006,,302224.39999999997,,302233.99,8,400,,,
sequence,flow.Sequence,4_22,2023-11-01T17:02:26.898Z,,0,,,3424.1260000000475,completion,,,,,false,,,,302225.2,302224.50000000006,298783.708,298794.39999999997,298800.374,302233.99,8,400,,,
trial,html.Screen,4_23_0,2023-11-01T17:02:30.980Z,,0,1,,4073.1100000000442,response,ISIC_0013762.JPG,6,ISIC_9424787.JPG,ISIC_0013762.JPG,false,1,keypress(m),500,306307.3,306307.10000000003,302217.324,302225.50000000006,302233.99,306317.16,8,400,24,,ISIC_9424787.JPG
break,html.Screen,4_23_1,2023-11-01T17:02:30.981Z,,0,,,NaN,,,,,,false,,,,306308.2,306307.89999999997,,306307.60000000003,,306317.16,8,400,,,
break_continue,html.Screen,4_23_2,2023-11-01T17:02:30.982Z,,0,,,NaN,,,,,,false,,,,306308.60000000003,306308.50000000006,,306308.3,,306317.16,8,400,,,
sequence,flow.Sequence,4_23,2023-11-01T17:02:30.982Z,,0,,,4074.5100000000675,completion,,,,,false,,,,306308.8,306308.50000000006,302217.324,302225.39999999997,302233.99,306317.16,8,400,,,
trial,html.Screen,4_24_0,2023-11-01T17:02:34.649Z,,0,1,,3658.9400000000605,response,ISIC_2839431.JPG,6,ISIC_0069859.JPG,ISIC_0069859.JPG,false,0,keypress(z),500,309976.3,309976.10000000003,306300.494,306309.00000000006,306317.16,309983.68,8,400,25,,ISIC_2839431.JPG
break,html.Screen,4_24_1,2023-11-01T17:02:34.650Z,,0,,,NaN,,,,,,false,,,,309977.00000000006,309976.89999999997,,309976.50000000006,,309983.68,8,400,,,
break_continue,html.Screen,4_24_2,2023-11-01T17:02:34.650Z,,0,,,NaN,,,,,,false,,,,309977.39999999997,309977.3,,309977.2,,309983.68,8,400,,,
sequence,flow.Sequence,4_24,2023-11-01T17:02:34.651Z,,0,,,3660.140000000014,completion,,,,,false,,,,309977.60000000003,309977.3,306300.494,306308.89999999997,306317.16,309983.68,8,400,,,
trial,html.Screen,4_25_0,2023-11-01T17:02:37.935Z,,0,1,,3277.820000000065,response,ISIC_7300631.JPG,6,ISIC_6496765.JPG,ISIC_7300631.JPG,false,1,keypress(m),500,313261.7,313261.50000000006,309967.014,309977.8,309983.68,313267.3,8,400,26,,ISIC_6496765.JPG
break,html.Screen,4_25_1,2023-11-01T17:02:37.935Z,,0,,,NaN,,,,,,false,,,,313262.39999999997,313262.2,,313262.00000000006,,313267.3,8,400,,,
break_continue,html.Screen,4_25_2,2023-11-01T17:02:37.936Z,,0,,,NaN,,,,,,false,,,,313262.8,313262.60000000003,,313262.60000000003,,313267.3,8,400,,,
sequence,flow.Sequence,4_25,2023-11-01T17:02:37.936Z,,0,,,3278.920000000042,completion,,,,,false,,,,313263.00000000006,313262.60000000003,309967.014,309977.7,309983.68,313267.3,8,400,,,
trial,html.Screen,4_26_0,2023-11-01T17:02:40.772Z,,0,1,,2831.4000000000233,response,ISIC_1224329.JPG,7,ISIC_9066201.JPG,ISIC_9066201.JPG,false,0,keypress(z),500,316098.89999999997,316098.7,313250.634,313263.2,313267.3,316100.52,8,400,27,,ISIC_1224329.JPG
break,html.Screen,4_26_1,2023-11-01T17:02:40.773Z,,0,,,NaN,,,,,,false,,,,316099.60000000003,316099.39999999997,,316099.10000000003,,316100.52,8,400,,,
break_continue,html.Screen,4_26_2,2023-11-01T17:02:40.773Z,,0,,,NaN,,,,,,false,,,,316099.89999999997,316099.89999999997,,316099.7,,316100.52,8,400,,,
sequence,flow.Sequence,4_26,2023-11-01T17:02:40.773Z,,0,,,2832.5999999999767,completion,,,,,false,,,,316100.10000000003,316099.89999999997,313250.634,313263.10000000003,313267.3,316100.52,8,400,,,
trial,html.Screen,4_27_0,2023-11-01T17:02:43.658Z,,0,1,,2884.3799999999464,response,ISIC_8024841.JPG,9,ISIC_0046615.JPG,ISIC_8024841.JPG,false,1,keypress(m),500,318985.2,318984.89999999997,316083.854,316100.3,316100.52,319000.404,8,400,28,,ISIC_0046615.JPG
break,html.Screen,4_27_1,2023-11-01T17:02:43.659Z,,0,,,NaN,,,,,,false,,,,318985.89999999997,318985.7,,318985.3,,319000.404,8,400,,,
break_continue,html.Screen,4_27_2,2023-11-01T17:02:43.659Z,,0,,,NaN,,,,,,false,,,,318986.3,318986.2,,318986.00000000006,,319000.404,8,400,,,
sequence,flow.Sequence,4_27,2023-11-01T17:02:43.660Z,,0,,,2885.679999999993,completion,,,,,false,,,,318986.39999999997,318986.2,316083.854,316100.2,316100.52,319000.404,8,400,,,
trial,html.Screen,4_28_0,2023-11-01T17:02:46.717Z,,0,1,,3043.6960000000545,response,ISIC_0058151.JPG,7,ISIC_4343836.JPG,ISIC_4343836.JPG,false,0,keypress(z),500,322044.39999999997,322044.10000000003,318983.738,318986.60000000003,319000.404,322050.282,8,400,29,,ISIC_0058151.JPG
break,html.Screen,4_28_1,2023-11-01T17:02:46.719Z,,0,,,NaN,,,,,,false,,,,322045.8,322045.60000000003,,322045.3,,322050.282,8,400,,,
break_continue,html.Screen,4_28_2,2023-11-01T17:02:46.719Z,,0,,,NaN,,,,,,false,,,,322046.2,322046.00000000006,,322046.00000000006,,322050.282,8,400,,,
sequence,flow.Sequence,4_28,2023-11-01T17:02:46.719Z,,0,,,3045.5960000000778,completion,,,,,false,,,,322046.3,322046.00000000006,318983.738,318986.60000000003,319000.404,322050.282,8,400,,,
trial,html.Screen,4_29_0,2023-11-01T17:02:49.797Z,,0,1,,3073.8180000000284,response,ISIC_5706192.JPG,7,ISIC_0033472.JPG,ISIC_5706192.JPG,false,1,keypress(m),500,325124.39999999997,325124.10000000003,322033.616,322046.50000000006,322050.282,325133.935,8,400,30,,ISIC_0033472.JPG
break,html.Screen,4_29_1,2023-11-01T17:02:49.798Z,,0,,,NaN,,,,,,false,,,,325125.10000000003,325124.8,,325124.50000000006,,325133.935,8,400,,,
break_continue,html.Screen,4_29_2,2023-11-01T17:02:49.798Z,,0,,,NaN,,,,,,false,,,,325125.39999999997,325125.2,,325125.10000000003,,325133.935,8,400,,,
sequence,flow.Sequence,4_29,2023-11-01T17:02:49.799Z,,0,,,3074.918000000005,completion,,,,,false,,,,325125.50000000006,325125.2,322033.616,322046.50000000006,322050.282,325133.935,8,400,,,
trial,html.Screen,4_30_0,2023-11-01T17:02:54.890Z,,0,1,,5082.864999999991,response,ISIC_0010044.JPG,9,ISIC_0057344.JPG,ISIC_0057344.JPG,false,0,keypress(z),500,330217.3,330216.8,325117.269,325125.60000000003,325133.935,330233.731,8,400,31,,ISIC_0010044.JPG
break,html.Screen,4_30_1,2023-11-01T17:02:54.892Z,,0,,,NaN,,,,,,false,,,,330219.2,330218.89999999997,,330217.89999999997,,330233.731,8,400,,,
break_continue,html.Screen,4_30_2,2023-11-01T17:02:54.893Z,,0,,,NaN,,,,,,false,,,,330219.60000000003,330219.50000000006,,330219.39999999997,,330233.731,8,400,,,
sequence,flow.Sequence,4_30,2023-11-01T17:02:54.893Z,,0,,,5085.5650000000605,completion,,,,,false,,,,330219.8,330219.50000000006,325117.269,325125.60000000003,325133.935,330233.731,8,400,,,
trial,html.Screen,4_31_0,2023-11-01T17:02:58.386Z,,0,1,,3478.668999999936,response,ISIC_0064623.JPG,5,ISIC_9458746.JPG,ISIC_0064623.JPG,false,1,keypress(m),500,333712.50000000006,333712.39999999997,330217.065,330219.89999999997,330233.731,333717.229,8,400,32,,ISIC_9458746.JPG
break,html.Screen,4_31_1,2023-11-01T17:02:58.386Z,,0,,,NaN,,,,,,false,,,,333713.2,333713.00000000006,,333712.7,,333717.229,8,400,,,
break_continue,html.Screen,4_31_2,2023-11-01T17:02:58.387Z,,0,,,NaN,,,,,,false,,,,333713.50000000006,333713.39999999997,,333713.3,,333717.229,8,400,,,
sequence,flow.Sequence,4_31,2023-11-01T17:02:58.387Z,,0,,,3479.668999999936,completion,,,,,false,,,,333713.7,333713.39999999997,330217.065,330219.89999999997,330233.731,333717.229,8,400,,,
trial,html.Screen,4_32_0,2023-11-01T17:03:01.771Z,,0,1,,3380.371000000043,response,ISIC_0030519.JPG,7,ISIC_6547707.JPG,ISIC_6547707.JPG,false,0,keypress(z),500,337097.7,337097.60000000003,333700.563,333713.8,333717.229,337100.427,8,400,33,,ISIC_0030519.JPG
break,html.Screen,4_32_1,2023-11-01T17:03:01.771Z,,0,,,NaN,,,,,,false,,,,337098.39999999997,337098.2,,337098.00000000006,,337100.427,8,400,,,
break_continue,html.Screen,4_32_2,2023-11-01T17:03:01.772Z,,0,,,NaN,,,,,,false,,,,337098.7,337098.7,,337098.50000000006,,337100.427,8,400,,,
sequence,flow.Sequence,4_32,2023-11-01T17:03:01.772Z,,0,,,3381.4710000000196,completion,,,,,false,,,,337099.00000000006,337098.7,333700.563,333713.7,333717.229,337100.427,8,400,,,
trial,html.Screen,4_33_0,2023-11-01T17:03:06.162Z,,0,1,,4388.47299999994,response,ISIC_7330564.JPG,5,ISIC_0034090.JPG,ISIC_7330564.JPG,false,1,keypress(m),500,341489.10000000003,341488.89999999997,337083.761,337099.10000000003,337100.427,341500.251,8,400,34,,ISIC_0034090.JPG
break,html.Screen,4_33_1,2023-11-01T17:03:06.163Z,,0,,,NaN,,,,,,false,,,,341489.50000000006,341489.39999999997,,341489.2,,341500.251,8,400,,,
break_continue,html.Screen,4_33_2,2023-11-01T17:03:06.163Z,,0,,,NaN,,,,,,false,,,,341489.8,341489.7,,341489.60000000003,,341500.251,8,400,,,
sequence,flow.Sequence,4_33,2023-11-01T17:03:06.163Z,,0,,,4389.2729999999865,completion,,,,,false,,,,341489.89999999997,341489.7,337083.761,337099.00000000006,337100.427,341500.251,8,400,,,
trial,html.Screen,4_34_0,2023-11-01T17:03:09.270Z,,0,1,,3096.749000000069,response,ISIC_6652978.JPG,6,ISIC_0033051.JPG,ISIC_6652978.JPG,false,1,keypress(m),500,344597.2,344597.00000000006,341483.585,341490.00000000006,341500.251,344600.619,8,400,35,,ISIC_0033051.JPG
break,html.Screen,4_34_1,2023-11-01T17:03:09.271Z,,0,,,NaN,,,,,,false,,,,344597.89999999997,344597.7,,344597.39999999997,,344600.619,8,400,,,
break_continue,html.Screen,4_34_2,2023-11-01T17:03:09.271Z,,0,,,NaN,,,,,,false,,,,344598.3,344598.10000000003,,344598.00000000006,,344600.619,8,400,,,
sequence,flow.Sequence,4_34,2023-11-01T17:03:09.272Z,,0,,,3097.8490000000456,completion,,,,,false,,,,344598.50000000006,344598.10000000003,341483.585,341490.00000000006,341500.251,344600.619,8,400,,,
trial,html.Screen,4_35_0,2023-11-01T17:03:12.381Z,,0,1,,3106.6809999999823,response,ISIC_0030829.JPG,8,ISIC_0056409.JPG,ISIC_0030829.JPG,false,1,keypress(m),500,347707.50000000006,347707.3,344583.953,344598.60000000003,344600.619,347717.161,8,400,36,,ISIC_0056409.JPG
break,html.Screen,4_35_1,2023-11-01T17:03:12.381Z,,0,,,NaN,,,,,,false,,,,347708.00000000006,347707.8,,347707.50000000006,,347717.161,8,400,,,
break_continue,html.Screen,4_35_2,2023-11-01T17:03:12.381Z,,0,,,NaN,,,,,,false,,,,347708.3,347708.3,,347708.10000000003,,347717.161,8,400,,,
sequence,flow.Sequence,4_35,2023-11-01T17:03:12.382Z,,0,,,3107.6809999999823,completion,,,,,false,,,,347708.39999999997,347708.3,344583.953,344598.60000000003,344600.619,347717.161,8,400,,,
trial,html.Screen,4_36_0,2023-11-01T17:03:15.744Z,,0,1,,3353.3390000000363,response,ISIC_0032440.JPG,5,ISIC_7518798.JPG,ISIC_7518798.JPG,false,0,keypress(z),500,351070.8,351070.50000000006,347700.495,347708.60000000003,347717.161,351083.693,8,400,37,,ISIC_0032440.JPG
break,html.Screen,4_36_1,2023-11-01T17:03:15.745Z,,0,,,NaN,,,,,,false,,,,351071.60000000003,351071.3,,351071.00000000006,,351083.693,8,400,,,
break_continue,html.Screen,4_36_2,2023-11-01T17:03:15.745Z,,0,,,NaN,,,,,,false,,,,351072.00000000006,351071.89999999997,,351071.7,,351083.693,8,400,,,
sequence,flow.Sequence,4_36,2023-11-01T17:03:15.745Z,,0,,,3354.738999999943,completion,,,,,false,,,,351072.2,351071.89999999997,347700.495,347708.50000000006,347717.161,351083.693,8,400,,,
trial,html.Screen,4_37_0,2023-11-01T17:03:19.047Z,,0,1,,3290.10699999996,response,ISIC_0071388.JPG,6,ISIC_2783450.JPG,ISIC_2783450.JPG,false,0,keypress(z),500,354374.00000000006,354373.8,351067.027,351072.39999999997,351083.693,354383.974,8,400,38,,ISIC_0071388.JPG
break,html.Screen,4_37_1,2023-11-01T17:03:19.048Z,,0,,,NaN,,,,,,false,,,,354374.7,354374.50000000006,,354374.3,,354383.974,8,400,,,
break_continue,html.Screen,4_37_2,2023-11-01T17:03:19.049Z,,0,,,NaN,,,,,,false,,,,354375.3,354375.10000000003,,354375.00000000006,,354383.974,8,400,,,
sequence,flow.Sequence,4_37,2023-11-01T17:03:19.049Z,,0,,,3291.4070000000065,completion,,,,,false,,,,354375.89999999997,354375.10000000003,351067.027,351072.3,351083.693,354383.974,8,400,,,
trial,html.Screen,4_38_0,2023-11-01T17:03:21.725Z,,0,1,,2667.726000000024,response,ISIC_2945324.JPG,5,ISIC_0062084.JPG,ISIC_2945324.JPG,false,1,keypress(m),500,357052.00000000006,357051.7,354367.308,354376.10000000003,354383.974,357067.2,8,400,39,,ISIC_0062084.JPG
break,html.Screen,4_38_1,2023-11-01T17:03:21.726Z,,0,,,NaN,,,,,,false,,,,357052.50000000006,357052.3,,357052.10000000003,,357067.2,8,400,,,
break_continue,html.Screen,4_38_2,2023-11-01T17:03:21.726Z,,0,,,NaN,,,,,,false,,,,357052.8,357052.7,,357052.60000000003,,357067.2,8,400,,,
sequence,flow.Sequence,4_38,2023-11-01T17:03:21.726Z,,0,,,2668.726000000024,completion,,,,,false,,,,357053.00000000006,357052.7,354367.308,354376.10000000003,354383.974,357067.2,8,400,,,
trial,html.Screen,4_39_0,2023-11-01T17:03:26.850Z,,0,1,,5109.5,response,ISIC_1818238.JPG,9,ISIC_1607865.JPG,ISIC_1607865.JPG,false,0,keypress(z),500,362176.8,362176.7,357050.534,357053.10000000003,357067.2,362183.662,8,400,40,,ISIC_1818238.JPG
break,html.Screen,4_39_1,2023-11-01T17:03:26.851Z,,0,,,NaN,,,,,,false,,,,362177.60000000003,362177.39999999997,,362177.10000000003,,362183.662,8,400,,,
break_continue,html.Screen,4_39_2,2023-11-01T17:03:26.851Z,,0,,,NaN,,,,,,false,,,,362177.8,362177.8,,362177.7,,362183.662,8,400,,,
sequence,flow.Sequence,4_39,2023-11-01T17:03:26.851Z,,0,,,5110.599999999977,completion,,,,,false,,,,362178.00000000006,362177.8,357050.534,357053.10000000003,357067.2,362183.662,8,400,,,
trial,html.Screen,4_40_0,2023-11-01T17:03:29.861Z,,0,1,,3003.9380000000237,response,ISIC_0032547.JPG,5,ISIC_1978947.JPG,ISIC_1978947.JPG,false,0,keypress(z),500,365187.89999999997,365187.60000000003,362166.996,362178.10000000003,362183.662,365200.631,8,400,41,,ISIC_0032547.JPG
break,html.Screen,4_40_1,2023-11-01T17:03:29.862Z,,0,,,NaN,,,,,,false,,,,365188.7,365188.50000000006,,365188.2,,365200.631,8,400,,,
break_continue,html.Screen,4_40_2,2023-11-01T17:03:29.862Z,,0,,,NaN,,,,,,false,,,,365189.2,365189.00000000006,,365188.89999999997,,365200.631,8,400,,,
sequence,flow.Sequence,4_40,2023-11-01T17:03:29.862Z,,0,,,3005.338000000047,completion,,,,,false,,,,365189.39999999997,365189.00000000006,362166.996,362178.10000000003,362183.662,365200.631,8,400,,,
trial,html.Screen,4_41_0,2023-11-01T17:03:33.659Z,,0,1,,3784.6689999999944,response,ISIC_0060032.JPG,8,ISIC_8094432.JPG,ISIC_8094432.JPG,false,0,keypress(z),500,368985.60000000003,368985.3,365183.965,365189.60000000003,365200.631,369000.479,8,400,42,,ISIC_0060032.JPG
break,html.Screen,4_41_1,2023-11-01T17:03:33.660Z,,0,,,NaN,,,,,,false,,,,368986.50000000006,368986.2,,368985.89999999997,,369000.479,8,400,,,
break_continue,html.Screen,4_41_2,2023-11-01T17:03:33.661Z,,0,,,NaN,,,,,,false,,,,368987.39999999997,368986.89999999997,,368986.7,,369000.479,8,400,,,
sequence,flow.Sequence,4_41,2023-11-01T17:03:33.661Z,,0,,,3786.268999999971,completion,,,,,false,,,,368987.7,368986.89999999997,365183.965,365189.50000000006,365200.631,369000.479,8,400,,,
trial,html.Screen,4_42_0,2023-11-01T17:03:37.455Z,,0,1,,3781.121000000043,response,ISIC_0029993.JPG,6,ISIC_0011035.JPG,ISIC_0029993.JPG,false,1,keypress(m),500,372781.8,372781.60000000003,368983.813,368987.89999999997,369000.479,372783.661,8,400,43,,ISIC_0011035.JPG
break,html.Screen,4_42_1,2023-11-01T17:03:37.456Z,,0,,,NaN,,,,,,false,,,,372782.50000000006,372782.3,,372782.00000000006,,372783.661,8,400,,,
break_continue,html.Screen,4_42_2,2023-11-01T17:03:37.456Z,,0,,,NaN,,,,,,false,,,,372782.89999999997,372782.8,,372782.7,,372783.661,8,400,,,
sequence,flow.Sequence,4_42,2023-11-01T17:03:37.456Z,,0,,,3782.3209999999963,completion,,,,,false,,,,372783.10000000003,372782.8,368983.813,368987.8,369000.479,372783.661,8,400,,,
trial,html.Screen,4_43_0,2023-11-01T17:03:41.779Z,,0,1,,4322.1389999999665,response,ISIC_4174983.JPG,5,ISIC_0024306.JPG,ISIC_4174983.JPG,false,1,keypress(m),500,377106.2,377105.8,372766.995,372783.2,372783.661,377117.242,8,400,44,,ISIC_0024306.JPG
break,html.Screen,4_43_1,2023-11-01T17:03:41.780Z,,0,,,NaN,,,,,,false,,,,377106.89999999997,377106.7,,377106.39999999997,,377117.242,8,400,,,
break_continue,html.Screen,4_43_2,2023-11-01T17:03:41.781Z,,0,,,NaN,,,,,,false,,,,377107.39999999997,377107.2,,377107.00000000006,,377117.242,8,400,,,
sequence,flow.Sequence,4_43,2023-11-01T17:03:41.781Z,,0,,,4323.53899999999,completion,,,,,false,,,,377107.7,377107.2,372766.995,372783.2,372783.661,377117.242,8,400,,,
trial,html.Screen,4_44_0,2023-11-01T17:03:45.689Z,,0,1,,3898.3580000000075,response,ISIC_4477599.JPG,5,ISIC_6036959.JPG,ISIC_4477599.JPG,false,1,keypress(m),500,381015.8,381015.60000000003,377100.576,377107.8,377117.242,381017.086,8,400,45,,ISIC_6036959.JPG
break,html.Screen,4_44_1,2023-11-01T17:03:45.690Z,,0,,,NaN,,,,,,false,,,,381016.50000000006,381016.2,,381016.00000000006,,381017.086,8,400,,,
break_continue,html.Screen,4_44_2,2023-11-01T17:03:45.690Z,,0,,,NaN,,,,,,false,,,,381016.8,381016.7,,381016.60000000003,,381017.086,8,400,,,
sequence,flow.Sequence,4_44,2023-11-01T17:03:45.690Z,,0,,,3899.457999999984,completion,,,,,false,,,,381017.00000000006,381016.7,377100.576,377107.7,377117.242,381017.086,8,400,,,
trial,html.Screen,4_45_0,2023-11-01T17:03:50.828Z,,0,1,,5137.614000000001,response,ISIC_9571842.JPG,6,ISIC_0031074.JPG,ISIC_9571842.JPG,false,1,keypress(m),500,386154.89999999997,386154.7,381000.42,381017.2,381017.086,386167.351,8,400,46,,ISIC_0031074.JPG
break,html.Screen,4_45_1,2023-11-01T17:03:50.829Z,,0,,,NaN,,,,,,false,,,,386155.8,386155.60000000003,,386155.3,,386167.351,8,400,,,
break_continue,html.Screen,4_45_2,2023-11-01T17:03:50.829Z,,0,,,NaN,,,,,,false,,,,386156.2,386156.2,,386156.00000000006,,386167.351,8,400,,,
sequence,flow.Sequence,4_45,2023-11-01T17:03:50.830Z,,0,,,5139.114000000001,completion,,,,,false,,,,386156.50000000006,386156.2,381000.42,381017.2,381017.086,386167.351,8,400,,,
trial,html.Screen,4_46_0,2023-11-01T17:03:54.131Z,,0,1,,3290.3489999999874,response,ISIC_7600621.JPG,5,ISIC_2661598.JPG,ISIC_2661598.JPG,false,0,keypress(z),500,389458.00000000006,389457.7,386150.685,386156.7,386167.351,389467.219,8,400,47,,ISIC_7600621.JPG
break,html.Screen,4_46_1,2023-11-01T17:03:54.132Z,,0,,,NaN,,,,,,false,,,,389458.7,389458.50000000006,,389458.10000000003,,389467.219,8,400,,,
break_continue,html.Screen,4_46_2,2023-11-01T17:03:54.132Z,,0,,,NaN,,,,,,false,,,,389459.00000000006,389458.89999999997,,389458.7,,389467.219,8,400,,,
sequence,flow.Sequence,4_46,2023-11-01T17:03:54.132Z,,0,,,3291.548999999941,completion,,,,,false,,,,389459.2,389458.89999999997,386150.685,386156.60000000003,386167.351,389467.219,8,400,,,
trial,html.Screen,4_47_0,2023-11-01T17:03:58.520Z,,0,1,,4379.081000000006,response,ISIC_0055924.JPG,7,ISIC_7883190.JPG,ISIC_7883190.JPG,false,0,keypress(z),500,393846.60000000003,393846.3,389450.553,389459.39999999997,389467.219,393850.377,8,400,48,,ISIC_0055924.JPG
break,html.Screen,4_47_1,2023-11-01T17:03:58.520Z,,0,,,NaN,,,,,,false,,,,393847.3,393847.10000000003,,393846.8,,393850.377,8,400,,,
break_continue,html.Screen,4_47_2,2023-11-01T17:03:58.522Z,,0,,,NaN,,,,,,false,,,,393848.7,393848.60000000003,,393848.39999999997,,393850.377,8,400,,,
sequence,flow.Sequence,4_47,2023-11-01T17:03:58.522Z,,0,,,4381.381000000052,completion,,,,,false,,,,393848.89999999997,393848.60000000003,389450.553,389459.3,389467.219,393850.377,8,400,,,
trial,html.Screen,4_48_0,2023-11-01T17:04:03.042Z,,0,1,,4518.12300000008,response,ISIC_8436194.JPG,5,ISIC_1115160.JPG,ISIC_8436194.JPG,false,1,keypress(m),500,398368.7,398368.50000000006,393833.711,393849.10000000003,393850.377,398383.952,8,400,49,,ISIC_1115160.JPG
break,html.Screen,4_48_1,2023-11-01T17:04:03.043Z,,0,,,NaN,,,,,,false,,,,398369.50000000006,398369.2,,398368.89999999997,,398383.952,8,400,,,
break_continue,html.Screen,4_48_2,2023-11-01T17:04:03.043Z,,0,,,NaN,,,,,,false,,,,398369.89999999997,398369.7,,398369.50000000006,,398383.952,8,400,,,
sequence,flow.Sequence,4_48,2023-11-01T17:04:03.043Z,,0,,,4519.323000000033,completion,,,,,false,,,,398370.00000000006,398369.7,393833.711,393849.10000000003,393850.377,398383.952,8,400,,,
trial,html.Screen,4_49_0,2023-11-01T17:04:06.165Z,,0,1,,3108.048000000068,response,ISIC_0399142.JPG,7,ISIC_2998367.JPG,ISIC_2998367.JPG,false,0,keypress(z),500,401492.2,401492.00000000006,398367.286,398370.2,398383.952,401500.494,8,400,50,,ISIC_0399142.JPG
break,html.Screen,4_49_1,2023-11-01T17:04:16.159Z,,0,,,9999.966000000015,timeout,,,,,false,,,,411485.3,411483.794,401483.828,401492.3,401500.494,411500.46,8,400,,,
break_continue,html.Screen,4_49_2,2023-11-01T17:04:17.509Z,,0,,,1317.0400000000373,response,,,,,false,continue,keypress(Space),,412835.7,412817.50000000006,411483.794,411485.50000000006,411500.46,412850.406,8,400,,,
sequence,flow.Sequence,4_49,2023-11-01T17:04:17.509Z,,0,,,14433.548000000068,completion,,,,,false,,,,412835.8,412817.50000000006,398367.286,398370.10000000003,398383.952,412850.406,8,400,,,
trial,html.Screen,4_50_0,2023-11-01T17:04:20.585Z,,0,2,,3061.393999999971,response,ISIC_7008969.JPG,6,ISIC_6723937.JPG,ISIC_6723937.JPG,false,0,keypress(z),500,415912.2,415911.8,412833.74,412836.00000000006,412850.406,415916.95,8,400,1,,ISIC_7008969.JPG
break,html.Screen,4_50_1,2023-11-01T17:04:20.586Z,,0,,,NaN,,,,,,false,,,,415913.10000000003,415912.8,,415912.39999999997,,415916.95,8,400,,,
break_continue,html.Screen,4_50_2,2023-11-01T17:04:20.587Z,,0,,,NaN,,,,,,false,,,,415913.7,415913.50000000006,,415913.3,,415916.95,8,400,,,
sequence,flow.Sequence,4_50,2023-11-01T17:04:20.587Z,,0,,,3063.094000000041,completion,,,,,false,,,,415913.89999999997,415913.50000000006,412833.74,412836.00000000006,412850.406,415916.95,8,400,,,
trial,html.Screen,4_51_0,2023-11-01T17:04:23.570Z,,0,2,,2978.8499999999767,response,ISIC_8409262.JPG,6,ISIC_0013334.JPG,ISIC_8409262.JPG,false,1,keypress(m),500,418896.3,418895.8,415900.284,415914.10000000003,415916.95,418900.582,8,400,2,,ISIC_0013334.JPG
break,html.Screen,4_51_1,2023-11-01T17:04:23.572Z,,0,,,NaN,,,,,,false,,,,418898.89999999997,418896.89999999997,,418896.60000000003,,418900.582,8,400,,,
break_continue,html.Screen,4_51_2,2023-11-01T17:04:23.573Z,,0,,,NaN,,,,,,false,,,,418899.50000000006,418899.3,,418899.2,,418900.582,8,400,,,
sequence,flow.Sequence,4_51,2023-11-01T17:04:23.573Z,,0,,,2982.3499999999767,completion,,,,,false,,,,418899.8,418899.3,415900.284,415914.00000000006,415916.95,418900.582,8,400,,,
trial,html.Screen,4_52_0,2023-11-01T17:04:26.136Z,,0,2,,2562.2179999999935,response,ISIC_2833213.JPG,7,ISIC_1910158.JPG,ISIC_1910158.JPG,false,0,keypress(z),500,421463.10000000003,421462.8,418883.916,418900.3,418900.582,421467.146,8,400,3,,ISIC_2833213.JPG
break,html.Screen,4_52_1,2023-11-01T17:04:26.137Z,,0,,,NaN,,,,,,false,,,,421463.89999999997,421463.7,,421463.39999999997,,421467.146,8,400,,,
break_continue,html.Screen,4_52_2,2023-11-01T17:04:26.138Z,,0,,,NaN,,,,,,false,,,,421464.39999999997,421464.2,,421464.10000000003,,421467.146,8,400,,,
sequence,flow.Sequence,4_52,2023-11-01T17:04:26.138Z,,0,,,2563.6180000000168,completion,,,,,false,,,,421464.60000000003,421464.2,418883.916,418900.2,418900.582,421467.146,8,400,,,
trial,html.Screen,4_53_0,2023-11-01T17:04:29.123Z,,0,2,,2982.5540000000037,response,ISIC_0056192.JPG,5,ISIC_1768733.JPG,ISIC_1768733.JPG,false,0,keypress(z),500,424449.89999999997,424449.7,421450.48,421464.7,421467.146,424467.026,8,400,4,,ISIC_0056192.JPG
break,html.Screen,4_53_1,2023-11-01T17:04:29.124Z,,0,,,NaN,,,,,,false,,,,424450.7,424450.50000000006,,424450.10000000003,,424467.026,8,400,,,
break_continue,html.Screen,4_53_2,2023-11-01T17:04:29.124Z,,0,,,NaN,,,,,,false,,,,424451.10000000003,424450.89999999997,,424450.8,,424467.026,8,400,,,
sequence,flow.Sequence,4_53,2023-11-01T17:04:29.125Z,,0,,,2983.753999999957,completion,,,,,false,,,,424451.7,424450.89999999997,421450.48,421464.7,421467.146,424467.026,8,400,,,
trial,html.Screen,4_54_0,2023-11-01T17:04:32.025Z,,0,2,,2884.173999999999,response,ISIC_0010251.JPG,6,ISIC_8752021.JPG,ISIC_0010251.JPG,false,1,keypress(m),500,427351.50000000006,427351.2,424450.36,424451.89999999997,424467.026,427366.91,8,400,5,,ISIC_8752021.JPG
break,html.Screen,4_54_1,2023-11-01T17:04:32.026Z,,0,,,NaN,,,,,,false,,,,427352.60000000003,427352.39999999997,,427351.7,,427366.91,8,400,,,
break_continue,html.Screen,4_54_2,2023-11-01T17:04:32.026Z,,0,,,NaN,,,,,,false,,,,427353.2,427353.10000000003,,427352.89999999997,,427366.91,8,400,,,
sequence,flow.Sequence,4_54,2023-11-01T17:04:32.027Z,,0,,,2886.0740000000224,completion,,,,,false,,,,427353.50000000006,427353.10000000003,424450.36,424451.8,424467.026,427366.91,8,400,,,
trial,html.Screen,4_55_0,2023-11-01T17:04:34.820Z,,0,2,,2779.1900000000605,response,ISIC_0061077.JPG,7,ISIC_6036959.JPG,ISIC_6036959.JPG,false,0,keypress(z),500,430146.39999999997,430146.10000000003,427350.244,427353.7,427366.91,430150.597,8,400,6,,ISIC_0061077.JPG
break,html.Screen,4_55_1,2023-11-01T17:04:34.820Z,,0,,,NaN,,,,,,false,,,,430147.2,430146.89999999997,,430146.60000000003,,430150.597,8,400,,,
break_continue,html.Screen,4_55_2,2023-11-01T17:04:34.821Z,,0,,,NaN,,,,,,false,,,,430147.60000000003,430147.39999999997,,430147.3,,430150.597,8,400,,,
sequence,flow.Sequence,4_55,2023-11-01T17:04:34.821Z,,0,,,2780.4899999999907,completion,,,,,false,,,,430147.8,430147.39999999997,427350.244,427353.60000000003,427366.91,430150.597,8,400,,,
trial,html.Screen,4_56_0,2023-11-01T17:04:37.961Z,,0,2,,3137.2029999999795,response,ISIC_0027683.JPG,5,ISIC_0027674.JPG,ISIC_0027683.JPG,false,1,keypress(m),500,433288.2,433287.8,430133.931,430147.89999999997,430150.597,433300.471,8,400,7,,ISIC_0027674.JPG
break,html.Screen,4_56_1,2023-11-01T17:04:37.963Z,,0,,,NaN,,,,,,false,,,,433289.3,433288.89999999997,,433288.39999999997,,433300.471,8,400,,,
break_continue,html.Screen,4_56_2,2023-11-01T17:04:37.963Z,,0,,,NaN,,,,,,false,,,,433290.10000000003,433289.8,,433289.60000000003,,433300.471,8,400,,,
sequence,flow.Sequence,4_56,2023-11-01T17:04:37.964Z,,0,,,3139.2029999999795,completion,,,,,false,,,,433290.3,433289.8,430133.931,430147.89999999997,430150.597,433300.471,8,400,,,
trial,html.Screen,4_57_0,2023-11-01T17:04:41.039Z,,0,2,,3065.5290000000386,response,ISIC_4867043.JPG,6,ISIC_0056921.JPG,ISIC_4867043.JPG,false,1,keypress(m),500,436366.2,436366.00000000006,433283.805,433290.39999999997,433300.471,436367.015,8,400,8,,ISIC_0056921.JPG
break,html.Screen,4_57_1,2023-11-01T17:04:41.040Z,,0,,,NaN,,,,,,false,,,,436366.7,436366.50000000006,,436366.3,,436367.015,8,400,,,
break_continue,html.Screen,4_57_2,2023-11-01T17:04:41.040Z,,0,,,NaN,,,,,,false,,,,436367.00000000006,436366.89999999997,,436366.8,,436367.015,8,400,,,
sequence,flow.Sequence,4_57,2023-11-01T17:04:41.040Z,,0,,,3066.4289999999455,completion,,,,,false,,,,436367.10000000003,436366.89999999997,433283.805,433290.39999999997,433300.471,436367.015,8,400,,,
trial,html.Screen,4_58_0,2023-11-01T17:04:43.828Z,,0,2,,2787.2849999999744,response,ISIC_1863917.JPG,7,ISIC_7227223.JPG,ISIC_7227223.JPG,false,0,keypress(z),500,439154.39999999997,439154.3,436350.349,436367.39999999997,436367.015,439167.369,8,400,9,,ISIC_1863917.JPG
break,html.Screen,4_58_1,2023-11-01T17:04:43.829Z,,0,,,NaN,,,,,,false,,,,439155.39999999997,439155.00000000006,,439154.7,,439167.369,8,400,,,
break_continue,html.Screen,4_58_2,2023-11-01T17:04:43.829Z,,0,,,NaN,,,,,,false,,,,439155.7,439155.60000000003,,439155.50000000006,,439167.369,8,400,,,
sequence,flow.Sequence,4_58,2023-11-01T17:04:43.829Z,,0,,,2788.585000000021,completion,,,,,false,,,,439156.00000000006,439155.60000000003,436350.349,436367.3,436367.015,439167.369,8,400,,,
trial,html.Screen,4_59_0,2023-11-01T17:04:48.408Z,,0,2,,4567.231000000029,response,ISIC_0010653.JPG,5,ISIC_0060827.JPG,ISIC_0060827.JPG,false,0,keypress(z),500,443734.8,443734.60000000003,439150.703,439156.10000000003,439167.369,443750.519,8,400,10,,ISIC_0010653.JPG
break,html.Screen,4_59_1,2023-11-01T17:04:48.409Z,,0,,,NaN,,,,,,false,,,,443735.60000000003,443735.39999999997,,443735.00000000006,,443750.519,8,400,,,
break_continue,html.Screen,4_59_2,2023-11-01T17:04:48.409Z,,0,,,NaN,,,,,,false,,,,443736.00000000006,443735.89999999997,,443735.8,,443750.519,8,400,,,
sequence,flow.Sequence,4_59,2023-11-01T17:04:48.410Z,,0,,,4568.530999999959,completion,,,,,false,,,,443736.2,443735.89999999997,439150.703,439156.00000000006,439167.369,443750.519,8,400,,,
trial,html.Screen,4_60_0,2023-11-01T17:04:52.045Z,,0,2,,3620.6810000000405,response,ISIC_0024894.JPG,7,ISIC_5490352.JPG,ISIC_5490352.JPG,false,0,keypress(z),500,447371.39999999997,447371.2,443733.853,443736.50000000006,443750.519,447383.707,8,400,11,,ISIC_0024894.JPG
break,html.Screen,4_60_1,2023-11-01T17:04:52.045Z,,0,,,NaN,,,,,,false,,,,447372.10000000003,447371.89999999997,,447371.60000000003,,447383.707,8,400,,,
break_continue,html.Screen,4_60_2,2023-11-01T17:04:52.046Z,,0,,,NaN,,,,,,false,,,,447372.60000000003,447372.39999999997,,447372.3,,447383.707,8,400,,,
sequence,flow.Sequence,4_60,2023-11-01T17:04:52.046Z,,0,,,3621.880999999994,completion,,,,,false,,,,447372.7,447372.39999999997,443733.853,443736.39999999997,443750.519,447383.707,8,400,,,
trial,html.Screen,4_61_0,2023-11-01T17:04:56.249Z,,0,2,,4191.69299999997,response,ISIC_0031985.JPG,5,ISIC_0033452.JPG,ISIC_0033452.JPG,false,0,keypress(z),500,451575.60000000003,451575.39999999997,447367.041,447372.89999999997,447383.707,451583.932,8,400,12,,ISIC_0031985.JPG
break,html.Screen,4_61_1,2023-11-01T17:04:56.250Z,,0,,,NaN,,,,,,false,,,,451576.39999999997,451576.10000000003,,451575.8,,451583.932,8,400,,,
break_continue,html.Screen,4_61_2,2023-11-01T17:04:56.250Z,,0,,,NaN,,,,,,false,,,,451576.8,451576.60000000003,,451576.50000000006,,451583.932,8,400,,,
sequence,flow.Sequence,4_61,2023-11-01T17:04:56.250Z,,0,,,4192.89300000004,completion,,,,,false,,,,451576.89999999997,451576.60000000003,447367.041,447372.89999999997,447383.707,451583.932,8,400,,,
trial,html.Screen,4_62_0,2023-11-01T17:04:59.646Z,,0,2,,3388.8680000000168,response,ISIC_7059794.JPG,8,ISIC_6280523.JPG,ISIC_6280523.JPG,false,0,keypress(z),500,454973.10000000003,454972.8,451567.266,451577.10000000003,451583.932,454983.796,8,400,13,,ISIC_7059794.JPG
break,html.Screen,4_62_1,2023-11-01T17:04:59.647Z,,0,,,NaN,,,,,,false,,,,454973.7,454973.60000000003,,454973.3,,454983.796,8,400,,,
break_continue,html.Screen,4_62_2,2023-11-01T17:04:59.647Z,,0,,,NaN,,,,,,false,,,,454974.2,454974.00000000006,,454973.89999999997,,454983.796,8,400,,,
sequence,flow.Sequence,4_62,2023-11-01T17:04:59.648Z,,0,,,3390.0680000000866,completion,,,,,false,,,,454974.3,454974.00000000006,451567.266,451577.00000000006,451583.932,454983.796,8,400,,,
trial,html.Screen,4_63_0,2023-11-01T17:05:03.797Z,,0,2,,4139.603999999992,response,ISIC_7798403.JPG,7,ISIC_0027171.JPG,ISIC_7798403.JPG,false,1,keypress(m),500,459123.60000000003,459123.39999999997,454967.13,454974.50000000006,454983.796,459134.078,8,400,14,,ISIC_0027171.JPG
break,html.Screen,4_63_1,2023-11-01T17:05:03.798Z,,0,,,NaN,,,,,,false,,,,459124.3,459124.00000000006,,459123.7,,459134.078,8,400,,,
break_continue,html.Screen,4_63_2,2023-11-01T17:05:03.798Z,,0,,,NaN,,,,,,false,,,,459124.60000000003,459124.50000000006,,459124.3,,459134.078,8,400,,,
sequence,flow.Sequence,4_63,2023-11-01T17:05:03.798Z,,0,,,4140.704000000085,completion,,,,,false,,,,459124.8,459124.50000000006,454967.13,454974.39999999997,454983.796,459134.078,8,400,,,
trial,html.Screen,4_64_0,2023-11-01T17:05:06.640Z,,0,2,,2832.622000000032,response,ISIC_7075474.JPG,7,ISIC_0061315.JPG,ISIC_7075474.JPG,false,1,keypress(m),500,461966.89999999997,461966.7,459117.412,459125.00000000006,459134.078,461983.964,8,400,15,,ISIC_0061315.JPG
break,html.Screen,4_64_1,2023-11-01T17:05:06.641Z,,0,,,NaN,,,,,,false,,,,461967.60000000003,461967.39999999997,,461967.10000000003,,461983.964,8,400,,,
break_continue,html.Screen,4_64_2,2023-11-01T17:05:06.642Z,,0,,,NaN,,,,,,false,,,,461968.39999999997,461968.2,,461968.00000000006,,461983.964,8,400,,,
sequence,flow.Sequence,4_64,2023-11-01T17:05:06.642Z,,0,,,2834.122000000032,completion,,,,,false,,,,461968.60000000003,461968.2,459117.412,459125.00000000006,459134.078,461983.964,8,400,,,
trial,html.Screen,4_65_0,2023-11-01T17:05:09.784Z,,0,2,,3126.136000000057,response,ISIC_4882389.JPG,7,ISIC_0068975.JPG,ISIC_4882389.JPG,false,1,keypress(m),500,465110.3,465110.10000000003,461967.298,461968.7,461983.964,465117.172,8,400,16,,ISIC_0068975.JPG
break,html.Screen,4_65_1,2023-11-01T17:05:09.784Z,,0,,,NaN,,,,,,false,,,,465111.00000000006,465110.8,,465110.50000000006,,465117.172,8,400,,,
break_continue,html.Screen,4_65_2,2023-11-01T17:05:09.785Z,,0,,,NaN,,,,,,false,,,,465111.39999999997,465111.2,,465111.10000000003,,465117.172,8,400,,,
sequence,flow.Sequence,4_65,2023-11-01T17:05:09.785Z,,0,,,3127.2360000000335,completion,,,,,false,,,,465111.60000000003,465111.2,461967.298,461968.7,461983.964,465117.172,8,400,,,
trial,html.Screen,4_66_0,2023-11-01T17:05:12.909Z,,0,2,,3118.4280000000144,response,ISIC_0003052.JPG,6,ISIC_0030356.JPG,ISIC_0003052.JPG,false,1,keypress(m),500,468235.8,468235.60000000003,465100.506,465111.7,465117.172,468250.38,8,400,17,,ISIC_0030356.JPG
break,html.Screen,4_66_1,2023-11-01T17:05:12.910Z,,0,,,NaN,,,,,,false,,,,468237.00000000006,468236.50000000006,,468236.10000000003,,468250.38,8,400,,,
break_continue,html.Screen,4_66_2,2023-11-01T17:05:12.911Z,,0,,,NaN,,,,,,false,,,,468237.60000000003,468237.39999999997,,468237.2,,468250.38,8,400,,,
sequence,flow.Sequence,4_66,2023-11-01T17:05:12.911Z,,0,,,3120.2279999999446,completion,,,,,false,,,,468237.89999999997,468237.39999999997,465100.506,465111.60000000003,465117.172,468250.38,8,400,,,
trial,html.Screen,4_67_0,2023-11-01T17:05:15.778Z,,0,2,,2853.820000000007,response,ISIC_4798962.JPG,6,ISIC_8929288.JPG,ISIC_8929288.JPG,false,0,keypress(z),500,471104.50000000006,471104.2,468233.714,468238.10000000003,468250.38,471117.404,8,400,18,,ISIC_4798962.JPG
break,html.Screen,4_67_1,2023-11-01T17:05:15.779Z,,0,,,NaN,,,,,,false,,,,471105.3,471105.10000000003,,471104.7,,471117.404,8,400,,,
break_continue,html.Screen,4_67_2,2023-11-01T17:05:15.779Z,,0,,,NaN,,,,,,false,,,,471105.8,471105.60000000003,,471105.50000000006,,471117.404,8,400,,,
sequence,flow.Sequence,4_67,2023-11-01T17:05:15.779Z,,0,,,2855.2200000000303,completion,,,,,false,,,,471105.89999999997,471105.60000000003,468233.714,468238.10000000003,468250.38,471117.404,8,400,,,
trial,html.Screen,4_68_0,2023-11-01T17:05:18.743Z,,0,2,,2952.1960000000545,response,ISIC_0002184.JPG,8,ISIC_0010251.JPG,ISIC_0002184.JPG,false,1,keypress(m),500,474069.89999999997,474069.60000000003,471100.738,471106.2,471117.404,474083.952,8,400,19,,ISIC_0010251.JPG
break,html.Screen,4_68_1,2023-11-01T17:05:18.744Z,,0,,,NaN,,,,,,false,,,,474070.8,474070.50000000006,,474070.2,,474083.952,8,400,,,
break_continue,html.Screen,4_68_2,2023-11-01T17:05:18.745Z,,0,,,NaN,,,,,,false,,,,474071.3,474071.10000000003,,474071.00000000006,,474083.952,8,400,,,
sequence,flow.Sequence,4_68,2023-11-01T17:05:18.745Z,,0,,,2953.6960000000545,completion,,,,,false,,,,474071.50000000006,474071.10000000003,471100.738,471106.00000000006,471117.404,474083.952,8,400,,,
trial,html.Screen,4_69_0,2023-11-01T17:05:21.582Z,,0,2,,2823.6480000000447,response,ISIC_8040024.JPG,8,ISIC_3565564.JPG,ISIC_3565564.JPG,false,0,keypress(z),500,476908.50000000006,476907.60000000003,474067.286,474071.60000000003,474083.952,476917.172,8,400,20,,ISIC_8040024.JPG
break,html.Screen,4_69_1,2023-11-01T17:05:21.583Z,,0,,,NaN,,,,,,false,,,,476909.7,476909.3,,476908.89999999997,,476917.172,8,400,,,
break_continue,html.Screen,4_69_2,2023-11-01T17:05:21.584Z,,0,,,NaN,,,,,,false,,,,476910.3,476910.10000000003,,476909.8,,476917.172,8,400,,,
sequence,flow.Sequence,4_69,2023-11-01T17:05:21.584Z,,0,,,2826.1480000000447,completion,,,,,false,,,,476910.60000000003,476910.10000000003,474067.286,474071.50000000006,474083.952,476917.172,8,400,,,
trial,html.Screen,4_70_0,2023-11-01T17:05:26.009Z,,0,2,,4417.428000000014,response,ISIC_0032960.JPG,7,ISIC_7296201.JPG,ISIC_7296201.JPG,false,0,keypress(z),500,481335.3,481334.60000000003,476900.506,476910.8,476917.172,481350.81,8,400,21,,ISIC_0032960.JPG
break,html.Screen,4_70_1,2023-11-01T17:05:26.009Z,,0,,,NaN,,,,,,false,,,,481336.10000000003,481335.8,,481335.50000000006,,481350.81,8,400,,,
break_continue,html.Screen,4_70_2,2023-11-01T17:05:26.010Z,,0,,,NaN,,,,,,false,,,,481336.39999999997,481336.3,,481336.2,,481350.81,8,400,,,
sequence,flow.Sequence,4_70,2023-11-01T17:05:26.010Z,,0,,,4419.127999999968,completion,,,,,false,,,,481336.7,481336.3,476900.506,476910.8,476917.172,481350.81,8,400,,,
trial,html.Screen,4_71_0,2023-11-01T17:05:29.502Z,,0,2,,3477.2900000000373,response,ISIC_0011260.JPG,5,ISIC_0033775.JPG,ISIC_0011260.JPG,false,1,keypress(m),500,484828.3,484828.10000000003,481334.144,481336.89999999997,481350.81,484834.004,8,400,22,,ISIC_0033775.JPG
break,html.Screen,4_71_1,2023-11-01T17:05:29.502Z,,0,,,NaN,,,,,,false,,,,484829.00000000006,484828.8,,484828.60000000003,,484834.004,8,400,,,
break_continue,html.Screen,4_71_2,2023-11-01T17:05:29.503Z,,0,,,NaN,,,,,,false,,,,484829.60000000003,484829.50000000006,,484829.3,,484834.004,8,400,,,
sequence,flow.Sequence,4_71,2023-11-01T17:05:29.503Z,,0,,,3478.6900000000605,completion,,,,,false,,,,484829.89999999997,484829.50000000006,481334.144,481336.8,481350.81,484834.004,8,400,,,
trial,html.Screen,4_72_0,2023-11-01T17:05:33.459Z,,0,2,,3951.496000000043,response,ISIC_4468549.JPG,6,ISIC_0014189.JPG,ISIC_4468549.JPG,false,1,keypress(m),500,488785.8,488785.50000000006,484817.338,484830.00000000006,484834.004,488800.512,8,400,23,,ISIC_0014189.JPG
break,html.Screen,4_72_1,2023-11-01T17:05:33.461Z,,0,,,NaN,,,,,,false,,,,488787.10000000003,488787.00000000006,,488786.39999999997,,488800.512,8,400,,,
break_continue,html.Screen,4_72_2,2023-11-01T17:05:33.461Z,,0,,,NaN,,,,,,false,,,,488787.89999999997,488787.7,,488787.3,,488800.512,8,400,,,
sequence,flow.Sequence,4_72,2023-11-01T17:05:33.462Z,,0,,,3953.6959999999963,completion,,,,,false,,,,488788.3,488787.7,484817.338,484830.00000000006,484834.004,488800.512,8,400,,,
trial,html.Screen,4_73_0,2023-11-01T17:05:36.398Z,,0,2,,2924.387999999977,response,ISIC_1543544.JPG,8,ISIC_1915890.JPG,ISIC_1915890.JPG,false,0,keypress(z),500,491725.10000000003,491724.89999999997,488783.846,488788.39999999997,488800.512,491734.047,8,400,24,,ISIC_1543544.JPG
break,html.Screen,4_73_1,2023-11-01T17:05:36.399Z,,0,,,NaN,,,,,,false,,,,491725.8,491725.60000000003,,491725.3,,491734.047,8,400,,,
break_continue,html.Screen,4_73_2,2023-11-01T17:05:36.400Z,,0,,,NaN,,,,,,false,,,,491726.2,491726.10000000003,,491725.89999999997,,491734.047,8,400,,,
sequence,flow.Sequence,4_73,2023-11-01T17:05:36.400Z,,0,,,2925.588000000047,completion,,,,,false,,,,491726.39999999997,491726.10000000003,488783.846,488788.39999999997,488800.512,491734.047,8,400,,,
trial,html.Screen,4_74_0,2023-11-01T17:05:40.034Z,,0,2,,3626.4530000000377,response,ISIC_0064044.JPG,5,ISIC_0056041.JPG,ISIC_0064044.JPG,false,1,keypress(m),500,495361.10000000003,495360.50000000006,491717.381,491726.60000000003,491734.047,495367.235,8,400,25,,ISIC_0056041.JPG
break,html.Screen,4_74_1,2023-11-01T17:05:40.036Z,,0,,,NaN,,,,,,false,,,,495362.3,495361.8,,495361.39999999997,,495367.235,8,400,,,
break_continue,html.Screen,4_74_2,2023-11-01T17:05:40.036Z,,0,,,NaN,,,,,,false,,,,495362.89999999997,495362.60000000003,,495362.39999999997,,495367.235,8,400,,,
sequence,flow.Sequence,4_74,2023-11-01T17:05:40.036Z,,0,,,3628.5530000000144,completion,,,,,false,,,,495363.10000000003,495362.60000000003,491717.381,491726.50000000006,491734.047,495367.235,8,400,,,
trial,html.Screen,4_75_0,2023-11-01T17:05:43.022Z,,0,2,,2980.765000000072,response,ISIC_1470245.JPG,7,ISIC_4119029.JPG,ISIC_1470245.JPG,false,1,keypress(m),500,498348.2,498348.00000000006,495350.569,495363.3,495367.235,498350.449,8,400,26,,ISIC_4119029.JPG
break,html.Screen,4_75_1,2023-11-01T17:05:43.022Z,,0,,,NaN,,,,,,false,,,,498348.89999999997,498348.7,,498348.39999999997,,498350.449,8,400,,,
break_continue,html.Screen,4_75_2,2023-11-01T17:05:43.023Z,,0,,,NaN,,,,,,false,,,,498349.3,498349.2,,498349.00000000006,,498350.449,8,400,,,
sequence,flow.Sequence,4_75,2023-11-01T17:05:43.023Z,,0,,,2981.9650000000256,completion,,,,,false,,,,498349.50000000006,498349.2,495350.569,495363.2,495367.235,498350.449,8,400,,,
trial,html.Screen,4_76_0,2023-11-01T17:05:46.354Z,,0,2,,3329.4509999999427,response,ISIC_0830131.JPG,5,ISIC_0032726.JPG,ISIC_0830131.JPG,false,1,keypress(m),500,501680.10000000003,501679.89999999997,498333.783,498349.7,498350.449,501700.741,8,400,27,,ISIC_0032726.JPG
break,html.Screen,4_76_1,2023-11-01T17:05:46.354Z,,0,,,NaN,,,,,,false,,,,501681.00000000006,501680.7,,501680.39999999997,,501700.741,8,400,,,
break_continue,html.Screen,4_76_2,2023-11-01T17:05:46.355Z,,0,,,NaN,,,,,,false,,,,501681.39999999997,501681.2,,501681.2,,501700.741,8,400,,,
sequence,flow.Sequence,4_76,2023-11-01T17:05:46.355Z,,0,,,3330.7509999999893,completion,,,,,false,,,,501681.60000000003,501681.2,498333.783,498349.7,498350.449,501700.741,8,400,,,
trial,html.Screen,4_77_0,2023-11-01T17:05:50.072Z,,0,2,,3696.7590000000782,response,ISIC_0062812.JPG,7,ISIC_7242542.JPG,ISIC_0062812.JPG,false,1,keypress(m),500,505398.2,505397.50000000006,501684.075,501681.7,501700.741,505417.259,8,400,28,,ISIC_7242542.JPG
break,html.Screen,4_77_1,2023-11-01T17:05:50.073Z,,0,,,NaN,,,,,,false,,,,505399.3,505398.89999999997,,505398.60000000003,,505417.259,8,400,,,
break_continue,html.Screen,4_77_2,2023-11-01T17:05:50.073Z,,0,,,NaN,,,,,,false,,,,505400.10000000003,505399.8,,505399.60000000003,,505417.259,8,400,,,
sequence,flow.Sequence,4_77,2023-11-01T17:05:50.074Z,,0,,,3699.0590000000084,completion,,,,,false,,,,505400.39999999997,505399.8,501684.075,501681.7,501700.741,505417.259,8,400,,,
trial,html.Screen,4_78_0,2023-11-01T17:05:53.181Z,,0,2,,3089.741000000038,response,ISIC_0030563.JPG,8,ISIC_4918571.JPG,ISIC_4918571.JPG,false,0,keypress(z),500,508507.3,508507.00000000006,505400.593,505400.60000000003,505417.259,508517.135,8,400,29,,ISIC_0030563.JPG
break,html.Screen,4_78_1,2023-11-01T17:05:53.181Z,,0,,,NaN,,,,,,false,,,,508508.00000000006,508507.89999999997,,508507.50000000006,,508517.135,8,400,,,
break_continue,html.Screen,4_78_2,2023-11-01T17:05:53.182Z,,0,,,NaN,,,,,,false,,,,508508.39999999997,508508.3,,508508.10000000003,,508517.135,8,400,,,
sequence,flow.Sequence,4_78,2023-11-01T17:05:53.182Z,,0,,,3091.0409999999683,completion,,,,,false,,,,508508.60000000003,508508.3,505400.593,505400.50000000006,505417.259,508517.135,8,400,,,
trial,html.Screen,4_79_0,2023-11-01T17:05:56.242Z,,0,2,,3051.164999999979,response,ISIC_0027693.JPG,6,ISIC_0030193.JPG,ISIC_0030193.JPG,false,0,keypress(z),500,511568.50000000006,511568.3,508500.469,508508.7,508517.135,511583.679,8,400,30,,ISIC_0027693.JPG
break,html.Screen,4_79_1,2023-11-01T17:05:56.243Z,,0,,,NaN,,,,,,false,,,,511569.2,511569.00000000006,,511568.7,,511583.679,8,400,,,
break_continue,html.Screen,4_79_2,2023-11-01T17:05:56.243Z,,0,,,NaN,,,,,,false,,,,511569.60000000003,511569.50000000006,,511569.3,,511583.679,8,400,,,
sequence,flow.Sequence,4_79,2023-11-01T17:05:56.243Z,,0,,,3052.365000000049,completion,,,,,false,,,,511569.7,511569.50000000006,508500.469,508508.7,508517.135,511583.679,8,400,,,
trial,html.Screen,4_80_0,2023-11-01T17:05:59.388Z,,0,2,,3130.6209999999846,response,ISIC_0054663.JPG,8,ISIC_0033047.JPG,ISIC_0054663.JPG,false,1,keypress(m),500,514714.39999999997,514714.3,511567.013,511570.00000000006,511583.679,514717.418,8,400,31,,ISIC_0033047.JPG
break,html.Screen,4_80_1,2023-11-01T17:05:59.389Z,,0,,,NaN,,,,,,false,,,,514715.10000000003,514715.00000000006,,514714.60000000003,,514717.418,8,400,,,
break_continue,html.Screen,4_80_2,2023-11-01T17:05:59.389Z,,0,,,NaN,,,,,,false,,,,514715.60000000003,514715.39999999997,,514715.3,,514717.418,8,400,,,
sequence,flow.Sequence,4_80,2023-11-01T17:05:59.389Z,,0,,,3131.7209999999614,completion,,,,,false,,,,514715.8,514715.39999999997,511567.013,511569.89999999997,511583.679,514717.418,8,400,,,
trial,html.Screen,4_81_0,2023-11-01T17:06:03.220Z,,0,2,,3828.48199999996,response,ISIC_1200192.JPG,5,ISIC_0025155.JPG,ISIC_0025155.JPG,false,0,keypress(z),500,518546.2,518545.89999999997,514700.752,514715.89999999997,514717.418,518567.264,8,400,32,,ISIC_1200192.JPG
break,html.Screen,4_81_1,2023-11-01T17:06:03.220Z,,0,,,NaN,,,,,,false,,,,518547.00000000006,518546.7,,518546.39999999997,,518567.264,8,400,,,
break_continue,html.Screen,4_81_2,2023-11-01T17:06:03.221Z,,0,,,NaN,,,,,,false,,,,518547.39999999997,518547.2,,518547.00000000006,,518567.264,8,400,,,
sequence,flow.Sequence,4_81,2023-11-01T17:06:03.221Z,,0,,,3829.7820000000065,completion,,,,,false,,,,518547.50000000006,518547.2,514700.752,514715.89999999997,514717.418,518567.264,8,400,,,
trial,html.Screen,4_82_0,2023-11-01T17:06:06.169Z,,0,2,,2928.2360000000335,response,ISIC_6441128.JPG,8,ISIC_0001792.JPG,ISIC_0001792.JPG,false,0,keypress(z),500,521495.7,521495.50000000006,518550.598,518547.7,518567.264,521517.146,8,400,33,,ISIC_6441128.JPG
break,html.Screen,4_82_1,2023-11-01T17:06:06.170Z,,0,,,NaN,,,,,,false,,,,521496.39999999997,521496.2,,521495.89999999997,,521517.146,8,400,,,
break_continue,html.Screen,4_82_2,2023-11-01T17:06:06.170Z,,0,,,NaN,,,,,,false,,,,521496.8,521496.60000000003,,521496.50000000006,,521517.146,8,400,,,
sequence,flow.Sequence,4_82,2023-11-01T17:06:06.170Z,,0,,,2929.3360000000102,completion,,,,,false,,,,521496.89999999997,521496.60000000003,518550.598,518547.60000000003,518567.264,521517.146,8,400,,,
trial,html.Screen,4_83_0,2023-11-01T17:06:09.283Z,,0,2,,3092.353999999992,response,ISIC_4222275.JPG,6,ISIC_4459125.JPG,ISIC_4459125.JPG,false,0,keypress(z),500,524609.7,524609.5,521500.48,521497.10000000003,521517.146,524634.123,8,400,34,,ISIC_4222275.JPG
break,html.Screen,4_83_1,2023-11-01T17:06:09.284Z,,0,,,NaN,,,,,,false,,,,524610.3999999999,524610.2,,524609.8999999999,,524634.123,8,400,,,
break_continue,html.Screen,4_83_2,2023-11-01T17:06:09.284Z,,0,,,NaN,,,,,,false,,,,524610.7,524610.6000000001,,524610.3999999999,,524634.123,8,400,,,
sequence,flow.Sequence,4_83,2023-11-01T17:06:09.284Z,,0,,,3093.454000000085,completion,,,,,false,,,,524610.8999999999,524610.6000000001,521500.48,521497.10000000003,521517.146,524634.123,8,400,,,
trial,html.Screen,4_84_0,2023-11-01T17:06:12.220Z,,0,2,,2911.7769999998854,response,ISIC_9267202.JPG,7,ISIC_7526530.JPG,ISIC_9267202.JPG,false,1,keypress(m),500,527546.1000000001,527545.8999999999,524617.457,524611,524634.123,527550.673,8,400,35,,ISIC_7526530.JPG
break,html.Screen,4_84_1,2023-11-01T17:06:12.220Z,,0,,,NaN,,,,,,false,,,,527546.8999999999,527546.7,,527546.3,,527550.673,8,400,,,
break_continue,html.Screen,4_84_2,2023-11-01T17:06:12.221Z,,0,,,NaN,,,,,,false,,,,527547.3,527547.1000000001,,527547,,527550.673,8,400,,,
sequence,flow.Sequence,4_84,2023-11-01T17:06:12.221Z,,0,,,2912.9770000000717,completion,,,,,false,,,,527547.5,527547.1000000001,524617.457,524611,524634.123,527550.673,8,400,,,
trial,html.Screen,4_85_0,2023-11-01T17:06:15.621Z,,0,2,,3397.027000000002,response,ISIC_2583592.JPG,7,ISIC_0053659.JPG,ISIC_2583592.JPG,false,1,keypress(m),500,530948,530947.7,527534.007,527547.6000000001,527550.673,530950.537,8,400,36,,ISIC_0053659.JPG
break,html.Screen,4_85_1,2023-11-01T17:06:15.622Z,,0,,,NaN,,,,,,false,,,,530948.7,530948.5,,530948.2,,530950.537,8,400,,,
break_continue,html.Screen,4_85_2,2023-11-01T17:06:15.623Z,,0,,,NaN,,,,,,false,,,,530949.1000000001,530949,,530948.8,,530950.537,8,400,,,
sequence,flow.Sequence,4_85,2023-11-01T17:06:15.623Z,,0,,,3398.3270000000484,completion,,,,,false,,,,530949.3,530949,527534.007,527547.6000000001,527550.673,530950.537,8,400,,,
trial,html.Screen,4_86_0,2023-11-01T17:06:19.103Z,,0,2,,3478.3629999998957,response,ISIC_7013005.JPG,6,ISIC_3814807.JPG,ISIC_7013005.JPG,false,1,keypress(m),500,534429.2,534428.8999999999,530933.871,530949.3999999999,530950.537,534434.115,8,400,37,,ISIC_3814807.JPG
break,html.Screen,4_86_1,2023-11-01T17:06:19.103Z,,0,,,NaN,,,,,,false,,,,534430,534429.7,,534429.3,,534434.115,8,400,,,
break_continue,html.Screen,4_86_2,2023-11-01T17:06:19.104Z,,0,,,NaN,,,,,,false,,,,534431,534430.8999999999,,534430.1000000001,,534434.115,8,400,,,
sequence,flow.Sequence,4_86,2023-11-01T17:06:19.105Z,,0,,,3480.3629999998957,completion,,,,,false,,,,534431.2,534430.8999999999,530933.871,530949.3999999999,530950.537,534434.115,8,400,,,
trial,html.Screen,4_87_0,2023-11-01T17:06:22.230Z,,0,2,,3122.4850000001024,response,ISIC_1894133.JPG,8,ISIC_0032331.JPG,ISIC_1894133.JPG,false,1,keypress(m),500,537557,537556.6000000001,534417.449,534431.7,534434.115,537567.323,8,400,38,,ISIC_0032331.JPG
break,html.Screen,4_87_1,2023-11-01T17:06:22.231Z,,0,,,NaN,,,,,,false,,,,537558,537557.7,,537557.3,,537567.323,8,400,,,
break_continue,html.Screen,4_87_2,2023-11-01T17:06:22.233Z,,0,,,NaN,,,,,,false,,,,537559.1000000001,537558.8999999999,,537558.7,,537567.323,8,400,,,
sequence,flow.Sequence,4_87,2023-11-01T17:06:22.233Z,,0,,,3124.784999999916,completion,,,,,false,,,,537559.3,537558.8999999999,534417.449,534431.6000000001,534434.115,537567.323,8,400,,,
trial,html.Screen,4_88_0,2023-11-01T17:06:24.959Z,,0,2,,2717.3769999999786,response,ISIC_0024792.JPG,8,ISIC_4789377.JPG,ISIC_4789377.JPG,false,0,keypress(z),500,540285,540284.7,537550.657,537559.3999999999,537567.323,540300.547,8,400,39,,ISIC_0024792.JPG
break,html.Screen,4_88_1,2023-11-01T17:06:24.959Z,,0,,,NaN,,,,,,false,,,,540285.8,540285.6000000001,,540285.3,,540300.547,8,400,,,
break_continue,html.Screen,4_88_2,2023-11-01T17:06:24.960Z,,0,,,NaN,,,,,,false,,,,540286.3,540286.2,,540286,,540300.547,8,400,,,
sequence,flow.Sequence,4_88,2023-11-01T17:06:24.960Z,,0,,,2718.8769999999786,completion,,,,,false,,,,540286.5,540286.2,537550.657,537559.3999999999,537567.323,540300.547,8,400,,,
trial,html.Screen,4_89_0,2023-11-01T17:06:27.955Z,,0,2,,2980.8529999998864,response,ISIC_0001129.JPG,5,ISIC_9699728.JPG,ISIC_9699728.JPG,false,0,keypress(z),500,543281.7,543281.3999999999,540283.881,540286.6000000001,540300.547,543283.761,8,400,40,,ISIC_0001129.JPG
break,html.Screen,4_89_1,2023-11-01T17:06:27.956Z,,0,,,NaN,,,,,,false,,,,543282.3999999999,543282.2,,543281.8999999999,,543283.761,8,400,,,
break_continue,html.Screen,4_89_2,2023-11-01T17:06:27.956Z,,0,,,NaN,,,,,,false,,,,543282.7,543282.6000000001,,543282.5,,543283.761,8,400,,,
sequence,flow.Sequence,4_89,2023-11-01T17:06:27.956Z,,0,,,2982.0530000000726,completion,,,,,false,,,,543282.8999999999,543282.6000000001,540283.881,540286.6000000001,540300.547,543283.761,8,400,,,
trial,html.Screen,4_90_0,2023-11-01T17:06:31.767Z,,0,2,,3809.13899999985,response,ISIC_9646599.JPG,8,ISIC_0071951.JPG,ISIC_9646599.JPG,false,1,keypress(m),500,547093.5,547092.8999999999,543267.095,543283,543283.761,547100.675,8,400,41,,ISIC_0071951.JPG
break,html.Screen,4_90_1,2023-11-01T17:06:31.768Z,,0,,,NaN,,,,,,false,,,,547094.8,547094.5,,547093.7,,547100.675,8,400,,,
break_continue,html.Screen,4_90_2,2023-11-01T17:06:31.769Z,,0,,,NaN,,,,,,false,,,,547095.3,547095.1000000001,,547095,,547100.675,8,400,,,
sequence,flow.Sequence,4_90,2023-11-01T17:06:31.770Z,,0,,,3811.3390000000363,completion,,,,,false,,,,547096.8,547095.1000000001,543267.095,543283,543283.761,547100.675,8,400,,,
trial,html.Screen,4_91_0,2023-11-01T17:06:34.927Z,,0,2,,3153.024999999907,response,ISIC_2198823.JPG,6,ISIC_0028723.JPG,ISIC_2198823.JPG,false,1,keypress(m),500,550253.8999999999,550253.7,547084.009,547097,547100.675,550283.881,8,400,42,,ISIC_0028723.JPG
break,html.Screen,4_91_1,2023-11-01T17:06:34.928Z,,0,,,NaN,,,,,,false,,,,550254.8,550254.5,,550254.2,,550283.881,8,400,,,
break_continue,html.Screen,4_91_2,2023-11-01T17:06:34.929Z,,0,,,NaN,,,,,,false,,,,550255.6000000001,550255.3999999999,,550254.8999999999,,550283.881,8,400,,,
sequence,flow.Sequence,4_91,2023-11-01T17:06:34.929Z,,0,,,3154.7249999998603,completion,,,,,false,,,,550255.8,550255.3999999999,547084.009,547096.8999999999,547100.675,550283.881,8,400,,,
trial,html.Screen,4_92_0,2023-11-01T17:06:38.006Z,,0,2,,3047.8189999999013,response,ISIC_9476244.JPG,5,ISIC_2514994.JPG,ISIC_9476244.JPG,false,1,keypress(m),500,553332.3,553331.7,550267.215,550256,550283.881,553350.425,8,400,43,,ISIC_2514994.JPG
break,html.Screen,4_92_1,2023-11-01T17:06:38.007Z,,0,,,NaN,,,,,,false,,,,553333.5,553333,,553332.7,,553350.425,8,400,,,
break_continue,html.Screen,4_92_2,2023-11-01T17:06:38.008Z,,0,,,NaN,,,,,,false,,,,553334.1000000001,553333.8999999999,,553333.7,,553350.425,8,400,,,
sequence,flow.Sequence,4_92,2023-11-01T17:06:38.008Z,,0,,,3050.0189999998547,completion,,,,,false,,,,553334.3999999999,553333.8999999999,550267.215,550255.8999999999,550283.881,553350.425,8,400,,,
trial,html.Screen,4_93_0,2023-11-01T17:06:40.828Z,,0,2,,2803.5749999999534,response,ISIC_1985763.JPG,5,ISIC_0046351.JPG,ISIC_1985763.JPG,false,1,keypress(m),500,556154.3,556154,553333.759,553334.6000000001,553350.425,556167.503,8,400,44,,ISIC_0046351.JPG
break,html.Screen,4_93_1,2023-11-01T17:06:40.828Z,,0,,,NaN,,,,,,false,,,,556154.8999999999,556154.7,,556154.3999999999,,556167.503,8,400,,,
break_continue,html.Screen,4_93_2,2023-11-01T17:06:40.829Z,,0,,,NaN,,,,,,false,,,,556155.3,556155.2,,556155,,556167.503,8,400,,,
sequence,flow.Sequence,4_93,2023-11-01T17:06:40.829Z,,0,,,2804.774999999907,completion,,,,,false,,,,556155.5,556155.2,553333.759,553334.5,553350.425,556167.503,8,400,,,
trial,html.Screen,4_94_0,2023-11-01T17:06:45.471Z,,0,2,,4629.996999999974,response,ISIC_0026996.JPG,7,ISIC_0031368.JPG,ISIC_0026996.JPG,false,1,keypress(m),500,560797.8,560797.5,556150.837,556155.6000000001,556167.503,560800.651,8,400,45,,ISIC_0031368.JPG
break,html.Screen,4_94_1,2023-11-01T17:06:45.473Z,,0,,,NaN,,,,,,false,,,,560799,560798.8,,560798.5,,560800.651,8,400,,,
break_continue,html.Screen,4_94_2,2023-11-01T17:06:45.473Z,,0,,,NaN,,,,,,false,,,,560799.5,560799.3,,560799.2,,560800.651,8,400,,,
sequence,flow.Sequence,4_94,2023-11-01T17:06:45.473Z,,0,,,4631.7970000000205,completion,,,,,false,,,,560799.7,560799.3,556150.837,556155.6000000001,556167.503,560800.651,8,400,,,
trial,html.Screen,4_95_0,2023-11-01T17:06:49.013Z,,0,2,,3538.149000000092,response,ISIC_5213829.JPG,9,ISIC_0010923.JPG,ISIC_5213829.JPG,false,1,keypress(m),500,564339,564338.8,560783.985,560799.8,560800.651,564350.509,8,400,46,,ISIC_0010923.JPG
break,html.Screen,4_95_1,2023-11-01T17:06:49.013Z,,0,,,NaN,,,,,,false,,,,564339.7,564339.6000000001,,564339.2,,564350.509,8,400,,,
break_continue,html.Screen,4_95_2,2023-11-01T17:06:49.014Z,,0,,,NaN,,,,,,false,,,,564340.2,564340.1000000001,,564339.8999999999,,564350.509,8,400,,,
sequence,flow.Sequence,4_95,2023-11-01T17:06:49.014Z,,0,,,3539.4490000001388,completion,,,,,false,,,,564340.5,564340.1000000001,560783.985,560799.8,560800.651,564350.509,8,400,,,
trial,html.Screen,4_96_0,2023-11-01T17:06:52.524Z,,0,2,,3499.6909999999916,response,ISIC_3028754.JPG,7,ISIC_0069851.JPG,ISIC_0069851.JPG,false,0,keypress(z),500,567850.3999999999,567850.2,564333.843,564340.6000000001,564350.509,567867.334,8,400,47,,ISIC_3028754.JPG
break,html.Screen,4_96_1,2023-11-01T17:06:52.525Z,,0,,,NaN,,,,,,false,,,,567851.1000000001,567850.8999999999,,567850.6000000001,,567867.334,8,400,,,
break_continue,html.Screen,4_96_2,2023-11-01T17:06:52.525Z,,0,,,NaN,,,,,,false,,,,567852,567851.7,,567851.3,,567867.334,8,400,,,
sequence,flow.Sequence,4_96,2023-11-01T17:06:52.526Z,,0,,,3501.1909999999916,completion,,,,,false,,,,567852.1000000001,567851.7,564333.843,564340.5,564350.509,567867.334,8,400,,,
trial,html.Screen,4_97_0,2023-11-01T17:06:56.515Z,,0,2,,3973.8659999999218,response,ISIC_9713706.JPG,8,ISIC_0062991.JPG,ISIC_9713706.JPG,false,1,keypress(m),500,571841.3999999999,571841.2,567850.668,567852.3,567867.334,571850.508,8,400,48,,ISIC_0062991.JPG
break,html.Screen,4_97_1,2023-11-01T17:06:56.516Z,,0,,,NaN,,,,,,false,,,,571842.1000000001,571841.8999999999,,571841.5,,571850.508,8,400,,,
break_continue,html.Screen,4_97_2,2023-11-01T17:06:56.516Z,,0,,,NaN,,,,,,false,,,,571842.5,571842.3,,571842.2,,571850.508,8,400,,,
sequence,flow.Sequence,4_97,2023-11-01T17:06:56.516Z,,0,,,3974.966000000015,completion,,,,,false,,,,571842.7,571842.3,567850.668,567852.3,567867.334,571850.508,8,400,,,
trial,html.Screen,4_98_0,2023-11-01T17:07:00.009Z,,0,2,,3484.5919999998296,response,ISIC_0026300.JPG,8,ISIC_4629662.JPG,ISIC_4629662.JPG,false,0,keypress(z),500,575335.5999999999,575335.0999999999,571833.842,571842.8999999999,571850.508,575350.893,8,400,49,,ISIC_0026300.JPG
break,html.Screen,4_98_1,2023-11-01T17:07:00.010Z,,0,,,NaN,,,,,,false,,,,575336.8999999999,575336.7,,575336.3,,575350.893,8,400,,,
break_continue,html.Screen,4_98_2,2023-11-01T17:07:00.011Z,,0,,,NaN,,,,,,false,,,,575337.7,575337.3,,575337,,575350.893,8,400,,,
sequence,flow.Sequence,4_98,2023-11-01T17:07:00.012Z,,0,,,3486.792000000016,completion,,,,,false,,,,575338,575337.3,571833.842,571842.8,571850.508,575350.893,8,400,,,
trial,html.Screen,4_99_0,2023-11-01T17:07:03.473Z,,0,2,,3448.2069999998203,response,ISIC_5736979.JPG,7,ISIC_0010734.JPG,ISIC_5736979.JPG,false,1,keypress(m),500,578799.2,578799.0999999999,575334.227,575338.3,575350.893,578800.755,8,400,50,,ISIC_0010734.JPG
break,html.Screen,4_99_1,2023-11-01T17:07:13.460Z,,0,,,9999.93200000003,timeout,,,,,false,,,,588786.5,588784.021,578784.089,578799.5,578800.755,588800.687,8,400,,,
break_continue,html.Screen,4_99_2,2023-11-01T17:07:14.120Z,,0,,,622.4129999998258,response,,,,,false,continue,keypress(Space),,589446.0999999999,589423.0999999999,588784.021,588786.7,588800.687,589467.327,8,400,,,
sequence,flow.Sequence,4_99,2023-11-01T17:07:14.120Z,,0,,,14072.20699999982,completion,,,,,false,,,,589446.3,589423.0999999999,575334.227,575338.3,575350.893,589467.327,8,400,,,
trial,html.Screen,4_100_0,2023-11-01T17:07:17.130Z,,0,3,,2989.372999999905,response,ISIC_5620802.JPG,8,ISIC_8130596.JPG,ISIC_5620802.JPG,false,1,keypress(m),500,592456.8999999999,592456.7,589450.661,589446.3,589467.327,592467.207,8,400,1,,ISIC_8130596.JPG
break,html.Screen,4_100_1,2023-11-01T17:07:17.131Z,,0,,,NaN,,,,,,false,,,,592457.5999999999,592457.3999999999,,592457.2,,592467.207,8,400,,,
break_continue,html.Screen,4_100_2,2023-11-01T17:07:17.132Z,,0,,,NaN,,,,,,false,,,,592458.0999999999,592457.8999999999,,592457.8,,592467.207,8,400,,,
sequence,flow.Sequence,4_100,2023-11-01T17:07:17.132Z,,0,,,2990.5729999998584,completion,,,,,false,,,,592458.2,592457.8999999999,589450.661,589446.3,589467.327,592467.207,8,400,,,
trial,html.Screen,4_101_0,2023-11-01T17:07:20.066Z,,0,3,,2924.892999999807,response,ISIC_6676647.JPG,8,ISIC_9072309.JPG,ISIC_9072309.JPG,false,0,keypress(z),500,595392.5,595392.0999999999,592450.541,592458.3999999999,592467.207,595400.913,8,400,2,,ISIC_6676647.JPG
break,html.Screen,4_101_1,2023-11-01T17:07:20.067Z,,0,,,NaN,,,,,,false,,,,595393.3,595393.0999999999,,595392.7,,595400.913,8,400,,,
break_continue,html.Screen,4_101_2,2023-11-01T17:07:20.067Z,,0,,,NaN,,,,,,false,,,,595393.8,595393.7,,595393.5,,595400.913,8,400,,,
sequence,flow.Sequence,4_101,2023-11-01T17:07:20.068Z,,0,,,2926.4929999999003,completion,,,,,false,,,,595394.0999999999,595393.7,592450.541,592458.3999999999,592467.207,595400.913,8,400,,,
trial,html.Screen,4_102_0,2023-11-01T17:07:23.128Z,,0,3,,3053.287000000011,response,ISIC_0068259.JPG,6,ISIC_2108849.JPG,ISIC_2108849.JPG,false,0,keypress(z),500,598454.3999999999,598454.2,595384.247,595394.3,595400.913,598467.457,8,400,3,,ISIC_0068259.JPG
break,html.Screen,4_102_1,2023-11-01T17:07:23.129Z,,0,,,NaN,,,,,,false,,,,598455.2,598455,,598454.7,,598467.457,8,400,,,
break_continue,html.Screen,4_102_2,2023-11-01T17:07:23.129Z,,0,,,NaN,,,,,,false,,,,598455.7,598455.5,,598455.3999999999,,598467.457,8,400,,,
sequence,flow.Sequence,4_102,2023-11-01T17:07:23.129Z,,0,,,3054.5870000000577,completion,,,,,false,,,,598455.8,598455.5,595384.247,595394.2,595400.913,598467.457,8,400,,,
trial,html.Screen,4_103_0,2023-11-01T17:07:25.998Z,,0,3,,2856.542999999947,response,ISIC_4699066.JPG,7,ISIC_7498132.JPG,ISIC_7498132.JPG,false,0,keypress(z),500,601324.2,601324,598450.791,598456,598467.457,601334.009,8,400,4,,ISIC_4699066.JPG
break,html.Screen,4_103_1,2023-11-01T17:07:25.999Z,,0,,,NaN,,,,,,false,,,,601325.0999999999,601324.8999999999,,601324.5999999999,,601334.009,8,400,,,
break_continue,html.Screen,4_103_2,2023-11-01T17:07:26.000Z,,0,,,NaN,,,,,,false,,,,601325.8999999999,601325.3999999999,,601325.3,,601334.009,8,400,,,
sequence,flow.Sequence,4_103,2023-11-01T17:07:26.000Z,,0,,,2857.942999999854,completion,,,,,false,,,,601326.2,601325.3999999999,598450.791,598455.8999999999,598467.457,601334.009,8,400,,,
trial,html.Screen,4_104_0,2023-11-01T17:07:29.638Z,,0,3,,3630.2910000000848,response,ISIC_1920685.JPG,8,ISIC_2634356.JPG,ISIC_2634356.JPG,false,0,keypress(z),500,604964.5,604964.3,601317.343,601326.3999999999,601334.009,604967.197,8,400,5,,ISIC_1920685.JPG
break,html.Screen,4_104_1,2023-11-01T17:07:29.639Z,,0,,,NaN,,,,,,false,,,,604965.3,604965.0999999999,,604964.7,,604967.197,8,400,,,
break_continue,html.Screen,4_104_2,2023-11-01T17:07:29.639Z,,0,,,NaN,,,,,,false,,,,604965.5999999999,604965.5,,604965.3999999999,,604967.197,8,400,,,
sequence,flow.Sequence,4_104,2023-11-01T17:07:29.639Z,,0,,,3631.491000000038,completion,,,,,false,,,,604965.8,604965.5,601317.343,601326.3,601334.009,604967.197,8,400,,,
trial,html.Screen,4_105_0,2023-11-01T17:07:32.416Z,,0,3,,2775.0029999999097,response,ISIC_3734674.JPG,10,ISIC_0054941.JPG,ISIC_3734674.JPG,false,1,keypress(m),500,607742.3999999999,607742.2,604950.531,604966,604967.197,607750.815,8,400,6,,ISIC_0054941.JPG
break,html.Screen,4_105_1,2023-11-01T17:07:32.417Z,,0,,,NaN,,,,,,false,,,,607743.0999999999,607742.8999999999,,607742.5999999999,,607750.815,8,400,,,
break_continue,html.Screen,4_105_2,2023-11-01T17:07:32.417Z,,0,,,NaN,,,,,,false,,,,607743.5,607743.3999999999,,607743.3,,607750.815,8,400,,,
sequence,flow.Sequence,4_105,2023-11-01T17:07:32.417Z,,0,,,2776.202999999863,completion,,,,,false,,,,607743.7,607743.3999999999,604950.531,604965.8999999999,604967.197,607750.815,8,400,,,
trial,html.Screen,4_106_0,2023-11-01T17:07:35.604Z,,0,3,,3179.0849999999627,response,ISIC_4734950.JPG,7,ISIC_0024967.JPG,ISIC_4734950.JPG,false,1,keypress(m),500,610930.0999999999,610929.8999999999,607734.149,607743.8999999999,607750.815,610934.021,8,400,7,,ISIC_0024967.JPG
break,html.Screen,4_106_1,2023-11-01T17:07:35.604Z,,0,,,NaN,,,,,,false,,,,610930.8,610930.5999999999,,610930.3999999999,,610934.021,8,400,,,
break_continue,html.Screen,4_106_2,2023-11-01T17:07:35.605Z,,0,,,NaN,,,,,,false,,,,610931.3,610931.0999999999,,610931,,610934.021,8,400,,,
sequence,flow.Sequence,4_106,2023-11-01T17:07:35.605Z,,0,,,3180.284999999916,completion,,,,,false,,,,610931.3999999999,610931.0999999999,607734.149,607743.8,607750.815,610934.021,8,400,,,
trial,html.Screen,4_107_0,2023-11-01T17:07:38.426Z,,0,3,,2818.0789999999106,response,ISIC_0027391.JPG,6,ISIC_0150363.JPG,ISIC_0150363.JPG,false,0,keypress(z),500,613752.3999999999,613752.0999999999,610917.355,610931.5,610934.021,613767.241,8,400,8,,ISIC_0027391.JPG
break,html.Screen,4_107_1,2023-11-01T17:07:38.427Z,,0,,,NaN,,,,,,false,,,,613753.2,613753,,613752.7,,613767.241,8,400,,,
break_continue,html.Screen,4_107_2,2023-11-01T17:07:38.427Z,,0,,,NaN,,,,,,false,,,,613753.5999999999,613753.3999999999,,613753.3999999999,,613767.241,8,400,,,
sequence,flow.Sequence,4_107,2023-11-01T17:07:38.427Z,,0,,,2819.378999999957,completion,,,,,false,,,,613753.8,613753.3999999999,610917.355,610931.5,610934.021,613767.241,8,400,,,
trial,html.Screen,4_108_0,2023-11-01T17:07:41.342Z,,0,3,,2901.358999999822,response,ISIC_5234605.JPG,5,ISIC_4076162.JPG,ISIC_4076162.JPG,false,0,keypress(z),500,616668.8,616668.5999999999,613750.575,613754,613767.241,616684.157,8,400,9,,ISIC_5234605.JPG
break,html.Screen,4_108_1,2023-11-01T17:07:41.344Z,,0,,,NaN,,,,,,false,,,,616670.0999999999,616669.8,,616669.3999999999,,616684.157,8,400,,,
break_continue,html.Screen,4_108_2,2023-11-01T17:07:41.345Z,,0,,,NaN,,,,,,false,,,,616670.8999999999,616670.7,,616670.5,,616684.157,8,400,,,
sequence,flow.Sequence,4_108,2023-11-01T17:07:41.345Z,,0,,,2903.4589999999152,completion,,,,,false,,,,616671.2,616670.7,613750.575,613753.8999999999,613767.241,616684.157,8,400,,,
trial,html.Screen,4_109_0,2023-11-01T17:07:44.250Z,,0,3,,2892.14300000004,response,ISIC_0014598.JPG,7,ISIC_0067443.JPG,ISIC_0014598.JPG,false,1,keypress(m),500,619576.5,619576.3,616667.491,616671.3999999999,616684.157,619584.041,8,400,10,,ISIC_0067443.JPG
break,html.Screen,4_109_1,2023-11-01T17:07:44.252Z,,0,,,NaN,,,,,,false,,,,619578,619577.5,,619577,,619584.041,8,400,,,
break_continue,html.Screen,4_109_2,2023-11-01T17:07:44.252Z,,0,,,NaN,,,,,,false,,,,619578.5,619578.3,,619578.0999999999,,619584.041,8,400,,,
sequence,flow.Sequence,4_109,2023-11-01T17:07:44.253Z,,0,,,2894.14300000004,completion,,,,,false,,,,619578.8999999999,619578.3,616667.491,616671.3,616684.157,619584.041,8,400,,,
trial,html.Screen,4_110_0,2023-11-01T17:07:46.902Z,,0,3,,2643.2590000000782,response,ISIC_3391427.JPG,7,ISIC_0069865.JPG,ISIC_3391427.JPG,false,1,keypress(m),500,622228.2,622227.3,619567.375,619579.0999999999,619584.041,622233.935,8,400,11,,ISIC_0069865.JPG
break,html.Screen,4_110_1,2023-11-01T17:07:46.903Z,,0,,,NaN,,,,,,false,,,,622228.8999999999,622228.7,,622228.3999999999,,622233.935,8,400,,,
break_continue,html.Screen,4_110_2,2023-11-01T17:07:46.903Z,,0,,,NaN,,,,,,false,,,,622229.3,622229.0999999999,,622229,,622233.935,8,400,,,
sequence,flow.Sequence,4_110,2023-11-01T17:07:46.903Z,,0,,,2645.058999999892,completion,,,,,false,,,,622229.5999999999,622229.0999999999,619567.375,619579.0999999999,619584.041,622233.935,8,400,,,
trial,html.Screen,4_111_0,2023-11-01T17:07:50.058Z,,0,3,,3150.1649999998044,response,ISIC_7421214.JPG,5,ISIC_9462979.JPG,ISIC_9462979.JPG,false,0,keypress(z),500,625384.3,625384.0999999999,622217.269,622229.7,622233.935,625400.475,8,400,12,,ISIC_7421214.JPG
break,html.Screen,4_111_1,2023-11-01T17:07:50.059Z,,0,,,NaN,,,,,,false,,,,625385,625384.8999999999,,625384.5999999999,,625400.475,8,400,,,
break_continue,html.Screen,4_111_2,2023-11-01T17:07:50.059Z,,0,,,NaN,,,,,,false,,,,625385.5,625385.3,,625385.2,,625400.475,8,400,,,
sequence,flow.Sequence,4_111,2023-11-01T17:07:50.059Z,,0,,,3151.3649999999907,completion,,,,,false,,,,625385.7,625385.3,622217.269,622229.5999999999,622233.935,625400.475,8,400,,,
trial,html.Screen,4_112_0,2023-11-01T17:07:53.440Z,,0,3,,3365.6249999998836,response,ISIC_0000135.JPG,6,ISIC_5754233.JPG,ISIC_5754233.JPG,false,0,keypress(z),500,628766.3999999999,628766.0999999999,625383.809,625385.8,625400.475,628767.499,8,400,13,,ISIC_0000135.JPG
break,html.Screen,4_112_1,2023-11-01T17:07:53.441Z,,0,,,NaN,,,,,,false,,,,628767,628766.8999999999,,628766.5,,628767.499,8,400,,,
break_continue,html.Screen,4_112_2,2023-11-01T17:07:53.441Z,,0,,,NaN,,,,,,false,,,,628767.5,628767.3,,628767.2,,628767.499,8,400,,,
sequence,flow.Sequence,4_112,2023-11-01T17:07:53.441Z,,0,,,3366.82500000007,completion,,,,,false,,,,628767.5999999999,628767.3,625383.809,625385.8,625400.475,628767.499,8,400,,,
trial,html.Screen,4_113_0,2023-11-01T17:07:56.246Z,,0,3,,2804.701000000001,response,ISIC_0000550.JPG,6,ISIC_0014548.JPG,ISIC_0014548.JPG,false,0,keypress(z),500,631572.3999999999,631572.2,628750.833,628767.8,628767.499,631584.053,8,400,14,,ISIC_0000550.JPG
break,html.Screen,4_113_1,2023-11-01T17:07:56.247Z,,0,,,NaN,,,,,,false,,,,631573.0999999999,631572.8999999999,,631572.7,,631584.053,8,400,,,
break_continue,html.Screen,4_113_2,2023-11-01T17:07:56.247Z,,0,,,NaN,,,,,,false,,,,631573.5,631573.3999999999,,631573.2,,631584.053,8,400,,,
sequence,flow.Sequence,4_113,2023-11-01T17:07:56.247Z,,0,,,2805.9009999999544,completion,,,,,false,,,,631573.7,631573.3999999999,628750.833,628767.8,628767.499,631584.053,8,400,,,
trial,html.Screen,4_114_0,2023-11-01T17:07:59.021Z,,0,3,,2762.7470000000903,response,ISIC_7697022.JPG,7,ISIC_1149693.JPG,ISIC_7697022.JPG,false,1,keypress(m),500,634347,634346.8,631567.387,631573.8999999999,631584.053,634350.609,8,400,15,,ISIC_1149693.JPG
break,html.Screen,4_114_1,2023-11-01T17:07:59.021Z,,0,,,NaN,,,,,,false,,,,634347.7,634347.5,,634347.2,,634350.609,8,400,,,
break_continue,html.Screen,4_114_2,2023-11-01T17:07:59.022Z,,0,,,NaN,,,,,,false,,,,634348.2,634348,,634347.8999999999,,634350.609,8,400,,,
sequence,flow.Sequence,4_114,2023-11-01T17:07:59.022Z,,0,,,2763.9470000000438,completion,,,,,false,,,,634348.3,634348,631567.387,631573.8999999999,631584.053,634350.609,8,400,,,
trial,html.Screen,4_115_0,2023-11-01T17:08:02.226Z,,0,3,,3201.0909999998985,response,ISIC_8433608.JPG,7,ISIC_2625894.JPG,ISIC_8433608.JPG,false,1,keypress(m),500,637552,637551.7,634333.943,634348.5,634350.609,637567.516,8,400,16,,ISIC_2625894.JPG
break,html.Screen,4_115_1,2023-11-01T17:08:02.226Z,,0,,,NaN,,,,,,false,,,,637552.8,637552.5999999999,,637552.2,,637567.516,8,400,,,
break_continue,html.Screen,4_115_2,2023-11-01T17:08:02.227Z,,0,,,NaN,,,,,,false,,,,637553.2,637553.0999999999,,637552.8999999999,,637567.516,8,400,,,
sequence,flow.Sequence,4_115,2023-11-01T17:08:02.227Z,,0,,,3202.4909999998054,completion,,,,,false,,,,637553.3999999999,637553.0999999999,634333.943,634348.5,634350.609,637567.516,8,400,,,
trial,html.Screen,4_116_0,2023-11-01T17:08:05.735Z,,0,3,,3493.5839999999152,response,ISIC_0011686.JPG,5,ISIC_0682543.JPG,ISIC_0011686.JPG,false,1,keypress(m),500,641061.7,641061.0999999999,637550.85,637553.5,637567.516,641067.376,8,400,17,,ISIC_0682543.JPG
break,html.Screen,4_116_1,2023-11-01T17:08:05.736Z,,0,,,NaN,,,,,,false,,,,641062.8,641062.3999999999,,641062,,641067.376,8,400,,,
break_continue,html.Screen,4_116_2,2023-11-01T17:08:05.737Z,,0,,,NaN,,,,,,false,,,,641063.3999999999,641063.2,,641063,,641067.376,8,400,,,
sequence,flow.Sequence,4_116,2023-11-01T17:08:05.737Z,,0,,,3495.6840000000084,completion,,,,,false,,,,641063.5999999999,641063.2,637550.85,637553.5,637567.516,641067.376,8,400,,,
trial,html.Screen,4_117_0,2023-11-01T17:08:08.750Z,,0,3,,3009.223999999813,response,ISIC_3464344.JPG,8,ISIC_1169724.JPG,ISIC_3464344.JPG,false,1,keypress(m),500,644076.8,644076.5999999999,641050.71,641063.8999999999,641067.376,644083.922,8,400,18,,ISIC_1169724.JPG
break,html.Screen,4_117_1,2023-11-01T17:08:08.751Z,,0,,,NaN,,,,,,false,,,,644077.5999999999,644077.3999999999,,644077,,644083.922,8,400,,,
break_continue,html.Screen,4_117_2,2023-11-01T17:08:08.752Z,,0,,,NaN,,,,,,false,,,,644077.8999999999,644077.8,,644077.5999999999,,644083.922,8,400,,,
sequence,flow.Sequence,4_117,2023-11-01T17:08:08.752Z,,0,,,3010.423999999999,completion,,,,,false,,,,644078.2,644077.8,641050.71,641063.8,641067.376,644083.922,8,400,,,
trial,html.Screen,4_118_0,2023-11-01T17:08:11.634Z,,0,3,,2875.878000000026,response,ISIC_0014501.JPG,6,ISIC_0069361.JPG,ISIC_0014501.JPG,false,1,keypress(m),500,646960.5999999999,646959.8,644067.256,644078.3,644083.922,646967.634,8,400,19,,ISIC_0069361.JPG
break,html.Screen,4_118_1,2023-11-01T17:08:11.635Z,,0,,,NaN,,,,,,false,,,,646961.8,646961.3,,646961,,646967.634,8,400,,,
break_continue,html.Screen,4_118_2,2023-11-01T17:08:11.636Z,,0,,,NaN,,,,,,false,,,,646962.3999999999,646962.0999999999,,646962,,646967.634,8,400,,,
sequence,flow.Sequence,4_118,2023-11-01T17:08:11.636Z,,0,,,2878.17799999984,completion,,,,,false,,,,646962.7,646962.0999999999,644067.256,644078.2,644083.922,646967.634,8,400,,,
trial,html.Screen,4_119_0,2023-11-01T17:08:16.731Z,,0,3,,5089.366000000038,response,ISIC_0006158.JPG,7,ISIC_3556980.JPG,ISIC_0006158.JPG,false,1,keypress(m),500,652057.2,652057,646950.968,646962.7,646967.634,652067.43,8,400,20,,ISIC_3556980.JPG
break,html.Screen,4_119_1,2023-11-01T17:08:16.732Z,,0,,,NaN,,,,,,false,,,,652057.8999999999,652057.7,,652057.3999999999,,652067.43,8,400,,,
break_continue,html.Screen,4_119_2,2023-11-01T17:08:16.732Z,,0,,,NaN,,,,,,false,,,,652058.3,652058.0999999999,,652058,,652067.43,8,400,,,
sequence,flow.Sequence,4_119,2023-11-01T17:08:16.732Z,,0,,,5090.4659999998985,completion,,,,,false,,,,652058.3999999999,652058.0999999999,646950.968,646962.7,646967.634,652067.43,8,400,,,
trial,html.Screen,4_120_0,2023-11-01T17:08:19.710Z,,0,3,,2968.3699999999953,response,ISIC_0067549.JPG,8,ISIC_0069891.JPG,ISIC_0067549.JPG,false,1,keypress(m),500,655036.0999999999,655035.8,652050.764,652058.5999999999,652067.43,655050.644,8,400,21,,ISIC_0069891.JPG
break,html.Screen,4_120_1,2023-11-01T17:08:19.710Z,,0,,,NaN,,,,,,false,,,,655036.8,655036.5999999999,,655036.3,,655050.644,8,400,,,
break_continue,html.Screen,4_120_2,2023-11-01T17:08:19.711Z,,0,,,NaN,,,,,,false,,,,655037.2,655037.0999999999,,655036.8999999999,,655050.644,8,400,,,
sequence,flow.Sequence,4_120,2023-11-01T17:08:19.711Z,,0,,,2969.669999999809,completion,,,,,false,,,,655037.3999999999,655037.0999999999,652050.764,652058.5999999999,652067.43,655050.644,8,400,,,
trial,html.Screen,4_121_0,2023-11-01T17:08:24.594Z,,0,3,,4868.955999999889,response,ISIC_8073036.JPG,7,ISIC_2850215.JPG,ISIC_8073036.JPG,false,1,keypress(m),500,659919.8,659919.5999999999,655033.978,655037.7,655050.644,659934.199,8,400,22,,ISIC_2850215.JPG
break,html.Screen,4_121_1,2023-11-01T17:08:24.594Z,,0,,,NaN,,,,,,false,,,,659920.5999999999,659920.3999999999,,659920,,659934.199,8,400,,,
break_continue,html.Screen,4_121_2,2023-11-01T17:08:24.595Z,,0,,,NaN,,,,,,false,,,,659920.8999999999,659920.7,,659920.5999999999,,659934.199,8,400,,,
sequence,flow.Sequence,4_121,2023-11-01T17:08:24.595Z,,0,,,4870.055999999982,completion,,,,,false,,,,659921,659920.7,655033.978,655037.5999999999,655050.644,659934.199,8,400,,,
trial,html.Screen,4_122_0,2023-11-01T17:08:28.248Z,,0,3,,3640.101000000024,response,ISIC_0025616.JPG,6,ISIC_0025653.JPG,ISIC_0025653.JPG,false,0,keypress(z),500,663574.5,663574.3,659917.533,659921.2,659934.199,663584.053,8,400,23,,ISIC_0025616.JPG
break,html.Screen,4_122_1,2023-11-01T17:08:28.249Z,,0,,,NaN,,,,,,false,,,,663575.3999999999,663575.0999999999,,663574.8,,663584.053,8,400,,,
break_continue,html.Screen,4_122_2,2023-11-01T17:08:28.250Z,,0,,,NaN,,,,,,false,,,,663576,663575.7,,663575.5999999999,,663584.053,8,400,,,
sequence,flow.Sequence,4_122,2023-11-01T17:08:28.250Z,,0,,,3641.500999999931,completion,,,,,false,,,,663576.0999999999,663575.7,659917.533,659921.2,659934.199,663584.053,8,400,,,
trial,html.Screen,4_123_0,2023-11-01T17:08:32.607Z,,0,3,,4348.846999999951,response,ISIC_6548734.JPG,7,ISIC_0000547.JPG,ISIC_6548734.JPG,false,1,keypress(m),500,667933.0999999999,667932.8999999999,663567.387,663576.3999999999,663584.053,667934.304,8,400,24,,ISIC_0000547.JPG
break,html.Screen,4_123_1,2023-11-01T17:08:32.608Z,,0,,,NaN,,,,,,false,,,,667933.8999999999,667933.5999999999,,667933.3,,667934.304,8,400,,,
break_continue,html.Screen,4_123_2,2023-11-01T17:08:32.608Z,,0,,,NaN,,,,,,false,,,,667934.3999999999,667934.2,,667934,,667934.304,8,400,,,
sequence,flow.Sequence,4_123,2023-11-01T17:08:32.608Z,,0,,,4350.146999999997,completion,,,,,false,,,,667934.5999999999,667934.2,663567.387,663576.3,663584.053,667934.304,8,400,,,
trial,html.Screen,4_124_0,2023-11-01T17:08:36.998Z,,0,3,,4389.295999999857,response,ISIC_7053271.JPG,9,ISIC_6876281.JPG,ISIC_7053271.JPG,false,1,keypress(m),500,672323.8,672323.5999999999,667917.638,667934.8,667934.304,672334.128,8,400,25,,ISIC_6876281.JPG
break,html.Screen,4_124_1,2023-11-01T17:08:36.998Z,,0,,,NaN,,,,,,false,,,,672324.5,672324.3999999999,,672324,,672334.128,8,400,,,
break_continue,html.Screen,4_124_2,2023-11-01T17:08:36.999Z,,0,,,NaN,,,,,,false,,,,672325,672324.8,,672324.7,,672334.128,8,400,,,
sequence,flow.Sequence,4_124,2023-11-01T17:08:36.999Z,,0,,,4390.496000000043,completion,,,,,false,,,,672325.3,672324.8,667917.638,667934.8,667934.304,672334.128,8,400,,,
trial,html.Screen,4_125_0,2023-11-01T17:08:40.188Z,,0,3,,3179.6720000000205,response,ISIC_0032862.JPG,6,ISIC_7867077.JPG,ISIC_7867077.JPG,false,0,keypress(z),500,675514.5,675513.8,672317.462,672325.3999999999,672334.128,675517.334,8,400,26,,ISIC_0032862.JPG
break,html.Screen,4_125_1,2023-11-01T17:08:40.189Z,,0,,,NaN,,,,,,false,,,,675515.2,675515,,675514.7,,675517.334,8,400,,,
break_continue,html.Screen,4_125_2,2023-11-01T17:08:40.189Z,,0,,,NaN,,,,,,false,,,,675515.7,675515.5,,675515.3999999999,,675517.334,8,400,,,
sequence,flow.Sequence,4_125,2023-11-01T17:08:40.190Z,,0,,,3181.371999999974,completion,,,,,false,,,,675516,675515.5,672317.462,672325.3,672334.128,675517.334,8,400,,,
trial,html.Screen,4_126_0,2023-11-01T17:08:43.153Z,,0,3,,2961.1659999999683,response,ISIC_7059794.JPG,8,ISIC_8481979.JPG,ISIC_8481979.JPG,false,0,keypress(z),500,678478.8,678478.5,675500.668,675516.0999999999,675517.334,678484.331,8,400,27,,ISIC_7059794.JPG
break,html.Screen,4_126_1,2023-11-01T17:08:43.154Z,,0,,,NaN,,,,,,false,,,,678480,678479.7,,678479.3999999999,,678484.331,8,400,,,
break_continue,html.Screen,4_126_2,2023-11-01T17:08:43.155Z,,0,,,NaN,,,,,,false,,,,678480.8,678480.5999999999,,678480.5,,678484.331,8,400,,,
sequence,flow.Sequence,4_126,2023-11-01T17:08:43.155Z,,0,,,2963.2659999998286,completion,,,,,false,,,,678481.0999999999,678480.5999999999,675500.668,675516,675517.334,678484.331,8,400,,,
trial,html.Screen,4_127_0,2023-11-01T17:08:46.358Z,,0,3,,3199.868999999948,response,ISIC_0013549.JPG,8,ISIC_3329255.JPG,ISIC_0013549.JPG,false,1,keypress(m),500,681684.3999999999,681684.2,678467.665,678481.3,678484.331,681700.869,8,400,28,,ISIC_3329255.JPG
break,html.Screen,4_127_1,2023-11-01T17:08:46.359Z,,0,,,NaN,,,,,,false,,,,681685.0999999999,681684.8999999999,,681684.5999999999,,681700.869,8,400,,,
break_continue,html.Screen,4_127_2,2023-11-01T17:08:46.360Z,,0,,,NaN,,,,,,false,,,,681685.8,681685.5999999999,,681685.3,,681700.869,8,400,,,
sequence,flow.Sequence,4_127,2023-11-01T17:08:46.360Z,,0,,,3201.2689999998547,completion,,,,,false,,,,681686.0999999999,681685.5999999999,678467.665,678481.2,678484.331,681700.869,8,400,,,
trial,html.Screen,4_128_0,2023-11-01T17:08:51.196Z,,0,3,,4821.530999999959,response,ISIC_3687259.JPG,7,ISIC_0024266.JPG,ISIC_0024266.JPG,false,0,keypress(z),500,686522.5999999999,686522.3999999999,681684.203,681686.3,681700.869,686534.009,8,400,29,,ISIC_3687259.JPG
break,html.Screen,4_128_1,2023-11-01T17:08:51.197Z,,0,,,NaN,,,,,,false,,,,686523.3,686523.0999999999,,686522.8999999999,,686534.009,8,400,,,
break_continue,html.Screen,4_128_2,2023-11-01T17:08:51.197Z,,0,,,NaN,,,,,,false,,,,686523.7,686523.5999999999,,686523.5,,686534.009,8,400,,,
sequence,flow.Sequence,4_128,2023-11-01T17:08:51.198Z,,0,,,4822.7309999999125,completion,,,,,false,,,,686523.8999999999,686523.5999999999,681684.203,681686.3,681700.869,686534.009,8,400,,,
trial,html.Screen,4_129_0,2023-11-01T17:08:54.577Z,,0,3,,3368.491000000038,response,ISIC_0033233.JPG,7,ISIC_0014925.JPG,ISIC_0033233.JPG,false,1,keypress(m),500,689902.7,689902.5,686517.343,686524.0999999999,686534.009,689917.604,8,400,30,,ISIC_0014925.JPG
break,html.Screen,4_129_1,2023-11-01T17:08:54.578Z,,0,,,NaN,,,,,,false,,,,689904.0999999999,689903.8999999999,,689903.3999999999,,689917.604,8,400,,,
break_continue,html.Screen,4_129_2,2023-11-01T17:08:54.579Z,,0,,,NaN,,,,,,false,,,,689905.2,689904.8,,689904.7,,689917.604,8,400,,,
sequence,flow.Sequence,4_129,2023-11-01T17:08:54.579Z,,0,,,3370.7910000000848,completion,,,,,false,,,,689905.5,689904.8,686517.343,686524.0999999999,686534.009,689917.604,8,400,,,
trial,html.Screen,4_130_0,2023-11-01T17:08:57.836Z,,0,3,,3244.2959999998566,response,ISIC_9859873.JPG,6,ISIC_5608998.JPG,ISIC_9859873.JPG,false,1,keypress(m),500,693162.2,693161.8999999999,689900.938,689905.7,689917.604,693167.474,8,400,31,,ISIC_5608998.JPG
break,html.Screen,4_130_1,2023-11-01T17:08:57.837Z,,0,,,NaN,,,,,,false,,,,693162.8,693162.7,,693162.3999999999,,693167.474,8,400,,,
