sender,sender_type,sender_id,timestamp,meta,,blockNo,condition,duration,ended_on,img_left,img_reveal,img_right,loser,practice,response,response_action,selection_duration,time_commit,time_end,time_render,time_run,time_show,time_switch,total_blocks,total_trials,trialNo,url,winner
informed_consent,html.Screen,0,2023-09-15T17:28:11.871Z,"{""labjs_version"":""20.2.4"",""labjs_build"":{""flavor"":""production"",""commit"":""f5b4a49f956347addd546a832a3327688c2c0fef""},""location"":""https://run.pavlovia.org/MurrayBennett/melanoma-2afc/?participant=65928&platform=sona"",""userAgent"":""Mozilla/5.0 (Macintosh; Intel Mac OS X 10_15_7) AppleWebKit/537.36 (KHTML, like Gecko) Chrome/116.0.0.0 Safari/537.36"",""platform"":""MacIntel"",""language"":""en-US"",""locale"":""en-US"",""timeZone"":""America/Chicago"",""timezoneOffset"":300,""screen_width"":1440,""screen_height"":900,""scroll_width"":1440,""scroll_height"":767,""window_innerWidth"":1440,""window_innerHeight"":815,""devicePixelRatio"":2}",,,,19706.093000011922,response,,,,,,consent,click button,,22893.70000001788,22892.30000001192,3169.541,3174.2000000178814,3186.207,22920.34,,,,"{""participant"":""65928"",""platform"":""sona""}",
Welcome,html.Screen,1,2023-09-15T17:28:15.772Z,,,,colourful,3872.0600000059603,response,,,,,,continue,click button,,26795.30000001192,26792.40000000596,22903.674,22894,22920.34,26804.299,,,,,
trial,html.Screen,2_0_0,2023-09-15T17:28:21.287Z,,0,0,,5505.401000017882,response,ISIC_0063388.JPG,,ISIC_0025593.JPG,ISIC_0063388.JPG,true,1,keypress(m),500,32310.30000001192,32309.70000001788,26787.633,26795.40000000596,26804.299,32337.411,1,6,1,,ISIC_0025593.JPG
sequence,flow.Sequence,2_0,2023-09-15T17:28:21.287Z,,0,,,5505.401000017882,completion,,,,,true,,,,32310.80000001192,32309.70000001788,26787.633,26795.40000000596,26804.299,32337.411,1,6,,,
trial,html.Screen,2_1_0,2023-09-15T17:28:27.578Z,,0,0,,6263.589,response,ISIC_1309015.JPG,,ISIC_0028178.JPG,ISIC_1309015.JPG,true,1,keypress(m),500,38601.60000002384,38601,32320.745,32311.30000001192,32337.411,38621.232,1,6,2,,ISIC_0028178.JPG
sequence,flow.Sequence,2_1,2023-09-15T17:28:27.578Z,,0,,,6263.589,completion,,,,,true,,,,38602,38601,32320.745,32311.20000001788,32337.411,38621.232,1,6,,,
trial,html.Screen,2_2_0,2023-09-15T17:28:31.736Z,,0,0,,4137.968000017878,response,ISIC_0031128.JPG,,ISIC_3314853.JPG,ISIC_3314853.JPG,true,0,keypress(z),500,42759.80000001192,42759.20000001788,38604.566,38602.30000001192,38621.232,42787.732,1,6,3,,ISIC_0031128.JPG
sequence,flow.Sequence,2_2,2023-09-15T17:28:31.736Z,,0,,,4137.968000017878,completion,,,,,true,,,,42760.10000002384,42759.20000001788,38604.566,38602.10000002384,38621.232,42787.732,1,6,,,
trial,html.Screen,2_3_0,2023-09-15T17:28:39.387Z,,0,0,,7622.568000011917,response,ISIC_8980141.JPG,,ISIC_0031612.JPG,ISIC_0031612.JPG,true,0,keypress(z),500,50410.90000000596,50410.30000001192,42771.066,42760.40000000596,42787.732,50438.248,1,6,4,,ISIC_8980141.JPG
sequence,flow.Sequence,2_3,2023-09-15T17:28:39.387Z,,0,,,7622.568000011917,completion,,,,,true,,,,50411.40000000596,50410.30000001192,42771.066,42760.40000000596,42787.732,50438.248,1,6,,,
trial,html.Screen,2_4_0,2023-09-15T17:28:43.231Z,,0,0,,3816.152000005961,response,ISIC_9721604.JPG,,ISIC_1197737.JPG,ISIC_9721604.JPG,true,1,keypress(m),500,54255.10000002384,54254.40000000596,50421.582,50411.80000001192,50438.248,54272.148,1,6,5,,ISIC_1197737.JPG
sequence,flow.Sequence,2_4,2023-09-15T17:28:43.231Z,,0,,,3816.152000005961,completion,,,,,true,,,,54255.60000002384,54254.40000000596,50421.582,50411.60000002384,50438.248,54272.148,1,6,,,
trial,html.Screen,2_5_0,2023-09-15T17:28:47.107Z,,0,0,,3858.15200001192,response,ISIC_0025346.JPG,,ISIC_0010681.JPG,ISIC_0010681.JPG,true,0,keypress(z),500,58130.80000001192,58130.30000001192,54255.482,54255.90000000596,54272.148,58155.326,1,6,6,,ISIC_0025346.JPG
sequence,flow.Sequence,2_5,2023-09-15T17:28:47.107Z,,0,,,3858.15200001192,completion,,,,,true,,,,58131.30000001192,58130.30000001192,54255.482,54255.80000001192,54272.148,58155.326,1,6,,,
loop,flow.Loop,2,2023-09-15T17:28:47.107Z,,,,,31326.001000011922,completion,,,,,true,,,,58131.70000001788,58130.30000001192,26787.633,26795.40000000596,26804.299,58155.326,1,6,,,
exp_instructions,html.Screen,3,2023-09-15T17:28:48.952Z,,,,,1811.173999999999,response,,,,,,continue,keypress(Space),,59976.10000002384,59966.5,58138.66,58131.80000001192,58155.326,59988.586,,,,,
trial,html.Screen,4_0_0,2023-09-15T17:28:53.276Z,,0,1,,4311.3140000059575,response,ISIC_0046340.JPG,13,ISIC_7581199.JPG,ISIC_7581199.JPG,false,0,keypress(z),500,64300.40000000596,64299.90000000596,59971.92,59976.30000001192,59988.586,64322.53,8,400,1,,ISIC_0046340.JPG
break,html.Screen,4_0_1,2023-09-15T17:28:53.277Z,,0,,,NaN,,,,,,false,,,,64301.70000001788,64301.40000000596,,64300.60000002384,,64322.53,8,400,,,
break_continue,html.Screen,4_0_2,2023-09-15T17:28:53.278Z,,0,,,NaN,,,,,,false,,,,64302.10000002384,64301.90000000596,,64301.90000000596,,64322.53,8,400,,,
sequence,flow.Sequence,4_0,2023-09-15T17:28:53.278Z,,0,,,4313.3140000059575,completion,,,,,false,,,,64302.30000001192,64301.90000000596,59971.92,59976.30000001192,59988.586,64322.53,8,400,,,
trial,html.Screen,4_1_0,2023-09-15T17:28:56.354Z,,0,1,,3055.6700000178826,response,ISIC_0192490.JPG,5,ISIC_8007849.JPG,ISIC_0192490.JPG,false,1,keypress(m),500,67378.60000002384,67378.20000001788,64305.864,64302.40000000596,64322.53,67405.74,8,400,2,,ISIC_8007849.JPG
break,html.Screen,4_1_1,2023-09-15T17:28:56.355Z,,0,,,NaN,,,,,,false,,,,67379.40000000596,67379.30000001192,,67378.90000000596,,67405.74,8,400,,,
break_continue,html.Screen,4_1_2,2023-09-15T17:28:56.355Z,,0,,,NaN,,,,,,false,,,,67379.70000001788,67379.60000002384,,67379.60000002384,,67405.74,8,400,,,
sequence,flow.Sequence,4_1,2023-09-15T17:28:56.355Z,,0,,,3057.070000023843,completion,,,,,false,,,,67379.80000001192,67379.60000002384,64305.864,64302.40000000596,64322.53,67405.74,8,400,,,
trial,html.Screen,4_2_0,2023-09-15T17:28:59.350Z,,0,1,,2968.660000005955,response,ISIC_0011137.JPG,6,ISIC_0030116.JPG,ISIC_0011137.JPG,false,1,keypress(m),500,70374.90000000596,70374.40000000596,67389.074,67379.90000000596,67405.74,70388.954,8,400,3,,ISIC_0030116.JPG
break,html.Screen,4_2_1,2023-09-15T17:28:59.351Z,,0,,,NaN,,,,,,false,,,,70376,70375.80000001192,,70375.20000001788,,70388.954,8,400,,,
break_continue,html.Screen,4_2_2,2023-09-15T17:28:59.352Z,,0,,,NaN,,,,,,false,,,,70376.40000000596,70376.20000001788,,70376.10000002384,,70388.954,8,400,,,
sequence,flow.Sequence,4_2,2023-09-15T17:28:59.352Z,,0,,,2970.460000017876,completion,,,,,false,,,,70376.60000002384,70376.20000001788,67389.074,67379.90000000596,67405.74,70388.954,8,400,,,
trial,html.Screen,4_3_0,2023-09-15T17:29:02.443Z,,0,1,,3078.646000023844,response,ISIC_5762714.JPG,5,ISIC_7484771.JPG,ISIC_5762714.JPG,false,1,keypress(m),500,73468.10000002384,73467.60000002384,70372.288,70376.80000001192,70388.954,73489.703,8,400,4,,ISIC_7484771.JPG
break,html.Screen,4_3_1,2023-09-15T17:29:02.444Z,,0,,,NaN,,,,,,false,,,,73469.10000002384,73468.90000000596,,73468.40000000596,,73489.703,8,400,,,
break_continue,html.Screen,4_3_2,2023-09-15T17:29:02.445Z,,0,,,NaN,,,,,,false,,,,73469.40000000596,73469.30000001192,,73469.10000002384,,73489.703,8,400,,,
sequence,flow.Sequence,4_3,2023-09-15T17:29:02.445Z,,0,,,3080.346000011923,completion,,,,,false,,,,73469.60000002384,73469.30000001192,70372.288,70376.70000001788,70388.954,73489.703,8,400,,,
trial,html.Screen,4_4_0,2023-09-15T17:29:05.265Z,,0,1,,2799.6970000059664,response,ISIC_0031406.JPG,6,ISIC_0006983.JPG,ISIC_0006983.JPG,false,0,keypress(z),500,76289.90000000596,76289.40000000596,73473.037,73469.70000001788,73489.703,76306.257,8,400,5,,ISIC_0031406.JPG
break,html.Screen,4_4_1,2023-09-15T17:29:05.266Z,,0,,,NaN,,,,,,false,,,,76290.80000001192,76290.60000002384,,76290.20000001788,,76306.257,8,400,,,
break_continue,html.Screen,4_4_2,2023-09-15T17:29:05.266Z,,0,,,NaN,,,,,,false,,,,76291.20000001788,76291.10000002384,,76291,,76306.257,8,400,,,
sequence,flow.Sequence,4_4,2023-09-15T17:29:05.266Z,,0,,,2801.397000023848,completion,,,,,false,,,,76291.40000000596,76291.10000002384,73473.037,73469.70000001788,73489.703,76306.257,8,400,,,
trial,html.Screen,4_5_0,2023-09-15T17:29:08.037Z,,0,1,,2755.1430000059627,response,ISIC_8893501.JPG,5,ISIC_4720306.JPG,ISIC_4720306.JPG,false,0,keypress(z),500,79061.90000000596,79061.40000000596,76289.591,76291.60000002384,76306.257,79089.479,8,400,6,,ISIC_8893501.JPG
break,html.Screen,4_5_1,2023-09-15T17:29:08.038Z,,0,,,NaN,,,,,,false,,,,79062.80000001192,79062.70000001788,,79062.10000002384,,79089.479,8,400,,,
break_continue,html.Screen,4_5_2,2023-09-15T17:29:08.038Z,,0,,,NaN,,,,,,false,,,,79063.30000001192,79063.10000002384,,79063.10000002384,,79089.479,8,400,,,
sequence,flow.Sequence,4_5,2023-09-15T17:29:08.038Z,,0,,,2756.843000023844,completion,,,,,false,,,,79063.40000000596,79063.10000002384,76289.591,76291.5,76306.257,79089.479,8,400,,,
trial,html.Screen,4_6_0,2023-09-15T17:29:10.842Z,,0,1,,2777.621000023835,response,ISIC_9470020.JPG,7,ISIC_0053725.JPG,ISIC_9470020.JPG,false,1,keypress(m),500,81867.60000002384,81867.10000002384,79072.813,79063.5,79089.479,81889.367,8,400,7,,ISIC_0053725.JPG
break,html.Screen,4_6_1,2023-09-15T17:29:10.844Z,,0,,,NaN,,,,,,false,,,,81868.70000001788,81868.5,,81867.90000000596,,81889.367,8,400,,,
break_continue,html.Screen,4_6_2,2023-09-15T17:29:10.844Z,,0,,,NaN,,,,,,false,,,,81869.20000001788,81869,,81868.80000001192,,81889.367,8,400,,,
sequence,flow.Sequence,4_6,2023-09-15T17:29:10.844Z,,0,,,2779.5209999999934,completion,,,,,false,,,,81869.40000000596,81869,79072.813,79063.5,79089.479,81889.367,8,400,,,
trial,html.Screen,4_7_0,2023-09-15T17:29:13.760Z,,0,1,,2895.833000017883,response,ISIC_3922580.JPG,6,ISIC_0054043.JPG,ISIC_3922580.JPG,false,1,keypress(m),500,84785.60000002384,84785.20000001788,81872.701,81869.70000001788,81889.367,84806.738,8,400,8,,ISIC_0054043.JPG
break,html.Screen,4_7_1,2023-09-15T17:29:13.761Z,,0,,,NaN,,,,,,false,,,,84786.70000001788,84786.5,,84786,,84806.738,8,400,,,
break_continue,html.Screen,4_7_2,2023-09-15T17:29:13.762Z,,0,,,NaN,,,,,,false,,,,84787.10000002384,84786.90000000596,,84786.80000001192,,84806.738,8,400,,,
sequence,flow.Sequence,4_7,2023-09-15T17:29:13.762Z,,0,,,2897.533000005962,completion,,,,,false,,,,84787.30000001192,84786.90000000596,81872.701,81869.60000002384,81889.367,84806.738,8,400,,,
trial,html.Screen,4_8_0,2023-09-15T17:29:16.646Z,,0,1,,2864.462000017884,response,ISIC_1057521.JPG,6,ISIC_5354827.JPG,ISIC_5354827.JPG,false,0,keypress(z),500,87671.70000001788,87671.20000001788,84790.072,84787.5,84806.738,87689.956,8,400,9,,ISIC_1057521.JPG
break,html.Screen,4_8_1,2023-09-15T17:29:16.647Z,,0,,,NaN,,,,,,false,,,,87672.70000001788,87672.5,,87672,,87689.956,8,400,,,
break_continue,html.Screen,4_8_2,2023-09-15T17:29:16.648Z,,0,,,NaN,,,,,,false,,,,87673.10000002384,87673,,87672.90000000596,,87689.956,8,400,,,
sequence,flow.Sequence,4_8,2023-09-15T17:29:16.648Z,,0,,,2866.2620000000024,completion,,,,,false,,,,87673.20000001788,87673,84790.072,84787.40000000596,84806.738,87689.956,8,400,,,
trial,html.Screen,4_9_0,2023-09-15T17:29:19.501Z,,0,1,,2835.944000005955,response,ISIC_0054677.JPG,5,ISIC_1379405.JPG,ISIC_1379405.JPG,false,0,keypress(z),500,90526.30000001192,90525.90000000596,87673.29,87673.5,87689.956,90539.842,8,400,10,,ISIC_0054677.JPG
break,html.Screen,4_9_1,2023-09-15T17:29:19.502Z,,0,,,NaN,,,,,,false,,,,90527.40000000596,90527.20000001788,,90526.60000002384,,90539.842,8,400,,,
break_continue,html.Screen,4_9_2,2023-09-15T17:29:19.502Z,,0,,,NaN,,,,,,false,,,,90527.90000000596,90527.80000001192,,90527.70000001788,,90539.842,8,400,,,
sequence,flow.Sequence,4_9,2023-09-15T17:29:19.503Z,,0,,,2837.8440000119153,completion,,,,,false,,,,90528.10000002384,90527.80000001192,87673.29,87673.30000001192,87689.956,90539.842,8,400,,,
trial,html.Screen,4_10_0,2023-09-15T17:29:22.725Z,,0,1,,3210.5580000059563,response,ISIC_0005655.JPG,7,ISIC_8635849.JPG,ISIC_0005655.JPG,false,1,keypress(m),500,93750.80000001192,93750.40000000596,90523.176,90528.20000001788,90539.842,93773.83,8,400,11,,ISIC_8635849.JPG
break,html.Screen,4_10_1,2023-09-15T17:29:22.726Z,,0,,,NaN,,,,,,false,,,,93751.70000001788,93751.60000002384,,93751.10000002384,,93773.83,8,400,,,
break_continue,html.Screen,4_10_2,2023-09-15T17:29:22.727Z,,0,,,NaN,,,,,,false,,,,93752.30000001192,93752.10000002384,,93751.90000000596,,93773.83,8,400,,,
sequence,flow.Sequence,4_10,2023-09-15T17:29:22.727Z,,0,,,3212.2580000238377,completion,,,,,false,,,,93752.40000000596,93752.10000002384,90523.176,90528.20000001788,90539.842,93773.83,8,400,,,
trial,html.Screen,4_11_0,2023-09-15T17:29:25.805Z,,0,1,,3056.6699999999983,response,ISIC_4632020.JPG,5,ISIC_1046678.JPG,ISIC_1046678.JPG,false,0,keypress(z),500,96831,96830.5,93757.164,93752.60000002384,93773.83,96857.04,8,400,12,,ISIC_4632020.JPG
break,html.Screen,4_11_1,2023-09-15T17:29:25.806Z,,0,,,NaN,,,,,,false,,,,96832,96831.80000001192,,96831.30000001192,,96857.04,8,400,,,
break_continue,html.Screen,4_11_2,2023-09-15T17:29:25.807Z,,0,,,NaN,,,,,,false,,,,96832.40000000596,96832.30000001192,,96832.20000001788,,96857.04,8,400,,,
sequence,flow.Sequence,4_11,2023-09-15T17:29:25.807Z,,0,,,3058.470000011919,completion,,,,,false,,,,96832.60000002384,96832.30000001192,93757.164,93752.5,93773.83,96857.04,8,400,,,
trial,html.Screen,4_12_0,2023-09-15T17:29:28.785Z,,0,1,,2953.360000005967,response,ISIC_0012391.JPG,7,ISIC_3093026.JPG,ISIC_0012391.JPG,false,1,keypress(m),500,99810.80000001192,99810.40000000596,96840.374,96832.70000001788,96857.04,99840.254,8,400,13,,ISIC_3093026.JPG
break,html.Screen,4_12_1,2023-09-15T17:29:28.786Z,,0,,,NaN,,,,,,false,,,,99811.80000001192,99811.70000001788,,99811.20000001788,,99840.254,8,400,,,
break_continue,html.Screen,4_12_2,2023-09-15T17:29:28.786Z,,0,,,NaN,,,,,,false,,,,99812.20000001788,99812.10000002384,,99812,,99840.254,8,400,,,
sequence,flow.Sequence,4_12,2023-09-15T17:29:28.787Z,,0,,,2955.0600000238483,completion,,,,,false,,,,99812.5,99812.10000002384,96840.374,96832.70000001788,96857.04,99840.254,8,400,,,
trial,html.Screen,4_13_0,2023-09-15T17:29:31.951Z,,0,1,,3135.745999999999,response,ISIC_1761799.JPG,4,ISIC_8458843.JPG,ISIC_8458843.JPG,false,0,keypress(z),500,102976.5,102976,99823.588,99812.70000001788,99840.254,102990.128,8,400,14,,ISIC_1761799.JPG
break,html.Screen,4_13_1,2023-09-15T17:29:31.952Z,,0,,,NaN,,,,,,false,,,,102977.5,102977.20000001788,,102976.70000001788,,102990.128,8,400,,,
break_continue,html.Screen,4_13_2,2023-09-15T17:29:31.952Z,,0,,,NaN,,,,,,false,,,,102977.80000001192,102977.70000001788,,102977.60000002384,,102990.128,8,400,,,
sequence,flow.Sequence,4_13,2023-09-15T17:29:31.952Z,,0,,,3137.4460000178806,completion,,,,,false,,,,102978.10000002384,102977.70000001788,99823.588,99812.60000002384,99840.254,102990.128,8,400,,,
trial,html.Screen,4_14_0,2023-09-15T17:29:34.676Z,,0,1,,2711.0720000178844,response,ISIC_0028445.JPG,6,ISIC_2805634.JPG,ISIC_0028445.JPG,false,1,keypress(m),500,105701.80000001192,105701.20000001788,102973.462,102978.30000001192,102990.128,105724.112,8,400,15,,ISIC_2805634.JPG
break,html.Screen,4_14_1,2023-09-15T17:29:34.677Z,,0,,,NaN,,,,,,false,,,,105702.90000000596,105702.60000002384,,105702.20000001788,,105724.112,8,400,,,
break_continue,html.Screen,4_14_2,2023-09-15T17:29:34.677Z,,0,,,NaN,,,,,,false,,,,105703.30000001192,105703.20000001788,,105703,,105724.112,8,400,,,
sequence,flow.Sequence,4_14,2023-09-15T17:29:34.678Z,,0,,,2713.0720000178844,completion,,,,,false,,,,105703.5,105703.20000001788,102973.462,102978.20000001788,102990.128,105724.112,8,400,,,
trial,html.Screen,4_15_0,2023-09-15T17:29:37.289Z,,0,1,,2590.3880000000063,response,ISIC_0011488.JPG,7,ISIC_3136228.JPG,ISIC_3136228.JPG,false,0,keypress(z),500,108315,108314.5,105707.446,105703.80000001192,105724.112,108340.674,8,400,16,,ISIC_0011488.JPG
break,html.Screen,4_15_1,2023-09-15T17:29:37.290Z,,0,,,NaN,,,,,,false,,,,108316,108315.80000001192,,108315.30000001192,,108340.674,8,400,,,
break_continue,html.Screen,4_15_2,2023-09-15T17:29:37.290Z,,0,,,NaN,,,,,,false,,,,108316.40000000596,108316.30000001192,,108316.20000001788,,108340.674,8,400,,,
sequence,flow.Sequence,4_15,2023-09-15T17:29:37.290Z,,0,,,2592.188000011927,completion,,,,,false,,,,108316.5,108316.30000001192,105707.446,105703.70000001788,105724.112,108340.674,8,400,,,
trial,html.Screen,4_16_0,2023-09-15T17:29:40.030Z,,0,1,,2714.5260000178823,response,ISIC_0056055.JPG,8,ISIC_4154293.JPG,ISIC_4154293.JPG,false,0,keypress(z),500,111055.80000001192,111055.20000001788,108324.008,108316.70000001788,108340.674,111073.898,8,400,17,,ISIC_0056055.JPG
break,html.Screen,4_16_1,2023-09-15T17:29:40.031Z,,0,,,NaN,,,,,,false,,,,111056.70000001788,111056.60000002384,,111056.10000002384,,111073.898,8,400,,,
break_continue,html.Screen,4_16_2,2023-09-15T17:29:40.031Z,,0,,,NaN,,,,,,false,,,,111057.10000002384,111057,,111056.80000001192,,111073.898,8,400,,,
sequence,flow.Sequence,4_16,2023-09-15T17:29:40.031Z,,0,,,2716.326000000001,completion,,,,,false,,,,111057.30000001192,111057,108324.008,108316.60000002384,108340.674,111073.898,8,400,,,
trial,html.Screen,4_17_0,2023-09-15T17:29:42.945Z,,0,1,,2897.3020000178803,response,ISIC_4341261.JPG,5,ISIC_6507640.JPG,ISIC_4341261.JPG,false,1,keypress(m),500,113971.70000001788,113971.20000001788,111057.232,111057.40000000596,111073.898,113991.276,8,400,18,,ISIC_6507640.JPG
break,html.Screen,4_17_1,2023-09-15T17:29:42.946Z,,0,,,NaN,,,,,,false,,,,113972.70000001788,113972.5,,113972,,113991.276,8,400,,,
break_continue,html.Screen,4_17_2,2023-09-15T17:29:42.947Z,,0,,,NaN,,,,,,false,,,,113973.10000002384,113972.90000000596,,113972.80000001192,,113991.276,8,400,,,
sequence,flow.Sequence,4_17,2023-09-15T17:29:42.947Z,,0,,,2899.0020000059594,completion,,,,,false,,,,113973.20000001788,113972.90000000596,111057.232,111057.40000000596,111073.898,113991.276,8,400,,,
trial,html.Screen,4_18_0,2023-09-15T17:29:46.153Z,,0,1,,3187.824000023844,response,ISIC_0465476.JPG,4,ISIC_0010089.JPG,ISIC_0465476.JPG,false,1,keypress(m),500,117179.60000002384,117179.10000002384,113974.61,113973.40000000596,113991.276,117207.814,8,400,19,,ISIC_0010089.JPG
break,html.Screen,4_18_1,2023-09-15T17:29:46.154Z,,0,,,NaN,,,,,,false,,,,117180.60000002384,117180.40000000596,,117180,,117207.814,8,400,,,
break_continue,html.Screen,4_18_2,2023-09-15T17:29:46.155Z,,0,,,NaN,,,,,,false,,,,117181,117180.90000000596,,117180.70000001788,,117207.814,8,400,,,
sequence,flow.Sequence,4_18,2023-09-15T17:29:46.155Z,,0,,,3189.6240000059624,completion,,,,,false,,,,117181.20000001788,117180.90000000596,113974.61,113973.30000001192,113991.276,117207.814,8,400,,,
trial,html.Screen,4_19_0,2023-09-15T17:29:48.911Z,,0,1,,2728.886000017883,response,ISIC_3826001.JPG,6,ISIC_8253317.JPG,ISIC_3826001.JPG,false,1,keypress(m),500,119937.20000001788,119936.70000001788,117191.148,117181.40000000596,117207.814,119957.704,8,400,20,,ISIC_8253317.JPG
break,html.Screen,4_19_1,2023-09-15T17:29:48.912Z,,0,,,NaN,,,,,,false,,,,119938.20000001788,119938,,119937.5,,119957.704,8,400,,,
break_continue,html.Screen,4_19_2,2023-09-15T17:29:48.912Z,,0,,,NaN,,,,,,false,,,,119938.60000002384,119938.5,,119938.40000000596,,119957.704,8,400,,,
sequence,flow.Sequence,4_19,2023-09-15T17:29:48.912Z,,0,,,2730.6860000000015,completion,,,,,false,,,,119938.80000001192,119938.5,117191.148,117181.40000000596,117207.814,119957.704,8,400,,,
trial,html.Screen,4_20_0,2023-09-15T17:29:51.725Z,,0,1,,2793.596000011923,response,ISIC_4332846.JPG,5,ISIC_0010773.JPG,ISIC_4332846.JPG,false,1,keypress(m),500,122751.70000001788,122751.30000001192,119941.038,119939,119957.704,122774.258,8,400,21,,ISIC_0010773.JPG
break,html.Screen,4_20_1,2023-09-15T17:29:51.726Z,,0,,,NaN,,,,,,false,,,,122752.80000001192,122752.60000002384,,122752.10000002384,,122774.258,8,400,,,
break_continue,html.Screen,4_20_2,2023-09-15T17:29:51.727Z,,0,,,NaN,,,,,,false,,,,122753.20000001788,122753.10000002384,,122752.90000000596,,122774.258,8,400,,,
sequence,flow.Sequence,4_20,2023-09-15T17:29:51.727Z,,0,,,2795.396000023844,completion,,,,,false,,,,122753.40000000596,122753.10000002384,119941.038,119938.90000000596,119957.704,122774.258,8,400,,,
trial,html.Screen,4_21_0,2023-09-15T17:29:56.117Z,,0,1,,4368.642000005959,response,ISIC_0053473.JPG,7,ISIC_0012406.JPG,ISIC_0053473.JPG,false,1,keypress(m),500,127143.40000000596,127142.90000000596,122757.592,122753.60000002384,122774.258,127174.815,8,400,22,,ISIC_0012406.JPG
break,html.Screen,4_21_1,2023-09-15T17:29:56.118Z,,0,,,NaN,,,,,,false,,,,127144.40000000596,127144.20000001788,,127143.70000001788,,127174.815,8,400,,,
break_continue,html.Screen,4_21_2,2023-09-15T17:29:56.118Z,,0,,,NaN,,,,,,false,,,,127144.70000001788,127144.60000002384,,127144.5,,127174.815,8,400,,,
sequence,flow.Sequence,4_21,2023-09-15T17:29:56.118Z,,0,,,4370.34200002384,completion,,,,,false,,,,127144.80000001192,127144.60000002384,122757.592,122753.60000002384,122774.258,127174.815,8,400,,,
trial,html.Screen,4_22_0,2023-09-15T17:29:58.714Z,,0,1,,2565.4850000119186,response,ISIC_0033429.JPG,6,ISIC_3738751.JPG,ISIC_0033429.JPG,false,1,keypress(m),500,129740.80000001192,129740.30000001192,127158.149,127145,127174.815,129758.045,8,400,23,,ISIC_3738751.JPG
break,html.Screen,4_22_1,2023-09-15T17:29:58.715Z,,0,,,NaN,,,,,,false,,,,129741.80000001192,129741.5,,129741.10000002384,,129758.045,8,400,,,
break_continue,html.Screen,4_22_2,2023-09-15T17:29:58.715Z,,0,,,NaN,,,,,,false,,,,129742.10000002384,129742,,129741.90000000596,,129758.045,8,400,,,
sequence,flow.Sequence,4_22,2023-09-15T17:29:58.716Z,,0,,,2567.1849999999977,completion,,,,,false,,,,129742.40000000596,129742,127158.149,127144.90000000596,127174.815,129758.045,8,400,,,
trial,html.Screen,4_23_0,2023-09-15T17:30:01.328Z,,0,1,,2596.355000005962,response,ISIC_7844825.JPG,6,ISIC_9742073.JPG,ISIC_9742073.JPG,false,0,keypress(z),500,132354.90000000596,132354.40000000596,129741.379,129742.60000002384,129758.045,132374.607,8,400,24,,ISIC_7844825.JPG
break,html.Screen,4_23_1,2023-09-15T17:30:01.329Z,,0,,,NaN,,,,,,false,,,,132356,132355.70000001788,,132355.20000001788,,132374.607,8,400,,,
break_continue,html.Screen,4_23_2,2023-09-15T17:30:01.329Z,,0,,,NaN,,,,,,false,,,,132356.30000001192,132356.20000001788,,132356.10000002384,,132374.607,8,400,,,
sequence,flow.Sequence,4_23,2023-09-15T17:30:01.330Z,,0,,,2598.155000017883,completion,,,,,false,,,,132356.60000002384,132356.20000001788,129741.379,129742.5,129758.045,132374.607,8,400,,,
trial,html.Screen,4_24_0,2023-09-15T17:30:05.141Z,,0,1,,3792.693000011932,response,ISIC_7858034.JPG,5,ISIC_0012107.JPG,ISIC_7858034.JPG,false,1,keypress(m),500,136167.80000001192,136167.30000001192,132357.941,132356.70000001788,132374.607,136191.959,8,400,25,,ISIC_0012107.JPG
break,html.Screen,4_24_1,2023-09-15T17:30:05.142Z,,0,,,NaN,,,,,,false,,,,136168.70000001788,136168.60000002384,,136168.10000002384,,136191.959,8,400,,,
break_continue,html.Screen,4_24_2,2023-09-15T17:30:05.142Z,,0,,,NaN,,,,,,false,,,,136169.20000001788,136169.10000002384,,136168.90000000596,,136191.959,8,400,,,
sequence,flow.Sequence,4_24,2023-09-15T17:30:05.142Z,,0,,,3794.493000023853,completion,,,,,false,,,,136169.40000000596,136169.10000002384,132357.941,132356.70000001788,132374.607,136191.959,8,400,,,
trial,html.Screen,4_25_0,2023-09-15T17:30:08.073Z,,0,1,,2907.741000017879,response,ISIC_0053734.JPG,8,ISIC_0027576.JPG,ISIC_0027576.JPG,false,0,keypress(z),500,139100.20000001788,139099.70000001788,136175.293,136169.60000002384,136191.959,139125.175,8,400,26,,ISIC_0053734.JPG
break,html.Screen,4_25_1,2023-09-15T17:30:08.074Z,,0,,,NaN,,,,,,false,,,,139101.10000002384,139100.90000000596,,139100.40000000596,,139125.175,8,400,,,
break_continue,html.Screen,4_25_2,2023-09-15T17:30:08.074Z,,0,,,NaN,,,,,,false,,,,139101.60000002384,139101.40000000596,,139101.30000001192,,139125.175,8,400,,,
sequence,flow.Sequence,4_25,2023-09-15T17:30:08.075Z,,0,,,2909.441000005958,completion,,,,,false,,,,139101.70000001788,139101.40000000596,136175.293,136169.5,136191.959,139125.175,8,400,,,
trial,html.Screen,4_26_0,2023-09-15T17:30:10.974Z,,0,1,,2875.3250000000116,response,ISIC_0061583.JPG,8,ISIC_0000475.JPG,ISIC_0000475.JPG,false,0,keypress(z),500,142001,142000.5,139108.509,139102,139125.175,142025.059,8,400,27,,ISIC_0061583.JPG
break,html.Screen,4_26_1,2023-09-15T17:30:10.975Z,,0,,,NaN,,,,,,false,,,,142002,142001.70000001788,,142001.30000001192,,142025.059,8,400,,,
break_continue,html.Screen,4_26_2,2023-09-15T17:30:10.975Z,,0,,,NaN,,,,,,false,,,,142002.40000000596,142002.30000001192,,142002.10000002384,,142025.059,8,400,,,
sequence,flow.Sequence,4_26,2023-09-15T17:30:10.975Z,,0,,,2877.1250000119326,completion,,,,,false,,,,142002.5,142002.30000001192,139108.509,139101.90000000596,139125.175,142025.059,8,400,,,
trial,html.Screen,4_27_0,2023-09-15T17:30:13.906Z,,0,1,,2908.2410000119125,response,ISIC_1925623.JPG,6,ISIC_0015390.JPG,ISIC_1925623.JPG,false,1,keypress(m),500,144933.80000001192,144933.30000001192,142008.393,142002.80000001192,142025.059,144959.077,8,400,28,,ISIC_0015390.JPG
break,html.Screen,4_27_1,2023-09-15T17:30:13.907Z,,0,,,NaN,,,,,,false,,,,144934.70000001788,144934.60000002384,,144934.10000002384,,144959.077,8,400,,,
break_continue,html.Screen,4_27_2,2023-09-15T17:30:13.908Z,,0,,,NaN,,,,,,false,,,,144935.10000002384,144934.90000000596,,144934.80000001192,,144959.077,8,400,,,
sequence,flow.Sequence,4_27,2023-09-15T17:30:13.908Z,,0,,,2909.841000005952,completion,,,,,false,,,,144935.30000001192,144934.90000000596,142008.393,142002.70000001788,142025.059,144959.077,8,400,,,
trial,html.Screen,4_28_0,2023-09-15T17:30:16.455Z,,0,1,,2522.623000017891,response,ISIC_9860895.JPG,7,ISIC_0027836.JPG,ISIC_0027836.JPG,false,0,keypress(z),500,147482.10000002384,147481.70000001788,144942.411,144935.5,144959.077,147508.975,8,400,29,,ISIC_9860895.JPG
break,html.Screen,4_28_1,2023-09-15T17:30:16.456Z,,0,,,NaN,,,,,,false,,,,147483.10000002384,147482.90000000596,,147482.40000000596,,147508.975,8,400,,,
break_continue,html.Screen,4_28_2,2023-09-15T17:30:16.456Z,,0,,,NaN,,,,,,false,,,,147483.5,147483.40000000596,,147483.30000001192,,147508.975,8,400,,,
sequence,flow.Sequence,4_28,2023-09-15T17:30:16.456Z,,0,,,2524.3230000059702,completion,,,,,false,,,,147483.70000001788,147483.40000000596,144942.411,144935.40000000596,144959.077,147508.975,8,400,,,
trial,html.Screen,4_29_0,2023-09-15T17:30:19.118Z,,0,1,,2636.325000011915,response,ISIC_0031565.JPG,7,ISIC_0034074.JPG,ISIC_0031565.JPG,false,1,keypress(m),500,150146,150145.30000001192,147492.309,147483.90000000596,147508.975,150158.869,8,400,30,,ISIC_0034074.JPG
break,html.Screen,4_29_1,2023-09-15T17:30:19.120Z,,0,,,NaN,,,,,,false,,,,150147.10000002384,150146.90000000596,,150146.40000000596,,150158.869,8,400,,,
break_continue,html.Screen,4_29_2,2023-09-15T17:30:19.120Z,,0,,,NaN,,,,,,false,,,,150147.40000000596,150147.20000001788,,150147.20000001788,,150158.869,8,400,,,
sequence,flow.Sequence,4_29,2023-09-15T17:30:19.120Z,,0,,,2638.2250000178756,completion,,,,,false,,,,150147.5,150147.20000001788,147492.309,147483.90000000596,147508.975,150158.869,8,400,,,
trial,html.Screen,4_30_0,2023-09-15T17:30:21.680Z,,0,1,,2548.231000023836,response,ISIC_1739667.JPG,7,ISIC_0025277.JPG,ISIC_1739667.JPG,false,1,keypress(m),500,152707.60000002384,152707.10000002384,150142.203,150147.60000002384,150158.869,152725.433,8,400,31,,ISIC_0025277.JPG
break,html.Screen,4_30_1,2023-09-15T17:30:21.681Z,,0,,,NaN,,,,,,false,,,,152708.60000002384,152708.40000000596,,152707.90000000596,,152725.433,8,400,,,
break_continue,html.Screen,4_30_2,2023-09-15T17:30:21.681Z,,0,,,NaN,,,,,,false,,,,152709,152708.90000000596,,152708.80000001192,,152725.433,8,400,,,
sequence,flow.Sequence,4_30,2023-09-15T17:30:21.682Z,,0,,,2550.0310000059544,completion,,,,,false,,,,152709.10000002384,152708.90000000596,150142.203,150147.60000002384,150158.869,152725.433,8,400,,,
trial,html.Screen,4_31_0,2023-09-15T17:30:24.316Z,,0,1,,2618.2670000178914,response,ISIC_0072412.JPG,8,ISIC_6390738.JPG,ISIC_6390738.JPG,false,0,keypress(z),500,155344.20000001788,155343.70000001788,152708.767,152709.30000001192,152725.433,155359.387,8,400,32,,ISIC_0072412.JPG
break,html.Screen,4_31_1,2023-09-15T17:30:24.317Z,,0,,,NaN,,,,,,false,,,,155345.20000001788,155345,,155344.40000000596,,155359.387,8,400,,,
break_continue,html.Screen,4_31_2,2023-09-15T17:30:24.318Z,,0,,,NaN,,,,,,false,,,,155345.60000002384,155345.40000000596,,155345.30000001192,,155359.387,8,400,,,
sequence,flow.Sequence,4_31,2023-09-15T17:30:24.318Z,,0,,,2619.9670000059705,completion,,,,,false,,,,155345.70000001788,155345.40000000596,152708.767,152709.20000001788,152725.433,155359.387,8,400,,,
trial,html.Screen,4_32_0,2023-09-15T17:30:26.914Z,,0,1,,2582.3130000178935,response,ISIC_9786863.JPG,6,ISIC_0011642.JPG,ISIC_9786863.JPG,false,1,keypress(m),500,157942.20000001788,157941.70000001788,155342.721,155345.90000000596,155359.387,157959.283,8,400,33,,ISIC_0011642.JPG
break,html.Screen,4_32_1,2023-09-15T17:30:26.915Z,,0,,,NaN,,,,,,false,,,,157943.20000001788,157942.90000000596,,157942.40000000596,,157959.283,8,400,,,
break_continue,html.Screen,4_32_2,2023-09-15T17:30:26.916Z,,0,,,NaN,,,,,,false,,,,157943.60000002384,157943.40000000596,,157943.30000001192,,157959.283,8,400,,,
sequence,flow.Sequence,4_32,2023-09-15T17:30:26.916Z,,0,,,2584.0130000059726,completion,,,,,false,,,,157943.70000001788,157943.40000000596,155342.721,155345.90000000596,155359.387,157959.283,8,400,,,
trial,html.Screen,4_33_0,2023-09-15T17:30:29.495Z,,0,1,,2563.317000023846,response,ISIC_0011507.JPG,5,ISIC_0071957.JPG,ISIC_0071957.JPG,false,0,keypress(z),500,160523.10000002384,160522.60000002384,157942.617,157943.90000000596,157959.283,160542.513,8,400,34,,ISIC_0011507.JPG
break,html.Screen,4_33_1,2023-09-15T17:30:29.496Z,,0,,,NaN,,,,,,false,,,,160524.10000002384,160523.90000000596,,160523.40000000596,,160542.513,8,400,,,
break_continue,html.Screen,4_33_2,2023-09-15T17:30:29.497Z,,0,,,NaN,,,,,,false,,,,160524.5,160524.30000001192,,160524.20000001788,,160542.513,8,400,,,
sequence,flow.Sequence,4_33,2023-09-15T17:30:29.497Z,,0,,,2565.017000011925,completion,,,,,false,,,,160524.70000001788,160524.30000001192,157942.617,157943.80000001192,157959.283,160542.513,8,400,,,
trial,html.Screen,4_34_0,2023-09-15T17:30:32.045Z,,0,1,,2530.0870000238356,response,ISIC_7899041.JPG,5,ISIC_7748144.JPG,ISIC_7748144.JPG,false,0,keypress(z),500,163073.10000002384,163072.60000002384,160525.847,160524.90000000596,160542.513,163092.411,8,400,35,,ISIC_7899041.JPG
break,html.Screen,4_34_1,2023-09-15T17:30:32.046Z,,0,,,NaN,,,,,,false,,,,163074.20000001788,163074,,163073.5,,163092.411,8,400,,,
break_continue,html.Screen,4_34_2,2023-09-15T17:30:32.047Z,,0,,,NaN,,,,,,false,,,,163074.60000002384,163074.40000000596,,163074.30000001192,,163092.411,8,400,,,
sequence,flow.Sequence,4_34,2023-09-15T17:30:32.047Z,,0,,,2531.887000005954,completion,,,,,false,,,,163074.70000001788,163074.40000000596,160525.847,160524.80000001192,160542.513,163092.411,8,400,,,
trial,html.Screen,4_35_0,2023-09-15T17:30:34.749Z,,0,1,,2684.189000023849,response,ISIC_5821293.JPG,6,ISIC_0001831.JPG,ISIC_0001831.JPG,false,0,keypress(z),500,165777,165776.60000002384,163075.745,163075,163092.411,165793.123,8,400,36,,ISIC_5821293.JPG
break,html.Screen,4_35_1,2023-09-15T17:30:34.750Z,,0,,,NaN,,,,,,false,,,,165778,165777.80000001192,,165777.30000001192,,165793.123,8,400,,,
break_continue,html.Screen,4_35_2,2023-09-15T17:30:34.750Z,,0,,,NaN,,,,,,false,,,,165778.5,165778.30000001192,,165778.20000001788,,165793.123,8,400,,,
sequence,flow.Sequence,4_35,2023-09-15T17:30:34.751Z,,0,,,2685.889000011928,completion,,,,,false,,,,165778.70000001788,165778.30000001192,163075.745,163074.90000000596,163092.411,165793.123,8,400,,,
trial,html.Screen,4_36_0,2023-09-15T17:30:37.635Z,,0,1,,2869.777000005968,response,ISIC_7167811.JPG,6,ISIC_7336383.JPG,ISIC_7336383.JPG,false,0,keypress(z),500,168663.40000000596,168662.90000000596,165776.457,165778.80000001192,165793.123,168693.007,8,400,37,,ISIC_7167811.JPG
break,html.Screen,4_36_1,2023-09-15T17:30:37.636Z,,0,,,NaN,,,,,,false,,,,168664.30000001192,168664.20000001788,,168663.60000002384,,168693.007,8,400,,,
break_continue,html.Screen,4_36_2,2023-09-15T17:30:37.636Z,,0,,,NaN,,,,,,false,,,,168664.70000001788,168664.5,,168664.5,,168693.007,8,400,,,
sequence,flow.Sequence,4_36,2023-09-15T17:30:37.637Z,,0,,,2871.3770000000077,completion,,,,,false,,,,168664.80000001192,168664.5,165776.457,165778.80000001192,165793.123,168693.007,8,400,,,
trial,html.Screen,4_37_0,2023-09-15T17:30:40.316Z,,0,1,,2650.393000005948,response,ISIC_9876004.JPG,7,ISIC_4958578.JPG,ISIC_9876004.JPG,false,1,keypress(m),500,171343.90000000596,171343.40000000596,168676.341,168664.90000000596,168693.007,171359.567,8,400,38,,ISIC_4958578.JPG
break,html.Screen,4_37_1,2023-09-15T17:30:40.317Z,,0,,,NaN,,,,,,false,,,,171344.80000001192,171344.60000002384,,171344.20000001788,,171359.567,8,400,,,
break_continue,html.Screen,4_37_2,2023-09-15T17:30:40.317Z,,0,,,NaN,,,,,,false,,,,171345.10000002384,171345,,171344.90000000596,,171359.567,8,400,,,
sequence,flow.Sequence,4_37,2023-09-15T17:30:40.317Z,,0,,,2651.9929999999877,completion,,,,,false,,,,171345.30000001192,171345,168676.341,168664.90000000596,168693.007,171359.567,8,400,,,
trial,html.Screen,4_38_0,2023-09-15T17:30:42.913Z,,0,1,,2581.533000023832,response,ISIC_0031422.JPG,6,ISIC_4328662.JPG,ISIC_4328662.JPG,false,0,keypress(z),500,173941.60000002384,173941.10000002384,171342.901,171345.5,171359.567,173960.283,8,400,39,,ISIC_0031422.JPG
break,html.Screen,4_38_1,2023-09-15T17:30:42.914Z,,0,,,NaN,,,,,,false,,,,173942.70000001788,173942.40000000596,,173941.90000000596,,173960.283,8,400,,,
break_continue,html.Screen,4_38_2,2023-09-15T17:30:42.915Z,,0,,,NaN,,,,,,false,,,,173943.10000002384,173943,,173942.80000001192,,173960.283,8,400,,,
sequence,flow.Sequence,4_38,2023-09-15T17:30:42.915Z,,0,,,2583.43299999999,completion,,,,,false,,,,173943.30000001192,173943,171342.901,171345.40000000596,171359.567,173960.283,8,400,,,
trial,html.Screen,4_39_0,2023-09-15T17:30:45.454Z,,0,1,,2521.4170000178856,response,ISIC_0010046.JPG,4,ISIC_4781169.JPG,ISIC_4781169.JPG,false,0,keypress(z),500,176482.10000002384,176481.70000001788,173943.617,173943.40000000596,173960.283,176510.181,8,400,40,,ISIC_0010046.JPG
break,html.Screen,4_39_1,2023-09-15T17:30:45.455Z,,0,,,NaN,,,,,,false,,,,176483.10000002384,176482.80000001192,,176482.40000000596,,176510.181,8,400,,,
break_continue,html.Screen,4_39_2,2023-09-15T17:30:45.455Z,,0,,,NaN,,,,,,false,,,,176483.40000000596,176483.30000001192,,176483.20000001788,,176510.181,8,400,,,
sequence,flow.Sequence,4_39,2023-09-15T17:30:45.455Z,,0,,,2523.017000011925,completion,,,,,false,,,,176483.60000002384,176483.30000001192,173943.617,173943.40000000596,173960.283,176510.181,8,400,,,
trial,html.Screen,4_40_0,2023-09-15T17:30:47.964Z,,0,1,,2482.219000005949,response,ISIC_0057462.JPG,6,ISIC_8837880.JPG,ISIC_8837880.JPG,false,0,keypress(z),500,178993,178992.40000000596,176493.515,176483.60000002384,176510.181,179010.081,8,400,41,,ISIC_0057462.JPG
break,html.Screen,4_40_1,2023-09-15T17:30:47.966Z,,0,,,NaN,,,,,,false,,,,178994.20000001788,178993.90000000596,,178993.40000000596,,179010.081,8,400,,,
break_continue,html.Screen,4_40_2,2023-09-15T17:30:47.966Z,,0,,,NaN,,,,,,false,,,,178994.60000002384,178994.40000000596,,178994.30000001192,,179010.081,8,400,,,
sequence,flow.Sequence,4_40,2023-09-15T17:30:47.966Z,,0,,,2484.219000005949,completion,,,,,false,,,,178994.80000001192,178994.40000000596,176493.515,176483.60000002384,176510.181,179010.081,8,400,,,
trial,html.Screen,4_41_0,2023-09-15T17:30:50.515Z,,0,1,,2533.319000005955,response,ISIC_1595103.JPG,6,ISIC_0024990.JPG,ISIC_1595103.JPG,false,1,keypress(m),500,181543.90000000596,181543.40000000596,178993.415,178995,179010.081,181559.979,8,400,42,,ISIC_0024990.JPG
break,html.Screen,4_41_1,2023-09-15T17:30:50.516Z,,0,,,NaN,,,,,,false,,,,181544.80000001192,181544.70000001788,,181544.20000001788,,181559.979,8,400,,,
break_continue,html.Screen,4_41_2,2023-09-15T17:30:50.517Z,,0,,,NaN,,,,,,false,,,,181545.20000001788,181545.10000002384,,181544.90000000596,,181559.979,8,400,,,
sequence,flow.Sequence,4_41,2023-09-15T17:30:50.517Z,,0,,,2535.0190000238363,completion,,,,,false,,,,181545.5,181545.10000002384,178993.415,178994.90000000596,179010.081,181559.979,8,400,,,
trial,html.Screen,4_42_0,2023-09-15T17:30:53.064Z,,0,1,,2531.521000000008,response,ISIC_0025409.JPG,5,ISIC_0061751.JPG,ISIC_0025409.JPG,false,1,keypress(m),500,184092.40000000596,184091.5,181543.313,181545.60000002384,181559.979,184110.68,8,400,43,,ISIC_0061751.JPG
break,html.Screen,4_42_1,2023-09-15T17:30:53.065Z,,0,,,NaN,,,,,,false,,,,184093.5,184093.30000001192,,184092.80000001192,,184110.68,8,400,,,
break_continue,html.Screen,4_42_2,2023-09-15T17:30:53.065Z,,0,,,NaN,,,,,,false,,,,184093.80000001192,184093.70000001788,,184093.70000001788,,184110.68,8,400,,,
sequence,flow.Sequence,4_42,2023-09-15T17:30:53.065Z,,0,,,2533.7210000178893,completion,,,,,false,,,,184094.10000002384,184093.70000001788,181543.313,181545.60000002384,181559.979,184110.68,8,400,,,
trial,html.Screen,4_43_0,2023-09-15T17:30:55.613Z,,0,1,,2530.320000000007,response,ISIC_0065480.JPG,5,ISIC_3269018.JPG,ISIC_3269018.JPG,false,0,keypress(z),500,186641.30000001192,186641,184094.014,184094.30000001192,184110.68,186660.578,8,400,44,,ISIC_0065480.JPG
break,html.Screen,4_43_1,2023-09-15T17:30:55.613Z,,0,,,NaN,,,,,,false,,,,186642.30000001192,186642,,186641.70000001788,,186660.578,8,400,,,
break_continue,html.Screen,4_43_2,2023-09-15T17:30:55.614Z,,0,,,NaN,,,,,,false,,,,186642.70000001788,186642.60000002384,,186642.40000000596,,186660.578,8,400,,,
sequence,flow.Sequence,4_43,2023-09-15T17:30:55.614Z,,0,,,2531.920000023849,completion,,,,,false,,,,186642.80000001192,186642.60000002384,184094.014,184094.20000001788,184110.68,186660.578,8,400,,,
trial,html.Screen,4_44_0,2023-09-15T17:30:58.338Z,,0,1,,2705.622000017873,response,ISIC_0033213.JPG,5,ISIC_9353514.JPG,ISIC_0033213.JPG,false,1,keypress(m),500,189366.60000002384,189366.20000001788,186643.912,186643,186660.578,189393.802,8,400,45,,ISIC_9353514.JPG
break,html.Screen,4_44_1,2023-09-15T17:30:58.339Z,,0,,,NaN,,,,,,false,,,,189367.5,189367.30000001192,,189366.90000000596,,189393.802,8,400,,,
break_continue,html.Screen,4_44_2,2023-09-15T17:30:58.339Z,,0,,,NaN,,,,,,false,,,,189367.90000000596,189367.80000001192,,189367.60000002384,,189393.802,8,400,,,
sequence,flow.Sequence,4_44,2023-09-15T17:30:58.339Z,,0,,,2707.2220000119123,completion,,,,,false,,,,189368.10000002384,189367.80000001192,186643.912,186642.90000000596,186660.578,189393.802,8,400,,,
trial,html.Screen,4_45_0,2023-09-15T17:31:00.984Z,,0,1,,2618.998000011925,response,ISIC_0030296.JPG,7,ISIC_0026659.JPG,ISIC_0026659.JPG,false,0,keypress(z),500,192013.20000001788,192012.80000001192,189377.136,189368.30000001192,189393.802,192043.696,8,400,46,,ISIC_0030296.JPG
break,html.Screen,4_45_1,2023-09-15T17:31:00.985Z,,0,,,NaN,,,,,,false,,,,192014.20000001788,192014,,192013.60000002384,,192043.696,8,400,,,
break_continue,html.Screen,4_45_2,2023-09-15T17:31:00.986Z,,0,,,NaN,,,,,,false,,,,192014.60000002384,192014.5,,192014.40000000596,,192043.696,8,400,,,
sequence,flow.Sequence,4_45,2023-09-15T17:31:00.986Z,,0,,,2620.698000000004,completion,,,,,false,,,,192014.80000001192,192014.5,189377.136,189368.30000001192,189393.802,192043.696,8,400,,,
trial,html.Screen,4_46_0,2023-09-15T17:31:03.535Z,,0,1,,2519.9040000238456,response,ISIC_0000371.JPG,6,ISIC_1450548.JPG,ISIC_1450548.JPG,false,0,keypress(z),500,194564.20000001788,194563.60000002384,192027.03,192015,192043.696,194577.714,8,400,47,,ISIC_0000371.JPG
break,html.Screen,4_46_1,2023-09-15T17:31:03.536Z,,0,,,NaN,,,,,,false,,,,194565.30000001192,194565.10000002384,,194564.60000002384,,194577.714,8,400,,,
break_continue,html.Screen,4_46_2,2023-09-15T17:31:03.537Z,,0,,,NaN,,,,,,false,,,,194565.70000001788,194565.60000002384,,194565.40000000596,,194577.714,8,400,,,
sequence,flow.Sequence,4_46,2023-09-15T17:31:03.537Z,,0,,,2521.9040000238456,completion,,,,,false,,,,194565.90000000596,194565.60000002384,192027.03,192014.90000000596,192043.696,194577.714,8,400,,,
trial,html.Screen,4_47_0,2023-09-15T17:31:06.487Z,,0,1,,2937.785999999993,response,ISIC_0026185.JPG,6,ISIC_0061231.JPG,ISIC_0026185.JPG,false,1,keypress(m),500,197516,197515.5,194561.048,194566.10000002384,194577.714,197544.262,8,400,48,,ISIC_0061231.JPG
break,html.Screen,4_47_1,2023-09-15T17:31:06.488Z,,0,,,NaN,,,,,,false,,,,197516.90000000596,197516.70000001788,,197516.30000001192,,197544.262,8,400,,,
break_continue,html.Screen,4_47_2,2023-09-15T17:31:06.488Z,,0,,,NaN,,,,,,false,,,,197517.30000001192,197517.20000001788,,197517.10000002384,,197544.262,8,400,,,
sequence,flow.Sequence,4_47,2023-09-15T17:31:06.488Z,,0,,,2939.486000017874,completion,,,,,false,,,,197517.30000001192,197517.20000001788,194561.048,194566.10000002384,194577.714,197544.262,8,400,,,
trial,html.Screen,4_48_0,2023-09-15T17:31:09.027Z,,0,1,,2511.6380000059726,response,ISIC_3163773.JPG,7,ISIC_4087267.JPG,ISIC_3163773.JPG,false,1,keypress(m),500,200056.30000001192,200055.90000000596,197527.596,197517.70000001788,197544.262,200077.494,8,400,49,,ISIC_4087267.JPG
break,html.Screen,4_48_1,2023-09-15T17:31:09.028Z,,0,,,NaN,,,,,,false,,,,200057.30000001192,200057.10000002384,,200056.60000002384,,200077.494,8,400,,,
break_continue,html.Screen,4_48_2,2023-09-15T17:31:09.028Z,,0,,,NaN,,,,,,false,,,,200057.70000001788,200057.60000002384,,200057.40000000596,,200077.494,8,400,,,
sequence,flow.Sequence,4_48,2023-09-15T17:31:09.029Z,,0,,,2513.338000023854,completion,,,,,false,,,,200057.90000000596,200057.60000002384,197527.596,197517.60000002384,197544.262,200077.494,8,400,,,
trial,html.Screen,4_49_0,2023-09-15T17:31:11.869Z,,0,1,,2820.106000023836,response,ISIC_9182492.JPG,5,ISIC_0027276.JPG,ISIC_9182492.JPG,false,1,keypress(m),500,202898.10000002384,202897.60000002384,200060.828,200058.10000002384,200077.494,202927.38,8,400,50,,ISIC_0027276.JPG
break,html.Screen,4_49_1,2023-09-15T17:31:21.886Z,,0,,,10000.415000000008,timeout,,,,,false,,,,212915.70000001788,212911.129,202910.714,202898.40000000596,202927.38,212927.795,8,400,,,
break_continue,html.Screen,4_49_2,2023-09-15T17:31:24.447Z,,0,,,2536.6050000059477,response,,,,,false,continue,keypress(Space),,215477.30000001192,215464.40000000596,212911.129,212915.90000000596,212927.795,215495.153,8,400,,,
sequence,flow.Sequence,4_49,2023-09-15T17:31:24.448Z,,0,,,15386.906000005954,completion,,,,,false,,,,215477.5,215464.40000000596,200060.828,200058.10000002384,200077.494,215495.153,8,400,,,
trial,html.Screen,4_50_0,2023-09-15T17:31:27.185Z,,0,2,,2719.7470000059693,response,ISIC_9626777.JPG,5,ISIC_4401524.JPG,ISIC_4401524.JPG,false,0,keypress(z),500,218215.30000001192,218214.90000000596,215478.487,215477.60000002384,215495.153,218245.043,8,400,1,,ISIC_9626777.JPG
break,html.Screen,4_50_1,2023-09-15T17:31:27.186Z,,0,,,NaN,,,,,,false,,,,218216.30000001192,218216.10000002384,,218215.60000002384,,218245.043,8,400,,,
break_continue,html.Screen,4_50_2,2023-09-15T17:31:27.187Z,,0,,,NaN,,,,,,false,,,,218216.80000001192,218216.60000002384,,218216.40000000596,,218245.043,8,400,,,
sequence,flow.Sequence,4_50,2023-09-15T17:31:27.187Z,,0,,,2721.4470000238507,completion,,,,,false,,,,218217,218216.60000002384,215478.487,215477.60000002384,215495.153,218245.043,8,400,,,
trial,html.Screen,4_51_0,2023-09-15T17:31:35.450Z,,0,2,,8234.257000011916,response,ISIC_2518896.JPG,6,ISIC_3590997.JPG,ISIC_2518896.JPG,false,1,keypress(m),500,226479.90000000596,226479.30000001192,218228.377,218217.10000002384,218245.043,226495.507,8,400,2,,ISIC_3590997.JPG
break,html.Screen,4_51_1,2023-09-15T17:31:35.451Z,,0,,,NaN,,,,,,false,,,,226481.10000002384,226480.80000001192,,226480.30000001192,,226495.507,8,400,,,
break_continue,html.Screen,4_51_2,2023-09-15T17:31:35.451Z,,0,,,NaN,,,,,,false,,,,226481.60000002384,226481.5,,226481.30000001192,,226495.507,8,400,,,
sequence,flow.Sequence,4_51,2023-09-15T17:31:35.452Z,,0,,,8236.456999999995,completion,,,,,false,,,,226481.80000001192,226481.5,218228.377,218217,218245.043,226495.507,8,400,,,
trial,html.Screen,4_52_0,2023-09-15T17:31:38.959Z,,0,2,,3493.5930000238295,response,ISIC_0011507.JPG,5,ISIC_6247668.JPG,ISIC_6247668.JPG,false,0,keypress(z),500,229989.5,229989.10000002384,226478.841,226482,226495.507,230012.033,8,400,3,,ISIC_0011507.JPG
break,html.Screen,4_52_1,2023-09-15T17:31:38.960Z,,0,,,NaN,,,,,,false,,,,229990.30000001192,229990.10000002384,,229989.70000001788,,230012.033,8,400,,,
break_continue,html.Screen,4_52_2,2023-09-15T17:31:38.960Z,,0,,,NaN,,,,,,false,,,,229990.70000001788,229990.60000002384,,229990.40000000596,,230012.033,8,400,,,
sequence,flow.Sequence,4_52,2023-09-15T17:31:38.960Z,,0,,,3495.0930000238295,completion,,,,,false,,,,229990.80000001192,229990.60000002384,226478.841,226481.90000000596,226495.507,230012.033,8,400,,,
trial,html.Screen,4_53_0,2023-09-15T17:31:41.443Z,,0,2,,2461.467000000004,response,ISIC_0024792.JPG,8,ISIC_8806180.JPG,ISIC_8806180.JPG,false,0,keypress(z),500,232473.90000000596,232473.5,229995.367,229991,230012.033,232495.267,8,400,4,,ISIC_0024792.JPG
break,html.Screen,4_53_1,2023-09-15T17:31:41.445Z,,0,,,NaN,,,,,,false,,,,232475,232474.70000001788,,232474.20000001788,,232495.267,8,400,,,
break_continue,html.Screen,4_53_2,2023-09-15T17:31:41.445Z,,0,,,NaN,,,,,,false,,,,232475.40000000596,232475.20000001788,,232475.20000001788,,232495.267,8,400,,,
sequence,flow.Sequence,4_53,2023-09-15T17:31:41.445Z,,0,,,2463.1670000178856,completion,,,,,false,,,,232475.5,232475.20000001788,229995.367,229990.90000000596,230012.033,232495.267,8,400,,,
trial,html.Screen,4_54_0,2023-09-15T17:31:43.865Z,,0,2,,2399.8330000238493,response,ISIC_3981101.JPG,4,ISIC_0004794.JPG,ISIC_3981101.JPG,false,1,keypress(m),500,234895.5,234895.10000002384,232478.601,232475.70000001788,232495.267,234912.595,8,400,5,,ISIC_0004794.JPG
break,html.Screen,4_54_1,2023-09-15T17:31:43.866Z,,0,,,NaN,,,,,,false,,,,234896.5,234896.20000001788,,234895.80000001192,,234912.595,8,400,,,
break_continue,html.Screen,4_54_2,2023-09-15T17:31:43.866Z,,0,,,NaN,,,,,,false,,,,234896.90000000596,234896.70000001788,,234896.60000002384,,234912.595,8,400,,,
sequence,flow.Sequence,4_54,2023-09-15T17:31:43.867Z,,0,,,2401.433000017889,completion,,,,,false,,,,234897.10000002384,234896.70000001788,232478.601,232475.70000001788,232495.267,234912.595,8,400,,,
trial,html.Screen,4_55_0,2023-09-15T17:31:46.288Z,,0,2,,2405.904999999999,response,ISIC_4756167.JPG,6,ISIC_0060893.JPG,ISIC_4756167.JPG,false,1,keypress(m),500,237319.10000002384,237318.5,234895.929,234897.20000001788,234912.595,237345.831,8,400,6,,ISIC_0060893.JPG
break,html.Screen,4_55_1,2023-09-15T17:31:46.289Z,,0,,,NaN,,,,,,false,,,,237320,237319.80000001192,,237319.30000001192,,237345.831,8,400,,,
break_continue,html.Screen,4_55_2,2023-09-15T17:31:46.290Z,,0,,,NaN,,,,,,false,,,,237320.5,237320.20000001788,,237320.20000001788,,237345.831,8,400,,,
sequence,flow.Sequence,4_55,2023-09-15T17:31:46.290Z,,0,,,2407.6050000178802,completion,,,,,false,,,,237320.70000001788,237320.20000001788,234895.929,234897.20000001788,234912.595,237345.831,8,400,,,
trial,html.Screen,4_56_0,2023-09-15T17:31:48.902Z,,0,2,,2586.4690000119153,response,ISIC_0031278.JPG,6,ISIC_0015443.JPG,ISIC_0015443.JPG,false,0,keypress(z),500,239932.80000001192,239932.30000001192,237329.165,237320.80000001192,237345.831,239962.393,8,400,7,,ISIC_0031278.JPG
break,html.Screen,4_56_1,2023-09-15T17:31:48.903Z,,0,,,NaN,,,,,,false,,,,239933.70000001788,239933.5,,239933.10000002384,,239962.393,8,400,,,
break_continue,html.Screen,4_56_2,2023-09-15T17:31:48.903Z,,0,,,NaN,,,,,,false,,,,239934,239933.80000001192,,239933.80000001192,,239962.393,8,400,,,
sequence,flow.Sequence,4_56,2023-09-15T17:31:48.903Z,,0,,,2587.9690000119153,completion,,,,,false,,,,239934.10000002384,239933.80000001192,237329.165,237320.70000001788,237345.831,239962.393,8,400,,,
trial,html.Screen,4_57_0,2023-09-15T17:31:51.321Z,,0,2,,2389.207000023831,response,ISIC_4141898.JPG,6,ISIC_0031295.JPG,ISIC_4141898.JPG,false,1,keypress(m),500,242352,242351.60000002384,239945.727,239934.30000001192,239962.393,242378.963,8,400,8,,ISIC_0031295.JPG
break,html.Screen,4_57_1,2023-09-15T17:31:51.322Z,,0,,,NaN,,,,,,false,,,,242353,242352.80000001192,,242352.30000001192,,242378.963,8,400,,,
break_continue,html.Screen,4_57_2,2023-09-15T17:31:51.323Z,,0,,,NaN,,,,,,false,,,,242353.30000001192,242353.30000001192,,242353.10000002384,,242378.963,8,400,,,
sequence,flow.Sequence,4_57,2023-09-15T17:31:51.323Z,,0,,,2390.90700001191,completion,,,,,false,,,,242353.5,242353.30000001192,239945.727,239934.10000002384,239962.393,242378.963,8,400,,,
trial,html.Screen,4_58_0,2023-09-15T17:31:53.809Z,,0,2,,2460.337000011932,response,ISIC_0073032.JPG,7,ISIC_6254731.JPG,ISIC_6254731.JPG,false,0,keypress(z),500,244839.80000001192,244839.30000001192,242362.297,242353.80000001192,242378.963,244863.019,8,400,9,,ISIC_0073032.JPG
break,html.Screen,4_58_1,2023-09-15T17:31:53.810Z,,0,,,NaN,,,,,,false,,,,244840.80000001192,244840.60000002384,,244840.10000002384,,244863.019,8,400,,,
break_continue,html.Screen,4_58_2,2023-09-15T17:31:53.810Z,,0,,,NaN,,,,,,false,,,,244841,244840.90000000596,,244840.80000001192,,244863.019,8,400,,,
sequence,flow.Sequence,4_58,2023-09-15T17:31:53.810Z,,0,,,2461.9370000059716,completion,,,,,false,,,,244841,244840.90000000596,242362.297,242353.70000001788,242378.963,244863.019,8,400,,,
trial,html.Screen,4_59_0,2023-09-15T17:31:56.229Z,,0,2,,2396.5810000238416,response,ISIC_0031021.JPG,7,ISIC_0061627.JPG,ISIC_0031021.JPG,false,1,keypress(m),500,247260,247259.60000002384,244846.353,244841.30000001192,244863.019,247279.589,8,400,10,,ISIC_0061627.JPG
break,html.Screen,4_59_1,2023-09-15T17:31:56.230Z,,0,,,NaN,,,,,,false,,,,247261.10000002384,247260.80000001192,,247260.30000001192,,247279.589,8,400,,,
break_continue,html.Screen,4_59_2,2023-09-15T17:31:56.230Z,,0,,,NaN,,,,,,false,,,,247261.40000000596,247261.30000001192,,247261.20000001788,,247279.589,8,400,,,
sequence,flow.Sequence,4_59,2023-09-15T17:31:56.231Z,,0,,,2398.2810000119207,completion,,,,,false,,,,247261.60000002384,247261.30000001192,244846.353,244841.20000001788,244863.019,247279.589,8,400,,,
trial,html.Screen,4_60_0,2023-09-15T17:31:58.874Z,,0,2,,2625.3110000059532,response,ISIC_3737739.JPG,5,ISIC_1983754.JPG,ISIC_3737739.JPG,false,1,keypress(m),500,249905.30000001192,249904.90000000596,247262.923,247262,247279.589,249929.483,8,400,11,,ISIC_1983754.JPG
break,html.Screen,4_60_1,2023-09-15T17:31:58.875Z,,0,,,NaN,,,,,,false,,,,249906.40000000596,249906.20000001788,,249905.70000001788,,249929.483,8,400,,,
break_continue,html.Screen,4_60_2,2023-09-15T17:31:58.876Z,,0,,,NaN,,,,,,false,,,,249906.80000001192,249906.70000001788,,249906.5,,249929.483,8,400,,,
sequence,flow.Sequence,4_60,2023-09-15T17:31:58.876Z,,0,,,2627.111000017874,completion,,,,,false,,,,249907,249906.70000001788,247262.923,247261.80000001192,247279.589,249929.483,8,400,,,
trial,html.Screen,4_61_0,2023-09-15T17:32:01.327Z,,0,2,,2428.717000017874,response,ISIC_5615694.JPG,8,ISIC_1520897.JPG,ISIC_5615694.JPG,false,1,keypress(m),500,252358.60000002384,252358.20000001788,249912.817,249907.30000001192,249929.483,252379.385,8,400,12,,ISIC_1520897.JPG
break,html.Screen,4_61_1,2023-09-15T17:32:01.328Z,,0,,,NaN,,,,,,false,,,,252359.60000002384,252359.40000000596,,252358.90000000596,,252379.385,8,400,,,
break_continue,html.Screen,4_61_2,2023-09-15T17:32:01.329Z,,0,,,NaN,,,,,,false,,,,252359.90000000596,252359.80000001192,,252359.70000001788,,252379.385,8,400,,,
sequence,flow.Sequence,4_61,2023-09-15T17:32:01.329Z,,0,,,2430.3170000119135,completion,,,,,false,,,,252360.10000002384,252359.80000001192,249912.817,249907.30000001192,249929.483,252379.385,8,400,,,
trial,html.Screen,4_62_0,2023-09-15T17:32:04.024Z,,0,2,,2675.315000017872,response,ISIC_0014695.JPG,6,ISIC_9453737.JPG,ISIC_9453737.JPG,false,0,keypress(z),500,255055.20000001788,255054.70000001788,252362.719,252360.30000001192,252379.385,255080.07,8,400,13,,ISIC_0014695.JPG
break,html.Screen,4_62_1,2023-09-15T17:32:04.025Z,,0,,,NaN,,,,,,false,,,,255056.10000002384,255055.90000000596,,255055.40000000596,,255080.07,8,400,,,
break_continue,html.Screen,4_62_2,2023-09-15T17:32:04.025Z,,0,,,NaN,,,,,,false,,,,255056.5,255056.40000000596,,255056.30000001192,,255080.07,8,400,,,
sequence,flow.Sequence,4_62,2023-09-15T17:32:04.025Z,,0,,,2677.015000005951,completion,,,,,false,,,,255056.70000001788,255056.40000000596,252362.719,252360.20000001788,252379.385,255080.07,8,400,,,
trial,html.Screen,4_63_0,2023-09-15T17:32:06.524Z,,0,2,,2475.030000023835,response,ISIC_3585381.JPG,8,ISIC_0059864.JPG,ISIC_3585381.JPG,false,1,keypress(m),500,257555.5,257555.10000002384,255063.404,255056.90000000596,255080.07,257579.97,8,400,14,,ISIC_0059864.JPG
break,html.Screen,4_63_1,2023-09-15T17:32:06.525Z,,0,,,NaN,,,,,,false,,,,257556.60000002384,257556.30000001192,,257555.90000000596,,257579.97,8,400,,,
break_continue,html.Screen,4_63_2,2023-09-15T17:32:06.526Z,,0,,,NaN,,,,,,false,,,,257556.90000000596,257556.80000001192,,257556.70000001788,,257579.97,8,400,,,
sequence,flow.Sequence,4_63,2023-09-15T17:32:06.526Z,,0,,,2476.730000011914,completion,,,,,false,,,,257557.10000002384,257556.80000001192,255063.404,255056.80000001192,255080.07,257579.97,8,400,,,
trial,html.Screen,4_64_0,2023-09-15T17:32:09.009Z,,0,2,,2460.3300000119198,response,ISIC_0029906.JPG,7,ISIC_4232761.JPG,ISIC_0029906.JPG,false,1,keypress(m),500,260040.60000002384,260040.30000001192,257563.304,257557.30000001192,257579.97,260063.204,8,400,15,,ISIC_4232761.JPG
break,html.Screen,4_64_1,2023-09-15T17:32:09.010Z,,0,,,NaN,,,,,,false,,,,260041.20000001788,260041.10000002384,,260040.80000001192,,260063.204,8,400,,,
break_continue,html.Screen,4_64_2,2023-09-15T17:32:09.010Z,,0,,,NaN,,,,,,false,,,,260041.5,260041.30000001192,,260041.30000001192,,260063.204,8,400,,,
sequence,flow.Sequence,4_64,2023-09-15T17:32:09.010Z,,0,,,2461.3300000119198,completion,,,,,false,,,,260041.5,260041.30000001192,257563.304,257557.20000001788,257579.97,260063.204,8,400,,,
trial,html.Screen,4_65_0,2023-09-15T17:32:11.593Z,,0,2,,2560.6960000059626,response,ISIC_7685761.JPG,7,ISIC_0033704.JPG,ISIC_7685761.JPG,false,1,keypress(m),500,262624.3000000119,262623.90000000596,260046.538,260041.60000002384,260063.204,262646.434,8,400,16,,ISIC_0033704.JPG
break,html.Screen,4_65_1,2023-09-15T17:32:11.594Z,,0,,,NaN,,,,,,false,,,,262625.40000000596,262625.2000000179,,262624.60000002384,,262646.434,8,400,,,
break_continue,html.Screen,4_65_2,2023-09-15T17:32:11.594Z,,0,,,NaN,,,,,,false,,,,262625.7000000179,262625.60000002384,,262625.5,,262646.434,8,400,,,
sequence,flow.Sequence,4_65,2023-09-15T17:32:11.594Z,,0,,,2562.396000023844,completion,,,,,false,,,,262626,262625.60000002384,260046.538,260041.60000002384,260063.204,262646.434,8,400,,,
trial,html.Screen,4_66_0,2023-09-15T17:32:14.047Z,,0,2,,2432.266000017873,response,ISIC_0026371.JPG,6,ISIC_9024529.JPG,ISIC_0026371.JPG,false,1,keypress(m),500,265079,265078.7000000179,262629.768,262626.10000002384,262646.434,265097.108,8,400,17,,ISIC_9024529.JPG
break,html.Screen,4_66_1,2023-09-15T17:32:14.048Z,,0,,,NaN,,,,,,false,,,,265080,265079.8000000119,,265079.3000000119,,265097.108,8,400,,,
break_continue,html.Screen,4_66_2,2023-09-15T17:32:14.049Z,,0,,,NaN,,,,,,false,,,,265080.40000000596,265080.3000000119,,265080.10000002384,,265097.108,8,400,,,
sequence,flow.Sequence,4_66,2023-09-15T17:32:14.049Z,,0,,,2433.8660000119125,completion,,,,,false,,,,265080.60000002384,265080.3000000119,262629.768,262626,262646.434,265097.108,8,400,,,
trial,html.Screen,4_67_0,2023-09-15T17:32:16.596Z,,0,2,,2530.4920000238344,response,ISIC_9168700.JPG,5,ISIC_0033089.JPG,ISIC_0033089.JPG,false,0,keypress(z),500,267628.10000002384,267627.60000002384,265080.442,265080.8000000119,265097.108,267647.006,8,400,18,,ISIC_9168700.JPG
break,html.Screen,4_67_1,2023-09-15T17:32:16.597Z,,0,,,NaN,,,,,,false,,,,267629.10000002384,267628.90000000596,,267628.40000000596,,267647.006,8,400,,,
break_continue,html.Screen,4_67_2,2023-09-15T17:32:16.598Z,,0,,,NaN,,,,,,false,,,,267629.5,267629.40000000596,,267629.3000000119,,267647.006,8,400,,,
sequence,flow.Sequence,4_67,2023-09-15T17:32:16.598Z,,0,,,2532.292000005953,completion,,,,,false,,,,267629.7000000179,267629.40000000596,265080.442,265080.7000000179,265097.108,267647.006,8,400,,,
trial,html.Screen,4_68_0,2023-09-15T17:32:19.039Z,,0,2,,2423.8940000059665,response,ISIC_4074537.JPG,4,ISIC_0031935.JPG,ISIC_4074537.JPG,false,1,keypress(m),500,270071.3000000119,270070.90000000596,267630.34,267629.8000000119,267647.006,270096.908,8,400,19,,ISIC_0031935.JPG
break,html.Screen,4_68_1,2023-09-15T17:32:19.040Z,,0,,,NaN,,,,,,false,,,,270072.2000000179,270072,,270071.60000002384,,270096.908,8,400,,,
break_continue,html.Screen,4_68_2,2023-09-15T17:32:19.041Z,,0,,,NaN,,,,,,false,,,,270072.60000002384,270072.5,,270072.3000000119,,270096.908,8,400,,,
sequence,flow.Sequence,4_68,2023-09-15T17:32:19.041Z,,0,,,2425.494000000006,completion,,,,,false,,,,270072.8000000119,270072.5,267630.34,267629.7000000179,267647.006,270096.908,8,400,,,
trial,html.Screen,4_69_0,2023-09-15T17:32:21.702Z,,0,2,,2636.2920000178856,response,ISIC_0033193.JPG,7,ISIC_0055737.JPG,ISIC_0055737.JPG,false,0,keypress(z),500,272733.7000000179,272733.2000000179,270080.242,270073,270096.908,272746.802,8,400,20,,ISIC_0033193.JPG
break,html.Screen,4_69_1,2023-09-15T17:32:21.703Z,,0,,,NaN,,,,,,false,,,,272734.60000002384,272734.40000000596,,272733.90000000596,,272746.802,8,400,,,
break_continue,html.Screen,4_69_2,2023-09-15T17:32:21.703Z,,0,,,NaN,,,,,,false,,,,272735.3000000119,272735.10000002384,,272734.7000000179,,272746.802,8,400,,,
sequence,flow.Sequence,4_69,2023-09-15T17:32:21.704Z,,0,,,2638.192000023846,completion,,,,,false,,,,272735.60000002384,272735.10000002384,270080.242,270072.90000000596,270096.908,272746.802,8,400,,,
trial,html.Screen,4_70_0,2023-09-15T17:32:24.362Z,,0,2,,2646.197999999975,response,ISIC_0012653.JPG,6,ISIC_1253960.JPG,ISIC_1253960.JPG,false,0,keypress(z),500,275393.60000002384,275393,272730.136,272735.8000000119,272746.802,275414.162,8,400,21,,ISIC_0012653.JPG
break,html.Screen,4_70_1,2023-09-15T17:32:24.363Z,,0,,,NaN,,,,,,false,,,,275394.5,275394.3000000119,,275393.90000000596,,275414.162,8,400,,,
break_continue,html.Screen,4_70_2,2023-09-15T17:32:24.363Z,,0,,,NaN,,,,,,false,,,,275394.90000000596,275394.8000000119,,275394.7000000179,,275414.162,8,400,,,
sequence,flow.Sequence,4_70,2023-09-15T17:32:24.363Z,,0,,,2647.998000011896,completion,,,,,false,,,,275395.10000002384,275394.8000000119,272730.136,272735.60000002384,272746.802,275414.162,8,400,,,
trial,html.Screen,4_71_0,2023-09-15T17:32:26.863Z,,0,2,,2480.1380000119098,response,ISIC_3170155.JPG,4,ISIC_0032462.JPG,ISIC_3170155.JPG,false,1,keypress(m),500,277894.8000000119,277894.3000000119,275397.496,275395.2000000179,275414.162,277914.062,8,400,22,,ISIC_0032462.JPG
break,html.Screen,4_71_1,2023-09-15T17:32:26.864Z,,0,,,NaN,,,,,,false,,,,277895.8000000119,277895.60000002384,,277895.10000002384,,277914.062,8,400,,,
break_continue,html.Screen,4_71_2,2023-09-15T17:32:26.864Z,,0,,,NaN,,,,,,false,,,,277896.2000000179,277896.10000002384,,277895.90000000596,,277914.062,8,400,,,
sequence,flow.Sequence,4_71,2023-09-15T17:32:26.864Z,,0,,,2481.9380000238307,completion,,,,,false,,,,277896.40000000596,277896.10000002384,275397.496,275395.2000000179,275414.162,277914.062,8,400,,,
trial,html.Screen,4_72_0,2023-09-15T17:32:29.818Z,,0,2,,2935.838000005984,response,ISIC_0053846.JPG,5,ISIC_0013204.JPG,ISIC_0013204.JPG,false,0,keypress(z),500,280850.40000000596,280849.90000000596,277897.396,277896.5,277914.062,280880.61,8,400,23,,ISIC_0053846.JPG
break,html.Screen,4_72_1,2023-09-15T17:32:29.819Z,,0,,,NaN,,,,,,false,,,,280851.3000000119,280851.10000002384,,280850.7000000179,,280880.61,8,400,,,
break_continue,html.Screen,4_72_2,2023-09-15T17:32:29.819Z,,0,,,NaN,,,,,,false,,,,280851.60000002384,280851.5,,280851.40000000596,,280880.61,8,400,,,
sequence,flow.Sequence,4_72,2023-09-15T17:32:29.820Z,,0,,,2937.4380000000237,completion,,,,,false,,,,280851.7000000179,280851.5,277897.396,277896.40000000596,277914.062,280880.61,8,400,,,
trial,html.Screen,4_73_0,2023-09-15T17:32:32.453Z,,0,2,,2603.7900000059744,response,ISIC_6380209.JPG,6,ISIC_0000444.JPG,ISIC_6380209.JPG,false,1,keypress(m),500,283484.90000000596,283484.40000000596,280863.944,280851.90000000596,280880.61,283513.838,8,400,24,,ISIC_0000444.JPG
break,html.Screen,4_73_1,2023-09-15T17:32:32.454Z,,0,,,NaN,,,,,,false,,,,283486,283485.7000000179,,283485.40000000596,,283513.838,8,400,,,
break_continue,html.Screen,4_73_2,2023-09-15T17:32:32.454Z,,0,,,NaN,,,,,,false,,,,283486.40000000596,283486.2000000179,,283486.10000002384,,283513.838,8,400,,,
sequence,flow.Sequence,4_73,2023-09-15T17:32:32.454Z,,0,,,2605.5900000178954,completion,,,,,false,,,,283486.60000002384,283486.2000000179,280863.944,280851.8000000119,280880.61,283513.838,8,400,,,
trial,html.Screen,4_74_0,2023-09-15T17:32:35.033Z,,0,2,,2550.662000000011,response,ISIC_3072311.JPG,6,ISIC_0046985.JPG,ISIC_3072311.JPG,false,1,keypress(m),500,286064.90000000596,286064.5,283497.172,283486.8000000119,283513.838,286081.175,8,400,25,,ISIC_0046985.JPG
break,html.Screen,4_74_1,2023-09-15T17:32:35.033Z,,0,,,NaN,,,,,,false,,,,286065.8000000119,286065.60000002384,,286065.10000002384,,286081.175,8,400,,,
break_continue,html.Screen,4_74_2,2023-09-15T17:32:35.034Z,,0,,,NaN,,,,,,false,,,,286066.2000000179,286066.10000002384,,286065.90000000596,,286081.175,8,400,,,
sequence,flow.Sequence,4_74,2023-09-15T17:32:35.034Z,,0,,,2552.262000023853,completion,,,,,false,,,,286066.40000000596,286066.10000002384,283497.172,283486.7000000179,283513.838,286081.175,8,400,,,
trial,html.Screen,4_75_0,2023-09-15T17:32:37.416Z,,0,2,,2367.025000017893,response,ISIC_9562157.JPG,6,ISIC_6404049.JPG,ISIC_9562157.JPG,false,1,keypress(m),500,288448.90000000596,288448.2000000179,286064.509,286066.60000002384,286081.175,288464.413,8,400,26,,ISIC_6404049.JPG
break,html.Screen,4_75_1,2023-09-15T17:32:37.418Z,,0,,,NaN,,,,,,false,,,,288450,288449.7000000179,,288449.3000000119,,288464.413,8,400,,,
break_continue,html.Screen,4_75_2,2023-09-15T17:32:37.418Z,,0,,,NaN,,,,,,false,,,,288450.5,288450.40000000596,,288450.2000000179,,288464.413,8,400,,,
sequence,flow.Sequence,4_75,2023-09-15T17:32:37.418Z,,0,,,2369.225000005972,completion,,,,,false,,,,288450.60000002384,288450.40000000596,286064.509,286066.5,286081.175,288464.413,8,400,,,
trial,html.Screen,4_76_0,2023-09-15T17:32:40.552Z,,0,2,,3119.287000017881,response,ISIC_0004042.JPG,6,ISIC_7594601.JPG,ISIC_7594601.JPG,false,0,keypress(z),500,291584.10000002384,291583.7000000179,288447.747,288450.90000000596,288464.413,291597.621,8,400,27,,ISIC_0004042.JPG
break,html.Screen,4_76_1,2023-09-15T17:32:40.552Z,,0,,,NaN,,,,,,false,,,,291584.90000000596,291584.8000000119,,291584.40000000596,,291597.621,8,400,,,
break_continue,html.Screen,4_76_2,2023-09-15T17:32:40.553Z,,0,,,NaN,,,,,,false,,,,291585.2000000179,291585.2000000179,,291585,,291597.621,8,400,,,
sequence,flow.Sequence,4_76,2023-09-15T17:32:40.553Z,,0,,,3120.787000017881,completion,,,,,false,,,,291585.40000000596,291585.2000000179,288447.747,288450.90000000596,288464.413,291597.621,8,400,,,
trial,html.Screen,4_77_0,2023-09-15T17:32:43.451Z,,0,2,,2885.6790000119363,response,ISIC_0034074.JPG,6,ISIC_0021901.JPG,ISIC_0034074.JPG,false,1,keypress(m),500,294483.8000000119,294483.3000000119,291580.955,291585.5,291597.621,294498.335,8,400,28,,ISIC_0021901.JPG
break,html.Screen,4_77_1,2023-09-15T17:32:43.452Z,,0,,,NaN,,,,,,false,,,,294484.8000000119,294484.60000002384,,294484.10000002384,,294498.335,8,400,,,
break_continue,html.Screen,4_77_2,2023-09-15T17:32:43.453Z,,0,,,NaN,,,,,,false,,,,294485.2000000179,294485.10000002384,,294485,,294498.335,8,400,,,
sequence,flow.Sequence,4_77,2023-09-15T17:32:43.453Z,,0,,,2887.479000023857,completion,,,,,false,,,,294485.40000000596,294485.10000002384,291580.955,291585.5,291597.621,294498.335,8,400,,,
trial,html.Screen,4_78_0,2023-09-15T17:32:46.033Z,,0,2,,2567.0650000059395,response,ISIC_0027879.JPG,6,ISIC_0071069.JPG,ISIC_0027879.JPG,false,1,keypress(m),500,297065.90000000596,297065.40000000596,294481.669,294485.5,294498.335,297081.565,8,400,29,,ISIC_0071069.JPG
break,html.Screen,4_78_1,2023-09-15T17:32:46.034Z,,0,,,NaN,,,,,,false,,,,297066.90000000596,297066.7000000179,,297066.2000000179,,297081.565,8,400,,,
break_continue,html.Screen,4_78_2,2023-09-15T17:32:46.035Z,,0,,,NaN,,,,,,false,,,,297067.2000000179,297067.10000002384,,297067,,297081.565,8,400,,,
sequence,flow.Sequence,4_78,2023-09-15T17:32:46.035Z,,0,,,2568.765000023821,completion,,,,,false,,,,297067.5,297067.10000002384,294481.669,294485.5,294498.335,297081.565,8,400,,,
trial,html.Screen,4_79_0,2023-09-15T17:32:48.918Z,,0,2,,2868.5350000238395,response,ISIC_2991354.JPG,6,ISIC_5468164.JPG,ISIC_5468164.JPG,false,0,keypress(z),500,299950.60000002384,299950.10000002384,297064.899,297067.5,297081.565,299964.783,8,400,30,,ISIC_2991354.JPG
break,html.Screen,4_79_1,2023-09-15T17:32:48.919Z,,0,,,NaN,,,,,,false,,,,299951.60000002384,299951.40000000596,,299950.90000000596,,299964.783,8,400,,,
break_continue,html.Screen,4_79_2,2023-09-15T17:32:48.919Z,,0,,,NaN,,,,,,false,,,,299952,299951.90000000596,,299951.7000000179,,299964.783,8,400,,,
sequence,flow.Sequence,4_79,2023-09-15T17:32:48.919Z,,0,,,2870.335000005958,completion,,,,,false,,,,299952.2000000179,299951.90000000596,297064.899,297067.5,297081.565,299964.783,8,400,,,
trial,html.Screen,4_80_0,2023-09-15T17:32:51.658Z,,0,2,,2725.9170000178856,response,ISIC_3576000.JPG,5,ISIC_5179503.JPG,ISIC_3576000.JPG,false,1,keypress(m),500,302690.90000000596,302690.7000000179,299948.117,299952.40000000596,299964.783,302714.673,8,400,31,,ISIC_5179503.JPG
break,html.Screen,4_80_1,2023-09-15T17:32:51.658Z,,0,,,NaN,,,,,,false,,,,302691.40000000596,302691.3000000119,,302691,,302714.673,8,400,,,
break_continue,html.Screen,4_80_2,2023-09-15T17:32:51.659Z,,0,,,NaN,,,,,,false,,,,302691.60000002384,302691.5,,302691.5,,302714.673,8,400,,,
sequence,flow.Sequence,4_80,2023-09-15T17:32:51.659Z,,0,,,2726.717000000004,completion,,,,,false,,,,302691.60000002384,302691.5,299948.117,299952.40000000596,299964.783,302714.673,8,400,,,
trial,html.Screen,4_81_0,2023-09-15T17:32:54.103Z,,0,2,,2421.427000023832,response,ISIC_8071637.JPG,8,ISIC_3256116.JPG,ISIC_8071637.JPG,false,1,keypress(m),500,305136.2000000179,305136.10000002384,302698.007,302691.7000000179,302714.673,305148.678,8,400,32,,ISIC_3256116.JPG
break,html.Screen,4_81_1,2023-09-15T17:32:54.104Z,,0,,,NaN,,,,,,false,,,,305136.7000000179,305136.60000002384,,305136.40000000596,,305148.678,8,400,,,
break_continue,html.Screen,4_81_2,2023-09-15T17:32:54.104Z,,0,,,NaN,,,,,,false,,,,305136.90000000596,305136.90000000596,,305136.8000000119,,305148.678,8,400,,,
sequence,flow.Sequence,4_81,2023-09-15T17:32:54.104Z,,0,,,2422.2270000059507,completion,,,,,false,,,,305137,305136.90000000596,302698.007,302691.7000000179,302714.673,305148.678,8,400,,,
trial,html.Screen,4_82_0,2023-09-15T17:32:56.269Z,,0,2,,2152.522000017867,response,ISIC_0011801.JPG,7,ISIC_7455460.JPG,ISIC_7455460.JPG,false,0,keypress(z),500,307301.8000000119,307301.2000000179,305132.012,305137.10000002384,305148.678,307315.258,8,400,33,,ISIC_0011801.JPG
break,html.Screen,4_82_1,2023-09-15T17:32:56.270Z,,0,,,NaN,,,,,,false,,,,307302.8000000119,307302.5,,307302.10000002384,,307315.258,8,400,,,
break_continue,html.Screen,4_82_2,2023-09-15T17:32:56.270Z,,0,,,NaN,,,,,,false,,,,307303.2000000179,307303,,307302.90000000596,,307315.258,8,400,,,
sequence,flow.Sequence,4_82,2023-09-15T17:32:56.270Z,,0,,,2154.3219999999856,completion,,,,,false,,,,307303.3000000119,307303,305132.012,305137,305148.678,307315.258,8,400,,,
trial,html.Screen,4_83_0,2023-09-15T17:32:59.185Z,,0,2,,2902.5420000119484,response,ISIC_0014707.JPG,7,ISIC_3169133.JPG,ISIC_0014707.JPG,false,1,keypress(m),500,310218.3000000119,310217.8000000119,307298.592,307303.5,307315.258,310231.808,8,400,34,,ISIC_3169133.JPG
break,html.Screen,4_83_1,2023-09-15T17:32:59.186Z,,0,,,NaN,,,,,,false,,,,310219.3000000119,310219.10000002384,,310218.60000002384,,310231.808,8,400,,,
break_continue,html.Screen,4_83_2,2023-09-15T17:32:59.186Z,,0,,,NaN,,,,,,false,,,,310219.7000000179,310219.5,,310219.40000000596,,310231.808,8,400,,,
sequence,flow.Sequence,4_83,2023-09-15T17:32:59.187Z,,0,,,2904.2420000000275,completion,,,,,false,,,,310219.90000000596,310219.5,307298.592,307303.40000000596,307315.258,310231.808,8,400,,,
trial,html.Screen,4_84_0,2023-09-15T17:33:01.733Z,,0,2,,2533.7920000238228,response,ISIC_0060233.JPG,6,ISIC_4079108.JPG,ISIC_4079108.JPG,false,0,keypress(z),500,312766,312765.60000002384,310215.142,310220.10000002384,310231.808,312781.706,8,400,35,,ISIC_0060233.JPG
break,html.Screen,4_84_1,2023-09-15T17:33:01.734Z,,0,,,NaN,,,,,,false,,,,312767.10000002384,312766.90000000596,,312766.40000000596,,312781.706,8,400,,,
break_continue,html.Screen,4_84_2,2023-09-15T17:33:01.734Z,,0,,,NaN,,,,,,false,,,,312767.40000000596,312767.40000000596,,312767.2000000179,,312781.706,8,400,,,
sequence,flow.Sequence,4_84,2023-09-15T17:33:01.734Z,,0,,,2535.5920000059414,completion,,,,,false,,,,312767.5,312767.40000000596,310215.142,310220,310231.808,312781.706,8,400,,,
trial,html.Screen,4_85_0,2023-09-15T17:33:04.222Z,,0,2,,2472.8940000238363,response,ISIC_0065360.JPG,5,ISIC_0953317.JPG,ISIC_0953317.JPG,false,0,keypress(z),500,315255.2000000179,315254.60000002384,312765.04,312767.60000002384,312781.706,315282.405,8,400,36,,ISIC_0065360.JPG
break,html.Screen,4_85_1,2023-09-15T17:33:04.223Z,,0,,,NaN,,,,,,false,,,,315256.2000000179,315256,,315255.5,,315282.405,8,400,,,
break_continue,html.Screen,4_85_2,2023-09-15T17:33:04.223Z,,0,,,NaN,,,,,,false,,,,315256.60000002384,315256.5,,315256.40000000596,,315282.405,8,400,,,
sequence,flow.Sequence,4_85,2023-09-15T17:33:04.223Z,,0,,,2474.7939999999944,completion,,,,,false,,,,315256.8000000119,315256.5,312765.04,312767.60000002384,312781.706,315282.405,8,400,,,
trial,html.Screen,4_86_0,2023-09-15T17:33:06.820Z,,0,2,,2570.594999999972,response,ISIC_0059273.JPG,7,ISIC_3418245.JPG,ISIC_3418245.JPG,false,0,keypress(z),500,317853.5,317853,315265.739,315257,315282.405,317882.301,8,400,37,,ISIC_0059273.JPG
break,html.Screen,4_86_1,2023-09-15T17:33:06.821Z,,0,,,NaN,,,,,,false,,,,317854.60000002384,317854.40000000596,,317853.90000000596,,317882.301,8,400,,,
break_continue,html.Screen,4_86_2,2023-09-15T17:33:06.822Z,,0,,,NaN,,,,,,false,,,,317855,317854.8000000119,,317854.8000000119,,317882.301,8,400,,,
sequence,flow.Sequence,4_86,2023-09-15T17:33:06.822Z,,0,,,2572.395000011893,completion,,,,,false,,,,317855.10000002384,317854.8000000119,315265.739,315256.90000000596,315282.405,317882.301,8,400,,,
trial,html.Screen,4_87_0,2023-09-15T17:33:09.337Z,,0,2,,2487.599000005983,response,ISIC_9977672.JPG,6,ISIC_0054599.JPG,ISIC_9977672.JPG,false,1,keypress(m),500,320370.5,320369.90000000596,317865.635,317855.40000000596,317882.301,320398.867,8,400,38,,ISIC_0054599.JPG
break,html.Screen,4_87_1,2023-09-15T17:33:09.338Z,,0,,,NaN,,,,,,false,,,,320371.60000002384,320371.40000000596,,320370.90000000596,,320398.867,8,400,,,
break_continue,html.Screen,4_87_2,2023-09-15T17:33:09.338Z,,0,,,NaN,,,,,,false,,,,320372,320371.90000000596,,320371.8000000119,,320398.867,8,400,,,
sequence,flow.Sequence,4_87,2023-09-15T17:33:09.339Z,,0,,,2489.599000005983,completion,,,,,false,,,,320372.2000000179,320371.90000000596,317865.635,317855.2000000179,317882.301,320398.867,8,400,,,
trial,html.Screen,4_88_0,2023-09-15T17:33:11.773Z,,0,2,,2407.4330000118935,response,ISIC_0026730.JPG,7,ISIC_7536704.JPG,ISIC_7536704.JPG,false,0,keypress(z),500,322806.7000000179,322806.3000000119,320382.201,320372.5,320398.867,322832.103,8,400,39,,ISIC_0026730.JPG
break,html.Screen,4_88_1,2023-09-15T17:33:11.774Z,,0,,,NaN,,,,,,false,,,,322807.7000000179,322807.5,,322807,,322832.103,8,400,,,
break_continue,html.Screen,4_88_2,2023-09-15T17:33:11.774Z,,0,,,NaN,,,,,,false,,,,322808.10000002384,322807.90000000596,,322807.8000000119,,322832.103,8,400,,,
sequence,flow.Sequence,4_88,2023-09-15T17:33:11.775Z,,0,,,2409.033000005933,completion,,,,,false,,,,322808.3000000119,322807.90000000596,320382.201,320372.3000000119,320398.867,322832.103,8,400,,,
trial,html.Screen,4_89_0,2023-09-15T17:33:14.416Z,,0,2,,2616.997000023839,response,ISIC_0476606.JPG,6,ISIC_9161898.JPG,ISIC_9161898.JPG,false,0,keypress(z),500,325449.5,325449.10000002384,322815.437,322808.40000000596,322832.103,325466.127,8,400,40,,ISIC_0476606.JPG
break,html.Screen,4_89_1,2023-09-15T17:33:14.417Z,,0,,,NaN,,,,,,false,,,,325450.60000002384,325450.40000000596,,325449.90000000596,,325466.127,8,400,,,
break_continue,html.Screen,4_89_2,2023-09-15T17:33:14.417Z,,0,,,NaN,,,,,,false,,,,325450.90000000596,325450.8000000119,,325450.7000000179,,325466.127,8,400,,,
sequence,flow.Sequence,4_89,2023-09-15T17:33:14.417Z,,0,,,2618.697000011918,completion,,,,,false,,,,325451.2000000179,325450.8000000119,322815.437,322808.3000000119,322832.103,325466.127,8,400,,,
trial,html.Screen,4_90_0,2023-09-15T17:33:17.014Z,,0,2,,2581.3730000000214,response,ISIC_0025778.JPG,6,ISIC_4936662.JPG,ISIC_4936662.JPG,false,0,keypress(z),500,328047.90000000596,328047.5,325449.461,325451.3000000119,325466.127,328066.023,8,400,41,,ISIC_0025778.JPG
break,html.Screen,4_90_1,2023-09-15T17:33:17.015Z,,0,,,NaN,,,,,,false,,,,328048.90000000596,328048.7000000179,,328048.2000000179,,328066.023,8,400,,,
break_continue,html.Screen,4_90_2,2023-09-15T17:33:17.015Z,,0,,,NaN,,,,,,false,,,,328049.3000000119,328049.10000002384,,328049,,328066.023,8,400,,,
sequence,flow.Sequence,4_90,2023-09-15T17:33:17.016Z,,0,,,2582.9730000238633,completion,,,,,false,,,,328049.5,328049.10000002384,325449.461,325451.2000000179,325466.127,328066.023,8,400,,,
trial,html.Screen,4_91_0,2023-09-15T17:33:19.612Z,,0,2,,2579.0770000238554,response,ISIC_0420249.JPG,5,ISIC_9775430.JPG,ISIC_9775430.JPG,false,0,keypress(z),500,330645.60000002384,330645.10000002384,328049.357,328049.7000000179,328066.023,330665.919,8,400,42,,ISIC_0420249.JPG
break,html.Screen,4_91_1,2023-09-15T17:33:19.613Z,,0,,,NaN,,,,,,false,,,,330646.60000002384,330646.40000000596,,330645.90000000596,,330665.919,8,400,,,
break_continue,html.Screen,4_91_2,2023-09-15T17:33:19.613Z,,0,,,NaN,,,,,,false,,,,330647,330646.90000000596,,330646.8000000119,,330665.919,8,400,,,
sequence,flow.Sequence,4_91,2023-09-15T17:33:19.613Z,,0,,,2580.877000005974,completion,,,,,false,,,,330647.2000000179,330646.90000000596,328049.357,328049.7000000179,328066.023,330665.919,8,400,,,
trial,html.Screen,4_92_0,2023-09-15T17:33:22.193Z,,0,2,,2560.981000005966,response,ISIC_6208107.JPG,5,ISIC_4848047.JPG,ISIC_4848047.JPG,false,0,keypress(z),500,333227.40000000596,333226.90000000596,330649.253,330647.40000000596,330665.919,333249.149,8,400,43,,ISIC_6208107.JPG
break,html.Screen,4_92_1,2023-09-15T17:33:22.194Z,,0,,,NaN,,,,,,false,,,,333228.5,333228.2000000179,,333227.8000000119,,333249.149,8,400,,,
break_continue,html.Screen,4_92_2,2023-09-15T17:33:22.195Z,,0,,,NaN,,,,,,false,,,,333228.8000000119,333228.7000000179,,333228.60000002384,,333249.149,8,400,,,
sequence,flow.Sequence,4_92,2023-09-15T17:33:22.195Z,,0,,,2562.781000017887,completion,,,,,false,,,,333229.10000002384,333228.7000000179,330649.253,330647.40000000596,330665.919,333249.149,8,400,,,
trial,html.Screen,4_93_0,2023-09-15T17:33:24.733Z,,0,2,,2517.451000023866,response,ISIC_2196127.JPG,7,ISIC_0031561.JPG,ISIC_2196127.JPG,false,1,keypress(m),500,335767,335766.60000002384,333232.483,333229.3000000119,333249.149,335783.206,8,400,44,,ISIC_0031561.JPG
break,html.Screen,4_93_1,2023-09-15T17:33:24.734Z,,0,,,NaN,,,,,,false,,,,335768.10000002384,335767.8000000119,,335767.3000000119,,335783.206,8,400,,,
break_continue,html.Screen,4_93_2,2023-09-15T17:33:24.734Z,,0,,,NaN,,,,,,false,,,,335768.40000000596,335768.3000000119,,335768.2000000179,,335783.206,8,400,,,
sequence,flow.Sequence,4_93,2023-09-15T17:33:24.735Z,,0,,,2519.151000011945,completion,,,,,false,,,,335768.8000000119,335768.3000000119,333232.483,333229.2000000179,333249.149,335783.206,8,400,,,
trial,html.Screen,4_94_0,2023-09-15T17:33:27.366Z,,0,2,,2616.2939999999944,response,ISIC_5581931.JPG,6,ISIC_6001716.JPG,ISIC_6001716.JPG,false,0,keypress(z),500,338400,338399.5,335766.54,335768.90000000596,335783.206,338416.434,8,400,45,,ISIC_5581931.JPG
break,html.Screen,4_94_1,2023-09-15T17:33:27.367Z,,0,,,NaN,,,,,,false,,,,338400.90000000596,338400.7000000179,,338400.2000000179,,338416.434,8,400,,,
break_continue,html.Screen,4_94_2,2023-09-15T17:33:27.367Z,,0,,,NaN,,,,,,false,,,,338401.3000000119,338401.10000002384,,338401.10000002384,,338416.434,8,400,,,
sequence,flow.Sequence,4_94,2023-09-15T17:33:27.367Z,,0,,,2617.8940000238363,completion,,,,,false,,,,338401.40000000596,338401.10000002384,335766.54,335768.90000000596,335783.206,338416.434,8,400,,,
trial,html.Screen,4_95_0,2023-09-15T17:33:29.831Z,,0,2,,2448.466000005952,response,ISIC_4191202.JPG,5,ISIC_4985027.JPG,ISIC_4191202.JPG,false,1,keypress(m),500,340865.40000000596,340864.90000000596,338399.768,338401.7000000179,338416.434,340883.002,8,400,46,,ISIC_4985027.JPG
break,html.Screen,4_95_1,2023-09-15T17:33:29.832Z,,0,,,NaN,,,,,,false,,,,340866.40000000596,340866.2000000179,,340865.8000000119,,340883.002,8,400,,,
break_continue,html.Screen,4_95_2,2023-09-15T17:33:29.833Z,,0,,,NaN,,,,,,false,,,,340867.40000000596,340867.3000000119,,340867.10000002384,,340883.002,8,400,,,
sequence,flow.Sequence,4_95,2023-09-15T17:33:29.833Z,,0,,,2450.8660000119125,completion,,,,,false,,,,340867.7000000179,340867.3000000119,338399.768,338401.60000002384,338416.434,340883.002,8,400,,,
trial,html.Screen,4_96_0,2023-09-15T17:33:32.253Z,,0,2,,2403.698000017903,response,ISIC_3799267.JPG,6,ISIC_0067893.JPG,ISIC_3799267.JPG,false,1,keypress(m),500,343287.10000002384,343286.7000000179,340866.336,340867.8000000119,340883.002,343299.572,8,400,47,,ISIC_0067893.JPG
break,html.Screen,4_96_1,2023-09-15T17:33:32.254Z,,0,,,NaN,,,,,,false,,,,343288.10000002384,343287.90000000596,,343287.40000000596,,343299.572,8,400,,,
break_continue,html.Screen,4_96_2,2023-09-15T17:33:32.254Z,,0,,,NaN,,,,,,false,,,,343288.5,343288.40000000596,,343288.3000000119,,343299.572,8,400,,,
sequence,flow.Sequence,4_96,2023-09-15T17:33:32.254Z,,0,,,2405.398000005982,completion,,,,,false,,,,343288.60000002384,343288.40000000596,340866.336,340867.8000000119,340883.002,343299.572,8,400,,,
trial,html.Screen,4_97_0,2023-09-15T17:33:34.704Z,,0,2,,2438.328000005975,response,ISIC_2779787.JPG,6,ISIC_0355177.JPG,ISIC_0355177.JPG,false,0,keypress(z),500,345738.40000000596,345737.90000000596,343282.906,343288.7000000179,343299.572,345766.936,8,400,48,,ISIC_2779787.JPG
break,html.Screen,4_97_1,2023-09-15T17:33:34.705Z,,0,,,NaN,,,,,,false,,,,345739.40000000596,345739.2000000179,,345738.7000000179,,345766.936,8,400,,,
break_continue,html.Screen,4_97_2,2023-09-15T17:33:34.705Z,,0,,,NaN,,,,,,false,,,,345739.7000000179,345739.60000002384,,345739.5,,345766.936,8,400,,,
sequence,flow.Sequence,4_97,2023-09-15T17:33:34.705Z,,0,,,2440.0280000238563,completion,,,,,false,,,,345739.90000000596,345739.60000002384,343282.906,343288.7000000179,343299.572,345766.936,8,400,,,
trial,html.Screen,4_98_0,2023-09-15T17:33:37.093Z,,0,2,,2359.864000011934,response,ISIC_0073015.JPG,7,ISIC_7572137.JPG,ISIC_7572137.JPG,false,0,keypress(z),500,348127.2000000179,348126.8000000119,345750.27,345740.10000002384,345766.936,348150.174,8,400,49,,ISIC_0073015.JPG
break,html.Screen,4_98_1,2023-09-15T17:33:37.094Z,,0,,,NaN,,,,,,false,,,,348128.40000000596,348128.10000002384,,348127.60000002384,,348150.174,8,400,,,
break_continue,html.Screen,4_98_2,2023-09-15T17:33:37.094Z,,0,,,NaN,,,,,,false,,,,348128.90000000596,348128.7000000179,,348128.60000002384,,348150.174,8,400,,,
sequence,flow.Sequence,4_98,2023-09-15T17:33:37.095Z,,0,,,2361.7640000178944,completion,,,,,false,,,,348129,348128.7000000179,345750.27,345740,345766.936,348150.174,8,400,,,
trial,html.Screen,4_99_0,2023-09-15T17:33:39.549Z,,0,2,,2433.2260000059614,response,ISIC_3046905.JPG,6,ISIC_4916704.JPG,ISIC_3046905.JPG,false,1,keypress(m),500,350584,350583.40000000596,348133.508,348129.3000000119,348150.174,350600.076,8,400,50,,ISIC_4916704.JPG
break,html.Screen,4_99_1,2023-09-15T17:33:49.552Z,,0,,,10000.396999999997,timeout,,,,,false,,,,360586.90000000596,360583.807,350583.41,350584.40000000596,350600.076,360600.473,8,400,,,
break_continue,html.Screen,4_99_2,2023-09-15T17:33:55.667Z,,0,,,6084.927000005962,response,,,,,false,continue,keypress(Space),,366702.5,366685.40000000596,360583.807,360587.10000002384,360600.473,366717.39,8,400,,,
sequence,flow.Sequence,4_99,2023-09-15T17:33:55.667Z,,0,,,18535.22600000596,completion,,,,,false,,,,366702.60000002384,366685.40000000596,348133.508,348129.2000000179,348150.174,366717.39,8,400,,,
trial,html.Screen,4_100_0,2023-09-15T17:33:58.232Z,,0,3,,2549.210000023828,response,ISIC_0027742.JPG,6,ISIC_7492682.JPG,ISIC_7492682.JPG,false,0,keypress(z),500,369267,369266.60000002384,366700.724,366702.7000000179,366717.39,369283.954,8,400,1,,ISIC_0027742.JPG
break,html.Screen,4_100_1,2023-09-15T17:33:58.233Z,,0,,,NaN,,,,,,false,,,,369268,369267.8000000119,,369267.3000000119,,369283.954,8,400,,,
break_continue,html.Screen,4_100_2,2023-09-15T17:33:58.233Z,,0,,,NaN,,,,,,false,,,,369268.5,369268.3000000119,,369268.2000000179,,369283.954,8,400,,,
sequence,flow.Sequence,4_100,2023-09-15T17:33:58.233Z,,0,,,2550.910000011907,completion,,,,,false,,,,369268.60000002384,369268.3000000119,366700.724,366702.7000000179,366717.39,369283.954,8,400,,,
trial,html.Screen,4_101_0,2023-09-15T17:34:00.652Z,,0,3,,2403.545999999973,response,ISIC_0000394.JPG,5,ISIC_6985859.JPG,ISIC_6985859.JPG,false,0,keypress(z),500,371687.60000002384,371687.5,369267.288,369268.90000000596,369283.954,371700.524,8,400,2,,ISIC_0000394.JPG
break,html.Screen,4_101_1,2023-09-15T17:34:00.653Z,,0,,,NaN,,,,,,false,,,,371687.8000000119,371687.8000000119,,371687.7000000179,,371700.524,8,400,,,
break_continue,html.Screen,4_101_2,2023-09-15T17:34:00.653Z,,0,,,NaN,,,,,,false,,,,371688,371687.90000000596,,371687.90000000596,,371700.524,8,400,,,
sequence,flow.Sequence,4_101,2023-09-15T17:34:00.653Z,,0,,,2403.9460000059335,completion,,,,,false,,,,371688.10000002384,371687.90000000596,369267.288,369268.8000000119,369283.954,371700.524,8,400,,,
trial,html.Screen,4_102_0,2023-09-15T17:34:03.170Z,,0,3,,2504.076000023866,response,ISIC_0054377.JPG,6,ISIC_0063018.JPG,ISIC_0054377.JPG,false,1,keypress(m),500,374205,374204.60000002384,371683.858,371688.10000002384,371700.524,374233.756,8,400,3,,ISIC_0063018.JPG
break,html.Screen,4_102_1,2023-09-15T17:34:03.170Z,,0,,,NaN,,,,,,false,,,,374206,374205.8000000119,,374205.3000000119,,374233.756,8,400,,,
break_continue,html.Screen,4_102_2,2023-09-15T17:34:03.171Z,,0,,,NaN,,,,,,false,,,,374206.2000000179,374206.10000002384,,374206.10000002384,,374233.756,8,400,,,
sequence,flow.Sequence,4_102,2023-09-15T17:34:03.171Z,,0,,,2505.576000023866,completion,,,,,false,,,,374206.40000000596,374206.10000002384,371683.858,371688.10000002384,371700.524,374233.756,8,400,,,
trial,html.Screen,4_103_0,2023-09-15T17:34:05.548Z,,0,3,,2349.744000000006,response,ISIC_0064798.JPG,6,ISIC_4538207.JPG,ISIC_4538207.JPG,false,0,keypress(z),500,376584,376583.5,374217.09,374206.5,374233.756,376601.408,8,400,4,,ISIC_0064798.JPG
break,html.Screen,4_103_1,2023-09-15T17:34:05.549Z,,0,,,NaN,,,,,,false,,,,376584.90000000596,376584.7000000179,,376584.3000000119,,376601.408,8,400,,,
break_continue,html.Screen,4_103_2,2023-09-15T17:34:05.550Z,,0,,,NaN,,,,,,false,,,,376585.3000000119,376585.2000000179,,376585.10000002384,,376601.408,8,400,,,
sequence,flow.Sequence,4_103,2023-09-15T17:34:05.550Z,,0,,,2351.4440000178874,completion,,,,,false,,,,376585.60000002384,376585.2000000179,374217.09,374206.40000000596,374233.756,376601.408,8,400,,,
trial,html.Screen,4_104_0,2023-09-15T17:34:08.320Z,,0,3,,2753.9920000059647,response,ISIC_5385528.JPG,5,ISIC_0072691.JPG,ISIC_5385528.JPG,false,1,keypress(m),500,379355.90000000596,379355.40000000596,376584.742,376585.8000000119,376601.408,379384.63,8,400,5,,ISIC_0072691.JPG
break,html.Screen,4_104_1,2023-09-15T17:34:08.321Z,,0,,,NaN,,,,,,false,,,,379356.90000000596,379356.60000002384,,379356.10000002384,,379384.63,8,400,,,
break_continue,html.Screen,4_104_2,2023-09-15T17:34:08.322Z,,0,,,NaN,,,,,,false,,,,379357.3000000119,379357.10000002384,,379357,,379384.63,8,400,,,
sequence,flow.Sequence,4_104,2023-09-15T17:34:08.322Z,,0,,,2755.692000023846,completion,,,,,false,,,,379357.40000000596,379357.10000002384,376584.742,376585.7000000179,376601.408,379384.63,8,400,,,
trial,html.Screen,4_105_0,2023-09-15T17:34:10.709Z,,0,3,,2359.1700000119163,response,ISIC_4243283.JPG,6,ISIC_0026394.JPG,ISIC_0026394.JPG,false,0,keypress(z),500,381744.3000000119,381743.8000000119,379367.964,379357.7000000179,379384.63,381767.868,8,400,6,,ISIC_4243283.JPG
break,html.Screen,4_105_1,2023-09-15T17:34:10.710Z,,0,,,NaN,,,,,,false,,,,381745.3000000119,381745.10000002384,,381744.5,,381767.868,8,400,,,
break_continue,html.Screen,4_105_2,2023-09-15T17:34:10.710Z,,0,,,NaN,,,,,,false,,,,381745.7000000179,381745.5,,381745.40000000596,,381767.868,8,400,,,
sequence,flow.Sequence,4_105,2023-09-15T17:34:10.710Z,,0,,,2360.8699999999953,completion,,,,,false,,,,381745.90000000596,381745.5,379367.964,379357.60000002384,379384.63,381767.868,8,400,,,
trial,html.Screen,4_106_0,2023-09-15T17:34:13.137Z,,0,3,,2404.232000023825,response,ISIC_4044751.JPG,6,ISIC_0032147.JPG,ISIC_4044751.JPG,false,1,keypress(m),500,384172.60000002384,384172.10000002384,381751.202,381746,381767.868,384201.104,8,400,7,,ISIC_0032147.JPG
break,html.Screen,4_106_1,2023-09-15T17:34:13.138Z,,0,,,NaN,,,,,,false,,,,384173.7000000179,384173.5,,384172.90000000596,,384201.104,8,400,,,
break_continue,html.Screen,4_106_2,2023-09-15T17:34:13.138Z,,0,,,NaN,,,,,,false,,,,384174.10000002384,384173.90000000596,,384173.8000000119,,384201.104,8,400,,,
sequence,flow.Sequence,4_106,2023-09-15T17:34:13.138Z,,0,,,2406.0320000059437,completion,,,,,false,,,,384174.3000000119,384173.90000000596,381751.202,381745.90000000596,381767.868,384201.104,8,400,,,
trial,html.Screen,4_107_0,2023-09-15T17:34:15.589Z,,0,3,,2422.7960000059684,response,ISIC_0033500.JPG,6,ISIC_0013572.JPG,ISIC_0013572.JPG,false,0,keypress(z),500,386624.5,386623.90000000596,384184.438,384174.5,384201.104,386651.795,8,400,8,,ISIC_0033500.JPG
break,html.Screen,4_107_1,2023-09-15T17:34:15.589Z,,0,,,NaN,,,,,,false,,,,386625.3000000119,386625.10000002384,,386624.7000000179,,386651.795,8,400,,,
break_continue,html.Screen,4_107_2,2023-09-15T17:34:15.590Z,,0,,,NaN,,,,,,false,,,,386625.60000002384,386625.5,,386625.3000000119,,386651.795,8,400,,,
sequence,flow.Sequence,4_107,2023-09-15T17:34:15.590Z,,0,,,2424.396000000008,completion,,,,,false,,,,386625.7000000179,386625.5,384184.438,384174.40000000596,384201.104,386651.795,8,400,,,
trial,html.Screen,4_108_0,2023-09-15T17:34:18.027Z,,0,3,,2411.1050000059768,response,ISIC_0031295.JPG,7,ISIC_0011185.JPG,ISIC_0011185.JPG,false,0,keypress(z),500,389063.3000000119,389062.90000000596,386635.129,386625.8000000119,386651.795,389085.031,8,400,9,,ISIC_0031295.JPG
break,html.Screen,4_108_1,2023-09-15T17:34:18.028Z,,0,,,NaN,,,,,,false,,,,389064.2000000179,389064,,389063.60000002384,,389085.031,8,400,,,
break_continue,html.Screen,4_108_2,2023-09-15T17:34:18.029Z,,0,,,NaN,,,,,,false,,,,389064.7000000179,389064.60000002384,,389064.40000000596,,389085.031,8,400,,,
sequence,flow.Sequence,4_108,2023-09-15T17:34:18.029Z,,0,,,2412.805000023858,completion,,,,,false,,,,389064.90000000596,389064.60000002384,386635.129,386625.7000000179,386651.795,389085.031,8,400,,,
trial,html.Screen,4_109_0,2023-09-15T17:34:20.767Z,,0,3,,2717.9689999999828,response,ISIC_0030194.JPG,5,ISIC_4965832.JPG,ISIC_4965832.JPG,false,0,keypress(z),500,391803.40000000596,391803,389068.365,389065,389085.031,391818.255,8,400,10,,ISIC_0030194.JPG
break,html.Screen,4_109_1,2023-09-15T17:34:20.768Z,,0,,,NaN,,,,,,false,,,,391804.3000000119,391804.10000002384,,391803.7000000179,,391818.255,8,400,,,
break_continue,html.Screen,4_109_2,2023-09-15T17:34:20.769Z,,0,,,NaN,,,,,,false,,,,391804.7000000179,391804.60000002384,,391804.5,,391818.255,8,400,,,
sequence,flow.Sequence,4_109,2023-09-15T17:34:20.769Z,,0,,,2719.5690000238246,completion,,,,,false,,,,391804.90000000596,391804.60000002384,389068.365,389064.90000000596,389085.031,391818.255,8,400,,,
trial,html.Screen,4_110_0,2023-09-15T17:34:23.548Z,,0,3,,2765.345000023837,response,ISIC_0012040.JPG,6,ISIC_0650126.JPG,ISIC_0650126.JPG,false,0,keypress(z),500,394584,394583.60000002384,391801.589,391805.10000002384,391818.255,394602.262,8,400,11,,ISIC_0012040.JPG
break,html.Screen,4_110_1,2023-09-15T17:34:23.549Z,,0,,,NaN,,,,,,false,,,,394585,394584.8000000119,,394584.3000000119,,394602.262,8,400,,,
break_continue,html.Screen,4_110_2,2023-09-15T17:34:23.549Z,,0,,,NaN,,,,,,false,,,,394585.40000000596,394585.3000000119,,394585.10000002384,,394602.262,8,400,,,
sequence,flow.Sequence,4_110,2023-09-15T17:34:23.549Z,,0,,,2767.0450000119163,completion,,,,,false,,,,394585.60000002384,394585.3000000119,391801.589,391805.10000002384,391818.255,394602.262,8,400,,,
trial,html.Screen,4_111_0,2023-09-15T17:34:26.002Z,,0,3,,2435.738000000012,response,ISIC_2727016.JPG,5,ISIC_0030856.JPG,ISIC_2727016.JPG,false,1,keypress(m),500,397038.60000002384,397038,394585.596,394585.8000000119,394602.262,397052.164,8,400,12,,ISIC_0030856.JPG
break,html.Screen,4_111_1,2023-09-15T17:34:26.003Z,,0,,,NaN,,,,,,false,,,,397039.5,397039.3000000119,,397038.90000000596,,397052.164,8,400,,,
break_continue,html.Screen,4_111_2,2023-09-15T17:34:26.004Z,,0,,,NaN,,,,,,false,,,,397039.90000000596,397039.8000000119,,397039.7000000179,,397052.164,8,400,,,
sequence,flow.Sequence,4_111,2023-09-15T17:34:26.004Z,,0,,,2437.538000011933,completion,,,,,false,,,,397040,397039.8000000119,394585.596,394585.8000000119,394602.262,397052.164,8,400,,,
trial,html.Screen,4_112_0,2023-09-15T17:34:28.564Z,,0,3,,2547.936000023852,response,ISIC_0033042.JPG,4,ISIC_0001129.JPG,ISIC_0001129.JPG,false,0,keypress(z),500,399600.5,399600.10000002384,397035.498,397040.3000000119,397052.164,399618.728,8,400,13,,ISIC_0033042.JPG
break,html.Screen,4_112_1,2023-09-15T17:34:28.565Z,,0,,,NaN,,,,,,false,,,,399601.5,399601.3000000119,,399600.90000000596,,399618.728,8,400,,,
break_continue,html.Screen,4_112_2,2023-09-15T17:34:28.566Z,,0,,,NaN,,,,,,false,,,,399601.90000000596,399601.8000000119,,399601.7000000179,,399618.728,8,400,,,
sequence,flow.Sequence,4_112,2023-09-15T17:34:28.566Z,,0,,,2549.636000011931,completion,,,,,false,,,,399602.2000000179,399601.8000000119,397035.498,397040.2000000179,397052.164,399618.728,8,400,,,
trial,html.Screen,4_113_0,2023-09-15T17:34:31.234Z,,0,3,,2651.6720000059577,response,ISIC_8352392.JPG,5,ISIC_0055742.JPG,ISIC_8352392.JPG,false,1,keypress(m),500,402270.90000000596,402270.40000000596,399602.062,399602.40000000596,399618.728,402301.954,8,400,14,,ISIC_0055742.JPG
break,html.Screen,4_113_1,2023-09-15T17:34:31.235Z,,0,,,NaN,,,,,,false,,,,402271.90000000596,402271.7000000179,,402271.2000000179,,402301.954,8,400,,,
break_continue,html.Screen,4_113_2,2023-09-15T17:34:31.236Z,,0,,,NaN,,,,,,false,,,,402272.3000000119,402272.2000000179,,402272.10000002384,,402301.954,8,400,,,
sequence,flow.Sequence,4_113,2023-09-15T17:34:31.236Z,,0,,,2653.4720000178786,completion,,,,,false,,,,402272.40000000596,402272.2000000179,399602.062,399602.3000000119,399618.728,402301.954,8,400,,,
trial,html.Screen,4_114_0,2023-09-15T17:34:34.216Z,,0,3,,2950.346000011894,response,ISIC_0027683.JPG,6,ISIC_7788318.JPG,ISIC_0027683.JPG,false,1,keypress(m),500,405252.90000000596,405252.3000000119,402285.288,402272.60000002384,402301.954,405269.271,8,400,15,,ISIC_7788318.JPG
break,html.Screen,4_114_1,2023-09-15T17:34:34.217Z,,0,,,NaN,,,,,,false,,,,405253.8000000119,405253.60000002384,,405253.10000002384,,405269.271,8,400,,,
break_continue,html.Screen,4_114_2,2023-09-15T17:34:34.218Z,,0,,,NaN,,,,,,false,,,,405254.2000000179,405254.10000002384,,405254,,405269.271,8,400,,,
sequence,flow.Sequence,4_114,2023-09-15T17:34:34.218Z,,0,,,2952.146000023815,completion,,,,,false,,,,405254.40000000596,405254.10000002384,402285.288,402272.5,402301.954,405269.271,8,400,,,
trial,html.Screen,4_115_0,2023-09-15T17:34:37.635Z,,0,3,,3402.529000011913,response,ISIC_0016128.JPG,5,ISIC_0004217.JPG,ISIC_0004217.JPG,false,0,keypress(z),500,408672.10000002384,408671.8000000119,405252.605,405254.7000000179,405269.271,408685.801,8,400,16,,ISIC_0016128.JPG
break,html.Screen,4_115_1,2023-09-15T17:34:37.637Z,,0,,,NaN,,,,,,false,,,,408673.60000002384,408673.40000000596,,408672.3000000119,,408685.801,8,400,,,
break_continue,html.Screen,4_115_2,2023-09-15T17:34:37.637Z,,0,,,NaN,,,,,,false,,,,408674,408673.8000000119,,408673.7000000179,,408685.801,8,400,,,
sequence,flow.Sequence,4_115,2023-09-15T17:34:37.638Z,,0,,,3404.529000011913,completion,,,,,false,,,,408674.2000000179,408673.8000000119,405252.605,405254.5,405269.271,408685.801,8,400,,,
trial,html.Screen,4_116_0,2023-09-15T17:34:40.104Z,,0,3,,2454.8990000179037,response,ISIC_6805527.JPG,6,ISIC_9852341.JPG,ISIC_9852341.JPG,false,0,keypress(z),500,411141.2000000179,411140.7000000179,408669.135,408674.3000000119,408685.801,411169.035,8,400,17,,ISIC_6805527.JPG
break,html.Screen,4_116_1,2023-09-15T17:34:40.106Z,,0,,,NaN,,,,,,false,,,,411142.3000000119,411142.10000002384,,411141.60000002384,,411169.035,8,400,,,
break_continue,html.Screen,4_116_2,2023-09-15T17:34:40.106Z,,0,,,NaN,,,,,,false,,,,411142.60000002384,411142.5,,411142.40000000596,,411169.035,8,400,,,
sequence,flow.Sequence,4_116,2023-09-15T17:34:40.106Z,,0,,,2456.6990000000224,completion,,,,,false,,,,411142.8000000119,411142.5,408669.135,408674.3000000119,408685.801,411169.035,8,400,,,
trial,html.Screen,4_117_0,2023-09-15T17:34:42.876Z,,0,3,,2743.4650000000256,response,ISIC_0033644.JPG,7,ISIC_0030703.JPG,ISIC_0030703.JPG,false,0,keypress(z),500,413912.90000000596,413912.5,411152.369,411142.90000000596,411169.035,413935.591,8,400,18,,ISIC_0033644.JPG
break,html.Screen,4_117_1,2023-09-15T17:34:42.877Z,,0,,,NaN,,,,,,false,,,,413914,413913.7000000179,,413913.2000000179,,413935.591,8,400,,,
break_continue,html.Screen,4_117_2,2023-09-15T17:34:42.878Z,,0,,,NaN,,,,,,false,,,,413914.40000000596,413914.2000000179,,413914.10000002384,,413935.591,8,400,,,
sequence,flow.Sequence,4_117,2023-09-15T17:34:42.878Z,,0,,,2745.165000017907,completion,,,,,false,,,,413914.60000002384,413914.2000000179,411152.369,411142.90000000596,411169.035,413935.591,8,400,,,
trial,html.Screen,4_118_0,2023-09-15T17:34:45.320Z,,0,3,,2420.709000011906,response,ISIC_6609379.JPG,9,ISIC_2714907.JPG,ISIC_6609379.JPG,false,1,keypress(m),500,416356.8000000119,416356.3000000119,413918.925,413914.60000002384,413935.591,416386.296,8,400,19,,ISIC_2714907.JPG
break,html.Screen,4_118_1,2023-09-15T17:34:45.321Z,,0,,,NaN,,,,,,false,,,,416358,416357.7000000179,,416357.3000000119,,416386.296,8,400,,,
break_continue,html.Screen,4_118_2,2023-09-15T17:34:45.321Z,,0,,,NaN,,,,,,false,,,,416358.3000000119,416358.10000002384,,416358.10000002384,,416386.296,8,400,,,
sequence,flow.Sequence,4_118,2023-09-15T17:34:45.321Z,,0,,,2422.509000023827,completion,,,,,false,,,,416358.5,416358.10000002384,413918.925,413914.60000002384,413935.591,416386.296,8,400,,,
trial,html.Screen,4_119_0,2023-09-15T17:34:47.842Z,,0,3,,2492.704000000027,response,ISIC_0030694.JPG,7,ISIC_0014542.JPG,ISIC_0030694.JPG,false,1,keypress(m),500,418879.5,418879,416369.63,416358.60000002384,416386.296,418902.862,8,400,20,,ISIC_0014542.JPG
break,html.Screen,4_119_1,2023-09-15T17:34:47.844Z,,0,,,NaN,,,,,,false,,,,418880.5,418880.3000000119,,418879.8000000119,,418902.862,8,400,,,
break_continue,html.Screen,4_119_2,2023-09-15T17:34:47.844Z,,0,,,NaN,,,,,,false,,,,418881,418880.8000000119,,418880.7000000179,,418902.862,8,400,,,
sequence,flow.Sequence,4_119,2023-09-15T17:34:47.844Z,,0,,,2494.504000011948,completion,,,,,false,,,,418881.10000002384,418880.8000000119,416369.63,416358.5,416386.296,418902.862,8,400,,,
trial,html.Screen,4_120_0,2023-09-15T17:34:50.436Z,,0,3,,2569.938000011898,response,ISIC_0010050.JPG,7,ISIC_3312201.JPG,ISIC_3312201.JPG,false,0,keypress(z),500,421473.3000000119,421472.8000000119,418886.196,418881.3000000119,418902.862,421486.092,8,400,21,,ISIC_0010050.JPG
break,html.Screen,4_120_1,2023-09-15T17:34:50.437Z,,0,,,NaN,,,,,,false,,,,421474.3000000119,421474,,421473.5,,421486.092,8,400,,,
break_continue,html.Screen,4_120_2,2023-09-15T17:34:50.438Z,,0,,,NaN,,,,,,false,,,,421474.7000000179,421474.60000002384,,421474.5,,421486.092,8,400,,,
sequence,flow.Sequence,4_120,2023-09-15T17:34:50.438Z,,0,,,2571.738000023819,completion,,,,,false,,,,421474.90000000596,421474.60000002384,418886.196,418881.2000000179,418902.862,421486.092,8,400,,,
trial,html.Screen,4_121_0,2023-09-15T17:34:53.130Z,,0,3,,2680.7080000119167,response,ISIC_0011176.JPG,5,ISIC_5482426.JPG,ISIC_5482426.JPG,false,0,keypress(z),500,424167.2000000179,424166.8000000119,421469.426,421475.10000002384,421486.092,424185.984,8,400,22,,ISIC_0011176.JPG
break,html.Screen,4_121_1,2023-09-15T17:34:53.131Z,,0,,,NaN,,,,,,false,,,,424168.2000000179,424168,,424167.5,,424185.984,8,400,,,
break_continue,html.Screen,4_121_2,2023-09-15T17:34:53.131Z,,0,,,NaN,,,,,,false,,,,424168.60000002384,424168.40000000596,,424168.3000000119,,424185.984,8,400,,,
sequence,flow.Sequence,4_121,2023-09-15T17:34:53.132Z,,0,,,2682.3080000059563,completion,,,,,false,,,,424168.7000000179,424168.40000000596,421469.426,421475,421486.092,424185.984,8,400,,,
trial,html.Screen,4_122_0,2023-09-15T17:34:55.682Z,,0,3,,2533.116000023845,response,ISIC_7956417.JPG,5,ISIC_8766254.JPG,ISIC_8766254.JPG,false,0,keypress(z),500,426719.5,426719.10000002384,424169.318,424169,424185.984,426736.695,8,400,23,,ISIC_7956417.JPG
break,html.Screen,4_122_1,2023-09-15T17:34:55.683Z,,0,,,NaN,,,,,,false,,,,426720.60000002384,426720.40000000596,,426719.90000000596,,426736.695,8,400,,,
break_continue,html.Screen,4_122_2,2023-09-15T17:34:55.684Z,,0,,,NaN,,,,,,false,,,,426721,426720.90000000596,,426720.7000000179,,426736.695,8,400,,,
sequence,flow.Sequence,4_122,2023-09-15T17:34:55.684Z,,0,,,2534.9160000059637,completion,,,,,false,,,,426721.2000000179,426720.90000000596,424169.318,424168.90000000596,424185.984,426736.695,8,400,,,
trial,html.Screen,4_123_0,2023-09-15T17:34:58.174Z,,0,3,,2479.0050000178744,response,ISIC_0033392.JPG,2,ISIC_2987630.JPG,ISIC_2987630.JPG,false,0,keypress(z),500,429216.2000000179,429215.7000000179,426720.029,426721.40000000596,426736.695,429236.595,8,400,24,,ISIC_0033392.JPG
break,html.Screen,4_123_1,2023-09-15T17:34:58.175Z,,0,,,NaN,,,,,,false,,,,429217.2000000179,429217,,429216.5,,429236.595,8,400,,,
break_continue,html.Screen,4_123_2,2023-09-15T17:34:58.176Z,,0,,,NaN,,,,,,false,,,,429217.60000002384,429217.5,,429217.40000000596,,429236.595,8,400,,,
sequence,flow.Sequence,4_123,2023-09-15T17:34:58.176Z,,0,,,2480.804999999993,completion,,,,,false,,,,429217.8000000119,429217.5,426720.029,426721.3000000119,426736.695,429236.595,8,400,,,
trial,html.Screen,4_124_0,2023-09-15T17:35:00.577Z,,0,3,,2386.205000011949,response,ISIC_0000310.JPG,2,ISIC_5309814.JPG,ISIC_5309814.JPG,false,0,keypress(z),500,431623,431622.8000000119,429219.929,429218,429236.595,431636.499,8,400,25,,ISIC_0000310.JPG
break,html.Screen,4_124_1,2023-09-15T17:35:00.578Z,,0,,,NaN,,,,,,false,,,,431623.90000000596,431623.7000000179,,431623.2000000179,,431636.499,8,400,,,
break_continue,html.Screen,4_124_2,2023-09-15T17:35:00.578Z,,0,,,NaN,,,,,,false,,,,431624.10000002384,431624,,431624,,431636.499,8,400,,,
sequence,flow.Sequence,4_124,2023-09-15T17:35:00.578Z,,0,,,2387.405000000028,completion,,,,,false,,,,431624.2000000179,431624,429219.929,429218,429236.595,431636.499,8,400,,,
