sender,sender_type,sender_id,timestamp,meta,,blockNo,condition,duration,ended_on,img_left,img_reveal,img_right,loser,practice,response,response_action,selection_duration,time_commit,time_end,time_render,time_run,time_show,time_switch,total_blocks,total_trials,trialNo,url,winner
informed_consent,html.Screen,0,2023-11-04T01:40:03.570Z,"{""labjs_version"":""20.2.4"",""labjs_build"":{""flavor"":""production"",""commit"":""f5b4a49f956347addd546a832a3327688c2c0fef""},""location"":""https://run.pavlovia.org/MurrayBennett/melanoma-2afc/?participant=66048&platform=sona"",""userAgent"":""Mozilla/5.0 (Macintosh; Intel Mac OS X 10_15_7) AppleWebKit/605.1.15 (KHTML, like Gecko) Version/17.0 Safari/605.1.15"",""platform"":""MacIntel"",""language"":""en-US"",""locale"":""en-US"",""timeZone"":""America/Chicago"",""timezoneOffset"":300,""screen_width"":1440,""screen_height"":900,""scroll_width"":1440,""scroll_height"":772,""window_innerWidth"":1440,""window_innerHeight"":820,""devicePixelRatio"":1}",,,,5182812.000000001,response,,,,,,consent,click button,,5185542,5185565.000000001,2753,2741,2828,5185618,,,,"{""participant"":""66048"",""platform"":""sona""}",
Welcome,html.Screen,1,2023-11-04T01:40:05.470Z,,,,uniform,1892,response,,,,,,continue,click button,,5187442,5187499,5185607,5185545,5185618,5187482,,,,,
trial,html.Screen,2_0_0,2023-11-04T01:40:16.991Z,,0,0,,11514,timeout,ISIC_0063388.JPG,,ISIC_0025593.JPG,,true,,,500,5198963,5198963,5187469,5187450,5187482,5198996,1,6,1,,
sequence,flow.Sequence,2_0,2023-11-04T01:40:16.994Z,,0,,,11481,completion,,,,,true,,,,5198966,5198963,5187469,5187450,5187482,5198996,1,6,,,
trial,html.Screen,2_1_0,2023-11-04T01:40:28.505Z,,0,0,,11514,timeout,ISIC_0028178.JPG,,ISIC_1309015.JPG,,true,,,500,5210477,5210477,5198981,5198970,5198996,5210510,1,6,2,,
sequence,flow.Sequence,2_1,2023-11-04T01:40:28.505Z,,0,,,11481,completion,,,,,true,,,,5210478,5210477,5198981,5198967.000000001,5198996,5210510,1,6,,,
trial,html.Screen,2_2_0,2023-11-04T01:40:40.018Z,,0,0,,11515,timeout,ISIC_3314853.JPG,,ISIC_0031128.JPG,ISIC_3314853.JPG,true,,,500,5221991,5221991,5210494,5210478,5210510,5222025,1,6,3,,ISIC_0031128.JPG
sequence,flow.Sequence,2_2,2023-11-04T01:40:40.019Z,,0,,,11481,completion,,,,,true,,,,5221991,5221991,5210494,5210478,5210510,5222025,1,6,,,
trial,html.Screen,2_3_0,2023-11-04T01:40:45.529Z,,0,0,,5493,response,ISIC_8980141.JPG,,ISIC_0031612.JPG,ISIC_0031612.JPG,true,0,keypress(z),500,5227502,5227501,5222008,5221992,5222025,5227540,1,6,4,,ISIC_8980141.JPG
sequence,flow.Sequence,2_3,2023-11-04T01:40:45.530Z,,0,,,5476,completion,,,,,true,,,,5227503,5227501,5222008,5221992,5222025,5227540,1,6,,,
trial,html.Screen,2_4_0,2023-11-04T01:40:51.056Z,,0,0,,5507,response,ISIC_1197737.JPG,,ISIC_9721604.JPG,ISIC_1197737.JPG,true,1,keypress(m),500,5233029,5233029,5227522,5227503,5227540,5233070,1,6,5,,ISIC_9721604.JPG
sequence,flow.Sequence,2_4,2023-11-04T01:40:51.062Z,,0,,,5489,completion,,,,,true,,,,5233036,5233029,5227522,5227503,5227540,5233070,1,6,,,
trial,html.Screen,2_5_0,2023-11-04T01:40:55.102Z,,0,0,,4021,response,ISIC_0010681.JPG,,ISIC_0025346.JPG,ISIC_0010681.JPG,true,1,keypress(m),500,5237075,5237075,5233054,5233036,5233070,5237115,1,6,6,,ISIC_0025346.JPG
sequence,flow.Sequence,2_5,2023-11-04T01:40:55.102Z,,0,,,4005,completion,,,,,true,,,,5237076,5237075,5233054,5233036,5233070,5237115,1,6,,,
loop,flow.Loop,2,2023-11-04T01:40:55.105Z,,,,,49593,completion,,,,,true,,,,5237079,5237075,5187469,5187445,5187482,5237115,1,6,,,
exp_instructions,html.Screen,3,2023-11-04T01:40:58.017Z,,,,,2974,response,,,,,,continue,keypress(Space),,5239991,5240072,5237098,5237079,5237115,5240022,,,,,
trial,html.Screen,4_0_0,2023-11-04T01:41:01.501Z,,0,1,,3469,response,ISIC_0026497.JPG,11,ISIC_6908183.JPG,ISIC_0026497.JPG,false,1,keypress(m),500,5243475,5243474,5240005,5239991,5240022,5243498,8,400,1,,ISIC_6908183.JPG
break,html.Screen,4_0_1,2023-11-04T01:41:01.508Z,,0,,,NaN,,,,,,false,,,,5243482,5243482,,5243475,,5243498,8,400,,,
break_continue,html.Screen,4_0_2,2023-11-04T01:41:01.509Z,,0,,,NaN,,,,,,false,,,,5243482,5243482,,5243482,,5243498,8,400,,,
sequence,flow.Sequence,4_0,2023-11-04T01:41:01.509Z,,0,,,3460,completion,,,,,false,,,,5243483,5243482,5240005,5239991,5240022,5243498,8,400,,,
trial,html.Screen,4_1_0,2023-11-04T01:41:06.119Z,,0,1,,4604.000000000931,response,ISIC_8135400.JPG,15,ISIC_0071043.JPG,ISIC_0071043.JPG,false,0,keypress(z),500,5248093,5248092.000000001,5243488,5243483,5243498,5248128,8,400,2,,ISIC_8135400.JPG
break,html.Screen,4_1_1,2023-11-04T01:41:06.120Z,,0,,,NaN,,,,,,false,,,,5248094,5248093,,5248093,,5248128,8,400,,,
break_continue,html.Screen,4_1_2,2023-11-04T01:41:06.123Z,,0,,,NaN,,,,,,false,,,,5248097,5248094,,5248094,,5248128,8,400,,,
sequence,flow.Sequence,4_1,2023-11-04T01:41:06.123Z,,0,,,4596,completion,,,,,false,,,,5248097,5248094,5243488,5243483,5243498,5248128,8,400,,,
trial,html.Screen,4_2_0,2023-11-04T01:41:09.909Z,,0,1,,3772.0000000009313,response,ISIC_0059264.JPG,14,ISIC_0029182.JPG,ISIC_0029182.JPG,false,0,keypress(z),500,5251883,5251882.000000001,5248110,5248097,5248128,5251904,8,400,3,,ISIC_0059264.JPG
break,html.Screen,4_2_1,2023-11-04T01:41:09.910Z,,0,,,NaN,,,,,,false,,,,5251884,5251883,,5251883,,5251904,8,400,,,
break_continue,html.Screen,4_2_2,2023-11-04T01:41:09.910Z,,0,,,NaN,,,,,,false,,,,5251884,5251884,,5251884,,5251904,8,400,,,
sequence,flow.Sequence,4_2,2023-11-04T01:41:09.911Z,,0,,,3756,completion,,,,,false,,,,5251884,5251884,5248110,5248097,5248128,5251904,8,400,,,
trial,html.Screen,4_3_0,2023-11-04T01:41:13.064Z,,0,1,,3150,response,ISIC_0063664.JPG,3,ISIC_0015167.JPG,ISIC_0015167.JPG,false,0,keypress(z),500,5255038,5255037,5251887,5251885,5251904,5255063,8,400,4,,ISIC_0063664.JPG
break,html.Screen,4_3_1,2023-11-04T01:41:13.065Z,,0,,,NaN,,,,,,false,,,,5255039,5255038,,5255038,,5255063,8,400,,,
break_continue,html.Screen,4_3_2,2023-11-04T01:41:13.065Z,,0,,,NaN,,,,,,false,,,,5255039,5255039,,5255039,,5255063,8,400,,,
sequence,flow.Sequence,4_3,2023-11-04T01:41:13.066Z,,0,,,3135,completion,,,,,false,,,,5255040,5255039,5251887,5251885,5251904,5255063,8,400,,,
trial,html.Screen,4_4_0,2023-11-04T01:41:16.552Z,,0,1,,3480,response,ISIC_2124213.JPG,7,ISIC_0066518.JPG,ISIC_0066518.JPG,false,0,keypress(z),500,5258526,5258526,5255046,5255040,5255063,5258556,8,400,5,,ISIC_2124213.JPG
break,html.Screen,4_4_1,2023-11-04T01:41:16.553Z,,0,,,NaN,,,,,,false,,,,5258527,5258527,,5258526,,5258556,8,400,,,
break_continue,html.Screen,4_4_2,2023-11-04T01:41:16.554Z,,0,,,NaN,,,,,,false,,,,5258528,5258528,,5258528,,5258556,8,400,,,
sequence,flow.Sequence,4_4,2023-11-04T01:41:16.554Z,,0,,,3465,completion,,,,,false,,,,5258528,5258528,5255046,5255040,5255063,5258556,8,400,,,
trial,html.Screen,4_5_0,2023-11-04T01:41:20.263Z,,0,1,,3698,response,ISIC_0033427.JPG,11,ISIC_0011564.JPG,ISIC_0011564.JPG,false,0,keypress(z),500,5262237,5262237,5258539,5258529,5258556,5262266,8,400,6,,ISIC_0033427.JPG
break,html.Screen,4_5_1,2023-11-04T01:41:20.264Z,,0,,,NaN,,,,,,false,,,,5262238,5262238,,5262237,,5262266,8,400,,,
break_continue,html.Screen,4_5_2,2023-11-04T01:41:20.264Z,,0,,,NaN,,,,,,false,,,,5262239.000000001,5262238,,5262238,,5262266,8,400,,,
sequence,flow.Sequence,4_5,2023-11-04T01:41:20.265Z,,0,,,3682,completion,,,,,false,,,,5262239.000000001,5262238,5258539,5258528,5258556,5262266,8,400,,,
trial,html.Screen,4_6_0,2023-11-04T01:41:23.727Z,,0,1,,3453,response,ISIC_0010981.JPG,9,ISIC_1175170.JPG,ISIC_1175170.JPG,false,0,keypress(z),500,5265701,5265701,5262248,5262239.000000001,5262266,5265724,8,400,7,,ISIC_0010981.JPG
break,html.Screen,4_6_1,2023-11-04T01:41:23.729Z,,0,,,NaN,,,,,,false,,,,5265703,5265702,,5265702,,5265724,8,400,,,
break_continue,html.Screen,4_6_2,2023-11-04T01:41:23.729Z,,0,,,NaN,,,,,,false,,,,5265703,5265703,,5265703,,5265724,8,400,,,
sequence,flow.Sequence,4_6,2023-11-04T01:41:23.729Z,,0,,,3437,completion,,,,,false,,,,5265704,5265703,5262248,5262239.000000001,5262266,5265724,8,400,,,
trial,html.Screen,4_7_0,2023-11-04T01:41:26.667Z,,0,1,,2933.0000000009313,response,ISIC_7424320.JPG,4,ISIC_2979268.JPG,ISIC_2979268.JPG,false,0,keypress(z),500,5268642,5268641.000000001,5265708,5265704,5265724,5268666,8,400,8,,ISIC_7424320.JPG
break,html.Screen,4_7_1,2023-11-04T01:41:26.668Z,,0,,,NaN,,,,,,false,,,,5268643,5268642,,5268642,,5268666,8,400,,,
break_continue,html.Screen,4_7_2,2023-11-04T01:41:26.669Z,,0,,,NaN,,,,,,false,,,,5268643,5268643,,5268643,,5268666,8,400,,,
sequence,flow.Sequence,4_7,2023-11-04T01:41:26.669Z,,0,,,2919,completion,,,,,false,,,,5268643,5268643,5265708,5265704,5265724,5268666,8,400,,,
trial,html.Screen,4_8_0,2023-11-04T01:41:29.527Z,,0,1,,2852,response,ISIC_0071906.JPG,5,ISIC_3750329.JPG,ISIC_0071906.JPG,false,1,keypress(m),500,5271502,5271501,5268649,5268644,5268666,5271523,8,400,9,,ISIC_3750329.JPG
break,html.Screen,4_8_1,2023-11-04T01:41:29.528Z,,0,,,NaN,,,,,,false,,,,5271502,5271502,,5271502,,5271523,8,400,,,
break_continue,html.Screen,4_8_2,2023-11-04T01:41:29.528Z,,0,,,NaN,,,,,,false,,,,5271503,5271503,,5271503,,5271523,8,400,,,
sequence,flow.Sequence,4_8,2023-11-04T01:41:29.529Z,,0,,,2837,completion,,,,,false,,,,5271503,5271503,5268649,5268644,5268666,5271523,8,400,,,
trial,html.Screen,4_9_0,2023-11-04T01:41:33.099Z,,0,1,,3566,response,ISIC_1328804.JPG,3,ISIC_0033834.JPG,ISIC_0033834.JPG,false,0,keypress(z),500,5275073,5275073,5271507,5271504,5271523,5275100,8,400,10,,ISIC_1328804.JPG
break,html.Screen,4_9_1,2023-11-04T01:41:33.100Z,,0,,,NaN,,,,,,false,,,,5275074.000000001,5275074.000000001,,5275074.000000001,,5275100,8,400,,,
break_continue,html.Screen,4_9_2,2023-11-04T01:41:33.100Z,,0,,,NaN,,,,,,false,,,,5275075,5275075,,5275074.000000001,,5275100,8,400,,,
sequence,flow.Sequence,4_9,2023-11-04T01:41:33.100Z,,0,,,3552,completion,,,,,false,,,,5275075,5275075,5271507,5271504,5271523,5275100,8,400,,,
trial,html.Screen,4_10_0,2023-11-04T01:41:39.462Z,,0,1,,6354,response,ISIC_0031338.JPG,8,ISIC_2146346.JPG,ISIC_0031338.JPG,false,1,keypress(m),500,5281437,5281437,5275083,5275075,5275100,5281467,8,400,11,,ISIC_2146346.JPG
break,html.Screen,4_10_1,2023-11-04T01:41:39.463Z,,0,,,NaN,,,,,,false,,,,5281437,5281437,,5281437,,5281467,8,400,,,
break_continue,html.Screen,4_10_2,2023-11-04T01:41:39.463Z,,0,,,NaN,,,,,,false,,,,5281438,5281438,,5281437,,5281467,8,400,,,
sequence,flow.Sequence,4_10,2023-11-04T01:41:39.463Z,,0,,,6338,completion,,,,,false,,,,5281438,5281438,5275083,5275075,5275100,5281467,8,400,,,
trial,html.Screen,4_11_0,2023-11-04T01:41:42.540Z,,0,1,,3065,response,ISIC_3503213.JPG,12,ISIC_0010765.JPG,ISIC_3503213.JPG,false,1,keypress(m),500,5284515,5284515,5281450,5281438,5281467,5284542,8,400,12,,ISIC_0010765.JPG
break,html.Screen,4_11_1,2023-11-04T01:41:42.541Z,,0,,,NaN,,,,,,false,,,,5284516.000000001,5284516.000000001,,5284516.000000001,,5284542,8,400,,,
break_continue,html.Screen,4_11_2,2023-11-04T01:41:42.542Z,,0,,,NaN,,,,,,false,,,,5284517,5284516.000000001,,5284516.000000001,,5284542,8,400,,,
sequence,flow.Sequence,4_11,2023-11-04T01:41:42.542Z,,0,,,3049.0000000009313,completion,,,,,false,,,,5284517,5284516.000000001,5281450,5281438,5281467,5284542,8,400,,,
trial,html.Screen,4_12_0,2023-11-04T01:41:48.229Z,,0,1,,5679,response,ISIC_0010486.JPG,9,ISIC_0066878.JPG,ISIC_0010486.JPG,false,1,keypress(m),500,5290204,5290204,5284525,5284517,5284542,5290240,8,400,13,,ISIC_0066878.JPG
break,html.Screen,4_12_1,2023-11-04T01:41:48.230Z,,0,,,NaN,,,,,,false,,,,5290205,5290205,,5290204,,5290240,8,400,,,
break_continue,html.Screen,4_12_2,2023-11-04T01:41:48.230Z,,0,,,NaN,,,,,,false,,,,5290205,5290205,,5290205,,5290240,8,400,,,
sequence,flow.Sequence,4_12,2023-11-04T01:41:48.230Z,,0,,,5663,completion,,,,,false,,,,5290205,5290205,5284525,5284517,5284542,5290240,8,400,,,
trial,html.Screen,4_13_0,2023-11-04T01:41:51.365Z,,0,1,,3117,response,ISIC_0071693.JPG,1,ISIC_0034006.JPG,ISIC_0071693.JPG,false,1,keypress(m),500,5293340,5293340,5290223,5290206,5290240,5293366,8,400,14,,ISIC_0034006.JPG
break,html.Screen,4_13_1,2023-11-04T01:41:51.365Z,,0,,,NaN,,,,,,false,,,,5293341,5293341,,5293340,,5293366,8,400,,,
break_continue,html.Screen,4_13_2,2023-11-04T01:41:51.366Z,,0,,,NaN,,,,,,false,,,,5293341,5293341,,5293341,,5293366,8,400,,,
sequence,flow.Sequence,4_13,2023-11-04T01:41:51.366Z,,0,,,3101,completion,,,,,false,,,,5293341,5293341,5290223,5290206,5290240,5293366,8,400,,,
trial,html.Screen,4_14_0,2023-11-04T01:41:58.696Z,,0,1,,7322,response,ISIC_0006717.JPG,7,ISIC_5620802.JPG,ISIC_0006717.JPG,false,1,keypress(m),500,5300672.000000001,5300671,5293349,5293342.000000001,5293366,5300701,8,400,15,,ISIC_5620802.JPG
break,html.Screen,4_14_1,2023-11-04T01:41:58.697Z,,0,,,NaN,,,,,,false,,,,5300673,5300673,,5300672.000000001,,5300701,8,400,,,
break_continue,html.Screen,4_14_2,2023-11-04T01:41:58.698Z,,0,,,NaN,,,,,,false,,,,5300673,5300673,,5300673,,5300701,8,400,,,
sequence,flow.Sequence,4_14,2023-11-04T01:41:58.698Z,,0,,,7307,completion,,,,,false,,,,5300673,5300673,5293349,5293342.000000001,5293366,5300701,8,400,,,
trial,html.Screen,4_15_0,2023-11-04T01:42:01.987Z,,0,1,,3277,response,ISIC_6512653.JPG,11,ISIC_1122023.JPG,ISIC_6512653.JPG,false,1,keypress(m),500,5303963,5303962,5300685,5300674,5300701,5303993,8,400,16,,ISIC_1122023.JPG
break,html.Screen,4_15_1,2023-11-04T01:42:01.988Z,,0,,,NaN,,,,,,false,,,,5303964,5303963,,5303963,,5303993,8,400,,,
break_continue,html.Screen,4_15_2,2023-11-04T01:42:01.989Z,,0,,,NaN,,,,,,false,,,,5303964,5303964,,5303964,,5303993,8,400,,,
sequence,flow.Sequence,4_15,2023-11-04T01:42:01.989Z,,0,,,3263,completion,,,,,false,,,,5303964,5303964,5300685,5300674,5300701,5303993,8,400,,,
trial,html.Screen,4_16_0,2023-11-04T01:42:05.148Z,,0,1,,3147,response,ISIC_3430311.JPG,12,ISIC_9005623.JPG,ISIC_3430311.JPG,false,1,keypress(m),500,5307124,5307124,5303977,5303965,5303993,5307152,8,400,17,,ISIC_9005623.JPG
break,html.Screen,4_16_1,2023-11-04T01:42:05.149Z,,0,,,NaN,,,,,,false,,,,5307125,5307125,,5307124,,5307152,8,400,,,
break_continue,html.Screen,4_16_2,2023-11-04T01:42:05.149Z,,0,,,NaN,,,,,,false,,,,5307125,5307125,,5307125,,5307152,8,400,,,
sequence,flow.Sequence,4_16,2023-11-04T01:42:05.150Z,,0,,,3132,completion,,,,,false,,,,5307125,5307125,5303977,5303964,5303993,5307152,8,400,,,
trial,html.Screen,4_17_0,2023-11-04T01:42:07.778Z,,0,1,,2617,response,ISIC_9986760.JPG,10,ISIC_2487188.JPG,ISIC_9986760.JPG,false,1,keypress(m),500,5309754,5309753,5307136,5307126,5307152,5309792,8,400,18,,ISIC_2487188.JPG
break,html.Screen,4_17_1,2023-11-04T01:42:07.784Z,,0,,,NaN,,,,,,false,,,,5309760,5309760,,5309754,,5309792,8,400,,,
break_continue,html.Screen,4_17_2,2023-11-04T01:42:07.784Z,,0,,,NaN,,,,,,false,,,,5309760,5309760,,5309760,,5309792,8,400,,,
sequence,flow.Sequence,4_17,2023-11-04T01:42:07.785Z,,0,,,2608,completion,,,,,false,,,,5309760,5309760,5307136,5307126,5307152,5309792,8,400,,,
trial,html.Screen,4_18_0,2023-11-04T01:42:10.677Z,,0,1,,2876,response,ISIC_4734111.JPG,16,ISIC_9384835.JPG,ISIC_9384835.JPG,false,0,keypress(z),500,5312653,5312652,5309776,5309761,5309792,5312683,8,400,19,,ISIC_4734111.JPG
break,html.Screen,4_18_1,2023-11-04T01:42:10.678Z,,0,,,NaN,,,,,,false,,,,5312653,5312653,,5312653,,5312683,8,400,,,
break_continue,html.Screen,4_18_2,2023-11-04T01:42:10.678Z,,0,,,NaN,,,,,,false,,,,5312654,5312654,,5312654,,5312683,8,400,,,
sequence,flow.Sequence,4_18,2023-11-04T01:42:10.678Z,,0,,,2862,completion,,,,,false,,,,5312654,5312654,5309776,5309761,5309792,5312683,8,400,,,
trial,html.Screen,4_19_0,2023-11-04T01:42:14.308Z,,0,1,,3617.0000000009313,response,ISIC_0058198.JPG,12,ISIC_0026882.JPG,ISIC_0058198.JPG,false,1,keypress(m),500,5316284.000000001,5316284.000000001,5312667,5312654,5312683,5316310,8,400,20,,ISIC_0026882.JPG
break,html.Screen,4_19_1,2023-11-04T01:42:14.309Z,,0,,,NaN,,,,,,false,,,,5316285,5316285,,5316284.000000001,,5316310,8,400,,,
break_continue,html.Screen,4_19_2,2023-11-04T01:42:14.309Z,,0,,,NaN,,,,,,false,,,,5316285,5316285,,5316285,,5316310,8,400,,,
sequence,flow.Sequence,4_19,2023-11-04T01:42:14.310Z,,0,,,3602,completion,,,,,false,,,,5316286,5316285,5312667,5312654,5312683,5316310,8,400,,,
trial,html.Screen,4_20_0,2023-11-04T01:42:17.737Z,,0,1,,3420,response,ISIC_0779920.JPG,8,ISIC_0057028.JPG,ISIC_0057028.JPG,false,0,keypress(z),500,5319714,5319713,5316293,5316286,5316310,5319735,8,400,21,,ISIC_0779920.JPG
break,html.Screen,4_20_1,2023-11-04T01:42:17.738Z,,0,,,NaN,,,,,,false,,,,5319714,5319714,,5319714,,5319735,8,400,,,
break_continue,html.Screen,4_20_2,2023-11-04T01:42:17.739Z,,0,,,NaN,,,,,,false,,,,5319715,5319715,,5319715,,5319735,8,400,,,
sequence,flow.Sequence,4_20,2023-11-04T01:42:17.739Z,,0,,,3405,completion,,,,,false,,,,5319715,5319715,5316293,5316286,5316310,5319735,8,400,,,
trial,html.Screen,4_21_0,2023-11-04T01:42:20.807Z,,0,1,,3065,response,ISIC_0068610.JPG,3,ISIC_0025931.JPG,ISIC_0068610.JPG,false,1,keypress(m),500,5322783,5322783,5319718,5319715,5319735,5322810,8,400,22,,ISIC_0025931.JPG
break,html.Screen,4_21_1,2023-11-04T01:42:20.808Z,,0,,,NaN,,,,,,false,,,,5322784.000000001,5322784.000000001,,5322783,,5322810,8,400,,,
break_continue,html.Screen,4_21_2,2023-11-04T01:42:20.808Z,,0,,,NaN,,,,,,false,,,,5322784.000000001,5322784.000000001,,5322784.000000001,,5322810,8,400,,,
sequence,flow.Sequence,4_21,2023-11-04T01:42:20.808Z,,0,,,3049.0000000009313,completion,,,,,false,,,,5322785,5322784.000000001,5319718,5319715,5319735,5322810,8,400,,,
trial,html.Screen,4_22_0,2023-11-04T01:42:24.343Z,,0,1,,3525,response,ISIC_0485529.JPG,9,ISIC_5778927.JPG,ISIC_0485529.JPG,false,1,keypress(m),500,5326320,5326319,5322794,5322785,5322810,5326337,8,400,23,,ISIC_5778927.JPG
break,html.Screen,4_22_1,2023-11-04T01:42:24.344Z,,0,,,NaN,,,,,,false,,,,5326320,5326320,,5326320,,5326337,8,400,,,
break_continue,html.Screen,4_22_2,2023-11-04T01:42:24.345Z,,0,,,NaN,,,,,,false,,,,5326321,5326321,,5326320,,5326337,8,400,,,
sequence,flow.Sequence,4_22,2023-11-04T01:42:24.345Z,,0,,,3511,completion,,,,,false,,,,5326321,5326321,5322794,5322785,5322810,5326337,8,400,,,
trial,html.Screen,4_23_0,2023-11-04T01:42:27.360Z,,0,1,,3013,response,ISIC_9588065.JPG,16,ISIC_7642591.JPG,ISIC_7642591.JPG,false,0,keypress(z),500,5329337,5329336,5326323,5326321,5326337,5329361,8,400,24,,ISIC_9588065.JPG
break,html.Screen,4_23_1,2023-11-04T01:42:27.361Z,,0,,,NaN,,,,,,false,,,,5329337,5329337,,5329337,,5329361,8,400,,,
break_continue,html.Screen,4_23_2,2023-11-04T01:42:27.361Z,,0,,,NaN,,,,,,false,,,,5329338,5329337,,5329337,,5329361,8,400,,,
sequence,flow.Sequence,4_23,2023-11-04T01:42:27.361Z,,0,,,3000,completion,,,,,false,,,,5329338,5329337,5326323,5326321,5326337,5329361,8,400,,,
trial,html.Screen,4_24_0,2023-11-04T01:42:30.265Z,,0,1,,2896,response,ISIC_8943855.JPG,7,ISIC_7107030.JPG,ISIC_8943855.JPG,false,1,keypress(m),500,5332242,5332241,5329345,5329338,5329361,5332269,8,400,25,,ISIC_7107030.JPG
break,html.Screen,4_24_1,2023-11-04T01:42:30.266Z,,0,,,NaN,,,,,,false,,,,5332243,5332242,,5332242,,5332269,8,400,,,
break_continue,html.Screen,4_24_2,2023-11-04T01:42:30.266Z,,0,,,NaN,,,,,,false,,,,5332243,5332243,,5332243,,5332269,8,400,,,
sequence,flow.Sequence,4_24,2023-11-04T01:42:30.266Z,,0,,,2882,completion,,,,,false,,,,5332243,5332243,5329345,5329338,5329361,5332269,8,400,,,
trial,html.Screen,4_25_0,2023-11-04T01:42:33.286Z,,0,1,,3011,response,ISIC_9940466.JPG,9,ISIC_8263741.JPG,ISIC_8263741.JPG,false,0,keypress(z),500,5335263,5335263,5332252,5332243,5332269,5335294,8,400,26,,ISIC_9940466.JPG
break,html.Screen,4_25_1,2023-11-04T01:42:33.287Z,,0,,,NaN,,,,,,false,,,,5335264,5335264,,5335263,,5335294,8,400,,,
break_continue,html.Screen,4_25_2,2023-11-04T01:42:33.287Z,,0,,,NaN,,,,,,false,,,,5335264,5335264,,5335264,,5335294,8,400,,,
sequence,flow.Sequence,4_25,2023-11-04T01:42:33.288Z,,0,,,2995,completion,,,,,false,,,,5335264,5335264,5332252,5332243,5332269,5335294,8,400,,,
trial,html.Screen,4_26_0,2023-11-04T01:42:36.819Z,,0,1,,3518,response,ISIC_9756858.JPG,13,ISIC_0033369.JPG,ISIC_0033369.JPG,false,0,keypress(z),500,5338796,5338796,5335278,5335264,5335294,5338819,8,400,27,,ISIC_9756858.JPG
break,html.Screen,4_26_1,2023-11-04T01:42:36.820Z,,0,,,NaN,,,,,,false,,,,5338797.000000001,5338797.000000001,,5338796,,5338819,8,400,,,
break_continue,html.Screen,4_26_2,2023-11-04T01:42:36.821Z,,0,,,NaN,,,,,,false,,,,5338797.000000001,5338797.000000001,,5338797.000000001,,5338819,8,400,,,
sequence,flow.Sequence,4_26,2023-11-04T01:42:36.821Z,,0,,,3503.0000000009313,completion,,,,,false,,,,5338798,5338797.000000001,5335278,5335264,5335294,5338819,8,400,,,
trial,html.Screen,4_27_0,2023-11-04T01:42:39.887Z,,0,1,,3060,response,ISIC_0929483.JPG,5,ISIC_0032586.JPG,ISIC_0032586.JPG,false,0,keypress(z),500,5341864.000000001,5341863,5338803,5338798,5338819,5341894,8,400,28,,ISIC_0929483.JPG
break,html.Screen,4_27_1,2023-11-04T01:42:39.887Z,,0,,,NaN,,,,,,false,,,,5341864.000000001,5341864.000000001,,5341864.000000001,,5341894,8,400,,,
break_continue,html.Screen,4_27_2,2023-11-04T01:42:39.888Z,,0,,,NaN,,,,,,false,,,,5341864.000000001,5341864.000000001,,5341864.000000001,,5341894,8,400,,,
sequence,flow.Sequence,4_27,2023-11-04T01:42:39.888Z,,0,,,3045.0000000009313,completion,,,,,false,,,,5341865,5341864.000000001,5338803,5338798,5338819,5341894,8,400,,,
trial,html.Screen,4_28_0,2023-11-04T01:42:43.239Z,,0,1,,3338,response,ISIC_0009236.JPG,13,ISIC_2714572.JPG,ISIC_2714572.JPG,false,0,keypress(z),500,5345216,5345216,5341878,5341865,5341894,5345237,8,400,29,,ISIC_0009236.JPG
break,html.Screen,4_28_1,2023-11-04T01:42:43.240Z,,0,,,NaN,,,,,,false,,,,5345217.000000001,5345217.000000001,,5345217.000000001,,5345237,8,400,,,
break_continue,html.Screen,4_28_2,2023-11-04T01:42:43.240Z,,0,,,NaN,,,,,,false,,,,5345217.000000001,5345217.000000001,,5345217.000000001,,5345237,8,400,,,
sequence,flow.Sequence,4_28,2023-11-04T01:42:43.241Z,,0,,,3323.0000000009313,completion,,,,,false,,,,5345217.000000001,5345217.000000001,5341878,5341865,5341894,5345237,8,400,,,
trial,html.Screen,4_29_0,2023-11-04T01:42:46.062Z,,0,1,,2819,response,ISIC_0025039.JPG,3,ISIC_0055820.JPG,ISIC_0025039.JPG,false,1,keypress(m),500,5348039,5348039,5345220,5345218,5345237,5348060,8,400,30,,ISIC_0055820.JPG
break,html.Screen,4_29_1,2023-11-04T01:42:46.063Z,,0,,,NaN,,,,,,false,,,,5348040,5348040,,5348040,,5348060,8,400,,,
break_continue,html.Screen,4_29_2,2023-11-04T01:42:46.064Z,,0,,,NaN,,,,,,false,,,,5348041,5348041,,5348040,,5348060,8,400,,,
sequence,flow.Sequence,4_29,2023-11-04T01:42:46.064Z,,0,,,2804,completion,,,,,false,,,,5348041,5348041,5345220,5345218,5345237,5348060,8,400,,,
trial,html.Screen,4_30_0,2023-11-04T01:42:50.167Z,,0,1,,4100,response,ISIC_0101540.JPG,3,ISIC_4921413.JPG,ISIC_0101540.JPG,false,1,keypress(m),500,5352144,5352144,5348044,5348041,5348060,5352172,8,400,31,,ISIC_4921413.JPG
break,html.Screen,4_30_1,2023-11-04T01:42:50.168Z,,0,,,NaN,,,,,,false,,,,5352145,5352145,,5352144,,5352172,8,400,,,
break_continue,html.Screen,4_30_2,2023-11-04T01:42:50.168Z,,0,,,NaN,,,,,,false,,,,5352145,5352145,,5352145,,5352172,8,400,,,
sequence,flow.Sequence,4_30,2023-11-04T01:42:50.168Z,,0,,,4085,completion,,,,,false,,,,5352145,5352145,5348044,5348041,5348060,5352172,8,400,,,
trial,html.Screen,4_31_0,2023-11-04T01:42:52.933Z,,0,1,,2754,response,ISIC_0059181.JPG,10,ISIC_1884256.JPG,ISIC_1884256.JPG,false,0,keypress(z),500,5354911,5354910,5352156,5352146,5352172,5354946,8,400,32,,ISIC_0059181.JPG
break,html.Screen,4_31_1,2023-11-04T01:42:52.934Z,,0,,,NaN,,,,,,false,,,,5354911,5354911,,5354911,,5354946,8,400,,,
break_continue,html.Screen,4_31_2,2023-11-04T01:42:52.935Z,,0,,,NaN,,,,,,false,,,,5354912,5354912,,5354912,,5354946,8,400,,,
sequence,flow.Sequence,4_31,2023-11-04T01:42:52.935Z,,0,,,2740,completion,,,,,false,,,,5354912,5354912,5352156,5352145,5352172,5354946,8,400,,,
trial,html.Screen,4_32_0,2023-11-04T01:42:55.872Z,,0,1,,2919,response,ISIC_0030194.JPG,1,ISIC_6425888.JPG,ISIC_0030194.JPG,false,1,keypress(m),500,5357849,5357849,5354930,5354912,5354946,5357871,8,400,33,,ISIC_6425888.JPG
break,html.Screen,4_32_1,2023-11-04T01:42:55.873Z,,0,,,NaN,,,,,,false,,,,5357850,5357850,,5357850,,5357871,8,400,,,
break_continue,html.Screen,4_32_2,2023-11-04T01:42:55.873Z,,0,,,NaN,,,,,,false,,,,5357851,5357851,,5357851,,5357871,8,400,,,
sequence,flow.Sequence,4_32,2023-11-04T01:42:55.874Z,,0,,,2905,completion,,,,,false,,,,5357851,5357851,5354930,5354912,5354946,5357871,8,400,,,
trial,html.Screen,4_33_0,2023-11-04T01:42:59.051Z,,0,1,,3175,response,ISIC_4787403.JPG,3,ISIC_0058079.JPG,ISIC_0058079.JPG,false,0,keypress(z),500,5361028,5361028,5357853,5357851,5357871,5361063,8,400,34,,ISIC_4787403.JPG
break,html.Screen,4_33_1,2023-11-04T01:42:59.052Z,,0,,,NaN,,,,,,false,,,,5361029,5361029,,5361029,,5361063,8,400,,,
break_continue,html.Screen,4_33_2,2023-11-04T01:42:59.052Z,,0,,,NaN,,,,,,false,,,,5361030,5361030,,5361029,,5361063,8,400,,,
sequence,flow.Sequence,4_33,2023-11-04T01:42:59.053Z,,0,,,3159,completion,,,,,false,,,,5361030,5361030,5357853,5357851,5357871,5361063,8,400,,,
trial,html.Screen,4_34_0,2023-11-04T01:43:01.803Z,,0,1,,2734,response,ISIC_5308066.JPG,15,ISIC_0028022.JPG,ISIC_0028022.JPG,false,0,keypress(z),500,5363781,5363780,5361046,5361030,5361063,5363803,8,400,35,,ISIC_5308066.JPG
break,html.Screen,4_34_1,2023-11-04T01:43:01.804Z,,0,,,NaN,,,,,,false,,,,5363782,5363781,,5363781,,5363803,8,400,,,
break_continue,html.Screen,4_34_2,2023-11-04T01:43:01.805Z,,0,,,NaN,,,,,,false,,,,5363782,5363782,,5363782,,5363803,8,400,,,
sequence,flow.Sequence,4_34,2023-11-04T01:43:01.805Z,,0,,,2719,completion,,,,,false,,,,5363782,5363782,5361046,5361030,5361063,5363803,8,400,,,
trial,html.Screen,4_35_0,2023-11-04T01:43:04.613Z,,0,1,,2804,response,ISIC_0010068.JPG,4,ISIC_0011051.JPG,ISIC_0010068.JPG,false,1,keypress(m),500,5366590,5366590,5363786,5363782,5363803,5366628,8,400,36,,ISIC_0011051.JPG
break,html.Screen,4_35_1,2023-11-04T01:43:04.614Z,,0,,,NaN,,,,,,false,,,,5366591,5366591,,5366591,,5366628,8,400,,,
break_continue,html.Screen,4_35_2,2023-11-04T01:43:04.614Z,,0,,,NaN,,,,,,false,,,,5366592.000000001,5366592.000000001,,5366591,,5366628,8,400,,,
sequence,flow.Sequence,4_35,2023-11-04T01:43:04.614Z,,0,,,2789.0000000009313,completion,,,,,false,,,,5366592.000000001,5366592.000000001,5363786,5363782,5363803,5366628,8,400,,,
trial,html.Screen,4_36_0,2023-11-04T01:43:07.749Z,,0,1,,3117,response,ISIC_0062058.JPG,14,ISIC_0034049.JPG,ISIC_0034049.JPG,false,0,keypress(z),500,5369727,5369727,5366610,5366592.000000001,5366628,5369752,8,400,37,,ISIC_0062058.JPG
break,html.Screen,4_36_1,2023-11-04T01:43:07.750Z,,0,,,NaN,,,,,,false,,,,5369728,5369728,,5369727,,5369752,8,400,,,
break_continue,html.Screen,4_36_2,2023-11-04T01:43:07.750Z,,0,,,NaN,,,,,,false,,,,5369728,5369728,,5369728,,5369752,8,400,,,
sequence,flow.Sequence,4_36,2023-11-04T01:43:07.750Z,,0,,,3100,completion,,,,,false,,,,5369728,5369728,5366610,5366592.000000001,5366628,5369752,8,400,,,
trial,html.Screen,4_37_0,2023-11-04T01:43:10.412Z,,0,1,,2653,response,ISIC_5282642.JPG,8,ISIC_0011139.JPG,ISIC_0011139.JPG,false,0,keypress(z),500,5372390,5372389,5369736,5369728,5369752,5372427,8,400,38,,ISIC_5282642.JPG
break,html.Screen,4_37_1,2023-11-04T01:43:10.413Z,,0,,,NaN,,,,,,false,,,,5372391.000000001,5372390,,5372390,,5372427,8,400,,,
break_continue,html.Screen,4_37_2,2023-11-04T01:43:10.413Z,,0,,,NaN,,,,,,false,,,,5372391.000000001,5372391.000000001,,5372391.000000001,,5372427,8,400,,,
sequence,flow.Sequence,4_37,2023-11-04T01:43:10.413Z,,0,,,2639.0000000009313,completion,,,,,false,,,,5372391.000000001,5372391.000000001,5369736,5369728,5369752,5372427,8,400,,,
trial,html.Screen,4_38_0,2023-11-04T01:43:13.549Z,,0,1,,3117,response,ISIC_5736624.JPG,2,ISIC_0064026.JPG,ISIC_0064026.JPG,false,0,keypress(z),500,5375527,5375527,5372410,5372392,5372427,5375551,8,400,39,,ISIC_5736624.JPG
break,html.Screen,4_38_1,2023-11-04T01:43:13.550Z,,0,,,NaN,,,,,,false,,,,5375528,5375528,,5375528,,5375551,8,400,,,
break_continue,html.Screen,4_38_2,2023-11-04T01:43:13.550Z,,0,,,NaN,,,,,,false,,,,5375528,5375528,,5375528,,5375551,8,400,,,
sequence,flow.Sequence,4_38,2023-11-04T01:43:13.551Z,,0,,,3101,completion,,,,,false,,,,5375529,5375528,5372410,5372391.000000001,5372427,5375551,8,400,,,
trial,html.Screen,4_39_0,2023-11-04T01:43:16.564Z,,0,1,,3007,response,ISIC_1668831.JPG,5,ISIC_0033845.JPG,ISIC_1668831.JPG,false,1,keypress(m),500,5378542,5378542,5375535,5375529,5375551,5378576,8,400,40,,ISIC_0033845.JPG
break,html.Screen,4_39_1,2023-11-04T01:43:16.565Z,,0,,,NaN,,,,,,false,,,,5378543,5378543,,5378543,,5378576,8,400,,,
break_continue,html.Screen,4_39_2,2023-11-04T01:43:16.565Z,,0,,,NaN,,,,,,false,,,,5378543,5378543,,5378543,,5378576,8,400,,,
sequence,flow.Sequence,4_39,2023-11-04T01:43:16.565Z,,0,,,2992,completion,,,,,false,,,,5378543,5378543,5375535,5375529,5375551,5378576,8,400,,,
trial,html.Screen,4_40_0,2023-11-04T01:43:19.373Z,,0,1,,2674,response,ISIC_0033148.JPG,16,ISIC_0055039.JPG,ISIC_0055039.JPG,false,0,keypress(z),500,5381234,5381234,5378560,5378544,5378576,5381266,8,400,41,,ISIC_0033148.JPG
break,html.Screen,4_40_1,2023-11-04T01:43:19.374Z,,0,,,NaN,,,,,,false,,,,5381235,5381234,,5381234,,5381266,8,400,,,
break_continue,html.Screen,4_40_2,2023-11-04T01:43:19.375Z,,0,,,NaN,,,,,,false,,,,5381235,5381235,,5381235,,5381266,8,400,,,
sequence,flow.Sequence,4_40,2023-11-04T01:43:19.375Z,,0,,,2659,completion,,,,,false,,,,5381235,5381235,5378560,5378543,5378576,5381266,8,400,,,
trial,html.Screen,4_41_0,2023-11-04T01:43:22.349Z,,0,1,,2959,response,ISIC_0063568.JPG,14,ISIC_0054671.JPG,ISIC_0063568.JPG,false,1,keypress(m),500,5384210,5384209,5381250,5381235,5381266,5384241,8,400,42,,ISIC_0054671.JPG
break,html.Screen,4_41_1,2023-11-04T01:43:22.350Z,,0,,,NaN,,,,,,false,,,,5384210,5384210,,5384210,,5384241,8,400,,,
break_continue,html.Screen,4_41_2,2023-11-04T01:43:22.351Z,,0,,,NaN,,,,,,false,,,,5384211,5384211,,5384211,,5384241,8,400,,,
sequence,flow.Sequence,4_41,2023-11-04T01:43:22.351Z,,0,,,2945,completion,,,,,false,,,,5384211,5384211,5381250,5381235,5381266,5384241,8,400,,,
trial,html.Screen,4_42_0,2023-11-04T01:43:25.027Z,,0,1,,2662,response,ISIC_0010036.JPG,14,ISIC_0027659.JPG,ISIC_0027659.JPG,false,0,keypress(z),500,5386887,5386887,5384225,5384211,5384241,5386915,8,400,43,,ISIC_0010036.JPG
break,html.Screen,4_42_1,2023-11-04T01:43:25.027Z,,0,,,NaN,,,,,,false,,,,5386888,5386887,,5386887,,5386915,8,400,,,
break_continue,html.Screen,4_42_2,2023-11-04T01:43:25.028Z,,0,,,NaN,,,,,,false,,,,5386888,5386888,,5386888,,5386915,8,400,,,
sequence,flow.Sequence,4_42,2023-11-04T01:43:25.028Z,,0,,,2647,completion,,,,,false,,,,5386888,5386888,5384225,5384211,5384241,5386915,8,400,,,
trial,html.Screen,4_43_0,2023-11-04T01:43:27.616Z,,0,1,,2577,response,ISIC_7600621.JPG,10,ISIC_1676261.JPG,ISIC_7600621.JPG,false,1,keypress(m),500,5389476,5389476,5386899,5386888,5386915,5389505,8,400,44,,ISIC_1676261.JPG
break,html.Screen,4_43_1,2023-11-04T01:43:27.617Z,,0,,,NaN,,,,,,false,,,,5389477,5389477,,5389477,,5389505,8,400,,,
break_continue,html.Screen,4_43_2,2023-11-04T01:43:27.617Z,,0,,,NaN,,,,,,false,,,,5389477,5389477,,5389477,,5389505,8,400,,,
sequence,flow.Sequence,4_43,2023-11-04T01:43:27.617Z,,0,,,2562,completion,,,,,false,,,,5389477,5389477,5386899,5386888,5386915,5389505,8,400,,,
trial,html.Screen,4_44_0,2023-11-04T01:43:31.217Z,,0,1,,3589,response,ISIC_0033258.JPG,11,ISIC_0029283.JPG,ISIC_0029283.JPG,false,0,keypress(z),500,5393078,5393077,5389488,5389478,5389505,5393115,8,400,45,,ISIC_0033258.JPG
break,html.Screen,4_44_1,2023-11-04T01:43:31.218Z,,0,,,NaN,,,,,,false,,,,5393079,5393078,,5393078,,5393115,8,400,,,
break_continue,html.Screen,4_44_2,2023-11-04T01:43:31.219Z,,0,,,NaN,,,,,,false,,,,5393079,5393079,,5393079,,5393115,8,400,,,
sequence,flow.Sequence,4_44,2023-11-04T01:43:31.219Z,,0,,,3574,completion,,,,,false,,,,5393079,5393079,5389488,5389478,5389505,5393115,8,400,,,
trial,html.Screen,4_45_0,2023-11-04T01:43:34.161Z,,0,1,,2921,response,ISIC_0010803.JPG,3,ISIC_0064986.JPG,ISIC_0064986.JPG,false,0,keypress(z),500,5396021,5396020,5393099,5393079,5393115,5396056,8,400,46,,ISIC_0010803.JPG
break,html.Screen,4_45_1,2023-11-04T01:43:34.161Z,,0,,,NaN,,,,,,false,,,,5396021,5396021,,5396021,,5396056,8,400,,,
break_continue,html.Screen,4_45_2,2023-11-04T01:43:34.162Z,,0,,,NaN,,,,,,false,,,,5396022,5396022,,5396022,,5396056,8,400,,,
sequence,flow.Sequence,4_45,2023-11-04T01:43:34.162Z,,0,,,2907,completion,,,,,false,,,,5396022,5396022,5393099,5393079,5393115,5396056,8,400,,,
trial,html.Screen,4_46_0,2023-11-04T01:43:36.710Z,,0,1,,2530,response,ISIC_0027514.JPG,0,ISIC_4864523.JPG,ISIC_0027514.JPG,false,1,keypress(m),500,5398570,5398569,5396039,5396022,5396056,5398596,8,400,47,,ISIC_4864523.JPG
break,html.Screen,4_46_1,2023-11-04T01:43:36.710Z,,0,,,NaN,,,,,,false,,,,5398570,5398570,,5398570,,5398596,8,400,,,
break_continue,html.Screen,4_46_2,2023-11-04T01:43:36.711Z,,0,,,NaN,,,,,,false,,,,5398571,5398570,,5398570,,5398596,8,400,,,
sequence,flow.Sequence,4_46,2023-11-04T01:43:36.711Z,,0,,,2514,completion,,,,,false,,,,5398571,5398570,5396039,5396022,5396056,5398596,8,400,,,
trial,html.Screen,4_47_0,2023-11-04T01:43:39.313Z,,0,1,,2594,response,ISIC_0905367.JPG,8,ISIC_0029007.JPG,ISIC_0905367.JPG,false,1,keypress(m),500,5401173,5401173,5398579,5398571,5398596,5401203,8,400,48,,ISIC_0029007.JPG
break,html.Screen,4_47_1,2023-11-04T01:43:39.314Z,,0,,,NaN,,,,,,false,,,,5401174,5401173,,5401173,,5401203,8,400,,,
break_continue,html.Screen,4_47_2,2023-11-04T01:43:39.314Z,,0,,,NaN,,,,,,false,,,,5401174,5401174,,5401174,,5401203,8,400,,,
sequence,flow.Sequence,4_47,2023-11-04T01:43:39.314Z,,0,,,2578,completion,,,,,false,,,,5401174,5401174,5398579,5398571,5398596,5401203,8,400,,,
trial,html.Screen,4_48_0,2023-11-04T01:43:41.999Z,,0,1,,2672,response,ISIC_8733745.JPG,12,ISIC_1327515.JPG,ISIC_1327515.JPG,false,0,keypress(z),500,5403859,5403859,5401187,5401174,5401203,5403893,8,400,49,,ISIC_8733745.JPG
break,html.Screen,4_48_1,2023-11-04T01:43:42.000Z,,0,,,NaN,,,,,,false,,,,5403860,5403860,,5403859,,5403893,8,400,,,
break_continue,html.Screen,4_48_2,2023-11-04T01:43:42.000Z,,0,,,NaN,,,,,,false,,,,5403860,5403860,,5403860,,5403893,8,400,,,
sequence,flow.Sequence,4_48,2023-11-04T01:43:42.000Z,,0,,,2657,completion,,,,,false,,,,5403860,5403860,5401187,5401174,5401203,5403893,8,400,,,
trial,html.Screen,4_49_0,2023-11-04T01:43:44.911Z,,0,1,,2894,response,ISIC_8373462.JPG,0,ISIC_4641968.JPG,ISIC_4641968.JPG,false,0,keypress(z),500,5406771,5406771,5403877,5403861,5403893,5406801,8,400,50,,ISIC_8373462.JPG
break,html.Screen,4_49_1,2023-11-04T01:43:54.919Z,,0,,,9994,timeout,,,,,false,,,,5416779,5416778,5406784,5406771,5406801,5416795,8,400,,,
break_continue,html.Screen,4_49_2,2023-11-04T01:43:56.333Z,,0,,,1404,response,,,,,false,continue,keypress(Space),,5418192,5418182,5416778,5416779,5416795,5418216,8,400,,,
sequence,flow.Sequence,4_49,2023-11-04T01:43:56.333Z,,0,,,14289,completion,,,,,false,,,,5418192,5418182,5403877,5403861,5403893,5418216,8,400,,,
trial,html.Screen,4_50_0,2023-11-04T01:43:59.404Z,,0,2,,3066,response,ISIC_3492490.JPG,6,ISIC_0064344.JPG,ISIC_0064344.JPG,false,0,keypress(z),500,5421264,5421264,5418198,5418193,5418216,5421291,8,400,1,,ISIC_3492490.JPG
break,html.Screen,4_50_1,2023-11-04T01:43:59.405Z,,0,,,NaN,,,,,,false,,,,5421265,5421264,,5421264,,5421291,8,400,,,
break_continue,html.Screen,4_50_2,2023-11-04T01:43:59.405Z,,0,,,NaN,,,,,,false,,,,5421265,5421265,,5421265,,5421291,8,400,,,
sequence,flow.Sequence,4_50,2023-11-04T01:43:59.405Z,,0,,,3049,completion,,,,,false,,,,5421265,5421265,5418198,5418193,5418216,5421291,8,400,,,
trial,html.Screen,4_51_0,2023-11-04T01:44:03.259Z,,0,2,,3846,response,ISIC_8343285.JPG,8,ISIC_0060386.JPG,ISIC_0060386.JPG,false,0,keypress(z),500,5425119,5425119,5421273,5421265,5421291,5425151,8,400,2,,ISIC_8343285.JPG
break,html.Screen,4_51_1,2023-11-04T01:44:03.260Z,,0,,,NaN,,,,,,false,,,,5425120,5425119,,5425119,,5425151,8,400,,,
break_continue,html.Screen,4_51_2,2023-11-04T01:44:03.260Z,,0,,,NaN,,,,,,false,,,,5425120,5425120,,5425120,,5425151,8,400,,,
sequence,flow.Sequence,4_51,2023-11-04T01:44:03.260Z,,0,,,3829,completion,,,,,false,,,,5425120,5425120,5421273,5421265,5421291,5425151,8,400,,,
trial,html.Screen,4_52_0,2023-11-04T01:44:06.015Z,,0,2,,2741,response,ISIC_4378189.JPG,14,ISIC_6220625.JPG,ISIC_4378189.JPG,false,1,keypress(m),500,5427875,5427875,5425134,5425120,5425151,5427908,8,400,3,,ISIC_6220625.JPG
break,html.Screen,4_52_1,2023-11-04T01:44:06.016Z,,0,,,NaN,,,,,,false,,,,5427876,5427875,,5427875,,5427908,8,400,,,
break_continue,html.Screen,4_52_2,2023-11-04T01:44:06.016Z,,0,,,NaN,,,,,,false,,,,5427876,5427876,,5427876,,5427908,8,400,,,
sequence,flow.Sequence,4_52,2023-11-04T01:44:06.017Z,,0,,,2725,completion,,,,,false,,,,5427876,5427876,5425134,5425120,5425151,5427908,8,400,,,
trial,html.Screen,4_53_0,2023-11-04T01:44:09.388Z,,0,2,,3357.0000000009313,response,ISIC_0066378.JPG,14,ISIC_6637542.JPG,ISIC_0066378.JPG,false,1,keypress(m),500,5431248.000000001,5431248.000000001,5427891,5427876,5427908,5431267,8,400,4,,ISIC_6637542.JPG
break,html.Screen,4_53_1,2023-11-04T01:44:09.389Z,,0,,,NaN,,,,,,false,,,,5431249,5431248.000000001,,5431248.000000001,,5431267,8,400,,,
break_continue,html.Screen,4_53_2,2023-11-04T01:44:09.390Z,,0,,,NaN,,,,,,false,,,,5431249,5431249,,5431249,,5431267,8,400,,,
sequence,flow.Sequence,4_53,2023-11-04T01:44:09.390Z,,0,,,3341,completion,,,,,false,,,,5431249,5431249,5427891,5427876,5427908,5431267,8,400,,,
trial,html.Screen,4_54_0,2023-11-04T01:44:12.989Z,,0,2,,3597,response,ISIC_1441260.JPG,1,ISIC_7697022.JPG,ISIC_1441260.JPG,false,1,keypress(m),500,5434848,5434848,5431251,5431249,5431267,5434877,8,400,5,,ISIC_7697022.JPG
break,html.Screen,4_54_1,2023-11-04T01:44:12.989Z,,0,,,NaN,,,,,,false,,,,5434849,5434849,,5434848,,5434877,8,400,,,
break_continue,html.Screen,4_54_2,2023-11-04T01:44:12.990Z,,0,,,NaN,,,,,,false,,,,5434849,5434849,,5434849,,5434877,8,400,,,
sequence,flow.Sequence,4_54,2023-11-04T01:44:12.990Z,,0,,,3582,completion,,,,,false,,,,5434849,5434849,5431251,5431249,5431267,5434877,8,400,,,
trial,html.Screen,4_55_0,2023-11-04T01:44:16.710Z,,0,2,,3709,response,ISIC_0375034.JPG,10,ISIC_7682938.JPG,ISIC_0375034.JPG,false,1,keypress(m),500,5438569,5438569,5434860,5434850,5434877,5438603,8,400,6,,ISIC_7682938.JPG
break,html.Screen,4_55_1,2023-11-04T01:44:16.711Z,,0,,,NaN,,,,,,false,,,,5438570,5438570,,5438569,,5438603,8,400,,,
break_continue,html.Screen,4_55_2,2023-11-04T01:44:16.711Z,,0,,,NaN,,,,,,false,,,,5438570,5438570,,5438570,,5438603,8,400,,,
sequence,flow.Sequence,4_55,2023-11-04T01:44:16.711Z,,0,,,3693,completion,,,,,false,,,,5438571,5438570,5434860,5434849,5434877,5438603,8,400,,,
trial,html.Screen,4_56_0,2023-11-04T01:44:19.631Z,,0,2,,2903,response,ISIC_0011137.JPG,16,ISIC_3025889.JPG,ISIC_0011137.JPG,false,1,keypress(m),500,5441491,5441490,5438587,5438571,5438603,5441510,8,400,7,,ISIC_3025889.JPG
break,html.Screen,4_56_1,2023-11-04T01:44:19.632Z,,0,,,NaN,,,,,,false,,,,5441492,5441491,,5441491,,5441510,8,400,,,
break_continue,html.Screen,4_56_2,2023-11-04T01:44:19.633Z,,0,,,NaN,,,,,,false,,,,5441492,5441492,,5441492,,5441510,8,400,,,
sequence,flow.Sequence,4_56,2023-11-04T01:44:19.633Z,,0,,,2889,completion,,,,,false,,,,5441492,5441492,5438587,5438571,5438603,5441510,8,400,,,
trial,html.Screen,4_57_0,2023-11-04T01:44:22.326Z,,0,2,,2691,response,ISIC_0944273.JPG,2,ISIC_7369312.JPG,ISIC_0944273.JPG,false,1,keypress(m),500,5444186,5444185,5441494,5441492,5441510,5444217,8,400,8,,ISIC_7369312.JPG
break,html.Screen,4_57_1,2023-11-04T01:44:22.327Z,,0,,,NaN,,,,,,false,,,,5444186,5444186,,5444186,,5444217,8,400,,,
break_continue,html.Screen,4_57_2,2023-11-04T01:44:22.327Z,,0,,,NaN,,,,,,false,,,,5444187,5444186,,5444186,,5444217,8,400,,,
sequence,flow.Sequence,4_57,2023-11-04T01:44:22.328Z,,0,,,2676,completion,,,,,false,,,,5444187,5444186,5441494,5441492,5441510,5444217,8,400,,,
trial,html.Screen,4_58_0,2023-11-04T01:44:25.809Z,,0,2,,3466,response,ISIC_0065882.JPG,15,ISIC_0014302.JPG,ISIC_0065882.JPG,false,1,keypress(m),500,5447669,5447668,5444202,5444187,5444217,5447694,8,400,9,,ISIC_0014302.JPG
break,html.Screen,4_58_1,2023-11-04T01:44:25.810Z,,0,,,NaN,,,,,,false,,,,5447669,5447669,,5447669,,5447694,8,400,,,
break_continue,html.Screen,4_58_2,2023-11-04T01:44:25.810Z,,0,,,NaN,,,,,,false,,,,5447669,5447669,,5447669,,5447694,8,400,,,
sequence,flow.Sequence,4_58,2023-11-04T01:44:25.810Z,,0,,,3452,completion,,,,,false,,,,5447670,5447669,5444202,5444187,5444217,5447694,8,400,,,
trial,html.Screen,4_59_0,2023-11-04T01:44:28.489Z,,0,2,,2671,response,ISIC_0027327.JPG,8,ISIC_5628615.JPG,ISIC_0027327.JPG,false,1,keypress(m),500,5450348,5450348,5447677,5447670,5447694,5450384,8,400,10,,ISIC_5628615.JPG
break,html.Screen,4_59_1,2023-11-04T01:44:28.490Z,,0,,,NaN,,,,,,false,,,,5450349,5450348,,5450348,,5450384,8,400,,,
break_continue,html.Screen,4_59_2,2023-11-04T01:44:28.490Z,,0,,,NaN,,,,,,false,,,,5450349,5450349,,5450349,,5450384,8,400,,,
sequence,flow.Sequence,4_59,2023-11-04T01:44:28.490Z,,0,,,2655,completion,,,,,false,,,,5450349,5450349,5447677,5447670,5447694,5450384,8,400,,,
trial,html.Screen,4_60_0,2023-11-04T01:44:31.072Z,,0,2,,2563.0000000009313,response,ISIC_0732375.JPG,2,ISIC_3762459.JPG,ISIC_0732375.JPG,false,1,keypress(m),500,5452931.000000001,5452931.000000001,5450368,5450350,5450384,5452958,8,400,11,,ISIC_3762459.JPG
break,html.Screen,4_60_1,2023-11-04T01:44:31.072Z,,0,,,NaN,,,,,,false,,,,5452931.000000001,5452931.000000001,,5452931.000000001,,5452958,8,400,,,
break_continue,html.Screen,4_60_2,2023-11-04T01:44:31.073Z,,0,,,NaN,,,,,,false,,,,5452932,5452932,,5452932,,5452958,8,400,,,
sequence,flow.Sequence,4_60,2023-11-04T01:44:31.073Z,,0,,,2548,completion,,,,,false,,,,5452932,5452932,5450368,5450350,5450384,5452958,8,400,,,
trial,html.Screen,4_61_0,2023-11-04T01:44:33.646Z,,0,2,,2563,response,ISIC_9375324.JPG,10,ISIC_5369000.JPG,ISIC_5369000.JPG,false,0,keypress(z),500,5455505,5455505,5452942,5452932,5452958,5455531,8,400,12,,ISIC_9375324.JPG
break,html.Screen,4_61_1,2023-11-04T01:44:33.647Z,,0,,,NaN,,,,,,false,,,,5455506,5455506,,5455505,,5455531,8,400,,,
break_continue,html.Screen,4_61_2,2023-11-04T01:44:33.647Z,,0,,,NaN,,,,,,false,,,,5455506,5455506,,5455506,,5455531,8,400,,,
sequence,flow.Sequence,4_61,2023-11-04T01:44:33.647Z,,0,,,2548,completion,,,,,false,,,,5455506,5455506,5452942,5452932,5452958,5455531,8,400,,,
trial,html.Screen,4_62_0,2023-11-04T01:44:37.130Z,,0,2,,3473,response,ISIC_0728350.JPG,8,ISIC_0011696.JPG,ISIC_0011696.JPG,false,0,keypress(z),500,5458989.000000001,5458988,5455515,5455507.000000001,5455531,5459024,8,400,13,,ISIC_0728350.JPG
break,html.Screen,4_62_1,2023-11-04T01:44:37.130Z,,0,,,NaN,,,,,,false,,,,5458989.000000001,5458989.000000001,,5458989.000000001,,5459024,8,400,,,
break_continue,html.Screen,4_62_2,2023-11-04T01:44:37.131Z,,0,,,NaN,,,,,,false,,,,5458990,5458990,,5458989.000000001,,5459024,8,400,,,
sequence,flow.Sequence,4_62,2023-11-04T01:44:37.131Z,,0,,,3459,completion,,,,,false,,,,5458990,5458990,5455515,5455506,5455531,5459024,8,400,,,
trial,html.Screen,4_63_0,2023-11-04T01:44:39.889Z,,0,2,,2740.0000000009313,response,ISIC_0033568.JPG,1,ISIC_0014480.JPG,ISIC_0033568.JPG,false,1,keypress(m),500,5461748.000000001,5461748.000000001,5459008,5458990,5459024,5461782,8,400,14,,ISIC_0014480.JPG
break,html.Screen,4_63_1,2023-11-04T01:44:39.890Z,,0,,,NaN,,,,,,false,,,,5461749,5461748.000000001,,5461748.000000001,,5461782,8,400,,,
break_continue,html.Screen,4_63_2,2023-11-04T01:44:39.890Z,,0,,,NaN,,,,,,false,,,,5461749,5461749,,5461749,,5461782,8,400,,,
sequence,flow.Sequence,4_63,2023-11-04T01:44:39.890Z,,0,,,2725,completion,,,,,false,,,,5461749,5461749,5459008,5458990,5459024,5461782,8,400,,,
trial,html.Screen,4_64_0,2023-11-04T01:44:43.494Z,,0,2,,3588,response,ISIC_0069124.JPG,16,ISIC_0064982.JPG,ISIC_0069124.JPG,false,1,keypress(m),500,5465353,5465353,5461765,5461749,5461782,5465374,8,400,15,,ISIC_0064982.JPG
break,html.Screen,4_64_1,2023-11-04T01:44:43.495Z,,0,,,NaN,,,,,,false,,,,5465354,5465354,,5465354,,5465374,8,400,,,
break_continue,html.Screen,4_64_2,2023-11-04T01:44:43.496Z,,0,,,NaN,,,,,,false,,,,5465355.000000001,5465355.000000001,,5465354,,5465374,8,400,,,
sequence,flow.Sequence,4_64,2023-11-04T01:44:43.496Z,,0,,,3573.0000000009313,completion,,,,,false,,,,5465355.000000001,5465355.000000001,5461765,5461749,5461782,5465374,8,400,,,
trial,html.Screen,4_65_0,2023-11-04T01:44:47.224Z,,0,2,,3726.0000000009313,response,ISIC_8812621.JPG,3,ISIC_1869829.JPG,ISIC_8812621.JPG,false,1,keypress(m),500,5469083.000000001,5469083.000000001,5465357,5465355.000000001,5465374,5469100,8,400,16,,ISIC_1869829.JPG
break,html.Screen,4_65_1,2023-11-04T01:44:47.225Z,,0,,,NaN,,,,,,false,,,,5469084,5469084,,5469084,,5469100,8,400,,,
break_continue,html.Screen,4_65_2,2023-11-04T01:44:47.226Z,,0,,,NaN,,,,,,false,,,,5469085,5469084,,5469084,,5469100,8,400,,,
sequence,flow.Sequence,4_65,2023-11-04T01:44:47.226Z,,0,,,3710,completion,,,,,false,,,,5469085,5469084,5465357,5465355.000000001,5465374,5469100,8,400,,,
trial,html.Screen,4_66_0,2023-11-04T01:44:51.037Z,,0,2,,3809,response,ISIC_0014708.JPG,16,ISIC_7621389.JPG,ISIC_7621389.JPG,false,0,keypress(z),500,5472896,5472896,5469087,5469085,5469100,5472928,8,400,17,,ISIC_0014708.JPG
break,html.Screen,4_66_1,2023-11-04T01:44:51.038Z,,0,,,NaN,,,,,,false,,,,5472897,5472897,,5472897,,5472928,8,400,,,
break_continue,html.Screen,4_66_2,2023-11-04T01:44:51.039Z,,0,,,NaN,,,,,,false,,,,5472897,5472897,,5472897,,5472928,8,400,,,
sequence,flow.Sequence,4_66,2023-11-04T01:44:51.039Z,,0,,,3797,completion,,,,,false,,,,5472898,5472897,5469087,5469085,5469100,5472928,8,400,,,
trial,html.Screen,4_67_0,2023-11-04T01:44:55.257Z,,0,2,,4205,response,ISIC_0998962.JPG,14,ISIC_5385528.JPG,ISIC_5385528.JPG,false,0,keypress(z),500,5477116,5477116,5472911,5472898,5472928,5477139,8,400,18,,ISIC_0998962.JPG
break,html.Screen,4_67_1,2023-11-04T01:44:55.258Z,,0,,,NaN,,,,,,false,,,,5477117,5477117,,5477116,,5477139,8,400,,,
break_continue,html.Screen,4_67_2,2023-11-04T01:44:55.258Z,,0,,,NaN,,,,,,false,,,,5477117,5477117,,5477117,,5477139,8,400,,,
sequence,flow.Sequence,4_67,2023-11-04T01:44:55.259Z,,0,,,4189,completion,,,,,false,,,,5477117,5477117,5472911,5472898,5472928,5477139,8,400,,,
trial,html.Screen,4_68_0,2023-11-04T01:44:58.123Z,,0,2,,2859,response,ISIC_3289574.JPG,6,ISIC_0032892.JPG,ISIC_0032892.JPG,false,0,keypress(z),500,5479982,5479982,5477123,5477117,5477139,5480014,8,400,19,,ISIC_3289574.JPG
break,html.Screen,4_68_1,2023-11-04T01:44:58.124Z,,0,,,NaN,,,,,,false,,,,5479983,5479983,,5479982,,5480014,8,400,,,
break_continue,html.Screen,4_68_2,2023-11-04T01:44:58.124Z,,0,,,NaN,,,,,,false,,,,5479983,5479983,,5479983,,5480014,8,400,,,
sequence,flow.Sequence,4_68,2023-11-04T01:44:58.125Z,,0,,,2844,completion,,,,,false,,,,5479983,5479983,5477123,5477117,5477139,5480014,8,400,,,
trial,html.Screen,4_69_0,2023-11-04T01:45:00.907Z,,0,2,,2769,response,ISIC_6446753.JPG,13,ISIC_1793821.JPG,ISIC_6446753.JPG,false,1,keypress(m),500,5482765,5482765,5479996,5479984,5480014,5482788,8,400,20,,ISIC_1793821.JPG
break,html.Screen,4_69_1,2023-11-04T01:45:00.907Z,,0,,,NaN,,,,,,false,,,,5482766.000000001,5482766.000000001,,5482765,,5482788,8,400,,,
break_continue,html.Screen,4_69_2,2023-11-04T01:45:00.908Z,,0,,,NaN,,,,,,false,,,,5482766.000000001,5482766.000000001,,5482766.000000001,,5482788,8,400,,,
sequence,flow.Sequence,4_69,2023-11-04T01:45:00.908Z,,0,,,2752.0000000009313,completion,,,,,false,,,,5482766.000000001,5482766.000000001,5479996,5479983,5480014,5482788,8,400,,,
trial,html.Screen,4_70_0,2023-11-04T01:45:03.544Z,,0,2,,2631,response,ISIC_3272999.JPG,5,ISIC_2161864.JPG,ISIC_3272999.JPG,false,1,keypress(m),500,5485403,5485402,5482771,5482766.000000001,5482788,5485427,8,400,21,,ISIC_2161864.JPG
break,html.Screen,4_70_1,2023-11-04T01:45:03.545Z,,0,,,NaN,,,,,,false,,,,5485403,5485403,,5485403,,5485427,8,400,,,
break_continue,html.Screen,4_70_2,2023-11-04T01:45:03.545Z,,0,,,NaN,,,,,,false,,,,5485404,5485404,,5485404,,5485427,8,400,,,
sequence,flow.Sequence,4_70,2023-11-04T01:45:03.545Z,,0,,,2616,completion,,,,,false,,,,5485404,5485404,5482771,5482766.000000001,5482788,5485427,8,400,,,
trial,html.Screen,4_71_0,2023-11-04T01:45:06.302Z,,0,2,,2748,response,ISIC_0028415.JPG,7,ISIC_0032079.JPG,ISIC_0028415.JPG,false,1,keypress(m),500,5488160,5488160,5485412,5485404,5485427,5488186,8,400,22,,ISIC_0032079.JPG
break,html.Screen,4_71_1,2023-11-04T01:45:06.303Z,,0,,,NaN,,,,,,false,,,,5488161,5488161,,5488161,,5488186,8,400,,,
break_continue,html.Screen,4_71_2,2023-11-04T01:45:06.303Z,,0,,,NaN,,,,,,false,,,,5488161,5488161,,5488161,,5488186,8,400,,,
sequence,flow.Sequence,4_71,2023-11-04T01:45:06.303Z,,0,,,2734,completion,,,,,false,,,,5488162,5488161,5485412,5485404,5485427,5488186,8,400,,,
trial,html.Screen,4_72_0,2023-11-04T01:45:08.877Z,,0,2,,2566,response,ISIC_7293697.JPG,7,ISIC_2970409.JPG,ISIC_7293697.JPG,false,1,keypress(m),500,5490736,5490735,5488169,5488162,5488186,5490759,8,400,23,,ISIC_2970409.JPG
break,html.Screen,4_72_1,2023-11-04T01:45:08.878Z,,0,,,NaN,,,,,,false,,,,5490736,5490736,,5490736,,5490759,8,400,,,
break_continue,html.Screen,4_72_2,2023-11-04T01:45:08.878Z,,0,,,NaN,,,,,,false,,,,5490737,5490737,,5490736,,5490759,8,400,,,
sequence,flow.Sequence,4_72,2023-11-04T01:45:08.878Z,,0,,,2551,completion,,,,,false,,,,5490737,5490737,5488169,5488162,5488186,5490759,8,400,,,
trial,html.Screen,4_73_0,2023-11-04T01:45:11.717Z,,0,2,,2833,response,ISIC_0011504.JPG,5,ISIC_0010242.JPG,ISIC_0011504.JPG,false,1,keypress(m),500,5493576,5493575,5490742,5490737,5490759,5493600,8,400,24,,ISIC_0010242.JPG
break,html.Screen,4_73_1,2023-11-04T01:45:11.718Z,,0,,,NaN,,,,,,false,,,,5493576,5493576,,5493576,,5493600,8,400,,,
break_continue,html.Screen,4_73_2,2023-11-04T01:45:11.719Z,,0,,,NaN,,,,,,false,,,,5493577,5493577,,5493577,,5493600,8,400,,,
sequence,flow.Sequence,4_73,2023-11-04T01:45:11.719Z,,0,,,2818,completion,,,,,false,,,,5493577,5493577,5490742,5490737,5490759,5493600,8,400,,,
trial,html.Screen,4_74_0,2023-11-04T01:45:14.466Z,,0,2,,2741.0000000009313,response,ISIC_0063070.JPG,6,ISIC_0261253.JPG,ISIC_0063070.JPG,false,1,keypress(m),500,5496324.000000001,5496324.000000001,5493583,5493577,5493600,5496357,8,400,25,,ISIC_0261253.JPG
break,html.Screen,4_74_1,2023-11-04T01:45:14.467Z,,0,,,NaN,,,,,,false,,,,5496325,5496325,,5496324.000000001,,5496357,8,400,,,
break_continue,html.Screen,4_74_2,2023-11-04T01:45:14.467Z,,0,,,NaN,,,,,,false,,,,5496325,5496325,,5496325,,5496357,8,400,,,
sequence,flow.Sequence,4_74,2023-11-04T01:45:14.467Z,,0,,,2725,completion,,,,,false,,,,5496326,5496325,5493583,5493577,5493600,5496357,8,400,,,
trial,html.Screen,4_75_0,2023-11-04T01:45:17.196Z,,0,2,,2714,response,ISIC_1806179.JPG,15,ISIC_5769654.JPG,ISIC_5769654.JPG,false,0,keypress(z),500,5499054,5499054,5496340,5496326,5496357,5499081,8,400,26,,ISIC_1806179.JPG
break,html.Screen,4_75_1,2023-11-04T01:45:17.196Z,,0,,,NaN,,,,,,false,,,,5499055,5499055,,5499054,,5499081,8,400,,,
break_continue,html.Screen,4_75_2,2023-11-04T01:45:17.197Z,,0,,,NaN,,,,,,false,,,,5499055,5499055,,5499055,,5499081,8,400,,,
sequence,flow.Sequence,4_75,2023-11-04T01:45:17.197Z,,0,,,2698,completion,,,,,false,,,,5499055,5499055,5496340,5496326,5496357,5499081,8,400,,,
trial,html.Screen,4_76_0,2023-11-04T01:45:20.573Z,,0,2,,3366.0000000009313,response,ISIC_0033560.JPG,10,ISIC_0032747.JPG,ISIC_0033560.JPG,false,1,keypress(m),500,5502431.000000001,5502431.000000001,5499065,5499055,5499081,5502456,8,400,27,,ISIC_0032747.JPG
break,html.Screen,4_76_1,2023-11-04T01:45:20.573Z,,0,,,NaN,,,,,,false,,,,5502432,5502432,,5502431.000000001,,5502456,8,400,,,
break_continue,html.Screen,4_76_2,2023-11-04T01:45:20.574Z,,0,,,NaN,,,,,,false,,,,5502432,5502432,,5502432,,5502456,8,400,,,
sequence,flow.Sequence,4_76,2023-11-04T01:45:20.574Z,,0,,,3351,completion,,,,,false,,,,5502432,5502432,5499065,5499055,5499081,5502456,8,400,,,
trial,html.Screen,4_77_0,2023-11-04T01:45:23.100Z,,0,2,,2517.0000000009313,response,ISIC_0031746.JPG,8,ISIC_0031203.JPG,ISIC_0031203.JPG,false,0,keypress(z),500,5504958.000000001,5504958.000000001,5502441,5502432,5502456,5504980,8,400,28,,ISIC_0031746.JPG
break,html.Screen,4_77_1,2023-11-04T01:45:23.100Z,,0,,,NaN,,,,,,false,,,,5504958.000000001,5504958.000000001,,5504958.000000001,,5504980,8,400,,,
break_continue,html.Screen,4_77_2,2023-11-04T01:45:23.101Z,,0,,,NaN,,,,,,false,,,,5504959,5504959,,5504959,,5504980,8,400,,,
sequence,flow.Sequence,4_77,2023-11-04T01:45:23.101Z,,0,,,2503,completion,,,,,false,,,,5504959,5504959,5502441,5502432,5502456,5504980,8,400,,,
trial,html.Screen,4_78_0,2023-11-04T01:45:26.379Z,,0,2,,3273,response,ISIC_4870676.JPG,5,ISIC_0056796.JPG,ISIC_4870676.JPG,false,1,keypress(m),500,5508237,5508237,5504964,5504959,5504980,5508272,8,400,29,,ISIC_0056796.JPG
break,html.Screen,4_78_1,2023-11-04T01:45:26.379Z,,0,,,NaN,,,,,,false,,,,5508238,5508238,,5508237,,5508272,8,400,,,
break_continue,html.Screen,4_78_2,2023-11-04T01:45:26.380Z,,0,,,NaN,,,,,,false,,,,5508238,5508238,,5508238,,5508272,8,400,,,
sequence,flow.Sequence,4_78,2023-11-04T01:45:26.380Z,,0,,,3258,completion,,,,,false,,,,5508238,5508238,5504964,5504959,5504980,5508272,8,400,,,
trial,html.Screen,4_79_0,2023-11-04T01:45:29.431Z,,0,2,,3032,response,ISIC_0029328.JPG,1,ISIC_4393704.JPG,ISIC_0029328.JPG,false,1,keypress(m),500,5511289,5511288,5508256,5508238,5508272,5511314,8,400,30,,ISIC_4393704.JPG
break,html.Screen,4_79_1,2023-11-04T01:45:29.431Z,,0,,,NaN,,,,,,false,,,,5511289,5511289,,5511289,,5511314,8,400,,,
break_continue,html.Screen,4_79_2,2023-11-04T01:45:29.432Z,,0,,,NaN,,,,,,false,,,,5511290,5511290,,5511290,,5511314,8,400,,,
sequence,flow.Sequence,4_79,2023-11-04T01:45:29.432Z,,0,,,3018,completion,,,,,false,,,,5511290,5511290,5508256,5508238,5508272,5511314,8,400,,,
trial,html.Screen,4_80_0,2023-11-04T01:45:32.135Z,,0,2,,2696,response,ISIC_6916213.JPG,7,ISIC_0055474.JPG,ISIC_0055474.JPG,false,0,keypress(z),500,5513993,5513993,5511297,5511290,5511314,5514021,8,400,31,,ISIC_6916213.JPG
break,html.Screen,4_80_1,2023-11-04T01:45:32.136Z,,0,,,NaN,,,,,,false,,,,5513994,5513994,,5513994,,5514021,8,400,,,
break_continue,html.Screen,4_80_2,2023-11-04T01:45:32.136Z,,0,,,NaN,,,,,,false,,,,5513994,5513994,,5513994,,5514021,8,400,,,
sequence,flow.Sequence,4_80,2023-11-04T01:45:32.136Z,,0,,,2680,completion,,,,,false,,,,5513994,5513994,5511297,5511290,5511314,5514021,8,400,,,
trial,html.Screen,4_81_0,2023-11-04T01:45:35.071Z,,0,2,,2925,response,ISIC_9837030.JPG,10,ISIC_0073075.JPG,ISIC_0073075.JPG,false,0,keypress(z),500,5516929,5516929,5514004,5513995,5514021,5516962,8,400,32,,ISIC_9837030.JPG
break,html.Screen,4_81_1,2023-11-04T01:45:35.072Z,,0,,,NaN,,,,,,false,,,,5516930,5516929,,5516929,,5516962,8,400,,,
break_continue,html.Screen,4_81_2,2023-11-04T01:45:35.072Z,,0,,,NaN,,,,,,false,,,,5516930,5516930,,5516930,,5516962,8,400,,,
sequence,flow.Sequence,4_81,2023-11-04T01:45:35.072Z,,0,,,2909,completion,,,,,false,,,,5516930,5516930,5514004,5513995,5514021,5516962,8,400,,,
trial,html.Screen,4_82_0,2023-11-04T01:45:38.059Z,,0,2,,2971,response,ISIC_0055287.JPG,15,ISIC_0034304.JPG,ISIC_0034304.JPG,false,0,keypress(z),500,5519917,5519916,5516945,5516930,5516962,5519954,8,400,33,,ISIC_0055287.JPG
break,html.Screen,4_82_1,2023-11-04T01:45:38.059Z,,0,,,NaN,,,,,,false,,,,5519917,5519917,,5519917,,5519954,8,400,,,
break_continue,html.Screen,4_82_2,2023-11-04T01:45:38.060Z,,0,,,NaN,,,,,,false,,,,5519918,5519917,,5519917,,5519954,8,400,,,
sequence,flow.Sequence,4_82,2023-11-04T01:45:38.060Z,,0,,,2955,completion,,,,,false,,,,5519918,5519917,5516945,5516930,5516962,5519954,8,400,,,
trial,html.Screen,4_83_0,2023-11-04T01:45:41.368Z,,0,2,,3290.0000000009313,response,ISIC_4926448.JPG,3,ISIC_6446753.JPG,ISIC_4926448.JPG,false,1,keypress(m),500,5523226.000000001,5523226.000000001,5519936,5519918,5519954,5523262,8,400,34,,ISIC_6446753.JPG
break,html.Screen,4_83_1,2023-11-04T01:45:41.369Z,,0,,,NaN,,,,,,false,,,,5523227,5523227,,5523226.000000001,,5523262,8,400,,,
break_continue,html.Screen,4_83_2,2023-11-04T01:45:41.369Z,,0,,,NaN,,,,,,false,,,,5523227,5523227,,5523227,,5523262,8,400,,,
sequence,flow.Sequence,4_83,2023-11-04T01:45:41.369Z,,0,,,3273,completion,,,,,false,,,,5523227,5523227,5519936,5519918,5519954,5523262,8,400,,,
trial,html.Screen,4_84_0,2023-11-04T01:45:44.126Z,,0,2,,2738,response,ISIC_0032121.JPG,2,ISIC_0064023.JPG,ISIC_0064023.JPG,false,0,keypress(z),500,5525984,5525983,5523245,5523227,5523262,5526019,8,400,35,,ISIC_0032121.JPG
break,html.Screen,4_84_1,2023-11-04T01:45:44.126Z,,0,,,NaN,,,,,,false,,,,5525984,5525984,,5525984,,5526019,8,400,,,
break_continue,html.Screen,4_84_2,2023-11-04T01:45:44.126Z,,0,,,NaN,,,,,,false,,,,5525984,5525984,,5525984,,5526019,8,400,,,
sequence,flow.Sequence,4_84,2023-11-04T01:45:44.127Z,,0,,,2722,completion,,,,,false,,,,5525984,5525984,5523245,5523227,5523262,5526019,8,400,,,
trial,html.Screen,4_85_0,2023-11-04T01:45:46.963Z,,0,2,,2818,response,ISIC_0057395.JPG,2,ISIC_0000279.JPG,ISIC_0000279.JPG,false,0,keypress(z),500,5528821,5528821,5526003,5525985,5526019,5528843,8,400,36,,ISIC_0057395.JPG
break,html.Screen,4_85_1,2023-11-04T01:45:46.964Z,,0,,,NaN,,,,,,false,,,,5528821,5528821,,5528821,,5528843,8,400,,,
break_continue,html.Screen,4_85_2,2023-11-04T01:45:46.964Z,,0,,,NaN,,,,,,false,,,,5528822,5528822,,5528822,,5528843,8,400,,,
sequence,flow.Sequence,4_85,2023-11-04T01:45:46.964Z,,0,,,2803,completion,,,,,false,,,,5528822,5528822,5526003,5525985,5526019,5528843,8,400,,,
trial,html.Screen,4_86_0,2023-11-04T01:45:50.727Z,,0,2,,3757,response,ISIC_0014974.JPG,5,ISIC_0062546.JPG,ISIC_0014974.JPG,false,1,keypress(m),500,5532585,5532584,5528827,5528822,5528843,5532621,8,400,37,,ISIC_0062546.JPG
break,html.Screen,4_86_1,2023-11-04T01:45:50.727Z,,0,,,NaN,,,,,,false,,,,5532585,5532585,,5532585,,5532621,8,400,,,
break_continue,html.Screen,4_86_2,2023-11-04T01:45:50.728Z,,0,,,NaN,,,,,,false,,,,5532586,5532585,,5532585,,5532621,8,400,,,
sequence,flow.Sequence,4_86,2023-11-04T01:45:50.728Z,,0,,,3742,completion,,,,,false,,,,5532586,5532585,5528827,5528822,5528843,5532621,8,400,,,
trial,html.Screen,4_87_0,2023-11-04T01:45:53.250Z,,0,2,,2503,response,ISIC_2259861.JPG,1,ISIC_6125652.JPG,ISIC_6125652.JPG,false,0,keypress(z),500,5535108,5535108,5532605,5532586,5532621,5535144,8,400,38,,ISIC_2259861.JPG
break,html.Screen,4_87_1,2023-11-04T01:45:53.251Z,,0,,,NaN,,,,,,false,,,,5535109,5535109,,5535108,,5535144,8,400,,,
break_continue,html.Screen,4_87_2,2023-11-04T01:45:53.251Z,,0,,,NaN,,,,,,false,,,,5535109,5535109,,5535109,,5535144,8,400,,,
sequence,flow.Sequence,4_87,2023-11-04T01:45:53.251Z,,0,,,2488,completion,,,,,false,,,,5535109,5535109,5532605,5532586,5532621,5535144,8,400,,,
trial,html.Screen,4_88_0,2023-11-04T01:45:55.804Z,,0,2,,2535,response,ISIC_0062161.JPG,2,ISIC_0013861.JPG,ISIC_0062161.JPG,false,1,keypress(m),500,5537662,5537662,5535127,5535109,5535144,5537684,8,400,39,,ISIC_0013861.JPG
break,html.Screen,4_88_1,2023-11-04T01:45:55.805Z,,0,,,NaN,,,,,,false,,,,5537662,5537662,,5537662,,5537684,8,400,,,
break_continue,html.Screen,4_88_2,2023-11-04T01:45:55.805Z,,0,,,NaN,,,,,,false,,,,5537663,5537663,,5537662,,5537684,8,400,,,
sequence,flow.Sequence,4_88,2023-11-04T01:45:55.805Z,,0,,,2519,completion,,,,,false,,,,5537663,5537663,5535127,5535109,5535144,5537684,8,400,,,
trial,html.Screen,4_89_0,2023-11-04T01:45:58.244Z,,0,2,,2433.0000000009313,response,ISIC_0054770.JPG,5,ISIC_0010227.JPG,ISIC_0054770.JPG,false,1,keypress(m),500,5540101.000000001,5540101.000000001,5537668,5537663,5537684,5540124,8,400,40,,ISIC_0010227.JPG
break,html.Screen,4_89_1,2023-11-04T01:45:58.244Z,,0,,,NaN,,,,,,false,,,,5540102,5540102,,5540102,,5540124,8,400,,,
break_continue,html.Screen,4_89_2,2023-11-04T01:45:58.245Z,,0,,,NaN,,,,,,false,,,,5540102,5540102,,5540102,,5540124,8,400,,,
sequence,flow.Sequence,4_89,2023-11-04T01:45:58.245Z,,0,,,2418,completion,,,,,false,,,,5540102,5540102,5537668,5537663,5537684,5540124,8,400,,,
trial,html.Screen,4_90_0,2023-11-04T01:46:01.012Z,,0,2,,2763,response,ISIC_0046659.JPG,5,ISIC_0029723.JPG,ISIC_0046659.JPG,false,1,keypress(m),500,5542870,5542870,5540107,5540102,5540124,5542898,8,400,41,,ISIC_0029723.JPG
break,html.Screen,4_90_1,2023-11-04T01:46:01.013Z,,0,,,NaN,,,,,,false,,,,5542870,5542870,,5542870,,5542898,8,400,,,
break_continue,html.Screen,4_90_2,2023-11-04T01:46:01.013Z,,0,,,NaN,,,,,,false,,,,5542871,5542871,,5542870,,5542898,8,400,,,
sequence,flow.Sequence,4_90,2023-11-04T01:46:01.013Z,,0,,,2747,completion,,,,,false,,,,5542871,5542871,5540107,5540102,5540124,5542898,8,400,,,
trial,html.Screen,4_91_0,2023-11-04T01:46:03.840Z,,0,2,,2815,response,ISIC_0063617.JPG,12,ISIC_4013189.JPG,ISIC_0063617.JPG,false,1,keypress(m),500,5545697,5545697,5542882,5542871,5542898,5545723,8,400,42,,ISIC_4013189.JPG
break,html.Screen,4_91_1,2023-11-04T01:46:03.840Z,,0,,,NaN,,,,,,false,,,,5545698,5545698,,5545697,,5545723,8,400,,,
break_continue,html.Screen,4_91_2,2023-11-04T01:46:03.841Z,,0,,,NaN,,,,,,false,,,,5545698,5545698,,5545698,,5545723,8,400,,,
sequence,flow.Sequence,4_91,2023-11-04T01:46:03.841Z,,0,,,2800,completion,,,,,false,,,,5545698,5545698,5542882,5542871,5542898,5545723,8,400,,,
trial,html.Screen,4_92_0,2023-11-04T01:46:06.344Z,,0,2,,2496,response,ISIC_0054954.JPG,8,ISIC_3274493.JPG,ISIC_0054954.JPG,false,1,keypress(m),500,5548202,5548202,5545706,5545698,5545723,5548228,8,400,43,,ISIC_3274493.JPG
break,html.Screen,4_92_1,2023-11-04T01:46:06.345Z,,0,,,NaN,,,,,,false,,,,5548203,5548202,,5548202,,5548228,8,400,,,
break_continue,html.Screen,4_92_2,2023-11-04T01:46:06.345Z,,0,,,NaN,,,,,,false,,,,5548203,5548203,,5548203,,5548228,8,400,,,
sequence,flow.Sequence,4_92,2023-11-04T01:46:06.345Z,,0,,,2480,completion,,,,,false,,,,5548203,5548203,5545706,5545698,5545723,5548228,8,400,,,
trial,html.Screen,4_93_0,2023-11-04T01:46:08.905Z,,0,2,,2549,response,ISIC_0056309.JPG,10,ISIC_7282415.JPG,ISIC_0056309.JPG,false,1,keypress(m),500,5550762,5550762,5548213,5548203,5548228,5550786,8,400,44,,ISIC_7282415.JPG
break,html.Screen,4_93_1,2023-11-04T01:46:08.905Z,,0,,,NaN,,,,,,false,,,,5550763,5550763,,5550762,,5550786,8,400,,,
break_continue,html.Screen,4_93_2,2023-11-04T01:46:08.906Z,,0,,,NaN,,,,,,false,,,,5550763,5550763,,5550763,,5550786,8,400,,,
sequence,flow.Sequence,4_93,2023-11-04T01:46:08.906Z,,0,,,2535,completion,,,,,false,,,,5550763,5550763,5548213,5548203,5548228,5550786,8,400,,,
trial,html.Screen,4_94_0,2023-11-04T01:46:11.337Z,,0,2,,2425,response,ISIC_0010995.JPG,6,ISIC_6988514.JPG,ISIC_6988514.JPG,false,0,keypress(z),500,5553194,5553194,5550769,5550763,5550786,5553225,8,400,45,,ISIC_0010995.JPG
break,html.Screen,4_94_1,2023-11-04T01:46:11.337Z,,0,,,NaN,,,,,,false,,,,5553195,5553195,,5553195,,5553225,8,400,,,
break_continue,html.Screen,4_94_2,2023-11-04T01:46:11.338Z,,0,,,NaN,,,,,,false,,,,5553195,5553195,,5553195,,5553225,8,400,,,
sequence,flow.Sequence,4_94,2023-11-04T01:46:11.338Z,,0,,,2409,completion,,,,,false,,,,5553195,5553195,5550769,5550763,5550786,5553225,8,400,,,
trial,html.Screen,4_95_0,2023-11-04T01:46:14.244Z,,0,2,,2892.0000000009313,response,ISIC_0067274.JPG,14,ISIC_5994286.JPG,ISIC_5994286.JPG,false,0,keypress(z),500,5556101.000000001,5556101.000000001,5553209,5553195,5553225,5556134,8,400,46,,ISIC_0067274.JPG
break,html.Screen,4_95_1,2023-11-04T01:46:14.245Z,,0,,,NaN,,,,,,false,,,,5556102,5556102,,5556102,,5556134,8,400,,,
break_continue,html.Screen,4_95_2,2023-11-04T01:46:14.245Z,,0,,,NaN,,,,,,false,,,,5556103,5556102,,5556102,,5556134,8,400,,,
sequence,flow.Sequence,4_95,2023-11-04T01:46:14.245Z,,0,,,2877,completion,,,,,false,,,,5556103,5556102,5553209,5553195,5553225,5556134,8,400,,,
trial,html.Screen,4_96_0,2023-11-04T01:46:17.471Z,,0,2,,3212,response,ISIC_0056201.JPG,14,ISIC_9458746.JPG,ISIC_9458746.JPG,false,0,keypress(z),500,5559329,5559329,5556117,5556103,5556134,5559359,8,400,47,,ISIC_0056201.JPG
break,html.Screen,4_96_1,2023-11-04T01:46:17.472Z,,0,,,NaN,,,,,,false,,,,5559329,5559329,,5559329,,5559359,8,400,,,
break_continue,html.Screen,4_96_2,2023-11-04T01:46:17.472Z,,0,,,NaN,,,,,,false,,,,5559330,5559330,,5559329,,5559359,8,400,,,
sequence,flow.Sequence,4_96,2023-11-04T01:46:17.472Z,,0,,,3196,completion,,,,,false,,,,5559330,5559330,5556117,5556103,5556134,5559359,8,400,,,
trial,html.Screen,4_97_0,2023-11-04T01:46:20.120Z,,0,2,,2635,response,ISIC_0046670.JPG,12,ISIC_0012222.JPG,ISIC_0046670.JPG,false,1,keypress(m),500,5561977,5561977,5559342,5559330,5559359,5561998,8,400,48,,ISIC_0012222.JPG
break,html.Screen,4_97_1,2023-11-04T01:46:20.120Z,,0,,,NaN,,,,,,false,,,,5561978,5561978,,5561977,,5561998,8,400,,,
break_continue,html.Screen,4_97_2,2023-11-04T01:46:20.121Z,,0,,,NaN,,,,,,false,,,,5561978,5561978,,5561978,,5561998,8,400,,,
sequence,flow.Sequence,4_97,2023-11-04T01:46:20.121Z,,0,,,2619,completion,,,,,false,,,,5561978,5561978,5559342,5559330,5559359,5561998,8,400,,,
trial,html.Screen,4_98_0,2023-11-04T01:46:23.530Z,,0,2,,3406,response,ISIC_0054134.JPG,5,ISIC_2808622.JPG,ISIC_2808622.JPG,false,0,keypress(z),500,5565388,5565388,5561982,5561978,5561998,5565425,8,400,49,,ISIC_0054134.JPG
break,html.Screen,4_98_1,2023-11-04T01:46:23.531Z,,0,,,NaN,,,,,,false,,,,5565388,5565388,,5565388,,5565425,8,400,,,
break_continue,html.Screen,4_98_2,2023-11-04T01:46:23.531Z,,0,,,NaN,,,,,,false,,,,5565389,5565388,,5565388,,5565425,8,400,,,
sequence,flow.Sequence,4_98,2023-11-04T01:46:23.531Z,,0,,,3390,completion,,,,,false,,,,5565389,5565388,5561982,5561978,5561998,5565425,8,400,,,
trial,html.Screen,4_99_0,2023-11-04T01:46:26.191Z,,0,2,,2640,response,ISIC_0014049.JPG,3,ISIC_0062546.JPG,ISIC_0062546.JPG,false,0,keypress(z),500,5568048,5568048,5565408,5565389,5565425,5568081,8,400,50,,ISIC_0014049.JPG
break,html.Screen,4_99_1,2023-11-04T01:46:36.202Z,,0,,,9995,timeout,,,,,false,,,,5578059,5578058,5568066,5568048,5568081,5578076,8,400,,,
break_continue,html.Screen,4_99_2,2023-11-04T01:46:36.989Z,,0,,,776,response,,,,,false,continue,keypress(Space),,5578846,5578834,5578058,5578059,5578076,5578878,8,400,,,
sequence,flow.Sequence,4_99,2023-11-04T01:46:36.989Z,,0,,,13409,completion,,,,,false,,,,5578846,5578834,5565408,5565389,5565425,5578878,8,400,,,
trial,html.Screen,4_100_0,2023-11-04T01:46:41.172Z,,0,3,,4168,response,ISIC_6003500.JPG,15,ISIC_3286956.JPG,ISIC_3286956.JPG,false,0,keypress(z),500,5583029,5583029,5578861,5578846,5578878,5583055,8,400,1,,ISIC_6003500.JPG
break,html.Screen,4_100_1,2023-11-04T01:46:41.173Z,,0,,,NaN,,,,,,false,,,,5583030,5583030,,5583029,,5583055,8,400,,,
break_continue,html.Screen,4_100_2,2023-11-04T01:46:41.173Z,,0,,,NaN,,,,,,false,,,,5583030,5583030,,5583030,,5583055,8,400,,,
sequence,flow.Sequence,4_100,2023-11-04T01:46:41.173Z,,0,,,4152,completion,,,,,false,,,,5583030,5583030,5578861,5578846,5578878,5583055,8,400,,,
trial,html.Screen,4_101_0,2023-11-04T01:46:44.339Z,,0,3,,3157,response,ISIC_3300710.JPG,8,ISIC_4434803.JPG,ISIC_3300710.JPG,false,1,keypress(m),500,5586196,5586196,5583039,5583030,5583055,5586231,8,400,2,,ISIC_4434803.JPG
break,html.Screen,4_101_1,2023-11-04T01:46:44.339Z,,0,,,NaN,,,,,,false,,,,5586196,5586196,,5586196,,5586231,8,400,,,
break_continue,html.Screen,4_101_2,2023-11-04T01:46:44.340Z,,0,,,NaN,,,,,,false,,,,5586197,5586196,,5586196,,5586231,8,400,,,
sequence,flow.Sequence,4_101,2023-11-04T01:46:44.340Z,,0,,,3141,completion,,,,,false,,,,5586197,5586196,5583039,5583030,5583055,5586231,8,400,,,
trial,html.Screen,4_102_0,2023-11-04T01:46:47.558Z,,0,3,,3200,response,ISIC_0046635.JPG,1,ISIC_6002694.JPG,ISIC_0046635.JPG,false,1,keypress(m),500,5589415,5589414,5586214,5586197,5586231,5589439,8,400,3,,ISIC_6002694.JPG
break,html.Screen,4_102_1,2023-11-04T01:46:47.558Z,,0,,,NaN,,,,,,false,,,,5589415,5589415,,5589415,,5589439,8,400,,,
break_continue,html.Screen,4_102_2,2023-11-04T01:46:47.558Z,,0,,,NaN,,,,,,false,,,,5589415,5589415,,5589415,,5589439,8,400,,,
sequence,flow.Sequence,4_102,2023-11-04T01:46:47.559Z,,0,,,3184,completion,,,,,false,,,,5589415,5589415,5586214,5586197,5586231,5589439,8,400,,,
trial,html.Screen,4_103_0,2023-11-04T01:46:50.471Z,,0,3,,2905,response,ISIC_2383335.JPG,7,ISIC_0030122.JPG,ISIC_0030122.JPG,false,0,keypress(z),500,5592328,5592328,5589423,5589416,5589439,5592364,8,400,4,,ISIC_2383335.JPG
break,html.Screen,4_103_1,2023-11-04T01:46:50.472Z,,0,,,NaN,,,,,,false,,,,5592329,5592329,,5592328,,5592364,8,400,,,
break_continue,html.Screen,4_103_2,2023-11-04T01:46:50.472Z,,0,,,NaN,,,,,,false,,,,5592329,5592329,,5592329,,5592364,8,400,,,
sequence,flow.Sequence,4_103,2023-11-04T01:46:50.472Z,,0,,,2890,completion,,,,,false,,,,5592329,5592329,5589423,5589416,5589439,5592364,8,400,,,
trial,html.Screen,4_104_0,2023-11-04T01:46:53.081Z,,0,3,,2591,response,ISIC_0033879.JPG,17,ISIC_0010433.JPG,ISIC_0033879.JPG,false,1,keypress(m),500,5594938,5594938,5592347,5592329,5592364,5594970,8,400,5,,ISIC_0010433.JPG
break,html.Screen,4_104_1,2023-11-04T01:46:53.082Z,,0,,,NaN,,,,,,false,,,,5594939,5594939,,5594938,,5594970,8,400,,,
break_continue,html.Screen,4_104_2,2023-11-04T01:46:53.082Z,,0,,,NaN,,,,,,false,,,,5594939,5594939,,5594939,,5594970,8,400,,,
sequence,flow.Sequence,4_104,2023-11-04T01:46:53.082Z,,0,,,2575,completion,,,,,false,,,,5594939,5594939,5592347,5592329,5592364,5594970,8,400,,,
trial,html.Screen,4_105_0,2023-11-04T01:46:55.935Z,,0,3,,2837,response,ISIC_9828853.JPG,15,ISIC_0000401.JPG,ISIC_9828853.JPG,false,1,keypress(m),500,5597792,5597791,5594954,5594939,5594970,5597828,8,400,6,,ISIC_0000401.JPG
break,html.Screen,4_105_1,2023-11-04T01:46:55.935Z,,0,,,NaN,,,,,,false,,,,5597792,5597792,,5597792,,5597828,8,400,,,
break_continue,html.Screen,4_105_2,2023-11-04T01:46:55.936Z,,0,,,NaN,,,,,,false,,,,5597792,5597792,,5597792,,5597828,8,400,,,
sequence,flow.Sequence,4_105,2023-11-04T01:46:55.936Z,,0,,,2822,completion,,,,,false,,,,5597793,5597792,5594954,5594939,5594970,5597828,8,400,,,
trial,html.Screen,4_106_0,2023-11-04T01:46:58.805Z,,0,3,,2850,response,ISIC_6691962.JPG,3,ISIC_0005319.JPG,ISIC_6691962.JPG,false,1,keypress(m),500,5600662,5600661,5597811,5597793,5597828,5600685,8,400,7,,ISIC_0005319.JPG
break,html.Screen,4_106_1,2023-11-04T01:46:58.805Z,,0,,,NaN,,,,,,false,,,,5600662,5600662,,5600662,,5600685,8,400,,,
break_continue,html.Screen,4_106_2,2023-11-04T01:46:58.806Z,,0,,,NaN,,,,,,false,,,,5600662,5600662,,5600662,,5600685,8,400,,,
sequence,flow.Sequence,4_106,2023-11-04T01:46:58.806Z,,0,,,2834,completion,,,,,false,,,,5600662,5600662,5597811,5597793,5597828,5600685,8,400,,,
trial,html.Screen,4_107_0,2023-11-04T01:47:01.369Z,,0,3,,2557.0000000009313,response,ISIC_0806138.JPG,7,ISIC_0001596.JPG,ISIC_0806138.JPG,false,1,keypress(m),500,5603226.000000001,5603226.000000001,5600669,5600663,5600685,5603259,8,400,8,,ISIC_0001596.JPG
break,html.Screen,4_107_1,2023-11-04T01:47:01.370Z,,0,,,NaN,,,,,,false,,,,5603226.000000001,5603226.000000001,,5603226.000000001,,5603259,8,400,,,
break_continue,html.Screen,4_107_2,2023-11-04T01:47:01.370Z,,0,,,NaN,,,,,,false,,,,5603227,5603227,,5603226.000000001,,5603259,8,400,,,
sequence,flow.Sequence,4_107,2023-11-04T01:47:01.370Z,,0,,,2542,completion,,,,,false,,,,5603227,5603227,5600669,5600662,5600685,5603259,8,400,,,
trial,html.Screen,4_108_0,2023-11-04T01:47:03.993Z,,0,3,,2607,response,ISIC_0057696.JPG,16,ISIC_1132966.JPG,ISIC_0057696.JPG,false,1,keypress(m),500,5605849,5605849,5603242,5603227,5603259,5605883,8,400,9,,ISIC_1132966.JPG
break,html.Screen,4_108_1,2023-11-04T01:47:03.993Z,,0,,,NaN,,,,,,false,,,,5605850,5605850,,5605850,,5605883,8,400,,,
break_continue,html.Screen,4_108_2,2023-11-04T01:47:03.994Z,,0,,,NaN,,,,,,false,,,,5605850,5605850,,5605850,,5605883,8,400,,,
sequence,flow.Sequence,4_108,2023-11-04T01:47:03.994Z,,0,,,2591,completion,,,,,false,,,,5605850,5605850,5603242,5603227,5603259,5605883,8,400,,,
trial,html.Screen,4_109_0,2023-11-04T01:47:06.537Z,,0,3,,2528,response,ISIC_0025724.JPG,0,ISIC_9223679.JPG,ISIC_0025724.JPG,false,1,keypress(m),500,5608394,5608394,5605866,5605851.000000001,5605883,5608423,8,400,10,,ISIC_9223679.JPG
break,html.Screen,4_109_1,2023-11-04T01:47:06.538Z,,0,,,NaN,,,,,,false,,,,5608395,5608394,,5608394,,5608423,8,400,,,
break_continue,html.Screen,4_109_2,2023-11-04T01:47:06.538Z,,0,,,NaN,,,,,,false,,,,5608395,5608395,,5608395,,5608423,8,400,,,
sequence,flow.Sequence,4_109,2023-11-04T01:47:06.538Z,,0,,,2512,completion,,,,,false,,,,5608395,5608395,5605866,5605850,5605883,5608423,8,400,,,
trial,html.Screen,4_110_0,2023-11-04T01:47:09.417Z,,0,3,,2866,response,ISIC_1859923.JPG,12,ISIC_0054292.JPG,ISIC_0054292.JPG,false,0,keypress(z),500,5611273,5611273,5608407,5608395,5608423,5611297,8,400,11,,ISIC_1859923.JPG
break,html.Screen,4_110_1,2023-11-04T01:47:09.417Z,,0,,,NaN,,,,,,false,,,,5611274,5611274,,5611274,,5611297,8,400,,,
break_continue,html.Screen,4_110_2,2023-11-04T01:47:09.418Z,,0,,,NaN,,,,,,false,,,,5611274,5611274,,5611274,,5611297,8,400,,,
sequence,flow.Sequence,4_110,2023-11-04T01:47:09.418Z,,0,,,2851,completion,,,,,false,,,,5611274,5611274,5608407,5608395,5608423,5611297,8,400,,,
trial,html.Screen,4_111_0,2023-11-04T01:47:12.107Z,,0,3,,2683,response,ISIC_0031621.JPG,6,ISIC_0058255.JPG,ISIC_0031621.JPG,false,1,keypress(m),500,5613964,5613964,5611281,5611275.000000001,5611297,5613988,8,400,12,,ISIC_0058255.JPG
break,html.Screen,4_111_1,2023-11-04T01:47:12.108Z,,0,,,NaN,,,,,,false,,,,5613964,5613964,,5613964,,5613988,8,400,,,
break_continue,html.Screen,4_111_2,2023-11-04T01:47:12.108Z,,0,,,NaN,,,,,,false,,,,5613965,5613965,,5613964,,5613988,8,400,,,
sequence,flow.Sequence,4_111,2023-11-04T01:47:12.108Z,,0,,,2668,completion,,,,,false,,,,5613965,5613965,5611281,5611275.000000001,5611297,5613988,8,400,,,
trial,html.Screen,4_112_0,2023-11-04T01:47:14.635Z,,0,3,,2521,response,ISIC_3576000.JPG,7,ISIC_0027749.JPG,ISIC_0027749.JPG,false,0,keypress(z),500,5616492,5616492,5613971,5613965,5613988,5616528,8,400,13,,ISIC_3576000.JPG
break,html.Screen,4_112_1,2023-11-04T01:47:14.636Z,,0,,,NaN,,,,,,false,,,,5616492,5616492,,5616492,,5616528,8,400,,,
break_continue,html.Screen,4_112_2,2023-11-04T01:47:14.636Z,,0,,,NaN,,,,,,false,,,,5616493,5616493,,5616493,,5616528,8,400,,,
sequence,flow.Sequence,4_112,2023-11-04T01:47:14.636Z,,0,,,2505,completion,,,,,false,,,,5616493,5616493,5613971,5613965,5613988,5616528,8,400,,,
trial,html.Screen,4_113_0,2023-11-04T01:47:17.333Z,,0,3,,2678,response,ISIC_1654318.JPG,2,ISIC_4533833.JPG,ISIC_4533833.JPG,false,0,keypress(z),500,5619190.000000001,5619189,5616511,5616493,5616528,5619218,8,400,14,,ISIC_1654318.JPG
break,html.Screen,4_113_1,2023-11-04T01:47:17.334Z,,0,,,NaN,,,,,,false,,,,5619190.000000001,5619190.000000001,,5619190.000000001,,5619218,8,400,,,
break_continue,html.Screen,4_113_2,2023-11-04T01:47:17.334Z,,0,,,NaN,,,,,,false,,,,5619190.000000001,5619190.000000001,,5619190.000000001,,5619218,8,400,,,
sequence,flow.Sequence,4_113,2023-11-04T01:47:17.334Z,,0,,,2662.0000000009313,completion,,,,,false,,,,5619191,5619190.000000001,5616511,5616493,5616528,5619218,8,400,,,
trial,html.Screen,4_114_0,2023-11-04T01:47:20.350Z,,0,3,,3004,response,ISIC_3281565.JPG,11,ISIC_0028698.JPG,ISIC_3281565.JPG,false,1,keypress(m),500,5622206,5622206,5619202,5619191,5619218,5622244,8,400,15,,ISIC_0028698.JPG
break,html.Screen,4_114_1,2023-11-04T01:47:20.351Z,,0,,,NaN,,,,,,false,,,,5622207,5622207,,5622206,,5622244,8,400,,,
break_continue,html.Screen,4_114_2,2023-11-04T01:47:20.351Z,,0,,,NaN,,,,,,false,,,,5622207,5622207,,5622207,,5622244,8,400,,,
sequence,flow.Sequence,4_114,2023-11-04T01:47:20.351Z,,0,,,2989,completion,,,,,false,,,,5622207,5622207,5619202,5619191,5619218,5622244,8,400,,,
trial,html.Screen,4_115_0,2023-11-04T01:47:22.940Z,,0,3,,2570,response,ISIC_0033089.JPG,3,ISIC_2142639.JPG,ISIC_0033089.JPG,false,1,keypress(m),500,5624796,5624796,5622226,5622207,5622244,5624834,8,400,16,,ISIC_2142639.JPG
break,html.Screen,4_115_1,2023-11-04T01:47:22.940Z,,0,,,NaN,,,,,,false,,,,5624797.000000001,5624797.000000001,,5624796,,5624834,8,400,,,
break_continue,html.Screen,4_115_2,2023-11-04T01:47:22.941Z,,0,,,NaN,,,,,,false,,,,5624797.000000001,5624797.000000001,,5624797.000000001,,5624834,8,400,,,
sequence,flow.Sequence,4_115,2023-11-04T01:47:22.941Z,,0,,,2553.0000000009313,completion,,,,,false,,,,5624797.000000001,5624797.000000001,5622226,5622207,5622244,5624834,8,400,,,
trial,html.Screen,4_116_0,2023-11-04T01:47:27.045Z,,0,3,,4085,response,ISIC_7022381.JPG,4,ISIC_0024221.JPG,ISIC_7022381.JPG,false,1,keypress(m),500,5628902,5628901,5624816,5624797.000000001,5624834,5628928,8,400,17,,ISIC_0024221.JPG
break,html.Screen,4_116_1,2023-11-04T01:47:27.046Z,,0,,,NaN,,,,,,false,,,,5628902,5628902,,5628902,,5628928,8,400,,,
break_continue,html.Screen,4_116_2,2023-11-04T01:47:27.046Z,,0,,,NaN,,,,,,false,,,,5628902,5628902,,5628902,,5628928,8,400,,,
sequence,flow.Sequence,4_116,2023-11-04T01:47:27.046Z,,0,,,4068,completion,,,,,false,,,,5628902,5628902,5624816,5624797.000000001,5624834,5628928,8,400,,,
trial,html.Screen,4_117_0,2023-11-04T01:47:29.649Z,,0,3,,2593,response,ISIC_6678508.JPG,9,ISIC_8224270.JPG,ISIC_8224270.JPG,false,0,keypress(z),500,5631506,5631505,5628912,5628903,5628928,5631535,8,400,18,,ISIC_6678508.JPG
break,html.Screen,4_117_1,2023-11-04T01:47:29.650Z,,0,,,NaN,,,,,,false,,,,5631506,5631506,,5631506,,5631535,8,400,,,
break_continue,html.Screen,4_117_2,2023-11-04T01:47:29.650Z,,0,,,NaN,,,,,,false,,,,5631507.000000001,5631507.000000001,,5631507.000000001,,5631535,8,400,,,
sequence,flow.Sequence,4_117,2023-11-04T01:47:29.651Z,,0,,,2579.0000000009313,completion,,,,,false,,,,5631507.000000001,5631507.000000001,5628912,5628903,5628928,5631535,8,400,,,
trial,html.Screen,4_118_0,2023-11-04T01:47:32.080Z,,0,3,,2418,response,ISIC_0032927.JPG,12,ISIC_0062025.JPG,ISIC_0032927.JPG,false,1,keypress(m),500,5633936,5633936,5631518,5631507.000000001,5631535,5633957,8,400,19,,ISIC_0062025.JPG
break,html.Screen,4_118_1,2023-11-04T01:47:32.080Z,,0,,,NaN,,,,,,false,,,,5633937,5633936,,5633936,,5633957,8,400,,,
break_continue,html.Screen,4_118_2,2023-11-04T01:47:32.081Z,,0,,,NaN,,,,,,false,,,,5633937,5633937,,5633937,,5633957,8,400,,,
sequence,flow.Sequence,4_118,2023-11-04T01:47:32.081Z,,0,,,2402,completion,,,,,false,,,,5633937,5633937,5631518,5631507.000000001,5631535,5633957,8,400,,,
trial,html.Screen,4_119_0,2023-11-04T01:47:34.695Z,,0,3,,2610,response,ISIC_0004000.JPG,5,ISIC_2894223.JPG,ISIC_2894223.JPG,false,0,keypress(z),500,5636551,5636551,5633941,5633937,5633957,5636582,8,400,20,,ISIC_0004000.JPG
break,html.Screen,4_119_1,2023-11-04T01:47:34.696Z,,0,,,NaN,,,,,,false,,,,5636552,5636552,,5636551,,5636582,8,400,,,
break_continue,html.Screen,4_119_2,2023-11-04T01:47:34.696Z,,0,,,NaN,,,,,,false,,,,5636552,5636552,,5636552,,5636582,8,400,,,
sequence,flow.Sequence,4_119,2023-11-04T01:47:34.696Z,,0,,,2595,completion,,,,,false,,,,5636552,5636552,5633941,5633937,5633957,5636582,8,400,,,
trial,html.Screen,4_120_0,2023-11-04T01:47:37.525Z,,0,3,,2815,response,ISIC_6392478.JPG,14,ISIC_0030481.JPG,ISIC_0030481.JPG,false,0,keypress(z),500,5639381,5639381,5636566,5636552,5636582,5639406,8,400,21,,ISIC_6392478.JPG
break,html.Screen,4_120_1,2023-11-04T01:47:37.526Z,,0,,,NaN,,,,,,false,,,,5639382.000000001,5639382.000000001,,5639381,,5639406,8,400,,,
break_continue,html.Screen,4_120_2,2023-11-04T01:47:37.526Z,,0,,,NaN,,,,,,false,,,,5639382.000000001,5639382.000000001,,5639382.000000001,,5639406,8,400,,,
sequence,flow.Sequence,4_120,2023-11-04T01:47:37.526Z,,0,,,2800.0000000009313,completion,,,,,false,,,,5639382.000000001,5639382.000000001,5636566,5636552,5636582,5639406,8,400,,,
trial,html.Screen,4_121_0,2023-11-04T01:47:41.402Z,,0,3,,3868,response,ISIC_0030085.JPG,8,ISIC_0067891.JPG,ISIC_0067891.JPG,false,0,keypress(z),500,5643258,5643258,5639390,5639382.000000001,5639406,5643283,8,400,22,,ISIC_0030085.JPG
break,html.Screen,4_121_1,2023-11-04T01:47:41.403Z,,0,,,NaN,,,,,,false,,,,5643259,5643259,,5643258,,5643283,8,400,,,
break_continue,html.Screen,4_121_2,2023-11-04T01:47:41.403Z,,0,,,NaN,,,,,,false,,,,5643259,5643259,,5643259,,5643283,8,400,,,
sequence,flow.Sequence,4_121,2023-11-04T01:47:41.403Z,,0,,,3853,completion,,,,,false,,,,5643259,5643259,5639390,5639382.000000001,5639406,5643283,8,400,,,
trial,html.Screen,4_122_0,2023-11-04T01:47:45.097Z,,0,3,,3686,response,ISIC_3677945.JPG,8,ISIC_0010372.JPG,ISIC_0010372.JPG,false,0,keypress(z),500,5646953,5646953,5643267,5643259,5643283,5646975,8,400,23,,ISIC_3677945.JPG
break,html.Screen,4_122_1,2023-11-04T01:47:45.097Z,,0,,,NaN,,,,,,false,,,,5646953,5646953,,5646953,,5646975,8,400,,,
break_continue,html.Screen,4_122_2,2023-11-04T01:47:45.098Z,,0,,,NaN,,,,,,false,,,,5646954,5646954,,5646953,,5646975,8,400,,,
sequence,flow.Sequence,4_122,2023-11-04T01:47:45.098Z,,0,,,3671,completion,,,,,false,,,,5646954,5646954,5643267,5643259,5643283,5646975,8,400,,,
trial,html.Screen,4_123_0,2023-11-04T01:47:47.936Z,,0,3,,2831,response,ISIC_0062223.JPG,6,ISIC_0001103.JPG,ISIC_0001103.JPG,false,0,keypress(z),500,5649791,5649791,5646960,5646954,5646975,5649817,8,400,24,,ISIC_0062223.JPG
break,html.Screen,4_123_1,2023-11-04T01:47:47.936Z,,0,,,NaN,,,,,,false,,,,5649792,5649792,,5649792,,5649817,8,400,,,
break_continue,html.Screen,4_123_2,2023-11-04T01:47:47.937Z,,0,,,NaN,,,,,,false,,,,5649792,5649792,,5649792,,5649817,8,400,,,
sequence,flow.Sequence,4_123,2023-11-04T01:47:47.937Z,,0,,,2817,completion,,,,,false,,,,5649793,5649792,5646960,5646954,5646975,5649817,8,400,,,
trial,html.Screen,4_124_0,2023-11-04T01:47:51.117Z,,0,3,,3171,response,ISIC_0027260.JPG,8,ISIC_8249854.JPG,ISIC_8249854.JPG,false,0,keypress(z),500,5652972,5652972,5649801,5649793,5649817,5653008,8,400,25,,ISIC_0027260.JPG
break,html.Screen,4_124_1,2023-11-04T01:47:51.118Z,,0,,,NaN,,,,,,false,,,,5652973,5652973,,5652973,,5653008,8,400,,,
break_continue,html.Screen,4_124_2,2023-11-04T01:47:51.118Z,,0,,,NaN,,,,,,false,,,,5652974,5652974,,5652974,,5653008,8,400,,,
sequence,flow.Sequence,4_124,2023-11-04T01:47:51.118Z,,0,,,3157,completion,,,,,false,,,,5652974,5652974,5649801,5649793,5649817,5653008,8,400,,,
trial,html.Screen,4_125_0,2023-11-04T01:47:53.820Z,,0,3,,2684,response,ISIC_0025832.JPG,2,ISIC_1781273.JPG,ISIC_0025832.JPG,false,1,keypress(m),500,5655676,5655676,5652992,5652974,5653008,5655699,8,400,26,,ISIC_1781273.JPG
break,html.Screen,4_125_1,2023-11-04T01:47:53.820Z,,0,,,NaN,,,,,,false,,,,5655676,5655676,,5655676,,5655699,8,400,,,
break_continue,html.Screen,4_125_2,2023-11-04T01:47:53.821Z,,0,,,NaN,,,,,,false,,,,5655676,5655676,,5655676,,5655699,8,400,,,
sequence,flow.Sequence,4_125,2023-11-04T01:47:53.821Z,,0,,,2668,completion,,,,,false,,,,5655677,5655676,5652992,5652974,5653008,5655699,8,400,,,
trial,html.Screen,4_126_0,2023-11-04T01:47:57.710Z,,0,3,,3882.0000000009313,response,ISIC_4730433.JPG,7,ISIC_0032945.JPG,ISIC_0032945.JPG,false,0,keypress(z),500,5659566,5659565.000000001,5655683,5655677,5655699,5659593,8,400,27,,ISIC_4730433.JPG
break,html.Screen,4_126_1,2023-11-04T01:47:57.710Z,,0,,,NaN,,,,,,false,,,,5659566,5659566,,5659566,,5659593,8,400,,,
break_continue,html.Screen,4_126_2,2023-11-04T01:47:57.711Z,,0,,,NaN,,,,,,false,,,,5659566,5659566,,5659566,,5659593,8,400,,,
sequence,flow.Sequence,4_126,2023-11-04T01:47:57.711Z,,0,,,3867,completion,,,,,false,,,,5659566,5659566,5655683,5655677,5655699,5659593,8,400,,,
trial,html.Screen,4_127_0,2023-11-04T01:48:01.195Z,,0,3,,3473,response,ISIC_2221217.JPG,10,ISIC_0058529.JPG,ISIC_2221217.JPG,false,1,keypress(m),500,5663050,5663050,5659577,5659567,5659593,5663069,8,400,28,,ISIC_0058529.JPG
break,html.Screen,4_127_1,2023-11-04T01:48:01.195Z,,0,,,NaN,,,,,,false,,,,5663051,5663051,,5663050,,5663069,8,400,,,
break_continue,html.Screen,4_127_2,2023-11-04T01:48:01.196Z,,0,,,NaN,,,,,,false,,,,5663051,5663051,,5663051,,5663069,8,400,,,
sequence,flow.Sequence,4_127,2023-11-04T01:48:01.196Z,,0,,,3458,completion,,,,,false,,,,5663051,5663051,5659577,5659566,5659593,5663069,8,400,,,
trial,html.Screen,4_128_0,2023-11-04T01:48:03.841Z,,0,3,,2644,response,ISIC_0034069.JPG,1,ISIC_0046450.JPG,ISIC_0046450.JPG,false,0,keypress(z),500,5665697,5665697,5663053,5663051,5663069,5665727,8,400,29,,ISIC_0034069.JPG
break,html.Screen,4_128_1,2023-11-04T01:48:03.842Z,,0,,,NaN,,,,,,false,,,,5665698,5665698,,5665697,,5665727,8,400,,,
break_continue,html.Screen,4_128_2,2023-11-04T01:48:03.842Z,,0,,,NaN,,,,,,false,,,,5665698,5665698,,5665698,,5665727,8,400,,,
sequence,flow.Sequence,4_128,2023-11-04T01:48:03.842Z,,0,,,2629,completion,,,,,false,,,,5665698,5665698,5663053,5663051,5663069,5665727,8,400,,,
trial,html.Screen,4_129_0,2023-11-04T01:48:07.742Z,,0,3,,3888,response,ISIC_8086526.JPG,12,ISIC_4517738.JPG,ISIC_4517738.JPG,false,0,keypress(z),500,5669598,5669598,5665710,5665698,5665727,5669620,8,400,30,,ISIC_8086526.JPG
break,html.Screen,4_129_1,2023-11-04T01:48:07.743Z,,0,,,NaN,,,,,,false,,,,5669599,5669598,,5669598,,5669620,8,400,,,
break_continue,html.Screen,4_129_2,2023-11-04T01:48:07.743Z,,0,,,NaN,,,,,,false,,,,5669599,5669599,,5669599,,5669620,8,400,,,
sequence,flow.Sequence,4_129,2023-11-04T01:48:07.743Z,,0,,,3872,completion,,,,,false,,,,5669599,5669599,5665710,5665698,5665727,5669620,8,400,,,
trial,html.Screen,4_130_0,2023-11-04T01:48:10.462Z,,0,3,,2713,response,ISIC_0067326.JPG,4,ISIC_1783062.JPG,ISIC_0067326.JPG,false,1,keypress(m),500,5672318,5672317,5669604,5669599,5669620,5672344,8,400,31,,ISIC_1783062.JPG
break,html.Screen,4_130_1,2023-11-04T01:48:10.463Z,,0,,,NaN,,,,,,false,,,,5672318,5672318,,5672318,,5672344,8,400,,,
break_continue,html.Screen,4_130_2,2023-11-04T01:48:10.463Z,,0,,,NaN,,,,,,false,,,,5672319,5672319,,5672319,,5672344,8,400,,,
sequence,flow.Sequence,4_130,2023-11-04T01:48:10.463Z,,0,,,2699,completion,,,,,false,,,,5672319,5672319,5669604,5669599,5669620,5672344,8,400,,,
trial,html.Screen,4_131_0,2023-11-04T01:48:13.133Z,,0,3,,2662.0000000009313,response,ISIC_4789377.JPG,8,ISIC_9300579.JPG,ISIC_9300579.JPG,false,0,keypress(z),500,5674989.000000001,5674989.000000001,5672327,5672319,5672344,5675018,8,400,32,,ISIC_4789377.JPG
break,html.Screen,4_131_1,2023-11-04T01:48:13.134Z,,0,,,NaN,,,,,,false,,,,5674990,5674989.000000001,,5674989.000000001,,5675018,8,400,,,
break_continue,html.Screen,4_131_2,2023-11-04T01:48:13.134Z,,0,,,NaN,,,,,,false,,,,5674990,5674990,,5674990,,5675018,8,400,,,
sequence,flow.Sequence,4_131,2023-11-04T01:48:13.134Z,,0,,,2646,completion,,,,,false,,,,5674990,5674990,5672327,5672319,5672344,5675018,8,400,,,
trial,html.Screen,4_132_0,2023-11-04T01:48:15.622Z,,0,3,,2476,response,ISIC_0027238.JPG,11,ISIC_9395707.JPG,ISIC_0027238.JPG,false,1,keypress(m),500,5677478,5677477,5675001,5674990,5675018,5677507,8,400,33,,ISIC_9395707.JPG
break,html.Screen,4_132_1,2023-11-04T01:48:15.623Z,,0,,,NaN,,,,,,false,,,,5677478,5677478,,5677478,,5677507,8,400,,,
break_continue,html.Screen,4_132_2,2023-11-04T01:48:15.623Z,,0,,,NaN,,,,,,false,,,,5677478,5677478,,5677478,,5677507,8,400,,,
sequence,flow.Sequence,4_132,2023-11-04T01:48:15.623Z,,0,,,2460,completion,,,,,false,,,,5677478,5677478,5675001,5674990,5675018,5677507,8,400,,,
trial,html.Screen,4_133_0,2023-11-04T01:48:18.192Z,,0,3,,2556.0000000009313,response,ISIC_4765919.JPG,12,ISIC_0028338.JPG,ISIC_4765919.JPG,false,1,keypress(m),500,5680047.000000001,5680047.000000001,5677491,5677479,5677507,5680081,8,400,34,,ISIC_0028338.JPG
break,html.Screen,4_133_1,2023-11-04T01:48:18.192Z,,0,,,NaN,,,,,,false,,,,5680048,5680048,,5680047.000000001,,5680081,8,400,,,
break_continue,html.Screen,4_133_2,2023-11-04T01:48:18.192Z,,0,,,NaN,,,,,,false,,,,5680048,5680048,,5680048,,5680081,8,400,,,
sequence,flow.Sequence,4_133,2023-11-04T01:48:18.193Z,,0,,,2541,completion,,,,,false,,,,5680048,5680048,5677491,5677479,5677507,5680081,8,400,,,
trial,html.Screen,4_134_0,2023-11-04T01:48:20.654Z,,0,3,,2444,response,ISIC_0012298.JPG,0,ISIC_0033042.JPG,ISIC_0012298.JPG,false,1,keypress(m),500,5682509,5682509,5680065,5680048,5680081,5682538,8,400,35,,ISIC_0033042.JPG
break,html.Screen,4_134_1,2023-11-04T01:48:20.654Z,,0,,,NaN,,,,,,false,,,,5682510,5682510,,5682509,,5682538,8,400,,,
break_continue,html.Screen,4_134_2,2023-11-04T01:48:20.655Z,,0,,,NaN,,,,,,false,,,,5682510,5682510,,5682510,,5682538,8,400,,,
sequence,flow.Sequence,4_134,2023-11-04T01:48:20.655Z,,0,,,2429,completion,,,,,false,,,,5682510,5682510,5680065,5680048,5680081,5682538,8,400,,,
trial,html.Screen,4_135_0,2023-11-04T01:48:23.481Z,,0,3,,2815,response,ISIC_0004986.JPG,11,ISIC_0072642.JPG,ISIC_0072642.JPG,false,0,keypress(z),500,5685336,5685336,5682521,5682510,5682538,5685362,8,400,36,,ISIC_0004986.JPG
break,html.Screen,4_135_1,2023-11-04T01:48:23.482Z,,0,,,NaN,,,,,,false,,,,5685337,5685337,,5685337,,5685362,8,400,,,
break_continue,html.Screen,4_135_2,2023-11-04T01:48:23.482Z,,0,,,NaN,,,,,,false,,,,5685337,5685337,,5685337,,5685362,8,400,,,
sequence,flow.Sequence,4_135,2023-11-04T01:48:23.482Z,,0,,,2799,completion,,,,,false,,,,5685337,5685337,5682521,5682510,5682538,5685362,8,400,,,
trial,html.Screen,4_136_0,2023-11-04T01:48:27.071Z,,0,3,,3581,response,ISIC_0054954.JPG,9,ISIC_0011697.JPG,ISIC_0054954.JPG,false,1,keypress(m),500,5688927,5688926,5685345,5685337,5685362,5688955,8,400,37,,ISIC_0011697.JPG
break,html.Screen,4_136_1,2023-11-04T01:48:27.072Z,,0,,,NaN,,,,,,false,,,,5688927,5688927,,5688927,,5688955,8,400,,,
break_continue,html.Screen,4_136_2,2023-11-04T01:48:27.072Z,,0,,,NaN,,,,,,false,,,,5688928,5688928,,5688927,,5688955,8,400,,,
sequence,flow.Sequence,4_136,2023-11-04T01:48:27.072Z,,0,,,3566,completion,,,,,false,,,,5688928,5688928,5685345,5685337,5685362,5688955,8,400,,,
trial,html.Screen,4_137_0,2023-11-04T01:48:29.840Z,,0,3,,2757,response,ISIC_0011130.JPG,11,ISIC_5485674.JPG,ISIC_5485674.JPG,false,0,keypress(z),500,5691696,5691695,5688938,5688928,5688955,5691728,8,400,38,,ISIC_0011130.JPG
break,html.Screen,4_137_1,2023-11-04T01:48:29.841Z,,0,,,NaN,,,,,,false,,,,5691696,5691696,,5691696,,5691728,8,400,,,
break_continue,html.Screen,4_137_2,2023-11-04T01:48:29.841Z,,0,,,NaN,,,,,,false,,,,5691696,5691696,,5691696,,5691728,8,400,,,
sequence,flow.Sequence,4_137,2023-11-04T01:48:29.841Z,,0,,,2741,completion,,,,,false,,,,5691696,5691696,5688938,5688928,5688955,5691728,8,400,,,
trial,html.Screen,4_138_0,2023-11-04T01:48:32.502Z,,0,3,,2644,response,ISIC_2221217.JPG,16,ISIC_4601527.JPG,ISIC_2221217.JPG,false,1,keypress(m),500,5694357,5694357,5691713,5691697,5691728,5694386,8,400,39,,ISIC_4601527.JPG
break,html.Screen,4_138_1,2023-11-04T01:48:32.503Z,,0,,,NaN,,,,,,false,,,,5694358,5694358,,5694357,,5694386,8,400,,,
break_continue,html.Screen,4_138_2,2023-11-04T01:48:32.503Z,,0,,,NaN,,,,,,false,,,,5694358,5694358,,5694358,,5694386,8,400,,,
sequence,flow.Sequence,4_138,2023-11-04T01:48:32.503Z,,0,,,2630,completion,,,,,false,,,,5694358,5694358,5691713,5691697,5691728,5694386,8,400,,,
trial,html.Screen,4_139_0,2023-11-04T01:48:34.937Z,,0,3,,2423,response,ISIC_6398669.JPG,12,ISIC_9300579.JPG,ISIC_9300579.JPG,false,0,keypress(z),500,5696792,5696792,5694369,5694358,5694386,5696826,8,400,40,,ISIC_6398669.JPG
break,html.Screen,4_139_1,2023-11-04T01:48:34.938Z,,0,,,NaN,,,,,,false,,,,5696793,5696793,,5696793,,5696826,8,400,,,
break_continue,html.Screen,4_139_2,2023-11-04T01:48:34.938Z,,0,,,NaN,,,,,,false,,,,5696793,5696793,,5696793,,5696826,8,400,,,
sequence,flow.Sequence,4_139,2023-11-04T01:48:34.938Z,,0,,,2407,completion,,,,,false,,,,5696793,5696793,5694369,5694358,5694386,5696826,8,400,,,
trial,html.Screen,4_140_0,2023-11-04T01:48:37.468Z,,0,3,,2513,response,ISIC_3799267.JPG,16,ISIC_0072748.JPG,ISIC_0072748.JPG,false,0,keypress(z),500,5699323,5699323,5696810,5696793,5696826,5699349,8,400,41,,ISIC_3799267.JPG
break,html.Screen,4_140_1,2023-11-04T01:48:37.469Z,,0,,,NaN,,,,,,false,,,,5699324.000000001,5699324.000000001,,5699324.000000001,,5699349,8,400,,,
break_continue,html.Screen,4_140_2,2023-11-04T01:48:37.469Z,,0,,,NaN,,,,,,false,,,,5699324.000000001,5699324.000000001,,5699324.000000001,,5699349,8,400,,,
sequence,flow.Sequence,4_140,2023-11-04T01:48:37.469Z,,0,,,2498.0000000009313,completion,,,,,false,,,,5699324.000000001,5699324.000000001,5696810,5696793,5696826,5699349,8,400,,,
trial,html.Screen,4_141_0,2023-11-04T01:48:40.014Z,,0,3,,2537,response,ISIC_0034076.JPG,8,ISIC_7935462.JPG,ISIC_0034076.JPG,false,1,keypress(m),500,5701869,5701869,5699332,5699325,5699349,5701889,8,400,42,,ISIC_7935462.JPG
break,html.Screen,4_141_1,2023-11-04T01:48:40.015Z,,0,,,NaN,,,,,,false,,,,5701870,5701869,,5701869,,5701889,8,400,,,
break_continue,html.Screen,4_141_2,2023-11-04T01:48:40.015Z,,0,,,NaN,,,,,,false,,,,5701870,5701870,,5701870,,5701889,8,400,,,
sequence,flow.Sequence,4_141,2023-11-04T01:48:40.015Z,,0,,,2521,completion,,,,,false,,,,5701870,5701870,5699332,5699324.000000001,5699349,5701889,8,400,,,
trial,html.Screen,4_142_0,2023-11-04T01:48:42.562Z,,0,3,,2544,response,ISIC_3436033.JPG,3,ISIC_0027306.JPG,ISIC_0027306.JPG,false,0,keypress(z),500,5704417,5704417,5701873,5701870,5701889,5704446,8,400,43,,ISIC_3436033.JPG
break,html.Screen,4_142_1,2023-11-04T01:48:42.563Z,,0,,,NaN,,,,,,false,,,,5704418,5704418,,5704418,,5704446,8,400,,,
break_continue,html.Screen,4_142_2,2023-11-04T01:48:42.563Z,,0,,,NaN,,,,,,false,,,,5704418,5704418,,5704418,,5704446,8,400,,,
sequence,flow.Sequence,4_142,2023-11-04T01:48:42.563Z,,0,,,2529,completion,,,,,false,,,,5704418,5704418,5701873,5701870,5701889,5704446,8,400,,,
trial,html.Screen,4_143_0,2023-11-04T01:48:45.110Z,,0,3,,2535,response,ISIC_0025592.JPG,11,ISIC_0033250.JPG,ISIC_0033250.JPG,false,0,keypress(z),500,5706965,5706964,5704429,5704418,5704446,5706986,8,400,44,,ISIC_0025592.JPG
break,html.Screen,4_143_1,2023-11-04T01:48:45.111Z,,0,,,NaN,,,,,,false,,,,5706965,5706965,,5706965,,5706986,8,400,,,
break_continue,html.Screen,4_143_2,2023-11-04T01:48:45.111Z,,0,,,NaN,,,,,,false,,,,5706966,5706966,,5706966,,5706986,8,400,,,
sequence,flow.Sequence,4_143,2023-11-04T01:48:45.111Z,,0,,,2520,completion,,,,,false,,,,5706966,5706966,5704429,5704418,5704446,5706986,8,400,,,
trial,html.Screen,4_144_0,2023-11-04T01:48:47.999Z,,0,3,,2883,response,ISIC_0027921.JPG,3,ISIC_0025184.JPG,ISIC_0027921.JPG,false,1,keypress(m),500,5709854,5709853,5706970,5706966,5706986,5709877,8,400,45,,ISIC_0025184.JPG
break,html.Screen,4_144_1,2023-11-04T01:48:47.999Z,,0,,,NaN,,,,,,false,,,,5709854,5709854,,5709854,,5709877,8,400,,,
break_continue,html.Screen,4_144_2,2023-11-04T01:48:47.999Z,,0,,,NaN,,,,,,false,,,,5709854,5709854,,5709854,,5709877,8,400,,,
sequence,flow.Sequence,4_144,2023-11-04T01:48:48.000Z,,0,,,2868,completion,,,,,false,,,,5709854,5709854,5706970,5706966,5706986,5709877,8,400,,,
trial,html.Screen,4_145_0,2023-11-04T01:48:50.538Z,,0,3,,2531,response,ISIC_2536779.JPG,7,ISIC_0065233.JPG,ISIC_0065233.JPG,false,0,keypress(z),500,5712392,5712392,5709861,5709855.000000001,5709877,5712417,8,400,46,,ISIC_2536779.JPG
break,html.Screen,4_145_1,2023-11-04T01:48:50.538Z,,0,,,NaN,,,,,,false,,,,5712393,5712393,,5712393,,5712417,8,400,,,
break_continue,html.Screen,4_145_2,2023-11-04T01:48:50.539Z,,0,,,NaN,,,,,,false,,,,5712393,5712393,,5712393,,5712417,8,400,,,
sequence,flow.Sequence,4_145,2023-11-04T01:48:50.539Z,,0,,,2516,completion,,,,,false,,,,5712394,5712393,5709861,5709855.000000001,5709877,5712417,8,400,,,
trial,html.Screen,4_146_0,2023-11-04T01:48:53.403Z,,0,3,,2856.0000000009313,response,ISIC_0024756.JPG,8,ISIC_0054053.JPG,ISIC_0054053.JPG,false,0,keypress(z),500,5715258,5715257.000000001,5712401,5712394,5712417,5715292,8,400,47,,ISIC_0024756.JPG
break,html.Screen,4_146_1,2023-11-04T01:48:53.403Z,,0,,,NaN,,,,,,false,,,,5715258,5715258,,5715258,,5715292,8,400,,,
break_continue,html.Screen,4_146_2,2023-11-04T01:48:53.404Z,,0,,,NaN,,,,,,false,,,,5715259,5715258,,5715258,,5715292,8,400,,,
sequence,flow.Sequence,4_146,2023-11-04T01:48:53.404Z,,0,,,2841,completion,,,,,false,,,,5715259,5715258,5712401,5712394,5712417,5715292,8,400,,,
trial,html.Screen,4_147_0,2023-11-04T01:48:55.891Z,,0,3,,2469,response,ISIC_8048668.JPG,0,ISIC_0010350.JPG,ISIC_0010350.JPG,false,0,keypress(z),500,5717746,5717745,5715276,5715259,5715292,5717781,8,400,48,,ISIC_8048668.JPG
break,html.Screen,4_147_1,2023-11-04T01:48:55.891Z,,0,,,NaN,,,,,,false,,,,5717746,5717746,,5717746,,5717781,8,400,,,
break_continue,html.Screen,4_147_2,2023-11-04T01:48:55.892Z,,0,,,NaN,,,,,,false,,,,5717747,5717746,,5717746,,5717781,8,400,,,
sequence,flow.Sequence,4_147,2023-11-04T01:48:55.892Z,,0,,,2454,completion,,,,,false,,,,5717747,5717746,5715276,5715259,5715292,5717781,8,400,,,
trial,html.Screen,4_148_0,2023-11-04T01:48:58.677Z,,0,3,,2766,response,ISIC_0071012.JPG,2,ISIC_0001103.JPG,ISIC_0001103.JPG,false,0,keypress(z),500,5720532,5720531,5717765,5717747,5717781,5720556,8,400,49,,ISIC_0071012.JPG
break,html.Screen,4_148_1,2023-11-04T01:48:58.677Z,,0,,,NaN,,,,,,false,,,,5720532,5720532,,5720532,,5720556,8,400,,,
break_continue,html.Screen,4_148_2,2023-11-04T01:48:58.678Z,,0,,,NaN,,,,,,false,,,,5720533,5720532,,5720532,,5720556,8,400,,,
sequence,flow.Sequence,4_148,2023-11-04T01:48:58.678Z,,0,,,2751,completion,,,,,false,,,,5720533,5720532,5717765,5717747,5717781,5720556,8,400,,,
trial,html.Screen,4_149_0,2023-11-04T01:49:01.420Z,,0,3,,2736.0000000009313,response,ISIC_1234463.JPG,7,ISIC_7759376.JPG,ISIC_7759376.JPG,false,0,keypress(z),500,5723275.000000001,5723275.000000001,5720539,5720533,5720556,5723296,8,400,50,,ISIC_1234463.JPG
break,html.Screen,4_149_1,2023-11-04T01:49:11.419Z,,0,,,9994,timeout,,,,,false,,,,5733273,5733273,5723280,5723275.000000001,5723296,5733290,8,400,,,
break_continue,html.Screen,4_149_2,2023-11-04T03:03:13.141Z,,0,,,4441329,response,,,,,false,continue,keypress(Space),,10174753,10174602,5733273,5733273,5733290,10174784,8,400,,,
sequence,flow.Sequence,4_149,2023-11-04T03:03:13.141Z,,0,,,4454046,completion,,,,,false,,,,10174754,10174602,5720539,5720533,5720556,10174784,8,400,,,
trial,html.Screen,4_150_0,2023-11-04T03:03:16.664Z,,0,4,,3508,response,ISIC_0010385.JPG,12,ISIC_0058858.JPG,ISIC_0010385.JPG,false,1,keypress(m),500,10178277,10178276,10174768,10174754,10174784,10178310,8,400,1,,ISIC_0058858.JPG
break,html.Screen,4_150_1,2023-11-04T03:03:16.665Z,,0,,,NaN,,,,,,false,,,,10178277,10178277,,10178277,,10178310,8,400,,,
break_continue,html.Screen,4_150_2,2023-11-04T03:03:16.665Z,,0,,,NaN,,,,,,false,,,,10178278,10178278,,10178277,,10178310,8,400,,,
sequence,flow.Sequence,4_150,2023-11-04T03:03:16.665Z,,0,,,3494,completion,,,,,false,,,,10178278,10178278,10174768,10174754,10174784,10178310,8,400,,,
trial,html.Screen,4_151_0,2023-11-04T03:03:20.311Z,,0,4,,3629,response,ISIC_7938688.JPG,16,ISIC_0011933.JPG,ISIC_7938688.JPG,false,1,keypress(m),500,10181924,10181923,10178294,10178278,10178310,10181953,8,400,2,,ISIC_0011933.JPG
break,html.Screen,4_151_1,2023-11-04T03:03:20.312Z,,0,,,NaN,,,,,,false,,,,10181924,10181924,,10181924,,10181953,8,400,,,
break_continue,html.Screen,4_151_2,2023-11-04T03:03:20.312Z,,0,,,NaN,,,,,,false,,,,10181925.000000002,10181925.000000002,,10181924,,10181953,8,400,,,
sequence,flow.Sequence,4_151,2023-11-04T03:03:20.312Z,,0,,,3615.0000000018626,completion,,,,,false,,,,10181925.000000002,10181925.000000002,10178294,10178278,10178310,10181953,8,400,,,
trial,html.Screen,4_152_0,2023-11-04T03:03:23.135Z,,0,4,,2810,response,ISIC_0002162.JPG,12,ISIC_4596803.JPG,ISIC_0002162.JPG,false,1,keypress(m),500,10184747,10184747,10181937,10181925.000000002,10181953,10184777,8,400,3,,ISIC_4596803.JPG
break,html.Screen,4_152_1,2023-11-04T03:03:23.135Z,,0,,,NaN,,,,,,false,,,,10184748,10184747,,10184747,,10184777,8,400,,,
break_continue,html.Screen,4_152_2,2023-11-04T03:03:23.136Z,,0,,,NaN,,,,,,false,,,,10184748,10184748,,10184748,,10184777,8,400,,,
sequence,flow.Sequence,4_152,2023-11-04T03:03:23.136Z,,0,,,2795,completion,,,,,false,,,,10184748,10184748,10181937,10181925.000000002,10181953,10184777,8,400,,,
trial,html.Screen,4_153_0,2023-11-04T03:03:26.955Z,,0,4,,3805,response,ISIC_0033362.JPG,13,ISIC_0026882.JPG,ISIC_0026882.JPG,false,0,keypress(z),500,10188567,10188567,10184762,10184748,10184777,10188587,8,400,4,,ISIC_0033362.JPG
break,html.Screen,4_153_1,2023-11-04T03:03:26.955Z,,0,,,NaN,,,,,,false,,,,10188568.000000002,10188568.000000002,,10188567,,10188587,8,400,,,
break_continue,html.Screen,4_153_2,2023-11-04T03:03:26.956Z,,0,,,NaN,,,,,,false,,,,10188568.000000002,10188568.000000002,,10188568.000000002,,10188587,8,400,,,
