sender,sender_type,sender_id,timestamp,meta,,blockNo,condition,duration,ended_on,img_left,img_reveal,img_right,loser,practice,response,response_action,selection_duration,time_commit,time_end,time_render,time_run,time_show,time_switch,total_blocks,total_trials,trialNo,url,winner
informed_consent,html.Screen,0,2023-11-02T20:00:00.318Z,"{""labjs_version"":""20.2.4"",""labjs_build"":{""flavor"":""production"",""commit"":""f5b4a49f956347addd546a832a3327688c2c0fef""},""location"":""https://run.pavlovia.org/MurrayBennett/melanoma-2afc/?participant=67368&platform=sona"",""userAgent"":""Mozilla/5.0 (Windows NT 10.0; Win64; x64) AppleWebKit/537.36 (KHTML, like Gecko) Chrome/118.0.0.0 Safari/537.36"",""platform"":""Win32"",""language"":""en-US"",""locale"":""en-US"",""timeZone"":""America/Chicago"",""timezoneOffset"":300,""screen_width"":1536,""screen_height"":864,""scroll_width"":1536,""scroll_height"":682,""window_innerWidth"":1536,""window_innerHeight"":730,""devicePixelRatio"":1.25}",,,,11260.528999904633,response,,,,,,consent,click button,,14772.5,14767.599999904633,3500.122,3499.6999999284744,3507.071,14793.999,,,,"{""participant"":""67368"",""platform"":""sona""}",
Welcome,html.Screen,1,2023-11-02T20:02:47.300Z,,,,colourful,166962.40099997615,response,,,,,,continue,click button,,181758,181756.39999997616,14766.321,14773.399999976158,14793.999,181767.008,,,,,
trial,html.Screen,2_0_0,2023-11-02T20:02:56.447Z,,0,0,,9136.891999976157,response,ISIC_0063388.JPG,,ISIC_0025593.JPG,ISIC_0063388.JPG,true,1,keypress(m),500,190904.39999997616,190903.89999997616,181753.395,181758.39999997616,181767.008,190910.368,1,6,1,,ISIC_0025593.JPG
sequence,flow.Sequence,2_0,2023-11-02T20:02:56.447Z,,0,,,9136.891999976157,completion,,,,,true,,,,190904.89999997616,190903.89999997616,181753.395,181758.29999995232,181767.008,190910.368,1,6,,,
trial,html.Screen,2_1_0,2023-11-02T20:03:00.982Z,,0,0,,4529.231999904645,response,ISIC_1309015.JPG,,ISIC_0028178.JPG,ISIC_1309015.JPG,true,1,keypress(m),500,195439.89999997616,195439.59999990463,190903.695,190905.09999990463,190910.368,195454.311,1,6,2,,ISIC_0028178.JPG
sequence,flow.Sequence,2_1,2023-11-02T20:03:00.983Z,,0,,,4529.231999904645,completion,,,,,true,,,,195440.19999992847,195439.59999990463,190903.695,190905,190910.368,195454.311,1,6,,,
trial,html.Screen,2_2_0,2023-11-02T20:03:04.586Z,,0,0,,3589.3889999284875,response,ISIC_3314853.JPG,,ISIC_0031128.JPG,ISIC_3314853.JPG,true,1,keypress(m),500,199044,199043.69999992847,195447.607,195440.5,195454.311,199047.785,1,6,3,,ISIC_0031128.JPG
sequence,flow.Sequence,2_2,2023-11-02T20:03:04.587Z,,0,,,3589.3889999284875,completion,,,,,true,,,,199044.29999995232,199043.69999992847,195447.607,195440.39999997616,195454.311,199047.785,1,6,,,
trial,html.Screen,2_3_0,2023-11-02T20:03:09.026Z,,0,0,,4436.014999952313,response,ISIC_0031612.JPG,,ISIC_8980141.JPG,ISIC_8980141.JPG,true,0,keypress(z),500,203484.19999992847,203483.79999995232,199041.498,199044.5,199047.785,203487.592,1,6,4,,ISIC_0031612.JPG
sequence,flow.Sequence,2_3,2023-11-02T20:03:09.027Z,,0,,,4436.014999952313,completion,,,,,true,,,,203484.69999992847,203483.79999995232,199041.498,199044.39999997616,199047.785,203487.592,1,6,,,
trial,html.Screen,2_4_0,2023-11-02T20:03:12.680Z,,0,0,,3649.6079999284702,response,ISIC_9721604.JPG,,ISIC_1197737.JPG,ISIC_9721604.JPG,true,1,keypress(m),500,207137.5,207137.19999992847,203481.046,203485,203487.592,207143.656,1,6,5,,ISIC_1197737.JPG
sequence,flow.Sequence,2_4,2023-11-02T20:03:12.680Z,,0,,,3649.6079999284702,completion,,,,,true,,,,207137.79999995232,207137.19999992847,203481.046,203484.79999995232,203487.592,207143.656,1,6,,,
trial,html.Screen,2_5_0,2023-11-02T20:03:16.321Z,,0,0,,3634.344000000012,response,ISIC_0010681.JPG,,ISIC_0025346.JPG,ISIC_0010681.JPG,true,1,keypress(m),500,210778.39999997616,210778,207136.65,207137.79999995232,207143.656,210785.619,1,6,6,,ISIC_0025346.JPG
sequence,flow.Sequence,2_5,2023-11-02T20:03:16.321Z,,0,,,3634.344000000012,completion,,,,,true,,,,210778.69999992847,210778,207136.65,207137.79999995232,207143.656,210785.619,1,6,,,
loop,flow.Loop,2,2023-11-02T20:03:16.321Z,,,,,29010.992,completion,,,,,true,,,,210779,210778,181753.395,181758.29999995232,181767.008,210785.619,1,6,,,
exp_instructions,html.Screen,3,2023-11-02T20:03:35.469Z,,,,,19140.18099995231,response,,,,,,continue,keypress(Space),,229926.29999995232,229925.79999995232,210779.38,210779.09999990463,210785.619,229932.559,,,,,
trial,html.Screen,4_0_0,2023-11-02T20:03:39.415Z,,0,1,,3940.3409999761498,response,ISIC_0561249.JPG,7,ISIC_0057655.JPG,ISIC_0561249.JPG,false,1,keypress(m),500,233873.19999992847,233872.89999997616,229923.043,229927.09999990463,229932.559,233880.124,8,400,1,,ISIC_0057655.JPG
break,html.Screen,4_0_1,2023-11-02T20:03:39.417Z,,0,,,NaN,,,,,,false,,,,233874.89999997616,233874.5,,233873.29999995232,,233880.124,8,400,,,
break_continue,html.Screen,4_0_2,2023-11-02T20:03:39.418Z,,0,,,NaN,,,,,,false,,,,233875.5,233875.29999995232,,233875,,233880.124,8,400,,,
sequence,flow.Sequence,4_0,2023-11-02T20:03:39.418Z,,0,,,3942.740999952308,completion,,,,,false,,,,233875.79999995232,233875.29999995232,229923.043,229927,229932.559,233880.124,8,400,,,
trial,html.Screen,4_1_0,2023-11-02T20:03:45.219Z,,0,1,,5796.275999976147,response,ISIC_0029405.JPG,5,ISIC_0010653.JPG,ISIC_0029405.JPG,false,1,keypress(m),500,239676.69999992847,239676.39999997616,233873.363,233875.89999997616,233880.124,239686.27,8,400,2,,ISIC_0010653.JPG
break,html.Screen,4_1_1,2023-11-02T20:03:45.220Z,,0,,,NaN,,,,,,false,,,,239678.09999990463,239677.69999992847,,239676.89999997616,,239686.27,8,400,,,
break_continue,html.Screen,4_1_2,2023-11-02T20:03:45.221Z,,0,,,NaN,,,,,,false,,,,239678.69999992847,239678.5,,239678.29999995232,,239686.27,8,400,,,
sequence,flow.Sequence,4_1,2023-11-02T20:03:45.221Z,,0,,,5798.375999999989,completion,,,,,false,,,,239679,239678.5,233873.363,233875.89999997616,233880.124,239686.27,8,400,,,
trial,html.Screen,4_2_0,2023-11-02T20:03:49.404Z,,0,1,,4170.529999952327,response,ISIC_5566396.JPG,9,ISIC_0025955.JPG,ISIC_5566396.JPG,false,1,keypress(m),500,243857.09999990463,243856.79999995232,239679.416,239679.19999992847,239686.27,243869.463,8,400,3,,ISIC_0025955.JPG
break,html.Screen,4_2_1,2023-11-02T20:03:49.405Z,,0,,,NaN,,,,,,false,,,,243858.39999997616,243858,,243857.29999995232,,243869.463,8,400,,,
break_continue,html.Screen,4_2_2,2023-11-02T20:03:49.405Z,,0,,,NaN,,,,,,false,,,,243859,243858.89999997616,,243858.5,,243869.463,8,400,,,
sequence,flow.Sequence,4_2,2023-11-02T20:03:49.406Z,,0,,,4172.629999976169,completion,,,,,false,,,,243859.29999995232,243858.89999997616,239679.416,239679.09999990463,239686.27,243869.463,8,400,,,
trial,html.Screen,4_3_0,2023-11-02T20:03:54.273Z,,0,1,,4856.636999904644,response,ISIC_2784686.JPG,9,ISIC_0031417.JPG,ISIC_0031417.JPG,false,0,keypress(z),500,248726.39999997616,248726.09999990463,243862.644,243859.39999997616,243869.463,248732.447,8,400,4,,ISIC_2784686.JPG
break,html.Screen,4_3_1,2023-11-02T20:03:54.274Z,,0,,,NaN,,,,,,false,,,,248727.79999995232,248727.5,,248726.69999992847,,248732.447,8,400,,,
break_continue,html.Screen,4_3_2,2023-11-02T20:03:54.275Z,,0,,,NaN,,,,,,false,,,,248728.29999995232,248728.19999992847,,248728,,248732.447,8,400,,,
sequence,flow.Sequence,4_3,2023-11-02T20:03:54.275Z,,0,,,4858.736999928486,completion,,,,,false,,,,248728.5,248728.19999992847,243862.644,243859.39999997616,243869.463,248732.447,8,400,,,
trial,html.Screen,4_4_0,2023-11-02T20:03:57.790Z,,0,1,,3510.752999928489,response,ISIC_0029839.JPG,9,ISIC_0069698.JPG,ISIC_0029839.JPG,false,1,keypress(m),500,252243.5,252243.19999992847,248725.755,248728.69999992847,248732.447,252249.625,8,400,5,,ISIC_0069698.JPG
break,html.Screen,4_4_1,2023-11-02T20:03:57.791Z,,0,,,NaN,,,,,,false,,,,252244.89999997616,252244.59999990463,,252243.69999992847,,252249.625,8,400,,,
break_continue,html.Screen,4_4_2,2023-11-02T20:03:57.792Z,,0,,,NaN,,,,,,false,,,,252245.29999995232,252245.29999995232,,252245,,252249.625,8,400,,,
sequence,flow.Sequence,4_4,2023-11-02T20:03:57.792Z,,0,,,3512.8529999523307,completion,,,,,false,,,,252245.5,252245.29999995232,248725.755,248728.69999992847,248732.447,252249.625,8,400,,,
trial,html.Screen,4_5_0,2023-11-02T20:04:02.873Z,,0,1,,5076.375,response,ISIC_0010978.JPG,5,ISIC_1545544.JPG,ISIC_1545544.JPG,false,0,keypress(z),500,257326.29999995232,257326,252242.602,252245.69999992847,252249.625,257341.024,8,400,6,,ISIC_0010978.JPG
break,html.Screen,4_5_1,2023-11-02T20:04:02.874Z,,0,,,NaN,,,,,,false,,,,257327.59999990463,257327.39999997616,,257326.39999997616,,257341.024,8,400,,,
break_continue,html.Screen,4_5_2,2023-11-02T20:04:02.875Z,,0,,,NaN,,,,,,false,,,,257328.29999995232,257328.19999992847,,257327.89999997616,,257341.024,8,400,,,
sequence,flow.Sequence,4_5,2023-11-02T20:04:02.875Z,,0,,,5078.574999928474,completion,,,,,false,,,,257328.39999997616,257328.19999992847,252242.602,252245.69999992847,252249.625,257341.024,8,400,,,
trial,html.Screen,4_6_0,2023-11-02T20:04:06.766Z,,0,1,,3878.1759999284695,response,ISIC_0014666.JPG,12,ISIC_0029316.JPG,ISIC_0014666.JPG,false,1,keypress(m),500,261219.5,261219.19999992847,257320.812,257328.5,257341.024,261226.456,8,400,7,,ISIC_0029316.JPG
break,html.Screen,4_6_1,2023-11-02T20:04:06.767Z,,0,,,NaN,,,,,,false,,,,261221,261220.69999992847,,261219.69999992847,,261226.456,8,400,,,
break_continue,html.Screen,4_6_2,2023-11-02T20:04:06.768Z,,0,,,NaN,,,,,,false,,,,261221.5,261221.39999997616,,261221.09999990463,,261226.456,8,400,,,
sequence,flow.Sequence,4_6,2023-11-02T20:04:06.768Z,,0,,,3880.3759999761533,completion,,,,,false,,,,261221.69999992847,261221.39999997616,257320.812,257328.5,257341.024,261226.456,8,400,,,
trial,html.Screen,4_7_0,2023-11-02T20:04:10.326Z,,0,1,,3552.643999904627,response,ISIC_0022328.JPG,11,ISIC_2698722.JPG,ISIC_2698722.JPG,false,0,keypress(z),500,264779.39999997616,264779.09999990463,261220.194,261221.79999995232,261226.456,264785.303,8,400,8,,ISIC_0022328.JPG
break,html.Screen,4_7_1,2023-11-02T20:04:10.327Z,,0,,,NaN,,,,,,false,,,,264781,264780.59999990463,,264779.6999999285,,264785.303,8,400,,,
break_continue,html.Screen,4_7_2,2023-11-02T20:04:10.328Z,,0,,,NaN,,,,,,false,,,,264781.89999997616,264781.6999999285,,264781.1999999285,,264785.303,8,400,,,
sequence,flow.Sequence,4_7,2023-11-02T20:04:10.329Z,,0,,,3555.243999928469,completion,,,,,false,,,,264782.09999990463,264781.6999999285,261220.194,261221.69999992847,261226.456,264785.303,8,400,,,
trial,html.Screen,4_8_0,2023-11-02T20:04:14.960Z,,0,1,,4628.39699992846,response,ISIC_0027576.JPG,11,ISIC_0011276.JPG,ISIC_0011276.JPG,false,0,keypress(z),500,269414,269413.6999999285,264778.891,264782.2999999523,264785.303,269419.38,8,400,9,,ISIC_0027576.JPG
break,html.Screen,4_8_1,2023-11-02T20:04:14.962Z,,0,,,NaN,,,,,,false,,,,269415.5,269415.09999990463,,269414.1999999285,,269419.38,8,400,,,
break_continue,html.Screen,4_8_2,2023-11-02T20:04:14.962Z,,0,,,NaN,,,,,,false,,,,269416,269415.89999997616,,269415.59999990463,,269419.38,8,400,,,
sequence,flow.Sequence,4_8,2023-11-02T20:04:14.963Z,,0,,,4630.596999976144,completion,,,,,false,,,,269416.2999999523,269415.89999997616,264778.891,264782.1999999285,264785.303,269419.38,8,400,,,
trial,html.Screen,4_9_0,2023-11-02T20:04:19.948Z,,0,1,,4982.219999904628,response,ISIC_4001990.JPG,12,ISIC_0062471.JPG,ISIC_4001990.JPG,false,1,keypress(m),500,274401.7999999523,274401.59999990463,269412.533,269416.39999997616,269419.38,274407.258,8,400,10,,ISIC_0062471.JPG
break,html.Screen,4_9_1,2023-11-02T20:04:19.950Z,,0,,,NaN,,,,,,false,,,,274403.09999990463,274402.7999999523,,274402,,274407.258,8,400,,,
break_continue,html.Screen,4_9_2,2023-11-02T20:04:19.950Z,,0,,,NaN,,,,,,false,,,,274403.59999990463,274403.5,,274403.2999999523,,274407.258,8,400,,,
sequence,flow.Sequence,4_9,2023-11-02T20:04:19.950Z,,0,,,4984.119999999995,completion,,,,,false,,,,274403.6999999285,274403.5,269412.533,269416.2999999523,269419.38,274407.258,8,400,,,
trial,html.Screen,4_10_0,2023-11-02T20:04:24.242Z,,0,1,,4287.7420000000275,response,ISIC_0029761.JPG,7,ISIC_5239856.JPG,ISIC_5239856.JPG,false,0,keypress(z),500,278695.1999999285,278695,274400.434,274403.7999999523,274407.258,278701.465,8,400,11,,ISIC_0029761.JPG
break,html.Screen,4_10_1,2023-11-02T20:04:24.243Z,,0,,,NaN,,,,,,false,,,,278696.39999997616,278696.09999990463,,278695.39999997616,,278701.465,8,400,,,
break_continue,html.Screen,4_10_2,2023-11-02T20:04:24.243Z,,0,,,NaN,,,,,,false,,,,278696.7999999523,278696.6999999285,,278696.5,,278701.465,8,400,,,
sequence,flow.Sequence,4_10,2023-11-02T20:04:24.243Z,,0,,,4289.441999928502,completion,,,,,false,,,,278697,278696.6999999285,274400.434,274403.7999999523,274407.258,278701.465,8,400,,,
trial,html.Screen,4_11_0,2023-11-02T20:04:28.694Z,,0,1,,4445.834999952291,response,ISIC_1558504.JPG,11,ISIC_0031214.JPG,ISIC_1558504.JPG,false,1,keypress(m),500,283147.5,283147.2999999523,278695.8,278697.09999990463,278701.465,283155.348,8,400,12,,ISIC_0031214.JPG
break,html.Screen,4_11_1,2023-11-02T20:04:28.695Z,,0,,,NaN,,,,,,false,,,,283148.89999997616,283148.6999999285,,283147.7999999523,,283155.348,8,400,,,
break_continue,html.Screen,4_11_2,2023-11-02T20:04:28.696Z,,0,,,NaN,,,,,,false,,,,283149.5,283149.2999999523,,283149,,283155.348,8,400,,,
sequence,flow.Sequence,4_11,2023-11-02T20:04:28.696Z,,0,,,4447.834999952291,completion,,,,,false,,,,283149.59999990463,283149.2999999523,278695.8,278697.09999990463,278701.465,283155.348,8,400,,,
trial,html.Screen,4_12_0,2023-11-02T20:04:33.867Z,,0,1,,5164.751999904634,response,ISIC_0025243.JPG,10,ISIC_8135931.JPG,ISIC_0025243.JPG,false,1,keypress(m),500,288320.2999999523,288320.09999990463,283141.962,283149.7999999523,283155.348,288323.415,8,400,13,,ISIC_8135931.JPG
break,html.Screen,4_12_1,2023-11-02T20:04:33.868Z,,0,,,NaN,,,,,,false,,,,288321.7999999523,288321.39999997616,,288320.5,,288323.415,8,400,,,
break_continue,html.Screen,4_12_2,2023-11-02T20:04:33.869Z,,0,,,NaN,,,,,,false,,,,288322.2999999523,288322.09999990463,,288321.89999997616,,288323.415,8,400,,,
sequence,flow.Sequence,4_12,2023-11-02T20:04:33.869Z,,0,,,5166.751999904634,completion,,,,,false,,,,288322.5,288322.09999990463,283141.962,283149.6999999285,283155.348,288323.415,8,400,,,
trial,html.Screen,4_13_0,2023-11-02T20:04:38.166Z,,0,1,,4296.284999928495,response,ISIC_0010749.JPG,7,ISIC_6691962.JPG,ISIC_6691962.JPG,false,0,keypress(z),500,292620.09999990463,292619.6999999285,288316.794,288322.5,288323.415,292624.549,8,400,14,,ISIC_0010749.JPG
break,html.Screen,4_13_1,2023-11-02T20:04:38.168Z,,0,,,NaN,,,,,,false,,,,292621.1999999285,292621,,292620.2999999523,,292624.549,8,400,,,
break_continue,html.Screen,4_13_2,2023-11-02T20:04:38.168Z,,0,,,NaN,,,,,,false,,,,292621.6999999285,292621.59999990463,,292621.2999999523,,292624.549,8,400,,,
sequence,flow.Sequence,4_13,2023-11-02T20:04:38.168Z,,0,,,4298.1849999046535,completion,,,,,false,,,,292621.7999999523,292621.59999990463,288316.794,288322.5,288323.415,292624.549,8,400,,,
trial,html.Screen,4_14_0,2023-11-02T20:04:43.020Z,,0,1,,4849.250999952317,response,ISIC_3623368.JPG,6,ISIC_7888517.JPG,ISIC_7888517.JPG,false,0,keypress(z),500,297474.09999990463,297473.7999999523,292619.02,292622.09999990463,292624.549,297480.674,8,400,15,,ISIC_3623368.JPG
break,html.Screen,4_14_1,2023-11-02T20:04:43.022Z,,0,,,NaN,,,,,,false,,,,297475.39999997616,297475.09999990463,,297474.2999999523,,297480.674,8,400,,,
break_continue,html.Screen,4_14_2,2023-11-02T20:04:43.022Z,,0,,,NaN,,,,,,false,,,,297475.89999997616,297475.7999999523,,297475.59999990463,,297480.674,8,400,,,
sequence,flow.Sequence,4_14,2023-11-02T20:04:43.023Z,,0,,,4851.250999952317,completion,,,,,false,,,,297476.09999990463,297475.7999999523,292619.02,292621.89999997616,292624.549,297480.674,8,400,,,
trial,html.Screen,4_15_0,2023-11-02T20:04:47.233Z,,0,1,,4206.025999928475,response,ISIC_0033878.JPG,12,ISIC_7218890.JPG,ISIC_7218890.JPG,false,0,keypress(z),500,301687,301686.6999999285,297474.059,297476.2999999523,297480.674,301691.542,8,400,16,,ISIC_0033878.JPG
break,html.Screen,4_15_1,2023-11-02T20:04:47.235Z,,0,,,NaN,,,,,,false,,,,301688.39999997616,301688.09999990463,,301687.2999999523,,301691.542,8,400,,,
break_continue,html.Screen,4_15_2,2023-11-02T20:04:47.235Z,,0,,,NaN,,,,,,false,,,,301688.89999997616,301688.7999999523,,301688.59999990463,,301691.542,8,400,,,
sequence,flow.Sequence,4_15,2023-11-02T20:04:47.235Z,,0,,,4208.125999952317,completion,,,,,false,,,,301689.09999990463,301688.7999999523,297474.059,297476.1999999285,297480.674,301691.542,8,400,,,
trial,html.Screen,4_16_0,2023-11-02T20:04:50.695Z,,0,1,,3456.5579999046167,response,ISIC_0871853.JPG,11,ISIC_0011007.JPG,ISIC_0871853.JPG,false,1,keypress(m),500,305148.39999997616,305148.09999990463,301684.923,301689.2999999523,301691.542,305153.232,8,400,17,,ISIC_0011007.JPG
break,html.Screen,4_16_1,2023-11-02T20:04:50.696Z,,0,,,NaN,,,,,,false,,,,305150,305149.6999999285,,305148.6999999285,,305153.232,8,400,,,
break_continue,html.Screen,4_16_2,2023-11-02T20:04:50.697Z,,0,,,NaN,,,,,,false,,,,305150.5,305150.39999997616,,305150.09999990463,,305153.232,8,400,,,
sequence,flow.Sequence,4_16,2023-11-02T20:04:50.697Z,,0,,,3458.8579999761423,completion,,,,,false,,,,305150.6999999285,305150.39999997616,301684.923,301689.09999990463,301691.542,305153.232,8,400,,,
trial,html.Screen,4_17_0,2023-11-02T20:04:57.873Z,,0,1,,7173.067999952298,response,ISIC_0057655.JPG,10,ISIC_0003132.JPG,ISIC_0003132.JPG,false,0,keypress(z),500,312326.6999999285,312326.2999999523,305146.984,305150.89999997616,305153.232,312333.265,8,400,18,,ISIC_0057655.JPG
break,html.Screen,4_17_1,2023-11-02T20:04:57.875Z,,0,,,NaN,,,,,,false,,,,312328.2999999523,312328,,312327.09999990463,,312333.265,8,400,,,
break_continue,html.Screen,4_17_2,2023-11-02T20:04:57.875Z,,0,,,NaN,,,,,,false,,,,312328.7999999523,312328.6999999285,,312328.5,,312333.265,8,400,,,
sequence,flow.Sequence,4_17,2023-11-02T20:04:57.875Z,,0,,,7175.467999928456,completion,,,,,false,,,,312329,312328.6999999285,305146.984,305150.7999999523,305153.232,312333.265,8,400,,,
trial,html.Screen,4_18_0,2023-11-02T20:05:01.131Z,,0,1,,3250.634999976144,response,ISIC_0065192.JPG,10,ISIC_1761799.JPG,ISIC_1761799.JPG,false,0,keypress(z),500,315584.1999999285,315583.89999997616,312326.658,312329.09999990463,312333.265,315586.883,8,400,19,,ISIC_0065192.JPG
break,html.Screen,4_18_1,2023-11-02T20:05:01.132Z,,0,,,NaN,,,,,,false,,,,315585.6999999285,315585.39999997616,,315584.39999997616,,315586.883,8,400,,,
break_continue,html.Screen,4_18_2,2023-11-02T20:05:01.133Z,,0,,,NaN,,,,,,false,,,,315586.1999999285,315586.09999990463,,315585.89999997616,,315586.883,8,400,,,
sequence,flow.Sequence,4_18,2023-11-02T20:05:01.133Z,,0,,,3252.8349999046186,completion,,,,,false,,,,315586.39999997616,315586.09999990463,312326.658,312329.09999990463,312333.265,315586.883,8,400,,,
trial,html.Screen,4_19_0,2023-11-02T20:05:04.159Z,,0,1,,3025.1170000000275,response,ISIC_0046645.JPG,13,ISIC_0008768.JPG,ISIC_0008768.JPG,false,0,keypress(z),500,318612.2999999523,318612,315579.924,315586.5,315586.883,318618.529,8,400,20,,ISIC_0046645.JPG
break,html.Screen,4_19_1,2023-11-02T20:05:04.160Z,,0,,,NaN,,,,,,false,,,,318613.59999990463,318613.2999999523,,318612.5,,318618.529,8,400,,,
break_continue,html.Screen,4_19_2,2023-11-02T20:05:04.161Z,,0,,,NaN,,,,,,false,,,,318614.1999999285,318614.09999990463,,318613.89999997616,,318618.529,8,400,,,
sequence,flow.Sequence,4_19,2023-11-02T20:05:04.161Z,,0,,,3027.21699990466,completion,,,,,false,,,,318614.2999999523,318614.09999990463,315579.924,315586.5,315586.883,318618.529,8,400,,,
trial,html.Screen,4_20_0,2023-11-02T20:05:07.891Z,,0,1,,3725.4710000000196,response,ISIC_7545340.JPG,6,ISIC_0059593.JPG,ISIC_7545340.JPG,false,1,keypress(m),500,322344.2999999523,322344,318611.504,318614.5,318618.529,322350.64,8,400,21,,ISIC_0059593.JPG
break,html.Screen,4_20_1,2023-11-02T20:05:07.892Z,,0,,,NaN,,,,,,false,,,,322345.7999999523,322345.39999997616,,322344.59999990463,,322350.64,8,400,,,
break_continue,html.Screen,4_20_2,2023-11-02T20:05:07.893Z,,0,,,NaN,,,,,,false,,,,322346.39999997616,322346.2999999523,,322346,,322350.64,8,400,,,
sequence,flow.Sequence,4_20,2023-11-02T20:05:07.893Z,,0,,,3727.770999952336,completion,,,,,false,,,,322346.59999990463,322346.2999999523,318611.504,318614.39999997616,318618.529,322350.64,8,400,,,
trial,html.Screen,4_21_0,2023-11-02T20:05:15.436Z,,0,1,,7538.459999904619,response,ISIC_7205745.JPG,8,ISIC_6561111.JPG,ISIC_7205745.JPG,false,1,keypress(m),500,329889.39999997616,329889.09999990463,322343.887,322346.6999999285,322350.64,329891.504,8,400,22,,ISIC_6561111.JPG
break,html.Screen,4_21_1,2023-11-02T20:05:15.437Z,,0,,,NaN,,,,,,false,,,,329890.6999999285,329890.39999997616,,329889.59999990463,,329891.504,8,400,,,
break_continue,html.Screen,4_21_2,2023-11-02T20:05:15.438Z,,0,,,NaN,,,,,,false,,,,329891.39999997616,329891.1999999285,,329890.89999997616,,329891.504,8,400,,,
sequence,flow.Sequence,4_21,2023-11-02T20:05:15.439Z,,0,,,7540.5599999284605,completion,,,,,false,,,,329892.1999999285,329891.1999999285,322343.887,322346.6999999285,322350.64,329891.504,8,400,,,
trial,html.Screen,4_22_0,2023-11-02T20:05:23.702Z,,0,1,,8264.195999928459,response,ISIC_0046223.JPG,7,ISIC_7724635.JPG,ISIC_7724635.JPG,false,0,keypress(z),500,338155.89999997616,338155.6999999285,329885.544,329892.39999997616,329891.504,338160.73,8,400,23,,ISIC_0046223.JPG
break,html.Screen,4_22_1,2023-11-02T20:05:23.704Z,,0,,,NaN,,,,,,false,,,,338157.39999997616,338157.09999990463,,338156.1999999285,,338160.73,8,400,,,
break_continue,html.Screen,4_22_2,2023-11-02T20:05:23.704Z,,0,,,NaN,,,,,,false,,,,338157.7999999523,338157.7999999523,,338157.5,,338160.73,8,400,,,
sequence,flow.Sequence,4_22,2023-11-02T20:05:23.704Z,,0,,,8266.295999952301,completion,,,,,false,,,,338158,338157.7999999523,329885.544,329892.39999997616,329891.504,338160.73,8,400,,,
trial,html.Screen,4_23_0,2023-11-02T20:05:28.011Z,,0,1,,4303.569999952335,response,ISIC_5400609.JPG,5,ISIC_3428523.JPG,ISIC_5400609.JPG,false,1,keypress(m),500,342464.6999999285,342464.2999999523,338153.682,338158.09999990463,338160.73,342468.811,8,400,24,,ISIC_3428523.JPG
break,html.Screen,4_23_1,2023-11-02T20:05:28.013Z,,0,,,NaN,,,,,,false,,,,342466.2999999523,342465.89999997616,,342465,,342468.811,8,400,,,
break_continue,html.Screen,4_23_2,2023-11-02T20:05:28.013Z,,0,,,NaN,,,,,,false,,,,342467,342466.7999999523,,342466.5,,342468.811,8,400,,,
sequence,flow.Sequence,4_23,2023-11-02T20:05:28.014Z,,0,,,4306.069999952335,completion,,,,,false,,,,342467.2999999523,342466.7999999523,338153.682,338158.09999990463,338160.73,342468.811,8,400,,,
trial,html.Screen,4_24_0,2023-11-02T20:05:32.822Z,,0,1,,4806.088999976171,response,ISIC_0025779.JPG,10,ISIC_0026296.JPG,ISIC_0026296.JPG,false,0,keypress(z),500,347275.09999990463,347274.89999997616,342462.141,342467.59999990463,342468.811,347291.741,8,400,25,,ISIC_0025779.JPG
break,html.Screen,4_24_1,2023-11-02T20:05:32.823Z,,0,,,NaN,,,,,,false,,,,347276.7999999523,347276.2999999523,,347275.39999997616,,347291.741,8,400,,,
break_continue,html.Screen,4_24_2,2023-11-02T20:05:32.824Z,,0,,,NaN,,,,,,false,,,,347277.5,347277.2999999523,,347276.89999997616,,347291.741,8,400,,,
sequence,flow.Sequence,4_24,2023-11-02T20:05:32.824Z,,0,,,4808.488999952329,completion,,,,,false,,,,347277.6999999285,347277.2999999523,342462.141,342467.5,342468.811,347291.741,8,400,,,
trial,html.Screen,4_25_0,2023-11-02T20:05:38.192Z,,0,1,,5353.158999976178,response,ISIC_8268025.JPG,7,ISIC_4322723.JPG,ISIC_4322723.JPG,false,0,keypress(z),500,352645.09999990463,352644.89999997616,347270.453,347277.89999997616,347291.741,352652.662,8,400,26,,ISIC_8268025.JPG
break,html.Screen,4_25_1,2023-11-02T20:05:38.193Z,,0,,,NaN,,,,,,false,,,,352646.59999990463,352646.2999999523,,352645.2999999523,,352652.662,8,400,,,
break_continue,html.Screen,4_25_2,2023-11-02T20:05:38.193Z,,0,,,NaN,,,,,,false,,,,352647.09999990463,352647,,352646.6999999285,,352652.662,8,400,,,
sequence,flow.Sequence,4_25,2023-11-02T20:05:38.194Z,,0,,,5355.25900000002,completion,,,,,false,,,,352647.1999999285,352647,347270.453,347277.89999997616,347291.741,352652.662,8,400,,,
trial,html.Screen,4_26_0,2023-11-02T20:05:44.635Z,,0,1,,6435.437999904621,response,ISIC_6715897.JPG,11,ISIC_7298784.JPG,ISIC_6715897.JPG,false,1,keypress(m),500,359088.2999999523,359088.09999990463,352645.832,352647.39999997616,352652.662,359090.459,8,400,27,,ISIC_7298784.JPG
break,html.Screen,4_26_1,2023-11-02T20:05:44.636Z,,0,,,NaN,,,,,,false,,,,359089.5,359089.2999999523,,359088.5,,359090.459,8,400,,,
break_continue,html.Screen,4_26_2,2023-11-02T20:05:44.636Z,,0,,,NaN,,,,,,false,,,,359090,359089.89999997616,,359089.6999999285,,359090.459,8,400,,,
sequence,flow.Sequence,4_26,2023-11-02T20:05:44.637Z,,0,,,6437.237999976147,completion,,,,,false,,,,359090.1999999285,359089.89999997616,352645.832,352647.2999999523,352652.662,359090.459,8,400,,,
trial,html.Screen,4_27_0,2023-11-02T20:05:49.840Z,,0,1,,5202.640999904659,response,ISIC_1440063.JPG,6,ISIC_4715386.JPG,ISIC_1440063.JPG,false,1,keypress(m),500,364293.2999999523,364293.09999990463,359084.453,359090.2999999523,359090.459,364300.368,8,400,28,,ISIC_4715386.JPG
break,html.Screen,4_27_1,2023-11-02T20:05:49.841Z,,0,,,NaN,,,,,,false,,,,364294.89999997616,364294.5,,364293.59999990463,,364300.368,8,400,,,
break_continue,html.Screen,4_27_2,2023-11-02T20:05:49.842Z,,0,,,NaN,,,,,,false,,,,364295.59999990463,364295.5,,364295.09999990463,,364300.368,8,400,,,
sequence,flow.Sequence,4_27,2023-11-02T20:05:49.842Z,,0,,,5205.0410000000265,completion,,,,,false,,,,364295.89999997616,364295.5,359084.453,359090.2999999523,359090.459,364300.368,8,400,,,
trial,html.Screen,4_28_0,2023-11-02T20:05:53.735Z,,0,1,,3888.231999904616,response,ISIC_0024307.JPG,6,ISIC_2479512.JPG,ISIC_2479512.JPG,false,0,keypress(z),500,368188.6999999285,368188.59999990463,364293.409,364296.09999990463,364300.368,368192.091,8,400,29,,ISIC_0024307.JPG
break,html.Screen,4_28_1,2023-11-02T20:05:53.736Z,,0,,,NaN,,,,,,false,,,,368189.59999990463,368189.2999999523,,368188.89999997616,,368192.091,8,400,,,
break_continue,html.Screen,4_28_2,2023-11-02T20:05:53.736Z,,0,,,NaN,,,,,,false,,,,368189.7999999523,368189.7999999523,,368189.6999999285,,368192.091,8,400,,,
sequence,flow.Sequence,4_28,2023-11-02T20:05:53.736Z,,0,,,3889.4319999522995,completion,,,,,false,,,,368189.89999997616,368189.7999999523,364293.409,364296,364300.368,368192.091,8,400,,,
trial,html.Screen,4_29_0,2023-11-02T20:05:57.916Z,,0,1,,4177.308999976143,response,ISIC_0894785.JPG,5,ISIC_5150938.JPG,ISIC_5150938.JPG,false,0,keypress(z),500,372369.6999999285,372369.39999997616,368185.286,368189.89999997616,368192.091,372375.314,8,400,30,,ISIC_0894785.JPG
break,html.Screen,4_29_1,2023-11-02T20:05:57.917Z,,0,,,NaN,,,,,,false,,,,372371,372370.6999999285,,372369.89999997616,,372375.314,8,400,,,
break_continue,html.Screen,4_29_2,2023-11-02T20:05:57.918Z,,0,,,NaN,,,,,,false,,,,372371.39999997616,372371.1999999285,,372371,,372375.314,8,400,,,
sequence,flow.Sequence,4_29,2023-11-02T20:05:57.918Z,,0,,,4179.1089999284595,completion,,,,,false,,,,372371.5,372371.1999999285,368185.286,368189.89999997616,368192.091,372375.314,8,400,,,
trial,html.Screen,4_30_0,2023-11-02T20:06:07.350Z,,0,1,,9428.085999976145,response,ISIC_0056921.JPG,5,ISIC_0067127.JPG,ISIC_0056921.JPG,false,1,keypress(m),500,381803.6999999285,381803.39999997616,372368.793,372371.59999990463,372375.314,381810.022,8,400,31,,ISIC_0067127.JPG
break,html.Screen,4_30_1,2023-11-02T20:06:07.351Z,,0,,,NaN,,,,,,false,,,,381805.1999999285,381804.59999990463,,381803.89999997616,,381810.022,8,400,,,
break_continue,html.Screen,4_30_2,2023-11-02T20:06:07.352Z,,0,,,NaN,,,,,,false,,,,381805.59999990463,381805.5,,381805.2999999523,,381810.022,8,400,,,
sequence,flow.Sequence,4_30,2023-11-02T20:06:07.352Z,,0,,,9430.185999999987,completion,,,,,false,,,,381805.6999999285,381805.5,372368.793,372371.59999990463,372375.314,381810.022,8,400,,,
trial,html.Screen,4_31_0,2023-11-02T20:06:11.756Z,,0,1,,4399.077999904635,response,ISIC_6616542.JPG,11,ISIC_0071171.JPG,ISIC_0071171.JPG,false,0,keypress(z),500,386209.39999997616,386209.09999990463,381803.324,381805.89999997616,381810.022,386215.168,8,400,32,,ISIC_6616542.JPG
break,html.Screen,4_31_1,2023-11-02T20:06:11.757Z,,0,,,NaN,,,,,,false,,,,386210.6999999285,386210.5,,386209.59999990463,,386215.168,8,400,,,
break_continue,html.Screen,4_31_2,2023-11-02T20:06:11.758Z,,0,,,NaN,,,,,,false,,,,386211.09999990463,386211,,386210.89999997616,,386215.168,8,400,,,
sequence,flow.Sequence,4_31,2023-11-02T20:06:11.758Z,,0,,,4400.978000000003,completion,,,,,false,,,,386211.2999999523,386211,381803.324,381805.7999999523,381810.022,386215.168,8,400,,,
trial,html.Screen,4_32_0,2023-11-02T20:06:16.551Z,,0,1,,4789.331999999995,response,ISIC_0010861.JPG,7,ISIC_0009924.JPG,ISIC_0010861.JPG,false,1,keypress(m),500,391004.6999999285,391004.5,386208.575,386211.39999997616,386215.168,391008.794,8,400,33,,ISIC_0009924.JPG
break,html.Screen,4_32_1,2023-11-02T20:06:16.553Z,,0,,,NaN,,,,,,false,,,,391006.2999999523,391005.89999997616,,391004.89999997616,,391008.794,8,400,,,
break_continue,html.Screen,4_32_2,2023-11-02T20:06:16.553Z,,0,,,NaN,,,,,,false,,,,391006.89999997616,391006.7999999523,,391006.5,,391008.794,8,400,,,
sequence,flow.Sequence,4_32,2023-11-02T20:06:16.553Z,,0,,,4791.631999952311,completion,,,,,false,,,,391007.09999990463,391006.7999999523,386208.575,386211.39999997616,386215.168,391008.794,8,400,,,
trial,html.Screen,4_33_0,2023-11-02T20:06:20.146Z,,0,1,,3590.505999952322,response,ISIC_9646599.JPG,12,ISIC_0072714.JPG,ISIC_9646599.JPG,false,1,keypress(m),500,394599.59999990463,394599.2999999523,391001.849,391007.1999999285,391008.794,394602.322,8,400,34,,ISIC_0072714.JPG
break,html.Screen,4_33_1,2023-11-02T20:06:20.147Z,,0,,,NaN,,,,,,false,,,,394600.89999997616,394600.6999999285,,394599.7999999523,,394602.322,8,400,,,
break_continue,html.Screen,4_33_2,2023-11-02T20:06:20.150Z,,0,,,NaN,,,,,,false,,,,394603.5,394603.39999997616,,394602.7999999523,,394602.322,8,400,,,
sequence,flow.Sequence,4_33,2023-11-02T20:06:20.150Z,,0,,,3594.6059999761637,completion,,,,,false,,,,394603.6999999285,394603.39999997616,391001.849,391007.1999999285,391008.794,394602.322,8,400,,,
trial,html.Screen,4_34_0,2023-11-02T20:06:23.692Z,,0,1,,3543.277999904647,response,ISIC_0015071.JPG,4,ISIC_0033800.JPG,ISIC_0033800.JPG,false,0,keypress(z),500,398146,398145.59999990463,394595.645,394603.89999997616,394602.322,398161.766,8,400,35,,ISIC_0015071.JPG
break,html.Screen,4_34_1,2023-11-02T20:06:23.694Z,,0,,,NaN,,,,,,false,,,,398147.1999999285,398147,,398146.1999999285,,398161.766,8,400,,,
break_continue,html.Screen,4_34_2,2023-11-02T20:06:23.694Z,,0,,,NaN,,,,,,false,,,,398147.6999999285,398147.5,,398147.2999999523,,398161.766,8,400,,,
sequence,flow.Sequence,4_34,2023-11-02T20:06:23.694Z,,0,,,3545.1780000000144,completion,,,,,false,,,,398147.7999999523,398147.5,394595.645,394603.7999999523,394602.322,398161.766,8,400,,,
trial,html.Screen,4_35_0,2023-11-02T20:06:28.376Z,,0,1,,4667.233999999997,response,ISIC_0071352.JPG,4,ISIC_0350472.JPG,ISIC_0071352.JPG,false,1,keypress(m),500,402829.39999997616,402829,398140.922,398147.89999997616,398161.766,402836.832,8,400,36,,ISIC_0350472.JPG
break,html.Screen,4_35_1,2023-11-02T20:06:28.377Z,,0,,,NaN,,,,,,false,,,,402830.59999990463,402830.2999999523,,402829.5,,402836.832,8,400,,,
break_continue,html.Screen,4_35_2,2023-11-02T20:06:28.377Z,,0,,,NaN,,,,,,false,,,,402831,402830.89999997616,,402830.6999999285,,402836.832,8,400,,,
sequence,flow.Sequence,4_35,2023-11-02T20:06:28.378Z,,0,,,4669.133999976155,completion,,,,,false,,,,402831.1999999285,402830.89999997616,398140.922,398147.7999999523,398161.766,402836.832,8,400,,,
trial,html.Screen,4_36_0,2023-11-02T20:06:34.691Z,,0,1,,6306.967999952321,response,ISIC_0013364.JPG,11,ISIC_6225409.JPG,ISIC_6225409.JPG,false,0,keypress(z),500,409144.09999990463,409143.7999999523,402829.981,402831.2999999523,402836.832,409149.696,8,400,37,,ISIC_0013364.JPG
break,html.Screen,4_36_1,2023-11-02T20:06:34.692Z,,0,,,NaN,,,,,,false,,,,409145.59999990463,409145.2999999523,,409144.5,,409149.696,8,400,,,
break_continue,html.Screen,4_36_2,2023-11-02T20:06:34.692Z,,0,,,NaN,,,,,,false,,,,409146,409146,,409145.7999999523,,409149.696,8,400,,,
sequence,flow.Sequence,4_36,2023-11-02T20:06:34.693Z,,0,,,6309.168000000005,completion,,,,,false,,,,409146.2999999523,409146,402829.981,402831.1999999285,402836.832,409149.696,8,400,,,
trial,html.Screen,4_37_0,2023-11-02T20:06:40.298Z,,0,1,,5601.903999904636,response,ISIC_0013651.JPG,5,ISIC_4472903.JPG,ISIC_4472903.JPG,false,0,keypress(z),500,414751.89999997616,414751.59999990463,409142.782,409146.39999997616,409149.696,414761.958,8,400,38,,ISIC_0013651.JPG
break,html.Screen,4_37_1,2023-11-02T20:06:40.300Z,,0,,,NaN,,,,,,false,,,,414753.5,414753.09999990463,,414752.09999990463,,414761.958,8,400,,,
break_continue,html.Screen,4_37_2,2023-11-02T20:06:40.301Z,,0,,,NaN,,,,,,false,,,,414754.39999997616,414753.89999997616,,414753.59999990463,,414761.958,8,400,,,
sequence,flow.Sequence,4_37,2023-11-02T20:06:40.301Z,,0,,,5604.203999976162,completion,,,,,false,,,,414754.6999999285,414753.89999997616,409142.782,409146.39999997616,409149.696,414761.958,8,400,,,
trial,html.Screen,4_38_0,2023-11-02T20:06:43.704Z,,0,1,,3395.6419999046484,response,ISIC_1566931.JPG,9,ISIC_0046917.JPG,ISIC_1566931.JPG,false,1,keypress(m),500,418157.7999999523,418157.59999990463,414755.569,414754.89999997616,414761.958,418161.191,8,400,39,,ISIC_0046917.JPG
break,html.Screen,4_38_1,2023-11-02T20:06:43.706Z,,0,,,NaN,,,,,,false,,,,418159.1999999285,418158.89999997616,,418158.09999990463,,418161.191,8,400,,,
break_continue,html.Screen,4_38_2,2023-11-02T20:06:43.706Z,,0,,,NaN,,,,,,false,,,,418159.59999990463,418159.59999990463,,418159.2999999523,,418161.191,8,400,,,
sequence,flow.Sequence,4_38,2023-11-02T20:06:43.706Z,,0,,,3397.6419999046484,completion,,,,,false,,,,418160,418159.59999990463,414755.569,414754.7999999523,414761.958,418161.191,8,400,,,
trial,html.Screen,4_39_0,2023-11-02T20:06:47.713Z,,0,1,,4004.8090000000084,response,ISIC_0032709.JPG,5,ISIC_0010723.JPG,ISIC_0032709.JPG,false,1,keypress(m),500,422166.2999999523,422166,418154.929,418160.1999999285,418161.191,422171.001,8,400,40,,ISIC_0010723.JPG
break,html.Screen,4_39_1,2023-11-02T20:06:47.714Z,,0,,,NaN,,,,,,false,,,,422167.59999990463,422167.2999999523,,422166.5,,422171.001,8,400,,,
break_continue,html.Screen,4_39_2,2023-11-02T20:06:47.714Z,,0,,,NaN,,,,,,false,,,,422168,422167.89999997616,,422167.6999999285,,422171.001,8,400,,,
sequence,flow.Sequence,4_39,2023-11-02T20:06:47.715Z,,0,,,4006.7089999761665,completion,,,,,false,,,,422168.09999990463,422167.89999997616,418154.929,418160.1999999285,418161.191,422171.001,8,400,,,
trial,html.Screen,4_40_0,2023-11-02T20:06:51.322Z,,0,1,,3604.398999976169,response,ISIC_6507640.JPG,7,ISIC_1877535.JPG,ISIC_6507640.JPG,false,1,keypress(m),500,425775.6999999285,425775.39999997616,422164.642,422168.2999999523,422171.001,425778.37,8,400,41,,ISIC_1877535.JPG
break,html.Screen,4_40_1,2023-11-02T20:06:51.323Z,,0,,,NaN,,,,,,false,,,,425776.89999997616,425776.59999990463,,425775.89999997616,,425778.37,8,400,,,
break_continue,html.Screen,4_40_2,2023-11-02T20:06:51.324Z,,0,,,NaN,,,,,,false,,,,425777.2999999523,425777.1999999285,,425777.09999990463,,425778.37,8,400,,,
sequence,flow.Sequence,4_40,2023-11-02T20:06:51.324Z,,0,,,3606.198999928485,completion,,,,,false,,,,425777.39999997616,425777.1999999285,422164.642,422168.1999999285,422171.001,425778.37,8,400,,,
trial,html.Screen,4_41_0,2023-11-02T20:06:57.525Z,,0,1,,6199.630000000005,response,ISIC_4525317.JPG,13,ISIC_0064979.JPG,ISIC_0064979.JPG,false,0,keypress(z),500,431978.2999999523,431978,425771.909,425777.59999990463,425778.37,431980.289,8,400,42,,ISIC_4525317.JPG
break,html.Screen,4_41_1,2023-11-02T20:06:57.526Z,,0,,,NaN,,,,,,false,,,,431979.5,431979.1999999285,,431978.39999997616,,431980.289,8,400,,,
break_continue,html.Screen,4_41_2,2023-11-02T20:06:57.526Z,,0,,,NaN,,,,,,false,,,,431979.89999997616,431979.7999999523,,431979.59999990463,,431980.289,8,400,,,
sequence,flow.Sequence,4_41,2023-11-02T20:06:57.526Z,,0,,,6201.429999952321,completion,,,,,false,,,,431980,431979.7999999523,425771.909,425777.59999990463,425778.37,431980.289,8,400,,,
trial,html.Screen,4_42_0,2023-11-02T20:07:05.433Z,,0,1,,7906.21100000001,response,ISIC_0031543.JPG,9,ISIC_0053791.JPG,ISIC_0053791.JPG,false,0,keypress(z),500,439886.7999999523,439886.5,431973.951,431980.09999990463,431980.289,439888.783,8,400,43,,ISIC_0031543.JPG
break,html.Screen,4_42_1,2023-11-02T20:07:05.434Z,,0,,,NaN,,,,,,false,,,,439887.89999997616,439887.6999999285,,439886.89999997616,,439888.783,8,400,,,
break_continue,html.Screen,4_42_2,2023-11-02T20:07:05.435Z,,0,,,NaN,,,,,,false,,,,439888.39999997616,439888.2999999523,,439888.09999990463,,439888.783,8,400,,,
sequence,flow.Sequence,4_42,2023-11-02T20:07:05.435Z,,0,,,7908.0109999523265,completion,,,,,false,,,,439888.5,439888.2999999523,431973.951,431980.09999990463,431980.289,439888.783,8,400,,,
trial,html.Screen,4_43_0,2023-11-02T20:07:09.363Z,,0,1,,3927.8169999046368,response,ISIC_8423248.JPG,9,ISIC_4536709.JPG,ISIC_8423248.JPG,false,1,keypress(m),500,443816.7999999523,443816.59999990463,439882.683,439888.59999990463,439888.783,443822.14,8,400,44,,ISIC_4536709.JPG
break,html.Screen,4_43_1,2023-11-02T20:07:09.365Z,,0,,,NaN,,,,,,false,,,,443818.1999999285,443817.89999997616,,443817.09999990463,,443822.14,8,400,,,
break_continue,html.Screen,4_43_2,2023-11-02T20:07:09.365Z,,0,,,NaN,,,,,,false,,,,443818.59999990463,443818.5,,443818.2999999523,,443822.14,8,400,,,
sequence,flow.Sequence,4_43,2023-11-02T20:07:09.365Z,,0,,,3929.717000000004,completion,,,,,false,,,,443818.7999999523,443818.5,439882.683,439888.59999990463,439888.783,443822.14,8,400,,,
trial,html.Screen,4_44_0,2023-11-02T20:07:13.294Z,,0,1,,3925.0599999284605,response,ISIC_0865706.JPG,12,ISIC_7563744.JPG,ISIC_7563744.JPG,false,0,keypress(z),500,447747.5,447747.1999999285,443815.731,443818.89999997616,443822.14,447763.313,8,400,45,,ISIC_0865706.JPG
break,html.Screen,4_44_1,2023-11-02T20:07:13.295Z,,0,,,NaN,,,,,,false,,,,447748.89999997616,447748.59999990463,,447747.6999999285,,447763.313,8,400,,,
break_continue,html.Screen,4_44_2,2023-11-02T20:07:13.296Z,,0,,,NaN,,,,,,false,,,,447749.2999999523,447749.1999999285,,447749,,447763.313,8,400,,,
sequence,flow.Sequence,4_44,2023-11-02T20:07:13.296Z,,0,,,3927.0599999284605,completion,,,,,false,,,,447749.5,447749.1999999285,443815.731,443818.89999997616,443822.14,447763.313,8,400,,,
trial,html.Screen,4_45_0,2023-11-02T20:07:17.735Z,,0,1,,4424.786999904609,response,ISIC_0000434.JPG,9,ISIC_0786233.JPG,ISIC_0000434.JPG,false,1,keypress(m),500,452188.39999997616,452188.09999990463,447742.543,447749.6999999285,447763.313,452195.672,8,400,46,,ISIC_0786233.JPG
break,html.Screen,4_45_1,2023-11-02T20:07:17.736Z,,0,,,NaN,,,,,,false,,,,452189.6999999285,452189.5,,452188.59999990463,,452195.672,8,400,,,
break_continue,html.Screen,4_45_2,2023-11-02T20:07:17.737Z,,0,,,NaN,,,,,,false,,,,452190.2999999523,452190.09999990463,,452189.7999999523,,452195.672,8,400,,,
sequence,flow.Sequence,4_45,2023-11-02T20:07:17.737Z,,0,,,4426.786999904609,completion,,,,,false,,,,452190.39999997616,452190.09999990463,447742.543,447749.59999990463,447763.313,452195.672,8,400,,,
trial,html.Screen,4_46_0,2023-11-02T20:07:24.624Z,,0,1,,6881.427999904612,response,ISIC_8883212.JPG,10,ISIC_9441572.JPG,ISIC_9441572.JPG,false,0,keypress(z),500,459077.39999997616,459077.09999990463,452182.491,452190.5,452195.672,459084.191,8,400,47,,ISIC_8883212.JPG
break,html.Screen,4_46_1,2023-11-02T20:07:24.625Z,,0,,,NaN,,,,,,false,,,,459079,459078.59999990463,,459077.7999999523,,459084.191,8,400,,,
break_continue,html.Screen,4_46_2,2023-11-02T20:07:24.626Z,,0,,,NaN,,,,,,false,,,,459079.7999999523,459079.59999990463,,459079.2999999523,,459084.191,8,400,,,
sequence,flow.Sequence,4_46,2023-11-02T20:07:24.626Z,,0,,,6883.927999904612,completion,,,,,false,,,,459080.09999990463,459079.59999990463,452182.491,452190.5,452195.672,459084.191,8,400,,,
trial,html.Screen,4_47_0,2023-11-02T20:07:28.440Z,,0,1,,3808.7089999761665,response,ISIC_0013908.JPG,8,ISIC_0030660.JPG,ISIC_0013908.JPG,false,1,keypress(m),500,462893.1999999285,462892.89999997616,459077.886,459080.2999999523,459084.191,462900.021,8,400,48,,ISIC_0030660.JPG
break,html.Screen,4_47_1,2023-11-02T20:07:28.441Z,,0,,,NaN,,,,,,false,,,,462894.5,462894.1999999285,,462893.39999997616,,462900.021,8,400,,,
break_continue,html.Screen,4_47_2,2023-11-02T20:07:28.441Z,,0,,,NaN,,,,,,false,,,,462894.89999997616,462894.89999997616,,462894.59999990463,,462900.021,8,400,,,
sequence,flow.Sequence,4_47,2023-11-02T20:07:28.441Z,,0,,,3810.7089999761665,completion,,,,,false,,,,462895.09999990463,462894.89999997616,459077.886,459080.1999999285,459084.191,462900.021,8,400,,,
trial,html.Screen,4_48_0,2023-11-02T20:07:32.446Z,,0,1,,3999.2789999523084,response,ISIC_2293230.JPG,7,ISIC_8414421.JPG,ISIC_8414421.JPG,false,0,keypress(z),500,466899.59999990463,466899.2999999523,462893.246,462895.1999999285,462900.021,466902.495,8,400,49,,ISIC_2293230.JPG
break,html.Screen,4_48_1,2023-11-02T20:07:32.447Z,,0,,,NaN,,,,,,false,,,,466900.89999997616,466900.59999990463,,466899.7999999523,,466902.495,8,400,,,
break_continue,html.Screen,4_48_2,2023-11-02T20:07:32.448Z,,0,,,NaN,,,,,,false,,,,466901.2999999523,466901.1999999285,,466901,,466902.495,8,400,,,
sequence,flow.Sequence,4_48,2023-11-02T20:07:32.448Z,,0,,,4001.1789999284665,completion,,,,,false,,,,466901.39999997616,466901.1999999285,462893.246,462895.09999990463,462900.021,466902.495,8,400,,,
trial,html.Screen,4_49_0,2023-11-02T20:07:40.420Z,,0,1,,7971.204999928479,response,ISIC_0028528.JPG,12,ISIC_0072496.JPG,ISIC_0028528.JPG,false,1,keypress(m),500,474874,474873.6999999285,466896.577,466901.59999990463,466902.495,474880.371,8,400,50,,ISIC_0072496.JPG
break,html.Screen,4_49_1,2023-11-02T20:07:50.396Z,,0,,,10003.736000000034,timeout,,,,,false,,,,484850.5,484849.516,474873.443,474874.1999999285,474880.371,484884.107,8,400,,,
break_continue,html.Screen,4_49_2,2023-11-02T20:11:55.227Z,,0,,,244779.4929999046,response,,,,,false,continue,keypress(Space),,729681.1999999285,729663.5999999046,484849.516,484850.59999990463,484884.107,729686.173,8,400,,,
sequence,flow.Sequence,4_49,2023-11-02T20:11:55.227Z,,0,,,262761.10499990464,completion,,,,,false,,,,729681.3999999762,729663.5999999046,466896.577,466901.5,466902.495,729686.173,8,400,,,
trial,html.Screen,4_50_0,2023-11-02T20:11:58.847Z,,0,2,,3614.3270000000484,response,ISIC_0027663.JPG,6,ISIC_6581765.JPG,ISIC_6581765.JPG,false,0,keypress(z),500,733300.7999999523,733300.5,729680.055,729681.5,729686.173,733307.356,8,400,1,,ISIC_0027663.JPG
break,html.Screen,4_50_1,2023-11-02T20:11:58.848Z,,0,,,NaN,,,,,,false,,,,733301.8999999762,733301.6999999285,,733300.8999999762,,733307.356,8,400,,,
break_continue,html.Screen,4_50_2,2023-11-02T20:11:58.848Z,,0,,,NaN,,,,,,false,,,,733302.3999999762,733302.2999999523,,733302.0999999046,,733307.356,8,400,,,
sequence,flow.Sequence,4_50,2023-11-02T20:11:58.849Z,,0,,,3616.1269999523647,completion,,,,,false,,,,733302.5,733302.2999999523,729680.055,729681.5,729686.173,733307.356,8,400,,,
trial,html.Screen,4_51_0,2023-11-02T20:12:01.785Z,,0,2,,2931.643999999971,response,ISIC_3416107.JPG,6,ISIC_5679004.JPG,ISIC_5679004.JPG,false,0,keypress(z),500,736239.2999999523,736239,733298.342,733302.6999999285,733307.356,736241.915,8,400,2,,ISIC_3416107.JPG
break,html.Screen,4_51_1,2023-11-02T20:12:01.787Z,,0,,,NaN,,,,,,false,,,,736240.5,736240.0999999046,,736239.5999999046,,736241.915,8,400,,,
break_continue,html.Screen,4_51_2,2023-11-02T20:12:01.787Z,,0,,,NaN,,,,,,false,,,,736240.8999999762,736240.7999999523,,736240.5999999046,,736241.915,8,400,,,
sequence,flow.Sequence,4_51,2023-11-02T20:12:01.787Z,,0,,,2933.4439999522874,completion,,,,,false,,,,736241,736240.7999999523,733298.342,733302.5999999046,733307.356,736241.915,8,400,,,
trial,html.Screen,4_52_0,2023-11-02T20:12:04.816Z,,0,2,,3027.484999976121,response,ISIC_3730327.JPG,7,ISIC_5126638.JPG,ISIC_3730327.JPG,false,1,keypress(m),500,739269.5999999046,739269.3999999762,736233.311,736241.1999999285,736241.915,739273.443,8,400,3,,ISIC_5126638.JPG
break,html.Screen,4_52_1,2023-11-02T20:12:04.817Z,,0,,,NaN,,,,,,false,,,,739270.7999999523,739270.5,,739269.8999999762,,739273.443,8,400,,,
break_continue,html.Screen,4_52_2,2023-11-02T20:12:04.817Z,,0,,,NaN,,,,,,false,,,,739271.2999999523,739271.1999999285,,739271,,739273.443,8,400,,,
sequence,flow.Sequence,4_52,2023-11-02T20:12:04.817Z,,0,,,3029.284999928437,completion,,,,,false,,,,739271.5,739271.1999999285,736233.311,736241.0999999046,736241.915,739273.443,8,400,,,
trial,html.Screen,4_53_0,2023-11-02T20:12:07.946Z,,0,2,,3126.2569999285042,response,ISIC_5736624.JPG,7,ISIC_0887792.JPG,ISIC_5736624.JPG,false,1,keypress(m),500,742400.1999999285,742399.6999999285,739267.986,739271.5,739273.443,742416.144,8,400,4,,ISIC_0887792.JPG
break,html.Screen,4_53_1,2023-11-02T20:12:07.947Z,,0,,,NaN,,,,,,false,,,,742401.3999999762,742401.0999999046,,742400.3999999762,,742416.144,8,400,,,
break_continue,html.Screen,4_53_2,2023-11-02T20:12:07.948Z,,0,,,NaN,,,,,,false,,,,742401.8999999762,742401.7999999523,,742401.5999999046,,742416.144,8,400,,,
sequence,flow.Sequence,4_53,2023-11-02T20:12:07.948Z,,0,,,3128.356999952346,completion,,,,,false,,,,742402,742401.7999999523,739267.986,739271.5,739273.443,742416.144,8,400,,,
trial,html.Screen,4_54_0,2023-11-02T20:12:10.654Z,,0,2,,2691.856000000029,response,ISIC_0066240.JPG,6,ISIC_7084553.JPG,ISIC_7084553.JPG,false,0,keypress(z),500,745108.3999999762,745108,742395.561,742402.1999999285,742416.144,745114.758,8,400,5,,ISIC_0066240.JPG
break,html.Screen,4_54_1,2023-11-02T20:12:10.655Z,,0,,,NaN,,,,,,false,,,,745109.3999999762,745109.0999999046,,745108.5,,745114.758,8,400,,,
break_continue,html.Screen,4_54_2,2023-11-02T20:12:10.656Z,,0,,,NaN,,,,,,false,,,,745109.8999999762,745109.7999999523,,745109.5999999046,,745114.758,8,400,,,
sequence,flow.Sequence,4_54,2023-11-02T20:12:10.656Z,,0,,,2693.655999952345,completion,,,,,false,,,,745110.0999999046,745109.7999999523,742395.561,742402.1999999285,742416.144,745114.758,8,400,,,
trial,html.Screen,4_55_0,2023-11-02T20:12:13.465Z,,0,2,,2804.341999904602,response,ISIC_0025277.JPG,9,ISIC_0030856.JPG,ISIC_0030856.JPG,false,0,keypress(z),500,747919.1999999285,747919.0999999046,745102.848,745110.0999999046,745114.758,747924.23,8,400,6,,ISIC_0025277.JPG
break,html.Screen,4_55_1,2023-11-02T20:12:13.466Z,,0,,,NaN,,,,,,false,,,,747920.2999999523,747920.0999999046,,747919.5,,747924.23,8,400,,,
break_continue,html.Screen,4_55_2,2023-11-02T20:12:13.467Z,,0,,,NaN,,,,,,false,,,,747920.7999999523,747920.6999999285,,747920.5999999046,,747924.23,8,400,,,
sequence,flow.Sequence,4_55,2023-11-02T20:12:13.467Z,,0,,,2805.9419999284437,completion,,,,,false,,,,747921,747920.6999999285,745102.848,745110.0999999046,745114.758,747924.23,8,400,,,
trial,html.Screen,4_56_0,2023-11-02T20:12:17.391Z,,0,2,,3919.869999904651,response,ISIC_0027646.JPG,8,ISIC_0067801.JPG,ISIC_0027646.JPG,false,1,keypress(m),500,751844.3999999762,751844.0999999046,747916.198,747921.0999999046,747924.23,751850.663,8,400,7,,ISIC_0067801.JPG
break,html.Screen,4_56_1,2023-11-02T20:12:17.392Z,,0,,,NaN,,,,,,false,,,,751845.8999999762,751845.2999999523,,751844.6999999285,,751850.663,8,400,,,
break_continue,html.Screen,4_56_2,2023-11-02T20:12:17.393Z,,0,,,NaN,,,,,,false,,,,751846.3999999762,751846.2999999523,,751846.0999999046,,751850.663,8,400,,,
sequence,flow.Sequence,4_56,2023-11-02T20:12:17.393Z,,0,,,3922.069999952335,completion,,,,,false,,,,751846.5999999046,751846.2999999523,747916.198,747921,747924.23,751850.663,8,400,,,
trial,html.Screen,4_57_0,2023-11-02T20:12:20.276Z,,0,2,,2878.736999976216,response,ISIC_0056201.JPG,9,ISIC_0900349.JPG,ISIC_0900349.JPG,false,0,keypress(z),500,754729.6999999285,754729.3999999762,751840.109,751846.7999999523,751850.663,754736.576,8,400,8,,ISIC_0056201.JPG
break,html.Screen,4_57_1,2023-11-02T20:12:20.277Z,,0,,,NaN,,,,,,false,,,,754730.7999999523,754730.3999999762,,754729.8999999762,,754736.576,8,400,,,
break_continue,html.Screen,4_57_2,2023-11-02T20:12:20.277Z,,0,,,NaN,,,,,,false,,,,754731.2999999523,754731.0999999046,,754731,,754736.576,8,400,,,
sequence,flow.Sequence,4_57,2023-11-02T20:12:20.277Z,,0,,,2880.4369999046903,completion,,,,,false,,,,754731.3999999762,754731.0999999046,751840.109,751846.6999999285,751850.663,754736.576,8,400,,,
trial,html.Screen,4_58_0,2023-11-02T20:12:23.309Z,,0,2,,3025.823999976157,response,ISIC_6737771.JPG,10,ISIC_0536433.JPG,ISIC_6737771.JPG,false,1,keypress(m),500,757762.8999999762,757762.3999999762,754730.458,754731.5,754736.576,757768.163,8,400,9,,ISIC_0536433.JPG
break,html.Screen,4_58_1,2023-11-02T20:12:23.310Z,,0,,,NaN,,,,,,false,,,,757763.8999999762,757763.5999999046,,757763.0999999046,,757768.163,8,400,,,
break_continue,html.Screen,4_58_2,2023-11-02T20:12:23.310Z,,0,,,NaN,,,,,,false,,,,757764.3999999762,757764.1999999285,,757764,,757768.163,8,400,,,
sequence,flow.Sequence,4_58,2023-11-02T20:12:23.311Z,,0,,,3027.6239999284735,completion,,,,,false,,,,757764.5,757764.1999999285,754730.458,754731.5,754736.576,757768.163,8,400,,,
trial,html.Screen,4_59_0,2023-11-02T20:12:26.689Z,,0,2,,3374.536999928532,response,ISIC_4074537.JPG,6,ISIC_4474170.JPG,ISIC_4074537.JPG,false,1,keypress(m),500,761143.0999999046,761142.6999999285,757755.984,757764.5,757768.163,761146.628,8,400,10,,ISIC_4474170.JPG
break,html.Screen,4_59_1,2023-11-02T20:12:26.690Z,,0,,,NaN,,,,,,false,,,,761144.0999999046,761143.7999999523,,761143.1999999285,,761146.628,8,400,,,
break_continue,html.Screen,4_59_2,2023-11-02T20:12:26.691Z,,0,,,NaN,,,,,,false,,,,761144.5,761144.3999999762,,761144.1999999285,,761146.628,8,400,,,
sequence,flow.Sequence,4_59,2023-11-02T20:12:26.691Z,,0,,,3376.236999976216,completion,,,,,false,,,,761144.7999999523,761144.3999999762,757755.984,757764.5,757768.163,761146.628,8,400,,,
trial,html.Screen,4_60_0,2023-11-02T20:12:29.386Z,,0,2,,2692.5719999284483,response,ISIC_0063544.JPG,7,ISIC_4071825.JPG,ISIC_4071825.JPG,false,0,keypress(z),500,763839.5,763839.1999999285,761138.382,761144.8999999762,761146.628,763845.357,8,400,11,,ISIC_0063544.JPG
break,html.Screen,4_60_1,2023-11-02T20:12:29.386Z,,0,,,NaN,,,,,,false,,,,763840.5,763840.1999999285,,763839.5999999046,,763845.357,8,400,,,
break_continue,html.Screen,4_60_2,2023-11-02T20:12:29.387Z,,0,,,NaN,,,,,,false,,,,763840.7999999523,763840.6999999285,,763840.5999999046,,763845.357,8,400,,,
sequence,flow.Sequence,4_60,2023-11-02T20:12:29.387Z,,0,,,2694.0719999284483,completion,,,,,false,,,,763841,763840.6999999285,761138.382,761144.8999999762,761146.628,763845.357,8,400,,,
trial,html.Screen,4_61_0,2023-11-02T20:12:32.046Z,,0,2,,2654.2429999046726,response,ISIC_0055404.JPG,5,ISIC_0030623.JPG,ISIC_0030623.JPG,false,0,keypress(z),500,766500,766499.5999999046,763835.795,763841.0999999046,763845.357,766502.201,8,400,12,,ISIC_0055404.JPG
break,html.Screen,4_61_1,2023-11-02T20:12:32.047Z,,0,,,NaN,,,,,,false,,,,766501,766500.6999999285,,766500,,766502.201,8,400,,,
break_continue,html.Screen,4_61_2,2023-11-02T20:12:32.048Z,,0,,,NaN,,,,,,false,,,,766501.5,766501.2999999523,,766501.1999999285,,766502.201,8,400,,,
sequence,flow.Sequence,4_61,2023-11-02T20:12:32.048Z,,0,,,2655.9429999523563,completion,,,,,false,,,,766501.5999999046,766501.2999999523,763835.795,763841,763845.357,766502.201,8,400,,,
trial,html.Screen,4_62_0,2023-11-02T20:12:35.411Z,,0,2,,3362.0989999523154,response,ISIC_1175291.JPG,7,ISIC_0067609.JPG,ISIC_0067609.JPG,false,0,keypress(z),500,769864.5999999046,769864.2999999523,766496.158,766501.7999999523,766502.201,769866.823,8,400,13,,ISIC_1175291.JPG
break,html.Screen,4_62_1,2023-11-02T20:12:35.412Z,,0,,,NaN,,,,,,false,,,,769865.5999999046,769865.2999999523,,769864.7999999523,,769866.823,8,400,,,
break_continue,html.Screen,4_62_2,2023-11-02T20:12:35.412Z,,0,,,NaN,,,,,,false,,,,769866.1999999285,769866,,769865.8999999762,,769866.823,8,400,,,
sequence,flow.Sequence,4_62,2023-11-02T20:12:35.412Z,,0,,,3363.798999999999,completion,,,,,false,,,,769866.2999999523,769866,766496.158,766501.6999999285,766502.201,769866.823,8,400,,,
trial,html.Screen,4_63_0,2023-11-02T20:12:38.283Z,,0,2,,2869.4769999523414,response,ISIC_0000152.JPG,12,ISIC_1285870.JPG,ISIC_1285870.JPG,false,0,keypress(z),500,772736.5,772736.2999999523,769861.411,769866.5,769866.823,772738.806,8,400,14,,ISIC_0000152.JPG
break,html.Screen,4_63_1,2023-11-02T20:12:38.284Z,,0,,,NaN,,,,,,false,,,,772737.7999999523,772737.5,,772736.7999999523,,772738.806,8,400,,,
break_continue,html.Screen,4_63_2,2023-11-02T20:12:38.284Z,,0,,,NaN,,,,,,false,,,,772738.2999999523,772738.1999999285,,772737.8999999762,,772738.806,8,400,,,
sequence,flow.Sequence,4_63,2023-11-02T20:12:38.284Z,,0,,,2871.3769999284996,completion,,,,,false,,,,772738.3999999762,772738.1999999285,769861.411,769866.3999999762,769866.823,772738.806,8,400,,,
trial,html.Screen,4_64_0,2023-11-02T20:12:42.692Z,,0,2,,4407.093999976176,response,ISIC_0011686.JPG,5,ISIC_0741694.JPG,ISIC_0741694.JPG,false,0,keypress(z),500,777146.2999999523,777145.8999999762,772730.268,772738.5999999046,772738.806,777150.959,8,400,15,,ISIC_0011686.JPG
break,html.Screen,4_64_1,2023-11-02T20:12:42.693Z,,0,,,NaN,,,,,,false,,,,777147.3999999762,777147,,777146.3999999762,,777150.959,8,400,,,
break_continue,html.Screen,4_64_2,2023-11-02T20:12:42.694Z,,0,,,NaN,,,,,,false,,,,777147.8999999762,777147.7999999523,,777147.5,,777150.959,8,400,,,
sequence,flow.Sequence,4_64,2023-11-02T20:12:42.694Z,,0,,,4408.993999952334,completion,,,,,false,,,,777148.0999999046,777147.7999999523,772730.268,772738.5,772738.806,777150.959,8,400,,,
trial,html.Screen,4_65_0,2023-11-02T20:12:45.596Z,,0,2,,2898.3409999522846,response,ISIC_0073044.JPG,6,ISIC_0065468.JPG,ISIC_0065468.JPG,false,0,keypress(z),500,780049.5,780049.2999999523,777145.417,777148.1999999285,777150.959,780065.34,8,400,16,,ISIC_0073044.JPG
break,html.Screen,4_65_1,2023-11-02T20:12:45.597Z,,0,,,NaN,,,,,,false,,,,780050.5999999046,780050.2999999523,,780049.7999999523,,780065.34,8,400,,,
break_continue,html.Screen,4_65_2,2023-11-02T20:12:45.597Z,,0,,,NaN,,,,,,false,,,,780051.1999999285,780051.0999999046,,780050.7999999523,,780065.34,8,400,,,
sequence,flow.Sequence,4_65,2023-11-02T20:12:45.597Z,,0,,,2900.140999904601,completion,,,,,false,,,,780051.3999999762,780051.0999999046,777145.417,777148.0999999046,777150.959,780065.34,8,400,,,
trial,html.Screen,4_66_0,2023-11-02T20:12:48.951Z,,0,2,,3339.459999952349,response,ISIC_0014150.JPG,8,ISIC_2006783.JPG,ISIC_0014150.JPG,false,1,keypress(m),500,783405,783404.7999999523,780044.653,780051.5,780065.34,783408.261,8,400,17,,ISIC_2006783.JPG
break,html.Screen,4_66_1,2023-11-02T20:12:48.952Z,,0,,,NaN,,,,,,false,,,,783406.1999999285,783405.7999999523,,783405.2999999523,,783408.261,8,400,,,
break_continue,html.Screen,4_66_2,2023-11-02T20:12:48.953Z,,0,,,NaN,,,,,,false,,,,783406.8999999762,783406.6999999285,,783406.3999999762,,783408.261,8,400,,,
sequence,flow.Sequence,4_66,2023-11-02T20:12:48.953Z,,0,,,3341.359999928507,completion,,,,,false,,,,783407,783406.6999999285,780044.653,780051.3999999762,780065.34,783408.261,8,400,,,
trial,html.Screen,4_67_0,2023-11-02T20:12:51.709Z,,0,2,,2754.1389999761013,response,ISIC_0028859.JPG,12,ISIC_0010162.JPG,ISIC_0028859.JPG,false,1,keypress(m),500,786162.6999999285,786162.3999999762,783402.952,783407.0999999046,783408.261,786169.462,8,400,18,,ISIC_0010162.JPG
break,html.Screen,4_67_1,2023-11-02T20:12:51.710Z,,0,,,NaN,,,,,,false,,,,786164,786163.6999999285,,786163,,786169.462,8,400,,,
break_continue,html.Screen,4_67_2,2023-11-02T20:12:51.711Z,,0,,,NaN,,,,,,false,,,,786164.5,786164.2999999523,,786164.1999999285,,786169.462,8,400,,,
sequence,flow.Sequence,4_67,2023-11-02T20:12:51.711Z,,0,,,2756.0389999522595,completion,,,,,false,,,,786164.5999999046,786164.2999999523,783402.952,783407,783408.261,786169.462,8,400,,,
trial,html.Screen,4_68_0,2023-11-02T20:12:54.342Z,,0,2,,2626.3379999522585,response,ISIC_7242312.JPG,6,ISIC_0027666.JPG,ISIC_0027666.JPG,false,0,keypress(z),500,788796.0999999046,788795.7999999523,786161.015,786164.7999999523,786169.462,788798.596,8,400,19,,ISIC_7242312.JPG
break,html.Screen,4_68_1,2023-11-02T20:12:54.343Z,,0,,,NaN,,,,,,false,,,,788797.2999999523,788797,,788796.2999999523,,788798.596,8,400,,,
break_continue,html.Screen,4_68_2,2023-11-02T20:12:54.344Z,,0,,,NaN,,,,,,false,,,,788797.8999999762,788797.6999999285,,788797.5,,788798.596,8,400,,,
sequence,flow.Sequence,4_68,2023-11-02T20:12:54.344Z,,0,,,2628.2379999284167,completion,,,,,false,,,,788798,788797.6999999285,786161.015,786164.7999999523,786169.462,788798.596,8,400,,,
trial,html.Screen,4_69_0,2023-11-02T20:12:57.244Z,,0,2,,2898.3039999761386,response,ISIC_0031746.JPG,11,ISIC_7114660.JPG,ISIC_7114660.JPG,false,0,keypress(z),500,791697.0999999046,791696.8999999762,788793.693,788798.0999999046,788798.596,791712.461,8,400,20,,ISIC_0031746.JPG
break,html.Screen,4_69_1,2023-11-02T20:12:57.245Z,,0,,,NaN,,,,,,false,,,,791698.1999999285,791697.8999999762,,791697.3999999762,,791712.461,8,400,,,
break_continue,html.Screen,4_69_2,2023-11-02T20:12:57.245Z,,0,,,NaN,,,,,,false,,,,791698.7999999523,791698.6999999285,,791698.5,,791712.461,8,400,,,
sequence,flow.Sequence,4_69,2023-11-02T20:12:57.245Z,,0,,,2900.103999928455,completion,,,,,false,,,,791698.8999999762,791698.6999999285,788793.693,788798,788798.596,791712.461,8,400,,,
trial,html.Screen,4_70_0,2023-11-02T20:13:00.343Z,,0,2,,3083.938999976148,response,ISIC_6451703.JPG,12,ISIC_0028469.JPG,ISIC_6451703.JPG,false,1,keypress(m),500,794796.5999999046,794796.3999999762,791691.895,791699.0999999046,791712.461,794799.318,8,400,21,,ISIC_0028469.JPG
break,html.Screen,4_70_1,2023-11-02T20:13:00.344Z,,0,,,NaN,,,,,,false,,,,794797.7999999523,794797.3999999762,,794796.8999999762,,794799.318,8,400,,,
break_continue,html.Screen,4_70_2,2023-11-02T20:13:00.345Z,,0,,,NaN,,,,,,false,,,,794798.1999999285,794798.0999999046,,794797.8999999762,,794799.318,8,400,,,
sequence,flow.Sequence,4_70,2023-11-02T20:13:00.345Z,,0,,,3085.6389999046223,completion,,,,,false,,,,794798.2999999523,794798.0999999046,791691.895,791699,791712.461,794799.318,8,400,,,
trial,html.Screen,4_71_0,2023-11-02T20:13:03.053Z,,0,2,,2707.481999952346,response,ISIC_3685955.JPG,10,ISIC_0066412.JPG,ISIC_3685955.JPG,false,1,keypress(m),500,797507.0999999046,797506.7999999523,794794.486,794798.3999999762,794799.318,797511.791,8,400,22,,ISIC_0066412.JPG
break,html.Screen,4_71_1,2023-11-02T20:13:03.055Z,,0,,,NaN,,,,,,false,,,,797508.1999999285,797507.7999999523,,797507.2999999523,,797511.791,8,400,,,
break_continue,html.Screen,4_71_2,2023-11-02T20:13:03.055Z,,0,,,NaN,,,,,,false,,,,797508.6999999285,797508.5999999046,,797508.2999999523,,797511.791,8,400,,,
sequence,flow.Sequence,4_71,2023-11-02T20:13:03.055Z,,0,,,2709.2819999046624,completion,,,,,false,,,,797508.8999999762,797508.5999999046,794794.486,794798.3999999762,794799.318,797511.791,8,400,,,
trial,html.Screen,4_72_0,2023-11-02T20:13:06.883Z,,0,2,,3824.60899997619,response,ISIC_0058151.JPG,6,ISIC_9792592.JPG,ISIC_9792592.JPG,false,0,keypress(z),500,801336.7999999523,801336.3999999762,797501.723,797508.8999999762,797511.791,801341.198,8,400,23,,ISIC_0058151.JPG
break,html.Screen,4_72_1,2023-11-02T20:13:06.884Z,,0,,,NaN,,,,,,false,,,,801337.8999999762,801337.5,,801336.8999999762,,801341.198,8,400,,,
break_continue,html.Screen,4_72_2,2023-11-02T20:13:06.885Z,,0,,,NaN,,,,,,false,,,,801338.5,801338.2999999523,,801338.0999999046,,801341.198,8,400,,,
sequence,flow.Sequence,4_72,2023-11-02T20:13:06.885Z,,0,,,3826.508999952348,completion,,,,,false,,,,801338.5999999046,801338.2999999523,797501.723,797508.8999999762,797511.791,801341.198,8,400,,,
trial,html.Screen,4_73_0,2023-11-02T20:13:10.508Z,,0,2,,3620.7019999761833,response,ISIC_0061067.JPG,10,ISIC_4649440.JPG,ISIC_4649440.JPG,false,0,keypress(z),500,804962.0999999046,804961.8999999762,801330.929,801338.7999999523,801341.198,804969.599,8,400,24,,ISIC_0061067.JPG
break,html.Screen,4_73_1,2023-11-02T20:13:10.509Z,,0,,,NaN,,,,,,false,,,,804963.0999999046,804962.7999999523,,804962.2999999523,,804969.599,8,400,,,
break_continue,html.Screen,4_73_2,2023-11-02T20:13:10.510Z,,0,,,NaN,,,,,,false,,,,804963.5999999046,804963.3999999762,,804963.2999999523,,804969.599,8,400,,,
sequence,flow.Sequence,4_73,2023-11-02T20:13:10.510Z,,0,,,3622.2019999761833,completion,,,,,false,,,,804963.6999999285,804963.3999999762,801330.929,801338.6999999285,801341.198,804969.599,8,400,,,
trial,html.Screen,4_74_0,2023-11-02T20:13:14.196Z,,0,2,,3679.9009999999544,response,ISIC_9439034.JPG,12,ISIC_0025391.JPG,ISIC_9439034.JPG,false,1,keypress(m),500,808649.7999999523,808649.5,804958.188,804963.7999999523,804969.599,808653.047,8,400,25,,ISIC_0025391.JPG
break,html.Screen,4_74_1,2023-11-02T20:13:14.197Z,,0,,,NaN,,,,,,false,,,,808651.0999999046,808650.5999999046,,808650,,808653.047,8,400,,,
break_continue,html.Screen,4_74_2,2023-11-02T20:13:14.198Z,,0,,,NaN,,,,,,false,,,,808651.6999999285,808651.5,,808651.2999999523,,808653.047,8,400,,,
sequence,flow.Sequence,4_74,2023-11-02T20:13:14.198Z,,0,,,3681.9009999999544,completion,,,,,false,,,,808651.7999999523,808651.5,804958.188,804963.6999999285,804969.599,808653.047,8,400,,,
trial,html.Screen,4_75_0,2023-11-02T20:13:17.721Z,,0,2,,3520.8529999761377,response,ISIC_0465476.JPG,5,ISIC_0072290.JPG,ISIC_0465476.JPG,false,1,keypress(m),500,812174.2999999523,812173.8999999762,808645.039,808652,808653.047,812177.217,8,400,26,,ISIC_0072290.JPG
break,html.Screen,4_75_1,2023-11-02T20:13:17.722Z,,0,,,NaN,,,,,,false,,,,812175.5,812175.1999999285,,812174.3999999762,,812177.217,8,400,,,
break_continue,html.Screen,4_75_2,2023-11-02T20:13:17.722Z,,0,,,NaN,,,,,,false,,,,812176,812175.7999999523,,812175.5999999046,,812177.217,8,400,,,
sequence,flow.Sequence,4_75,2023-11-02T20:13:17.722Z,,0,,,3522.752999952296,completion,,,,,false,,,,812176.0999999046,812175.7999999523,808645.039,808652,808653.047,812177.217,8,400,,,
trial,html.Screen,4_76_0,2023-11-02T20:13:20.431Z,,0,2,,2707.0829999523703,response,ISIC_0063018.JPG,13,ISIC_0053854.JPG,ISIC_0053854.JPG,false,0,keypress(z),500,814884.5999999046,814884.2999999523,812170.932,812176.2999999523,812177.217,814896.721,8,400,27,,ISIC_0063018.JPG
break,html.Screen,4_76_1,2023-11-02T20:13:20.432Z,,0,,,NaN,,,,,,false,,,,814885.5999999046,814885.2999999523,,814884.7999999523,,814896.721,8,400,,,
break_continue,html.Screen,4_76_2,2023-11-02T20:13:20.432Z,,0,,,NaN,,,,,,false,,,,814885.8999999762,814885.8999999762,,814885.6999999285,,814896.721,8,400,,,
sequence,flow.Sequence,4_76,2023-11-02T20:13:20.432Z,,0,,,2708.682999976212,completion,,,,,false,,,,814886.0999999046,814885.8999999762,812170.932,812176.0999999046,812177.217,814896.721,8,400,,,
trial,html.Screen,4_77_0,2023-11-02T20:13:23.483Z,,0,2,,3039.5789999522967,response,ISIC_0025512.JPG,7,ISIC_2482061.JPG,ISIC_2482061.JPG,false,0,keypress(z),500,817936.5,817936.2999999523,814889.791,814886.1999999285,814896.721,817941.95,8,400,28,,ISIC_0025512.JPG
break,html.Screen,4_77_1,2023-11-02T20:13:23.484Z,,0,,,NaN,,,,,,false,,,,817937.5,817937.2999999523,,817936.6999999285,,817941.95,8,400,,,
break_continue,html.Screen,4_77_2,2023-11-02T20:13:23.484Z,,0,,,NaN,,,,,,false,,,,817937.8999999762,817937.7999999523,,817937.6999999285,,817941.95,8,400,,,
sequence,flow.Sequence,4_77,2023-11-02T20:13:23.484Z,,0,,,3041.0789999522967,completion,,,,,false,,,,817938.0999999046,817937.7999999523,814889.791,814886.1999999285,814896.721,817941.95,8,400,,,
trial,html.Screen,4_78_0,2023-11-02T20:13:26.693Z,,0,2,,3204.649999904679,response,ISIC_0029684.JPG,5,ISIC_1676261.JPG,ISIC_1676261.JPG,false,0,keypress(z),500,821146.7999999523,821146.5999999046,817936.205,817938.1999999285,817941.95,821153.948,8,400,29,,ISIC_0029684.JPG
break,html.Screen,4_78_1,2023-11-02T20:13:26.694Z,,0,,,NaN,,,,,,false,,,,821147.7999999523,821147.5,,821147,,821153.948,8,400,,,
break_continue,html.Screen,4_78_2,2023-11-02T20:13:26.695Z,,0,,,NaN,,,,,,false,,,,821148.1999999285,821148.1999999285,,821147.8999999762,,821153.948,8,400,,,
sequence,flow.Sequence,4_78,2023-11-02T20:13:26.695Z,,0,,,3206.249999928521,completion,,,,,false,,,,821148.3999999762,821148.1999999285,817936.205,817938.0999999046,817941.95,821153.948,8,400,,,
trial,html.Screen,4_79_0,2023-11-02T20:13:30.299Z,,0,2,,3598.6519999046577,response,ISIC_7331345.JPG,6,ISIC_0054570.JPG,ISIC_0054570.JPG,false,0,keypress(z),500,824752.8999999762,824752.5999999046,821145.965,821148.5,821153.948,824754.499,8,400,30,,ISIC_7331345.JPG
break,html.Screen,4_79_1,2023-11-02T20:13:30.300Z,,0,,,NaN,,,,,,false,,,,824753.7999999523,824753.5999999046,,824753.1999999285,,824754.499,8,400,,,
break_continue,html.Screen,4_79_2,2023-11-02T20:13:30.301Z,,0,,,NaN,,,,,,false,,,,824754.2999999523,824754.1999999285,,824754,,824754.499,8,400,,,
sequence,flow.Sequence,4_79,2023-11-02T20:13:30.301Z,,0,,,3600.2519999284996,completion,,,,,false,,,,824754.5,824754.1999999285,821145.965,821148.3999999762,821153.948,824754.499,8,400,,,
trial,html.Screen,4_80_0,2023-11-02T20:13:34.359Z,,0,2,,4057.9009999762056,response,ISIC_9466794.JPG,12,ISIC_0015115.JPG,ISIC_9466794.JPG,false,1,keypress(m),500,828812.6999999285,828812.3999999762,824747.751,824754.5999999046,824754.499,828819.612,8,400,31,,ISIC_0015115.JPG
break,html.Screen,4_80_1,2023-11-02T20:13:34.360Z,,0,,,NaN,,,,,,false,,,,828813.7999999523,828813.5,,828813,,828819.612,8,400,,,
break_continue,html.Screen,4_80_2,2023-11-02T20:13:34.361Z,,0,,,NaN,,,,,,false,,,,828814.3999999762,828814.2999999523,,828814,,828819.612,8,400,,,
sequence,flow.Sequence,4_80,2023-11-02T20:13:34.361Z,,0,,,4059.800999952364,completion,,,,,false,,,,828814.5999999046,828814.2999999523,824747.751,824754.5,824754.499,828819.612,8,400,,,
trial,html.Screen,4_81_0,2023-11-02T20:13:37.776Z,,0,2,,3409.487999904668,response,ISIC_6404049.JPG,5,ISIC_6536232.JPG,ISIC_6536232.JPG,false,0,keypress(z),500,832229.5,832229.0999999046,828812.386,828814.7999999523,828819.612,832232.837,8,400,32,,ISIC_6404049.JPG
break,html.Screen,4_81_1,2023-11-02T20:13:37.777Z,,0,,,NaN,,,,,,false,,,,832230.5999999046,832230.2999999523,,832229.6999999285,,832232.837,8,400,,,
break_continue,html.Screen,4_81_2,2023-11-02T20:13:37.777Z,,0,,,NaN,,,,,,false,,,,832231.0999999046,832231,,832230.7999999523,,832232.837,8,400,,,
sequence,flow.Sequence,4_81,2023-11-02T20:13:37.778Z,,0,,,3411.3880000000354,completion,,,,,false,,,,832231.2999999523,832231,828812.386,828814.5999999046,828819.612,832232.837,8,400,,,
trial,html.Screen,4_82_0,2023-11-02T20:13:40.792Z,,0,2,,3012.0629999761004,response,ISIC_0062712.JPG,8,ISIC_0057949.JPG,ISIC_0062712.JPG,false,1,keypress(m),500,835245.1999999285,835244.8999999762,832227.381,832231.2999999523,832232.837,835250.659,8,400,33,,ISIC_0057949.JPG
break,html.Screen,4_82_1,2023-11-02T20:13:40.793Z,,0,,,NaN,,,,,,false,,,,835246.2999999523,835246,,835245.3999999762,,835250.659,8,400,,,
break_continue,html.Screen,4_82_2,2023-11-02T20:13:40.793Z,,0,,,NaN,,,,,,false,,,,835246.7999999523,835246.5999999046,,835246.5,,835250.659,8,400,,,
sequence,flow.Sequence,4_82,2023-11-02T20:13:40.793Z,,0,,,3013.762999904575,completion,,,,,false,,,,835247,835246.5999999046,832227.381,832231.2999999523,832232.837,835250.659,8,400,,,
trial,html.Screen,4_83_0,2023-11-02T20:13:44.750Z,,0,2,,3952.5409999284893,response,ISIC_8899350.JPG,7,ISIC_2914160.JPG,ISIC_2914160.JPG,false,0,keypress(z),500,839203.6999999285,839203.1999999285,835241.444,835247,835250.659,839211.755,8,400,34,,ISIC_8899350.JPG
break,html.Screen,4_83_1,2023-11-02T20:13:44.751Z,,0,,,NaN,,,,,,false,,,,839204.8999999762,839204.5999999046,,839204,,839211.755,8,400,,,
break_continue,html.Screen,4_83_2,2023-11-02T20:13:44.752Z,,0,,,NaN,,,,,,false,,,,839205.3999999762,839205.2999999523,,839205.0999999046,,839211.755,8,400,,,
sequence,flow.Sequence,4_83,2023-11-02T20:13:44.752Z,,0,,,3954.640999952331,completion,,,,,false,,,,839205.5999999046,839205.2999999523,835241.444,835247,835250.659,839211.755,8,400,,,
trial,html.Screen,4_84_0,2023-11-02T20:13:48.500Z,,0,2,,3742.1449999761535,response,ISIC_0065039.JPG,13,ISIC_4724660.JPG,ISIC_4724660.JPG,false,0,keypress(z),500,842954.0999999046,842953.8999999762,839199.293,839205.6999999285,839211.755,842957.87,8,400,35,,ISIC_0065039.JPG
break,html.Screen,4_84_1,2023-11-02T20:13:48.502Z,,0,,,NaN,,,,,,false,,,,842955.0999999046,842954.8999999762,,842954.2999999523,,842957.87,8,400,,,
break_continue,html.Screen,4_84_2,2023-11-02T20:13:48.502Z,,0,,,NaN,,,,,,false,,,,842955.5999999046,842955.5,,842955.2999999523,,842957.87,8,400,,,
sequence,flow.Sequence,4_84,2023-11-02T20:13:48.502Z,,0,,,3743.7449999999953,completion,,,,,false,,,,842955.7999999523,842955.5,839199.293,839205.5999999046,839211.755,842957.87,8,400,,,
trial,html.Screen,4_85_0,2023-11-02T20:13:51.963Z,,0,2,,3458.029999976163,response,ISIC_6963954.JPG,8,ISIC_0010817.JPG,ISIC_6963954.JPG,false,1,keypress(m),500,846416.0999999046,846415.8999999762,842950.139,842955.8999999762,842957.87,846419.559,8,400,36,,ISIC_0010817.JPG
break,html.Screen,4_85_1,2023-11-02T20:13:51.964Z,,0,,,NaN,,,,,,false,,,,846417.3999999762,846416.8999999762,,846416.2999999523,,846419.559,8,400,,,
break_continue,html.Screen,4_85_2,2023-11-02T20:13:51.964Z,,0,,,NaN,,,,,,false,,,,846417.7999999523,846417.7999999523,,846417.5,,846419.559,8,400,,,
sequence,flow.Sequence,4_85,2023-11-02T20:13:51.964Z,,0,,,3459.929999952321,completion,,,,,false,,,,846418,846417.7999999523,842950.139,842955.8999999762,842957.87,846419.559,8,400,,,
trial,html.Screen,4_86_0,2023-11-02T20:13:56.883Z,,0,2,,4916.84099997615,response,ISIC_0908367.JPG,6,ISIC_9108776.JPG,ISIC_9108776.JPG,false,0,keypress(z),500,851336.5999999046,851336.3999999762,846413.53,846418.0999999046,846419.559,851352.437,8,400,37,,ISIC_0908367.JPG
break,html.Screen,4_86_1,2023-11-02T20:13:56.884Z,,0,,,NaN,,,,,,false,,,,851337.5999999046,851337.2999999523,,851336.8999999762,,851352.437,8,400,,,
break_continue,html.Screen,4_86_2,2023-11-02T20:13:56.884Z,,0,,,NaN,,,,,,false,,,,851338,851337.8999999762,,851337.6999999285,,851352.437,8,400,,,
sequence,flow.Sequence,4_86,2023-11-02T20:13:56.885Z,,0,,,4918.34099997615,completion,,,,,false,,,,851338.1999999285,851337.8999999762,846413.53,846418.0999999046,846419.559,851352.437,8,400,,,
trial,html.Screen,4_87_0,2023-11-02T20:14:00.152Z,,0,2,,3253.162999904598,response,ISIC_0055179.JPG,6,ISIC_2126084.JPG,ISIC_2126084.JPG,false,0,keypress(z),500,854606.0999999046,854605.5999999046,851330.178,851338.3999999762,851352.437,854612.328,8,400,38,,ISIC_0055179.JPG
break,html.Screen,4_87_1,2023-11-02T20:14:00.153Z,,0,,,NaN,,,,,,false,,,,854607.0999999046,854606.7999999523,,854606.1999999285,,854612.328,8,400,,,
break_continue,html.Screen,4_87_2,2023-11-02T20:14:00.154Z,,0,,,NaN,,,,,,false,,,,854607.5,854607.5,,854607.2999999523,,854612.328,8,400,,,
sequence,flow.Sequence,4_87,2023-11-02T20:14:00.154Z,,0,,,3255.0629999999655,completion,,,,,false,,,,854607.6999999285,854607.5,851330.178,851338.2999999523,851352.437,854612.328,8,400,,,
trial,html.Screen,4_88_0,2023-11-02T20:14:03.713Z,,0,2,,3553.6720000000205,response,ISIC_0005291.JPG,6,ISIC_8694181.JPG,ISIC_8694181.JPG,false,0,keypress(z),500,858166.2999999523,858166,854603.947,854607.7999999523,854612.328,858171.302,8,400,39,,ISIC_0005291.JPG
break,html.Screen,4_88_1,2023-11-02T20:14:03.714Z,,0,,,NaN,,,,,,false,,,,858167.3999999762,858167.1999999285,,858166.6999999285,,858171.302,8,400,,,
break_continue,html.Screen,4_88_2,2023-11-02T20:14:03.714Z,,0,,,NaN,,,,,,false,,,,858167.8999999762,858167.7999999523,,858167.5999999046,,858171.302,8,400,,,
sequence,flow.Sequence,4_88,2023-11-02T20:14:03.714Z,,0,,,3555.471999952337,completion,,,,,false,,,,858168.0999999046,858167.7999999523,854603.947,854607.7999999523,854612.328,858171.302,8,400,,,
trial,html.Screen,4_89_0,2023-11-02T20:14:07.221Z,,0,2,,3502.697999999975,response,ISIC_1580034.JPG,5,ISIC_0011994.JPG,ISIC_0011994.JPG,false,0,keypress(z),500,861674.2999999523,861674,858165.169,858168.1999999285,858171.302,861681.591,8,400,40,,ISIC_1580034.JPG
break,html.Screen,4_89_1,2023-11-02T20:14:07.222Z,,0,,,NaN,,,,,,false,,,,861675.6999999285,861675,,861674.5,,861681.591,8,400,,,
break_continue,html.Screen,4_89_2,2023-11-02T20:14:07.223Z,,0,,,NaN,,,,,,false,,,,861676.0999999046,861676.0999999046,,861675.7999999523,,861681.591,8,400,,,
sequence,flow.Sequence,4_89,2023-11-02T20:14:07.223Z,,0,,,3504.7979999046074,completion,,,,,false,,,,861676.2999999523,861676.0999999046,858165.169,858168.1999999285,858171.302,861681.591,8,400,,,
trial,html.Screen,4_90_0,2023-11-02T20:14:10.683Z,,0,2,,3454.408999999985,response,ISIC_3926305.JPG,12,ISIC_6991849.JPG,ISIC_3926305.JPG,false,1,keypress(m),500,865136.3999999762,865136,861671.063,861676.5,861681.591,865143.44,8,400,41,,ISIC_6991849.JPG
break,html.Screen,4_90_1,2023-11-02T20:14:10.684Z,,0,,,NaN,,,,,,false,,,,865137.3999999762,865137.0999999046,,865136.5999999046,,865143.44,8,400,,,
break_continue,html.Screen,4_90_2,2023-11-02T20:14:10.684Z,,0,,,NaN,,,,,,false,,,,865137.8999999762,865137.7999999523,,865137.5999999046,,865143.44,8,400,,,
sequence,flow.Sequence,4_90,2023-11-02T20:14:10.684Z,,0,,,3456.2089999523014,completion,,,,,false,,,,865138,865137.7999999523,861671.063,861676.3999999762,861681.591,865143.44,8,400,,,
trial,html.Screen,4_91_0,2023-11-02T20:14:14.002Z,,0,2,,3311.7599999285303,response,ISIC_0033578.JPG,7,ISIC_0894785.JPG,ISIC_0894785.JPG,false,0,keypress(z),500,868455.5,868455.1999999285,865128.541,865138.1999999285,865143.44,868459.198,8,400,42,,ISIC_0033578.JPG
break,html.Screen,4_91_1,2023-11-02T20:14:14.003Z,,0,,,NaN,,,,,,false,,,,868456.6999999285,868456.3999999762,,868455.7999999523,,868459.198,8,400,,,
break_continue,html.Screen,4_91_2,2023-11-02T20:14:14.004Z,,0,,,NaN,,,,,,false,,,,868457.1999999285,868457.0999999046,,868456.7999999523,,868459.198,8,400,,,
sequence,flow.Sequence,4_91,2023-11-02T20:14:14.004Z,,0,,,3313.6599999046884,completion,,,,,false,,,,868457.2999999523,868457.0999999046,865128.541,865138.0999999046,865143.44,868459.198,8,400,,,
trial,html.Screen,4_92_0,2023-11-02T20:14:17.863Z,,0,2,,3857.1019999523414,response,ISIC_0062684.JPG,12,ISIC_0011422.JPG,ISIC_0062684.JPG,false,1,keypress(m),500,872316.6999999285,872316.2999999523,868451.318,868457.3999999762,868459.198,872323.33,8,400,43,,ISIC_0011422.JPG
break,html.Screen,4_92_1,2023-11-02T20:14:17.864Z,,0,,,NaN,,,,,,false,,,,872317.8999999762,872317.5999999046,,872317,,872323.33,8,400,,,
break_continue,html.Screen,4_92_2,2023-11-02T20:14:17.865Z,,0,,,NaN,,,,,,false,,,,872318.2999999523,872318.2999999523,,872318,,872323.33,8,400,,,
sequence,flow.Sequence,4_92,2023-11-02T20:14:17.865Z,,0,,,3859.1019999523414,completion,,,,,false,,,,872318.5,872318.2999999523,868451.318,868457.3999999762,868459.198,872323.33,8,400,,,
trial,html.Screen,4_93_0,2023-11-02T20:14:21.151Z,,0,2,,3280.5699999762,response,ISIC_0064694.JPG,4,ISIC_1461507.JPG,ISIC_1461507.JPG,false,0,keypress(z),500,875604.1999999285,875603.8999999762,872310.201,872318.6999999285,872323.33,875618.428,8,400,44,,ISIC_0064694.JPG
break,html.Screen,4_93_1,2023-11-02T20:14:21.152Z,,0,,,NaN,,,,,,false,,,,875605.2999999523,875604.8999999762,,875604.3999999762,,875618.428,8,400,,,
break_continue,html.Screen,4_93_2,2023-11-02T20:14:21.152Z,,0,,,NaN,,,,,,false,,,,875605.8999999762,875605.6999999285,,875605.5,,875618.428,8,400,,,
sequence,flow.Sequence,4_93,2023-11-02T20:14:21.152Z,,0,,,3282.3699999285163,completion,,,,,false,,,,875606,875605.6999999285,872310.201,872318.5999999046,872323.33,875618.428,8,400,,,
trial,html.Screen,4_94_0,2023-11-02T20:14:24.661Z,,0,2,,3496.271999928518,response,ISIC_8543040.JPG,7,ISIC_8786606.JPG,ISIC_8786606.JPG,false,0,keypress(z),500,879115.0999999046,879114.6999999285,875611.841,875606.1999999285,875618.428,879121.972,8,400,45,,ISIC_8543040.JPG
break,html.Screen,4_94_1,2023-11-02T20:14:24.662Z,,0,,,NaN,,,,,,false,,,,879116.0999999046,879115.6999999285,,879115.1999999285,,879121.972,8,400,,,
break_continue,html.Screen,4_94_2,2023-11-02T20:14:24.663Z,,0,,,NaN,,,,,,false,,,,879116.5999999046,879116.3999999762,,879116.2999999523,,879121.972,8,400,,,
sequence,flow.Sequence,4_94,2023-11-02T20:14:24.663Z,,0,,,3497.971999976202,completion,,,,,false,,,,879116.6999999285,879116.3999999762,875611.841,875606.1999999285,875618.428,879121.972,8,400,,,
trial,html.Screen,4_95_0,2023-11-02T20:14:27.614Z,,0,2,,2945.227999928524,response,ISIC_0069488.JPG,13,ISIC_6178088.JPG,ISIC_6178088.JPG,false,0,keypress(z),500,882067.5,882067.1999999285,879108.771,879116.7999999523,879121.972,882070.105,8,400,46,,ISIC_0069488.JPG
break,html.Screen,4_95_1,2023-11-02T20:14:27.615Z,,0,,,NaN,,,,,,false,,,,882068.6999999285,882068.3999999762,,882067.8999999762,,882070.105,8,400,,,
break_continue,html.Screen,4_95_2,2023-11-02T20:14:27.616Z,,0,,,NaN,,,,,,false,,,,882069.2999999523,882069.1999999285,,882069,,882070.105,8,400,,,
sequence,flow.Sequence,4_95,2023-11-02T20:14:27.616Z,,0,,,2947.227999928524,completion,,,,,false,,,,882069.5999999046,882069.1999999285,879108.771,879116.7999999523,879121.972,882070.105,8,400,,,
trial,html.Screen,4_96_0,2023-11-02T20:14:30.995Z,,0,2,,3377.994999904651,response,ISIC_1225511.JPG,9,ISIC_6171084.JPG,ISIC_6171084.JPG,false,0,keypress(z),500,885448.2999999523,885448.0999999046,882063.041,882069.5999999046,882070.105,885455.742,8,400,47,,ISIC_1225511.JPG
break,html.Screen,4_96_1,2023-11-02T20:14:30.996Z,,0,,,NaN,,,,,,false,,,,885449.5,885449.1999999285,,885448.5999999046,,885455.742,8,400,,,
break_continue,html.Screen,4_96_2,2023-11-02T20:14:30.996Z,,0,,,NaN,,,,,,false,,,,885450,885449.8999999762,,885449.6999999285,,885455.742,8,400,,,
sequence,flow.Sequence,4_96,2023-11-02T20:14:30.996Z,,0,,,3379.7949999761768,completion,,,,,false,,,,885450.0999999046,885449.8999999762,882063.041,882069.5999999046,882070.105,885455.742,8,400,,,
trial,html.Screen,4_97_0,2023-11-02T20:14:34.327Z,,0,2,,3324.8579999046633,response,ISIC_0029777.JPG,9,ISIC_3065032.JPG,ISIC_3065032.JPG,false,0,keypress(z),500,888780.8999999762,888780.5999999046,885442.643,885450.1999999285,885455.742,888792.215,8,400,48,,ISIC_0029777.JPG
break,html.Screen,4_97_1,2023-11-02T20:14:34.329Z,,0,,,NaN,,,,,,false,,,,888782.2999999523,888781.6999999285,,888781.1999999285,,888792.215,8,400,,,
break_continue,html.Screen,4_97_2,2023-11-02T20:14:34.329Z,,0,,,NaN,,,,,,false,,,,888782.7999999523,888782.5999999046,,888782.3999999762,,888792.215,8,400,,,
sequence,flow.Sequence,4_97,2023-11-02T20:14:34.329Z,,0,,,3326.8579999046633,completion,,,,,false,,,,888782.8999999762,888782.5999999046,885442.643,885450.1999999285,885455.742,888792.215,8,400,,,
trial,html.Screen,4_98_0,2023-11-02T20:14:37.684Z,,0,2,,3344.484999928507,response,ISIC_0428383.JPG,12,ISIC_0066412.JPG,ISIC_0428383.JPG,false,1,keypress(m),500,892137.1999999285,892136.6999999285,888785.383,888783.0999999046,888792.215,892142.991,8,400,49,,ISIC_0066412.JPG
break,html.Screen,4_98_1,2023-11-02T20:14:37.685Z,,0,,,NaN,,,,,,false,,,,892138.5999999046,892138.2999999523,,892137.3999999762,,892142.991,8,400,,,
break_continue,html.Screen,4_98_2,2023-11-02T20:14:37.686Z,,0,,,NaN,,,,,,false,,,,892139.1999999285,892138.8999999762,,892138.7999999523,,892142.991,8,400,,,
sequence,flow.Sequence,4_98,2023-11-02T20:14:37.686Z,,0,,,3346.6849999761907,completion,,,,,false,,,,892139.3999999762,892138.8999999762,888785.383,888783,888792.215,892142.991,8,400,,,
trial,html.Screen,4_99_0,2023-11-02T20:14:40.575Z,,0,2,,2885.7089999284362,response,ISIC_0026364.JPG,6,ISIC_3826001.JPG,ISIC_3826001.JPG,false,0,keypress(z),500,895028.8999999762,895028.6999999285,892135.263,892139.5,892142.991,895035.788,8,400,50,,ISIC_0026364.JPG
break,html.Screen,4_99_1,2023-11-02T20:14:50.573Z,,0,,,9996.67200000002,timeout,,,,,false,,,,905026.6999999285,905025.701,895028.281,895029.1999999285,895035.788,905032.46,8,400,,,
break_continue,html.Screen,4_99_2,2023-11-02T20:17:30.831Z,,0,,,160220.13999990467,response,,,,,false,continue,keypress(Space),,1065284.7999999523,1065252.5999999046,905025.701,905026.7999999523,905032.46,1065290.134,8,400,,,
sequence,flow.Sequence,4_99,2023-11-02T20:17:30.831Z,,0,,,173109.6089999046,completion,,,,,false,,,,1065285.0999999046,1065252.5999999046,892135.263,892139.3999999762,892142.991,1065290.134,8,400,,,
trial,html.Screen,4_100_0,2023-11-02T20:17:38.072Z,,0,3,,7235.965999904554,response,ISIC_0011959.JPG,5,ISIC_0010313.JPG,ISIC_0010313.JPG,false,0,keypress(z),500,1072526.3999999762,1072526.0999999046,1065279.704,1065285.0999999046,1065290.134,1072532.634,8,400,1,,ISIC_0011959.JPG
break,html.Screen,4_100_1,2023-11-02T20:17:38.073Z,,0,,,NaN,,,,,,false,,,,1072527.3999999762,1072527.0999999046,,1072526.5999999046,,1072532.634,8,400,,,
break_continue,html.Screen,4_100_2,2023-11-02T20:17:38.074Z,,0,,,NaN,,,,,,false,,,,1072528,1072527.8999999762,,1072527.6999999285,,1072532.634,8,400,,,
sequence,flow.Sequence,4_100,2023-11-02T20:17:38.074Z,,0,,,7237.76599997608,completion,,,,,false,,,,1072528.1999999285,1072527.8999999762,1065279.704,1065285.0999999046,1065290.134,1072532.634,8,400,,,
trial,html.Screen,4_101_0,2023-11-02T20:17:41.603Z,,0,3,,3524.065999928396,response,ISIC_0028297.JPG,5,ISIC_5097947.JPG,ISIC_0028297.JPG,false,1,keypress(m),500,1076057,1076056.6999999285,1072526.171,1072528.2999999523,1072532.634,1076063.705,8,400,2,,ISIC_5097947.JPG
break,html.Screen,4_101_1,2023-11-02T20:17:41.604Z,,0,,,NaN,,,,,,false,,,,1076058,1076057.7999999523,,1076057.1999999285,,1076063.705,8,400,,,
break_continue,html.Screen,4_101_2,2023-11-02T20:17:41.604Z,,0,,,NaN,,,,,,false,,,,1076058.5,1076058.3999999762,,1076058.1999999285,,1076063.705,8,400,,,
sequence,flow.Sequence,4_101,2023-11-02T20:17:41.605Z,,0,,,3525.76599997608,completion,,,,,false,,,,1076058.6999999285,1076058.3999999762,1072526.171,1072528.1999999285,1072532.634,1076063.705,8,400,,,
trial,html.Screen,4_102_0,2023-11-02T20:17:44.873Z,,0,3,,3262.7949999999255,response,ISIC_6544382.JPG,6,ISIC_1628539.JPG,ISIC_6544382.JPG,false,1,keypress(m),500,1079326.8999999762,1079326.5,1076057.205,1076058.7999999523,1076063.705,1079331.279,8,400,3,,ISIC_1628539.JPG
break,html.Screen,4_102_1,2023-11-02T20:17:44.874Z,,0,,,NaN,,,,,,false,,,,1079327.8999999762,1079327.6999999285,,1079327.0999999046,,1079331.279,8,400,,,
break_continue,html.Screen,4_102_2,2023-11-02T20:17:44.874Z,,0,,,NaN,,,,,,false,,,,1079328.5,1079328.2999999523,,1079328.0999999046,,1079331.279,8,400,,,
sequence,flow.Sequence,4_102,2023-11-02T20:17:44.875Z,,0,,,3264.594999952242,completion,,,,,false,,,,1079328.5999999046,1079328.2999999523,1076057.205,1076058.7999999523,1076063.705,1079331.279,8,400,,,
trial,html.Screen,4_103_0,2023-11-02T20:17:47.921Z,,0,3,,3043.9209999283776,response,ISIC_0031013.JPG,10,ISIC_8822738.JPG,ISIC_8822738.JPG,false,0,keypress(z),500,1082375.5,1082375.1999999285,1079324.516,1079328.7999999523,1079331.279,1082376.687,8,400,4,,ISIC_0031013.JPG
break,html.Screen,4_103_1,2023-11-02T20:17:47.922Z,,0,,,NaN,,,,,,false,,,,1082376.3999999762,1082376.1999999285,,1082375.6999999285,,1082376.687,8,400,,,
break_continue,html.Screen,4_103_2,2023-11-02T20:17:47.923Z,,0,,,NaN,,,,,,false,,,,1082376.7999999523,1082376.5999999046,,1082376.5,,1082376.687,8,400,,,
sequence,flow.Sequence,4_103,2023-11-02T20:17:47.923Z,,0,,,3045.3209999045357,completion,,,,,false,,,,1082377,1082376.5999999046,1079324.516,1079328.6999999285,1079331.279,1082376.687,8,400,,,
trial,html.Screen,4_104_0,2023-11-02T20:17:52.252Z,,0,3,,4329.512999928556,response,ISIC_0046422.JPG,11,ISIC_0063053.JPG,ISIC_0046422.JPG,false,1,keypress(m),500,1086706.5999999046,1086706.1999999285,1082370.067,1082377.1999999285,1082376.687,1086712.421,8,400,5,,ISIC_0063053.JPG
break,html.Screen,4_104_1,2023-11-02T20:17:52.254Z,,0,,,NaN,,,,,,false,,,,1086707.8999999762,1086707.5,,1086706.8999999762,,1086712.421,8,400,,,
break_continue,html.Screen,4_104_2,2023-11-02T20:17:52.254Z,,0,,,NaN,,,,,,false,,,,1086708.3999999762,1086708.1999999285,,1086708,,1086712.421,8,400,,,
sequence,flow.Sequence,4_104,2023-11-02T20:17:52.254Z,,0,,,4331.512999928556,completion,,,,,false,,,,1086708.5,1086708.1999999285,1082370.067,1082377,1082376.687,1086712.421,8,400,,,
trial,html.Screen,4_105_0,2023-11-02T20:17:56.754Z,,0,3,,4495.878999952227,response,ISIC_2394780.JPG,11,ISIC_1460249.JPG,ISIC_1460249.JPG,false,0,keypress(z),500,1091208.5999999046,1091208.2999999523,1086705.895,1086708.5999999046,1086712.421,1091214.788,8,400,6,,ISIC_2394780.JPG
break,html.Screen,4_105_1,2023-11-02T20:17:56.756Z,,0,,,NaN,,,,,,false,,,,1091209.5999999046,1091209.1999999285,,1091208.7999999523,,1091214.788,8,400,,,
break_continue,html.Screen,4_105_2,2023-11-02T20:17:56.756Z,,0,,,NaN,,,,,,false,,,,1091210.0999999046,1091210,,1091209.7999999523,,1091214.788,8,400,,,
sequence,flow.Sequence,4_105,2023-11-02T20:17:56.756Z,,0,,,4497.578999999911,completion,,,,,false,,,,1091210.1999999285,1091210,1086705.895,1086708.5999999046,1086712.421,1091214.788,8,400,,,
trial,html.Screen,4_106_0,2023-11-02T20:18:00.236Z,,0,3,,3475.2120000000577,response,ISIC_0430356.JPG,12,ISIC_8607090.JPG,ISIC_8607090.JPG,false,0,keypress(z),500,1094690.1999999285,1094690,1091208.093,1091210.2999999523,1091214.788,1094697.315,8,400,7,,ISIC_0430356.JPG
break,html.Screen,4_106_1,2023-11-02T20:18:00.237Z,,0,,,NaN,,,,,,false,,,,1094691.1999999285,1094690.8999999762,,1094690.3999999762,,1094697.315,8,400,,,
break_continue,html.Screen,4_106_2,2023-11-02T20:18:00.238Z,,0,,,NaN,,,,,,false,,,,1094691.6999999285,1094691.5999999046,,1094691.3999999762,,1094697.315,8,400,,,
sequence,flow.Sequence,4_106,2023-11-02T20:18:00.238Z,,0,,,3476.8119999046903,completion,,,,,false,,,,1094691.7999999523,1094691.5999999046,1091208.093,1091210.2999999523,1091214.788,1094697.315,8,400,,,
trial,html.Screen,4_107_0,2023-11-02T20:18:03.381Z,,0,3,,3137.7849999046884,response,ISIC_0062734.JPG,7,ISIC_5410481.JPG,ISIC_0062734.JPG,false,1,keypress(m),500,1097835.2999999523,1097835.0999999046,1094690.805,1094691.8999999762,1094697.315,1097840.027,8,400,8,,ISIC_5410481.JPG
break,html.Screen,4_107_1,2023-11-02T20:18:03.382Z,,0,,,NaN,,,,,,false,,,,1097836.2999999523,1097836,,1097835.5,,1097840.027,8,400,,,
break_continue,html.Screen,4_107_2,2023-11-02T20:18:03.383Z,,0,,,NaN,,,,,,false,,,,1097836.7999999523,1097836.6999999285,,1097836.5,,1097840.027,8,400,,,
sequence,flow.Sequence,4_107,2023-11-02T20:18:03.383Z,,0,,,3139.3849999285303,completion,,,,,false,,,,1097837,1097836.6999999285,1094690.805,1094691.8999999762,1094697.315,1097840.027,8,400,,,
trial,html.Screen,4_108_0,2023-11-02T20:18:06.943Z,,0,3,,3556.472999999998,response,ISIC_8495875.JPG,10,ISIC_0228772.JPG,ISIC_8495875.JPG,false,1,keypress(m),500,1101396.7999999523,1101396.5,1097833.463,1097837.0999999046,1097840.027,1101398.665,8,400,9,,ISIC_0228772.JPG
break,html.Screen,4_108_1,2023-11-02T20:18:06.944Z,,0,,,NaN,,,,,,false,,,,1101397.7999999523,1101397.3999999762,,1101397,,1101398.665,8,400,,,
break_continue,html.Screen,4_108_2,2023-11-02T20:18:06.944Z,,0,,,NaN,,,,,,false,,,,1101398.3999999762,1101398.1999999285,,1101397.8999999762,,1101398.665,8,400,,,
sequence,flow.Sequence,4_108,2023-11-02T20:18:06.944Z,,0,,,3558.1729999284726,completion,,,,,false,,,,1101398.5,1101398.1999999285,1097833.463,1097837.0999999046,1097840.027,1101398.665,8,400,,,
trial,html.Screen,4_109_0,2023-11-02T20:18:11.140Z,,0,3,,4195.634999952279,response,ISIC_2721699.JPG,6,ISIC_2498064.JPG,ISIC_2498064.JPG,false,0,keypress(z),500,1105594.5999999046,1105594.2999999523,1101392.015,1101398.5999999046,1101398.665,1105609.964,8,400,10,,ISIC_2721699.JPG
break,html.Screen,4_109_1,2023-11-02T20:18:11.142Z,,0,,,NaN,,,,,,false,,,,1105595.5999999046,1105595.2999999523,,1105594.7999999523,,1105609.964,8,400,,,
break_continue,html.Screen,4_109_2,2023-11-02T20:18:11.142Z,,0,,,NaN,,,,,,false,,,,1105596.0999999046,1105596,,1105595.7999999523,,1105609.964,8,400,,,
sequence,flow.Sequence,4_109,2023-11-02T20:18:11.142Z,,0,,,4197.334999999963,completion,,,,,false,,,,1105596.3999999762,1105596,1101392.015,1101398.5999999046,1101398.665,1105609.964,8,400,,,
trial,html.Screen,4_110_0,2023-11-02T20:18:14.316Z,,0,3,,3159.3359999523964,response,ISIC_0033384.JPG,9,ISIC_2742786.JPG,ISIC_2742786.JPG,false,0,keypress(z),500,1108769.7999999523,1108769.2999999523,1105589.263,1105596.5,1105609.964,1108772.983,8,400,11,,ISIC_0033384.JPG
break,html.Screen,4_110_1,2023-11-02T20:18:14.317Z,,0,,,NaN,,,,,,false,,,,1108770.7999999523,1108770.5,,1108769.8999999762,,1108772.983,8,400,,,
break_continue,html.Screen,4_110_2,2023-11-02T20:18:14.317Z,,0,,,NaN,,,,,,false,,,,1108771.2999999523,1108771.1999999285,,1108771,,1108772.983,8,400,,,
sequence,flow.Sequence,4_110,2023-11-02T20:18:14.317Z,,0,,,3161.2359999285545,completion,,,,,false,,,,1108771.3999999762,1108771.1999999285,1105589.263,1105596.3999999762,1105609.964,1108772.983,8,400,,,
trial,html.Screen,4_111_0,2023-11-02T20:18:18.079Z,,0,3,,3760.216999928467,response,ISIC_0029453.JPG,11,ISIC_4538207.JPG,ISIC_4538207.JPG,false,0,keypress(z),500,1112533.5,1112533.1999999285,1108766.643,1108771.5999999046,1108772.983,1112539.843,8,400,12,,ISIC_0029453.JPG
break,html.Screen,4_111_1,2023-11-02T20:18:18.081Z,,0,,,NaN,,,,,,false,,,,1112534.7999999523,1112534.5,,1112533.7999999523,,1112539.843,8,400,,,
break_continue,html.Screen,4_111_2,2023-11-02T20:18:18.081Z,,0,,,NaN,,,,,,false,,,,1112535.1999999285,1112535.0999999046,,1112534.8999999762,,1112539.843,8,400,,,
sequence,flow.Sequence,4_111,2023-11-02T20:18:18.081Z,,0,,,3762.116999904625,completion,,,,,false,,,,1112535.3999999762,1112535.0999999046,1108766.643,1108771.5,1108772.983,1112539.843,8,400,,,
trial,html.Screen,4_112_0,2023-11-02T20:18:20.950Z,,0,3,,2864.0569999760482,response,ISIC_0283957.JPG,10,ISIC_0010398.JPG,ISIC_0283957.JPG,false,1,keypress(m),500,1115404.0999999046,1115403.8999999762,1112533.7,1112535.5999999046,1112539.843,1115411.963,8,400,13,,ISIC_0010398.JPG
break,html.Screen,4_112_1,2023-11-02T20:18:20.951Z,,0,,,NaN,,,,,,false,,,,1115405.2999999523,1115404.8999999762,,1115404.2999999523,,1115411.963,8,400,,,
break_continue,html.Screen,4_112_2,2023-11-02T20:18:20.952Z,,0,,,NaN,,,,,,false,,,,1115405.6999999285,1115405.5999999046,,1115405.3999999762,,1115411.963,8,400,,,
sequence,flow.Sequence,4_112,2023-11-02T20:18:20.952Z,,0,,,2865.7569999045227,completion,,,,,false,,,,1115405.8999999762,1115405.5999999046,1112533.7,1112535.5,1112539.843,1115411.963,8,400,,,
trial,html.Screen,4_113_0,2023-11-02T20:18:24.076Z,,0,3,,3118.037000000011,response,ISIC_7837503.JPG,10,ISIC_0033524.JPG,ISIC_7837503.JPG,false,1,keypress(m),500,1118530.2999999523,1118530,1115398.269,1115406,1115411.963,1118533.735,8,400,14,,ISIC_0033524.JPG
break,html.Screen,4_113_1,2023-11-02T20:18:24.077Z,,0,,,NaN,,,,,,false,,,,1118531.3999999762,1118531,,1118530.5,,1118533.735,8,400,,,
break_continue,html.Screen,4_113_2,2023-11-02T20:18:24.078Z,,0,,,NaN,,,,,,false,,,,1118531.7999999523,1118531.6999999285,,1118531.5,,1118533.735,8,400,,,
sequence,flow.Sequence,4_113,2023-11-02T20:18:24.078Z,,0,,,3119.7369999284856,completion,,,,,false,,,,1118532,1118531.6999999285,1115398.269,1115405.8999999762,1115411.963,1118533.735,8,400,,,
trial,html.Screen,4_114_0,2023-11-02T20:18:26.960Z,,0,3,,2880.064999952214,response,ISIC_0029914.JPG,11,ISIC_5294540.JPG,ISIC_5294540.JPG,false,0,keypress(z),500,1121414.0999999046,1121413.7999999523,1118527.494,1118532.0999999046,1118533.735,1121419.639,8,400,15,,ISIC_0029914.JPG
break,html.Screen,4_114_1,2023-11-02T20:18:26.961Z,,0,,,NaN,,,,,,false,,,,1121415.1999999285,1121414.8999999762,,1121414.3999999762,,1121419.639,8,400,,,
break_continue,html.Screen,4_114_2,2023-11-02T20:18:26.962Z,,0,,,NaN,,,,,,false,,,,1121415.6999999285,1121415.5999999046,,1121415.3999999762,,1121419.639,8,400,,,
sequence,flow.Sequence,4_114,2023-11-02T20:18:26.962Z,,0,,,2881.86499990453,completion,,,,,false,,,,1121415.7999999523,1121415.5999999046,1118527.494,1118532.0999999046,1118533.735,1121419.639,8,400,,,
trial,html.Screen,4_115_0,2023-11-02T20:18:30.230Z,,0,3,,3264.2609999761917,response,ISIC_0033224.JPG,6,ISIC_2200197.JPG,ISIC_2200197.JPG,false,0,keypress(z),500,1124684.0999999046,1124683.8999999762,1121412.856,1121415.8999999762,1121419.639,1124687.133,8,400,16,,ISIC_0033224.JPG
break,html.Screen,4_115_1,2023-11-02T20:18:30.231Z,,0,,,NaN,,,,,,false,,,,1124685.1999999285,1124684.7999999523,,1124684.2999999523,,1124687.133,8,400,,,
break_continue,html.Screen,4_115_2,2023-11-02T20:18:30.231Z,,0,,,NaN,,,,,,false,,,,1124685.5999999046,1124685.5,,1124685.2999999523,,1124687.133,8,400,,,
sequence,flow.Sequence,4_115,2023-11-02T20:18:30.232Z,,0,,,3265.8610000000335,completion,,,,,false,,,,1124685.6999999285,1124685.5,1121412.856,1121415.8999999762,1121419.639,1124687.133,8,400,,,
trial,html.Screen,4_116_0,2023-11-02T20:18:33.933Z,,0,3,,3699.266999976244,response,ISIC_0663824.JPG,10,ISIC_0031548.JPG,ISIC_0663824.JPG,false,1,keypress(m),500,1128386.6999999285,1128386.3999999762,1124680.413,1124685.7999999523,1124687.133,1128398.693,8,400,17,,ISIC_0031548.JPG
break,html.Screen,4_116_1,2023-11-02T20:18:33.934Z,,0,,,NaN,,,,,,false,,,,1128387.6999999285,1128387.3999999762,,1128386.8999999762,,1128398.693,8,400,,,
break_continue,html.Screen,4_116_2,2023-11-02T20:18:33.934Z,,0,,,NaN,,,,,,false,,,,1128388.0999999046,1128387.8999999762,,1128387.7999999523,,1128398.693,8,400,,,
sequence,flow.Sequence,4_116,2023-11-02T20:18:33.934Z,,0,,,3700.766999976244,completion,,,,,false,,,,1128388.1999999285,1128387.8999999762,1124680.413,1124685.7999999523,1124687.133,1128398.693,8,400,,,
trial,html.Screen,4_117_0,2023-11-02T20:18:37.733Z,,0,3,,3787.706999976188,response,ISIC_0070061.JPG,7,ISIC_3492490.JPG,ISIC_0070061.JPG,false,1,keypress(m),500,1132186.5,1132186.3999999762,1128391.552,1128388.3999999762,1128398.693,1132193.212,8,400,18,,ISIC_3492490.JPG
break,html.Screen,4_117_1,2023-11-02T20:18:37.734Z,,0,,,NaN,,,,,,false,,,,1132187.6999999285,1132187.2999999523,,1132186.7999999523,,1132193.212,8,400,,,
break_continue,html.Screen,4_117_2,2023-11-02T20:18:37.734Z,,0,,,NaN,,,,,,false,,,,1132188.0999999046,1132188,,1132187.7999999523,,1132193.212,8,400,,,
sequence,flow.Sequence,4_117,2023-11-02T20:18:37.734Z,,0,,,3789.30700000003,completion,,,,,false,,,,1132188.2999999523,1132188,1128391.552,1128388.3999999762,1128398.693,1132193.212,8,400,,,
trial,html.Screen,4_118_0,2023-11-02T20:18:42.416Z,,0,3,,4675.987999928417,response,ISIC_1413120.JPG,5,ISIC_0013865.JPG,ISIC_1413120.JPG,false,1,keypress(m),500,1136869.3999999762,1136869.1999999285,1132186.601,1132188.3999999762,1132193.212,1136875.779,8,400,19,,ISIC_0013865.JPG
break,html.Screen,4_118_1,2023-11-02T20:18:42.417Z,,0,,,NaN,,,,,,false,,,,1136870.5,1136870.1999999285,,1136869.6999999285,,1136875.779,8,400,,,
break_continue,html.Screen,4_118_2,2023-11-02T20:18:42.417Z,,0,,,NaN,,,,,,false,,,,1136870.8999999762,1136870.7999999523,,1136870.5999999046,,1136875.779,8,400,,,
sequence,flow.Sequence,4_118,2023-11-02T20:18:42.417Z,,0,,,4677.5879999522585,completion,,,,,false,,,,1136871.0999999046,1136870.7999999523,1132186.601,1132188.2999999523,1132193.212,1136875.779,8,400,,,
trial,html.Screen,4_119_0,2023-11-02T20:18:46.132Z,,0,3,,3709.5209999522194,response,ISIC_5218530.JPG,4,ISIC_0032975.JPG,ISIC_5218530.JPG,false,1,keypress(m),500,1140585.5999999046,1140585.2999999523,1136869.059,1136871.1999999285,1136875.779,1140601.327,8,400,20,,ISIC_0032975.JPG
break,html.Screen,4_119_1,2023-11-02T20:18:46.133Z,,0,,,NaN,,,,,,false,,,,1140586.5999999046,1140586.2999999523,,1140585.7999999523,,1140601.327,8,400,,,
break_continue,html.Screen,4_119_2,2023-11-02T20:18:46.133Z,,0,,,NaN,,,,,,false,,,,1140587.0999999046,1140587,,1140586.7999999523,,1140601.327,8,400,,,
sequence,flow.Sequence,4_119,2023-11-02T20:18:46.133Z,,0,,,3711.220999999903,completion,,,,,false,,,,1140587.2999999523,1140587,1136869.059,1136871.1999999285,1136875.779,1140601.327,8,400,,,
trial,html.Screen,4_120_0,2023-11-02T20:18:49.199Z,,0,3,,3050.872999928426,response,ISIC_0011892.JPG,5,ISIC_0063753.JPG,ISIC_0011892.JPG,false,1,keypress(m),500,1143652.3999999762,1143652.1999999285,1140580.877,1140587.5,1140601.327,1143668.134,8,400,21,,ISIC_0063753.JPG
break,html.Screen,4_120_1,2023-11-02T20:18:49.200Z,,0,,,NaN,,,,,,false,,,,1143653.3999999762,1143653.1999999285,,1143652.5999999046,,1143668.134,8,400,,,
break_continue,html.Screen,4_120_2,2023-11-02T20:18:49.200Z,,0,,,NaN,,,,,,false,,,,1143654,1143653.8999999762,,1143653.6999999285,,1143668.134,8,400,,,
sequence,flow.Sequence,4_120,2023-11-02T20:18:49.200Z,,0,,,3052.5729999761097,completion,,,,,false,,,,1143654.1999999285,1143653.8999999762,1140580.877,1140587.3999999762,1140601.327,1143668.134,8,400,,,
trial,html.Screen,4_121_0,2023-11-02T20:18:52.569Z,,0,3,,3354.165999952238,response,ISIC_1210565.JPG,11,ISIC_0205127.JPG,ISIC_1210565.JPG,false,1,keypress(m),500,1147022.6999999285,1147022.2999999523,1143646.956,1143654.3999999762,1143668.134,1147025.07,8,400,22,,ISIC_0205127.JPG
break,html.Screen,4_121_1,2023-11-02T20:18:52.570Z,,0,,,NaN,,,,,,false,,,,1147023.6999999285,1147023.2999999523,,1147022.7999999523,,1147025.07,8,400,,,
break_continue,html.Screen,4_121_2,2023-11-02T20:18:52.570Z,,0,,,NaN,,,,,,false,,,,1147024.2999999523,1147024.0999999046,,1147023.8999999762,,1147025.07,8,400,,,
sequence,flow.Sequence,4_121,2023-11-02T20:18:52.571Z,,0,,,3355.9659999045543,completion,,,,,false,,,,1147024.3999999762,1147024.0999999046,1143646.956,1143654.2999999523,1143668.134,1147025.07,8,400,,,
trial,html.Screen,4_122_0,2023-11-02T20:18:55.472Z,,0,3,,2900.729999952251,response,ISIC_0034287.JPG,5,ISIC_9522489.JPG,ISIC_9522489.JPG,false,0,keypress(z),500,1149926.1999999285,1149925.7999999523,1147018.41,1147024.5,1147025.07,1149931.704,8,400,23,,ISIC_0034287.JPG
break,html.Screen,4_122_1,2023-11-02T20:18:55.474Z,,0,,,NaN,,,,,,false,,,,1149927.5,1149927.0999999046,,1149926.5,,1149931.704,8,400,,,
break_continue,html.Screen,4_122_2,2023-11-02T20:18:55.474Z,,0,,,NaN,,,,,,false,,,,1149928.0999999046,1149927.7999999523,,1149927.5999999046,,1149931.704,8,400,,,
sequence,flow.Sequence,4_122,2023-11-02T20:18:55.474Z,,0,,,2902.729999952251,completion,,,,,false,,,,1149928.1999999285,1149927.7999999523,1147018.41,1147024.3999999762,1147025.07,1149931.704,8,400,,,
trial,html.Screen,4_123_0,2023-11-02T20:19:01.686Z,,0,3,,6207.495999928564,response,ISIC_4394524.JPG,8,ISIC_0067458.JPG,ISIC_4394524.JPG,false,1,keypress(m),500,1156139.5999999046,1156139.1999999285,1149925.176,1149928.2999999523,1149931.704,1156147.556,8,400,24,,ISIC_0067458.JPG
break,html.Screen,4_123_1,2023-11-02T20:19:01.687Z,,0,,,NaN,,,,,,false,,,,1156141.1999999285,1156140.6999999285,,1156140,,1156147.556,8,400,,,
break_continue,html.Screen,4_123_2,2023-11-02T20:19:01.688Z,,0,,,NaN,,,,,,false,,,,1156141.7999999523,1156141.5999999046,,1156141.3999999762,,1156147.556,8,400,,,
sequence,flow.Sequence,4_123,2023-11-02T20:19:01.688Z,,0,,,6209.895999904722,completion,,,,,false,,,,1156142.0999999046,1156141.5999999046,1149925.176,1149928.1999999285,1149931.704,1156147.556,8,400,,,
trial,html.Screen,4_124_0,2023-11-02T20:19:07.917Z,,0,3,,6223.243999952218,response,ISIC_0002578.JPG,6,ISIC_0011073.JPG,ISIC_0002578.JPG,false,1,keypress(m),500,1162371,1162370.7999999523,1156140.643,1156142.0999999046,1156147.556,1162377.148,8,400,25,,ISIC_0011073.JPG
break,html.Screen,4_124_1,2023-11-02T20:19:07.918Z,,0,,,NaN,,,,,,false,,,,1162372.0999999046,1162371.7999999523,,1162371.1999999285,,1162377.148,8,400,,,
break_continue,html.Screen,4_124_2,2023-11-02T20:19:07.919Z,,0,,,NaN,,,,,,false,,,,1162372.6999999285,1162372.3999999762,,1162372.1999999285,,1162377.148,8,400,,,
sequence,flow.Sequence,4_124,2023-11-02T20:19:07.919Z,,0,,,6224.843999976059,completion,,,,,false,,,,1162372.8999999762,1162372.3999999762,1156140.643,1156142.0999999046,1156147.556,1162377.148,8,400,,,
