sender,sender_type,sender_id,timestamp,meta,,blockNo,condition,duration,ended_on,img_left,img_reveal,img_right,loser,practice,response,response_action,selection_duration,time_commit,time_end,time_render,time_run,time_show,time_switch,total_blocks,total_trials,trialNo,url,winner
informed_consent,html.Screen,0,2023-11-01T16:58:36.396Z,"{""labjs_version"":""20.2.4"",""labjs_build"":{""flavor"":""production"",""commit"":""f5b4a49f956347addd546a832a3327688c2c0fef""},""location"":""https://run.pavlovia.org/MurrayBennett/melanoma-2afc/?participant=66681&platform=sona"",""userAgent"":""Mozilla/5.0 (Macintosh; Intel Mac OS X 10_15_7) AppleWebKit/537.36 (KHTML, like Gecko) Chrome/116.0.0.0 Safari/537.36"",""platform"":""MacIntel"",""language"":""en-US"",""locale"":""en-US"",""timeZone"":""America/Chicago"",""timezoneOffset"":300,""screen_width"":1440,""screen_height"":900,""scroll_width"":1440,""scroll_height"":735,""window_innerWidth"":1440,""window_innerHeight"":783,""devicePixelRatio"":1}",,,,20453.191999964238,response,,,,,,consent,click button,,23292.5,23284.099999964237,2797.574,2810.099999964237,2830.908,23332.313,,,,"{""participant"":""66681"",""platform"":""sona""}",
Welcome,html.Screen,1,2023-11-01T16:58:40.361Z,,,,symmetry,3923.4870000119226,response,,,,,,continue,click button,,27257.69999998808,27255.80000001192,23282.312,23292.69999998808,23332.313,27266.244,,,,,
trial,html.Screen,2_0_0,2023-11-01T16:58:46.707Z,,0,0,,6337.056000011922,response,ISIC_0069348.JPG,,ISIC_6997061.JPG,ISIC_0069348.JPG,true,1,keypress(m),500,33603.59999996424,33603.30000001192,27249.577,27257.899999976158,27266.244,33616.371,1,6,1,,ISIC_6997061.JPG
sequence,flow.Sequence,2_0,2023-11-01T16:58:46.708Z,,0,,,6337.056000011922,completion,,,,,true,,,,33604.09999996424,33603.30000001192,27249.577,27257.899999976158,27266.244,33616.371,1,6,,,
trial,html.Screen,2_1_0,2023-11-01T16:58:51.942Z,,0,0,,5221.629000000001,response,ISIC_0009529.JPG,,ISIC_0057368.JPG,ISIC_0057368.JPG,true,0,keypress(z),500,38838,38838,33599.704,33604.19999998808,33616.371,38850.284,1,6,2,,ISIC_0009529.JPG
sequence,flow.Sequence,2_1,2023-11-01T16:58:51.942Z,,0,,,5221.629000000001,completion,,,,,true,,,,38838.19999998808,38838,33599.704,33604.19999998808,33616.371,38850.284,1,6,,,
trial,html.Screen,2_2_0,2023-11-01T16:59:03.440Z,,0,0,,11517.667000000001,timeout,ISIC_0064954.JPG,,ISIC_9758671.JPG,,true,,,500,50335.80000001192,50335.5,38833.617,38838.39999997616,38850.284,50367.951,1,6,3,,
sequence,flow.Sequence,2_2,2023-11-01T16:59:03.440Z,,0,,,11485.216,completion,,,,,true,,,,50336.30000001192,50335.5,38833.617,38838.30000001192,38850.284,50367.951,1,6,,,
trial,html.Screen,2_3_0,2023-11-01T16:59:07.539Z,,0,0,,4066.84900001192,response,ISIC_0005785.JPG,,ISIC_0000080.JPG,ISIC_0005785.JPG,true,1,keypress(m),500,54435.09999996424,54434.80000001192,50351.284,50336.59999996424,50367.951,54451.366,1,6,4,,ISIC_0000080.JPG
sequence,flow.Sequence,2_3,2023-11-01T16:59:07.540Z,,0,,,4066.84900001192,completion,,,,,true,,,,54435.59999996424,54434.80000001192,50351.284,50336.5,50367.951,54451.366,1,6,,,
trial,html.Screen,2_4_0,2023-11-01T16:59:11.095Z,,0,0,,3539.2339999642354,response,ISIC_7944028.JPG,,ISIC_5390060.JPG,ISIC_5390060.JPG,true,0,keypress(z),500,57990.80000001192,57990.59999996424,54434.699,54435.89999997616,54451.366,58001.437,1,6,5,,ISIC_7944028.JPG
sequence,flow.Sequence,2_4,2023-11-01T16:59:11.096Z,,0,,,3539.2339999642354,completion,,,,,true,,,,57991.19999998808,57990.59999996424,54434.699,54435.69999998808,54451.366,58001.437,1,6,,,
trial,html.Screen,2_5_0,2023-11-01T16:59:14.621Z,,0,0,,3514.46299997616,response,ISIC_0010188.JPG,,ISIC_0794216.JPG,ISIC_0010188.JPG,true,1,keypress(m),500,61516.19999998808,61515.89999997616,57984.77,57991.39999997616,58001.437,61518.621,1,6,6,,ISIC_0794216.JPG
sequence,flow.Sequence,2_5,2023-11-01T16:59:14.621Z,,0,,,3514.46299997616,completion,,,,,true,,,,61516.69999998808,61515.89999997616,57984.77,57991.30000001192,58001.437,61518.621,1,6,,,
loop,flow.Loop,2,2023-11-01T16:59:14.622Z,,,,,34249.65599997616,completion,,,,,true,,,,61517,61515.89999997616,27249.577,27257.80000001192,27266.244,61518.621,1,6,,,
exp_instructions,html.Screen,3,2023-11-01T16:59:19.255Z,,,,,4626.478999964238,response,,,,,,continue,keypress(Space),,66150.59999996424,66145.09999996424,61501.954,61517.09999996424,61518.621,66168.714,,,,,
trial,html.Screen,4_0_0,2023-11-01T16:59:23.103Z,,0,1,,3829.38599996423,response,ISIC_0070342.JPG,5,ISIC_0011964.JPG,ISIC_0070342.JPG,false,1,keypress(m),500,69998.30000001192,69998.09999996424,66152.047,66151.09999996424,66168.714,70002.124,8,400,1,,ISIC_0011964.JPG
break,html.Screen,4_0_1,2023-11-01T16:59:23.104Z,,0,,,NaN,,,,,,false,,,,69999.39999997616,69999.09999996424,,69998.5,,70002.124,8,400,,,
break_continue,html.Screen,4_0_2,2023-11-01T16:59:23.105Z,,0,,,NaN,,,,,,false,,,,69999.80000001192,69999.69999998808,,69999.5,,70002.124,8,400,,,
sequence,flow.Sequence,4_0,2023-11-01T16:59:23.105Z,,0,,,3830.985999988072,completion,,,,,false,,,,70000.09999996424,69999.69999998808,66152.047,66151,66168.714,70002.124,8,400,,,
trial,html.Screen,4_1_0,2023-11-01T16:59:26.213Z,,0,1,,3105.376000000004,response,ISIC_2826618.JPG,6,ISIC_0014103.JPG,ISIC_0014103.JPG,false,0,keypress(z),500,73107.69999998808,73107.5,69985.457,70000.30000001192,70002.124,73119.452,8,400,2,,ISIC_2826618.JPG
break,html.Screen,4_1_1,2023-11-01T16:59:26.213Z,,0,,,NaN,,,,,,false,,,,73108.5,73108.30000001192,,73108,,73119.452,8,400,,,
break_continue,html.Screen,4_1_2,2023-11-01T16:59:26.214Z,,0,,,NaN,,,,,,false,,,,73108.89999997616,73108.69999998808,,73108.59999996424,,73119.452,8,400,,,
sequence,flow.Sequence,4_1,2023-11-01T16:59:26.214Z,,0,,,3106.575999988083,completion,,,,,false,,,,73109.09999996424,73108.69999998808,69985.457,70000.30000001192,70002.124,73119.452,8,400,,,
trial,html.Screen,4_2_0,2023-11-01T16:59:30.075Z,,0,1,,3850.348000011916,response,ISIC_0217267.JPG,8,ISIC_0032551.JPG,ISIC_0217267.JPG,false,1,keypress(m),500,76970,76969.80000001192,73102.785,73109.19999998808,73119.452,76986.196,8,400,3,,ISIC_0032551.JPG
break,html.Screen,4_2_1,2023-11-01T16:59:30.076Z,,0,,,NaN,,,,,,false,,,,76970.80000001192,76970.59999996424,,76970.30000001192,,76986.196,8,400,,,
break_continue,html.Screen,4_2_2,2023-11-01T16:59:30.076Z,,0,,,NaN,,,,,,false,,,,76971.19999998808,76971.09999996424,,76971,,76986.196,8,400,,,
sequence,flow.Sequence,4_2,2023-11-01T16:59:30.076Z,,0,,,3851.6479999642324,completion,,,,,false,,,,76971.39999997616,76971.09999996424,73102.785,73109.19999998808,73119.452,76986.196,8,400,,,
trial,html.Screen,4_3_0,2023-11-01T16:59:33.105Z,,0,1,,3013.703999976162,response,ISIC_4746361.JPG,6,ISIC_0887530.JPG,ISIC_4746361.JPG,false,1,keypress(m),500,80000.19999998808,79999.89999997616,76969.529,76971.59999996424,76986.196,80019.59,8,400,4,,ISIC_0887530.JPG
break,html.Screen,4_3_1,2023-11-01T16:59:33.106Z,,0,,,NaN,,,,,,false,,,,80000.89999997616,80000.69999998808,,80000.39999997616,,80019.59,8,400,,,
break_continue,html.Screen,4_3_2,2023-11-01T16:59:33.106Z,,0,,,NaN,,,,,,false,,,,80001.30000001192,80001.19999998808,,80001,,80019.59,8,400,,,
sequence,flow.Sequence,4_3,2023-11-01T16:59:33.107Z,,0,,,3015.003999988083,completion,,,,,false,,,,80001.5,80001.19999998808,76969.529,76971.5,76986.196,80019.59,8,400,,,
trial,html.Screen,4_4_0,2023-11-01T16:59:36.374Z,,0,1,,3248.6099999880826,response,ISIC_1962845.JPG,7,ISIC_3246746.JPG,ISIC_3246746.JPG,false,0,keypress(z),500,83268.39999997616,83268.19999998808,80002.923,80001.69999998808,80019.59,83270.158,8,400,5,,ISIC_1962845.JPG
break,html.Screen,4_4_1,2023-11-01T16:59:36.374Z,,0,,,NaN,,,,,,false,,,,83269.19999998808,83268.89999997616,,83268.69999998808,,83270.158,8,400,,,
break_continue,html.Screen,4_4_2,2023-11-01T16:59:36.375Z,,0,,,NaN,,,,,,false,,,,83269.5,83269.39999997616,,83269.30000001192,,83270.158,8,400,,,
sequence,flow.Sequence,4_4,2023-11-01T16:59:36.375Z,,0,,,3249.8099999761616,completion,,,,,false,,,,83269.69999998808,83269.39999997616,80002.923,80001.59999996424,80019.59,83270.158,8,400,,,
trial,html.Screen,4_5_0,2023-11-01T16:59:39.254Z,,0,1,,2878.4419999642414,response,ISIC_0026780.JPG,6,ISIC_7333928.JPG,ISIC_0026780.JPG,false,1,keypress(m),500,86148.89999997616,86148.59999996424,83253.491,83269.80000001192,83270.158,86153.549,8,400,6,,ISIC_7333928.JPG
break,html.Screen,4_5_1,2023-11-01T16:59:39.255Z,,0,,,NaN,,,,,,false,,,,86149.80000001192,86149.59999996424,,86149.30000001192,,86153.549,8,400,,,
break_continue,html.Screen,4_5_2,2023-11-01T16:59:39.256Z,,0,,,NaN,,,,,,false,,,,86150.30000001192,86150.09999996424,,86150,,86153.549,8,400,,,
sequence,flow.Sequence,4_5,2023-11-01T16:59:39.256Z,,0,,,2879.9419999642414,completion,,,,,false,,,,86150.5,86150.09999996424,83253.491,83269.80000001192,83270.158,86153.549,8,400,,,
trial,html.Screen,4_6_0,2023-11-01T16:59:42.427Z,,0,1,,3167.550999964238,response,ISIC_0012883.JPG,7,ISIC_0025892.JPG,ISIC_0012883.JPG,false,1,keypress(m),500,89321.39999997616,89321.09999996424,86136.882,86150.69999998808,86153.549,89336.946,8,400,7,,ISIC_0025892.JPG
break,html.Screen,4_6_1,2023-11-01T16:59:42.428Z,,0,,,NaN,,,,,,false,,,,89322.09999996424,89322,,89321.59999996424,,89336.946,8,400,,,
break_continue,html.Screen,4_6_2,2023-11-01T16:59:42.428Z,,0,,,NaN,,,,,,false,,,,89322.5,89322.5,,89322.30000001192,,89336.946,8,400,,,
sequence,flow.Sequence,4_6,2023-11-01T16:59:42.428Z,,0,,,3168.951000000001,completion,,,,,false,,,,89322.69999998808,89322.5,86136.882,86150.69999998808,86153.549,89336.946,8,400,,,
trial,html.Screen,4_7_0,2023-11-01T16:59:45.973Z,,0,1,,3530.5540000000037,response,ISIC_0030689.JPG,8,ISIC_7632525.JPG,ISIC_0030689.JPG,false,1,keypress(m),500,92867.59999996424,92867.5,89320.279,89322.89999997616,89336.946,92870.35,8,400,8,,ISIC_7632525.JPG
break,html.Screen,4_7_1,2023-11-01T16:59:45.974Z,,0,,,NaN,,,,,,false,,,,92868.5,92868.19999998808,,92867.89999997616,,92870.35,8,400,,,
break_continue,html.Screen,4_7_2,2023-11-01T16:59:45.974Z,,0,,,NaN,,,,,,false,,,,92868.80000001192,92868.69999998808,,92868.59999996424,,92870.35,8,400,,,
sequence,flow.Sequence,4_7,2023-11-01T16:59:45.975Z,,0,,,3531.753999988083,completion,,,,,false,,,,92869.09999996424,92868.69999998808,89320.279,89322.89999997616,89336.946,92870.35,8,400,,,
trial,html.Screen,4_8_0,2023-11-01T16:59:49.482Z,,0,1,,3505.450000011915,response,ISIC_0058658.JPG,8,ISIC_2635051.JPG,ISIC_2635051.JPG,false,0,keypress(z),500,96376,96375.80000001192,92853.683,92870.09999996424,92870.35,96387.622,8,400,9,,ISIC_0058658.JPG
break,html.Screen,4_8_1,2023-11-01T16:59:49.482Z,,0,,,NaN,,,,,,false,,,,96376.69999998808,96376.5,,96376.19999998808,,96387.622,8,400,,,
break_continue,html.Screen,4_8_2,2023-11-01T16:59:49.483Z,,0,,,NaN,,,,,,false,,,,96377.09999996424,96377,,96376.89999997616,,96387.622,8,400,,,
sequence,flow.Sequence,4_8,2023-11-01T16:59:49.483Z,,0,,,3506.649999999994,completion,,,,,false,,,,96377.30000001192,96377,92853.683,92870.09999996424,92870.35,96387.622,8,400,,,
trial,html.Screen,4_9_0,2023-11-01T16:59:52.580Z,,0,1,,3086.678000011918,response,ISIC_4280835.JPG,5,ISIC_0013204.JPG,ISIC_4280835.JPG,false,1,keypress(m),500,99474.39999997616,99474.30000001192,96370.955,96377.39999997616,96387.622,99487.684,8,400,10,,ISIC_0013204.JPG
break,html.Screen,4_9_1,2023-11-01T16:59:52.581Z,,0,,,NaN,,,,,,false,,,,99475,99474.80000001192,,99474.59999996424,,99487.684,8,400,,,
break_continue,html.Screen,4_9_2,2023-11-01T16:59:52.581Z,,0,,,NaN,,,,,,false,,,,99475.30000001192,99475.30000001192,,99475.19999998808,,99487.684,8,400,,,
sequence,flow.Sequence,4_9,2023-11-01T16:59:52.581Z,,0,,,3087.678000011918,completion,,,,,false,,,,99475.5,99475.30000001192,96370.955,96377.39999997616,96387.622,99487.684,8,400,,,
trial,html.Screen,4_10_0,2023-11-01T16:59:55.721Z,,0,1,,3127.4159999642434,response,ISIC_1185006.JPG,5,ISIC_0028919.JPG,ISIC_1185006.JPG,false,1,keypress(m),500,102615.30000001192,102615.09999996424,99471.017,99475.59999996424,99487.684,102621.08,8,400,11,,ISIC_0028919.JPG
break,html.Screen,4_10_1,2023-11-01T16:59:55.722Z,,0,,,NaN,,,,,,false,,,,102615.89999997616,102615.69999998808,,102615.5,,102621.08,8,400,,,
break_continue,html.Screen,4_10_2,2023-11-01T16:59:55.722Z,,0,,,NaN,,,,,,false,,,,102616.30000001192,102616.19999998808,,102616.09999996424,,102621.08,8,400,,,
sequence,flow.Sequence,4_10,2023-11-01T16:59:55.722Z,,0,,,3128.5159999880852,completion,,,,,false,,,,102616.39999997616,102616.19999998808,99471.017,99475.59999996424,99487.684,102621.08,8,400,,,
trial,html.Screen,4_11_0,2023-11-01T16:59:59.740Z,,0,1,,4012.4199999999983,response,ISIC_3777798.JPG,5,ISIC_0026103.JPG,ISIC_3777798.JPG,false,1,keypress(m),500,106633.69999998808,106633.5,102604.413,102616.59999996424,102621.08,106638.28,8,400,12,,ISIC_0026103.JPG
break,html.Screen,4_11_1,2023-11-01T16:59:59.740Z,,0,,,NaN,,,,,,false,,,,106634.30000001192,106634.19999998808,,106633.89999997616,,106638.28,8,400,,,
break_continue,html.Screen,4_11_2,2023-11-01T16:59:59.741Z,,0,,,NaN,,,,,,false,,,,106634.69999998808,106634.69999998808,,106634.5,,106638.28,8,400,,,
sequence,flow.Sequence,4_11,2023-11-01T16:59:59.741Z,,0,,,4013.6199999880773,completion,,,,,false,,,,106634.89999997616,106634.69999998808,102604.413,102616.59999996424,102621.08,106638.28,8,400,,,
trial,html.Screen,4_12_0,2023-11-01T17:00:03.254Z,,0,1,,3509.3199999642384,response,ISIC_0028903.JPG,6,ISIC_0070651.JPG,ISIC_0028903.JPG,false,1,keypress(m),500,110147.80000001192,110147.59999996424,106621.613,106635.09999996424,106638.28,110155.017,8,400,13,,ISIC_0070651.JPG
break,html.Screen,4_12_1,2023-11-01T17:00:03.255Z,,0,,,NaN,,,,,,false,,,,110148.59999996424,110148.30000001192,,110148.09999996424,,110155.017,8,400,,,
break_continue,html.Screen,4_12_2,2023-11-01T17:00:03.255Z,,0,,,NaN,,,,,,false,,,,110149,110148.80000001192,,110148.69999998808,,110155.017,8,400,,,
sequence,flow.Sequence,4_12,2023-11-01T17:00:03.255Z,,0,,,3510.520000011922,completion,,,,,false,,,,110149.09999996424,110148.80000001192,106621.613,106635,106638.28,110155.017,8,400,,,
trial,html.Screen,4_13_0,2023-11-01T17:00:06.861Z,,0,1,,3599.982999999993,response,ISIC_0029389.JPG,6,ISIC_0032856.JPG,ISIC_0032856.JPG,false,0,keypress(z),500,113755.30000001192,113755,110138.35,110149.19999998808,110155.017,113771.756,8,400,14,,ISIC_0029389.JPG
break,html.Screen,4_13_1,2023-11-01T17:00:06.862Z,,0,,,NaN,,,,,,false,,,,113756,113755.89999997616,,113755.5,,113771.756,8,400,,,
break_continue,html.Screen,4_13_2,2023-11-01T17:00:06.863Z,,0,,,NaN,,,,,,false,,,,113756.39999997616,113756.30000001192,,113756.19999998808,,113771.756,8,400,,,
sequence,flow.Sequence,4_13,2023-11-01T17:00:06.863Z,,0,,,3601.283000011914,completion,,,,,false,,,,113756.59999996424,113756.30000001192,110138.35,110149.19999998808,110155.017,113771.756,8,400,,,
trial,html.Screen,4_14_0,2023-11-01T17:00:10.125Z,,0,1,,3246.544000011927,response,ISIC_2100640.JPG,7,ISIC_0027804.JPG,ISIC_2100640.JPG,false,1,keypress(m),500,117018.5,117018.30000001192,113755.089,113756.80000001192,113771.756,117022.362,8,400,15,,ISIC_0027804.JPG
break,html.Screen,4_14_1,2023-11-01T17:00:10.126Z,,0,,,NaN,,,,,,false,,,,117019.30000001192,117019.09999996424,,117018.80000001192,,117022.362,8,400,,,
break_continue,html.Screen,4_14_2,2023-11-01T17:00:10.126Z,,0,,,NaN,,,,,,false,,,,117019.69999998808,117019.5,,117019.39999997616,,117022.362,8,400,,,
sequence,flow.Sequence,4_14,2023-11-01T17:00:10.126Z,,0,,,3247.744000000006,completion,,,,,false,,,,117019.89999997616,117019.5,113755.089,113756.69999998808,113771.756,117022.362,8,400,,,
trial,html.Screen,4_15_0,2023-11-01T17:00:14.305Z,,0,1,,4176.438000011927,response,ISIC_4163686.JPG,7,ISIC_0000162.JPG,ISIC_0000162.JPG,false,0,keypress(z),500,121199,121198.80000001192,117005.695,117020,117022.362,121205.779,8,400,16,,ISIC_4163686.JPG
break,html.Screen,4_15_1,2023-11-01T17:00:14.306Z,,0,,,NaN,,,,,,false,,,,121199.69999998808,121199.5,,121199.09999996424,,121205.779,8,400,,,
break_continue,html.Screen,4_15_2,2023-11-01T17:00:14.306Z,,0,,,NaN,,,,,,false,,,,121200.09999996424,121199.89999997616,,121199.80000001192,,121205.779,8,400,,,
sequence,flow.Sequence,4_15,2023-11-01T17:00:14.307Z,,0,,,4177.537999976164,completion,,,,,false,,,,121200.19999998808,121199.89999997616,117005.695,117020,117022.362,121205.779,8,400,,,
trial,html.Screen,4_16_0,2023-11-01T17:00:18.678Z,,0,1,,4365.320999964242,response,ISIC_4432898.JPG,6,ISIC_4607215.JPG,ISIC_4607215.JPG,false,0,keypress(z),500,125571.30000001192,125571.09999996424,121189.112,121200.39999997616,121205.779,125573.133,8,400,17,,ISIC_4432898.JPG
break,html.Screen,4_16_1,2023-11-01T17:00:18.678Z,,0,,,NaN,,,,,,false,,,,125571.89999997616,125571.80000001192,,125571.39999997616,,125573.133,8,400,,,
break_continue,html.Screen,4_16_2,2023-11-01T17:00:18.679Z,,0,,,NaN,,,,,,false,,,,125572.30000001192,125572.19999998808,,125572.19999998808,,125573.133,8,400,,,
sequence,flow.Sequence,4_16,2023-11-01T17:00:18.679Z,,0,,,4366.420999988084,completion,,,,,false,,,,125572.59999996424,125572.19999998808,121189.112,121200.39999997616,121205.779,125573.133,8,400,,,
trial,html.Screen,4_17_0,2023-11-01T17:00:22.438Z,,0,1,,3757.5669999880774,response,ISIC_2914160.JPG,6,ISIC_9126992.JPG,ISIC_2914160.JPG,false,1,keypress(m),500,129331,129330.69999998808,125556.466,125572.69999998808,125573.133,129339.875,8,400,18,,ISIC_9126992.JPG
break,html.Screen,4_17_1,2023-11-01T17:00:22.438Z,,0,,,NaN,,,,,,false,,,,129331.59999996424,129331.39999997616,,129331.19999998808,,129339.875,8,400,,,
break_continue,html.Screen,4_17_2,2023-11-01T17:00:22.439Z,,0,,,NaN,,,,,,false,,,,129332,129331.89999997616,,129331.80000001192,,129339.875,8,400,,,
sequence,flow.Sequence,4_17,2023-11-01T17:00:22.439Z,,0,,,3758.7669999761565,completion,,,,,false,,,,129332.19999998808,129331.89999997616,125556.466,125572.59999996424,125573.133,129339.875,8,400,,,
trial,html.Screen,4_18_0,2023-11-01T17:00:26.088Z,,0,1,,3641.524999976158,response,ISIC_2152875.JPG,7,ISIC_0024683.JPG,ISIC_2152875.JPG,false,1,keypress(m),500,132981.59999996424,132981.39999997616,129323.208,129332.39999997616,129339.875,132989.948,8,400,19,,ISIC_0024683.JPG
break,html.Screen,4_18_1,2023-11-01T17:00:26.089Z,,0,,,NaN,,,,,,false,,,,132982.30000001192,132982.09999996424,,132981.80000001192,,132989.948,8,400,,,
break_continue,html.Screen,4_18_2,2023-11-01T17:00:26.089Z,,0,,,NaN,,,,,,false,,,,132982.69999998808,132982.59999996424,,132982.39999997616,,132989.948,8,400,,,
sequence,flow.Sequence,4_18,2023-11-01T17:00:26.090Z,,0,,,3642.724999964237,completion,,,,,false,,,,132982.89999997616,132982.59999996424,129323.208,129332.39999997616,129339.875,132989.948,8,400,,,
trial,html.Screen,4_19_0,2023-11-01T17:00:30.158Z,,0,1,,4061.451999976154,response,ISIC_7901891.JPG,7,ISIC_4011169.JPG,ISIC_7901891.JPG,false,1,keypress(m),500,137051.59999996424,137051.39999997616,132973.281,132983.09999996424,132989.948,137057.109,8,400,20,,ISIC_4011169.JPG
break,html.Screen,4_19_1,2023-11-01T17:00:30.159Z,,0,,,NaN,,,,,,false,,,,137052.39999997616,137052.09999996424,,137051.80000001192,,137057.109,8,400,,,
break_continue,html.Screen,4_19_2,2023-11-01T17:00:30.160Z,,0,,,NaN,,,,,,false,,,,137052.69999998808,137052.59999996424,,137052.5,,137057.109,8,400,,,
sequence,flow.Sequence,4_19,2023-11-01T17:00:30.160Z,,0,,,4062.6519999642333,completion,,,,,false,,,,137052.89999997616,137052.59999996424,132973.281,132983,132989.948,137057.109,8,400,,,
trial,html.Screen,4_20_0,2023-11-01T17:00:33.140Z,,0,1,,2975.8910000000033,response,ISIC_4374554.JPG,6,ISIC_6676776.JPG,ISIC_4374554.JPG,false,1,keypress(m),500,140033.09999996424,140033,137040.442,137053.09999996424,137057.109,140040.502,8,400,21,,ISIC_6676776.JPG
break,html.Screen,4_20_1,2023-11-01T17:00:33.141Z,,0,,,NaN,,,,,,false,,,,140033.89999997616,140033.69999998808,,140033.39999997616,,140040.502,8,400,,,
break_continue,html.Screen,4_20_2,2023-11-01T17:00:33.141Z,,0,,,NaN,,,,,,false,,,,140034.30000001192,140034.09999996424,,140034,,140040.502,8,400,,,
sequence,flow.Sequence,4_20,2023-11-01T17:00:33.141Z,,0,,,2976.9909999642405,completion,,,,,false,,,,140034.5,140034.09999996424,137040.442,137053,137057.109,140040.502,8,400,,,
trial,html.Screen,4_21_0,2023-11-01T17:00:39.003Z,,0,1,,5855.298000011913,response,ISIC_8935085.JPG,8,ISIC_0002162.JPG,ISIC_8935085.JPG,false,1,keypress(m),500,145896,145895.80000001192,140023.835,140034.69999998808,140040.502,145907.286,8,400,22,,ISIC_0002162.JPG
break,html.Screen,4_21_1,2023-11-01T17:00:39.004Z,,0,,,NaN,,,,,,false,,,,145896.80000001192,145896.59999996424,,145896.19999998808,,145907.286,8,400,,,
break_continue,html.Screen,4_21_2,2023-11-01T17:00:39.004Z,,0,,,NaN,,,,,,false,,,,145897.09999996424,145897,,145896.89999997616,,145907.286,8,400,,,
sequence,flow.Sequence,4_21,2023-11-01T17:00:39.004Z,,0,,,5856.497999999992,completion,,,,,false,,,,145897.30000001192,145897,140023.835,140034.59999996424,140040.502,145907.286,8,400,,,
trial,html.Screen,4_22_0,2023-11-01T17:00:43.303Z,,0,1,,4288.514000011928,response,ISIC_0028898.JPG,9,ISIC_0011446.JPG,ISIC_0028898.JPG,false,1,keypress(m),500,150196.09999996424,150195.80000001192,145890.619,145897.5,145907.286,150207.987,8,400,23,,ISIC_0011446.JPG
break,html.Screen,4_22_1,2023-11-01T17:00:43.304Z,,0,,,NaN,,,,,,false,,,,150196.80000001192,150196.59999996424,,150196.19999998808,,150207.987,8,400,,,
break_continue,html.Screen,4_22_2,2023-11-01T17:00:43.304Z,,0,,,NaN,,,,,,false,,,,150197.19999998808,150197.09999996424,,150196.89999997616,,150207.987,8,400,,,
sequence,flow.Sequence,4_22,2023-11-01T17:00:43.305Z,,0,,,4289.813999964244,completion,,,,,false,,,,150197.39999997616,150197.09999996424,145890.619,145897.39999997616,145907.286,150207.987,8,400,,,
trial,html.Screen,4_23_0,2023-11-01T17:00:47.400Z,,0,1,,4084.0130000000063,response,ISIC_0046645.JPG,5,ISIC_4619903.JPG,ISIC_0046645.JPG,false,1,keypress(m),500,154292.19999998808,154292,150191.32,150197.5,150207.987,154308.069,8,400,24,,ISIC_4619903.JPG
break,html.Screen,4_23_1,2023-11-01T17:00:47.400Z,,0,,,NaN,,,,,,false,,,,154293,154292.80000001192,,154292.39999997616,,154308.069,8,400,,,
break_continue,html.Screen,4_23_2,2023-11-01T17:00:47.401Z,,0,,,NaN,,,,,,false,,,,154293.39999997616,154293.30000001192,,154293.09999996424,,154308.069,8,400,,,
sequence,flow.Sequence,4_23,2023-11-01T17:00:47.401Z,,0,,,4085.313000011927,completion,,,,,false,,,,154293.59999996424,154293.30000001192,150191.32,150197.39999997616,150207.987,154308.069,8,400,,,
trial,html.Screen,4_24_0,2023-11-01T17:00:50.648Z,,0,1,,3232.3309999761696,response,ISIC_0025489.JPG,5,ISIC_7030404.JPG,ISIC_0025489.JPG,false,1,keypress(m),500,157540.59999996424,157540.39999997616,154291.402,154293.80000001192,154308.069,157541.911,8,400,25,,ISIC_7030404.JPG
break,html.Screen,4_24_1,2023-11-01T17:00:50.649Z,,0,,,NaN,,,,,,false,,,,157541.19999998808,157540.89999997616,,157540.80000001192,,157541.911,8,400,,,
break_continue,html.Screen,4_24_2,2023-11-01T17:00:50.649Z,,0,,,NaN,,,,,,false,,,,157541.39999997616,157541.30000001192,,157541.19999998808,,157541.911,8,400,,,
sequence,flow.Sequence,4_24,2023-11-01T17:00:50.649Z,,0,,,3233.2310000119323,completion,,,,,false,,,,157541.5,157541.30000001192,154291.402,154293.69999998808,154308.069,157541.911,8,400,,,
trial,html.Screen,4_25_0,2023-11-01T17:00:54.719Z,,0,1,,4068.889000011928,response,ISIC_6792899.JPG,5,ISIC_9076021.JPG,ISIC_9076021.JPG,false,0,keypress(z),500,161611.09999996424,161610.80000001192,157525.244,157541.59999996424,157541.911,161625.326,8,400,26,,ISIC_6792899.JPG
break,html.Screen,4_25_1,2023-11-01T17:00:54.719Z,,0,,,NaN,,,,,,false,,,,161611.80000001192,161611.59999996424,,161611.30000001192,,161625.326,8,400,,,
break_continue,html.Screen,4_25_2,2023-11-01T17:00:54.720Z,,0,,,NaN,,,,,,false,,,,161612.30000001192,161612.09999996424,,161612,,161625.326,8,400,,,
sequence,flow.Sequence,4_25,2023-11-01T17:00:54.720Z,,0,,,4070.1889999642444,completion,,,,,false,,,,161612.5,161612.09999996424,157525.244,157541.59999996424,157541.911,161625.326,8,400,,,
trial,html.Screen,4_26_0,2023-11-01T17:00:59.991Z,,0,1,,5257.773999964236,response,ISIC_0000026.JPG,8,ISIC_6162545.JPG,ISIC_0000026.JPG,false,1,keypress(m),500,166883.30000001192,166883.09999996424,161608.659,161612.69999998808,161625.326,166892.098,8,400,27,,ISIC_6162545.JPG
break,html.Screen,4_26_1,2023-11-01T17:00:59.992Z,,0,,,NaN,,,,,,false,,,,166884,166883.89999997616,,166883.5,,166892.098,8,400,,,
break_continue,html.Screen,4_26_2,2023-11-01T17:00:59.992Z,,0,,,NaN,,,,,,false,,,,166884.39999997616,166884.30000001192,,166884.19999998808,,166892.098,8,400,,,
sequence,flow.Sequence,4_26,2023-11-01T17:00:59.992Z,,0,,,5258.97400001192,completion,,,,,false,,,,166884.69999998808,166884.30000001192,161608.659,161612.69999998808,161625.326,166892.098,8,400,,,
trial,html.Screen,4_27_0,2023-11-01T17:01:07.150Z,,0,1,,7150.202000011923,response,ISIC_1638357.JPG,7,ISIC_7413149.JPG,ISIC_1638357.JPG,false,1,keypress(m),500,174042.5,174042.30000001192,166875.431,166884.80000001192,166892.098,174059.413,8,400,28,,ISIC_7413149.JPG
break,html.Screen,4_27_1,2023-11-01T17:01:07.151Z,,0,,,NaN,,,,,,false,,,,174043.19999998808,174043,,174042.69999998808,,174059.413,8,400,,,
break_continue,html.Screen,4_27_2,2023-11-01T17:01:07.152Z,,0,,,NaN,,,,,,false,,,,174043.59999996424,174043.5,,174043.30000001192,,174059.413,8,400,,,
sequence,flow.Sequence,4_27,2023-11-01T17:01:07.152Z,,0,,,7151.402000000002,completion,,,,,false,,,,174043.80000001192,174043.5,166875.431,166884.80000001192,166892.098,174059.413,8,400,,,
trial,html.Screen,4_28_0,2023-11-01T17:01:12.116Z,,0,1,,4948.786999988079,response,ISIC_0011729.JPG,6,ISIC_0056679.JPG,ISIC_0011729.JPG,false,1,keypress(m),500,179008.39999997616,179008.19999998808,174042.746,174043.89999997616,174059.413,179010.131,8,400,29,,ISIC_0056679.JPG
break,html.Screen,4_28_1,2023-11-01T17:01:12.117Z,,0,,,NaN,,,,,,false,,,,179009.09999996424,179009,,179008.59999996424,,179010.131,8,400,,,
break_continue,html.Screen,4_28_2,2023-11-01T17:01:12.118Z,,0,,,NaN,,,,,,false,,,,179009.59999996424,179009.39999997616,,179009.30000001192,,179010.131,8,400,,,
sequence,flow.Sequence,4_28,2023-11-01T17:01:12.118Z,,0,,,4949.986999976158,completion,,,,,false,,,,179009.69999998808,179009.39999997616,174042.746,174043.89999997616,174059.413,179010.131,8,400,,,
trial,html.Screen,4_29_0,2023-11-01T17:01:15.274Z,,0,1,,3155.669000011927,response,ISIC_0068897.JPG,7,ISIC_0013652.JPG,ISIC_0068897.JPG,false,1,keypress(m),500,182166,182165.80000001192,178993.464,179009.89999997616,179010.131,182176.861,8,400,30,,ISIC_0013652.JPG
break,html.Screen,4_29_1,2023-11-01T17:01:15.275Z,,0,,,NaN,,,,,,false,,,,182166.80000001192,182166.5,,182166.30000001192,,182176.861,8,400,,,
break_continue,html.Screen,4_29_2,2023-11-01T17:01:15.275Z,,0,,,NaN,,,,,,false,,,,182167.09999996424,182167,,182166.89999997616,,182176.861,8,400,,,
sequence,flow.Sequence,4_29,2023-11-01T17:01:15.276Z,,0,,,3156.869000000006,completion,,,,,false,,,,182167.30000001192,182167,178993.464,179009.89999997616,179010.131,182176.861,8,400,,,
trial,html.Screen,4_30_0,2023-11-01T17:01:19.153Z,,0,1,,3867.9390000119165,response,ISIC_0034199.JPG,6,ISIC_0030404.JPG,ISIC_0030404.JPG,false,0,keypress(z),500,186045.09999996424,186044.80000001192,182160.194,182167.5,182176.861,186060.272,8,400,31,,ISIC_0034199.JPG
break,html.Screen,4_30_1,2023-11-01T17:01:19.154Z,,0,,,NaN,,,,,,false,,,,186045.89999997616,186045.59999996424,,186045.39999997616,,186060.272,8,400,,,
break_continue,html.Screen,4_30_2,2023-11-01T17:01:19.155Z,,0,,,NaN,,,,,,false,,,,186046.30000001192,186046.09999996424,,186046,,186060.272,8,400,,,
sequence,flow.Sequence,4_30,2023-11-01T17:01:19.155Z,,0,,,3869.238999964233,completion,,,,,false,,,,186046.5,186046.09999996424,182160.194,182167.39999997616,182176.861,186060.272,8,400,,,
trial,html.Screen,4_31_0,2023-11-01T17:01:22.230Z,,0,1,,3060.82799996424,response,ISIC_0064822.JPG,6,ISIC_7566505.JPG,ISIC_0064822.JPG,false,1,keypress(m),500,189121.39999997616,189121.09999996424,186043.605,186046.59999996424,186060.272,189127.502,8,400,32,,ISIC_7566505.JPG
break,html.Screen,4_31_1,2023-11-01T17:01:22.231Z,,0,,,NaN,,,,,,false,,,,189122.09999996424,189122,,189121.59999996424,,189127.502,8,400,,,
break_continue,html.Screen,4_31_2,2023-11-01T17:01:22.231Z,,0,,,NaN,,,,,,false,,,,189122.5,189122.5,,189122.39999997616,,189127.502,8,400,,,
sequence,flow.Sequence,4_31,2023-11-01T17:01:22.231Z,,0,,,3062.228000000003,completion,,,,,false,,,,189122.69999998808,189122.5,186043.605,186046.59999996424,186060.272,189127.502,8,400,,,
trial,html.Screen,4_32_0,2023-11-01T17:01:26.314Z,,0,1,,4077.6979999880714,response,ISIC_0031463.JPG,8,ISIC_3256116.JPG,ISIC_3256116.JPG,false,0,keypress(z),500,193205.5,193205.19999998808,189110.835,189122.89999997616,189127.502,193210.917,8,400,33,,ISIC_0031463.JPG
break,html.Screen,4_32_1,2023-11-01T17:01:26.315Z,,0,,,NaN,,,,,,false,,,,193206.39999997616,193206,,193205.69999998808,,193210.917,8,400,,,
break_continue,html.Screen,4_32_2,2023-11-01T17:01:26.315Z,,0,,,NaN,,,,,,false,,,,193206.89999997616,193206.80000001192,,193206.5,,193210.917,8,400,,,
sequence,flow.Sequence,4_32,2023-11-01T17:01:26.316Z,,0,,,4079.2980000119132,completion,,,,,false,,,,193207.09999996424,193206.80000001192,189110.835,189122.89999997616,189127.502,193210.917,8,400,,,
trial,html.Screen,4_33_0,2023-11-01T17:01:29.377Z,,0,1,,3057.1829999642505,response,ISIC_1689678.JPG,9,ISIC_7095615.JPG,ISIC_1689678.JPG,false,1,keypress(m),500,196268.30000001192,196268.09999996424,193194.25,193207.30000001192,193210.917,196277.645,8,400,34,,ISIC_7095615.JPG
break,html.Screen,4_33_1,2023-11-01T17:01:29.378Z,,0,,,NaN,,,,,,false,,,,196269.09999996424,196268.80000001192,,196268.59999996424,,196277.645,8,400,,,
break_continue,html.Screen,4_33_2,2023-11-01T17:01:29.378Z,,0,,,NaN,,,,,,false,,,,196269.39999997616,196269.30000001192,,196269.09999996424,,196277.645,8,400,,,
sequence,flow.Sequence,4_33,2023-11-01T17:01:29.378Z,,0,,,3058.383000011934,completion,,,,,false,,,,196269.59999996424,196269.30000001192,193194.25,193207.30000001192,193210.917,196277.645,8,400,,,
trial,html.Screen,4_34_0,2023-11-01T17:01:32.610Z,,0,1,,3223.3550000000105,response,ISIC_9007206.JPG,6,ISIC_5087951.JPG,ISIC_9007206.JPG,false,1,keypress(m),500,199501.19999998808,199501,196260.978,196269.69999998808,196277.645,199511.532,8,400,35,,ISIC_5087951.JPG
break,html.Screen,4_34_1,2023-11-01T17:01:32.611Z,,0,,,NaN,,,,,,false,,,,199502,199501.80000001192,,199501.5,,199511.532,8,400,,,
break_continue,html.Screen,4_34_2,2023-11-01T17:01:32.611Z,,0,,,NaN,,,,,,false,,,,199502.39999997616,199502.30000001192,,199502.09999996424,,199511.532,8,400,,,
sequence,flow.Sequence,4_34,2023-11-01T17:01:32.611Z,,0,,,3224.6550000119314,completion,,,,,false,,,,199502.59999996424,199502.30000001192,196260.978,196269.69999998808,196277.645,199511.532,8,400,,,
trial,html.Screen,4_35_0,2023-11-01T17:01:35.879Z,,0,1,,3258.3679999761516,response,ISIC_6227397.JPG,7,ISIC_9382494.JPG,ISIC_6227397.JPG,false,1,keypress(m),500,202770.09999996424,202769.89999997616,199494.865,199502.69999998808,199511.532,202778.264,8,400,36,,ISIC_9382494.JPG
break,html.Screen,4_35_1,2023-11-01T17:01:35.880Z,,0,,,NaN,,,,,,false,,,,202770.89999997616,202770.69999998808,,202770.39999997616,,202778.264,8,400,,,
break_continue,html.Screen,4_35_2,2023-11-01T17:01:35.880Z,,0,,,NaN,,,,,,false,,,,202771.30000001192,202771.19999998808,,202771.09999996424,,202778.264,8,400,,,
sequence,flow.Sequence,4_35,2023-11-01T17:01:35.880Z,,0,,,3259.6679999880726,completion,,,,,false,,,,202771.5,202771.19999998808,199494.865,199502.69999998808,199511.532,202778.264,8,400,,,
trial,html.Screen,4_36_0,2023-11-01T17:01:41.422Z,,0,1,,5534.236000000004,response,ISIC_3959570.JPG,7,ISIC_0056309.JPG,ISIC_0056309.JPG,false,0,keypress(z),500,208312.80000001192,208312.5,202761.597,202771.59999996424,202778.264,208328.375,8,400,37,,ISIC_3959570.JPG
break,html.Screen,4_36_1,2023-11-01T17:01:41.422Z,,0,,,NaN,,,,,,false,,,,208313.59999996424,208313.30000001192,,208313,,208328.375,8,400,,,
break_continue,html.Screen,4_36_2,2023-11-01T17:01:41.423Z,,0,,,NaN,,,,,,false,,,,208314,208313.80000001192,,208313.59999996424,,208328.375,8,400,,,
sequence,flow.Sequence,4_36,2023-11-01T17:01:41.423Z,,0,,,5535.536000011925,completion,,,,,false,,,,208314.19999998808,208313.80000001192,202761.597,202771.59999996424,202778.264,208328.375,8,400,,,
trial,html.Screen,4_37_0,2023-11-01T17:01:44.674Z,,0,1,,3236.125,response,ISIC_3466769.JPG,8,ISIC_1850196.JPG,ISIC_1850196.JPG,false,0,keypress(z),500,211564.69999998808,211564.5,208311.708,208314.19999998808,208328.375,211578.983,8,400,38,,ISIC_3466769.JPG
break,html.Screen,4_37_1,2023-11-01T17:01:44.675Z,,0,,,NaN,,,,,,false,,,,211565.5,211565.39999997616,,211565,,211578.983,8,400,,,
break_continue,html.Screen,4_37_2,2023-11-01T17:01:44.675Z,,0,,,NaN,,,,,,false,,,,211565.89999997616,211565.69999998808,,211565.59999996424,,211578.983,8,400,,,
sequence,flow.Sequence,4_37,2023-11-01T17:01:44.675Z,,0,,,3237.324999988079,completion,,,,,false,,,,211566.09999996424,211565.69999998808,208311.708,208314.19999998808,208328.375,211578.983,8,400,,,
trial,html.Screen,4_38_0,2023-11-01T17:01:49.378Z,,0,1,,4689.61699996423,response,ISIC_0024900.JPG,6,ISIC_0069248.JPG,ISIC_0069248.JPG,false,0,keypress(z),500,216268.89999997616,216268.59999996424,211562.316,211566.19999998808,211578.983,216279.077,8,400,39,,ISIC_0024900.JPG
break,html.Screen,4_38_1,2023-11-01T17:01:49.379Z,,0,,,NaN,,,,,,false,,,,216269.69999998808,216269.59999996424,,216269.19999998808,,216279.077,8,400,,,
break_continue,html.Screen,4_38_2,2023-11-01T17:01:49.379Z,,0,,,NaN,,,,,,false,,,,216270.19999998808,216270,,216269.89999997616,,216279.077,8,400,,,
sequence,flow.Sequence,4_38,2023-11-01T17:01:49.380Z,,0,,,4691.016999999993,completion,,,,,false,,,,216270.39999997616,216270,211562.316,211566.19999998808,211578.983,216279.077,8,400,,,
trial,html.Screen,4_39_0,2023-11-01T17:01:53.111Z,,0,1,,3722.2230000119307,response,ISIC_3902917.JPG,5,ISIC_3973431.JPG,ISIC_3902917.JPG,false,1,keypress(m),500,220001.59999996424,220001.30000001192,216262.41,216270.59999996424,216279.077,220012.909,8,400,40,,ISIC_3973431.JPG
break,html.Screen,4_39_1,2023-11-01T17:01:53.112Z,,0,,,NaN,,,,,,false,,,,220002.39999997616,220002.19999998808,,220001.80000001192,,220012.909,8,400,,,
break_continue,html.Screen,4_39_2,2023-11-01T17:01:53.112Z,,0,,,NaN,,,,,,false,,,,220003,220002.69999998808,,220002.69999998808,,220012.909,8,400,,,
sequence,flow.Sequence,4_39,2023-11-01T17:01:53.112Z,,0,,,3723.622999988089,completion,,,,,false,,,,220003.09999996424,220002.69999998808,216262.41,216270.5,216279.077,220012.909,8,400,,,
trial,html.Screen,4_40_0,2023-11-01T17:01:56.906Z,,0,1,,3783.8910000119067,response,ISIC_0071434.JPG,5,ISIC_0011959.JPG,ISIC_0071434.JPG,false,1,keypress(m),500,223797.09999996424,223796.80000001192,219996.242,220003.30000001192,220012.909,223812.985,8,400,41,,ISIC_0011959.JPG
break,html.Screen,4_40_1,2023-11-01T17:01:56.907Z,,0,,,NaN,,,,,,false,,,,223798,223797.69999998808,,223797.30000001192,,223812.985,8,400,,,
break_continue,html.Screen,4_40_2,2023-11-01T17:01:56.908Z,,0,,,NaN,,,,,,false,,,,223798.59999996424,223798.5,,223798.19999998808,,223812.985,8,400,,,
sequence,flow.Sequence,4_40,2023-11-01T17:01:56.908Z,,0,,,3785.590999999986,completion,,,,,false,,,,223798.80000001192,223798.5,219996.242,220003.30000001192,220012.909,223812.985,8,400,,,
trial,html.Screen,4_41_0,2023-11-01T17:01:59.993Z,,0,1,,3070.614999964251,response,ISIC_0024315.JPG,7,ISIC_0067476.JPG,ISIC_0024315.JPG,false,1,keypress(m),500,226883.80000001192,226883.59999996424,223796.318,223798.89999997616,223812.985,226896.38,8,400,42,,ISIC_0067476.JPG
break,html.Screen,4_41_1,2023-11-01T17:01:59.994Z,,0,,,NaN,,,,,,false,,,,226884.59999996424,226884.30000001192,,226884,,226896.38,8,400,,,
break_continue,html.Screen,4_41_2,2023-11-01T17:01:59.995Z,,0,,,NaN,,,,,,false,,,,226885.09999996424,226885,,226884.80000001192,,226896.38,8,400,,,
sequence,flow.Sequence,4_41,2023-11-01T17:01:59.995Z,,0,,,3072.015000000014,completion,,,,,false,,,,226885.30000001192,226885,223796.318,223798.89999997616,223812.985,226896.38,8,400,,,
trial,html.Screen,4_42_0,2023-11-01T17:02:03.609Z,,0,1,,3603.1199999999953,response,ISIC_4502605.JPG,5,ISIC_7242312.JPG,ISIC_7242312.JPG,false,0,keypress(z),500,230499.80000001192,230499.5,226879.713,226885.5,226896.38,230513.666,8,400,43,,ISIC_4502605.JPG
break,html.Screen,4_42_1,2023-11-01T17:02:03.610Z,,0,,,NaN,,,,,,false,,,,230500.5,230500.19999998808,,230500,,230513.666,8,400,,,
break_continue,html.Screen,4_42_2,2023-11-01T17:02:03.610Z,,0,,,NaN,,,,,,false,,,,230500.69999998808,230500.69999998808,,230500.59999996424,,230513.666,8,400,,,
sequence,flow.Sequence,4_42,2023-11-01T17:02:03.611Z,,0,,,3604.3199999880744,completion,,,,,false,,,,230500.89999997616,230500.69999998808,226879.713,226885.5,226896.38,230513.666,8,400,,,
trial,html.Screen,4_43_0,2023-11-01T17:02:06.698Z,,0,1,,3074.2339999761607,response,ISIC_7903838.JPG,7,ISIC_0011211.JPG,ISIC_0011211.JPG,false,0,keypress(z),500,233588.09999996424,233587.89999997616,230496.999,230501.09999996424,230513.666,233597.061,8,400,44,,ISIC_7903838.JPG
break,html.Screen,4_43_1,2023-11-01T17:02:06.699Z,,0,,,NaN,,,,,,false,,,,233588.89999997616,233588.69999998808,,233588.19999998808,,233597.061,8,400,,,
break_continue,html.Screen,4_43_2,2023-11-01T17:02:06.699Z,,0,,,NaN,,,,,,false,,,,233589.39999997616,233589.19999998808,,233589.09999996424,,233597.061,8,400,,,
sequence,flow.Sequence,4_43,2023-11-01T17:02:06.699Z,,0,,,3075.5339999880816,completion,,,,,false,,,,233589.5,233589.19999998808,230496.999,230501,230513.666,233597.061,8,400,,,
trial,html.Screen,4_44_0,2023-11-01T17:02:09.373Z,,0,1,,2666.338999976171,response,ISIC_0034071.JPG,5,ISIC_6981061.JPG,ISIC_0034071.JPG,false,1,keypress(m),500,236263.59999996424,236263.39999997616,233580.394,233589.59999996424,233597.061,236280.448,8,400,45,,ISIC_6981061.JPG
break,html.Screen,4_44_1,2023-11-01T17:02:09.374Z,,0,,,NaN,,,,,,false,,,,236264.30000001192,236264.09999996424,,236263.80000001192,,236280.448,8,400,,,
break_continue,html.Screen,4_44_2,2023-11-01T17:02:09.374Z,,0,,,NaN,,,,,,false,,,,236264.69999998808,236264.5,,236264.39999997616,,236280.448,8,400,,,
sequence,flow.Sequence,4_44,2023-11-01T17:02:09.375Z,,0,,,2667.439000000013,completion,,,,,false,,,,236264.80000001192,236264.5,233580.394,233589.5,233597.061,236280.448,8,400,,,
trial,html.Screen,4_45_0,2023-11-01T17:02:12.041Z,,0,1,,2650.852000011917,response,ISIC_0026089.JPG,6,ISIC_8765068.JPG,ISIC_0026089.JPG,false,1,keypress(m),500,238931.59999996424,238931.30000001192,236263.781,236264.89999997616,236280.448,238947.168,8,400,46,,ISIC_8765068.JPG
break,html.Screen,4_45_1,2023-11-01T17:02:12.042Z,,0,,,NaN,,,,,,false,,,,238932.39999997616,238932.19999998808,,238931.80000001192,,238947.168,8,400,,,
break_continue,html.Screen,4_45_2,2023-11-01T17:02:12.043Z,,0,,,NaN,,,,,,false,,,,238932.89999997616,238932.80000001192,,238932.5,,238947.168,8,400,,,
sequence,flow.Sequence,4_45,2023-11-01T17:02:12.043Z,,0,,,2652.352000011917,completion,,,,,false,,,,238933.09999996424,238932.80000001192,236263.781,236264.89999997616,236280.448,238947.168,8,400,,,
trial,html.Screen,4_46_0,2023-11-01T17:02:17.161Z,,0,1,,5103.731999976153,response,ISIC_0070352.JPG,5,ISIC_0046741.JPG,ISIC_0046741.JPG,false,0,keypress(z),500,244051.19999998808,244050.89999997616,238930.501,238933.30000001192,238947.168,244064.393,8,400,47,,ISIC_0070352.JPG
break,html.Screen,4_46_1,2023-11-01T17:02:17.162Z,,0,,,NaN,,,,,,false,,,,244051.89999997616,244051.69999998808,,244051.39999997616,,244064.393,8,400,,,
break_continue,html.Screen,4_46_2,2023-11-01T17:02:17.162Z,,0,,,NaN,,,,,,false,,,,244052.30000001192,244052.19999998808,,244052,,244064.393,8,400,,,
sequence,flow.Sequence,4_46,2023-11-01T17:02:17.162Z,,0,,,5105.031999988074,completion,,,,,false,,,,244052.5,244052.19999998808,238930.501,238933.19999998808,238947.168,244064.393,8,400,,,
trial,html.Screen,4_47_0,2023-11-01T17:02:20.284Z,,0,1,,3108.90700001191,response,ISIC_0032181.JPG,5,ISIC_0032783.JPG,ISIC_0032181.JPG,false,1,keypress(m),500,247173.59999996424,247173.30000001192,244047.726,244052.59999996424,244064.393,247181.122,8,400,48,,ISIC_0032783.JPG
break,html.Screen,4_47_1,2023-11-01T17:02:20.284Z,,0,,,NaN,,,,,,false,,,,247174.09999996424,247174,,247173.69999998808,,247181.122,8,400,,,
break_continue,html.Screen,4_47_2,2023-11-01T17:02:20.285Z,,0,,,NaN,,,,,,false,,,,247174.5,247174.39999997616,,247174.19999998808,,247181.122,8,400,,,
sequence,flow.Sequence,4_47,2023-11-01T17:02:20.285Z,,0,,,3110.006999976147,completion,,,,,false,,,,247174.59999996424,247174.39999997616,244047.726,244052.59999996424,244064.393,247181.122,8,400,,,
trial,html.Screen,4_48_0,2023-11-01T17:02:23.689Z,,0,1,,3397.777999976155,response,ISIC_0001139.JPG,5,ISIC_0032537.JPG,ISIC_0032537.JPG,false,0,keypress(z),500,250579.09999996424,250578.89999997616,247164.455,247174.69999998808,247181.122,250581.66,8,400,49,,ISIC_0001139.JPG
break,html.Screen,4_48_1,2023-11-01T17:02:23.690Z,,0,,,NaN,,,,,,false,,,,250579.89999997616,250579.69999998808,,250579.39999997616,,250581.66,8,400,,,
break_continue,html.Screen,4_48_2,2023-11-01T17:02:23.691Z,,0,,,NaN,,,,,,false,,,,250580.30000001192,250580.19999998808,,250580.09999996424,,250581.66,8,400,,,
sequence,flow.Sequence,4_48,2023-11-01T17:02:23.691Z,,0,,,3399.077999988076,completion,,,,,false,,,,250580.5,250580.19999998808,247164.455,247174.69999998808,247181.122,250581.66,8,400,,,
trial,html.Screen,4_49_0,2023-11-01T17:02:28.577Z,,0,1,,4884.439999964234,response,ISIC_5216586.JPG,7,ISIC_0054244.JPG,ISIC_5216586.JPG,false,1,keypress(m),500,255466.39999997616,255466.09999996424,250564.993,250580.69999998808,250581.66,255481.758,8,400,50,,ISIC_0054244.JPG
break,html.Screen,4_49_1,2023-11-01T17:02:38.579Z,,0,,,10000.688999999984,timeout,,,,,false,,,,265468.59999996424,265465.78,255465.091,255466.59999996424,255481.758,265482.447,8,400,,,
break_continue,html.Screen,4_49_2,2023-11-01T17:02:45.625Z,,0,,,7017.853000011935,response,,,,,false,continue,keypress(Space),,272514.5,272500.3000000119,265465.78,265468.6999999881,265482.447,272515.921,8,400,,,
sequence,flow.Sequence,4_49,2023-11-01T17:02:45.626Z,,0,,,21918.640000011917,completion,,,,,false,,,,272514.59999996424,272500.3000000119,250564.993,250580.69999998808,250581.66,272515.921,8,400,,,
trial,html.Screen,4_50_0,2023-11-01T17:02:49.251Z,,0,2,,3623.678999964264,response,ISIC_6931712.JPG,6,ISIC_6255494.JPG,ISIC_6255494.JPG,false,0,keypress(z),500,276139.6999999881,276139.59999996424,272499.254,272514.8000000119,272515.921,276149.939,8,400,1,,ISIC_6931712.JPG
break,html.Screen,4_50_1,2023-11-01T17:02:49.251Z,,0,,,NaN,,,,,,false,,,,276140.3000000119,276140.09999996424,,276139.8000000119,,276149.939,8,400,,,
break_continue,html.Screen,4_50_2,2023-11-01T17:02:49.252Z,,0,,,NaN,,,,,,false,,,,276140.5,276140.39999997616,,276140.39999997616,,276149.939,8,400,,,
sequence,flow.Sequence,4_50,2023-11-01T17:02:49.252Z,,0,,,3624.478999976185,completion,,,,,false,,,,276140.6999999881,276140.39999997616,272499.254,272514.8000000119,272515.921,276149.939,8,400,,,
trial,html.Screen,4_51_0,2023-11-01T17:02:52.053Z,,0,2,,2791.660999964224,response,ISIC_0057328.JPG,6,ISIC_4652186.JPG,ISIC_0057328.JPG,false,1,keypress(m),500,278941.8000000119,278941.59999996424,276133.272,276140.8000000119,276149.939,278949.995,8,400,2,,ISIC_4652186.JPG
break,html.Screen,4_51_1,2023-11-01T17:02:52.053Z,,0,,,NaN,,,,,,false,,,,278942.3000000119,278942.1999999881,,278941.89999997616,,278949.995,8,400,,,
break_continue,html.Screen,4_51_2,2023-11-01T17:02:52.054Z,,0,,,NaN,,,,,,false,,,,278942.6999999881,278942.5,,278942.5,,278949.995,8,400,,,
sequence,flow.Sequence,4_51,2023-11-01T17:02:52.054Z,,0,,,2792.560999999987,completion,,,,,false,,,,278942.8000000119,278942.5,276133.272,276140.8000000119,276149.939,278949.995,8,400,,,
trial,html.Screen,4_52_0,2023-11-01T17:02:55.106Z,,0,2,,3044.604999964242,response,ISIC_1475598.JPG,7,ISIC_0028557.JPG,ISIC_0028557.JPG,false,0,keypress(z),500,281994.6999999881,281994.59999996424,278933.328,278942.89999997616,278949.995,282000.056,8,400,3,,ISIC_1475598.JPG
break,html.Screen,4_52_1,2023-11-01T17:02:55.106Z,,0,,,NaN,,,,,,false,,,,281995.3000000119,281995.1999999881,,281995,,282000.056,8,400,,,
break_continue,html.Screen,4_52_2,2023-11-01T17:02:55.107Z,,0,,,NaN,,,,,,false,,,,281995.6999999881,281995.5,,281995.5,,282000.056,8,400,,,
sequence,flow.Sequence,4_52,2023-11-01T17:02:55.107Z,,0,,,3045.5050000000047,completion,,,,,false,,,,281995.8000000119,281995.5,278933.328,278942.89999997616,278949.995,282000.056,8,400,,,
trial,html.Screen,4_53_0,2023-11-01T17:02:58.468Z,,0,2,,3356.843999976176,response,ISIC_0031365.JPG,5,ISIC_0069292.JPG,ISIC_0069292.JPG,false,0,keypress(z),500,285357.09999996424,285356.89999997616,281983.389,281996,282000.056,285367.304,8,400,4,,ISIC_0031365.JPG
break,html.Screen,4_53_1,2023-11-01T17:02:58.469Z,,0,,,NaN,,,,,,false,,,,285357.59999996424,285357.5,,285357.1999999881,,285367.304,8,400,,,
break_continue,html.Screen,4_53_2,2023-11-01T17:02:58.469Z,,0,,,NaN,,,,,,false,,,,285357.89999997616,285357.8000000119,,285357.6999999881,,285367.304,8,400,,,
sequence,flow.Sequence,4_53,2023-11-01T17:02:58.469Z,,0,,,3357.7440000119386,completion,,,,,false,,,,285358,285357.8000000119,281983.389,281995.89999997616,282000.056,285367.304,8,400,,,
trial,html.Screen,4_54_0,2023-11-01T17:03:02.311Z,,0,2,,3832.3959999880753,response,ISIC_0097500.JPG,7,ISIC_0072516.JPG,ISIC_0072516.JPG,false,0,keypress(z),500,289199.89999997616,289199.6999999881,285350.637,285358.1999999881,285367.304,289200.714,8,400,5,,ISIC_0097500.JPG
break,html.Screen,4_54_1,2023-11-01T17:03:02.312Z,,0,,,NaN,,,,,,false,,,,289200.5,289200.39999997616,,289200.09999996424,,289200.714,8,400,,,
break_continue,html.Screen,4_54_2,2023-11-01T17:03:02.312Z,,0,,,NaN,,,,,,false,,,,289200.8000000119,289200.8000000119,,289200.59999996424,,289200.714,8,400,,,
sequence,flow.Sequence,4_54,2023-11-01T17:03:02.312Z,,0,,,3833.496000011917,completion,,,,,false,,,,289201.09999996424,289200.8000000119,285350.637,285358.09999996424,285367.304,289200.714,8,400,,,
trial,html.Screen,4_55_0,2023-11-01T17:03:06.874Z,,0,2,,4561.985999988101,response,ISIC_1254469.JPG,5,ISIC_3494219.JPG,ISIC_1254469.JPG,false,1,keypress(m),500,293763,293762.6999999881,289184.047,289201.09999996424,289200.714,293767.975,8,400,6,,ISIC_3494219.JPG
break,html.Screen,4_55_1,2023-11-01T17:03:06.875Z,,0,,,NaN,,,,,,false,,,,293763.59999996424,293763.39999997616,,293763.09999996424,,293767.975,8,400,,,
break_continue,html.Screen,4_55_2,2023-11-01T17:03:06.875Z,,0,,,NaN,,,,,,false,,,,293763.89999997616,293763.8000000119,,293763.6999999881,,293767.975,8,400,,,
sequence,flow.Sequence,4_55,2023-11-01T17:03:06.876Z,,0,,,4563.086000011943,completion,,,,,false,,,,293764,293763.8000000119,289184.047,289201.09999996424,289200.714,293767.975,8,400,,,
trial,html.Screen,4_56_0,2023-11-01T17:03:09.869Z,,0,2,,2989.6249999642605,response,ISIC_0032134.JPG,5,ISIC_7407847.JPG,ISIC_0032134.JPG,false,1,keypress(m),500,296757.89999997616,296757.59999996424,293751.308,293764.09999996424,293767.975,296768.035,8,400,7,,ISIC_7407847.JPG
break,html.Screen,4_56_1,2023-11-01T17:03:09.870Z,,0,,,NaN,,,,,,false,,,,296758.39999997616,296758.1999999881,,296757.89999997616,,296768.035,8,400,,,
break_continue,html.Screen,4_56_2,2023-11-01T17:03:09.870Z,,0,,,NaN,,,,,,false,,,,296758.6999999881,296758.59999996424,,296758.5,,296768.035,8,400,,,
sequence,flow.Sequence,4_56,2023-11-01T17:03:09.870Z,,0,,,2990.6249999642605,completion,,,,,false,,,,296758.8000000119,296758.59999996424,293751.308,293764.09999996424,293767.975,296768.035,8,400,,,
trial,html.Screen,4_57_0,2023-11-01T17:03:13.436Z,,0,2,,3556.564999964263,response,ISIC_0025573.JPG,5,ISIC_0071069.JPG,ISIC_0071069.JPG,false,0,keypress(z),500,300324.6999999881,300324.59999996424,296751.368,296759,296768.035,300334.773,8,400,8,,ISIC_0025573.JPG
break,html.Screen,4_57_1,2023-11-01T17:03:13.437Z,,0,,,NaN,,,,,,false,,,,300325.5,300325.3000000119,,300324.89999997616,,300334.773,8,400,,,
break_continue,html.Screen,4_57_2,2023-11-01T17:03:13.437Z,,0,,,NaN,,,,,,false,,,,300325.8000000119,300325.59999996424,,300325.59999996424,,300334.773,8,400,,,
sequence,flow.Sequence,4_57,2023-11-01T17:03:13.438Z,,0,,,3557.564999964263,completion,,,,,false,,,,300325.89999997616,300325.59999996424,296751.368,296758.8000000119,296768.035,300334.773,8,400,,,
trial,html.Screen,4_58_0,2023-11-01T17:03:16.143Z,,0,2,,2696.4269999880926,response,ISIC_0010433.JPG,5,ISIC_0014765.JPG,ISIC_0010433.JPG,false,1,keypress(m),500,303031.39999997616,303031.1999999881,300318.106,300325.89999997616,300334.773,303034.827,8,400,9,,ISIC_0014765.JPG
break,html.Screen,4_58_1,2023-11-01T17:03:16.144Z,,0,,,NaN,,,,,,false,,,,303031.89999997616,303031.6999999881,,303031.5,,303034.827,8,400,,,
break_continue,html.Screen,4_58_2,2023-11-01T17:03:16.144Z,,0,,,NaN,,,,,,false,,,,303032.3000000119,303032.09999996424,,303032,,303034.827,8,400,,,
sequence,flow.Sequence,4_58,2023-11-01T17:03:16.144Z,,0,,,2697.3269999642507,completion,,,,,false,,,,303032.5,303032.09999996424,300318.106,300325.89999997616,300334.773,303034.827,8,400,,,
trial,html.Screen,4_59_0,2023-11-01T17:03:20.091Z,,0,2,,3943.67300000001,response,ISIC_0034000.JPG,5,ISIC_0064026.JPG,ISIC_0064026.JPG,false,0,keypress(z),500,306978.6999999881,306978.5,303018.16,303032.59999996424,303034.827,306985.411,8,400,10,,ISIC_0034000.JPG
break,html.Screen,4_59_1,2023-11-01T17:03:20.091Z,,0,,,NaN,,,,,,false,,,,306979.1999999881,306979.09999996424,,306978.8000000119,,306985.411,8,400,,,
break_continue,html.Screen,4_59_2,2023-11-01T17:03:20.091Z,,0,,,NaN,,,,,,false,,,,306979.39999997616,306979.39999997616,,306979.3000000119,,306985.411,8,400,,,
sequence,flow.Sequence,4_59,2023-11-01T17:03:20.091Z,,0,,,3944.572999976168,completion,,,,,false,,,,306979.59999996424,306979.39999997616,303018.16,303032.59999996424,303034.827,306985.411,8,400,,,
trial,html.Screen,4_60_0,2023-11-01T17:03:23.475Z,,0,2,,3377.889000011899,response,ISIC_4226975.JPG,8,ISIC_0799535.JPG,ISIC_0799535.JPG,false,0,keypress(z),500,310363.5,310363.3000000119,306968.744,306979.59999996424,306985.411,310385.479,8,400,11,,ISIC_4226975.JPG
break,html.Screen,4_60_1,2023-11-01T17:03:23.476Z,,0,,,NaN,,,,,,false,,,,310364.1999999881,310364.09999996424,,310363.6999999881,,310385.479,8,400,,,
break_continue,html.Screen,4_60_2,2023-11-01T17:03:23.477Z,,0,,,NaN,,,,,,false,,,,310364.59999996424,310364.39999997616,,310364.3000000119,,310385.479,8,400,,,
sequence,flow.Sequence,4_60,2023-11-01T17:03:23.477Z,,0,,,3378.9889999761363,completion,,,,,false,,,,310364.8000000119,310364.39999997616,306968.744,306979.59999996424,306985.411,310385.479,8,400,,,
trial,html.Screen,4_61_0,2023-11-01T17:03:26.566Z,,0,2,,3067.821000011929,response,ISIC_8041550.JPG,5,ISIC_8383600.JPG,ISIC_8041550.JPG,false,1,keypress(m),500,313453.5,313453.3000000119,310368.812,310365,310385.479,313468.874,8,400,12,,ISIC_8383600.JPG
break,html.Screen,4_61_1,2023-11-01T17:03:26.566Z,,0,,,NaN,,,,,,false,,,,313454.09999996424,313453.89999997616,,313453.8000000119,,313468.874,8,400,,,
break_continue,html.Screen,4_61_2,2023-11-01T17:03:26.567Z,,0,,,NaN,,,,,,false,,,,313454.5,313454.39999997616,,313454.3000000119,,313468.874,8,400,,,
sequence,flow.Sequence,4_61,2023-11-01T17:03:26.567Z,,0,,,3068.920999976166,completion,,,,,false,,,,313454.6999999881,313454.39999997616,310368.812,310364.89999997616,310385.479,313468.874,8,400,,,
trial,html.Screen,4_62_0,2023-11-01T17:03:29.762Z,,0,2,,3181.1259999999893,response,ISIC_6416533.JPG,5,ISIC_0976232.JPG,ISIC_6416533.JPG,false,1,keypress(m),500,316650.09999996424,316650,313452.207,313454.6999999881,313468.874,316652.905,8,400,13,,ISIC_0976232.JPG
break,html.Screen,4_62_1,2023-11-01T17:03:29.763Z,,0,,,NaN,,,,,,false,,,,316650.59999996424,316650.5,,316650.3000000119,,316652.905,8,400,,,
break_continue,html.Screen,4_62_2,2023-11-01T17:03:29.763Z,,0,,,NaN,,,,,,false,,,,316650.89999997616,316650.8000000119,,316650.8000000119,,316652.905,8,400,,,
sequence,flow.Sequence,4_62,2023-11-01T17:03:29.763Z,,0,,,3181.92600001191,completion,,,,,false,,,,316651,316650.8000000119,313452.207,313454.6999999881,313468.874,316652.905,8,400,,,
trial,html.Screen,4_63_0,2023-11-01T17:03:34.983Z,,0,2,,5218.094999999972,response,ISIC_2520840.JPG,7,ISIC_0011508.JPG,ISIC_0011508.JPG,false,0,keypress(z),500,321871.09999996424,321871,316636.238,316651.09999996424,316652.905,321886.343,8,400,14,,ISIC_2520840.JPG
break,html.Screen,4_63_1,2023-11-01T17:03:34.984Z,,0,,,NaN,,,,,,false,,,,321871.59999996424,321871.5,,321871.1999999881,,321886.343,8,400,,,
break_continue,html.Screen,4_63_2,2023-11-01T17:03:34.984Z,,0,,,NaN,,,,,,false,,,,321871.89999997616,321871.8000000119,,321871.6999999881,,321886.343,8,400,,,
sequence,flow.Sequence,4_63,2023-11-01T17:03:34.984Z,,0,,,5218.895000011893,completion,,,,,false,,,,321871.89999997616,321871.8000000119,316636.238,316651.09999996424,316652.905,321886.343,8,400,,,
trial,html.Screen,4_64_0,2023-11-01T17:03:41.948Z,,0,2,,6949.056999976165,response,ISIC_2908315.JPG,5,ISIC_2946577.JPG,ISIC_2946577.JPG,false,0,keypress(z),500,328835.6999999881,328835.39999997616,321869.676,321872,321886.343,328837.006,8,400,15,,ISIC_2908315.JPG
break,html.Screen,4_64_1,2023-11-01T17:03:41.949Z,,0,,,NaN,,,,,,false,,,,328836.39999997616,328836.1999999881,,328836,,328837.006,8,400,,,
break_continue,html.Screen,4_64_2,2023-11-01T17:03:41.949Z,,0,,,NaN,,,,,,false,,,,328836.8000000119,328836.6999999881,,328836.5,,328837.006,8,400,,,
sequence,flow.Sequence,4_64,2023-11-01T17:03:41.949Z,,0,,,6950.356999988086,completion,,,,,false,,,,328837,328836.6999999881,321869.676,321872,321886.343,328837.006,8,400,,,
trial,html.Screen,4_65_0,2023-11-01T17:03:45.025Z,,0,2,,3074.994000000006,response,ISIC_0054851.JPG,6,ISIC_0026394.JPG,ISIC_0054851.JPG,false,1,keypress(m),500,331912.1999999881,331912,328820.339,328837.09999996424,328837.006,331937.068,8,400,16,,ISIC_0026394.JPG
break,html.Screen,4_65_1,2023-11-01T17:03:45.026Z,,0,,,NaN,,,,,,false,,,,331912.89999997616,331912.6999999881,,331912.39999997616,,331937.068,8,400,,,
break_continue,html.Screen,4_65_2,2023-11-01T17:03:45.026Z,,0,,,NaN,,,,,,false,,,,331913.39999997616,331913.1999999881,,331913.1999999881,,331937.068,8,400,,,
sequence,flow.Sequence,4_65,2023-11-01T17:03:45.026Z,,0,,,3076.193999988085,completion,,,,,false,,,,331913.5,331913.1999999881,328820.339,328837.09999996424,328837.006,331937.068,8,400,,,
trial,html.Screen,4_66_0,2023-11-01T17:03:48.316Z,,0,2,,3266.3319999761297,response,ISIC_0003910.JPG,5,ISIC_0013334.JPG,ISIC_0013334.JPG,false,0,keypress(z),500,335203.59999996424,335203.39999997616,331920.401,331913.6999999881,331937.068,335220.467,8,400,17,,ISIC_0003910.JPG
break,html.Screen,4_66_1,2023-11-01T17:03:48.317Z,,0,,,NaN,,,,,,false,,,,335204.09999996424,335203.89999997616,,335203.6999999881,,335220.467,8,400,,,
break_continue,html.Screen,4_66_2,2023-11-01T17:03:48.317Z,,0,,,NaN,,,,,,false,,,,335204.5,335204.39999997616,,335204.3000000119,,335220.467,8,400,,,
sequence,flow.Sequence,4_66,2023-11-01T17:03:48.318Z,,0,,,3267.3319999761297,completion,,,,,false,,,,335204.8000000119,335204.39999997616,331920.401,331913.59999996424,331937.068,335220.467,8,400,,,
trial,html.Screen,4_67_0,2023-11-01T17:03:51.908Z,,0,2,,3574.132999964233,response,ISIC_0024351.JPG,5,ISIC_1964243.JPG,ISIC_1964243.JPG,false,0,keypress(z),500,338794.89999997616,338794.59999996424,335203.8,335205,335220.467,338821.007,8,400,18,,ISIC_0024351.JPG
break,html.Screen,4_67_1,2023-11-01T17:03:51.908Z,,0,,,NaN,,,,,,false,,,,338795.5,338795.3000000119,,338795.09999996424,,338821.007,8,400,,,
break_continue,html.Screen,4_67_2,2023-11-01T17:03:51.909Z,,0,,,NaN,,,,,,false,,,,338795.89999997616,338795.6999999881,,338795.59999996424,,338821.007,8,400,,,
sequence,flow.Sequence,4_67,2023-11-01T17:03:51.909Z,,0,,,3575.232999988075,completion,,,,,false,,,,338796,338795.6999999881,335203.8,335204.89999997616,335220.467,338821.007,8,400,,,
trial,html.Screen,4_68_0,2023-11-01T17:03:54.792Z,,0,2,,2857.692999988096,response,ISIC_0011035.JPG,7,ISIC_3676643.JPG,ISIC_3676643.JPG,false,0,keypress(z),500,341679,341678.6999999881,338804.34,338796.09999996424,338821.007,341687.731,8,400,19,,ISIC_0011035.JPG
break,html.Screen,4_68_1,2023-11-01T17:03:54.793Z,,0,,,NaN,,,,,,false,,,,341679.6999999881,341679.5,,341679.09999996424,,341687.731,8,400,,,
break_continue,html.Screen,4_68_2,2023-11-01T17:03:54.793Z,,0,,,NaN,,,,,,false,,,,341679.89999997616,341679.8000000119,,341679.8000000119,,341687.731,8,400,,,
sequence,flow.Sequence,4_68,2023-11-01T17:03:54.793Z,,0,,,2858.7930000119377,completion,,,,,false,,,,341680.09999996424,341679.8000000119,338804.34,338796.09999996424,338821.007,341687.731,8,400,,,
trial,html.Screen,4_69_0,2023-11-01T17:03:57.658Z,,0,2,,2857.46899998805,response,ISIC_0033501.JPG,5,ISIC_0667763.JPG,ISIC_0667763.JPG,false,0,keypress(z),500,344545.39999997616,344545.1999999881,341671.064,341680.1999999881,341687.731,344554.455,8,400,20,,ISIC_0033501.JPG
break,html.Screen,4_69_1,2023-11-01T17:03:57.659Z,,0,,,NaN,,,,,,false,,,,344546,344545.8000000119,,344545.59999996424,,344554.455,8,400,,,
break_continue,html.Screen,4_69_2,2023-11-01T17:03:57.659Z,,0,,,NaN,,,,,,false,,,,344546.39999997616,344546.3000000119,,344546.09999996424,,344554.455,8,400,,,
sequence,flow.Sequence,4_69,2023-11-01T17:03:57.660Z,,0,,,2858.569000011892,completion,,,,,false,,,,344546.59999996424,344546.3000000119,341671.064,341680.1999999881,341687.731,344554.455,8,400,,,
trial,html.Screen,4_70_0,2023-11-01T17:04:01.717Z,,0,2,,4048.8450000119046,response,ISIC_0059768.JPG,5,ISIC_0054229.JPG,ISIC_0059768.JPG,false,1,keypress(m),500,348603.5,348603.3000000119,344537.788,344546.6999999881,344554.455,348605.094,8,400,21,,ISIC_0054229.JPG
break,html.Screen,4_70_1,2023-11-01T17:04:01.717Z,,0,,,NaN,,,,,,false,,,,348604.09999996424,348603.89999997616,,348603.6999999881,,348605.094,8,400,,,
break_continue,html.Screen,4_70_2,2023-11-01T17:04:01.718Z,,0,,,NaN,,,,,,false,,,,348604.39999997616,348604.3000000119,,348604.1999999881,,348605.094,8,400,,,
sequence,flow.Sequence,4_70,2023-11-01T17:04:01.718Z,,0,,,4049.8450000119046,completion,,,,,false,,,,348604.59999996424,348604.3000000119,344537.788,344546.6999999881,344554.455,348605.094,8,400,,,
trial,html.Screen,4_71_0,2023-11-01T17:04:05.597Z,,0,2,,3878.206000011938,response,ISIC_0067226.JPG,6,ISIC_0064589.JPG,ISIC_0064589.JPG,false,0,keypress(z),500,352483.59999996424,352483.3000000119,348588.427,348604.6999999881,348605.094,352488.505,8,400,22,,ISIC_0067226.JPG
break,html.Screen,4_71_1,2023-11-01T17:04:05.597Z,,0,,,NaN,,,,,,false,,,,352484.1999999881,352484.09999996424,,352483.6999999881,,352488.505,8,400,,,
break_continue,html.Screen,4_71_2,2023-11-01T17:04:05.598Z,,0,,,NaN,,,,,,false,,,,352484.59999996424,352484.5,,352484.39999997616,,352488.505,8,400,,,
sequence,flow.Sequence,4_71,2023-11-01T17:04:05.598Z,,0,,,3879.4060000000172,completion,,,,,false,,,,352484.8000000119,352484.5,348588.427,348604.59999996424,348605.094,352488.505,8,400,,,
trial,html.Screen,4_72_0,2023-11-01T17:04:08.348Z,,0,2,,2745.4949999999953,response,ISIC_1632313.JPG,5,ISIC_5153848.JPG,ISIC_1632313.JPG,false,1,keypress(m),500,355234.1999999881,355234,352471.838,352484.89999997616,352488.505,355238.56,8,400,23,,ISIC_5153848.JPG
break,html.Screen,4_72_1,2023-11-01T17:04:08.348Z,,0,,,NaN,,,,,,false,,,,355234.89999997616,355234.6999999881,,355234.39999997616,,355238.56,8,400,,,
break_continue,html.Screen,4_72_2,2023-11-01T17:04:08.349Z,,0,,,NaN,,,,,,false,,,,355235.1999999881,355235.1999999881,,355235,,355238.56,8,400,,,
sequence,flow.Sequence,4_72,2023-11-01T17:04:08.349Z,,0,,,2746.6949999880744,completion,,,,,false,,,,355235.39999997616,355235.1999999881,352471.838,352484.89999997616,352488.505,355238.56,8,400,,,
trial,html.Screen,4_73_0,2023-11-01T17:04:11.215Z,,0,2,,2862.5399999642395,response,ISIC_0028341.JPG,8,ISIC_9086288.JPG,ISIC_0028341.JPG,false,1,keypress(m),500,358101.3000000119,358101.09999996424,355221.893,355235.5,355238.56,358105.284,8,400,24,,ISIC_9086288.JPG
break,html.Screen,4_73_1,2023-11-01T17:04:11.215Z,,0,,,NaN,,,,,,false,,,,358102.09999996424,358101.89999997616,,358101.5,,358105.284,8,400,,,
break_continue,html.Screen,4_73_2,2023-11-01T17:04:11.216Z,,0,,,NaN,,,,,,false,,,,358102.5,358102.3000000119,,358102.1999999881,,358105.284,8,400,,,
sequence,flow.Sequence,4_73,2023-11-01T17:04:11.216Z,,0,,,2863.7400000119233,completion,,,,,false,,,,358102.6999999881,358102.3000000119,355221.893,355235.5,355238.56,358105.284,8,400,,,
trial,html.Screen,4_74_0,2023-11-01T17:04:14.259Z,,0,2,,3040.115999976173,response,ISIC_2680588.JPG,5,ISIC_8651476.JPG,ISIC_8651476.JPG,false,0,keypress(z),500,361145.6999999881,361145.39999997616,358088.617,358102.89999997616,358105.284,361155.835,8,400,25,,ISIC_2680588.JPG
break,html.Screen,4_74_1,2023-11-01T17:04:14.260Z,,0,,,NaN,,,,,,false,,,,361146.5,361146.3000000119,,361145.89999997616,,361155.835,8,400,,,
break_continue,html.Screen,4_74_2,2023-11-01T17:04:14.261Z,,0,,,NaN,,,,,,false,,,,361147.09999996424,361146.89999997616,,361146.8000000119,,361155.835,8,400,,,
sequence,flow.Sequence,4_74,2023-11-01T17:04:14.261Z,,0,,,3041.615999976173,completion,,,,,false,,,,361147.1999999881,361146.89999997616,358088.617,358102.8000000119,358105.284,361155.835,8,400,,,
trial,html.Screen,4_75_0,2023-11-01T17:04:17.260Z,,0,2,,2990.564999976137,response,ISIC_4352700.JPG,4,ISIC_0001105.JPG,ISIC_4352700.JPG,false,1,keypress(m),500,364146.59999996424,364146.39999997616,361139.168,361147.39999997616,361155.835,364155.895,8,400,26,,ISIC_0001105.JPG
break,html.Screen,4_75_1,2023-11-01T17:04:17.261Z,,0,,,NaN,,,,,,false,,,,364147.1999999881,364147,,364146.8000000119,,364155.895,8,400,,,
break_continue,html.Screen,4_75_2,2023-11-01T17:04:17.261Z,,0,,,NaN,,,,,,false,,,,364147.59999996424,364147.39999997616,,364147.3000000119,,364155.895,8,400,,,
sequence,flow.Sequence,4_75,2023-11-01T17:04:17.261Z,,0,,,2991.564999976137,completion,,,,,false,,,,364147.6999999881,364147.39999997616,361139.168,361147.39999997616,361155.835,364155.895,8,400,,,
trial,html.Screen,4_76_0,2023-11-01T17:04:20.565Z,,0,2,,3295.1049999999814,response,ISIC_0028087.JPG,6,ISIC_5642824.JPG,ISIC_5642824.JPG,false,0,keypress(z),500,367451.1999999881,367451,364139.228,364147.8000000119,364155.895,367455.961,8,400,27,,ISIC_0028087.JPG
break,html.Screen,4_76_1,2023-11-01T17:04:20.565Z,,0,,,NaN,,,,,,false,,,,367451.6999999881,367451.5,,367451.39999997616,,367455.961,8,400,,,
break_continue,html.Screen,4_76_2,2023-11-01T17:04:20.566Z,,0,,,NaN,,,,,,false,,,,367451.89999997616,367451.89999997616,,367451.8000000119,,367455.961,8,400,,,
sequence,flow.Sequence,4_76,2023-11-01T17:04:20.566Z,,0,,,3296.0049999761395,completion,,,,,false,,,,367452.09999996424,367451.89999997616,364139.228,364147.8000000119,364155.895,367455.961,8,400,,,
trial,html.Screen,4_77_0,2023-11-01T17:04:24.086Z,,0,2,,3515.8390000119107,response,ISIC_2268341.JPG,5,ISIC_0026160.JPG,ISIC_2268341.JPG,false,1,keypress(m),500,370972,370971.8000000119,367439.294,367452.1999999881,367455.961,370973.262,8,400,28,,ISIC_0026160.JPG
break,html.Screen,4_77_1,2023-11-01T17:04:24.086Z,,0,,,NaN,,,,,,false,,,,370972.6999999881,370972.5,,370972.1999999881,,370973.262,8,400,,,
break_continue,html.Screen,4_77_2,2023-11-01T17:04:24.087Z,,0,,,NaN,,,,,,false,,,,370973.09999996424,370972.89999997616,,370972.8000000119,,370973.262,8,400,,,
sequence,flow.Sequence,4_77,2023-11-01T17:04:24.087Z,,0,,,3516.938999976148,completion,,,,,false,,,,370973.1999999881,370972.89999997616,367439.294,367452.1999999881,367455.961,370973.262,8,400,,,
trial,html.Screen,4_78_0,2023-11-01T17:04:26.938Z,,0,2,,2850.1379999761702,response,ISIC_2486088.JPG,7,ISIC_4153687.JPG,ISIC_2486088.JPG,false,1,keypress(m),500,373823.6999999881,373823.39999997616,370956.595,370973.39999997616,370973.262,373839.986,8,400,29,,ISIC_4153687.JPG
break,html.Screen,4_78_1,2023-11-01T17:04:26.938Z,,0,,,NaN,,,,,,false,,,,373824.5,373824.1999999881,,373823.89999997616,,373839.986,8,400,,,
break_continue,html.Screen,4_78_2,2023-11-01T17:04:26.939Z,,0,,,NaN,,,,,,false,,,,373824.89999997616,373824.6999999881,,373824.5,,373839.986,8,400,,,
sequence,flow.Sequence,4_78,2023-11-01T17:04:26.939Z,,0,,,2851.437999988091,completion,,,,,false,,,,373825.09999996424,373824.6999999881,370956.595,370973.3000000119,370973.262,373839.986,8,400,,,
trial,html.Screen,4_79_0,2023-11-01T17:04:30.469Z,,0,2,,3514.8140000119456,response,ISIC_6268546.JPG,7,ISIC_4876193.JPG,ISIC_4876193.JPG,false,0,keypress(z),500,377354.89999997616,377354.8000000119,373823.319,373825.1999999881,373839.986,377373.39,8,400,30,,ISIC_6268546.JPG
break,html.Screen,4_79_1,2023-11-01T17:04:30.470Z,,0,,,NaN,,,,,,false,,,,377355.59999996424,377355.39999997616,,377355.1999999881,,377373.39,8,400,,,
break_continue,html.Screen,4_79_2,2023-11-01T17:04:30.470Z,,0,,,NaN,,,,,,false,,,,377356,377355.8000000119,,377355.6999999881,,377373.39,8,400,,,
sequence,flow.Sequence,4_79,2023-11-01T17:04:30.470Z,,0,,,3515.8140000119456,completion,,,,,false,,,,377356.1999999881,377355.8000000119,373823.319,373825.1999999881,373839.986,377373.39,8,400,,,
trial,html.Screen,4_80_0,2023-11-01T17:04:35.258Z,,0,2,,4770.410000011907,response,ISIC_0031997.JPG,7,ISIC_0588322.JPG,ISIC_0031997.JPG,false,1,keypress(m),500,382144,382143.8000000119,377356.723,377356.39999997616,377373.39,382157.268,8,400,31,,ISIC_0588322.JPG
break,html.Screen,4_80_1,2023-11-01T17:04:35.259Z,,0,,,NaN,,,,,,false,,,,382144.6999999881,382144.5,,382144.1999999881,,382157.268,8,400,,,
break_continue,html.Screen,4_80_2,2023-11-01T17:04:35.259Z,,0,,,NaN,,,,,,false,,,,382145.09999996424,382144.89999997616,,382144.8000000119,,382157.268,8,400,,,
sequence,flow.Sequence,4_80,2023-11-01T17:04:35.259Z,,0,,,4771.509999976144,completion,,,,,false,,,,382145.1999999881,382144.89999997616,377356.723,377356.3000000119,377373.39,382157.268,8,400,,,
trial,html.Screen,4_81_0,2023-11-01T17:04:38.846Z,,0,2,,3574.032000011939,response,ISIC_0027951.JPG,7,ISIC_0024266.JPG,ISIC_0027951.JPG,false,1,keypress(m),500,385731.59999996424,385731.3000000119,382140.601,382145.39999997616,382157.268,385740.673,8,400,32,,ISIC_0024266.JPG
break,html.Screen,4_81_1,2023-11-01T17:04:38.846Z,,0,,,NaN,,,,,,false,,,,385732.1999999881,385732,,385731.6999999881,,385740.673,8,400,,,
break_continue,html.Screen,4_81_2,2023-11-01T17:04:38.847Z,,0,,,NaN,,,,,,false,,,,385732.59999996424,385732.5,,385732.39999997616,,385740.673,8,400,,,
sequence,flow.Sequence,4_81,2023-11-01T17:04:38.847Z,,0,,,3575.232000000018,completion,,,,,false,,,,385732.8000000119,385732.5,382140.601,382145.3000000119,382157.268,385740.673,8,400,,,
trial,html.Screen,4_82_0,2023-11-01T17:04:41.462Z,,0,2,,2606.32699999999,response,ISIC_0010414.JPG,6,ISIC_0029902.JPG,ISIC_0010414.JPG,false,1,keypress(m),500,388347.1999999881,388347,385724.006,385733,385740.673,388357.392,8,400,33,,ISIC_0029902.JPG
break,html.Screen,4_82_1,2023-11-01T17:04:41.462Z,,0,,,NaN,,,,,,false,,,,388347.89999997616,388347.8000000119,,388347.5,,388357.392,8,400,,,
break_continue,html.Screen,4_82_2,2023-11-01T17:04:41.463Z,,0,,,NaN,,,,,,false,,,,388348.3000000119,388348.09999996424,,388348.09999996424,,388357.392,8,400,,,
sequence,flow.Sequence,4_82,2023-11-01T17:04:41.463Z,,0,,,2607.4269999642274,completion,,,,,false,,,,388348.5,388348.09999996424,385724.006,385732.89999997616,385740.673,388357.392,8,400,,,
trial,html.Screen,4_83_0,2023-11-01T17:04:44.632Z,,0,2,,3160.2079999642447,response,ISIC_4702522.JPG,8,ISIC_7994337.JPG,ISIC_4702522.JPG,false,1,keypress(m),500,391517.89999997616,391517.59999996424,388340.725,388348.6999999881,388357.392,391524.727,8,400,34,,ISIC_7994337.JPG
break,html.Screen,4_83_1,2023-11-01T17:04:44.633Z,,0,,,NaN,,,,,,false,,,,391518.59999996424,391518.39999997616,,391518.09999996424,,391524.727,8,400,,,
break_continue,html.Screen,4_83_2,2023-11-01T17:04:44.633Z,,0,,,NaN,,,,,,false,,,,391518.89999997616,391518.8000000119,,391518.6999999881,,391524.727,8,400,,,
sequence,flow.Sequence,4_83,2023-11-01T17:04:44.634Z,,0,,,3161.4080000119284,completion,,,,,false,,,,391519.1999999881,391518.8000000119,388340.725,388348.59999996424,388357.392,391524.727,8,400,,,
trial,html.Screen,4_84_0,2023-11-01T17:04:47.431Z,,0,2,,2791.5730000119074,response,ISIC_0057815.JPG,6,ISIC_6511689.JPG,ISIC_0057815.JPG,false,1,keypress(m),500,394316.6999999881,394316.3000000119,391508.06,391519.3000000119,391524.727,394324.783,8,400,35,,ISIC_6511689.JPG
break,html.Screen,4_84_1,2023-11-01T17:04:47.432Z,,0,,,NaN,,,,,,false,,,,394317.39999997616,394317.1999999881,,394316.89999997616,,394324.783,8,400,,,
break_continue,html.Screen,4_84_2,2023-11-01T17:04:47.432Z,,0,,,NaN,,,,,,false,,,,394317.8000000119,394317.59999996424,,394317.59999996424,,394324.783,8,400,,,
sequence,flow.Sequence,4_84,2023-11-01T17:04:47.432Z,,0,,,2792.8729999642237,completion,,,,,false,,,,394318,394317.59999996424,391508.06,391519.3000000119,391524.727,394324.783,8,400,,,
trial,html.Screen,4_85_0,2023-11-01T17:04:51.393Z,,0,2,,3953.717000000004,response,ISIC_0062906.JPG,8,ISIC_8145260.JPG,ISIC_8145260.JPG,false,0,keypress(z),500,398278.6999999881,398278.5,394308.116,394318.1999999881,394324.783,398308.196,8,400,36,,ISIC_0062906.JPG
break,html.Screen,4_85_1,2023-11-01T17:04:51.394Z,,0,,,NaN,,,,,,false,,,,398279.39999997616,398279.1999999881,,398278.89999997616,,398308.196,8,400,,,
break_continue,html.Screen,4_85_2,2023-11-01T17:04:51.394Z,,0,,,NaN,,,,,,false,,,,398279.8000000119,398279.59999996424,,398279.5,,398308.196,8,400,,,
sequence,flow.Sequence,4_85,2023-11-01T17:04:51.395Z,,0,,,3954.8169999642414,completion,,,,,false,,,,398280,398279.59999996424,394308.116,394318.09999996424,394324.783,398308.196,8,400,,,
trial,html.Screen,4_86_0,2023-11-01T17:04:55.240Z,,0,2,,3816.403999964241,response,ISIC_0030824.JPG,8,ISIC_0015206.JPG,ISIC_0030824.JPG,false,1,keypress(m),500,402124.8000000119,402124.59999996424,398291.529,398280.09999996424,398308.196,402142.11,8,400,37,,ISIC_0015206.JPG
break,html.Screen,4_86_1,2023-11-01T17:04:55.240Z,,0,,,NaN,,,,,,false,,,,402125.5,402125.3000000119,,402125,,402142.11,8,400,,,
break_continue,html.Screen,4_86_2,2023-11-01T17:04:55.241Z,,0,,,NaN,,,,,,false,,,,402125.89999997616,402125.8000000119,,402125.6999999881,,402142.11,8,400,,,
sequence,flow.Sequence,4_86,2023-11-01T17:04:55.241Z,,0,,,3817.6040000119247,completion,,,,,false,,,,402126.09999996424,402125.8000000119,398291.529,398280.09999996424,398308.196,402142.11,8,400,,,
trial,html.Screen,4_87_0,2023-11-01T17:04:58.445Z,,0,2,,3188.089999988093,response,ISIC_0011950.JPG,6,ISIC_0204355.JPG,ISIC_0011950.JPG,false,1,keypress(m),500,405330.5,405330.1999999881,402125.443,402126.3000000119,402142.11,405342.174,8,400,38,,ISIC_0204355.JPG
break,html.Screen,4_87_1,2023-11-01T17:04:58.446Z,,0,,,NaN,,,,,,false,,,,405331.09999996424,405331,,405330.6999999881,,405342.174,8,400,,,
break_continue,html.Screen,4_87_2,2023-11-01T17:04:58.447Z,,0,,,NaN,,,,,,false,,,,405331.6999999881,405331.39999997616,,405331.3000000119,,405342.174,8,400,,,
sequence,flow.Sequence,4_87,2023-11-01T17:04:58.447Z,,0,,,3189.289999976172,completion,,,,,false,,,,405332,405331.39999997616,402125.443,402126.1999999881,402142.11,405342.174,8,400,,,
trial,html.Screen,4_88_0,2023-11-01T17:05:01.454Z,,0,2,,2996.925999964238,response,ISIC_5152859.JPG,6,ISIC_0011269.JPG,ISIC_0011269.JPG,false,0,keypress(z),500,408339.5,408339.09999996424,405325.507,405332.1999999881,405342.174,408358.901,8,400,39,,ISIC_5152859.JPG
break,html.Screen,4_88_1,2023-11-01T17:05:01.455Z,,0,,,NaN,,,,,,false,,,,408340.3000000119,408340,,408339.6999999881,,408358.901,8,400,,,
break_continue,html.Screen,4_88_2,2023-11-01T17:05:01.456Z,,0,,,NaN,,,,,,false,,,,408340.59999996424,408340.39999997616,,408340.39999997616,,408358.901,8,400,,,
sequence,flow.Sequence,4_88,2023-11-01T17:05:01.456Z,,0,,,2998.225999976159,completion,,,,,false,,,,408340.8000000119,408340.39999997616,405325.507,405332.1999999881,405342.174,408358.901,8,400,,,
trial,html.Screen,4_89_0,2023-11-01T17:05:07.173Z,,0,2,,5699.098999999987,response,ISIC_6967143.JPG,8,ISIC_1640823.JPG,ISIC_1640823.JPG,false,0,keypress(z),500,414058.09999996424,414058,408342.234,408340.89999997616,408358.901,414059.427,8,400,40,,ISIC_6967143.JPG
break,html.Screen,4_89_1,2023-11-01T17:05:07.174Z,,0,,,NaN,,,,,,false,,,,414059.1999999881,414058.89999997616,,414058.39999997616,,414059.427,8,400,,,
break_continue,html.Screen,4_89_2,2023-11-01T17:05:07.175Z,,0,,,NaN,,,,,,false,,,,414059.59999996424,414059.39999997616,,414059.3000000119,,414059.427,8,400,,,
sequence,flow.Sequence,4_89,2023-11-01T17:05:07.175Z,,0,,,5700.498999976146,completion,,,,,false,,,,414059.8000000119,414059.39999997616,408342.234,408340.89999997616,408358.901,414059.427,8,400,,,
trial,html.Screen,4_90_0,2023-11-01T17:05:11.387Z,,0,2,,4212.672999964212,response,ISIC_3376976.JPG,7,ISIC_6616542.JPG,ISIC_6616542.JPG,false,0,keypress(z),500,418272.1999999881,418272.09999996424,414042.76,414060,414059.427,418292.845,8,400,41,,ISIC_3376976.JPG
break,html.Screen,4_90_1,2023-11-01T17:05:11.388Z,,0,,,NaN,,,,,,false,,,,418272.89999997616,418272.6999999881,,418272.5,,418292.845,8,400,,,
break_continue,html.Screen,4_90_2,2023-11-01T17:05:11.388Z,,0,,,NaN,,,,,,false,,,,418273.3000000119,418273.1999999881,,418273.09999996424,,418292.845,8,400,,,
sequence,flow.Sequence,4_90,2023-11-01T17:05:11.389Z,,0,,,4213.772999988054,completion,,,,,false,,,,418273.5,418273.1999999881,414042.76,414059.89999997616,414059.427,418292.845,8,400,,,
trial,html.Screen,4_91_0,2023-11-01T17:05:14.193Z,,0,2,,2784.754999964265,response,ISIC_9041897.JPG,9,ISIC_0026008.JPG,ISIC_0026008.JPG,false,0,keypress(z),500,421077.8000000119,421077.59999996424,418276.178,418273.6999999881,418292.845,421093.512,8,400,42,,ISIC_9041897.JPG
break,html.Screen,4_91_1,2023-11-01T17:05:14.194Z,,0,,,NaN,,,,,,false,,,,421078.59999996424,421078.39999997616,,421078.09999996424,,421093.512,8,400,,,
break_continue,html.Screen,4_91_2,2023-11-01T17:05:14.194Z,,0,,,NaN,,,,,,false,,,,421079,421078.89999997616,,421078.6999999881,,421093.512,8,400,,,
sequence,flow.Sequence,4_91,2023-11-01T17:05:14.194Z,,0,,,2786.054999976186,completion,,,,,false,,,,421079.1999999881,421078.89999997616,418276.178,418273.59999996424,418292.845,421093.512,8,400,,,
trial,html.Screen,4_92_0,2023-11-01T17:05:17.044Z,,0,2,,2835.0879999642493,response,ISIC_4523382.JPG,7,ISIC_0053513.JPG,ISIC_4523382.JPG,false,1,keypress(m),500,423928.8000000119,423928.59999996424,421076.845,421079.3000000119,421093.512,423943.569,8,400,43,,ISIC_0053513.JPG
break,html.Screen,4_92_1,2023-11-01T17:05:17.045Z,,0,,,NaN,,,,,,false,,,,423929.5,423929.3000000119,,423929,,423943.569,8,400,,,
break_continue,html.Screen,4_92_2,2023-11-01T17:05:17.045Z,,0,,,NaN,,,,,,false,,,,423929.89999997616,423929.6999999881,,423929.59999996424,,423943.569,8,400,,,
sequence,flow.Sequence,4_92,2023-11-01T17:05:17.045Z,,0,,,2836.187999988091,completion,,,,,false,,,,423929.89999997616,423929.6999999881,421076.845,421079.1999999881,421093.512,423943.569,8,400,,,
trial,html.Screen,4_93_0,2023-11-01T17:05:19.883Z,,0,2,,2823.2310000119032,response,ISIC_0000040.JPG,7,ISIC_9989485.JPG,ISIC_0000040.JPG,false,1,keypress(m),500,426767.09999996424,426766.8000000119,423926.902,423930.09999996424,423943.569,426776.959,8,400,44,,ISIC_9989485.JPG
break,html.Screen,4_93_1,2023-11-01T17:05:19.883Z,,0,,,NaN,,,,,,false,,,,426767.8000000119,426767.59999996424,,426767.3000000119,,426776.959,8,400,,,
break_continue,html.Screen,4_93_2,2023-11-01T17:05:19.884Z,,0,,,NaN,,,,,,false,,,,426768.09999996424,426768,,426767.8000000119,,426776.959,8,400,,,
sequence,flow.Sequence,4_93,2023-11-01T17:05:19.884Z,,0,,,2824.4309999999823,completion,,,,,false,,,,426768.3000000119,426768,423926.902,423930.09999996424,423943.569,426776.959,8,400,,,
trial,html.Screen,4_94_0,2023-11-01T17:05:22.888Z,,0,2,,2995.4409999761847,response,ISIC_0054640.JPG,6,ISIC_0024911.JPG,ISIC_0054640.JPG,false,1,keypress(m),500,429772.59999996424,429772.39999997616,426760.292,426768.39999997616,426776.959,429777.019,8,400,45,,ISIC_0024911.JPG
break,html.Screen,4_94_1,2023-11-01T17:05:22.889Z,,0,,,NaN,,,,,,false,,,,429773.3000000119,429773.09999996424,,429772.89999997616,,429777.019,8,400,,,
break_continue,html.Screen,4_94_2,2023-11-01T17:05:22.889Z,,0,,,NaN,,,,,,false,,,,429773.59999996424,429773.59999996424,,429773.5,,429777.019,8,400,,,
sequence,flow.Sequence,4_94,2023-11-01T17:05:22.889Z,,0,,,2996.6409999642638,completion,,,,,false,,,,429773.8000000119,429773.59999996424,426760.292,426768.39999997616,426776.959,429777.019,8,400,,,
trial,html.Screen,4_95_0,2023-11-01T17:05:26.124Z,,0,2,,3230.580999964266,response,ISIC_7545432.JPG,8,ISIC_0033555.JPG,ISIC_7545432.JPG,false,1,keypress(m),500,433007.89999997616,433007.59999996424,429760.352,429773.89999997616,429777.019,433010.932,8,400,46,,ISIC_0033555.JPG
break,html.Screen,4_95_1,2023-11-01T17:05:26.124Z,,0,,,NaN,,,,,,false,,,,433008.59999996424,433008.39999997616,,433008.1999999881,,433010.932,8,400,,,
break_continue,html.Screen,4_95_2,2023-11-01T17:05:26.125Z,,0,,,NaN,,,,,,false,,,,433009,433008.8000000119,,433008.8000000119,,433010.932,8,400,,,
sequence,flow.Sequence,4_95,2023-11-01T17:05:26.125Z,,0,,,3231.78100001195,completion,,,,,false,,,,433009.09999996424,433008.8000000119,429760.352,429773.89999997616,429777.019,433010.932,8,400,,,
trial,html.Screen,4_96_0,2023-11-01T17:05:28.849Z,,0,2,,2722.3680000119493,response,ISIC_9119549.JPG,5,ISIC_0072001.JPG,ISIC_0072001.JPG,false,0,keypress(z),500,435733.5,435733.3000000119,432994.265,433009.3000000119,433010.932,435744.32,8,400,47,,ISIC_9119549.JPG
break,html.Screen,4_96_1,2023-11-01T17:05:28.850Z,,0,,,NaN,,,,,,false,,,,435734.1999999881,435734.09999996424,,435733.6999999881,,435744.32,8,400,,,
break_continue,html.Screen,4_96_2,2023-11-01T17:05:28.850Z,,0,,,NaN,,,,,,false,,,,435734.59999996424,435734.5,,435734.3000000119,,435744.32,8,400,,,
sequence,flow.Sequence,4_96,2023-11-01T17:05:28.850Z,,0,,,2723.5680000000284,completion,,,,,false,,,,435734.8000000119,435734.5,432994.265,433009.3000000119,433010.932,435744.32,8,400,,,
trial,html.Screen,4_97_0,2023-11-01T17:05:31.905Z,,0,2,,3044.379999988072,response,ISIC_0056228.JPG,5,ISIC_0065537.JPG,ISIC_0065537.JPG,false,0,keypress(z),500,438789,438788.6999999881,435727.653,435734.89999997616,435744.32,438794.381,8,400,48,,ISIC_0056228.JPG
break,html.Screen,4_97_1,2023-11-01T17:05:31.906Z,,0,,,NaN,,,,,,false,,,,438789.6999999881,438789.5,,438789.1999999881,,438794.381,8,400,,,
break_continue,html.Screen,4_97_2,2023-11-01T17:05:31.906Z,,0,,,NaN,,,,,,false,,,,438790.1999999881,438790,,438789.8000000119,,438794.381,8,400,,,
sequence,flow.Sequence,4_97,2023-11-01T17:05:31.906Z,,0,,,3045.679999999993,completion,,,,,false,,,,438790.39999997616,438790,435727.653,435734.89999997616,435744.32,438794.381,8,400,,,
trial,html.Screen,4_98_0,2023-11-01T17:05:34.502Z,,0,2,,2591.2189999642433,response,ISIC_0663941.JPG,7,ISIC_0014233.JPG,ISIC_0014233.JPG,false,0,keypress(z),500,441385.89999997616,441385.59999996424,438777.714,438790.5,438794.381,441394.891,8,400,49,,ISIC_0663941.JPG
break,html.Screen,4_98_1,2023-11-01T17:05:34.502Z,,0,,,NaN,,,,,,false,,,,441386.5,441386.3000000119,,441386.09999996424,,441394.891,8,400,,,
break_continue,html.Screen,4_98_2,2023-11-01T17:05:34.503Z,,0,,,NaN,,,,,,false,,,,441387,441386.8000000119,,441386.6999999881,,441394.891,8,400,,,
sequence,flow.Sequence,4_98,2023-11-01T17:05:34.503Z,,0,,,2592.419000011927,completion,,,,,false,,,,441387.1999999881,441386.8000000119,438777.714,438790.39999997616,438794.381,441394.891,8,400,,,
trial,html.Screen,4_99_0,2023-11-01T17:05:37.263Z,,0,2,,2752.008999976155,response,ISIC_0026167.JPG,5,ISIC_3234908.JPG,ISIC_0026167.JPG,false,1,keypress(m),500,444147.09999996424,444146.89999997616,441378.224,441387.3000000119,441394.891,444161.613,8,400,50,,ISIC_3234908.JPG
break,html.Screen,4_99_1,2023-11-01T17:05:47.265Z,,0,,,10000.675999999978,timeout,,,,,false,,,,454148.89999997616,454145.622,444144.946,444147.3000000119,444161.613,454162.289,8,400,,,
break_continue,html.Screen,4_99_2,2023-11-01T17:05:49.412Z,,0,,,2108.1109999761684,response,,,,,false,continue,keypress(Space),,456295.39999997616,456270.39999997616,454145.622,454149,454162.289,456312.332,8,400,,,
sequence,flow.Sequence,4_99,2023-11-01T17:05:49.412Z,,0,,,14875.508999976155,completion,,,,,false,,,,456295.5,456270.39999997616,441378.224,441387.1999999881,441394.891,456312.332,8,400,,,
trial,html.Screen,4_100_0,2023-11-01T17:05:52.641Z,,0,3,,3211.968000011926,response,ISIC_0031785.JPG,8,ISIC_0012164.JPG,ISIC_0012164.JPG,false,0,keypress(z),500,459524.5,459524.3000000119,456295.665,456295.59999996424,456312.332,459529.063,8,400,1,,ISIC_0031785.JPG
break,html.Screen,4_100_1,2023-11-01T17:05:52.642Z,,0,,,NaN,,,,,,false,,,,459525.1999999881,459525,,459524.6999999881,,459529.063,8,400,,,
break_continue,html.Screen,4_100_2,2023-11-01T17:05:52.642Z,,0,,,NaN,,,,,,false,,,,459525.5,459525.39999997616,,459525.3000000119,,459529.063,8,400,,,
sequence,flow.Sequence,4_100,2023-11-01T17:05:52.642Z,,0,,,3213.0679999761633,completion,,,,,false,,,,459525.6999999881,459525.39999997616,456295.665,456295.5,456312.332,459529.063,8,400,,,
trial,html.Screen,4_101_0,2023-11-01T17:05:56.053Z,,0,3,,3406.737000011897,response,ISIC_0060760.JPG,7,ISIC_0034262.JPG,ISIC_0060760.JPG,false,1,keypress(m),500,462936,462935.8000000119,459512.396,459525.89999997616,459529.063,462946.342,8,400,2,,ISIC_0034262.JPG
break,html.Screen,4_101_1,2023-11-01T17:05:56.053Z,,0,,,NaN,,,,,,false,,,,462936.8000000119,462936.59999996424,,462936.1999999881,,462946.342,8,400,,,
break_continue,html.Screen,4_101_2,2023-11-01T17:05:56.054Z,,0,,,NaN,,,,,,false,,,,462937.1999999881,462937,,462936.8000000119,,462946.342,8,400,,,
sequence,flow.Sequence,4_101,2023-11-01T17:05:56.054Z,,0,,,3407.9369999999763,completion,,,,,false,,,,462937.39999997616,462937,459512.396,459525.89999997616,459529.063,462946.342,8,400,,,
trial,html.Screen,4_102_0,2023-11-01T17:06:00.393Z,,0,3,,4330.257999964233,response,ISIC_5634573.JPG,8,ISIC_0519719.JPG,ISIC_5634573.JPG,false,1,keypress(m),500,467276.89999997616,467276.59999996424,462929.675,462937.5,462946.342,467279.762,8,400,3,,ISIC_0519719.JPG
break,html.Screen,4_102_1,2023-11-01T17:06:00.394Z,,0,,,NaN,,,,,,false,,,,467277.59999996424,467277.39999997616,,467277,,467279.762,8,400,,,
break_continue,html.Screen,4_102_2,2023-11-01T17:06:00.395Z,,0,,,NaN,,,,,,false,,,,467277.89999997616,467277.8000000119,,467277.6999999881,,467279.762,8,400,,,
sequence,flow.Sequence,4_102,2023-11-01T17:06:00.395Z,,0,,,4331.458000011917,completion,,,,,false,,,,467278.09999996424,467277.8000000119,462929.675,462937.39999997616,462946.342,467279.762,8,400,,,
trial,html.Screen,4_103_0,2023-11-01T17:06:03.944Z,,0,3,,3547.038000011933,response,ISIC_0024652.JPG,4,ISIC_0069946.JPG,ISIC_0024652.JPG,false,1,keypress(m),500,470827,470826.8000000119,467263.095,467278.3000000119,467279.762,470829.833,8,400,4,,ISIC_0069946.JPG
break,html.Screen,4_103_1,2023-11-01T17:06:03.945Z,,0,,,NaN,,,,,,false,,,,470827.6999999881,470827.5,,470827.1999999881,,470829.833,8,400,,,
break_continue,html.Screen,4_103_2,2023-11-01T17:06:03.945Z,,0,,,NaN,,,,,,false,,,,470828.09999996424,470828,,470827.89999997616,,470829.833,8,400,,,
sequence,flow.Sequence,4_103,2023-11-01T17:06:03.945Z,,0,,,3548.238000000012,completion,,,,,false,,,,470828.3000000119,470828,467263.095,467278.1999999881,467279.762,470829.833,8,400,,,
trial,html.Screen,4_104_0,2023-11-01T17:06:07.262Z,,0,3,,3315.167000000016,response,ISIC_0025056.JPG,5,ISIC_7369312.JPG,ISIC_0025056.JPG,false,1,keypress(m),500,474145.3000000119,474145,470813.166,470828.39999997616,470829.833,474147.108,8,400,5,,ISIC_7369312.JPG
break,html.Screen,4_104_1,2023-11-01T17:06:07.263Z,,0,,,NaN,,,,,,false,,,,474146.09999996424,474145.8000000119,,474145.5,,474147.108,8,400,,,
break_continue,html.Screen,4_104_2,2023-11-01T17:06:07.263Z,,0,,,NaN,,,,,,false,,,,474146.39999997616,474146.3000000119,,474146.09999996424,,474147.108,8,400,,,
sequence,flow.Sequence,4_104,2023-11-01T17:06:07.264Z,,0,,,3316.4670000119368,completion,,,,,false,,,,474146.6999999881,474146.3000000119,470813.166,470828.39999997616,470829.833,474147.108,8,400,,,
trial,html.Screen,4_105_0,2023-11-01T17:06:10.067Z,,0,3,,2802.8919999999925,response,ISIC_0031224.JPG,8,ISIC_0033021.JPG,ISIC_0033021.JPG,false,0,keypress(z),500,476950.1999999881,476950,474130.441,474146.8000000119,474147.108,476963.831,8,400,6,,ISIC_0031224.JPG
break,html.Screen,4_105_1,2023-11-01T17:06:10.068Z,,0,,,NaN,,,,,,false,,,,476951,476950.8000000119,,476950.5,,476963.831,8,400,,,
break_continue,html.Screen,4_105_2,2023-11-01T17:06:10.068Z,,0,,,NaN,,,,,,false,,,,476951.3000000119,476951.1999999881,,476951,,476963.831,8,400,,,
sequence,flow.Sequence,4_105,2023-11-01T17:06:10.068Z,,0,,,2804.0919999880716,completion,,,,,false,,,,476951.5,476951.1999999881,474130.441,474146.8000000119,474147.108,476963.831,8,400,,,
trial,html.Screen,4_106_0,2023-11-01T17:06:13.264Z,,0,3,,3183.1689999999944,response,ISIC_4341261.JPG,8,ISIC_2252958.JPG,ISIC_4341261.JPG,false,1,keypress(m),500,480147.3000000119,480147,476947.164,476951.6999999881,476963.831,480163.895,8,400,7,,ISIC_2252958.JPG
break,html.Screen,4_106_1,2023-11-01T17:06:13.265Z,,0,,,NaN,,,,,,false,,,,480148,480147.89999997616,,480147.5,,480163.895,8,400,,,
break_continue,html.Screen,4_106_2,2023-11-01T17:06:13.265Z,,0,,,NaN,,,,,,false,,,,480148.5,480148.3000000119,,480148.09999996424,,480163.895,8,400,,,
sequence,flow.Sequence,4_106,2023-11-01T17:06:13.266Z,,0,,,3184.4690000119153,completion,,,,,false,,,,480148.59999996424,480148.3000000119,476947.164,476951.6999999881,476963.831,480163.895,8,400,,,
trial,html.Screen,4_107_0,2023-11-01T17:06:16.087Z,,0,3,,2805.9050000119023,response,ISIC_8591425.JPG,5,ISIC_8704668.JPG,ISIC_8704668.JPG,false,0,keypress(z),500,482970,482969.8000000119,480147.228,480148.8000000119,480163.895,482981.138,8,400,8,,ISIC_8591425.JPG
break,html.Screen,4_107_1,2023-11-01T17:06:16.088Z,,0,,,NaN,,,,,,false,,,,482970.6999999881,482970.5,,482970.1999999881,,482981.138,8,400,,,
break_continue,html.Screen,4_107_2,2023-11-01T17:06:16.088Z,,0,,,NaN,,,,,,false,,,,482971.1999999881,482971,,482970.8000000119,,482981.138,8,400,,,
sequence,flow.Sequence,4_107,2023-11-01T17:06:16.088Z,,0,,,2807.1049999999814,completion,,,,,false,,,,482971.3000000119,482971,480147.228,480148.6999999881,480163.895,482981.138,8,400,,,
trial,html.Screen,4_108_0,2023-11-01T17:06:18.682Z,,0,3,,2583.761999976181,response,ISIC_5705973.JPG,7,ISIC_0031221.JPG,ISIC_0031221.JPG,false,0,keypress(z),500,485565.1999999881,485564.89999997616,482964.471,482971.39999997616,482981.138,485581.19,8,400,9,,ISIC_5705973.JPG
break,html.Screen,4_108_1,2023-11-01T17:06:18.683Z,,0,,,NaN,,,,,,false,,,,485565.89999997616,485565.6999999881,,485565.39999997616,,485581.19,8,400,,,
break_continue,html.Screen,4_108_2,2023-11-01T17:06:18.684Z,,0,,,NaN,,,,,,false,,,,485566.3000000119,485566.1999999881,,485566.09999996424,,485581.19,8,400,,,
sequence,flow.Sequence,4_108,2023-11-01T17:06:18.684Z,,0,,,2585.061999988102,completion,,,,,false,,,,485566.5,485566.1999999881,482964.471,482971.39999997616,482981.138,485581.19,8,400,,,
trial,html.Screen,4_109_0,2023-11-01T17:06:22.302Z,,0,3,,3603.409999964235,response,ISIC_0004691.JPG,8,ISIC_0620587.JPG,ISIC_0620587.JPG,false,0,keypress(z),500,489184.89999997616,489184.59999996424,485564.523,485566.6999999881,485581.19,489197.929,8,400,10,,ISIC_0004691.JPG
break,html.Screen,4_109_1,2023-11-01T17:06:22.303Z,,0,,,NaN,,,,,,false,,,,489185.5,489185.39999997616,,489185.09999996424,,489197.929,8,400,,,
break_continue,html.Screen,4_109_2,2023-11-01T17:06:22.303Z,,0,,,NaN,,,,,,false,,,,489186,489185.8000000119,,489185.6999999881,,489197.929,8,400,,,
sequence,flow.Sequence,4_109,2023-11-01T17:06:22.303Z,,0,,,3604.6100000119186,completion,,,,,false,,,,489186.1999999881,489185.8000000119,485564.523,485566.6999999881,485581.19,489197.929,8,400,,,
trial,html.Screen,4_110_0,2023-11-01T17:06:25.625Z,,0,3,,3309.5709999999963,response,ISIC_0339930.JPG,9,ISIC_7575246.JPG,ISIC_7575246.JPG,false,0,keypress(z),500,492507.6999999881,492507.5,489181.262,489186.3000000119,489197.929,492514.662,8,400,11,,ISIC_0339930.JPG
break,html.Screen,4_110_1,2023-11-01T17:06:25.626Z,,0,,,NaN,,,,,,false,,,,492508.5,492508.3000000119,,492508,,492514.662,8,400,,,
break_continue,html.Screen,4_110_2,2023-11-01T17:06:25.626Z,,0,,,NaN,,,,,,false,,,,492508.89999997616,492508.6999999881,,492508.59999996424,,492514.662,8,400,,,
sequence,flow.Sequence,4_110,2023-11-01T17:06:25.627Z,,0,,,3310.7709999880753,completion,,,,,false,,,,492509.09999996424,492508.6999999881,489181.262,489186.1999999881,489197.929,492514.662,8,400,,,
trial,html.Screen,4_111_0,2023-11-01T17:06:28.975Z,,0,3,,3343.037999988068,response,ISIC_2131962.JPG,8,ISIC_5039396.JPG,ISIC_5039396.JPG,false,0,keypress(z),500,495857.89999997616,495857.6999999881,492497.995,492509.3000000119,492514.662,495865.226,8,400,12,,ISIC_2131962.JPG
break,html.Screen,4_111_1,2023-11-01T17:06:28.976Z,,0,,,NaN,,,,,,false,,,,495858.89999997616,495858.59999996424,,495858.09999996424,,495865.226,8,400,,,
break_continue,html.Screen,4_111_2,2023-11-01T17:06:28.977Z,,0,,,NaN,,,,,,false,,,,495859.39999997616,495859.09999996424,,495859,,495865.226,8,400,,,
sequence,flow.Sequence,4_111,2023-11-01T17:06:28.977Z,,0,,,3344.437999964226,completion,,,,,false,,,,495859.5,495859.09999996424,492497.995,492509.1999999881,492514.662,495865.226,8,400,,,
trial,html.Screen,4_112_0,2023-11-01T17:06:33.045Z,,0,3,,4061.773999999976,response,ISIC_2232442.JPG,7,ISIC_0032544.JPG,ISIC_0032544.JPG,false,0,keypress(z),500,499927.1999999881,499927,495848.559,495859.59999996424,495865.226,499931.974,8,400,13,,ISIC_2232442.JPG
break,html.Screen,4_112_1,2023-11-01T17:06:33.046Z,,0,,,NaN,,,,,,false,,,,499927.89999997616,499927.8000000119,,499927.5,,499931.974,8,400,,,
break_continue,html.Screen,4_112_2,2023-11-01T17:06:33.046Z,,0,,,NaN,,,,,,false,,,,499928.3000000119,499928.1999999881,,499928.09999996424,,499931.974,8,400,,,
sequence,flow.Sequence,4_112,2023-11-01T17:06:33.046Z,,0,,,4062.973999988055,completion,,,,,false,,,,499928.5,499928.1999999881,495848.559,495859.59999996424,495865.226,499931.974,8,400,,,
trial,html.Screen,4_113_0,2023-11-01T17:06:37.048Z,,0,3,,3998.3260000119335,response,ISIC_0026560.JPG,7,ISIC_7413149.JPG,ISIC_7413149.JPG,false,0,keypress(z),500,503930.59999996424,503930.3000000119,499915.307,499928.6999999881,499931.974,503932.579,8,400,14,,ISIC_0026560.JPG
break,html.Screen,4_113_1,2023-11-01T17:06:37.049Z,,0,,,NaN,,,,,,false,,,,503931.5,503931.3000000119,,503931,,503932.579,8,400,,,
break_continue,html.Screen,4_113_2,2023-11-01T17:06:37.050Z,,0,,,NaN,,,,,,false,,,,503932.09999996424,503931.8000000119,,503931.6999999881,,503932.579,8,400,,,
sequence,flow.Sequence,4_113,2023-11-01T17:06:37.050Z,,0,,,3999.8260000119335,completion,,,,,false,,,,503932.1999999881,503931.8000000119,499915.307,499928.6999999881,499931.974,503932.579,8,400,,,
trial,html.Screen,4_114_0,2023-11-01T17:06:40.364Z,,0,3,,3313.620999988052,response,ISIC_4231346.JPG,9,ISIC_0031674.JPG,ISIC_0031674.JPG,false,0,keypress(z),500,507246.39999997616,507246.1999999881,503915.912,503932.39999997616,503932.579,507249.312,8,400,15,,ISIC_4231346.JPG
break,html.Screen,4_114_1,2023-11-01T17:06:40.365Z,,0,,,NaN,,,,,,false,,,,507247.1999999881,507247,,507246.59999996424,,507249.312,8,400,,,
break_continue,html.Screen,4_114_2,2023-11-01T17:06:40.365Z,,0,,,NaN,,,,,,false,,,,507247.6999999881,507247.5,,507247.3000000119,,507249.312,8,400,,,
sequence,flow.Sequence,4_114,2023-11-01T17:06:40.366Z,,0,,,3314.920999999973,completion,,,,,false,,,,507247.8000000119,507247.5,503915.912,503932.3000000119,503932.579,507249.312,8,400,,,
trial,html.Screen,4_115_0,2023-11-01T17:06:43.121Z,,0,3,,2753.287999964261,response,ISIC_0013652.JPG,8,ISIC_3786438.JPG,ISIC_0013652.JPG,false,1,keypress(m),500,510002.6999999881,510002.59999996424,507232.645,507248,507249.312,510016.034,8,400,16,,ISIC_3786438.JPG
break,html.Screen,4_115_1,2023-11-01T17:06:43.121Z,,0,,,NaN,,,,,,false,,,,510003.59999996424,510003.3000000119,,510003,,510016.034,8,400,,,
break_continue,html.Screen,4_115_2,2023-11-01T17:06:43.122Z,,0,,,NaN,,,,,,false,,,,510004,510003.8000000119,,510003.6999999881,,510016.034,8,400,,,
sequence,flow.Sequence,4_115,2023-11-01T17:06:43.122Z,,0,,,2754.4880000119447,completion,,,,,false,,,,510004.09999996424,510003.8000000119,507232.645,507247.89999997616,507249.312,510016.034,8,400,,,
trial,html.Screen,4_116_0,2023-11-01T17:06:46.905Z,,0,3,,3770.766000011936,response,ISIC_0489267.JPG,8,ISIC_0015136.JPG,ISIC_0015136.JPG,false,0,keypress(z),500,513787.09999996424,513786.8000000119,509999.367,510004.3000000119,510016.034,513816.595,8,400,17,,ISIC_0489267.JPG
break,html.Screen,4_116_1,2023-11-01T17:06:46.906Z,,0,,,NaN,,,,,,false,,,,513787.8000000119,513787.59999996424,,513787.3000000119,,513816.595,8,400,,,
break_continue,html.Screen,4_116_2,2023-11-01T17:06:46.906Z,,0,,,NaN,,,,,,false,,,,513788.1999999881,513788,,513787.8000000119,,513816.595,8,400,,,
sequence,flow.Sequence,4_116,2023-11-01T17:06:46.906Z,,0,,,3771.966000000015,completion,,,,,false,,,,513788.39999997616,513788,509999.367,510004.3000000119,510016.034,513816.595,8,400,,,
trial,html.Screen,4_117_0,2023-11-01T17:06:49.601Z,,0,3,,2666.205000011949,response,ISIC_7888672.JPG,9,ISIC_0069635.JPG,ISIC_0069635.JPG,false,0,keypress(z),500,516483.09999996424,516482.8000000119,513799.443,513788.5,513816.595,516499.982,8,400,18,,ISIC_7888672.JPG
break,html.Screen,4_117_1,2023-11-01T17:06:49.602Z,,0,,,NaN,,,,,,false,,,,516483.89999997616,516483.59999996424,,516483.3000000119,,516499.982,8,400,,,
break_continue,html.Screen,4_117_2,2023-11-01T17:06:49.602Z,,0,,,NaN,,,,,,false,,,,516484.39999997616,516484.3000000119,,516484.09999996424,,516499.982,8,400,,,
sequence,flow.Sequence,4_117,2023-11-01T17:06:49.603Z,,0,,,2667.705000011949,completion,,,,,false,,,,516484.59999996424,516484.3000000119,513799.443,513788.5,513816.595,516499.982,8,400,,,
trial,html.Screen,4_118_0,2023-11-01T17:06:52.263Z,,0,3,,2644.8180000119028,response,ISIC_4348994.JPG,7,ISIC_0014103.JPG,ISIC_0014103.JPG,false,0,keypress(z),500,519145.09999996424,519144.8000000119,516483.315,516484.6999999881,516499.982,519150.035,8,400,19,,ISIC_4348994.JPG
break,html.Screen,4_118_1,2023-11-01T17:06:52.264Z,,0,,,NaN,,,,,,false,,,,519145.8000000119,519145.6999999881,,519145.3000000119,,519150.035,8,400,,,
break_continue,html.Screen,4_118_2,2023-11-01T17:06:52.264Z,,0,,,NaN,,,,,,false,,,,519146.3000000119,519146,,519145.89999997616,,519150.035,8,400,,,
sequence,flow.Sequence,4_118,2023-11-01T17:06:52.265Z,,0,,,2646.017999999982,completion,,,,,false,,,,519146.59999996424,519146,516483.315,516484.6999999881,516499.982,519150.035,8,400,,,
trial,html.Screen,4_119_0,2023-11-01T17:06:56.418Z,,0,3,,4149.364999976184,response,ISIC_0025489.JPG,7,ISIC_0053801.JPG,ISIC_0025489.JPG,false,1,keypress(m),500,523299.6999999881,523299.39999997616,519133.368,519146.8000000119,519150.035,523316.785,8,400,20,,ISIC_0053801.JPG
break,html.Screen,4_119_1,2023-11-01T17:06:56.419Z,,0,,,NaN,,,,,,false,,,,523300.5,523300.1999999881,,523300,,523316.785,8,400,,,
break_continue,html.Screen,4_119_2,2023-11-01T17:06:56.419Z,,0,,,NaN,,,,,,false,,,,523300.89999997616,523300.6999999881,,523300.59999996424,,523316.785,8,400,,,
sequence,flow.Sequence,4_119,2023-11-01T17:06:56.419Z,,0,,,4150.664999988105,completion,,,,,false,,,,523301.09999996424,523300.6999999881,519133.368,519146.6999999881,519150.035,523316.785,8,400,,,
trial,html.Screen,4_120_0,2023-11-01T17:06:59.078Z,,0,3,,2642.5150000119465,response,ISIC_5688950.JPG,5,ISIC_5510604.JPG,ISIC_5510604.JPG,false,0,keypress(z),500,525959.6999999881,525959.3000000119,523300.118,523301.1999999881,523316.785,525967.351,8,400,21,,ISIC_5688950.JPG
break,html.Screen,4_120_1,2023-11-01T17:06:59.079Z,,0,,,NaN,,,,,,false,,,,525960.3999999762,525960.1999999881,,525959.8000000119,,525967.351,8,400,,,
break_continue,html.Screen,4_120_2,2023-11-01T17:06:59.079Z,,0,,,NaN,,,,,,false,,,,525960.8999999762,525960.6999999881,,525960.5,,525967.351,8,400,,,
sequence,flow.Sequence,4_120,2023-11-01T17:06:59.079Z,,0,,,2643.9149999881047,completion,,,,,false,,,,525961,525960.6999999881,523300.118,523301.1999999881,523316.785,525967.351,8,400,,,
trial,html.Screen,4_121_0,2023-11-01T17:07:02.714Z,,0,3,,3628.048999976134,response,ISIC_0072335.JPG,8,ISIC_0185918.JPG,ISIC_0072335.JPG,false,1,keypress(m),500,529595.5999999642,529595.3999999762,525950.684,525961.0999999642,525967.351,529600.757,8,400,22,,ISIC_0185918.JPG
break,html.Screen,4_121_1,2023-11-01T17:07:02.715Z,,0,,,NaN,,,,,,false,,,,529596.1999999881,529596.0999999642,,529595.8000000119,,529600.757,8,400,,,
break_continue,html.Screen,4_121_2,2023-11-01T17:07:02.715Z,,0,,,NaN,,,,,,false,,,,529596.6999999881,529596.5,,529596.3999999762,,529600.757,8,400,,,
sequence,flow.Sequence,4_121,2023-11-01T17:07:02.715Z,,0,,,3629.148999999976,completion,,,,,false,,,,529596.8000000119,529596.5,525950.684,525961.0999999642,525967.351,529600.757,8,400,,,
trial,html.Screen,4_122_0,2023-11-01T17:07:06.157Z,,0,3,,3437.842999964254,response,ISIC_8636706.JPG,8,ISIC_0010393.JPG,ISIC_0010393.JPG,false,0,keypress(z),500,533038.8999999762,533038.5999999642,529584.09,529597,529600.757,533050.826,8,400,23,,ISIC_8636706.JPG
break,html.Screen,4_122_1,2023-11-01T17:07:06.158Z,,0,,,NaN,,,,,,false,,,,533039.5999999642,533039.3999999762,,533039.0999999642,,533050.826,8,400,,,
break_continue,html.Screen,4_122_2,2023-11-01T17:07:06.159Z,,0,,,NaN,,,,,,false,,,,533040,533039.8999999762,,533039.6999999881,,533050.826,8,400,,,
sequence,flow.Sequence,4_122,2023-11-01T17:07:06.159Z,,0,,,3439.142999976175,completion,,,,,false,,,,533040.0999999642,533039.8999999762,529584.09,529597,529600.757,533050.826,8,400,,,
trial,html.Screen,4_123_0,2023-11-01T17:07:09.972Z,,0,3,,3801.7739999642363,response,ISIC_5457889.JPG,7,ISIC_5022895.JPG,ISIC_5022895.JPG,false,0,keypress(z),500,536852.8000000119,536852.5999999642,533034.159,533040.3000000119,533050.826,536868.006,8,400,24,,ISIC_5457889.JPG
break,html.Screen,4_123_1,2023-11-01T17:07:09.972Z,,0,,,NaN,,,,,,false,,,,536853.5,536853.3999999762,,536853,,536868.006,8,400,,,
break_continue,html.Screen,4_123_2,2023-11-01T17:07:09.973Z,,0,,,NaN,,,,,,false,,,,536853.8999999762,536853.8000000119,,536853.6999999881,,536868.006,8,400,,,
sequence,flow.Sequence,4_123,2023-11-01T17:07:09.973Z,,0,,,3802.97400001192,completion,,,,,false,,,,536854.0999999642,536853.8000000119,533034.159,533040.1999999881,533050.826,536868.006,8,400,,,
trial,html.Screen,4_124_0,2023-11-01T17:07:16.042Z,,0,3,,6055.093999964185,response,ISIC_0080817.JPG,7,ISIC_1306020.JPG,ISIC_0080817.JPG,false,1,keypress(m),500,542923.3000000119,542923.0999999642,536851.339,536854.1999999881,536868.006,542951.461,8,400,25,,ISIC_1306020.JPG
break,html.Screen,4_124_1,2023-11-01T17:07:16.043Z,,0,,,NaN,,,,,,false,,,,542924.0999999642,542923.8999999762,,542923.5999999642,,542951.461,8,400,,,
break_continue,html.Screen,4_124_2,2023-11-01T17:07:16.043Z,,0,,,NaN,,,,,,false,,,,542924.5,542924.3000000119,,542924.0999999642,,542951.461,8,400,,,
sequence,flow.Sequence,4_124,2023-11-01T17:07:16.044Z,,0,,,6056.294000011869,completion,,,,,false,,,,542924.5999999642,542924.3000000119,536851.339,536854.1999999881,536868.006,542951.461,8,400,,,
trial,html.Screen,4_125_0,2023-11-01T17:07:19.405Z,,0,3,,3334.738999988069,response,ISIC_0057617.JPG,9,ISIC_1308081.JPG,ISIC_0057617.JPG,false,1,keypress(m),500,546286.3999999762,546286.1999999881,542934.794,542924.6999999881,542951.461,546302.093,8,400,26,,ISIC_1308081.JPG
break,html.Screen,4_125_1,2023-11-01T17:07:19.406Z,,0,,,NaN,,,,,,false,,,,546287.1999999881,546287,,546286.5999999642,,546302.093,8,400,,,
