sender,sender_type,sender_id,timestamp,meta,,blockNo,condition,duration,ended_on,img_left,img_reveal,img_right,loser,practice,response,response_action,selection_duration,time_commit,time_end,time_render,time_run,time_show,time_switch,total_blocks,total_trials,trialNo,url,winner
informed_consent,html.Screen,0,2023-05-02T15:57:58.177Z,"{""labjs_version"":""20.2.4"",""labjs_build"":{""flavor"":""production"",""commit"":""f5b4a49f956347addd546a832a3327688c2c0fef""},""location"":""https://run.pavlovia.org/MurrayBennett/melanoma-2afc/?participant=64735"",""userAgent"":""Mozilla/5.0 (Macintosh; Intel Mac OS X 10_15_7) AppleWebKit/605.1.15 (KHTML, like Gecko) Version/15.3 Safari/605.1.15"",""platform"":""MacIntel"",""language"":""en-US"",""locale"":""en-US"",""timeZone"":""America/Chicago"",""timezoneOffset"":300,""screen_width"":1440,""screen_height"":900,""scroll_width"":1440,""scroll_height"":772,""window_innerWidth"":1440,""window_innerHeight"":820,""devicePixelRatio"":2}",,,,2941,response,,,,,,consent,click button,,6235,6263,3322,3319,3344,6299,,,,"{""participant"":""64735""}",
Welcome,html.Screen,1,2023-05-02T15:57:59.412Z,,,,irregular,1231,response,,,,,,continue,click button,,7470,7496,6265,6236,6299,7516,,,,,
trial,html.Screen,2_0_0,2023-05-02T15:58:07.988Z,,0,0,,8564,response,ISIC_0061792.JPG,,ISIC_4679428.JPG,ISIC_0061792.JPG,true,1,keypress(m),500,16047,16046,7482,7471,7516,16099,1,6,1,,ISIC_4679428.JPG
sequence,flow.Sequence,2_0,2023-05-02T15:58:07.989Z,,0,,,8530,completion,,,,,true,,,,16048.000000000002,16046,7482,7471,7516,16099,1,6,,,
trial,html.Screen,2_1_0,2023-05-02T15:58:13.101Z,,0,0,,5094,response,ISIC_0776486.JPG,,ISIC_5199497.JPG,ISIC_5199497.JPG,true,0,keypress(z),500,21161,21160,16066,16048.000000000002,16099,21200,1,6,2,,ISIC_0776486.JPG
sequence,flow.Sequence,2_1,2023-05-02T15:58:13.102Z,,0,,,5061,completion,,,,,true,,,,21161,21160,16066,16048.000000000002,16099,21200,1,6,,,
trial,html.Screen,2_2_0,2023-05-02T15:58:19.923Z,,0,0,,6816,response,ISIC_2556187.JPG,,ISIC_8575776.JPG,ISIC_8575776.JPG,true,0,keypress(z),500,27982,27982,21166,21162,21200,28033,1,6,3,,ISIC_2556187.JPG
sequence,flow.Sequence,2_2,2023-05-02T15:58:19.923Z,,0,,,6782,completion,,,,,true,,,,27983,27982,21166,21162,21200,28033,1,6,,,
trial,html.Screen,2_3_0,2023-05-02T15:58:23.314Z,,0,0,,3373,response,ISIC_8141769.JPG,,ISIC_9238366.JPG,ISIC_9238366.JPG,true,0,keypress(z),500,31374.000000000004,31373,28000,27983,28033,31417,1,6,4,,ISIC_8141769.JPG
sequence,flow.Sequence,2_3,2023-05-02T15:58:23.314Z,,0,,,3340,completion,,,,,true,,,,31374.000000000004,31373,28000,27983,28033,31417,1,6,,,
trial,html.Screen,2_4_0,2023-05-02T15:58:26.650Z,,0,0,,3325,response,ISIC_8949026.JPG,,ISIC_9959593.JPG,ISIC_8949026.JPG,true,1,keypress(m),500,34710,34709,31384,31374.000000000004,31417,34750,1,6,5,,ISIC_9959593.JPG
sequence,flow.Sequence,2_4,2023-05-02T15:58:26.650Z,,0,,,3292,completion,,,,,true,,,,34710,34709,31384,31374.000000000004,31417,34750,1,6,,,
trial,html.Screen,2_5_0,2023-05-02T15:58:29.790Z,,0,0,,3134,response,ISIC_0010479.JPG,,ISIC_0460240.JPG,ISIC_0460240.JPG,true,0,keypress(z),500,37851,37850,34716,34710,34750,37901,1,6,6,,ISIC_0010479.JPG
sequence,flow.Sequence,2_5,2023-05-02T15:58:29.791Z,,0,,,3100,completion,,,,,true,,,,37851,37850,34716,34710,34750,37901,1,6,,,
loop,flow.Loop,2,2023-05-02T15:58:29.791Z,,,,,30334,completion,,,,,true,,,,37852.00000000001,37850,7482,7471,7516,37901,1,6,,,
exp_instructions,html.Screen,3,2023-05-02T15:58:32.440Z,,,,,2660,response,,,,,,continue,keypress(Space),,40500,40527,37867,37852.00000000001,37901,40551,,,,,
trial,html.Screen,4_0_0,2023-05-02T15:58:35.819Z,,0,1,,3362,response,ISIC_0189694.JPG,,ISIC_0032823.JPG,ISIC_0189694.JPG,false,1,keypress(m),500,43879,43879,40517,40501,40551,43934,8,400,1,,ISIC_0032823.JPG
break,html.Screen,4_0_1,2023-05-02T15:58:35.820Z,,0,,,NaN,,,,,,false,,,,43881,43881,,43880,,43934,8,400,,,
break_continue,html.Screen,4_0_2,2023-05-02T15:58:35.821Z,,0,,,NaN,,,,,,false,,,,43881,43881,,43881,,43934,8,400,,,
sequence,flow.Sequence,4_0,2023-05-02T15:58:35.821Z,,0,,,3330,completion,,,,,false,,,,43882,43881,40517,40501,40551,43934,8,400,,,
trial,html.Screen,4_1_0,2023-05-02T15:58:40.248Z,,0,1,,4407,response,ISIC_2076902.JPG,,ISIC_0597218.JPG,ISIC_0597218.JPG,false,0,keypress(z),500,48309,48308,43901,43882,43934,48351,8,400,2,,ISIC_2076902.JPG
break,html.Screen,4_1_1,2023-05-02T15:58:40.249Z,,0,,,NaN,,,,,,false,,,,48310,48310,,48309,,48351,8,400,,,
break_continue,html.Screen,4_1_2,2023-05-02T15:58:40.250Z,,0,,,NaN,,,,,,false,,,,48311,48310,,48310,,48351,8,400,,,
sequence,flow.Sequence,4_1,2023-05-02T15:58:40.250Z,,0,,,4376,completion,,,,,false,,,,48311,48310,43901,43882,43934,48351,8,400,,,
trial,html.Screen,4_2_0,2023-05-02T15:58:43.739Z,,0,1,,3481,response,ISIC_2524005.JPG,,ISIC_3459981.JPG,ISIC_3459981.JPG,false,0,keypress(z),500,51800.00000000001,51799,48318,48311,48351,51851,8,400,3,,ISIC_2524005.JPG
break,html.Screen,4_2_1,2023-05-02T15:58:43.740Z,,0,,,NaN,,,,,,false,,,,51801,51801,,51801,,51851,8,400,,,
break_continue,html.Screen,4_2_2,2023-05-02T15:58:43.741Z,,0,,,NaN,,,,,,false,,,,51802,51802,,51801,,51851,8,400,,,
sequence,flow.Sequence,4_2,2023-05-02T15:58:43.741Z,,0,,,3451,completion,,,,,false,,,,51802,51802,48318,48311,48351,51851,8,400,,,
trial,html.Screen,4_3_0,2023-05-02T15:58:47.063Z,,0,1,,3305.0000000000073,response,ISIC_7738955.JPG,,ISIC_8287726.JPG,ISIC_8287726.JPG,false,0,keypress(z),500,55124,55123.00000000001,51818,51802,51851,55167,8,400,4,,ISIC_7738955.JPG
break,html.Screen,4_3_1,2023-05-02T15:58:47.064Z,,0,,,NaN,,,,,,false,,,,55125,55125,,55124,,55167,8,400,,,
break_continue,html.Screen,4_3_2,2023-05-02T15:58:47.064Z,,0,,,NaN,,,,,,false,,,,55125,55125,,55125,,55167,8,400,,,
sequence,flow.Sequence,4_3,2023-05-02T15:58:47.064Z,,0,,,3274,completion,,,,,false,,,,55126,55125,51818,51802,51851,55167,8,400,,,
trial,html.Screen,4_4_0,2023-05-02T15:58:51.136Z,,0,1,,4062,response,ISIC_0062208.JPG,,ISIC_0064298.JPG,ISIC_0064298.JPG,false,0,keypress(z),500,59198,59197,55135,55126,55167,59252,8,400,5,,ISIC_0062208.JPG
break,html.Screen,4_4_1,2023-05-02T15:58:51.138Z,,0,,,NaN,,,,,,false,,,,59199,59199,,59198,,59252,8,400,,,
break_continue,html.Screen,4_4_2,2023-05-02T15:58:51.139Z,,0,,,NaN,,,,,,false,,,,59200,59200,,59200,,59252,8,400,,,
sequence,flow.Sequence,4_4,2023-05-02T15:58:51.139Z,,0,,,4033,completion,,,,,false,,,,59200,59200,55135,55126,55167,59252,8,400,,,
trial,html.Screen,4_5_0,2023-05-02T15:58:54.772Z,,0,1,,3615,response,ISIC_4231346.JPG,,ISIC_2067576.JPG,ISIC_4231346.JPG,false,1,keypress(m),500,62834,62833,59218,59200,59252,62885,8,400,6,,ISIC_2067576.JPG
break,html.Screen,4_5_1,2023-05-02T15:58:54.773Z,,0,,,NaN,,,,,,false,,,,62835,62835,,62834,,62885,8,400,,,
break_continue,html.Screen,4_5_2,2023-05-02T15:58:54.774Z,,0,,,NaN,,,,,,false,,,,62836,62835,,62835,,62885,8,400,,,
sequence,flow.Sequence,4_5,2023-05-02T15:58:54.774Z,,0,,,3583,completion,,,,,false,,,,62836,62835,59218,59200,59252,62885,8,400,,,
trial,html.Screen,4_6_0,2023-05-02T15:58:57.928Z,,0,1,,3137,response,ISIC_0055179.JPG,,ISIC_2021321.JPG,ISIC_2021321.JPG,false,0,keypress(z),500,65990,65989,62852,62836,62885,66035,8,400,7,,ISIC_0055179.JPG
break,html.Screen,4_6_1,2023-05-02T15:58:57.929Z,,0,,,NaN,,,,,,false,,,,65991,65991,,65990,,66035,8,400,,,
break_continue,html.Screen,4_6_2,2023-05-02T15:58:57.930Z,,0,,,NaN,,,,,,false,,,,65991,65991,,65991,,66035,8,400,,,
sequence,flow.Sequence,4_6,2023-05-02T15:58:57.930Z,,0,,,3106,completion,,,,,false,,,,65992,65991,62852,62836,62885,66035,8,400,,,
trial,html.Screen,4_7_0,2023-05-02T15:59:00.891Z,,0,1,,2951,response,ISIC_0067226.JPG,,ISIC_0030828.JPG,ISIC_0030828.JPG,false,0,keypress(z),500,68953,68953,66002,65992,66035,69002,8,400,8,,ISIC_0067226.JPG
break,html.Screen,4_7_1,2023-05-02T15:59:00.892Z,,0,,,NaN,,,,,,false,,,,68955,68954.00000000001,,68954.00000000001,,69002,8,400,,,
break_continue,html.Screen,4_7_2,2023-05-02T15:59:00.893Z,,0,,,NaN,,,,,,false,,,,68955,68955,,68955,,69002,8,400,,,
sequence,flow.Sequence,4_7,2023-05-02T15:59:00.893Z,,0,,,2920,completion,,,,,false,,,,68955,68955,66002,65992,66035,69002,8,400,,,
trial,html.Screen,4_8_0,2023-05-02T15:59:03.741Z,,0,1,,2833,response,ISIC_0027836.JPG,,ISIC_5223280.JPG,ISIC_0027836.JPG,false,1,keypress(m),500,71803,71802,68969,68956,69002,71852,8,400,9,,ISIC_5223280.JPG
break,html.Screen,4_8_1,2023-05-02T15:59:03.742Z,,0,,,NaN,,,,,,false,,,,71804,71804,,71803,,71852,8,400,,,
break_continue,html.Screen,4_8_2,2023-05-02T15:59:03.742Z,,0,,,NaN,,,,,,false,,,,71804,71804,,71804,,71852,8,400,,,
sequence,flow.Sequence,4_8,2023-05-02T15:59:03.742Z,,0,,,2802,completion,,,,,false,,,,71805,71804,68969,68955,69002,71852,8,400,,,
trial,html.Screen,4_9_0,2023-05-02T15:59:06.873Z,,0,1,,3116,response,ISIC_9052604.JPG,,ISIC_0010630.JPG,ISIC_9052604.JPG,false,1,keypress(m),500,74936,74935,71819,71805,71852,74986,8,400,10,,ISIC_0010630.JPG
break,html.Screen,4_9_1,2023-05-02T15:59:06.875Z,,0,,,NaN,,,,,,false,,,,74937,74937,,74936,,74986,8,400,,,
break_continue,html.Screen,4_9_2,2023-05-02T15:59:06.875Z,,0,,,NaN,,,,,,false,,,,74938,74937,,74937,,74986,8,400,,,
sequence,flow.Sequence,4_9,2023-05-02T15:59:06.875Z,,0,,,3085,completion,,,,,false,,,,74938,74937,71819,71805,71852,74986,8,400,,,
trial,html.Screen,4_10_0,2023-05-02T15:59:10.684Z,,0,1,,3793,response,ISIC_7575815.JPG,,ISIC_4014307.JPG,ISIC_4014307.JPG,false,0,keypress(z),500,78747,78746,74953,74938,74986,78785,8,400,11,,ISIC_7575815.JPG
break,html.Screen,4_10_1,2023-05-02T15:59:10.685Z,,0,,,NaN,,,,,,false,,,,78748,78748,,78747,,78785,8,400,,,
break_continue,html.Screen,4_10_2,2023-05-02T15:59:10.686Z,,0,,,NaN,,,,,,false,,,,78748,78748,,78748,,78785,8,400,,,
sequence,flow.Sequence,4_10,2023-05-02T15:59:10.686Z,,0,,,3762,completion,,,,,false,,,,78748,78748,74953,74938,74986,78785,8,400,,,
trial,html.Screen,4_11_0,2023-05-02T15:59:13.539Z,,0,1,,2849,response,ISIC_9765024.JPG,,ISIC_0283506.JPG,ISIC_0283506.JPG,false,0,keypress(z),500,81602,81601,78752,78749,78785,81653,8,400,12,,ISIC_9765024.JPG
break,html.Screen,4_11_1,2023-05-02T15:59:13.540Z,,0,,,NaN,,,,,,false,,,,81603.00000000001,81603.00000000001,,81602,,81653,8,400,,,
break_continue,html.Screen,4_11_2,2023-05-02T15:59:13.541Z,,0,,,NaN,,,,,,false,,,,81604,81604,,81604,,81653,8,400,,,
sequence,flow.Sequence,4_11,2023-05-02T15:59:13.541Z,,0,,,2819,completion,,,,,false,,,,81604,81604,78752,78749,78785,81653,8,400,,,
trial,html.Screen,4_12_0,2023-05-02T15:59:16.338Z,,0,1,,2781,response,ISIC_0028847.JPG,,ISIC_1733794.JPG,ISIC_1733794.JPG,false,0,keypress(z),500,84401,84401,81620,81604,81653,84453,8,400,13,,ISIC_0028847.JPG
break,html.Screen,4_12_1,2023-05-02T15:59:16.339Z,,0,,,NaN,,,,,,false,,,,84402,84402,,84402,,84453,8,400,,,
break_continue,html.Screen,4_12_2,2023-05-02T15:59:16.340Z,,0,,,NaN,,,,,,false,,,,84403,84403,,84402,,84453,8,400,,,
sequence,flow.Sequence,4_12,2023-05-02T15:59:16.340Z,,0,,,2750,completion,,,,,false,,,,84403,84403,81620,81604,81653,84453,8,400,,,
trial,html.Screen,4_13_0,2023-05-02T15:59:19.406Z,,0,1,,3048,response,ISIC_0000814.JPG,,ISIC_0033561.JPG,ISIC_0000814.JPG,false,1,keypress(m),500,87469.00000000001,87468,84420,84403,84453,87520,8,400,14,,ISIC_0033561.JPG
break,html.Screen,4_13_1,2023-05-02T15:59:19.407Z,,0,,,NaN,,,,,,false,,,,87470,87470,,87469.00000000001,,87520,8,400,,,
break_continue,html.Screen,4_13_2,2023-05-02T15:59:19.408Z,,0,,,NaN,,,,,,false,,,,87471,87471,,87470,,87520,8,400,,,
sequence,flow.Sequence,4_13,2023-05-02T15:59:19.408Z,,0,,,3018,completion,,,,,false,,,,87471,87471,84420,84403,84453,87520,8,400,,,
trial,html.Screen,4_14_0,2023-05-02T15:59:23.282Z,,0,1,,3857.0000000000146,response,ISIC_0033640.JPG,,ISIC_6981061.JPG,ISIC_6981061.JPG,false,0,keypress(z),500,91345,91344.00000000001,87487,87471,87520,91387,8,400,15,,ISIC_0033640.JPG
break,html.Screen,4_14_1,2023-05-02T15:59:23.283Z,,0,,,NaN,,,,,,false,,,,91346,91346,,91345,,91387,8,400,,,
break_continue,html.Screen,4_14_2,2023-05-02T15:59:23.283Z,,0,,,NaN,,,,,,false,,,,91347.00000000001,91347.00000000001,,91346,,91387,8,400,,,
sequence,flow.Sequence,4_14,2023-05-02T15:59:23.284Z,,0,,,3827.0000000000146,completion,,,,,false,,,,91347.00000000001,91347.00000000001,87487,87471,87520,91387,8,400,,,
trial,html.Screen,4_15_0,2023-05-02T15:59:26.136Z,,0,1,,2845.0000000000146,response,ISIC_0031883.JPG,,ISIC_0069558.JPG,ISIC_0031883.JPG,false,1,keypress(m),500,94199,94198.00000000001,91353,91347.00000000001,91387,94254,8,400,16,,ISIC_0069558.JPG
break,html.Screen,4_15_1,2023-05-02T15:59:26.137Z,,0,,,NaN,,,,,,false,,,,94200,94200,,94199,,94254,8,400,,,
break_continue,html.Screen,4_15_2,2023-05-02T15:59:26.137Z,,0,,,NaN,,,,,,false,,,,94201.00000000001,94200,,94200,,94254,8,400,,,
sequence,flow.Sequence,4_15,2023-05-02T15:59:26.137Z,,0,,,2813,completion,,,,,false,,,,94201.00000000001,94200,91353,91347.00000000001,91387,94254,8,400,,,
trial,html.Screen,4_16_0,2023-05-02T15:59:28.791Z,,0,1,,2634,response,ISIC_9566964.JPG,,ISIC_7373074.JPG,ISIC_9566964.JPG,false,1,keypress(m),500,96855,96854,94220,94201.00000000001,94254,96904,8,400,17,,ISIC_7373074.JPG
break,html.Screen,4_16_1,2023-05-02T15:59:28.792Z,,0,,,NaN,,,,,,false,,,,96856.00000000001,96856.00000000001,,96855,,96904,8,400,,,
break_continue,html.Screen,4_16_2,2023-05-02T15:59:28.793Z,,0,,,NaN,,,,,,false,,,,96856.00000000001,96856.00000000001,,96856.00000000001,,96904,8,400,,,
sequence,flow.Sequence,4_16,2023-05-02T15:59:28.793Z,,0,,,2602.0000000000146,completion,,,,,false,,,,96857,96856.00000000001,94220,94201.00000000001,94254,96904,8,400,,,
trial,html.Screen,4_17_0,2023-05-02T15:59:31.623Z,,0,1,,2817,response,ISIC_8248922.JPG,,ISIC_6715897.JPG,ISIC_6715897.JPG,false,0,keypress(z),500,99687,99687,96870,96857,96904,99737,8,400,18,,ISIC_8248922.JPG
break,html.Screen,4_17_1,2023-05-02T15:59:31.624Z,,0,,,NaN,,,,,,false,,,,99688,99688,,99688,,99737,8,400,,,
break_continue,html.Screen,4_17_2,2023-05-02T15:59:31.625Z,,0,,,NaN,,,,,,false,,,,99689,99689,,99689,,99737,8,400,,,
sequence,flow.Sequence,4_17,2023-05-02T15:59:31.625Z,,0,,,2785,completion,,,,,false,,,,99689,99689,96870,96857,96904,99737,8,400,,,
trial,html.Screen,4_18_0,2023-05-02T15:59:34.850Z,,0,1,,3210,response,ISIC_0046985.JPG,,ISIC_0002295.JPG,ISIC_0002295.JPG,false,0,keypress(z),500,102914,102914,99704,99690,99737,102954,8,400,19,,ISIC_0046985.JPG
break,html.Screen,4_18_1,2023-05-02T15:59:34.851Z,,0,,,NaN,,,,,,false,,,,102916,102915,,102915,,102954,8,400,,,
break_continue,html.Screen,4_18_2,2023-05-02T15:59:34.852Z,,0,,,NaN,,,,,,false,,,,102916,102916,,102916,,102954,8,400,,,
sequence,flow.Sequence,4_18,2023-05-02T15:59:34.852Z,,0,,,3179,completion,,,,,false,,,,102916,102916,99704,99689,99737,102954,8,400,,,
trial,html.Screen,4_19_0,2023-05-02T15:59:37.670Z,,0,1,,2814.0000000000146,response,ISIC_1091626.JPG,,ISIC_0054341.JPG,ISIC_1091626.JPG,false,1,keypress(m),500,105734.00000000001,105734.00000000001,102920,102916,102954,105788,8,400,20,,ISIC_0054341.JPG
break,html.Screen,4_19_1,2023-05-02T15:59:37.670Z,,0,,,NaN,,,,,,false,,,,105735,105734.00000000001,,105734.00000000001,,105788,8,400,,,
break_continue,html.Screen,4_19_2,2023-05-02T15:59:37.670Z,,0,,,NaN,,,,,,false,,,,105735,105735,,105735,,105788,8,400,,,
sequence,flow.Sequence,4_19,2023-05-02T15:59:37.671Z,,0,,,2781,completion,,,,,false,,,,105735,105735,102920,102916,102954,105788,8,400,,,
trial,html.Screen,4_20_0,2023-05-02T15:59:40.531Z,,0,1,,2841,response,ISIC_0998962.JPG,,ISIC_0069970.JPG,ISIC_0998962.JPG,false,1,keypress(m),500,108596,108595,105754,105735,105788,108638,8,400,21,,ISIC_0069970.JPG
break,html.Screen,4_20_1,2023-05-02T15:59:40.532Z,,0,,,NaN,,,,,,false,,,,108597.00000000001,108596,,108596,,108638,8,400,,,
break_continue,html.Screen,4_20_2,2023-05-02T15:59:40.533Z,,0,,,NaN,,,,,,false,,,,108597.00000000001,108597.00000000001,,108597.00000000001,,108638,8,400,,,
sequence,flow.Sequence,4_20,2023-05-02T15:59:40.533Z,,0,,,2809.0000000000146,completion,,,,,false,,,,108597.00000000001,108597.00000000001,105754,105735,105788,108638,8,400,,,
trial,html.Screen,4_21_0,2023-05-02T15:59:43.547Z,,0,1,,3007,response,ISIC_0046596.JPG,,ISIC_0007501.JPG,ISIC_0007501.JPG,false,0,keypress(z),500,111612.00000000001,111611,108604,108597.00000000001,108638,111654,8,400,22,,ISIC_0046596.JPG
break,html.Screen,4_21_1,2023-05-02T15:59:43.549Z,,0,,,NaN,,,,,,false,,,,111613,111613,,111612.00000000001,,111654,8,400,,,
break_continue,html.Screen,4_21_2,2023-05-02T15:59:43.549Z,,0,,,NaN,,,,,,false,,,,111613,111613,,111613,,111654,8,400,,,
sequence,flow.Sequence,4_21,2023-05-02T15:59:43.549Z,,0,,,2975,completion,,,,,false,,,,111614,111613,108604,108597.00000000001,108638,111654,8,400,,,
trial,html.Screen,4_22_0,2023-05-02T15:59:46.623Z,,0,1,,3066,response,ISIC_0016013.JPG,,ISIC_0014151.JPG,ISIC_0016013.JPG,false,1,keypress(m),500,114688,114687,111621,111614,111654,114738,8,400,23,,ISIC_0014151.JPG
break,html.Screen,4_22_1,2023-05-02T15:59:46.624Z,,0,,,NaN,,,,,,false,,,,114689,114688,,114688,,114738,8,400,,,
break_continue,html.Screen,4_22_2,2023-05-02T15:59:46.624Z,,0,,,NaN,,,,,,false,,,,114689,114689,,114689,,114738,8,400,,,
sequence,flow.Sequence,4_22,2023-05-02T15:59:46.625Z,,0,,,3035,completion,,,,,false,,,,114690,114689,111621,111614,111654,114738,8,400,,,
trial,html.Screen,4_23_0,2023-05-02T15:59:49.771Z,,0,1,,3130.0000000000146,response,ISIC_0428383.JPG,,ISIC_0056201.JPG,ISIC_0428383.JPG,false,1,keypress(m),500,117836,117835.00000000001,114705,114690,114738,117888,8,400,24,,ISIC_0056201.JPG
break,html.Screen,4_23_1,2023-05-02T15:59:49.772Z,,0,,,NaN,,,,,,false,,,,117837,117837,,117836,,117888,8,400,,,
break_continue,html.Screen,4_23_2,2023-05-02T15:59:49.772Z,,0,,,NaN,,,,,,false,,,,117837,117837,,117837,,117888,8,400,,,
sequence,flow.Sequence,4_23,2023-05-02T15:59:49.773Z,,0,,,3099,completion,,,,,false,,,,117838.00000000001,117837,114705,114690,114738,117888,8,400,,,
trial,html.Screen,4_24_0,2023-05-02T15:59:53.707Z,,0,1,,3916,response,ISIC_0013917.JPG,,ISIC_7883190.JPG,ISIC_0013917.JPG,false,1,keypress(m),500,121772,121771,117855,117838.00000000001,117888,121822,8,400,25,,ISIC_7883190.JPG
break,html.Screen,4_24_1,2023-05-02T15:59:53.708Z,,0,,,NaN,,,,,,false,,,,121773,121773,,121772,,121822,8,400,,,
break_continue,html.Screen,4_24_2,2023-05-02T15:59:53.708Z,,0,,,NaN,,,,,,false,,,,121773,121773,,121773,,121822,8,400,,,
sequence,flow.Sequence,4_24,2023-05-02T15:59:53.708Z,,0,,,3885,completion,,,,,false,,,,121774,121773,117855,117838.00000000001,117888,121822,8,400,,,
trial,html.Screen,4_25_0,2023-05-02T15:59:56.576Z,,0,1,,2853,response,ISIC_8634334.JPG,,ISIC_0056983.JPG,ISIC_8634334.JPG,false,1,keypress(m),500,124641,124641,121788,121774,121822,124688,8,400,26,,ISIC_0056983.JPG
break,html.Screen,4_25_1,2023-05-02T15:59:56.577Z,,0,,,NaN,,,,,,false,,,,124642,124642,,124642,,124688,8,400,,,
break_continue,html.Screen,4_25_2,2023-05-02T15:59:56.577Z,,0,,,NaN,,,,,,false,,,,124643,124643,,124643,,124688,8,400,,,
sequence,flow.Sequence,4_25,2023-05-02T15:59:56.577Z,,0,,,2821,completion,,,,,false,,,,124643,124643,121788,121774,121822,124688,8,400,,,
trial,html.Screen,4_26_0,2023-05-02T15:59:59.370Z,,0,1,,2780,response,ISIC_0070412.JPG,,ISIC_0026185.JPG,ISIC_0026185.JPG,false,0,keypress(z),500,127436,127435,124655,124643,124688,127489,8,400,27,,ISIC_0070412.JPG
break,html.Screen,4_26_1,2023-05-02T15:59:59.371Z,,0,,,NaN,,,,,,false,,,,127437,127437,,127436,,127489,8,400,,,
break_continue,html.Screen,4_26_2,2023-05-02T15:59:59.372Z,,0,,,NaN,,,,,,false,,,,127437,127437,,127437,,127489,8,400,,,
sequence,flow.Sequence,4_26,2023-05-02T15:59:59.372Z,,0,,,2749,completion,,,,,false,,,,127437,127437,124655,124643,124688,127489,8,400,,,
trial,html.Screen,4_27_0,2023-05-02T16:00:03.363Z,,0,1,,3973,response,ISIC_5721677.JPG,,ISIC_0005494.JPG,ISIC_0005494.JPG,false,0,keypress(z),500,131429,131428,127455,127437,127489,131472,8,400,28,,ISIC_5721677.JPG
break,html.Screen,4_27_1,2023-05-02T16:00:03.365Z,,0,,,NaN,,,,,,false,,,,131430,131430,,131429,,131472,8,400,,,
break_continue,html.Screen,4_27_2,2023-05-02T16:00:03.365Z,,0,,,NaN,,,,,,false,,,,131431,131431,,131431,,131472,8,400,,,
sequence,flow.Sequence,4_27,2023-05-02T16:00:03.365Z,,0,,,3942,completion,,,,,false,,,,131431,131431,127455,127437,127489,131472,8,400,,,
trial,html.Screen,4_28_0,2023-05-02T16:00:07.215Z,,0,1,,3841,response,ISIC_0010350.JPG,,ISIC_0212774.JPG,ISIC_0010350.JPG,false,1,keypress(m),500,135281,135280,131439,131431,131472,135322,8,400,29,,ISIC_0212774.JPG
break,html.Screen,4_28_1,2023-05-02T16:00:07.216Z,,0,,,NaN,,,,,,false,,,,135282,135282,,135281,,135322,8,400,,,
break_continue,html.Screen,4_28_2,2023-05-02T16:00:07.216Z,,0,,,NaN,,,,,,false,,,,135282,135282,,135282,,135322,8,400,,,
sequence,flow.Sequence,4_28,2023-05-02T16:00:07.217Z,,0,,,3810,completion,,,,,false,,,,135283.00000000003,135282,131439,131431,131472,135322,8,400,,,
trial,html.Screen,4_29_0,2023-05-02T16:00:10.738Z,,0,1,,3515,response,ISIC_6683370.JPG,,ISIC_5821293.JPG,ISIC_6683370.JPG,false,1,keypress(m),500,138805,138804,135289,135283.00000000003,135322,138856,8,400,30,,ISIC_5821293.JPG
break,html.Screen,4_29_1,2023-05-02T16:00:10.740Z,,0,,,NaN,,,,,,false,,,,138806,138806,,138805,,138856,8,400,,,
break_continue,html.Screen,4_29_2,2023-05-02T16:00:10.740Z,,0,,,NaN,,,,,,false,,,,138806,138806,,138806,,138856,8,400,,,
sequence,flow.Sequence,4_29,2023-05-02T16:00:10.740Z,,0,,,3484,completion,,,,,false,,,,138807.00000000003,138806,135289,135283.00000000003,135322,138856,8,400,,,
trial,html.Screen,4_30_0,2023-05-02T16:00:16.922Z,,0,1,,6166,response,ISIC_1105263.JPG,,ISIC_0009882.JPG,ISIC_1105263.JPG,false,1,keypress(m),500,144989,144988,138822,138807.00000000003,138856,145039,8,400,31,,ISIC_0009882.JPG
break,html.Screen,4_30_1,2023-05-02T16:00:16.923Z,,0,,,NaN,,,,,,false,,,,144990,144990,,144989,,145039,8,400,,,
break_continue,html.Screen,4_30_2,2023-05-02T16:00:16.924Z,,0,,,NaN,,,,,,false,,,,144990,144990,,144990,,145039,8,400,,,
sequence,flow.Sequence,4_30,2023-05-02T16:00:16.924Z,,0,,,6134,completion,,,,,false,,,,144991,144990,138822,138807.00000000003,138856,145039,8,400,,,
trial,html.Screen,4_31_0,2023-05-02T16:00:19.519Z,,0,1,,2579,response,ISIC_9894782.JPG,,ISIC_0753491.JPG,ISIC_9894782.JPG,false,1,keypress(m),500,147586,147585,145006,144991,145039,147640,8,400,32,,ISIC_0753491.JPG
break,html.Screen,4_31_1,2023-05-02T16:00:19.520Z,,0,,,NaN,,,,,,false,,,,147587,147587,,147586,,147640,8,400,,,
break_continue,html.Screen,4_31_2,2023-05-02T16:00:19.521Z,,0,,,NaN,,,,,,false,,,,147587,147587,,147587,,147640,8,400,,,
sequence,flow.Sequence,4_31,2023-05-02T16:00:19.521Z,,0,,,2548,completion,,,,,false,,,,147588,147587,145006,144991,145039,147640,8,400,,,
trial,html.Screen,4_32_0,2023-05-02T16:00:22.236Z,,0,1,,2697,response,ISIC_0030985.JPG,,ISIC_0064120.JPG,ISIC_0030985.JPG,false,1,keypress(m),500,150303,150303,147606,147588,147640,150356,8,400,33,,ISIC_0064120.JPG
break,html.Screen,4_32_1,2023-05-02T16:00:22.238Z,,0,,,NaN,,,,,,false,,,,150305,150304,,150304,,150356,8,400,,,
break_continue,html.Screen,4_32_2,2023-05-02T16:00:22.238Z,,0,,,NaN,,,,,,false,,,,150305,150305,,150305,,150356,8,400,,,
sequence,flow.Sequence,4_32,2023-05-02T16:00:22.239Z,,0,,,2665,completion,,,,,false,,,,150305,150305,147606,147588,147640,150356,8,400,,,
trial,html.Screen,4_33_0,2023-05-02T16:00:25.088Z,,0,1,,2831,response,ISIC_0541345.JPG,,ISIC_0033775.JPG,ISIC_0541345.JPG,false,1,keypress(m),500,153155,153154,150323,150306,150356,153207,8,400,34,,ISIC_0033775.JPG
break,html.Screen,4_33_1,2023-05-02T16:00:25.089Z,,0,,,NaN,,,,,,false,,,,153156,153156,,153155,,153207,8,400,,,
break_continue,html.Screen,4_33_2,2023-05-02T16:00:25.089Z,,0,,,NaN,,,,,,false,,,,153157,153156,,153156,,153207,8,400,,,
sequence,flow.Sequence,4_33,2023-05-02T16:00:25.090Z,,0,,,2800,completion,,,,,false,,,,153157,153156,150323,150306,150356,153207,8,400,,,
trial,html.Screen,4_34_0,2023-05-02T16:00:28.803Z,,0,1,,3696,response,ISIC_0057692.JPG,,ISIC_2153301.JPG,ISIC_2153301.JPG,false,0,keypress(z),500,156870,156869,153173,153157,153207,156923,8,400,35,,ISIC_0057692.JPG
break,html.Screen,4_34_1,2023-05-02T16:00:28.804Z,,0,,,NaN,,,,,,false,,,,156871,156871,,156870,,156923,8,400,,,
break_continue,html.Screen,4_34_2,2023-05-02T16:00:28.804Z,,0,,,NaN,,,,,,false,,,,156872,156871,,156871,,156923,8,400,,,
sequence,flow.Sequence,4_34,2023-05-02T16:00:28.804Z,,0,,,3664,completion,,,,,false,,,,156872,156871,153173,153157,153207,156923,8,400,,,
trial,html.Screen,4_35_0,2023-05-02T16:00:31.536Z,,0,1,,2713,response,ISIC_0064821.JPG,,ISIC_4079108.JPG,ISIC_4079108.JPG,false,0,keypress(z),500,159604,159603,156890,156872,156923,159657,8,400,36,,ISIC_0064821.JPG
break,html.Screen,4_35_1,2023-05-02T16:00:31.538Z,,0,,,NaN,,,,,,false,,,,159605,159605,,159604,,159657,8,400,,,
break_continue,html.Screen,4_35_2,2023-05-02T16:00:31.538Z,,0,,,NaN,,,,,,false,,,,159605,159605,,159605,,159657,8,400,,,
sequence,flow.Sequence,4_35,2023-05-02T16:00:31.538Z,,0,,,2682,completion,,,,,false,,,,159606,159605,156890,156872,156923,159657,8,400,,,
trial,html.Screen,4_36_0,2023-05-02T16:00:34.204Z,,0,1,,2646,response,ISIC_3757004.JPG,,ISIC_0011369.JPG,ISIC_3757004.JPG,false,1,keypress(m),500,162271.00000000003,162270,159624,159606,159657,162323,8,400,37,,ISIC_0011369.JPG
break,html.Screen,4_36_1,2023-05-02T16:00:34.205Z,,0,,,NaN,,,,,,false,,,,162272,162272,,162272,,162323,8,400,,,
break_continue,html.Screen,4_36_2,2023-05-02T16:00:34.205Z,,0,,,NaN,,,,,,false,,,,162273,162272,,162272,,162323,8,400,,,
sequence,flow.Sequence,4_36,2023-05-02T16:00:34.205Z,,0,,,2615,completion,,,,,false,,,,162273,162272,159624,159606,159657,162323,8,400,,,
trial,html.Screen,4_37_0,2023-05-02T16:00:37.237Z,,0,1,,3014,response,ISIC_0000384.JPG,,ISIC_0025369.JPG,ISIC_0000384.JPG,false,1,keypress(m),500,165305,165304,162290,162273,162323,165357,8,400,38,,ISIC_0025369.JPG
break,html.Screen,4_37_1,2023-05-02T16:00:37.238Z,,0,,,NaN,,,,,,false,,,,165306,165306,,165305,,165357,8,400,,,
break_continue,html.Screen,4_37_2,2023-05-02T16:00:37.238Z,,0,,,NaN,,,,,,false,,,,165306,165306,,165306,,165357,8,400,,,
sequence,flow.Sequence,4_37,2023-05-02T16:00:37.239Z,,0,,,2983,completion,,,,,false,,,,165306,165306,162290,162273,162323,165357,8,400,,,
trial,html.Screen,4_38_0,2023-05-02T16:00:39.950Z,,0,1,,2693,response,ISIC_0033432.JPG,,ISIC_9989485.JPG,ISIC_9989485.JPG,false,0,keypress(z),500,168018,168017,165324,165307.00000000003,165357,168057,8,400,39,,ISIC_0033432.JPG
break,html.Screen,4_38_1,2023-05-02T16:00:39.951Z,,0,,,NaN,,,,,,false,,,,168019,168019,,168018,,168057,8,400,,,
break_continue,html.Screen,4_38_2,2023-05-02T16:00:39.951Z,,0,,,NaN,,,,,,false,,,,168019,168019,,168019,,168057,8,400,,,
sequence,flow.Sequence,4_38,2023-05-02T16:00:39.951Z,,0,,,2662,completion,,,,,false,,,,168019,168019,165324,165307.00000000003,165357,168057,8,400,,,
trial,html.Screen,4_39_0,2023-05-02T16:00:42.787Z,,0,1,,2830,response,ISIC_0066878.JPG,,ISIC_7095615.JPG,ISIC_7095615.JPG,false,0,keypress(z),500,170855,170854,168024,168020,168057,170907,8,400,40,,ISIC_0066878.JPG
break,html.Screen,4_39_1,2023-05-02T16:00:42.788Z,,0,,,NaN,,,,,,false,,,,170856,170856,,170855,,170907,8,400,,,
break_continue,html.Screen,4_39_2,2023-05-02T16:00:42.788Z,,0,,,NaN,,,,,,false,,,,170856,170856,,170856,,170907,8,400,,,
sequence,flow.Sequence,4_39,2023-05-02T16:00:42.788Z,,0,,,2799,completion,,,,,false,,,,170856,170856,168024,168020,168057,170907,8,400,,,
trial,html.Screen,4_40_0,2023-05-02T16:00:46.970Z,,0,1,,4164,response,ISIC_0029478.JPG,,ISIC_2524005.JPG,ISIC_2524005.JPG,false,0,keypress(z),500,175038,175038,170874,170857,170907,175091,8,400,41,,ISIC_0029478.JPG
break,html.Screen,4_40_1,2023-05-02T16:00:46.971Z,,0,,,NaN,,,,,,false,,,,175039.00000000003,175039.00000000003,,175038,,175091,8,400,,,
break_continue,html.Screen,4_40_2,2023-05-02T16:00:46.971Z,,0,,,NaN,,,,,,false,,,,175040,175039.00000000003,,175039.00000000003,,175091,8,400,,,
sequence,flow.Sequence,4_40,2023-05-02T16:00:46.971Z,,0,,,4132.000000000029,completion,,,,,false,,,,175040,175039.00000000003,170874,170857,170907,175091,8,400,,,
trial,html.Screen,4_41_0,2023-05-02T16:00:49.844Z,,0,1,,2854,response,ISIC_0058079.JPG,,ISIC_9100283.JPG,ISIC_9100283.JPG,false,0,keypress(z),500,177912,177912,175058,175040,175091,177958,8,400,42,,ISIC_0058079.JPG
break,html.Screen,4_41_1,2023-05-02T16:00:49.845Z,,0,,,NaN,,,,,,false,,,,177913,177913,,177913,,177958,8,400,,,
break_continue,html.Screen,4_41_2,2023-05-02T16:00:49.845Z,,0,,,NaN,,,,,,false,,,,177914.00000000003,177914.00000000003,,177914.00000000003,,177958,8,400,,,
sequence,flow.Sequence,4_41,2023-05-02T16:00:49.846Z,,0,,,2823.000000000029,completion,,,,,false,,,,177914.00000000003,177914.00000000003,175058,175040,175091,177958,8,400,,,
trial,html.Screen,4_42_0,2023-05-02T16:00:52.687Z,,0,1,,2831,response,ISIC_9260499.JPG,,ISIC_0010313.JPG,ISIC_9260499.JPG,false,1,keypress(m),500,180755,180755,177924,177914.00000000003,177958,180808,8,400,43,,ISIC_0010313.JPG
break,html.Screen,4_42_1,2023-05-02T16:00:52.688Z,,0,,,NaN,,,,,,false,,,,180756,180756,,180756,,180808,8,400,,,
break_continue,html.Screen,4_42_2,2023-05-02T16:00:52.688Z,,0,,,NaN,,,,,,false,,,,180757,180757,,180757,,180808,8,400,,,
sequence,flow.Sequence,4_42,2023-05-02T16:00:52.688Z,,0,,,2799,completion,,,,,false,,,,180757,180757,177924,177914.00000000003,177958,180808,8,400,,,
trial,html.Screen,4_43_0,2023-05-02T16:00:56.267Z,,0,1,,3562,response,ISIC_0058863.JPG,,ISIC_3213469.JPG,ISIC_3213469.JPG,false,0,keypress(z),500,184336,184336,180774,180757,180808,184375,8,400,44,,ISIC_0058863.JPG
break,html.Screen,4_43_1,2023-05-02T16:00:56.269Z,,0,,,NaN,,,,,,false,,,,184337.00000000003,184337.00000000003,,184337.00000000003,,184375,8,400,,,
break_continue,html.Screen,4_43_2,2023-05-02T16:00:56.269Z,,0,,,NaN,,,,,,false,,,,184338,184338,,184338,,184375,8,400,,,
sequence,flow.Sequence,4_43,2023-05-02T16:00:56.269Z,,0,,,3530,completion,,,,,false,,,,184338,184338,180774,180757,180808,184375,8,400,,,
trial,html.Screen,4_44_0,2023-05-02T16:00:59.719Z,,0,1,,3447,response,ISIC_0005762.JPG,,ISIC_0066412.JPG,ISIC_0005762.JPG,false,1,keypress(m),500,187789.00000000003,187788,184341,184338,184375,187842,8,400,45,,ISIC_0066412.JPG
break,html.Screen,4_44_1,2023-05-02T16:00:59.721Z,,0,,,NaN,,,,,,false,,,,187790,187790,,187789.00000000003,,187842,8,400,,,
break_continue,html.Screen,4_44_2,2023-05-02T16:00:59.721Z,,0,,,NaN,,,,,,false,,,,187790,187790,,187790,,187842,8,400,,,
sequence,flow.Sequence,4_44,2023-05-02T16:00:59.721Z,,0,,,3415,completion,,,,,false,,,,187791,187790,184341,184338,184375,187842,8,400,,,
trial,html.Screen,4_45_0,2023-05-02T16:01:02.804Z,,0,1,,3065,response,ISIC_7801289.JPG,,ISIC_5347806.JPG,ISIC_7801289.JPG,false,1,keypress(m),500,190873,190873,187808,187791,187842,190925,8,400,46,,ISIC_5347806.JPG
break,html.Screen,4_45_1,2023-05-02T16:01:02.805Z,,0,,,NaN,,,,,,false,,,,190874,190874,,190874,,190925,8,400,,,
break_continue,html.Screen,4_45_2,2023-05-02T16:01:02.806Z,,0,,,NaN,,,,,,false,,,,190875,190875,,190875,,190925,8,400,,,
sequence,flow.Sequence,4_45,2023-05-02T16:01:02.806Z,,0,,,3033,completion,,,,,false,,,,190875,190875,187808,187791,187842,190925,8,400,,,
trial,html.Screen,4_46_0,2023-05-02T16:01:06.614Z,,0,1,,3791,response,ISIC_0014189.JPG,,ISIC_2843983.JPG,ISIC_2843983.JPG,false,0,keypress(z),500,194684,194683,190892,190875,190925,194725,8,400,47,,ISIC_0014189.JPG
break,html.Screen,4_46_1,2023-05-02T16:01:06.615Z,,0,,,NaN,,,,,,false,,,,194684,194684,,194684,,194725,8,400,,,
break_continue,html.Screen,4_46_2,2023-05-02T16:01:06.615Z,,0,,,NaN,,,,,,false,,,,194685,194685,,194685,,194725,8,400,,,
sequence,flow.Sequence,4_46,2023-05-02T16:01:06.616Z,,0,,,3760,completion,,,,,false,,,,194685,194685,190892,190875,190925,194725,8,400,,,
trial,html.Screen,4_47_0,2023-05-02T16:01:09.755Z,,0,1,,3132,response,ISIC_0210998.JPG,,ISIC_2096695.JPG,ISIC_2096695.JPG,false,0,keypress(z),500,197825.00000000003,197824,194692,194686,194725,197876,8,400,48,,ISIC_0210998.JPG
break,html.Screen,4_47_1,2023-05-02T16:01:09.756Z,,0,,,NaN,,,,,,false,,,,197826,197826,,197825.00000000003,,197876,8,400,,,
break_continue,html.Screen,4_47_2,2023-05-02T16:01:09.756Z,,0,,,NaN,,,,,,false,,,,197826,197826,,197826,,197876,8,400,,,
sequence,flow.Sequence,4_47,2023-05-02T16:01:09.757Z,,0,,,3101,completion,,,,,false,,,,197826,197826,194692,194686,194725,197876,8,400,,,
trial,html.Screen,4_48_0,2023-05-02T16:01:12.638Z,,0,1,,2866,response,ISIC_0030089.JPG,,ISIC_1962844.JPG,ISIC_0030089.JPG,false,1,keypress(m),500,200708,200708,197842,197827,197876,200759,8,400,49,,ISIC_1962844.JPG
break,html.Screen,4_48_1,2023-05-02T16:01:12.639Z,,0,,,NaN,,,,,,false,,,,200709,200709,,200709,,200759,8,400,,,
break_continue,html.Screen,4_48_2,2023-05-02T16:01:12.640Z,,0,,,NaN,,,,,,false,,,,200710,200710,,200709,,200759,8,400,,,
sequence,flow.Sequence,4_48,2023-05-02T16:01:12.640Z,,0,,,2834,completion,,,,,false,,,,200710,200710,197842,197827,197876,200759,8,400,,,
trial,html.Screen,4_49_0,2023-05-02T16:01:15.712Z,,0,1,,3056,response,ISIC_0032927.JPG,,ISIC_3435596.JPG,ISIC_0032927.JPG,false,1,keypress(m),500,203782,203782,200726,200710,200759,203826,8,400,50,,ISIC_3435596.JPG
break,html.Screen,4_49_1,2023-05-02T16:01:20.723Z,,0,,,5000,timeout,,,,,false,,,,208793,208793,203792,203783.00000000003,203826,208826,8,400,,,
break_continue,html.Screen,4_49_2,2023-05-02T16:01:21.850Z,,0,,,1161,response,,,,,false,continue,keypress(Space),,209921,209954,208793,208794,208826,209959,8,400,,,
sequence,flow.Sequence,4_49,2023-05-02T16:01:21.851Z,,0,,,9195,completion,,,,,false,,,,209921,209954,200726,200710,200759,209959,8,400,,,
trial,html.Screen,4_50_0,2023-05-02T16:01:25.088Z,,0,2,,3233.000000000029,response,ISIC_5879789.JPG,,ISIC_8295306.JPG,ISIC_8295306.JPG,false,0,keypress(z),500,213159,213158.00000000003,209925,209921,209959,213210,8,400,1,,ISIC_5879789.JPG
break,html.Screen,4_50_1,2023-05-02T16:01:25.089Z,,0,,,NaN,,,,,,false,,,,213160,213159,,213159,,213210,8,400,,,
break_continue,html.Screen,4_50_2,2023-05-02T16:01:25.089Z,,0,,,NaN,,,,,,false,,,,213160,213160,,213160,,213210,8,400,,,
sequence,flow.Sequence,4_50,2023-05-02T16:01:25.089Z,,0,,,3201,completion,,,,,false,,,,213160,213160,209925,209921,209959,213210,8,400,,,
trial,html.Screen,4_51_0,2023-05-02T16:01:27.792Z,,0,2,,2686,response,ISIC_2700320.JPG,,ISIC_0029815.JPG,ISIC_0029815.JPG,false,0,keypress(z),500,215863,215862,213176,213160,213210,215910,8,400,2,,ISIC_2700320.JPG
break,html.Screen,4_51_1,2023-05-02T16:01:27.793Z,,0,,,NaN,,,,,,false,,,,215864,215864,,215863,,215910,8,400,,,
break_continue,html.Screen,4_51_2,2023-05-02T16:01:27.793Z,,0,,,NaN,,,,,,false,,,,215864,215864,,215864,,215910,8,400,,,
sequence,flow.Sequence,4_51,2023-05-02T16:01:27.793Z,,0,,,2654,completion,,,,,false,,,,215864,215864,213176,213160,213210,215910,8,400,,,
trial,html.Screen,4_52_0,2023-05-02T16:01:30.948Z,,0,2,,3142,response,ISIC_0062286.JPG,,ISIC_7658276.JPG,ISIC_7658276.JPG,false,0,keypress(z),500,219019,219018,215876,215864,215910,219060,8,400,3,,ISIC_0062286.JPG
break,html.Screen,4_52_1,2023-05-02T16:01:30.949Z,,0,,,NaN,,,,,,false,,,,219020,219020,,219019,,219060,8,400,,,
break_continue,html.Screen,4_52_2,2023-05-02T16:01:30.949Z,,0,,,NaN,,,,,,false,,,,219021.00000000003,219020,,219020,,219060,8,400,,,
sequence,flow.Sequence,4_52,2023-05-02T16:01:30.950Z,,0,,,3110,completion,,,,,false,,,,219021.00000000003,219020,215876,215864,215910,219060,8,400,,,
trial,html.Screen,4_53_0,2023-05-02T16:01:33.588Z,,0,2,,2633,response,ISIC_1579745.JPG,,ISIC_0011752.JPG,ISIC_1579745.JPG,false,1,keypress(m),500,221659,221659,219026,219021.00000000003,219060,221710,8,400,4,,ISIC_0011752.JPG
break,html.Screen,4_53_1,2023-05-02T16:01:33.589Z,,0,,,NaN,,,,,,false,,,,221661,221660,,221660,,221710,8,400,,,
break_continue,html.Screen,4_53_2,2023-05-02T16:01:33.590Z,,0,,,NaN,,,,,,false,,,,221661,221661,,221661,,221710,8,400,,,
sequence,flow.Sequence,4_53,2023-05-02T16:01:33.590Z,,0,,,2601,completion,,,,,false,,,,221661,221661,219026,219021.00000000003,219060,221710,8,400,,,
trial,html.Screen,4_54_0,2023-05-02T16:01:36.440Z,,0,2,,2834,response,ISIC_7334117.JPG,,ISIC_9008026.JPG,ISIC_9008026.JPG,false,0,keypress(z),500,224511,224511,221677,221661,221710,224560,8,400,5,,ISIC_7334117.JPG
break,html.Screen,4_54_1,2023-05-02T16:01:36.441Z,,0,,,NaN,,,,,,false,,,,224512,224512,,224512,,224560,8,400,,,
break_continue,html.Screen,4_54_2,2023-05-02T16:01:36.441Z,,0,,,NaN,,,,,,false,,,,224513,224513,,224513,,224560,8,400,,,
sequence,flow.Sequence,4_54,2023-05-02T16:01:36.441Z,,0,,,2803,completion,,,,,false,,,,224513,224513,221677,221661,221710,224560,8,400,,,
trial,html.Screen,4_55_0,2023-05-02T16:01:39.071Z,,0,2,,2615,response,ISIC_0057028.JPG,,ISIC_0066678.JPG,ISIC_0057028.JPG,false,1,keypress(m),500,227143,227142,224527,224513,224560,227194,8,400,6,,ISIC_0066678.JPG
break,html.Screen,4_55_1,2023-05-02T16:01:39.072Z,,0,,,NaN,,,,,,false,,,,227144,227143,,227143,,227194,8,400,,,
break_continue,html.Screen,4_55_2,2023-05-02T16:01:39.072Z,,0,,,NaN,,,,,,false,,,,227144,227144,,227144,,227194,8,400,,,
sequence,flow.Sequence,4_55,2023-05-02T16:01:39.073Z,,0,,,2584,completion,,,,,false,,,,227144,227144,224527,224513,224560,227194,8,400,,,
trial,html.Screen,4_56_0,2023-05-02T16:01:43.302Z,,0,2,,4213.000000000029,response,ISIC_9906799.JPG,,ISIC_3784812.JPG,ISIC_3784812.JPG,false,0,keypress(z),500,231374,231373.00000000003,227160,227144,227194,231427,8,400,7,,ISIC_9906799.JPG
break,html.Screen,4_56_1,2023-05-02T16:01:43.303Z,,0,,,NaN,,,,,,false,,,,231375,231375,,231374,,231427,8,400,,,
break_continue,html.Screen,4_56_2,2023-05-02T16:01:43.303Z,,0,,,NaN,,,,,,false,,,,231375,231375,,231375,,231427,8,400,,,
sequence,flow.Sequence,4_56,2023-05-02T16:01:43.304Z,,0,,,4181,completion,,,,,false,,,,231375,231375,227160,227144,227194,231427,8,400,,,
trial,html.Screen,4_57_0,2023-05-02T16:01:46.153Z,,0,2,,2832,response,ISIC_5641619.JPG,,ISIC_0055680.JPG,ISIC_5641619.JPG,false,1,keypress(m),500,234225,234225,231393,231376,231427,234278,8,400,8,,ISIC_0055680.JPG
break,html.Screen,4_57_1,2023-05-02T16:01:46.155Z,,0,,,NaN,,,,,,false,,,,234227,234226,,234226,,234278,8,400,,,
break_continue,html.Screen,4_57_2,2023-05-02T16:01:46.155Z,,0,,,NaN,,,,,,false,,,,234227,234227,,234227,,234278,8,400,,,
sequence,flow.Sequence,4_57,2023-05-02T16:01:46.155Z,,0,,,2800,completion,,,,,false,,,,234227,234227,231393,231375,231427,234278,8,400,,,
trial,html.Screen,4_58_0,2023-05-02T16:01:50.097Z,,0,2,,3925,response,ISIC_0064044.JPG,,ISIC_0010023.JPG,ISIC_0010023.JPG,false,0,keypress(z),500,238169,238169,234244,234227,234278,238211,8,400,9,,ISIC_0064044.JPG
break,html.Screen,4_58_1,2023-05-02T16:01:50.098Z,,0,,,NaN,,,,,,false,,,,238170.00000000003,238170.00000000003,,238169,,238211,8,400,,,
break_continue,html.Screen,4_58_2,2023-05-02T16:01:50.098Z,,0,,,NaN,,,,,,false,,,,238171,238170.00000000003,,238170.00000000003,,238211,8,400,,,
sequence,flow.Sequence,4_58,2023-05-02T16:01:50.099Z,,0,,,3892.000000000029,completion,,,,,false,,,,238171,238170.00000000003,234244,234227,234278,238211,8,400,,,
trial,html.Screen,4_59_0,2023-05-02T16:01:53.449Z,,0,2,,3344.000000000029,response,ISIC_0010783.JPG,,ISIC_1818238.JPG,ISIC_0010783.JPG,false,1,keypress(m),500,241521.00000000003,241521.00000000003,238177,238171,238211,241561,8,400,10,,ISIC_1818238.JPG
break,html.Screen,4_59_1,2023-05-02T16:01:53.450Z,,0,,,NaN,,,,,,false,,,,241523,241522,,241522,,241561,8,400,,,
break_continue,html.Screen,4_59_2,2023-05-02T16:01:53.450Z,,0,,,NaN,,,,,,false,,,,241523,241523,,241523,,241561,8,400,,,
sequence,flow.Sequence,4_59,2023-05-02T16:01:53.451Z,,0,,,3312,completion,,,,,false,,,,241523,241523,238177,238171,238211,241561,8,400,,,
trial,html.Screen,4_60_0,2023-05-02T16:01:57.133Z,,0,2,,3679.000000000029,response,ISIC_8575769.JPG,,ISIC_9935444.JPG,ISIC_9935444.JPG,false,0,keypress(z),500,245206.00000000003,245206.00000000003,241527,241523,241561,245245,8,400,11,,ISIC_8575769.JPG
break,html.Screen,4_60_1,2023-05-02T16:01:57.135Z,,0,,,NaN,,,,,,false,,,,245207,245207,,245206.00000000003,,245245,8,400,,,
break_continue,html.Screen,4_60_2,2023-05-02T16:01:57.135Z,,0,,,NaN,,,,,,false,,,,245207,245207,,245207,,245245,8,400,,,
sequence,flow.Sequence,4_60,2023-05-02T16:01:57.135Z,,0,,,3646,completion,,,,,false,,,,245208,245207,241527,241523,241561,245245,8,400,,,
trial,html.Screen,4_61_0,2023-05-02T16:01:59.819Z,,0,2,,2680,response,ISIC_0033476.JPG,,ISIC_6239663.JPG,ISIC_6239663.JPG,false,0,keypress(z),500,247892,247891,245211,245208,245245,247945,8,400,12,,ISIC_0033476.JPG
break,html.Screen,4_61_1,2023-05-02T16:01:59.821Z,,0,,,NaN,,,,,,false,,,,247893,247893,,247893,,247945,8,400,,,
break_continue,html.Screen,4_61_2,2023-05-02T16:01:59.821Z,,0,,,NaN,,,,,,false,,,,247894,247894,,247894,,247945,8,400,,,
sequence,flow.Sequence,4_61,2023-05-02T16:01:59.821Z,,0,,,2649,completion,,,,,false,,,,247894,247894,245211,245208,245245,247945,8,400,,,
trial,html.Screen,4_62_0,2023-05-02T16:02:02.611Z,,0,2,,2771,response,ISIC_0009984.JPG,,ISIC_7783346.JPG,ISIC_7783346.JPG,false,0,keypress(z),500,250684,250683,247912,247894,247945,250728,8,400,13,,ISIC_0009984.JPG
break,html.Screen,4_62_1,2023-05-02T16:02:02.612Z,,0,,,NaN,,,,,,false,,,,250685,250685,,250684,,250728,8,400,,,
break_continue,html.Screen,4_62_2,2023-05-02T16:02:02.613Z,,0,,,NaN,,,,,,false,,,,250686,250685,,250685,,250728,8,400,,,
sequence,flow.Sequence,4_62,2023-05-02T16:02:02.613Z,,0,,,2740,completion,,,,,false,,,,250686,250685,247912,247894,247945,250728,8,400,,,
trial,html.Screen,4_63_0,2023-05-02T16:02:05.883Z,,0,2,,3261.000000000029,response,ISIC_4780727.JPG,,ISIC_0059897.JPG,ISIC_4780727.JPG,false,1,keypress(m),500,253956.00000000003,253956.00000000003,250695,250686,250728,253995,8,400,14,,ISIC_0059897.JPG
break,html.Screen,4_63_1,2023-05-02T16:02:05.884Z,,0,,,NaN,,,,,,false,,,,253957,253957,,253957,,253995,8,400,,,
break_continue,html.Screen,4_63_2,2023-05-02T16:02:05.885Z,,0,,,NaN,,,,,,false,,,,253958,253958,,253958,,253995,8,400,,,
sequence,flow.Sequence,4_63,2023-05-02T16:02:05.885Z,,0,,,3230,completion,,,,,false,,,,253958,253958,250695,250686,250728,253995,8,400,,,
trial,html.Screen,4_64_0,2023-05-02T16:02:08.895Z,,0,2,,3007.000000000029,response,ISIC_0034317.JPG,,ISIC_8796968.JPG,ISIC_8796968.JPG,false,0,keypress(z),500,256969,256968.00000000003,253961,253959,253995,257012,8,400,15,,ISIC_0034317.JPG
break,html.Screen,4_64_1,2023-05-02T16:02:08.896Z,,0,,,NaN,,,,,,false,,,,256970.00000000003,256970.00000000003,,256969,,257012,8,400,,,
break_continue,html.Screen,4_64_2,2023-05-02T16:02:08.897Z,,0,,,NaN,,,,,,false,,,,256970.00000000003,256970.00000000003,,256970.00000000003,,257012,8,400,,,
sequence,flow.Sequence,4_64,2023-05-02T16:02:08.897Z,,0,,,2975.000000000029,completion,,,,,false,,,,256970.00000000003,256970.00000000003,253961,253959,253995,257012,8,400,,,
trial,html.Screen,4_65_0,2023-05-02T16:02:11.284Z,,0,2,,2378.000000000029,response,ISIC_0029898.JPG,,ISIC_0009880.JPG,ISIC_0029898.JPG,false,1,keypress(m),500,259357.00000000003,259357.00000000003,256979,256971,257012,259395,8,400,16,,ISIC_0009880.JPG
break,html.Screen,4_65_1,2023-05-02T16:02:11.285Z,,0,,,NaN,,,,,,false,,,,259358,259358,,259358,,259395,8,400,,,
break_continue,html.Screen,4_65_2,2023-05-02T16:02:11.285Z,,0,,,NaN,,,,,,false,,,,259358.99999999997,259358.99999999997,,259358.99999999997,,259395,8,400,,,
sequence,flow.Sequence,4_65,2023-05-02T16:02:11.285Z,,0,,,2346.999999999971,completion,,,,,false,,,,259358.99999999997,259358.99999999997,256979,256971,257012,259395,8,400,,,
trial,html.Screen,4_66_0,2023-05-02T16:02:14.137Z,,0,2,,2848,response,ISIC_1351604.JPG,,ISIC_0031843.JPG,ISIC_1351604.JPG,false,1,keypress(m),500,262211,262210,259362,259358.99999999997,259395,262262,8,400,17,,ISIC_0031843.JPG
break,html.Screen,4_66_1,2023-05-02T16:02:14.138Z,,0,,,NaN,,,,,,false,,,,262212,262211,,262211,,262262,8,400,,,
break_continue,html.Screen,4_66_2,2023-05-02T16:02:14.138Z,,0,,,NaN,,,,,,false,,,,262212,262212,,262212,,262262,8,400,,,
sequence,flow.Sequence,4_66,2023-05-02T16:02:14.139Z,,0,,,2817,completion,,,,,false,,,,262212,262212,259362,259358.99999999997,259395,262262,8,400,,,
trial,html.Screen,4_67_0,2023-05-02T16:02:16.874Z,,0,2,,2718,response,ISIC_0350472.JPG,,ISIC_0010308.JPG,ISIC_0350472.JPG,false,1,keypress(m),500,264948,264947,262229,262213,262262,264995,8,400,18,,ISIC_0010308.JPG
break,html.Screen,4_67_1,2023-05-02T16:02:16.875Z,,0,,,NaN,,,,,,false,,,,264949,264949,,264948,,264995,8,400,,,
break_continue,html.Screen,4_67_2,2023-05-02T16:02:16.876Z,,0,,,NaN,,,,,,false,,,,264949,264949,,264949,,264995,8,400,,,
sequence,flow.Sequence,4_67,2023-05-02T16:02:16.876Z,,0,,,2687,completion,,,,,false,,,,264950,264949,262229,262212,262262,264995,8,400,,,
trial,html.Screen,4_68_0,2023-05-02T16:02:19.782Z,,0,2,,2893,response,ISIC_1352841.JPG,,ISIC_0057539.JPG,ISIC_1352841.JPG,false,1,keypress(m),500,267856,267855,264962,264950,264995,267896,8,400,19,,ISIC_0057539.JPG
break,html.Screen,4_68_1,2023-05-02T16:02:19.783Z,,0,,,NaN,,,,,,false,,,,267857,267857,,267856,,267896,8,400,,,
break_continue,html.Screen,4_68_2,2023-05-02T16:02:19.783Z,,0,,,NaN,,,,,,false,,,,267857,267857,,267857,,267896,8,400,,,
sequence,flow.Sequence,4_68,2023-05-02T16:02:19.784Z,,0,,,2862,completion,,,,,false,,,,267858,267857,264962,264950,264995,267896,8,400,,,
trial,html.Screen,4_69_0,2023-05-02T16:02:23.089Z,,0,2,,3300,response,ISIC_0273046.JPG,,ISIC_0025571.JPG,ISIC_0273046.JPG,false,1,keypress(m),500,271163,271162,267862,267858,267896,271213,8,400,20,,ISIC_0025571.JPG
break,html.Screen,4_69_1,2023-05-02T16:02:23.090Z,,0,,,NaN,,,,,,false,,,,271164,271164,,271163,,271213,8,400,,,
break_continue,html.Screen,4_69_2,2023-05-02T16:02:23.090Z,,0,,,NaN,,,,,,false,,,,271164,271164,,271164,,271213,8,400,,,
sequence,flow.Sequence,4_69,2023-05-02T16:02:23.090Z,,0,,,3268,completion,,,,,false,,,,271164,271164,267862,267858,267896,271213,8,400,,,
trial,html.Screen,4_70_0,2023-05-02T16:02:25.715Z,,0,2,,2609,response,ISIC_0068218.JPG,,ISIC_2904474.JPG,ISIC_2904474.JPG,false,0,keypress(z),500,273789,273788,271179,271165,271213,273829,8,400,21,,ISIC_0068218.JPG
break,html.Screen,4_70_1,2023-05-02T16:02:25.716Z,,0,,,NaN,,,,,,false,,,,273790,273790,,273789,,273829,8,400,,,
break_continue,html.Screen,4_70_2,2023-05-02T16:02:25.716Z,,0,,,NaN,,,,,,false,,,,273790,273790,,273790,,273829,8,400,,,
sequence,flow.Sequence,4_70,2023-05-02T16:02:25.716Z,,0,,,2577,completion,,,,,false,,,,273791,273790,271179,271164,271213,273829,8,400,,,
trial,html.Screen,4_71_0,2023-05-02T16:02:28.827Z,,0,2,,3105,response,ISIC_0000167.JPG,,ISIC_0277705.JPG,ISIC_0277705.JPG,false,0,keypress(z),500,276902,276901,273796,273791,273829,276946,8,400,22,,ISIC_0000167.JPG
break,html.Screen,4_71_1,2023-05-02T16:02:28.828Z,,0,,,NaN,,,,,,false,,,,276903,276902,,276902,,276946,8,400,,,
break_continue,html.Screen,4_71_2,2023-05-02T16:02:28.829Z,,0,,,NaN,,,,,,false,,,,276903,276903,,276903,,276946,8,400,,,
sequence,flow.Sequence,4_71,2023-05-02T16:02:28.829Z,,0,,,3074,completion,,,,,false,,,,276903,276903,273796,273791,273829,276946,8,400,,,
trial,html.Screen,4_72_0,2023-05-02T16:02:31.890Z,,0,2,,3051,response,ISIC_0046316.JPG,,ISIC_0010306.JPG,ISIC_0010306.JPG,false,0,keypress(z),500,279965.00000000006,279964,276913,276904,276946,280013,8,400,23,,ISIC_0046316.JPG
break,html.Screen,4_72_1,2023-05-02T16:02:31.891Z,,0,,,NaN,,,,,,false,,,,279966,279966,,279965.00000000006,,280013,8,400,,,
break_continue,html.Screen,4_72_2,2023-05-02T16:02:31.892Z,,0,,,NaN,,,,,,false,,,,279966,279966,,279966,,280013,8,400,,,
sequence,flow.Sequence,4_72,2023-05-02T16:02:31.892Z,,0,,,3020,completion,,,,,false,,,,279967,279966,276913,276904,276946,280013,8,400,,,
trial,html.Screen,4_73_0,2023-05-02T16:02:36.251Z,,0,2,,4345,response,ISIC_7244604.JPG,,ISIC_6814221.JPG,ISIC_6814221.JPG,false,0,keypress(z),500,284326,284325,279980,279967,280013,284380,8,400,24,,ISIC_7244604.JPG
break,html.Screen,4_73_1,2023-05-02T16:02:36.252Z,,0,,,NaN,,,,,,false,,,,284327,284327,,284326,,284380,8,400,,,
break_continue,html.Screen,4_73_2,2023-05-02T16:02:36.253Z,,0,,,NaN,,,,,,false,,,,284328.00000000006,284328.00000000006,,284327,,284380,8,400,,,
sequence,flow.Sequence,4_73,2023-05-02T16:02:36.253Z,,0,,,4315.000000000058,completion,,,,,false,,,,284328.00000000006,284328.00000000006,279980,279967,280013,284380,8,400,,,
trial,html.Screen,4_74_0,2023-05-02T16:02:39.554Z,,0,2,,3282,response,ISIC_0072412.JPG,,ISIC_1413242.JPG,ISIC_1413242.JPG,false,0,keypress(z),500,287629,287629,284347,284328.00000000006,284380,287680,8,400,25,,ISIC_0072412.JPG
break,html.Screen,4_74_1,2023-05-02T16:02:39.555Z,,0,,,NaN,,,,,,false,,,,287630,287630,,287630,,287680,8,400,,,
break_continue,html.Screen,4_74_2,2023-05-02T16:02:39.556Z,,0,,,NaN,,,,,,false,,,,287631,287631,,287631,,287680,8,400,,,
sequence,flow.Sequence,4_74,2023-05-02T16:02:39.556Z,,0,,,3251,completion,,,,,false,,,,287631,287631,284347,284328.00000000006,284380,287680,8,400,,,
trial,html.Screen,4_75_0,2023-05-02T16:02:42.956Z,,0,2,,3383.000000000058,response,ISIC_9324486.JPG,,ISIC_0033975.JPG,ISIC_0033975.JPG,false,0,keypress(z),500,291031,291030.00000000006,287647,287631,287680,291079,8,400,26,,ISIC_9324486.JPG
break,html.Screen,4_75_1,2023-05-02T16:02:42.957Z,,0,,,NaN,,,,,,false,,,,291032,291032,,291031,,291079,8,400,,,
break_continue,html.Screen,4_75_2,2023-05-02T16:02:42.957Z,,0,,,NaN,,,,,,false,,,,291032,291032,,291032,,291079,8,400,,,
sequence,flow.Sequence,4_75,2023-05-02T16:02:42.957Z,,0,,,3352,completion,,,,,false,,,,291033,291032,287647,287631,287680,291079,8,400,,,
trial,html.Screen,4_76_0,2023-05-02T16:02:46.173Z,,0,2,,3201,response,ISIC_2440407.JPG,,ISIC_3305153.JPG,ISIC_2440407.JPG,false,1,keypress(m),500,294248,294248,291047,291033,291079,294297,8,400,27,,ISIC_3305153.JPG
break,html.Screen,4_76_1,2023-05-02T16:02:46.174Z,,0,,,NaN,,,,,,false,,,,294249,294249,,294249,,294297,8,400,,,
break_continue,html.Screen,4_76_2,2023-05-02T16:02:46.174Z,,0,,,NaN,,,,,,false,,,,294250,294249,,294249,,294297,8,400,,,
sequence,flow.Sequence,4_76,2023-05-02T16:02:46.174Z,,0,,,3170,completion,,,,,false,,,,294250,294249,291047,291033,291079,294297,8,400,,,
trial,html.Screen,4_77_0,2023-05-02T16:02:49.482Z,,0,2,,3293,response,ISIC_9874512.JPG,,ISIC_0485417.JPG,ISIC_9874512.JPG,false,1,keypress(m),500,297558,297557,294264,294250,294297,297597,8,400,28,,ISIC_0485417.JPG
break,html.Screen,4_77_1,2023-05-02T16:02:49.483Z,,0,,,NaN,,,,,,false,,,,297559,297559,,297558,,297597,8,400,,,
break_continue,html.Screen,4_77_2,2023-05-02T16:02:49.484Z,,0,,,NaN,,,,,,false,,,,297559,297559,,297559,,297597,8,400,,,
sequence,flow.Sequence,4_77,2023-05-02T16:02:49.484Z,,0,,,3262,completion,,,,,false,,,,297559,297559,294264,294250,294297,297597,8,400,,,
trial,html.Screen,4_78_0,2023-05-02T16:02:52.255Z,,0,2,,2766,response,ISIC_0011894.JPG,,ISIC_6637542.JPG,ISIC_6637542.JPG,false,0,keypress(z),500,300331,300330,297564,297560,297597,300381,8,400,29,,ISIC_0011894.JPG
break,html.Screen,4_78_1,2023-05-02T16:02:52.256Z,,0,,,NaN,,,,,,false,,,,300332,300332,,300331,,300381,8,400,,,
break_continue,html.Screen,4_78_2,2023-05-02T16:02:52.256Z,,0,,,NaN,,,,,,false,,,,300332,300332,,300332,,300381,8,400,,,
sequence,flow.Sequence,4_78,2023-05-02T16:02:52.257Z,,0,,,2735,completion,,,,,false,,,,300333,300332,297564,297560,297597,300381,8,400,,,
trial,html.Screen,4_79_0,2023-05-02T16:02:55.743Z,,0,2,,3470,response,ISIC_0071651.JPG,,ISIC_4107250.JPG,ISIC_4107250.JPG,false,0,keypress(z),500,303819,303818,300348,300333,300381,303864,8,400,30,,ISIC_0071651.JPG
break,html.Screen,4_79_1,2023-05-02T16:02:55.744Z,,0,,,NaN,,,,,,false,,,,303820,303820,,303819,,303864,8,400,,,
break_continue,html.Screen,4_79_2,2023-05-02T16:02:55.744Z,,0,,,NaN,,,,,,false,,,,303820,303820,,303820,,303864,8,400,,,
sequence,flow.Sequence,4_79,2023-05-02T16:02:55.744Z,,0,,,3439,completion,,,,,false,,,,303821,303820,300348,300333,300381,303864,8,400,,,
trial,html.Screen,4_80_0,2023-05-02T16:02:59.028Z,,0,2,,3272,response,ISIC_0005494.JPG,,ISIC_0990298.JPG,ISIC_0005494.JPG,false,1,keypress(m),500,307104,307103,303831,303821,303864,307148,8,400,31,,ISIC_0990298.JPG
break,html.Screen,4_80_1,2023-05-02T16:02:59.029Z,,0,,,NaN,,,,,,false,,,,307105,307105,,307104,,307148,8,400,,,
break_continue,html.Screen,4_80_2,2023-05-02T16:02:59.029Z,,0,,,NaN,,,,,,false,,,,307106,307106,,307106,,307148,8,400,,,
sequence,flow.Sequence,4_80,2023-05-02T16:02:59.030Z,,0,,,3242,completion,,,,,false,,,,307106,307106,303831,303821,303864,307148,8,400,,,
trial,html.Screen,4_81_0,2023-05-02T16:03:04.216Z,,0,2,,5177.000000000058,response,ISIC_8409024.JPG,,ISIC_5048571.JPG,ISIC_5048571.JPG,false,0,keypress(z),500,312293,312292.00000000006,307115,307106,307148,312331,8,400,32,,ISIC_8409024.JPG
break,html.Screen,4_81_1,2023-05-02T16:03:04.217Z,,0,,,NaN,,,,,,false,,,,312294,312294,,312293,,312331,8,400,,,
break_continue,html.Screen,4_81_2,2023-05-02T16:03:04.218Z,,0,,,NaN,,,,,,false,,,,312294,312294,,312294,,312331,8,400,,,
sequence,flow.Sequence,4_81,2023-05-02T16:03:04.218Z,,0,,,5146,completion,,,,,false,,,,312295,312294,307115,307106,307148,312331,8,400,,,
trial,html.Screen,4_82_0,2023-05-02T16:03:06.960Z,,0,2,,2738,response,ISIC_4231346.JPG,,ISIC_0027356.JPG,ISIC_4231346.JPG,false,1,keypress(m),500,315036,315036,312298,312295,312331,315082,8,400,33,,ISIC_0027356.JPG
break,html.Screen,4_82_1,2023-05-02T16:03:06.961Z,,0,,,NaN,,,,,,false,,,,315037.00000000006,315037.00000000006,,315037.00000000006,,315082,8,400,,,
break_continue,html.Screen,4_82_2,2023-05-02T16:03:06.961Z,,0,,,NaN,,,,,,false,,,,315038,315038,,315038,,315082,8,400,,,
sequence,flow.Sequence,4_82,2023-05-02T16:03:06.961Z,,0,,,2707,completion,,,,,false,,,,315038,315038,312298,312295,312331,315082,8,400,,,
trial,html.Screen,4_83_0,2023-05-02T16:03:09.731Z,,0,2,,2760,response,ISIC_8412096.JPG,,ISIC_0063180.JPG,ISIC_8412096.JPG,false,1,keypress(m),500,317808,317808,315048,315038,315082,317848,8,400,34,,ISIC_0063180.JPG
break,html.Screen,4_83_1,2023-05-02T16:03:09.733Z,,0,,,NaN,,,,,,false,,,,317810,317809,,317808,,317848,8,400,,,
break_continue,html.Screen,4_83_2,2023-05-02T16:03:09.733Z,,0,,,NaN,,,,,,false,,,,317810,317810,,317810,,317848,8,400,,,
sequence,flow.Sequence,4_83,2023-05-02T16:03:09.733Z,,0,,,2728,completion,,,,,false,,,,317810,317810,315048,315038,315082,317848,8,400,,,
trial,html.Screen,4_84_0,2023-05-02T16:03:12.852Z,,0,2,,3113,response,ISIC_6945921.JPG,,ISIC_0032960.JPG,ISIC_6945921.JPG,false,1,keypress(m),500,320929.00000000006,320928,317815,317810,317848,320982,8,400,35,,ISIC_0032960.JPG
break,html.Screen,4_84_1,2023-05-02T16:03:12.853Z,,0,,,NaN,,,,,,false,,,,320930,320930,,320929.00000000006,,320982,8,400,,,
break_continue,html.Screen,4_84_2,2023-05-02T16:03:12.853Z,,0,,,NaN,,,,,,false,,,,320930,320930,,320930,,320982,8,400,,,
sequence,flow.Sequence,4_84,2023-05-02T16:03:12.853Z,,0,,,3082,completion,,,,,false,,,,320930,320930,317815,317810,317848,320982,8,400,,,
trial,html.Screen,4_85_0,2023-05-02T16:03:15.628Z,,0,2,,2756,response,ISIC_2365588.JPG,,ISIC_0034074.JPG,ISIC_2365588.JPG,false,1,keypress(m),500,323706,323705,320949,320930,320982,323749,8,400,36,,ISIC_0034074.JPG
break,html.Screen,4_85_1,2023-05-02T16:03:15.629Z,,0,,,NaN,,,,,,false,,,,323707,323707,,323706,,323749,8,400,,,
break_continue,html.Screen,4_85_2,2023-05-02T16:03:15.630Z,,0,,,NaN,,,,,,false,,,,323707,323707,,323707,,323749,8,400,,,
sequence,flow.Sequence,4_85,2023-05-02T16:03:15.630Z,,0,,,2725,completion,,,,,false,,,,323707,323707,320949,320930,320982,323749,8,400,,,
trial,html.Screen,4_86_0,2023-05-02T16:03:19.027Z,,0,2,,3388,response,ISIC_0193456.JPG,,ISIC_9278685.JPG,ISIC_9278685.JPG,false,0,keypress(z),500,327104,327103,323715,323707,323749,327149,8,400,37,,ISIC_0193456.JPG
break,html.Screen,4_86_1,2023-05-02T16:03:19.028Z,,0,,,NaN,,,,,,false,,,,327105,327105,,327104,,327149,8,400,,,
break_continue,html.Screen,4_86_2,2023-05-02T16:03:19.028Z,,0,,,NaN,,,,,,false,,,,327106,327105,,327105,,327149,8,400,,,
sequence,flow.Sequence,4_86,2023-05-02T16:03:19.028Z,,0,,,3356,completion,,,,,false,,,,327106,327105,323715,323707,323749,327149,8,400,,,
trial,html.Screen,4_87_0,2023-05-02T16:03:21.835Z,,0,2,,2798,response,ISIC_0024900.JPG,,ISIC_0027171.JPG,ISIC_0024900.JPG,false,1,keypress(m),500,329913,329913,327115,327106,327149,329965,8,400,38,,ISIC_0027171.JPG
break,html.Screen,4_87_1,2023-05-02T16:03:21.837Z,,0,,,NaN,,,,,,false,,,,329914,329914,,329913,,329965,8,400,,,
break_continue,html.Screen,4_87_2,2023-05-02T16:03:21.837Z,,0,,,NaN,,,,,,false,,,,329915,329915,,329914,,329965,8,400,,,
sequence,flow.Sequence,4_87,2023-05-02T16:03:21.837Z,,0,,,2766,completion,,,,,false,,,,329915,329915,327115,327106,327149,329965,8,400,,,
trial,html.Screen,4_88_0,2023-05-02T16:03:24.460Z,,0,2,,2605.000000000058,response,ISIC_0000172.JPG,,ISIC_9688119.JPG,ISIC_9688119.JPG,false,0,keypress(z),500,332538,332537.00000000006,329932,329915,329965,332583,8,400,39,,ISIC_0000172.JPG
break,html.Screen,4_88_1,2023-05-02T16:03:24.461Z,,0,,,NaN,,,,,,false,,,,332539,332539,,332538,,332583,8,400,,,
break_continue,html.Screen,4_88_2,2023-05-02T16:03:24.461Z,,0,,,NaN,,,,,,false,,,,332539,332539,,332539,,332583,8,400,,,
sequence,flow.Sequence,4_88,2023-05-02T16:03:24.462Z,,0,,,2574,completion,,,,,false,,,,332539,332539,329932,329915,329965,332583,8,400,,,
trial,html.Screen,4_89_0,2023-05-02T16:03:27.204Z,,0,2,,2732,response,ISIC_0030932.JPG,,ISIC_0025987.JPG,ISIC_0030932.JPG,false,1,keypress(m),500,335282,335281,332549,332540,332583,335333,8,400,40,,ISIC_0025987.JPG
break,html.Screen,4_89_1,2023-05-02T16:03:27.205Z,,0,,,NaN,,,,,,false,,,,335283,335283,,335282,,335333,8,400,,,
break_continue,html.Screen,4_89_2,2023-05-02T16:03:27.205Z,,0,,,NaN,,,,,,false,,,,335284,335283,,335283,,335333,8,400,,,
sequence,flow.Sequence,4_89,2023-05-02T16:03:27.206Z,,0,,,2700,completion,,,,,false,,,,335284,335283,332549,332540,332583,335333,8,400,,,
trial,html.Screen,4_90_0,2023-05-02T16:03:29.855Z,,0,2,,2634,response,ISIC_0063026.JPG,,ISIC_5993530.JPG,ISIC_5993530.JPG,false,0,keypress(z),500,337933,337933,335299,335284,335333,337983,8,400,41,,ISIC_0063026.JPG
break,html.Screen,4_90_1,2023-05-02T16:03:29.856Z,,0,,,NaN,,,,,,false,,,,337935,337934,,337934,,337983,8,400,,,
break_continue,html.Screen,4_90_2,2023-05-02T16:03:29.857Z,,0,,,NaN,,,,,,false,,,,337935,337935,,337935,,337983,8,400,,,
sequence,flow.Sequence,4_90,2023-05-02T16:03:29.857Z,,0,,,2602,completion,,,,,false,,,,337935,337935,335299,335284,335333,337983,8,400,,,
trial,html.Screen,4_91_0,2023-05-02T16:03:32.903Z,,0,2,,3032,response,ISIC_0024401.JPG,,ISIC_0025169.JPG,ISIC_0025169.JPG,false,0,keypress(z),500,340981,340981,337949,337935,337983,341033,8,400,42,,ISIC_0024401.JPG
break,html.Screen,4_91_1,2023-05-02T16:03:32.904Z,,0,,,NaN,,,,,,false,,,,340982,340982,,340982,,341033,8,400,,,
break_continue,html.Screen,4_91_2,2023-05-02T16:03:32.904Z,,0,,,NaN,,,,,,false,,,,340983,340983,,340983,,341033,8,400,,,
sequence,flow.Sequence,4_91,2023-05-02T16:03:32.905Z,,0,,,3000,completion,,,,,false,,,,340983,340983,337949,337935,337983,341033,8,400,,,
trial,html.Screen,4_92_0,2023-05-02T16:03:36.114Z,,0,2,,3192,response,ISIC_0022328.JPG,,ISIC_0054851.JPG,ISIC_0022328.JPG,false,1,keypress(m),500,344193,344192,341000,340983,341033,344233,8,400,43,,ISIC_0054851.JPG
break,html.Screen,4_92_1,2023-05-02T16:03:36.115Z,,0,,,NaN,,,,,,false,,,,344194,344194,,344193,,344233,8,400,,,
break_continue,html.Screen,4_92_2,2023-05-02T16:03:36.116Z,,0,,,NaN,,,,,,false,,,,344194,344194,,344194,,344233,8,400,,,
sequence,flow.Sequence,4_92,2023-05-02T16:03:36.116Z,,0,,,3161,completion,,,,,false,,,,344195,344194,341000,340983,341033,344233,8,400,,,
trial,html.Screen,4_93_0,2023-05-02T16:03:38.865Z,,0,2,,2744,response,ISIC_6271218.JPG,,ISIC_9193127.JPG,ISIC_6271218.JPG,false,1,keypress(m),500,346943,346943,344199,344195,344233,346983,8,400,44,,ISIC_9193127.JPG
break,html.Screen,4_93_1,2023-05-02T16:03:38.866Z,,0,,,NaN,,,,,,false,,,,346945,346944,,346944,,346983,8,400,,,
break_continue,html.Screen,4_93_2,2023-05-02T16:03:38.866Z,,0,,,NaN,,,,,,false,,,,346945,346945,,346945,,346983,8,400,,,
sequence,flow.Sequence,4_93,2023-05-02T16:03:38.867Z,,0,,,2712,completion,,,,,false,,,,346945,346945,344199,344195,344233,346983,8,400,,,
trial,html.Screen,4_94_0,2023-05-02T16:03:41.918Z,,0,2,,3047,response,ISIC_0027832.JPG,,ISIC_4964478.JPG,ISIC_4964478.JPG,false,0,keypress(z),500,349997,349996,346949,346945,346983,350050,8,400,45,,ISIC_0027832.JPG
break,html.Screen,4_94_1,2023-05-02T16:03:41.919Z,,0,,,NaN,,,,,,false,,,,349998,349998,,349997,,350050,8,400,,,
break_continue,html.Screen,4_94_2,2023-05-02T16:03:41.920Z,,0,,,NaN,,,,,,false,,,,349998,349998,,349998,,350050,8,400,,,
sequence,flow.Sequence,4_94,2023-05-02T16:03:41.920Z,,0,,,3015,completion,,,,,false,,,,349999,349998,346949,346945,346983,350050,8,400,,,
trial,html.Screen,4_95_0,2023-05-02T16:03:45.370Z,,0,2,,3431,response,ISIC_0072195.JPG,,ISIC_6759173.JPG,ISIC_0072195.JPG,false,1,keypress(m),500,353449,353448,350017,349999,350050,353500,8,400,46,,ISIC_6759173.JPG
break,html.Screen,4_95_1,2023-05-02T16:03:45.371Z,,0,,,NaN,,,,,,false,,,,353450,353450,,353449,,353500,8,400,,,
break_continue,html.Screen,4_95_2,2023-05-02T16:03:45.371Z,,0,,,NaN,,,,,,false,,,,353450,353450,,353450,,353500,8,400,,,
sequence,flow.Sequence,4_95,2023-05-02T16:03:45.371Z,,0,,,3400,completion,,,,,false,,,,353450,353450,350017,349999,350050,353500,8,400,,,
trial,html.Screen,4_96_0,2023-05-02T16:03:48.089Z,,0,2,,2700.000000000058,response,ISIC_0027271.JPG,,ISIC_0032426.JPG,ISIC_0027271.JPG,false,1,keypress(m),500,356168,356167.00000000006,353467,353451,353500,356217,8,400,47,,ISIC_0032426.JPG
break,html.Screen,4_96_1,2023-05-02T16:03:48.090Z,,0,,,NaN,,,,,,false,,,,356169,356169,,356168,,356217,8,400,,,
break_continue,html.Screen,4_96_2,2023-05-02T16:03:48.090Z,,0,,,NaN,,,,,,false,,,,356169,356169,,356169,,356217,8,400,,,
sequence,flow.Sequence,4_96,2023-05-02T16:03:48.091Z,,0,,,2669,completion,,,,,false,,,,356170,356169,353467,353451,353500,356217,8,400,,,
trial,html.Screen,4_97_0,2023-05-02T16:03:50.932Z,,0,2,,2827,response,ISIC_0002578.JPG,,ISIC_0030824.JPG,ISIC_0002578.JPG,false,1,keypress(m),500,359012,359011,356184,356170,356217,359051,8,400,48,,ISIC_0030824.JPG
break,html.Screen,4_97_1,2023-05-02T16:03:50.933Z,,0,,,NaN,,,,,,false,,,,359013.00000000006,359013.00000000006,,359012,,359051,8,400,,,
break_continue,html.Screen,4_97_2,2023-05-02T16:03:50.934Z,,0,,,NaN,,,,,,false,,,,359013.00000000006,359013.00000000006,,359013.00000000006,,359051,8,400,,,
sequence,flow.Sequence,4_97,2023-05-02T16:03:50.934Z,,0,,,2796.000000000058,completion,,,,,false,,,,359013.00000000006,359013.00000000006,356184,356170,356217,359051,8,400,,,
trial,html.Screen,4_98_0,2023-05-02T16:03:53.750Z,,0,2,,2812,response,ISIC_1254469.JPG,,ISIC_5324623.JPG,ISIC_1254469.JPG,false,1,keypress(m),500,361829,361829,359017,359014,359051,361867,8,400,49,,ISIC_5324623.JPG
break,html.Screen,4_98_1,2023-05-02T16:03:53.751Z,,0,,,NaN,,,,,,false,,,,361830,361830,,361830,,361867,8,400,,,
break_continue,html.Screen,4_98_2,2023-05-02T16:03:53.751Z,,0,,,NaN,,,,,,false,,,,361831,361830,,361830,,361867,8,400,,,
sequence,flow.Sequence,4_98,2023-05-02T16:03:53.751Z,,0,,,2779,completion,,,,,false,,,,361831,361830,359017,359014,359051,361867,8,400,,,
trial,html.Screen,4_99_0,2023-05-02T16:03:56.492Z,,0,2,,2738,response,ISIC_7539727.JPG,,ISIC_1296490.JPG,ISIC_1296490.JPG,false,0,keypress(z),500,364571,364571,361833,361831,361867,364618,8,400,50,,ISIC_7539727.JPG
break,html.Screen,4_99_1,2023-05-02T16:04:01.505Z,,0,,,5000,timeout,,,,,false,,,,369585,369584,364584,364572,364618,369618,8,400,,,
break_continue,html.Screen,4_99_2,2023-05-02T16:04:02.415Z,,0,,,951,response,,,,,false,continue,keypress(Space),,370495,370535,369584,369585,369618,370534,8,400,,,
sequence,flow.Sequence,4_99,2023-05-02T16:04:02.415Z,,0,,,8668,completion,,,,,false,,,,370496,370535,361833,361831,361867,370534,8,400,,,
trial,html.Screen,4_100_0,2023-05-02T16:04:05.487Z,,0,3,,3067,response,ISIC_0032510.JPG,,ISIC_0032360.JPG,ISIC_0032360.JPG,false,0,keypress(z),500,373567,373567,370500,370496,370534,373618,8,400,1,,ISIC_0032510.JPG
break,html.Screen,4_100_1,2023-05-02T16:04:05.488Z,,0,,,NaN,,,,,,false,,,,373568,373568,,373568,,373618,8,400,,,
break_continue,html.Screen,4_100_2,2023-05-02T16:04:05.488Z,,0,,,NaN,,,,,,false,,,,373569,373568,,373568,,373618,8,400,,,
sequence,flow.Sequence,4_100,2023-05-02T16:04:05.488Z,,0,,,3034,completion,,,,,false,,,,373569,373568,370500,370496,370534,373618,8,400,,,
trial,html.Screen,4_101_0,2023-05-02T16:04:08.469Z,,0,3,,2964.000000000058,response,ISIC_6380209.JPG,,ISIC_0069859.JPG,ISIC_0069859.JPG,false,0,keypress(z),500,376549.00000000006,376549.00000000006,373585,373569,373618,376602,8,400,2,,ISIC_6380209.JPG
break,html.Screen,4_101_1,2023-05-02T16:04:08.470Z,,0,,,NaN,,,,,,false,,,,376551,376551,,376550,,376602,8,400,,,
break_continue,html.Screen,4_101_2,2023-05-02T16:04:08.471Z,,0,,,NaN,,,,,,false,,,,376551,376551,,376551,,376602,8,400,,,
sequence,flow.Sequence,4_101,2023-05-02T16:04:08.471Z,,0,,,2933,completion,,,,,false,,,,376552,376551,373585,373569,373618,376602,8,400,,,
trial,html.Screen,4_102_0,2023-05-02T16:04:11.208Z,,0,3,,2720,response,ISIC_8417873.JPG,,ISIC_1608727.JPG,ISIC_1608727.JPG,false,0,keypress(z),500,379289,379288,376568,376552,376602,379335,8,400,3,,ISIC_8417873.JPG
break,html.Screen,4_102_1,2023-05-02T16:04:11.209Z,,0,,,NaN,,,,,,false,,,,379290,379290,,379289,,379335,8,400,,,
break_continue,html.Screen,4_102_2,2023-05-02T16:04:11.210Z,,0,,,NaN,,,,,,false,,,,379290,379290,,379290,,379335,8,400,,,
sequence,flow.Sequence,4_102,2023-05-02T16:04:11.210Z,,0,,,2688,completion,,,,,false,,,,379290,379290,376568,376552,376602,379335,8,400,,,
trial,html.Screen,4_103_0,2023-05-02T16:04:13.920Z,,0,3,,2698,response,ISIC_7928137.JPG,,ISIC_0000174.JPG,ISIC_7928137.JPG,false,1,keypress(m),500,382001.00000000006,382000,379302,379291,379335,382052,8,400,4,,ISIC_0000174.JPG
break,html.Screen,4_103_1,2023-05-02T16:04:13.921Z,,0,,,NaN,,,,,,false,,,,382002,382002,,382001.00000000006,,382052,8,400,,,
break_continue,html.Screen,4_103_2,2023-05-02T16:04:13.922Z,,0,,,NaN,,,,,,false,,,,382003,382003,,382002,,382052,8,400,,,
sequence,flow.Sequence,4_103,2023-05-02T16:04:13.922Z,,0,,,2668,completion,,,,,false,,,,382003,382003,379302,379291,379335,382052,8,400,,,
trial,html.Screen,4_104_0,2023-05-02T16:04:16.974Z,,0,3,,3037,response,ISIC_5938680.JPG,,ISIC_2999018.JPG,ISIC_2999018.JPG,false,0,keypress(z),500,385055,385055,382018,382003,382052,385102,8,400,5,,ISIC_5938680.JPG
break,html.Screen,4_104_1,2023-05-02T16:04:16.975Z,,0,,,NaN,,,,,,false,,,,385056,385056,,385056,,385102,8,400,,,
break_continue,html.Screen,4_104_2,2023-05-02T16:04:16.976Z,,0,,,NaN,,,,,,false,,,,385057,385057,,385057,,385102,8,400,,,
sequence,flow.Sequence,4_104,2023-05-02T16:04:16.976Z,,0,,,3005,completion,,,,,false,,,,385057,385057,382018,382003,382052,385102,8,400,,,
trial,html.Screen,4_105_0,2023-05-02T16:04:19.655Z,,0,3,,2667,response,ISIC_0002041.JPG,,ISIC_0067094.JPG,ISIC_0002041.JPG,false,1,keypress(m),500,387736,387736,385069,385057,385102,387785,8,400,6,,ISIC_0067094.JPG
break,html.Screen,4_105_1,2023-05-02T16:04:19.656Z,,0,,,NaN,,,,,,false,,,,387738,387737,,387737,,387785,8,400,,,
break_continue,html.Screen,4_105_2,2023-05-02T16:04:19.657Z,,0,,,NaN,,,,,,false,,,,387738,387738,,387738,,387785,8,400,,,
sequence,flow.Sequence,4_105,2023-05-02T16:04:19.657Z,,0,,,2636,completion,,,,,false,,,,387738,387738,385069,385057,385102,387785,8,400,,,
trial,html.Screen,4_106_0,2023-05-02T16:04:22.296Z,,0,3,,2625,response,ISIC_2007034.JPG,,ISIC_7186677.JPG,ISIC_2007034.JPG,false,1,keypress(m),500,390378,390377,387752,387738,387785,390419,8,400,7,,ISIC_7186677.JPG
break,html.Screen,4_106_1,2023-05-02T16:04:22.298Z,,0,,,NaN,,,,,,false,,,,390379,390379,,390378,,390419,8,400,,,
break_continue,html.Screen,4_106_2,2023-05-02T16:04:22.298Z,,0,,,NaN,,,,,,false,,,,390379,390379,,390379,,390419,8,400,,,
sequence,flow.Sequence,4_106,2023-05-02T16:04:22.298Z,,0,,,2594,completion,,,,,false,,,,390380,390379,387752,387738,387785,390419,8,400,,,
trial,html.Screen,4_107_0,2023-05-02T16:04:24.964Z,,0,3,,2660,response,ISIC_1490986.JPG,,ISIC_6732560.JPG,ISIC_6732560.JPG,false,0,keypress(z),500,393045,393045,390385,390380,390419,393085,8,400,8,,ISIC_1490986.JPG
break,html.Screen,4_107_1,2023-05-02T16:04:24.965Z,,0,,,NaN,,,,,,false,,,,393046,393046,,393046,,393085,8,400,,,
break_continue,html.Screen,4_107_2,2023-05-02T16:04:24.965Z,,0,,,NaN,,,,,,false,,,,393047,393047,,393046,,393085,8,400,,,
sequence,flow.Sequence,4_107,2023-05-02T16:04:24.965Z,,0,,,2628,completion,,,,,false,,,,393047,393047,390385,390380,390419,393085,8,400,,,
trial,html.Screen,4_108_0,2023-05-02T16:04:27.700Z,,0,3,,2729,response,ISIC_0010235.JPG,,ISIC_3685448.JPG,ISIC_3685448.JPG,false,0,keypress(z),500,395782,395781,393052,393047,393085,395819,8,400,9,,ISIC_0010235.JPG
break,html.Screen,4_108_1,2023-05-02T16:04:27.701Z,,0,,,NaN,,,,,,false,,,,395783,395783,,395782,,395819,8,400,,,
break_continue,html.Screen,4_108_2,2023-05-02T16:04:27.702Z,,0,,,NaN,,,,,,false,,,,395783,395783,,395783,,395819,8,400,,,
sequence,flow.Sequence,4_108,2023-05-02T16:04:27.702Z,,0,,,2698,completion,,,,,false,,,,395783,395783,393052,393047,393085,395819,8,400,,,
trial,html.Screen,4_109_0,2023-05-02T16:04:30.505Z,,0,3,,2801,response,ISIC_0031821.JPG,,ISIC_0411688.JPG,ISIC_0031821.JPG,false,1,keypress(m),500,398587,398587,395786,395784,395819,398636,8,400,10,,ISIC_0411688.JPG
break,html.Screen,4_109_1,2023-05-02T16:04:30.506Z,,0,,,NaN,,,,,,false,,,,398588,398588,,398587,,398636,8,400,,,
break_continue,html.Screen,4_109_2,2023-05-02T16:04:30.507Z,,0,,,NaN,,,,,,false,,,,398588,398588,,398588,,398636,8,400,,,
sequence,flow.Sequence,4_109,2023-05-02T16:04:30.507Z,,0,,,2769,completion,,,,,false,,,,398589,398588,395786,395783,395819,398636,8,400,,,
trial,html.Screen,4_110_0,2023-05-02T16:04:33.236Z,,0,3,,2715,response,ISIC_0010533.JPG,,ISIC_0011350.JPG,ISIC_0010533.JPG,false,1,keypress(m),500,401318,401318,398603,398589,398636,401369,8,400,11,,ISIC_0011350.JPG
break,html.Screen,4_110_1,2023-05-02T16:04:33.237Z,,0,,,NaN,,,,,,false,,,,401319,401319,,401319,,401369,8,400,,,
break_continue,html.Screen,4_110_2,2023-05-02T16:04:33.238Z,,0,,,NaN,,,,,,false,,,,401320,401319,,401319,,401369,8,400,,,
sequence,flow.Sequence,4_110,2023-05-02T16:04:33.238Z,,0,,,2683,completion,,,,,false,,,,401320,401319,398603,398589,398636,401369,8,400,,,
trial,html.Screen,4_111_0,2023-05-02T16:04:36.369Z,,0,3,,3114,response,ISIC_0009048.JPG,,ISIC_0580054.JPG,ISIC_0009048.JPG,false,1,keypress(m),500,404451,404450,401336,401320,401369,404503,8,400,12,,ISIC_0580054.JPG
break,html.Screen,4_111_1,2023-05-02T16:04:36.370Z,,0,,,NaN,,,,,,false,,,,404452,404452,,404451,,404503,8,400,,,
break_continue,html.Screen,4_111_2,2023-05-02T16:04:36.370Z,,0,,,NaN,,,,,,false,,,,404453.00000000006,404452,,404452,,404503,8,400,,,
sequence,flow.Sequence,4_111,2023-05-02T16:04:36.370Z,,0,,,3083,completion,,,,,false,,,,404453.00000000006,404452,401336,401320,401369,404503,8,400,,,
trial,html.Screen,4_112_0,2023-05-02T16:04:39.556Z,,0,3,,3168.000000000058,response,ISIC_0030356.JPG,,ISIC_0906465.JPG,ISIC_0906465.JPG,false,0,keypress(z),500,407639,407638.00000000006,404470,404453.00000000006,404503,407686,8,400,13,,ISIC_0030356.JPG
break,html.Screen,4_112_1,2023-05-02T16:04:39.557Z,,0,,,NaN,,,,,,false,,,,407640,407639,,407639,,407686,8,400,,,
break_continue,html.Screen,4_112_2,2023-05-02T16:04:39.558Z,,0,,,NaN,,,,,,false,,,,407640,407640,,407640,,407686,8,400,,,
sequence,flow.Sequence,4_112,2023-05-02T16:04:39.558Z,,0,,,3137,completion,,,,,false,,,,407640,407640,404470,404453.00000000006,404503,407686,8,400,,,
trial,html.Screen,4_113_0,2023-05-02T16:04:42.454Z,,0,3,,2883,response,ISIC_0032152.JPG,,ISIC_5309572.JPG,ISIC_5309572.JPG,false,0,keypress(z),500,410536,410536,407653,407640,407686,410587,8,400,14,,ISIC_0032152.JPG
break,html.Screen,4_113_1,2023-05-02T16:04:42.455Z,,0,,,NaN,,,,,,false,,,,410538,410537.00000000006,,410536,,410587,8,400,,,
break_continue,html.Screen,4_113_2,2023-05-02T16:04:42.455Z,,0,,,NaN,,,,,,false,,,,410538,410538,,410538,,410587,8,400,,,
sequence,flow.Sequence,4_113,2023-05-02T16:04:42.456Z,,0,,,2852,completion,,,,,false,,,,410538,410538,407653,407640,407686,410587,8,400,,,
trial,html.Screen,4_114_0,2023-05-02T16:04:45.223Z,,0,3,,2752,response,ISIC_0032987.JPG,,ISIC_0000315.JPG,ISIC_0000315.JPG,false,0,keypress(z),500,413306,413305,410553,410538,410587,413353,8,400,15,,ISIC_0032987.JPG
break,html.Screen,4_114_1,2023-05-02T16:04:45.224Z,,0,,,NaN,,,,,,false,,,,413307,413307,,413306,,413353,8,400,,,
break_continue,html.Screen,4_114_2,2023-05-02T16:04:45.224Z,,0,,,NaN,,,,,,false,,,,413307,413307,,413307,,413353,8,400,,,
sequence,flow.Sequence,4_114,2023-05-02T16:04:45.225Z,,0,,,2720,completion,,,,,false,,,,413307,413307,410553,410538,410587,413353,8,400,,,
trial,html.Screen,4_115_0,2023-05-02T16:04:48.248Z,,0,3,,3010,response,ISIC_0026360.JPG,,ISIC_2046891.JPG,ISIC_2046891.JPG,false,0,keypress(z),500,416331,416330,413320,413307,413353,416370,8,400,16,,ISIC_0026360.JPG
break,html.Screen,4_115_1,2023-05-02T16:04:48.249Z,,0,,,NaN,,,,,,false,,,,416332,416332,,416331,,416370,8,400,,,
break_continue,html.Screen,4_115_2,2023-05-02T16:04:48.250Z,,0,,,NaN,,,,,,false,,,,416332,416332,,416332,,416370,8,400,,,
sequence,flow.Sequence,4_115,2023-05-02T16:04:48.250Z,,0,,,2979,completion,,,,,false,,,,416333,416332,413320,413307,413353,416370,8,400,,,
trial,html.Screen,4_116_0,2023-05-02T16:04:51.056Z,,0,3,,2802.000000000058,response,ISIC_2383335.JPG,,ISIC_9053988.JPG,ISIC_9053988.JPG,false,0,keypress(z),500,419139,419138.00000000006,416336,416333,416370,419187,8,400,17,,ISIC_2383335.JPG
break,html.Screen,4_116_1,2023-05-02T16:04:51.057Z,,0,,,NaN,,,,,,false,,,,419140,419140,,419139,,419187,8,400,,,
break_continue,html.Screen,4_116_2,2023-05-02T16:04:51.057Z,,0,,,NaN,,,,,,false,,,,419140,419140,,419140,,419187,8,400,,,
sequence,flow.Sequence,4_116,2023-05-02T16:04:51.057Z,,0,,,2770,completion,,,,,false,,,,419141,419140,416336,416333,416370,419187,8,400,,,
trial,html.Screen,4_117_0,2023-05-02T16:04:53.779Z,,0,3,,2710.000000000058,response,ISIC_0033534.JPG,,ISIC_6714082.JPG,ISIC_6714082.JPG,false,0,keypress(z),500,421865,421864.00000000006,419154,419141,419187,421903,8,400,18,,ISIC_0033534.JPG
break,html.Screen,4_117_1,2023-05-02T16:04:53.780Z,,0,,,NaN,,,,,,false,,,,421866,421866,,421865,,421903,8,400,,,
break_continue,html.Screen,4_117_2,2023-05-02T16:04:53.781Z,,0,,,NaN,,,,,,false,,,,421866,421866,,421866,,421903,8,400,,,
sequence,flow.Sequence,4_117,2023-05-02T16:04:53.781Z,,0,,,2679,completion,,,,,false,,,,421867,421866,419154,419141,419187,421903,8,400,,,
trial,html.Screen,4_118_0,2023-05-02T16:04:57.020Z,,0,3,,3238,response,ISIC_8265105.JPG,,ISIC_7885010.JPG,ISIC_7885010.JPG,false,0,keypress(z),500,425109,425108,421870,421867,421903,425154,8,400,19,,ISIC_8265105.JPG
break,html.Screen,4_118_1,2023-05-02T16:04:57.021Z,,0,,,NaN,,,,,,false,,,,425110,425110,,425109,,425154,8,400,,,
break_continue,html.Screen,4_118_2,2023-05-02T16:04:57.022Z,,0,,,NaN,,,,,,false,,,,425110,425110,,425110,,425154,8,400,,,
sequence,flow.Sequence,4_118,2023-05-02T16:04:57.022Z,,0,,,3207,completion,,,,,false,,,,425110,425110,421870,421867,421903,425154,8,400,,,
trial,html.Screen,4_119_0,2023-05-02T16:05:00.630Z,,0,3,,3599,response,ISIC_4348994.JPG,,ISIC_0024219.JPG,ISIC_4348994.JPG,false,1,keypress(m),500,428721,428720,425121,425110,425154,428771,8,400,20,,ISIC_0024219.JPG
break,html.Screen,4_119_1,2023-05-02T16:05:00.631Z,,0,,,NaN,,,,,,false,,,,428722.00000000006,428721,,428721,,428771,8,400,,,
break_continue,html.Screen,4_119_2,2023-05-02T16:05:00.631Z,,0,,,NaN,,,,,,false,,,,428722.00000000006,428722.00000000006,,428722.00000000006,,428771,8,400,,,
sequence,flow.Sequence,4_119,2023-05-02T16:05:00.631Z,,0,,,3568.000000000058,completion,,,,,false,,,,428722.00000000006,428722.00000000006,425121,425110,425154,428771,8,400,,,
trial,html.Screen,4_120_0,2023-05-02T16:05:03.891Z,,0,3,,3246,response,ISIC_6712342.JPG,,ISIC_8082460.JPG,ISIC_8082460.JPG,false,0,keypress(z),500,431983,431983,428737,428722.00000000006,428771,432038,8,400,21,,ISIC_6712342.JPG
break,html.Screen,4_120_1,2023-05-02T16:05:03.891Z,,0,,,NaN,,,,,,false,,,,431984.00000000006,431984.00000000006,,431983,,432038,8,400,,,
break_continue,html.Screen,4_120_2,2023-05-02T16:05:03.892Z,,0,,,NaN,,,,,,false,,,,431985,431984.00000000006,,431984.00000000006,,432038,8,400,,,
sequence,flow.Sequence,4_120,2023-05-02T16:05:03.892Z,,0,,,3213.000000000058,completion,,,,,false,,,,431985,431984.00000000006,428737,428722.00000000006,428771,432038,8,400,,,
trial,html.Screen,4_121_0,2023-05-02T16:05:06.746Z,,0,3,,2835,response,ISIC_8664718.JPG,,ISIC_0005879.JPG,ISIC_0005879.JPG,false,0,keypress(z),500,434840.00000000006,434839,432004,431985,432038,434888,8,400,22,,ISIC_8664718.JPG
break,html.Screen,4_121_1,2023-05-02T16:05:06.747Z,,0,,,NaN,,,,,,false,,,,434841,434841,,434840.00000000006,,434888,8,400,,,
break_continue,html.Screen,4_121_2,2023-05-02T16:05:06.747Z,,0,,,NaN,,,,,,false,,,,434841,434841,,434841,,434888,8,400,,,
sequence,flow.Sequence,4_121,2023-05-02T16:05:06.748Z,,0,,,2803,completion,,,,,false,,,,434842,434841,432004,431985,432038,434888,8,400,,,
trial,html.Screen,4_122_0,2023-05-02T16:05:09.792Z,,0,3,,3032,response,ISIC_0199116.JPG,,ISIC_0002878.JPG,ISIC_0002878.JPG,false,0,keypress(z),500,437888.00000000006,437887,434855,434842,434888,437938,8,400,23,,ISIC_0199116.JPG
break,html.Screen,4_122_1,2023-05-02T16:05:09.793Z,,0,,,NaN,,,,,,false,,,,437889,437888.00000000006,,437888.00000000006,,437938,8,400,,,
break_continue,html.Screen,4_122_2,2023-05-02T16:05:09.794Z,,0,,,NaN,,,,,,false,,,,437889,437889,,437889,,437938,8,400,,,
sequence,flow.Sequence,4_122,2023-05-02T16:05:09.794Z,,0,,,3001,completion,,,,,false,,,,437889,437889,434855,434842,434888,437938,8,400,,,
trial,html.Screen,4_123_0,2023-05-02T16:05:12.527Z,,0,3,,2718,response,ISIC_8292279.JPG,,ISIC_0056531.JPG,ISIC_8292279.JPG,false,1,keypress(m),500,440624,440623,437905,437889,437938,440671,8,400,24,,ISIC_0056531.JPG
break,html.Screen,4_123_1,2023-05-02T16:05:12.529Z,,0,,,NaN,,,,,,false,,,,440625,440624,,440624,,440671,8,400,,,
break_continue,html.Screen,4_123_2,2023-05-02T16:05:12.529Z,,0,,,NaN,,,,,,false,,,,440625,440625,,440625,,440671,8,400,,,
sequence,flow.Sequence,4_123,2023-05-02T16:05:12.529Z,,0,,,2687,completion,,,,,false,,,,440625,440625,437905,437889,437938,440671,8,400,,,
trial,html.Screen,4_124_0,2023-05-02T16:05:16.458Z,,0,3,,3916.000000000058,response,ISIC_6547707.JPG,,ISIC_8649055.JPG,ISIC_8649055.JPG,false,0,keypress(z),500,444555,444554.00000000006,440638,440625,440671,444605,8,400,25,,ISIC_6547707.JPG
break,html.Screen,4_124_1,2023-05-02T16:05:16.459Z,,0,,,NaN,,,,,,false,,,,444556,444556,,444555,,444605,8,400,,,
break_continue,html.Screen,4_124_2,2023-05-02T16:05:16.459Z,,0,,,NaN,,,,,,false,,,,444556,444556,,444556,,444605,8,400,,,
sequence,flow.Sequence,4_124,2023-05-02T16:05:16.459Z,,0,,,3885,completion,,,,,false,,,,444557,444556,440638,440625,440671,444605,8,400,,,
trial,html.Screen,4_125_0,2023-05-02T16:05:19.503Z,,0,3,,3028,response,ISIC_0064107.JPG,,ISIC_0160831.JPG,ISIC_0064107.JPG,false,1,keypress(m),500,447601,447600,444572,444557,444605,447655,8,400,26,,ISIC_0160831.JPG
break,html.Screen,4_125_1,2023-05-02T16:05:19.505Z,,0,,,NaN,,,,,,false,,,,447603,447602.00000000006,,447602.00000000006,,447655,8,400,,,
break_continue,html.Screen,4_125_2,2023-05-02T16:05:19.505Z,,0,,,NaN,,,,,,false,,,,447603,447603,,447603,,447655,8,400,,,
sequence,flow.Sequence,4_125,2023-05-02T16:05:19.506Z,,0,,,2998,completion,,,,,false,,,,447603,447603,444572,444557,444605,447655,8,400,,,
trial,html.Screen,4_126_0,2023-05-02T16:05:22.870Z,,0,3,,3346,response,ISIC_5132214.JPG,,ISIC_0013429.JPG,ISIC_5132214.JPG,false,1,keypress(m),500,450969,450968,447622,447604,447655,451022,8,400,27,,ISIC_0013429.JPG
break,html.Screen,4_126_1,2023-05-02T16:05:22.871Z,,0,,,NaN,,,,,,false,,,,450970,450969,,450969,,451022,8,400,,,
break_continue,html.Screen,4_126_2,2023-05-02T16:05:22.871Z,,0,,,NaN,,,,,,false,,,,450970,450970,,450970,,451022,8,400,,,
sequence,flow.Sequence,4_126,2023-05-02T16:05:22.872Z,,0,,,3315,completion,,,,,false,,,,450970,450970,447622,447604,447655,451022,8,400,,,
trial,html.Screen,4_127_0,2023-05-02T16:05:25.670Z,,0,3,,2779,response,ISIC_2166957.JPG,,ISIC_0033975.JPG,ISIC_2166957.JPG,false,1,keypress(m),500,453769,453768,450989,450970,451022,453822,8,400,28,,ISIC_0033975.JPG
break,html.Screen,4_127_1,2023-05-02T16:05:25.671Z,,0,,,NaN,,,,,,false,,,,453770,453770,,453769,,453822,8,400,,,
break_continue,html.Screen,4_127_2,2023-05-02T16:05:25.672Z,,0,,,NaN,,,,,,false,,,,453771,453771,,453771,,453822,8,400,,,
sequence,flow.Sequence,4_127,2023-05-02T16:05:25.672Z,,0,,,2749,completion,,,,,false,,,,453771,453771,450989,450970,451022,453822,8,400,,,
trial,html.Screen,4_128_0,2023-05-02T16:05:28.469Z,,0,3,,2779,response,ISIC_0061441.JPG,,ISIC_4771769.JPG,ISIC_4771769.JPG,false,0,keypress(z),500,456569,456568,453789,453771,453822,456622,8,400,29,,ISIC_0061441.JPG
break,html.Screen,4_128_1,2023-05-02T16:05:28.470Z,,0,,,NaN,,,,,,false,,,,456570,456570,,456569,,456622,8,400,,,
break_continue,html.Screen,4_128_2,2023-05-02T16:05:28.471Z,,0,,,NaN,,,,,,false,,,,456570,456570,,456570,,456622,8,400,,,
sequence,flow.Sequence,4_128,2023-05-02T16:05:28.471Z,,0,,,2748,completion,,,,,false,,,,456571,456570,453789,453771,453822,456622,8,400,,,
trial,html.Screen,4_129_0,2023-05-02T16:05:31.924Z,,0,3,,3434,response,ISIC_0027149.JPG,,ISIC_0012722.JPG,ISIC_0012722.JPG,false,0,keypress(z),500,460024,460023,456589,456571,456622,460072,8,400,30,,ISIC_0027149.JPG
break,html.Screen,4_129_1,2023-05-02T16:05:31.925Z,,0,,,NaN,,,,,,false,,,,460025.00000000006,460025.00000000006,,460024,,460072,8,400,,,
break_continue,html.Screen,4_129_2,2023-05-02T16:05:31.926Z,,0,,,NaN,,,,,,false,,,,460026,460026,,460026,,460072,8,400,,,
sequence,flow.Sequence,4_129,2023-05-02T16:05:31.926Z,,0,,,3404,completion,,,,,false,,,,460026,460026,456589,456571,456622,460072,8,400,,,
trial,html.Screen,4_130_0,2023-05-02T16:05:35.115Z,,0,3,,3176.000000000058,response,ISIC_6255113.JPG,,ISIC_5810696.JPG,ISIC_6255113.JPG,false,1,keypress(m),500,463215.00000000006,463215.00000000006,460039,460026,460072,463256,8,400,31,,ISIC_5810696.JPG
break,html.Screen,4_130_1,2023-05-02T16:05:35.116Z,,0,,,NaN,,,,,,false,,,,463217,463216,,463216,,463256,8,400,,,
break_continue,html.Screen,4_130_2,2023-05-02T16:05:35.117Z,,0,,,NaN,,,,,,false,,,,463217,463217,,463217,,463256,8,400,,,
sequence,flow.Sequence,4_130,2023-05-02T16:05:35.117Z,,0,,,3145,completion,,,,,false,,,,463217,463217,460039,460026,460072,463256,8,400,,,
trial,html.Screen,4_131_0,2023-05-02T16:05:39.247Z,,0,3,,4125.000000000058,response,ISIC_0072507.JPG,,ISIC_0024226.JPG,ISIC_0024226.JPG,false,0,keypress(z),500,467348,467347.00000000006,463222,463217,463256,467390,8,400,32,,ISIC_0072507.JPG
break,html.Screen,4_131_1,2023-05-02T16:05:39.248Z,,0,,,NaN,,,,,,false,,,,467349,467349,,467348,,467390,8,400,,,
break_continue,html.Screen,4_131_2,2023-05-02T16:05:39.248Z,,0,,,NaN,,,,,,false,,,,467349,467349,,467349,,467390,8,400,,,
sequence,flow.Sequence,4_131,2023-05-02T16:05:39.249Z,,0,,,4093,completion,,,,,false,,,,467350,467349,463222,463217,463256,467390,8,400,,,
trial,html.Screen,4_132_0,2023-05-02T16:05:42.556Z,,0,3,,3300,response,ISIC_0028394.JPG,,ISIC_9483306.JPG,ISIC_9483306.JPG,false,0,keypress(z),500,470657,470656,467356,467350,467390,470706,8,400,33,,ISIC_0028394.JPG
break,html.Screen,4_132_1,2023-05-02T16:05:42.557Z,,0,,,NaN,,,,,,false,,,,470658,470658,,470657,,470706,8,400,,,
break_continue,html.Screen,4_132_2,2023-05-02T16:05:42.557Z,,0,,,NaN,,,,,,false,,,,470658,470658,,470658,,470706,8,400,,,
sequence,flow.Sequence,4_132,2023-05-02T16:05:42.557Z,,0,,,3268,completion,,,,,false,,,,470659,470658,467356,467350,467390,470706,8,400,,,
trial,html.Screen,4_133_0,2023-05-02T16:05:46.640Z,,0,3,,4068,response,ISIC_2823287.JPG,,ISIC_0000445.JPG,ISIC_0000445.JPG,false,0,keypress(z),500,474741,474741,470673,470659,470706,474790,8,400,34,,ISIC_2823287.JPG
break,html.Screen,4_133_1,2023-05-02T16:05:46.641Z,,0,,,NaN,,,,,,false,,,,474743,474742,,474742,,474790,8,400,,,
break_continue,html.Screen,4_133_2,2023-05-02T16:05:46.641Z,,0,,,NaN,,,,,,false,,,,474743,474743,,474743,,474790,8,400,,,
sequence,flow.Sequence,4_133,2023-05-02T16:05:46.642Z,,0,,,4037,completion,,,,,false,,,,474743,474743,470673,470659,470706,474790,8,400,,,
trial,html.Screen,4_134_0,2023-05-02T16:05:49.344Z,,0,3,,2688,response,ISIC_5226371.JPG,,ISIC_0058151.JPG,ISIC_5226371.JPG,false,1,keypress(m),500,477446,477445,474757,474743,474790,477490,8,400,35,,ISIC_0058151.JPG
break,html.Screen,4_134_1,2023-05-02T16:05:49.345Z,,0,,,NaN,,,,,,false,,,,477447,477447,,477446,,477490,8,400,,,
break_continue,html.Screen,4_134_2,2023-05-02T16:05:49.345Z,,0,,,NaN,,,,,,false,,,,477447,477447,,477447,,477490,8,400,,,
sequence,flow.Sequence,4_134,2023-05-02T16:05:49.346Z,,0,,,2657,completion,,,,,false,,,,477448.00000000006,477447,474757,474743,474790,477490,8,400,,,
trial,html.Screen,4_135_0,2023-05-02T16:05:51.846Z,,0,3,,2490,response,ISIC_0292775.JPG,,ISIC_7128811.JPG,ISIC_7128811.JPG,false,0,keypress(z),500,479948.00000000006,479947,477457,477448.00000000006,477490,479990,8,400,36,,ISIC_0292775.JPG
break,html.Screen,4_135_1,2023-05-02T16:05:51.847Z,,0,,,NaN,,,,,,false,,,,479949,479949,,479948.00000000006,,479990,8,400,,,
break_continue,html.Screen,4_135_2,2023-05-02T16:05:51.848Z,,0,,,NaN,,,,,,false,,,,479950,479949,,479949,,479990,8,400,,,
sequence,flow.Sequence,4_135,2023-05-02T16:05:51.848Z,,0,,,2459,completion,,,,,false,,,,479950,479949,477457,477448.00000000006,477490,479990,8,400,,,
trial,html.Screen,4_136_0,2023-05-02T16:05:54.373Z,,0,3,,2518,response,ISIC_8651765.JPG,,ISIC_0053469.JPG,ISIC_8651765.JPG,false,1,keypress(m),500,482475,482474,479956,479950,479990,482524,8,400,37,,ISIC_0053469.JPG
break,html.Screen,4_136_1,2023-05-02T16:05:54.374Z,,0,,,NaN,,,,,,false,,,,482476,482476,,482475,,482524,8,400,,,
break_continue,html.Screen,4_136_2,2023-05-02T16:05:54.374Z,,0,,,NaN,,,,,,false,,,,482477.00000000006,482476,,482476,,482524,8,400,,,
sequence,flow.Sequence,4_136,2023-05-02T16:05:54.375Z,,0,,,2486,completion,,,,,false,,,,482477.00000000006,482476,479956,479950,479990,482524,8,400,,,
trial,html.Screen,4_137_0,2023-05-02T16:05:56.865Z,,0,3,,2477,response,ISIC_1078854.JPG,,ISIC_5798331.JPG,ISIC_1078854.JPG,false,1,keypress(m),500,484968,484967,482490,482477.00000000006,482524,485007,8,400,38,,ISIC_5798331.JPG
break,html.Screen,4_137_1,2023-05-02T16:05:56.867Z,,0,,,NaN,,,,,,false,,,,484969,484969,,484968,,485007,8,400,,,
break_continue,html.Screen,4_137_2,2023-05-02T16:05:56.867Z,,0,,,NaN,,,,,,false,,,,484969,484969,,484969,,485007,8,400,,,
sequence,flow.Sequence,4_137,2023-05-02T16:05:56.867Z,,0,,,2445,completion,,,,,false,,,,484970,484969,482490,482477.00000000006,482524,485007,8,400,,,
trial,html.Screen,4_138_0,2023-05-02T16:05:59.584Z,,0,3,,2712.000000000058,response,ISIC_6253295.JPG,,ISIC_0010860.JPG,ISIC_6253295.JPG,false,1,keypress(m),500,487687,487686.00000000006,484974,484970,485007,487724,8,400,39,,ISIC_0010860.JPG
break,html.Screen,4_138_1,2023-05-02T16:05:59.585Z,,0,,,NaN,,,,,,false,,,,487688,487688,,487687,,487724,8,400,,,
break_continue,html.Screen,4_138_2,2023-05-02T16:05:59.586Z,,0,,,NaN,,,,,,false,,,,487688,487688,,487688,,487724,8,400,,,
sequence,flow.Sequence,4_138,2023-05-02T16:05:59.586Z,,0,,,2681,completion,,,,,false,,,,487689,487688,484974,484970,485007,487724,8,400,,,
trial,html.Screen,4_139_0,2023-05-02T16:06:02.496Z,,0,3,,2907,response,ISIC_0032019.JPG,,ISIC_9870885.JPG,ISIC_9870885.JPG,false,0,keypress(z),500,490599,490598,487691,487689,487724,490641,8,400,40,,ISIC_0032019.JPG
break,html.Screen,4_139_1,2023-05-02T16:06:02.497Z,,0,,,NaN,,,,,,false,,,,490600,490600,,490599,,490641,8,400,,,
break_continue,html.Screen,4_139_2,2023-05-02T16:06:02.497Z,,0,,,NaN,,,,,,false,,,,490600,490600,,490600,,490641,8,400,,,
sequence,flow.Sequence,4_139,2023-05-02T16:06:02.498Z,,0,,,2876,completion,,,,,false,,,,490600,490600,487691,487689,487724,490641,8,400,,,
trial,html.Screen,4_140_0,2023-05-02T16:06:05.315Z,,0,3,,2810.000000000058,response,ISIC_1210011.JPG,,ISIC_3298596.JPG,ISIC_3298596.JPG,false,0,keypress(z),500,493418,493417.00000000006,490607,490601,490641,493457,8,400,41,,ISIC_1210011.JPG
break,html.Screen,4_140_1,2023-05-02T16:06:05.316Z,,0,,,NaN,,,,,,false,,,,493419,493419,,493419,,493457,8,400,,,
break_continue,html.Screen,4_140_2,2023-05-02T16:06:05.317Z,,0,,,NaN,,,,,,false,,,,493420,493420,,493420,,493457,8,400,,,
sequence,flow.Sequence,4_140,2023-05-02T16:06:05.317Z,,0,,,2779,completion,,,,,false,,,,493420,493420,490607,490601,490641,493457,8,400,,,
trial,html.Screen,4_141_0,2023-05-02T16:06:08.028Z,,0,3,,2707,response,ISIC_7101810.JPG,,ISIC_0069204.JPG,ISIC_7101810.JPG,false,1,keypress(m),500,496132,496131,493424,493420,493457,496174,8,400,42,,ISIC_0069204.JPG
break,html.Screen,4_141_1,2023-05-02T16:06:08.030Z,,0,,,NaN,,,,,,false,,,,496133.00000000006,496133.00000000006,,496132,,496174,8,400,,,
break_continue,html.Screen,4_141_2,2023-05-02T16:06:08.030Z,,0,,,NaN,,,,,,false,,,,496134,496133.00000000006,,496133.00000000006,,496174,8,400,,,
sequence,flow.Sequence,4_141,2023-05-02T16:06:08.031Z,,0,,,2676.000000000058,completion,,,,,false,,,,496134,496133.00000000006,493424,493420,493457,496174,8,400,,,
trial,html.Screen,4_142_0,2023-05-02T16:06:11.392Z,,0,3,,3354,response,ISIC_0027585.JPG,,ISIC_0063191.JPG,ISIC_0063191.JPG,false,0,keypress(z),500,499496.00000000006,499495,496141,496134,496174,499541,8,400,43,,ISIC_0027585.JPG
break,html.Screen,4_142_1,2023-05-02T16:06:11.393Z,,0,,,NaN,,,,,,false,,,,499497,499497,,499496.00000000006,,499541,8,400,,,
break_continue,html.Screen,4_142_2,2023-05-02T16:06:11.394Z,,0,,,NaN,,,,,,false,,,,499497,499497,,499497,,499541,8,400,,,
sequence,flow.Sequence,4_142,2023-05-02T16:06:11.395Z,,0,,,3323,completion,,,,,false,,,,499498,499497,496141,496134,496174,499541,8,400,,,
trial,html.Screen,4_143_0,2023-05-02T16:06:14.756Z,,0,3,,3351.000000000058,response,ISIC_5360921.JPG,,ISIC_1727826.JPG,ISIC_5360921.JPG,false,1,keypress(m),500,502859.00000000006,502859.00000000006,499508,499498,499541,502908,8,400,44,,ISIC_1727826.JPG
break,html.Screen,4_143_1,2023-05-02T16:06:14.757Z,,0,,,NaN,,,,,,false,,,,502860,502860,,502859.00000000006,,502908,8,400,,,
break_continue,html.Screen,4_143_2,2023-05-02T16:06:14.757Z,,0,,,NaN,,,,,,false,,,,502861,502861,,502860,,502908,8,400,,,
sequence,flow.Sequence,4_143,2023-05-02T16:06:14.757Z,,0,,,3320,completion,,,,,false,,,,502861,502861,499508,499498,499541,502908,8,400,,,
trial,html.Screen,4_144_0,2023-05-02T16:06:17.735Z,,0,3,,2963,response,ISIC_0033341.JPG,,ISIC_0029723.JPG,ISIC_0029723.JPG,false,0,keypress(z),500,505839,505838,502875,502861,502908,505892,8,400,45,,ISIC_0033341.JPG
break,html.Screen,4_144_1,2023-05-02T16:06:17.736Z,,0,,,NaN,,,,,,false,,,,505840.00000000006,505840.00000000006,,505839,,505892,8,400,,,
break_continue,html.Screen,4_144_2,2023-05-02T16:06:17.737Z,,0,,,NaN,,,,,,false,,,,505840.00000000006,505840.00000000006,,505840.00000000006,,505892,8,400,,,
sequence,flow.Sequence,4_144,2023-05-02T16:06:17.737Z,,0,,,2932.000000000058,completion,,,,,false,,,,505841,505840.00000000006,502875,502861,502908,505892,8,400,,,
trial,html.Screen,4_145_0,2023-05-02T16:06:21.459Z,,0,3,,3704,response,ISIC_0032887.JPG,,ISIC_0013472.JPG,ISIC_0013472.JPG,false,0,keypress(z),500,509563,509562,505858,505841,505892,509609,8,400,46,,ISIC_0032887.JPG
break,html.Screen,4_145_1,2023-05-02T16:06:21.460Z,,0,,,NaN,,,,,,false,,,,509564,509564,,509563,,509609,8,400,,,
break_continue,html.Screen,4_145_2,2023-05-02T16:06:21.460Z,,0,,,NaN,,,,,,false,,,,509564,509564,,509564,,509609,8,400,,,
sequence,flow.Sequence,4_145,2023-05-02T16:06:21.461Z,,0,,,3672,completion,,,,,false,,,,509565,509564,505858,505841,505892,509609,8,400,,,
trial,html.Screen,4_146_0,2023-05-02T16:06:24.413Z,,0,3,,2940.999999999942,response,ISIC_0655635.JPG,,ISIC_7740023.JPG,ISIC_0655635.JPG,false,1,keypress(m),500,512517.00000000006,512515.99999999994,509575,509565,509609,512559,8,400,47,,ISIC_7740023.JPG
break,html.Screen,4_146_1,2023-05-02T16:06:24.414Z,,0,,,NaN,,,,,,false,,,,512518,512518,,512517.00000000006,,512559,8,400,,,
break_continue,html.Screen,4_146_2,2023-05-02T16:06:24.414Z,,0,,,NaN,,,,,,false,,,,512519,512519,,512518,,512559,8,400,,,
sequence,flow.Sequence,4_146,2023-05-02T16:06:24.415Z,,0,,,2910,completion,,,,,false,,,,512519,512519,509575,509565,509609,512559,8,400,,,
trial,html.Screen,4_147_0,2023-05-02T16:06:27.057Z,,0,3,,2634.999999999942,response,ISIC_4081632.JPG,,ISIC_1912589.JPG,ISIC_1912589.JPG,false,0,keypress(z),500,515161.00000000006,515159.99999999994,512525,512519,512559,515209,8,400,48,,ISIC_4081632.JPG
break,html.Screen,4_147_1,2023-05-02T16:06:27.058Z,,0,,,NaN,,,,,,false,,,,515162.00000000006,515162.00000000006,,515161.00000000006,,515209,8,400,,,
break_continue,html.Screen,4_147_2,2023-05-02T16:06:27.058Z,,0,,,NaN,,,,,,false,,,,515163,515162.00000000006,,515162.00000000006,,515209,8,400,,,
sequence,flow.Sequence,4_147,2023-05-02T16:06:27.058Z,,0,,,2603.000000000058,completion,,,,,false,,,,515163,515162.00000000006,512525,512519,512559,515209,8,400,,,
trial,html.Screen,4_148_0,2023-05-02T16:06:29.714Z,,0,3,,2643,response,ISIC_5191344.JPG,,ISIC_0055491.JPG,ISIC_5191344.JPG,false,1,keypress(m),500,517818.99999999994,517818,515175,515163,515209,517859,8,400,49,,ISIC_0055491.JPG
break,html.Screen,4_148_1,2023-05-02T16:06:29.715Z,,0,,,NaN,,,,,,false,,,,517820.00000000006,517820.00000000006,,517818.99999999994,,517859,8,400,,,
break_continue,html.Screen,4_148_2,2023-05-02T16:06:29.716Z,,0,,,NaN,,,,,,false,,,,517820.00000000006,517820.00000000006,,517820.00000000006,,517859,8,400,,,
sequence,flow.Sequence,4_148,2023-05-02T16:06:29.716Z,,0,,,2611.000000000058,completion,,,,,false,,,,517820.00000000006,517820.00000000006,515175,515163,515209,517859,8,400,,,
trial,html.Screen,4_149_0,2023-05-02T16:06:32.946Z,,0,3,,3224.999999999942,response,ISIC_3236964.JPG,,ISIC_3677945.JPG,ISIC_3677945.JPG,false,0,keypress(z),500,521051.00000000006,521049.99999999994,517825,517821,517859,521092,8,400,50,,ISIC_3236964.JPG
break,html.Screen,4_149_1,2023-05-02T16:06:37.954Z,,0,,,5001,timeout,,,,,false,,,,526059,526059,521059,521051.00000000006,521092,526093,8,400,,,
break_continue,html.Screen,4_149_2,2023-05-02T16:06:39.114Z,,0,,,1222.0000000001164,response,,,,,false,continue,keypress(Space),,527219,527281.0000000001,526059,526060.0000000001,526093,527259,8,400,,,
sequence,flow.Sequence,4_149,2023-05-02T16:06:39.114Z,,0,,,9422.000000000116,completion,,,,,false,,,,527219,527281.0000000001,517825,517820.00000000006,517859,527259,8,400,,,
trial,html.Screen,4_150_0,2023-05-02T16:06:41.710Z,,0,4,,2590,response,ISIC_0010131.JPG,,ISIC_0013636.JPG,ISIC_0013636.JPG,false,0,keypress(z),500,529815,529815,527225,527219,527259,529859,8,400,1,,ISIC_0010131.JPG
break,html.Screen,4_150_1,2023-05-02T16:06:41.711Z,,0,,,NaN,,,,,,false,,,,529816,529816,,529816,,529859,8,400,,,
break_continue,html.Screen,4_150_2,2023-05-02T16:06:41.712Z,,0,,,NaN,,,,,,false,,,,529817,529817,,529817,,529859,8,400,,,
sequence,flow.Sequence,4_150,2023-05-02T16:06:41.712Z,,0,,,2558,completion,,,,,false,,,,529817,529817,527225,527219,527259,529859,8,400,,,
trial,html.Screen,4_151_0,2023-05-02T16:06:44.348Z,,0,4,,2627,response,ISIC_0033980.JPG,,ISIC_0613014.JPG,ISIC_0613014.JPG,false,0,keypress(z),500,532453,532453,529826,529818,529859,532493,8,400,2,,ISIC_0033980.JPG
break,html.Screen,4_151_1,2023-05-02T16:06:44.349Z,,0,,,NaN,,,,,,false,,,,532455,532454.0000000001,,532454.0000000001,,532493,8,400,,,
break_continue,html.Screen,4_151_2,2023-05-02T16:06:44.349Z,,0,,,NaN,,,,,,false,,,,532455,532455,,532455,,532493,8,400,,,
sequence,flow.Sequence,4_151,2023-05-02T16:06:44.350Z,,0,,,2596,completion,,,,,false,,,,532455,532455,529826,529818,529859,532493,8,400,,,
trial,html.Screen,4_152_0,2023-05-02T16:06:47.271Z,,0,4,,2917,response,ISIC_6763221.JPG,,ISIC_0024259.JPG,ISIC_0024259.JPG,false,0,keypress(z),500,535376,535376,532459,532455,532493,535426,8,400,3,,ISIC_6763221.JPG
break,html.Screen,4_152_1,2023-05-02T16:06:47.272Z,,0,,,NaN,,,,,,false,,,,535377.0000000001,535377.0000000001,,535377.0000000001,,535426,8,400,,,
break_continue,html.Screen,4_152_2,2023-05-02T16:06:47.272Z,,0,,,NaN,,,,,,false,,,,535378,535378,,535378,,535426,8,400,,,
sequence,flow.Sequence,4_152,2023-05-02T16:06:47.272Z,,0,,,2885,completion,,,,,false,,,,535378,535378,532459,532455,532493,535426,8,400,,,
trial,html.Screen,4_153_0,2023-05-02T16:06:50.037Z,,0,4,,2749,response,ISIC_0002639.JPG,,ISIC_0055797.JPG,ISIC_0002639.JPG,false,1,keypress(m),500,538143,538142,535393,535378,535426,538193,8,400,4,,ISIC_0055797.JPG
break,html.Screen,4_153_1,2023-05-02T16:06:50.038Z,,0,,,NaN,,,,,,false,,,,538144,538144,,538143,,538193,8,400,,,
break_continue,html.Screen,4_153_2,2023-05-02T16:06:50.038Z,,0,,,NaN,,,,,,false,,,,538144,538144,,538144,,538193,8,400,,,
sequence,flow.Sequence,4_153,2023-05-02T16:06:50.039Z,,0,,,2718,completion,,,,,false,,,,538144,538144,535393,535378,535426,538193,8,400,,,
trial,html.Screen,4_154_0,2023-05-02T16:06:52.694Z,,0,4,,2639,response,ISIC_0029906.JPG,,ISIC_0064925.JPG,ISIC_0029906.JPG,false,1,keypress(m),500,540800,540799,538160,538145,538193,540843,8,400,5,,ISIC_0064925.JPG
break,html.Screen,4_154_1,2023-05-02T16:06:52.695Z,,0,,,NaN,,,,,,false,,,,540801,540800,,540800,,540843,8,400,,,
break_continue,html.Screen,4_154_2,2023-05-02T16:06:52.695Z,,0,,,NaN,,,,,,false,,,,540801,540801,,540801,,540843,8,400,,,
sequence,flow.Sequence,4_154,2023-05-02T16:06:52.695Z,,0,,,2608,completion,,,,,false,,,,540801,540801,538160,538145,538193,540843,8,400,,,
trial,html.Screen,4_155_0,2023-05-02T16:06:55.438Z,,0,4,,2734,response,ISIC_0007029.JPG,,ISIC_0061334.JPG,ISIC_0007029.JPG,false,1,keypress(m),500,543544,543544,540810,540801,540843,543593,8,400,6,,ISIC_0061334.JPG
break,html.Screen,4_155_1,2023-05-02T16:06:55.439Z,,0,,,NaN,,,,,,false,,,,543546,543545,,543545,,543593,8,400,,,
break_continue,html.Screen,4_155_2,2023-05-02T16:06:55.440Z,,0,,,NaN,,,,,,false,,,,543546,543546,,543546,,543593,8,400,,,
sequence,flow.Sequence,4_155,2023-05-02T16:06:55.440Z,,0,,,2703,completion,,,,,false,,,,543546,543546,540810,540801,540843,543593,8,400,,,
trial,html.Screen,4_156_0,2023-05-02T16:06:58.134Z,,0,4,,2679,response,ISIC_6345354.JPG,,ISIC_8278912.JPG,ISIC_6345354.JPG,false,1,keypress(m),500,546240,546239,543560,543546,543593,546293,8,400,7,,ISIC_8278912.JPG
break,html.Screen,4_156_1,2023-05-02T16:06:58.135Z,,0,,,NaN,,,,,,false,,,,546241,546241,,546240,,546293,8,400,,,
break_continue,html.Screen,4_156_2,2023-05-02T16:06:58.135Z,,0,,,NaN,,,,,,false,,,,546241,546241,,546241,,546293,8,400,,,
sequence,flow.Sequence,4_156,2023-05-02T16:06:58.135Z,,0,,,2648,completion,,,,,false,,,,546241,546241,543560,543546,543593,546293,8,400,,,
trial,html.Screen,4_157_0,2023-05-02T16:07:00.779Z,,0,4,,2625,response,ISIC_0060050.JPG,,ISIC_0010611.JPG,ISIC_0060050.JPG,false,1,keypress(m),500,548885,548885,546260,546242,546293,548927,8,400,8,,ISIC_0010611.JPG
break,html.Screen,4_157_1,2023-05-02T16:07:00.780Z,,0,,,NaN,,,,,,false,,,,548886,548886,,548885,,548927,8,400,,,
break_continue,html.Screen,4_157_2,2023-05-02T16:07:00.780Z,,0,,,NaN,,,,,,false,,,,548887,548886,,548886,,548927,8,400,,,
sequence,flow.Sequence,4_157,2023-05-02T16:07:00.780Z,,0,,,2593,completion,,,,,false,,,,548887,548886,546260,546242,546293,548927,8,400,,,
trial,html.Screen,4_158_0,2023-05-02T16:07:03.556Z,,0,4,,2768,response,ISIC_0000424.JPG,,ISIC_4153234.JPG,ISIC_4153234.JPG,false,0,keypress(z),500,551663,551662,548894,548887,548927,551711,8,400,9,,ISIC_0000424.JPG
break,html.Screen,4_158_1,2023-05-02T16:07:03.558Z,,0,,,NaN,,,,,,false,,,,551664,551664,,551663,,551711,8,400,,,
break_continue,html.Screen,4_158_2,2023-05-02T16:07:03.558Z,,0,,,NaN,,,,,,false,,,,551665,551665,,551664,,551711,8,400,,,
