sender,sender_type,sender_id,timestamp,meta,,blockNo,condition,duration,ended_on,img_left,img_reveal,img_right,loser,practice,response,response_action,selection_duration,time_commit,time_end,time_render,time_run,time_show,time_switch,total_blocks,total_trials,trialNo,url,winner
informed_consent,html.Screen,0,2023-10-31T23:37:39.472Z,"{""labjs_version"":""20.2.4"",""labjs_build"":{""flavor"":""production"",""commit"":""f5b4a49f956347addd546a832a3327688c2c0fef""},""location"":""https://run.pavlovia.org/MurrayBennett/melanoma-2afc/?participant=67419&platform=sona"",""userAgent"":""Mozilla/5.0 (Windows NT 10.0; Win64; x64) AppleWebKit/537.36 (KHTML, like Gecko) Chrome/118.0.0.0 Safari/537.36"",""platform"":""Win32"",""language"":""en-US"",""locale"":""en-US"",""timeZone"":""America/Chicago"",""timezoneOffset"":300,""screen_width"":1368,""screen_height"":912,""scroll_width"":1368,""scroll_height"":707,""window_innerWidth"":1368,""window_innerHeight"":755,""devicePixelRatio"":2}",,,,3319.747999999907,response,,,,,,consent,click button,,6771,6768.899999999907,3432.521,3419.2000000001863,3449.152,6790.855,,,,"{""participant"":""67419"",""platform"":""sona""}",
Welcome,html.Screen,1,2023-10-31T23:38:08.780Z,,,,uniform,29284.94500000028,response,,,,,,continue,click button,,36078.200000000186,36075.80000000028,6757.79,6771.300000000279,6790.855,36095.301,,,,,
trial,html.Screen,2_0_0,2023-10-31T23:38:15.936Z,,0,0,,7138.6990000000005,response,ISIC_0063388.JPG,,ISIC_0025593.JPG,ISIC_0025593.JPG,true,0,keypress(z),500,43234.5,43234,36067.8,36078.80000000028,36095.301,43254.821,1,6,1,,ISIC_0063388.JPG
sequence,flow.Sequence,2_0,2023-10-31T23:38:15.936Z,,0,,,7138.6990000000005,completion,,,,,true,,,,43235.10000000009,43234,36067.8,36078.80000000028,36095.301,43254.821,1,6,,,
trial,html.Screen,2_1_0,2023-10-31T23:38:27.436Z,,0,0,,11511.318,timeout,ISIC_1309015.JPG,,ISIC_0028178.JPG,,true,,,500,54734.39999999991,54734,43227.243,43235.30000000028,43254.821,54766.139,1,6,2,,
sequence,flow.Sequence,2_1,2023-10-31T23:38:27.436Z,,0,,,11479.178999999996,completion,,,,,true,,,,54734.700000000186,54734,43227.243,43235.200000000186,43254.821,54766.139,1,6,,,
trial,html.Screen,2_2_0,2023-10-31T23:38:31.149Z,,0,0,,3681.6610000002765,response,ISIC_0031128.JPG,,ISIC_3314853.JPG,ISIC_0031128.JPG,true,1,keypress(m),500,58448.200000000186,58447.80000000028,54749.522,54734.89999999991,54766.139,58467.774,1,6,3,,ISIC_3314853.JPG
sequence,flow.Sequence,2_2,2023-10-31T23:38:31.150Z,,0,,,3681.6610000002765,completion,,,,,true,,,,58448.60000000009,58447.80000000028,54749.522,54734.700000000186,54766.139,58467.774,1,6,,,
trial,html.Screen,2_3_0,2023-10-31T23:38:34.770Z,,0,0,,3599.526000000282,response,ISIC_0031612.JPG,,ISIC_8980141.JPG,ISIC_0031612.JPG,true,1,keypress(m),500,62067.60000000009,62067.30000000028,58436.09,58449,58467.774,62088.178,1,6,4,,ISIC_8980141.JPG
sequence,flow.Sequence,2_3,2023-10-31T23:38:34.770Z,,0,,,3599.526000000282,completion,,,,,true,,,,62068.200000000186,62067.30000000028,58436.09,58448.89999999991,58467.774,62088.178,1,6,,,
trial,html.Screen,2_4_0,2023-10-31T23:38:38.181Z,,0,0,,3390.5220000001864,response,ISIC_9721604.JPG,,ISIC_1197737.JPG,ISIC_1197737.JPG,true,0,keypress(z),500,65479.10000000009,65478.700000000186,62056.29,62068.5,62088.178,65500.286,1,6,5,,ISIC_9721604.JPG
sequence,flow.Sequence,2_4,2023-10-31T23:38:38.181Z,,0,,,3390.5220000001864,completion,,,,,true,,,,65479.60000000009,65478.700000000186,62056.29,62068.39999999991,62088.178,65500.286,1,6,,,
trial,html.Screen,2_5_0,2023-10-31T23:38:43.048Z,,0,0,,4844.914000000186,response,ISIC_0010681.JPG,,ISIC_0025346.JPG,ISIC_0025346.JPG,true,0,keypress(z),500,70345.70000000019,70345.20000000019,65464.451,65479.80000000028,65500.286,70367.197,1,6,6,,ISIC_0010681.JPG
sequence,flow.Sequence,2_5,2023-10-31T23:38:43.048Z,,0,,,4844.914000000186,completion,,,,,true,,,,70346.5,70345.20000000019,65464.451,65479.700000000186,65500.286,70367.197,1,6,,,
loop,flow.Loop,2,2023-10-31T23:38:43.049Z,,,,,34249.89900000019,completion,,,,,true,,,,70347,70345.20000000019,36067.8,36078.700000000186,36095.301,70367.197,1,6,,,
exp_instructions,html.Screen,3,2023-10-31T23:38:47.138Z,,,,,4066.803,response,,,,,,continue,keypress(Space),,74435.8999999999,74434,70331.472,70347.30000000028,70367.197,74455.96,,,,,
trial,html.Screen,4_0_0,2023-10-31T23:38:51.017Z,,0,1,,3858.24000000018,response,ISIC_7349772.JPG,5,ISIC_0011528.JPG,ISIC_0011528.JPG,false,0,keypress(z),500,78314.70000000019,78314.20000000019,74428.914,74436.1000000001,74455.96,78316.844,8,400,1,,ISIC_7349772.JPG
break,html.Screen,4_0_1,2023-10-31T23:38:51.019Z,,0,,,NaN,,,,,,false,,,,78317.30000000028,78316.70000000019,,78315,,78316.844,8,400,,,
break_continue,html.Screen,4_0_2,2023-10-31T23:38:51.020Z,,0,,,NaN,,,,,,false,,,,78318,78317.80000000028,,78317.5,,78316.844,8,400,,,
sequence,flow.Sequence,4_0,2023-10-31T23:38:51.020Z,,0,,,3861.840000000273,completion,,,,,false,,,,78318.20000000019,78317.80000000028,74428.914,74436.1000000001,74455.96,78316.844,8,400,,,
trial,html.Screen,4_1_0,2023-10-31T23:38:54.736Z,,0,1,,3716.456000000282,response,ISIC_6114646.JPG,5,ISIC_0025397.JPG,ISIC_0025397.JPG,false,0,keypress(z),500,82033.6000000001,82033.30000000028,78310.489,78318.3999999999,78316.844,82052.789,8,400,2,,ISIC_6114646.JPG
break,html.Screen,4_1_1,2023-10-31T23:38:54.737Z,,0,,,NaN,,,,,,false,,,,82035,82034.6000000001,,82033.8999999999,,82052.789,8,400,,,
break_continue,html.Screen,4_1_2,2023-10-31T23:38:54.737Z,,0,,,NaN,,,,,,false,,,,82035.5,82035.3999999999,,82035.20000000019,,82052.789,8,400,,,
sequence,flow.Sequence,4_1,2023-10-31T23:38:54.738Z,,0,,,3718.5559999999095,completion,,,,,false,,,,82035.70000000019,82035.3999999999,78310.489,78318.30000000028,78316.844,82052.789,8,400,,,
trial,html.Screen,4_2_0,2023-10-31T23:39:00.629Z,,0,1,,5873.811000000089,response,ISIC_2924968.JPG,6,ISIC_7738955.JPG,ISIC_7738955.JPG,false,0,keypress(z),500,87926.80000000028,87926.6000000001,82025.173,82035.80000000028,82052.789,87942.798,8,400,3,,ISIC_2924968.JPG
break,html.Screen,4_2_1,2023-10-31T23:39:00.630Z,,0,,,NaN,,,,,,false,,,,87928.30000000028,87928,,87927.20000000019,,87942.798,8,400,,,
break_continue,html.Screen,4_2_2,2023-10-31T23:39:00.631Z,,0,,,NaN,,,,,,false,,,,87928.8999999999,87928.70000000019,,87928.5,,87942.798,8,400,,,
sequence,flow.Sequence,4_2,2023-10-31T23:39:00.631Z,,0,,,5875.911000000182,completion,,,,,false,,,,87929,87928.70000000019,82025.173,82035.80000000028,82052.789,87942.798,8,400,,,
trial,html.Screen,4_3_0,2023-10-31T23:39:04.681Z,,0,1,,4036.402000000191,response,ISIC_8655206.JPG,5,ISIC_8095877.JPG,ISIC_8655206.JPG,false,1,keypress(m),500,91979.6000000001,91979.20000000019,87927.509,87929.20000000019,87942.798,92000.759,8,400,4,,ISIC_8095877.JPG
break,html.Screen,4_3_1,2023-10-31T23:39:04.683Z,,0,,,NaN,,,,,,false,,,,91980.6000000001,91980.3999999999,,91979.70000000019,,92000.759,8,400,,,
break_continue,html.Screen,4_3_2,2023-10-31T23:39:04.683Z,,0,,,NaN,,,,,,false,,,,91981.20000000019,91981.1000000001,,91980.80000000028,,92000.759,8,400,,,
sequence,flow.Sequence,4_3,2023-10-31T23:39:04.683Z,,0,,,4038.302000000098,completion,,,,,false,,,,91981.5,91981.1000000001,87927.509,87929.20000000019,87942.798,92000.759,8,400,,,
trial,html.Screen,4_4_0,2023-10-31T23:39:11.454Z,,0,1,,6751.341000000088,response,ISIC_0034207.JPG,6,ISIC_0865706.JPG,ISIC_0034207.JPG,false,1,keypress(m),500,98752.3999999999,98752.1000000001,91984.073,91981.5,92000.759,98772.01,8,400,5,,ISIC_0865706.JPG
break,html.Screen,4_4_1,2023-10-31T23:39:11.456Z,,0,,,NaN,,,,,,false,,,,98753.80000000028,98753.3999999999,,98752.6000000001,,98772.01,8,400,,,
break_continue,html.Screen,4_4_2,2023-10-31T23:39:11.456Z,,0,,,NaN,,,,,,false,,,,98754.30000000028,98754.20000000019,,98753.8999999999,,98772.01,8,400,,,
sequence,flow.Sequence,4_4,2023-10-31T23:39:11.456Z,,0,,,6753.441000000181,completion,,,,,false,,,,98754.5,98754.20000000019,91984.073,91981.5,92000.759,98772.01,8,400,,,
trial,html.Screen,4_5_0,2023-10-31T23:39:15.909Z,,0,1,,4434.389999999912,response,ISIC_0029675.JPG,5,ISIC_0667763.JPG,ISIC_0029675.JPG,false,1,keypress(m),500,103206.80000000028,103206.3999999999,98745.517,98754.6000000001,98772.01,103226.359,8,400,6,,ISIC_0667763.JPG
break,html.Screen,4_5_1,2023-10-31T23:39:15.910Z,,0,,,NaN,,,,,,false,,,,103208.30000000028,103207.80000000028,,103207,,103226.359,8,400,,,
break_continue,html.Screen,4_5_2,2023-10-31T23:39:15.911Z,,0,,,NaN,,,,,,false,,,,103208.8999999999,103208.70000000019,,103208.5,,103226.359,8,400,,,
sequence,flow.Sequence,4_5,2023-10-31T23:39:15.911Z,,0,,,4436.6900000001915,completion,,,,,false,,,,103209.1000000001,103208.70000000019,98745.517,98754.6000000001,98772.01,103226.359,8,400,,,
trial,html.Screen,4_6_0,2023-10-31T23:39:20.169Z,,0,1,,4240.741000000096,response,ISIC_0032165.JPG,5,ISIC_0055996.JPG,ISIC_0055996.JPG,false,0,keypress(z),500,107467.30000000028,107467.1000000001,103200.662,103209.30000000028,103226.359,107487.135,8,400,7,,ISIC_0032165.JPG
break,html.Screen,4_6_1,2023-10-31T23:39:20.171Z,,0,,,NaN,,,,,,false,,,,107468.8999999999,107468.5,,107467.5,,107487.135,8,400,,,
break_continue,html.Screen,4_6_2,2023-10-31T23:39:20.172Z,,0,,,NaN,,,,,,false,,,,107469.70000000019,107469.6000000001,,107469.20000000019,,107487.135,8,400,,,
sequence,flow.Sequence,4_6,2023-10-31T23:39:20.172Z,,0,,,4243.241000000096,completion,,,,,false,,,,107470.1000000001,107469.6000000001,103200.662,103209.30000000028,103226.359,107487.135,8,400,,,
trial,html.Screen,4_7_0,2023-10-31T23:39:23.823Z,,0,1,,3633.4650000000984,response,ISIC_0064823.JPG,5,ISIC_0024720.JPG,ISIC_0024720.JPG,false,0,keypress(z),500,111120.8999999999,111120.6000000001,107455.272,107470.30000000028,107487.135,111140.471,8,400,8,,ISIC_0064823.JPG
break,html.Screen,4_7_1,2023-10-31T23:39:23.824Z,,0,,,NaN,,,,,,false,,,,111122.30000000028,111121.80000000028,,111121.1000000001,,111140.471,8,400,,,
break_continue,html.Screen,4_7_2,2023-10-31T23:39:23.825Z,,0,,,NaN,,,,,,false,,,,111123.1000000001,111122.8999999999,,111122.5,,111140.471,8,400,,,
sequence,flow.Sequence,4_7,2023-10-31T23:39:23.825Z,,0,,,3635.764999999912,completion,,,,,false,,,,111123.30000000028,111122.8999999999,107455.272,107470.20000000019,107487.135,111140.471,8,400,,,
trial,html.Screen,4_8_0,2023-10-31T23:39:28.020Z,,0,1,,4177.428999999902,response,ISIC_9445196.JPG,5,ISIC_0028239.JPG,ISIC_0028239.JPG,false,0,keypress(z),500,115318.30000000028,115317.8999999999,111115.621,111123.3999999999,111140.471,115338.007,8,400,9,,ISIC_9445196.JPG
break,html.Screen,4_8_1,2023-10-31T23:39:28.022Z,,0,,,NaN,,,,,,false,,,,115319.70000000019,115319.30000000028,,115318.5,,115338.007,8,400,,,
break_continue,html.Screen,4_8_2,2023-10-31T23:39:28.022Z,,0,,,NaN,,,,,,false,,,,115320.30000000028,115320.20000000019,,115319.8999999999,,115338.007,8,400,,,
sequence,flow.Sequence,4_8,2023-10-31T23:39:28.022Z,,0,,,4179.729000000181,completion,,,,,false,,,,115320.5,115320.20000000019,111115.621,111123.3999999999,111140.471,115338.007,8,400,,,
trial,html.Screen,4_9_0,2023-10-31T23:39:34.440Z,,0,1,,6400.293000000282,response,ISIC_0002162.JPG,6,ISIC_5355302.JPG,ISIC_5355302.JPG,false,0,keypress(z),500,121738.6000000001,121738.30000000028,115317.582,115320.6000000001,115338.007,121740.668,8,400,10,,ISIC_0002162.JPG
break,html.Screen,4_9_1,2023-10-31T23:39:34.442Z,,0,,,NaN,,,,,,false,,,,121740.20000000019,121739.70000000019,,121738.8999999999,,121740.668,8,400,,,
break_continue,html.Screen,4_9_2,2023-10-31T23:39:34.443Z,,0,,,NaN,,,,,,false,,,,121740.80000000028,121740.70000000019,,121740.3999999999,,121740.668,8,400,,,
sequence,flow.Sequence,4_9,2023-10-31T23:39:34.443Z,,0,,,6402.6930000001885,completion,,,,,false,,,,121741,121740.70000000019,115317.582,115320.6000000001,115338.007,121740.668,8,400,,,
trial,html.Screen,4_10_0,2023-10-31T23:39:39.053Z,,0,1,,4609.632000000274,response,ISIC_1956504.JPG,5,ISIC_8822331.JPG,ISIC_1956504.JPG,false,1,keypress(m),500,126350.70000000019,126350.30000000028,121738.975,121741.30000000028,121740.668,126369.933,8,400,11,,ISIC_8822331.JPG
break,html.Screen,4_10_1,2023-10-31T23:39:39.054Z,,0,,,NaN,,,,,,false,,,,126352.1000000001,126351.70000000019,,126351,,126369.933,8,400,,,
break_continue,html.Screen,4_10_2,2023-10-31T23:39:39.055Z,,0,,,NaN,,,,,,false,,,,126352.80000000028,126352.70000000019,,126352.20000000019,,126369.933,8,400,,,
sequence,flow.Sequence,4_10,2023-10-31T23:39:39.055Z,,0,,,4612.032000000181,completion,,,,,false,,,,126353.1000000001,126352.70000000019,121738.975,121741.20000000019,121740.668,126369.933,8,400,,,
trial,html.Screen,4_11_0,2023-10-31T23:39:46.513Z,,0,1,,7440.767000000182,response,ISIC_0010886.JPG,4,ISIC_0071532.JPG,ISIC_0010886.JPG,false,1,keypress(m),500,133811.1000000001,133810.7000000002,126345.151,126353.20000000019,126369.933,133830.216,8,400,12,,ISIC_0071532.JPG
break,html.Screen,4_11_1,2023-10-31T23:39:46.515Z,,0,,,NaN,,,,,,false,,,,133813.1000000001,133812.7000000002,,133811.30000000028,,133830.216,8,400,,,
break_continue,html.Screen,4_11_2,2023-10-31T23:39:46.516Z,,0,,,NaN,,,,,,false,,,,133813.7000000002,133813.3999999999,,133813.30000000028,,133830.216,8,400,,,
sequence,flow.Sequence,4_11,2023-10-31T23:39:46.516Z,,0,,,7443.466999999902,completion,,,,,false,,,,133813.80000000028,133813.3999999999,126345.151,126353.1000000001,126369.933,133830.216,8,400,,,
trial,html.Screen,4_12_0,2023-10-31T23:39:50.950Z,,0,1,,4418.084000000294,response,ISIC_0002639.JPG,5,ISIC_0068847.JPG,ISIC_0002639.JPG,false,1,keypress(m),500,138248.6000000001,138248.30000000028,133805.282,133814,133830.216,138268.196,8,400,13,,ISIC_0068847.JPG
break,html.Screen,4_12_1,2023-10-31T23:39:50.952Z,,0,,,NaN,,,,,,false,,,,138250.30000000028,138249.80000000028,,138248.8999999999,,138268.196,8,400,,,
break_continue,html.Screen,4_12_2,2023-10-31T23:39:50.953Z,,0,,,NaN,,,,,,false,,,,138250.80000000028,138250.7000000002,,138250.3999999999,,138268.196,8,400,,,
sequence,flow.Sequence,4_12,2023-10-31T23:39:50.953Z,,0,,,4420.4840000002005,completion,,,,,false,,,,138251.1000000001,138250.7000000002,133805.282,133813.8999999999,133830.216,138268.196,8,400,,,
trial,html.Screen,4_13_0,2023-10-31T23:39:55.115Z,,0,1,,4144.50400000019,response,ISIC_7724764.JPG,5,ISIC_0027941.JPG,ISIC_7724764.JPG,false,1,keypress(m),500,142412.8999999999,142412.7000000002,138238.723,138251.2000000002,138268.196,142415.022,8,400,14,,ISIC_0027941.JPG
break,html.Screen,4_13_1,2023-10-31T23:39:55.116Z,,0,,,NaN,,,,,,false,,,,142414.3999999999,142414.1000000001,,142413.30000000028,,142415.022,8,400,,,
break_continue,html.Screen,4_13_2,2023-10-31T23:39:55.117Z,,0,,,NaN,,,,,,false,,,,142415.1000000001,142415,,142414.6000000001,,142415.022,8,400,,,
sequence,flow.Sequence,4_13,2023-10-31T23:39:55.117Z,,0,,,4146.804000000004,completion,,,,,false,,,,142415.3999999999,142415,138238.723,138251.1000000001,138268.196,142415.022,8,400,,,
trial,html.Screen,4_14_0,2023-10-31T23:40:01.471Z,,0,1,,6354.37799999991,response,ISIC_3736075.JPG,5,ISIC_0046225.JPG,ISIC_0046225.JPG,false,0,keypress(z),500,148769.7000000002,148769.3999999999,142405.026,142415.5,142415.022,148788.979,8,400,15,,ISIC_3736075.JPG
break,html.Screen,4_14_1,2023-10-31T23:40:01.473Z,,0,,,NaN,,,,,,false,,,,148770.80000000028,148770.6000000001,,148769.80000000028,,148788.979,8,400,,,
break_continue,html.Screen,4_14_2,2023-10-31T23:40:01.473Z,,0,,,NaN,,,,,,false,,,,148771.30000000028,148771.2000000002,,148771,,148788.979,8,400,,,
sequence,flow.Sequence,4_14,2023-10-31T23:40:01.473Z,,0,,,6356.178000000189,completion,,,,,false,,,,148771.5,148771.2000000002,142405.026,142415.5,142415.022,148788.979,8,400,,,
trial,html.Screen,4_15_0,2023-10-31T23:40:05.779Z,,0,1,,4288.221000000194,response,ISIC_0032034.JPG,5,ISIC_1640823.JPG,ISIC_0032034.JPG,false,1,keypress(m),500,153077.5,153077.2000000002,148766.252,148771.7000000002,148788.979,153097.13,8,400,16,,ISIC_1640823.JPG
break,html.Screen,4_15_1,2023-10-31T23:40:05.781Z,,0,,,NaN,,,,,,false,,,,153078.80000000028,153078.5,,153077.80000000028,,153097.13,8,400,,,
break_continue,html.Screen,4_15_2,2023-10-31T23:40:05.781Z,,0,,,NaN,,,,,,false,,,,153079.30000000028,153079.2000000002,,153079,,153097.13,8,400,,,
sequence,flow.Sequence,4_15,2023-10-31T23:40:05.781Z,,0,,,4290.221000000194,completion,,,,,false,,,,153079.6000000001,153079.2000000002,148766.252,148771.6000000001,148788.979,153097.13,8,400,,,
trial,html.Screen,4_16_0,2023-10-31T23:40:12.359Z,,0,1,,6559.869999999995,response,ISIC_5514594.JPG,6,ISIC_0010364.JPG,ISIC_5514594.JPG,false,1,keypress(m),500,159657.30000000028,159657,153068.822,153079.7000000002,153097.13,159676.904,8,400,17,,ISIC_0010364.JPG
break,html.Screen,4_16_1,2023-10-31T23:40:12.361Z,,0,,,NaN,,,,,,false,,,,159658.7000000002,159658.30000000028,,159657.6000000001,,159676.904,8,400,,,
break_continue,html.Screen,4_16_2,2023-10-31T23:40:12.361Z,,0,,,NaN,,,,,,false,,,,159659.1000000001,159659.1000000001,,159658.80000000028,,159676.904,8,400,,,
sequence,flow.Sequence,4_16,2023-10-31T23:40:12.361Z,,0,,,6561.9700000000885,completion,,,,,false,,,,159659.3999999999,159659.1000000001,153068.822,153079.6000000001,153097.13,159676.904,8,400,,,
trial,html.Screen,4_17_0,2023-10-31T23:40:16.091Z,,0,1,,3711.9959999998973,response,ISIC_0013702.JPG,5,ISIC_0031717.JPG,ISIC_0013702.JPG,false,1,keypress(m),500,163389.2000000002,163388.8999999999,159655.666,159659.5,159676.904,163408.338,8,400,18,,ISIC_0031717.JPG
break,html.Screen,4_17_1,2023-10-31T23:40:16.092Z,,0,,,NaN,,,,,,false,,,,163390.6000000001,163390.2000000002,,163389.3999999999,,163408.338,8,400,,,
break_continue,html.Screen,4_17_2,2023-10-31T23:40:16.093Z,,0,,,NaN,,,,,,false,,,,163391.1000000001,163391,,163390.7000000002,,163408.338,8,400,,,
sequence,flow.Sequence,4_17,2023-10-31T23:40:16.093Z,,0,,,3714.0959999999905,completion,,,,,false,,,,163391.30000000028,163391,159655.666,159659.5,159676.904,163408.338,8,400,,,
trial,html.Screen,4_18_0,2023-10-31T23:40:20.191Z,,0,1,,4080.4620000002906,response,ISIC_7621412.JPG,6,ISIC_9256438.JPG,ISIC_7621412.JPG,false,1,keypress(m),500,167489.1000000001,167488.80000000028,163385.172,163391.3999999999,163408.338,167509.027,8,400,19,,ISIC_9256438.JPG
break,html.Screen,4_18_1,2023-10-31T23:40:20.192Z,,0,,,NaN,,,,,,false,,,,167490.3999999999,167490.1000000001,,167489.3999999999,,167509.027,8,400,,,
break_continue,html.Screen,4_18_2,2023-10-31T23:40:20.193Z,,0,,,NaN,,,,,,false,,,,167491,167490.8999999999,,167490.7000000002,,167509.027,8,400,,,
sequence,flow.Sequence,4_18,2023-10-31T23:40:20.193Z,,0,,,4082.561999999918,completion,,,,,false,,,,167491.2000000002,167490.8999999999,163385.172,163391.3999999999,163408.338,167509.027,8,400,,,
trial,html.Screen,4_19_0,2023-10-31T23:40:23.651Z,,0,1,,3440.0730000000913,response,ISIC_0024756.JPG,5,ISIC_6532137.JPG,ISIC_0024756.JPG,false,1,keypress(m),500,170949.3999999999,170949.1000000001,167475.087,167491.30000000028,167509.027,170968.604,8,400,20,,ISIC_6532137.JPG
break,html.Screen,4_19_1,2023-10-31T23:40:23.653Z,,0,,,NaN,,,,,,false,,,,170950.8999999999,170950.5,,170949.7000000002,,170968.604,8,400,,,
break_continue,html.Screen,4_19_2,2023-10-31T23:40:23.653Z,,0,,,NaN,,,,,,false,,,,170951.3999999999,170951.30000000028,,170951.1000000001,,170968.604,8,400,,,
sequence,flow.Sequence,4_19,2023-10-31T23:40:23.654Z,,0,,,3442.2730000002775,completion,,,,,false,,,,170951.6000000001,170951.30000000028,167475.087,167491.30000000028,167509.027,170968.604,8,400,,,
trial,html.Screen,4_20_0,2023-10-31T23:40:28.520Z,,0,1,,4849.196000000287,response,ISIC_0005769.JPG,5,ISIC_0011697.JPG,ISIC_0011697.JPG,false,0,keypress(z),500,175818.2000000002,175817.80000000028,170945.894,170951.80000000028,170968.604,175837.595,8,400,21,,ISIC_0005769.JPG
break,html.Screen,4_20_1,2023-10-31T23:40:28.522Z,,0,,,NaN,,,,,,false,,,,175820.2000000002,175819.30000000028,,175818.7000000002,,175837.595,8,400,,,
break_continue,html.Screen,4_20_2,2023-10-31T23:40:28.523Z,,0,,,NaN,,,,,,false,,,,175820.80000000028,175820.7000000002,,175820.3999999999,,175837.595,8,400,,,
sequence,flow.Sequence,4_20,2023-10-31T23:40:28.523Z,,0,,,4852.096000000194,completion,,,,,false,,,,175821,175820.7000000002,170945.894,170951.80000000028,170968.604,175837.595,8,400,,,
trial,html.Screen,4_21_0,2023-10-31T23:40:32.671Z,,0,1,,4130.804999999906,response,ISIC_2410736.JPG,6,ISIC_0033168.JPG,ISIC_2410736.JPG,false,1,keypress(m),500,179968.6000000001,179968.3999999999,175815.775,175821.1000000001,175837.595,179988.798,8,400,22,,ISIC_0033168.JPG
break,html.Screen,4_21_1,2023-10-31T23:40:32.672Z,,0,,,NaN,,,,,,false,,,,179970.1000000001,179969.7000000002,,179968.8999999999,,179988.798,8,400,,,
break_continue,html.Screen,4_21_2,2023-10-31T23:40:32.673Z,,0,,,NaN,,,,,,false,,,,179970.7000000002,179970.6000000001,,179970.2000000002,,179988.798,8,400,,,
sequence,flow.Sequence,4_21,2023-10-31T23:40:32.673Z,,0,,,4133.005000000092,completion,,,,,false,,,,179971,179970.6000000001,175815.775,175821.1000000001,175837.595,179988.798,8,400,,,
trial,html.Screen,4_22_0,2023-10-31T23:40:38.659Z,,0,1,,5968.302000000083,response,ISIC_0029328.JPG,5,ISIC_4398011.JPG,ISIC_0029328.JPG,false,1,keypress(m),500,185957.3999999999,185957.1000000001,179955.008,179971.30000000028,179988.798,185970.496,8,400,23,,ISIC_4398011.JPG
break,html.Screen,4_22_1,2023-10-31T23:40:38.661Z,,0,,,NaN,,,,,,false,,,,185958.8999999999,185958.3999999999,,185957.7000000002,,185970.496,8,400,,,
break_continue,html.Screen,4_22_2,2023-10-31T23:40:38.661Z,,0,,,NaN,,,,,,false,,,,185959.3999999999,185959.30000000028,,185959,,185970.496,8,400,,,
sequence,flow.Sequence,4_22,2023-10-31T23:40:38.661Z,,0,,,5970.50200000027,completion,,,,,false,,,,185959.7000000002,185959.30000000028,179955.008,179971.2000000002,179988.798,185970.496,8,400,,,
trial,html.Screen,4_23_0,2023-10-31T23:40:44.984Z,,0,1,,6311.003999999986,response,ISIC_4524488.JPG,6,ISIC_0024808.JPG,ISIC_0024808.JPG,false,0,keypress(z),500,192281.80000000028,192281.5,185954.818,185959.7000000002,185970.496,192300.862,8,400,24,,ISIC_4524488.JPG
break,html.Screen,4_23_1,2023-10-31T23:40:44.985Z,,0,,,NaN,,,,,,false,,,,192283.1000000001,192282.80000000028,,192282.1000000001,,192300.862,8,400,,,
break_continue,html.Screen,4_23_2,2023-10-31T23:40:44.985Z,,0,,,NaN,,,,,,false,,,,192283.7000000002,192283.5,,192283.2000000002,,192300.862,8,400,,,
sequence,flow.Sequence,4_23,2023-10-31T23:40:44.986Z,,0,,,6313.003999999986,completion,,,,,false,,,,192283.80000000028,192283.5,185954.818,185959.7000000002,185970.496,192300.862,8,400,,,
trial,html.Screen,4_24_0,2023-10-31T23:40:49.307Z,,0,1,,4304.438000000286,response,ISIC_6033222.JPG,5,ISIC_2621288.JPG,ISIC_6033222.JPG,false,1,keypress(m),500,196605.5,196605.30000000028,192275.894,192284,192300.862,196607.458,8,400,25,,ISIC_2621288.JPG
break,html.Screen,4_24_1,2023-10-31T23:40:49.309Z,,0,,,NaN,,,,,,false,,,,196607.1000000001,196606.6000000001,,196605.80000000028,,196607.458,8,400,,,
break_continue,html.Screen,4_24_2,2023-10-31T23:40:49.310Z,,0,,,NaN,,,,,,false,,,,196608.2000000002,196607.8999999999,,196607.3999999999,,196607.458,8,400,,,
sequence,flow.Sequence,4_24,2023-10-31T23:40:49.310Z,,0,,,4307.037999999913,completion,,,,,false,,,,196608.3999999999,196607.8999999999,192275.894,192283.8999999999,192300.862,196607.458,8,400,,,
trial,html.Screen,4_25_0,2023-10-31T23:40:56.177Z,,0,1,,6867.041999999987,response,ISIC_0032797.JPG,5,ISIC_0028041.JPG,ISIC_0032797.JPG,false,1,keypress(m),500,203474.7000000002,203474.5,196592.116,196608.5,196607.458,203493.954,8,400,26,,ISIC_0028041.JPG
break,html.Screen,4_25_1,2023-10-31T23:40:56.179Z,,0,,,NaN,,,,,,false,,,,203476.7000000002,203476.2000000002,,203474.8999999999,,203493.954,8,400,,,
break_continue,html.Screen,4_25_2,2023-10-31T23:40:56.179Z,,0,,,NaN,,,,,,false,,,,203477.30000000028,203477.1000000001,,203476.8999999999,,203493.954,8,400,,,
sequence,flow.Sequence,4_25,2023-10-31T23:40:56.179Z,,0,,,6869.64200000008,completion,,,,,false,,,,203477.3999999999,203477.1000000001,196592.116,196608.5,196607.458,203493.954,8,400,,,
trial,html.Screen,4_26_0,2023-10-31T23:40:59.445Z,,0,1,,3248.8460000002815,response,ISIC_0061559.JPG,5,ISIC_5754233.JPG,ISIC_0061559.JPG,false,1,keypress(m),500,206743.1000000001,206742.80000000028,203475.343,203477.6000000001,203493.954,206756.748,8,400,27,,ISIC_5754233.JPG
break,html.Screen,4_26_1,2023-10-31T23:40:59.446Z,,0,,,NaN,,,,,,false,,,,206744.3999999999,206744.1000000001,,206743.30000000028,,206756.748,8,400,,,
break_continue,html.Screen,4_26_2,2023-10-31T23:40:59.447Z,,0,,,NaN,,,,,,false,,,,206744.8999999999,206744.80000000028,,206744.6000000001,,206756.748,8,400,,,
sequence,flow.Sequence,4_26,2023-10-31T23:40:59.447Z,,0,,,3250.8460000002815,completion,,,,,false,,,,206745.2000000002,206744.80000000028,203475.343,203477.6000000001,203493.954,206756.748,8,400,,,
trial,html.Screen,4_27_0,2023-10-31T23:41:02.857Z,,0,1,,3398.2520000000077,response,ISIC_0025535.JPG,4,ISIC_1078854.JPG,ISIC_1078854.JPG,false,0,keypress(z),500,210155.2000000002,210155,206741.191,206745.30000000028,206756.748,210157.113,8,400,28,,ISIC_0025535.JPG
break,html.Screen,4_27_1,2023-10-31T23:41:02.859Z,,0,,,NaN,,,,,,false,,,,210156.7000000002,210156.30000000028,,210155.5,,210157.113,8,400,,,
break_continue,html.Screen,4_27_2,2023-10-31T23:41:02.859Z,,0,,,NaN,,,,,,false,,,,210157.5,210157.3999999999,,210156.8999999999,,210157.113,8,400,,,
sequence,flow.Sequence,4_27,2023-10-31T23:41:02.860Z,,0,,,3400.6519999999146,completion,,,,,false,,,,210157.7000000002,210157.3999999999,206741.191,206745.2000000002,206756.748,210157.113,8,400,,,
trial,html.Screen,4_28_0,2023-10-31T23:41:06.766Z,,0,1,,3906.6870000002673,response,ISIC_2394780.JPG,5,ISIC_3601224.JPG,ISIC_3601224.JPG,false,0,keypress(z),500,214064,214063.80000000028,210155.269,210157.8999999999,210157.113,214083.183,8,400,29,,ISIC_2394780.JPG
break,html.Screen,4_28_1,2023-10-31T23:41:06.767Z,,0,,,NaN,,,,,,false,,,,214065.2000000002,214065,,214064.2000000002,,214083.183,8,400,,,
break_continue,html.Screen,4_28_2,2023-10-31T23:41:06.768Z,,0,,,NaN,,,,,,false,,,,214065.80000000028,214065.7000000002,,214065.3999999999,,214083.183,8,400,,,
sequence,flow.Sequence,4_28,2023-10-31T23:41:06.768Z,,0,,,3908.587000000174,completion,,,,,false,,,,214066,214065.7000000002,210155.269,210157.80000000028,210157.113,214083.183,8,400,,,
trial,html.Screen,4_29_0,2023-10-31T23:41:10.099Z,,0,1,,3314.216999999917,response,ISIC_9688534.JPG,5,ISIC_0005062.JPG,ISIC_9688534.JPG,false,1,keypress(m),500,217397.6000000001,217397.3999999999,214051.712,214066.1000000001,214083.183,217399.536,8,400,30,,ISIC_0005062.JPG
break,html.Screen,4_29_1,2023-10-31T23:41:10.101Z,,0,,,NaN,,,,,,false,,,,217398.8999999999,217398.5,,217397.8999999999,,217399.536,8,400,,,
break_continue,html.Screen,4_29_2,2023-10-31T23:41:10.101Z,,0,,,NaN,,,,,,false,,,,217399.5,217399.3999999999,,217399,,217399.536,8,400,,,
sequence,flow.Sequence,4_29,2023-10-31T23:41:10.102Z,,0,,,3316.216999999917,completion,,,,,false,,,,217399.80000000028,217399.3999999999,214051.712,214066.1000000001,214083.183,217399.536,8,400,,,
trial,html.Screen,4_30_0,2023-10-31T23:41:13.385Z,,0,1,,3283.363999999914,response,ISIC_0029007.JPG,5,ISIC_0055550.JPG,ISIC_0055550.JPG,false,0,keypress(z),500,220683.2000000002,220682.8999999999,217385.533,217400,217399.536,220702.376,8,400,31,,ISIC_0029007.JPG
break,html.Screen,4_30_1,2023-10-31T23:41:13.386Z,,0,,,NaN,,,,,,false,,,,220684.5,220684.30000000028,,220683.5,,220702.376,8,400,,,
break_continue,html.Screen,4_30_2,2023-10-31T23:41:13.387Z,,0,,,NaN,,,,,,false,,,,220685.1000000001,220685,,220684.7000000002,,220702.376,8,400,,,
sequence,flow.Sequence,4_30,2023-10-31T23:41:13.387Z,,0,,,3285.464000000007,completion,,,,,false,,,,220685.30000000028,220685,217385.533,217399.8999999999,217399.536,220702.376,8,400,,,
trial,html.Screen,4_31_0,2023-10-31T23:41:16.797Z,,0,1,,3392.5239999999176,response,ISIC_2729109.JPG,5,ISIC_0066935.JPG,ISIC_0066935.JPG,false,0,keypress(z),500,224095.1000000001,224094.8999999999,220682.697,220685.3999999999,220702.376,224104.211,8,400,32,,ISIC_2729109.JPG
break,html.Screen,4_31_1,2023-10-31T23:41:16.798Z,,0,,,NaN,,,,,,false,,,,224096.3999999999,224096.1000000001,,224095.3999999999,,224104.211,8,400,,,
break_continue,html.Screen,4_31_2,2023-10-31T23:41:16.799Z,,0,,,NaN,,,,,,false,,,,224096.8999999999,224096.80000000028,,224096.5,,224104.211,8,400,,,
sequence,flow.Sequence,4_31,2023-10-31T23:41:16.799Z,,0,,,3394.42400000029,completion,,,,,false,,,,224097,224096.80000000028,220682.697,220685.3999999999,220702.376,224104.211,8,400,,,
trial,html.Screen,4_32_0,2023-10-31T23:41:21.041Z,,0,1,,4234.389000000083,response,ISIC_0071118.JPG,4,ISIC_0066105.JPG,ISIC_0066105.JPG,false,0,keypress(z),500,228338.8999999999,228338.6000000001,224087.642,224097.1000000001,224104.211,228357.969,8,400,33,,ISIC_0071118.JPG
break,html.Screen,4_32_1,2023-10-31T23:41:21.042Z,,0,,,NaN,,,,,,false,,,,228340.2000000002,228339.8999999999,,228339.1000000001,,228357.969,8,400,,,
break_continue,html.Screen,4_32_2,2023-10-31T23:41:21.043Z,,0,,,NaN,,,,,,false,,,,228340.80000000028,228340.6000000001,,228340.30000000028,,228357.969,8,400,,,
sequence,flow.Sequence,4_32,2023-10-31T23:41:21.043Z,,0,,,4236.389000000083,completion,,,,,false,,,,228341,228340.6000000001,224087.642,224097.1000000001,224104.211,228357.969,8,400,,,
trial,html.Screen,4_33_0,2023-10-31T23:41:24.629Z,,0,1,,3569.1310000000813,response,ISIC_7175697.JPG,4,ISIC_0030916.JPG,ISIC_0030916.JPG,false,0,keypress(z),500,231927.3999999999,231927.1000000001,228338.939,228341,228357.969,231947.476,8,400,34,,ISIC_7175697.JPG
break,html.Screen,4_33_1,2023-10-31T23:41:24.631Z,,0,,,NaN,,,,,,false,,,,231928.8999999999,231928.5,,231927.7000000002,,231947.476,8,400,,,
break_continue,html.Screen,4_33_2,2023-10-31T23:41:24.631Z,,0,,,NaN,,,,,,false,,,,231929.5,231929.30000000028,,231929,,231947.476,8,400,,,
sequence,flow.Sequence,4_33,2023-10-31T23:41:24.632Z,,0,,,3571.3310000002675,completion,,,,,false,,,,231929.7000000002,231929.30000000028,228338.939,228341,228357.969,231947.476,8,400,,,
trial,html.Screen,4_34_0,2023-10-31T23:41:29.882Z,,0,1,,5232.824000000284,response,ISIC_6119202.JPG,6,ISIC_0029606.JPG,ISIC_6119202.JPG,false,1,keypress(m),500,237180.6000000001,237180.30000000028,231925.48,231929.8999999999,231947.476,237201.493,8,400,35,,ISIC_0029606.JPG
break,html.Screen,4_34_1,2023-10-31T23:41:29.885Z,,0,,,NaN,,,,,,false,,,,237183.2000000002,237182.8999999999,,237182.2000000002,,237201.493,8,400,,,
break_continue,html.Screen,4_34_2,2023-10-31T23:41:29.886Z,,0,,,NaN,,,,,,false,,,,237183.80000000028,237183.6000000001,,237183.30000000028,,237201.493,8,400,,,
sequence,flow.Sequence,4_34,2023-10-31T23:41:29.886Z,,0,,,5236.124000000098,completion,,,,,false,,,,237184,237183.6000000001,231925.48,231929.8999999999,231947.476,237201.493,8,400,,,
trial,html.Screen,4_35_0,2023-10-31T23:41:33.969Z,,0,1,,4065.2070000001986,response,ISIC_1578399.JPG,5,ISIC_0060222.JPG,ISIC_0060222.JPG,false,0,keypress(z),500,241267.2000000002,241266.7000000002,237182.445,237184.1000000001,237201.493,241286.934,8,400,36,,ISIC_1578399.JPG
break,html.Screen,4_35_1,2023-10-31T23:41:33.970Z,,0,,,NaN,,,,,,false,,,,241268.5,241268,,241267.5,,241286.934,8,400,,,
break_continue,html.Screen,4_35_2,2023-10-31T23:41:33.971Z,,0,,,NaN,,,,,,false,,,,241269.1000000001,241269,,241268.6000000001,,241286.934,8,400,,,
sequence,flow.Sequence,4_35,2023-10-31T23:41:33.971Z,,0,,,4067.5070000000123,completion,,,,,false,,,,241269.30000000028,241269,237182.445,237184.1000000001,237201.493,241286.934,8,400,,,
trial,html.Screen,4_36_0,2023-10-31T23:41:38.213Z,,0,1,,4224.366000000271,response,ISIC_0011491.JPG,6,ISIC_0000314.JPG,ISIC_0000314.JPG,false,0,keypress(z),500,245511.5,245511.30000000028,241258.145,241269.3999999999,241286.934,245531.61,8,400,37,,ISIC_0011491.JPG
break,html.Screen,4_36_1,2023-10-31T23:41:38.215Z,,0,,,NaN,,,,,,false,,,,245513.3999999999,245512.3999999999,,245511.80000000028,,245531.61,8,400,,,
break_continue,html.Screen,4_36_2,2023-10-31T23:41:38.216Z,,0,,,NaN,,,,,,false,,,,245514,245513.80000000028,,245513.5,,245531.61,8,400,,,
sequence,flow.Sequence,4_36,2023-10-31T23:41:38.216Z,,0,,,4226.866000000271,completion,,,,,false,,,,245514.1000000001,245513.80000000028,241258.145,241269.3999999999,241286.934,245531.61,8,400,,,
trial,html.Screen,4_37_0,2023-10-31T23:41:44.778Z,,0,1,,6544.289999999921,response,ISIC_3702669.JPG,5,ISIC_9776851.JPG,ISIC_3702669.JPG,false,1,keypress(m),500,252076.1000000001,252075.8999999999,245506.145,245514.3999999999,245531.61,252095.354,8,400,38,,ISIC_9776851.JPG
break,html.Screen,4_37_1,2023-10-31T23:41:44.779Z,,0,,,NaN,,,,,,false,,,,252077.6000000001,252077.30000000028,,252076.5,,252095.354,8,400,,,
break_continue,html.Screen,4_37_2,2023-10-31T23:41:44.780Z,,0,,,NaN,,,,,,false,,,,252078.1000000001,252078,,252077.80000000028,,252095.354,8,400,,,
sequence,flow.Sequence,4_37,2023-10-31T23:41:44.780Z,,0,,,6546.390000000014,completion,,,,,false,,,,252078.30000000028,252078,245506.145,245514.2000000002,245531.61,252095.354,8,400,,,
trial,html.Screen,4_38_0,2023-10-31T23:41:50.910Z,,0,1,,6112.346000000194,response,ISIC_0013651.JPG,5,ISIC_0010791.JPG,ISIC_0010791.JPG,false,0,keypress(z),500,258207.8999999999,258207.7000000002,252066.047,252078.3999999999,252095.354,258227.315,8,400,39,,ISIC_0013651.JPG
break,html.Screen,4_38_1,2023-10-31T23:41:50.912Z,,0,,,NaN,,,,,,false,,,,258209.8999999999,258208.80000000028,,258208.1000000001,,258227.315,8,400,,,
break_continue,html.Screen,4_38_2,2023-10-31T23:41:50.912Z,,0,,,NaN,,,,,,false,,,,258210.3999999999,258210.2000000002,,258210,,258227.315,8,400,,,
sequence,flow.Sequence,4_38,2023-10-31T23:41:50.912Z,,0,,,6114.846000000194,completion,,,,,false,,,,258210.6000000001,258210.2000000002,252066.047,252078.3999999999,252095.354,258227.315,8,400,,,
trial,html.Screen,4_39_0,2023-10-31T23:41:54.146Z,,0,1,,3216.485000000277,response,ISIC_0030845.JPG,6,ISIC_0072631.JPG,ISIC_0030845.JPG,false,1,keypress(m),500,261444.2000000002,261443.80000000028,258195.743,258210.6000000001,258227.315,261463.258,8,400,40,,ISIC_0072631.JPG
break,html.Screen,4_39_1,2023-10-31T23:41:54.147Z,,0,,,NaN,,,,,,false,,,,261445.3999999999,261445.1000000001,,261444.3999999999,,261463.258,8,400,,,
break_continue,html.Screen,4_39_2,2023-10-31T23:41:54.148Z,,0,,,NaN,,,,,,false,,,,261446,261445.80000000028,,261445.6000000001,,261463.258,8,400,,,
sequence,flow.Sequence,4_39,2023-10-31T23:41:54.148Z,,0,,,3218.485000000277,completion,,,,,false,,,,261446.30000000028,261445.80000000028,258195.743,258210.6000000001,258227.315,261463.258,8,400,,,
trial,html.Screen,4_40_0,2023-10-31T23:41:58.311Z,,0,1,,4145.942000000185,response,ISIC_8120622.JPG,6,ISIC_0054248.JPG,ISIC_8120622.JPG,false,1,keypress(m),500,265609.5,265609.2000000002,261436.3,261446.3999999999,261463.258,265628.688,8,400,41,,ISIC_0054248.JPG
break,html.Screen,4_40_1,2023-10-31T23:41:58.313Z,,0,,,NaN,,,,,,false,,,,265611.3000000003,265610.3999999999,,265609.8000000003,,265628.688,8,400,,,
break_continue,html.Screen,4_40_2,2023-10-31T23:41:58.314Z,,0,,,NaN,,,,,,false,,,,265611.8000000003,265611.6000000001,,265611.3999999999,,265628.688,8,400,,,
sequence,flow.Sequence,4_40,2023-10-31T23:41:58.314Z,,0,,,4148.3420000000915,completion,,,,,false,,,,265612,265611.6000000001,261436.3,261446.3999999999,261463.258,265628.688,8,400,,,
trial,html.Screen,4_41_0,2023-10-31T23:42:03.900Z,,0,1,,5569.211999999883,response,ISIC_0028136.JPG,4,ISIC_6653311.JPG,ISIC_6653311.JPG,false,0,keypress(z),500,271198.2000000002,271197.8999999999,265597.371,265612.1000000001,265628.688,271217.592,8,400,42,,ISIC_0028136.JPG
break,html.Screen,4_41_1,2023-10-31T23:42:03.901Z,,0,,,NaN,,,,,,false,,,,271199.5,271199.2000000002,,271198.5,,271217.592,8,400,,,
break_continue,html.Screen,4_41_2,2023-10-31T23:42:03.902Z,,0,,,NaN,,,,,,false,,,,271200,271199.8999999999,,271199.7000000002,,271217.592,8,400,,,
sequence,flow.Sequence,4_41,2023-10-31T23:42:03.902Z,,0,,,5571.211999999883,completion,,,,,false,,,,271200.2000000002,271199.8999999999,265597.371,265612,265628.688,271217.592,8,400,,,
trial,html.Screen,4_42_0,2023-10-31T23:42:09.680Z,,0,1,,5760.208000000275,response,ISIC_7903838.JPG,4,ISIC_0011164.JPG,ISIC_0011164.JPG,false,0,keypress(z),500,276978.2000000002,276977.8000000003,271198.272,271200.3000000003,271217.592,276997.615,8,400,43,,ISIC_7903838.JPG
break,html.Screen,4_42_1,2023-10-31T23:42:09.681Z,,0,,,NaN,,,,,,false,,,,276979.3999999999,276979.1000000001,,276978.3999999999,,276997.615,8,400,,,
break_continue,html.Screen,4_42_2,2023-10-31T23:42:09.682Z,,0,,,NaN,,,,,,false,,,,276980.1000000001,276980,,276979.6000000001,,276997.615,8,400,,,
sequence,flow.Sequence,4_42,2023-10-31T23:42:09.682Z,,0,,,5762.407999999996,completion,,,,,false,,,,276980.3999999999,276980,271198.272,271200.3000000003,271217.592,276997.615,8,400,,,
trial,html.Screen,4_43_0,2023-10-31T23:42:13.349Z,,0,1,,3648.784999999916,response,ISIC_0071957.JPG,5,ISIC_0011642.JPG,ISIC_0011642.JPG,false,0,keypress(z),500,280646.8999999999,280646.3999999999,276978.74,276980.5,276997.615,280666.2,8,400,44,,ISIC_0071957.JPG
break,html.Screen,4_43_1,2023-10-31T23:42:13.351Z,,0,,,NaN,,,,,,false,,,,280649,280648.7000000002,,280647.3000000003,,280666.2,8,400,,,
break_continue,html.Screen,4_43_2,2023-10-31T23:42:13.352Z,,0,,,NaN,,,,,,false,,,,280649.7000000002,280649.6000000001,,280649.2000000002,,280666.2,8,400,,,
sequence,flow.Sequence,4_43,2023-10-31T23:42:13.352Z,,0,,,3651.9850000001024,completion,,,,,false,,,,280649.8999999999,280649.6000000001,276978.74,276980.5,276997.615,280666.2,8,400,,,
trial,html.Screen,4_44_0,2023-10-31T23:42:17.002Z,,0,1,,3633.699999999895,response,ISIC_1008609.JPG,5,ISIC_0014324.JPG,ISIC_0014324.JPG,false,0,keypress(z),500,284300.2000000002,284299.8999999999,280646.499,280650,280666.2,284319.529,8,400,45,,ISIC_1008609.JPG
break,html.Screen,4_44_1,2023-10-31T23:42:17.003Z,,0,,,NaN,,,,,,false,,,,284301.6000000001,284301.1000000001,,284300.3999999999,,284319.529,8,400,,,
break_continue,html.Screen,4_44_2,2023-10-31T23:42:17.004Z,,0,,,NaN,,,,,,false,,,,284302.3999999999,284302.2000000002,,284301.8000000003,,284319.529,8,400,,,
sequence,flow.Sequence,4_44,2023-10-31T23:42:17.004Z,,0,,,3636.0000000001746,completion,,,,,false,,,,284302.6000000001,284302.2000000002,280646.499,280649.8999999999,280666.2,284319.529,8,400,,,
trial,html.Screen,4_45_0,2023-10-31T23:42:20.159Z,,0,1,,3137.671000000206,response,ISIC_1668831.JPG,5,ISIC_8649055.JPG,ISIC_1668831.JPG,false,1,keypress(m),500,287457.5,287457.2000000002,284296.203,284302.7000000002,284319.529,287477.341,8,400,46,,ISIC_8649055.JPG
break,html.Screen,4_45_1,2023-10-31T23:42:20.161Z,,0,,,NaN,,,,,,false,,,,287458.7000000002,287458.3999999999,,287457.7000000002,,287477.341,8,400,,,
break_continue,html.Screen,4_45_2,2023-10-31T23:42:20.161Z,,0,,,NaN,,,,,,false,,,,287459.3000000003,287459.2000000002,,287458.8999999999,,287477.341,8,400,,,
sequence,flow.Sequence,4_45,2023-10-31T23:42:20.161Z,,0,,,3139.671000000206,completion,,,,,false,,,,287459.5,287459.2000000002,284296.203,284302.7000000002,284319.529,287477.341,8,400,,,
trial,html.Screen,4_46_0,2023-10-31T23:42:23.556Z,,0,1,,3376.3590000001714,response,ISIC_2430137.JPG,4,ISIC_0070061.JPG,ISIC_0070061.JPG,false,0,keypress(z),500,290854,290853.7000000002,287451.04,287459.6000000001,287477.341,290856.032,8,400,47,,ISIC_2430137.JPG
break,html.Screen,4_46_1,2023-10-31T23:42:23.558Z,,0,,,NaN,,,,,,false,,,,290856,290855,,290854.2000000002,,290856.032,8,400,,,
break_continue,html.Screen,4_46_2,2023-10-31T23:42:23.558Z,,0,,,NaN,,,,,,false,,,,290856.6000000001,290856.5,,290856.2000000002,,290856.032,8,400,,,
sequence,flow.Sequence,4_46,2023-10-31T23:42:23.559Z,,0,,,3379.158999999985,completion,,,,,false,,,,290856.7000000002,290856.5,287451.04,287459.5,287477.341,290856.032,8,400,,,
trial,html.Screen,4_47_0,2023-10-31T23:42:27.145Z,,0,1,,3586.8679999999003,response,ISIC_0350472.JPG,5,ISIC_1072321.JPG,ISIC_1072321.JPG,false,0,keypress(z),500,294443.3000000003,294442.8999999999,290853.611,290856.8999999999,290856.032,294456.53,8,400,48,,ISIC_0350472.JPG
break,html.Screen,4_47_1,2023-10-31T23:42:27.146Z,,0,,,NaN,,,,,,false,,,,294444.5,294444.2000000002,,294443.5,,294456.53,8,400,,,
break_continue,html.Screen,4_47_2,2023-10-31T23:42:27.147Z,,0,,,NaN,,,,,,false,,,,294445.1000000001,294444.8999999999,,294444.6000000001,,294456.53,8,400,,,
sequence,flow.Sequence,4_47,2023-10-31T23:42:27.147Z,,0,,,3588.8679999999003,completion,,,,,false,,,,294445.2000000002,294444.8999999999,290853.611,290856.8999999999,290856.032,294456.53,8,400,,,
trial,html.Screen,4_48_0,2023-10-31T23:42:31.581Z,,0,1,,4422.7700000002515,response,ISIC_0005062.JPG,4,ISIC_0944273.JPG,ISIC_0944273.JPG,false,0,keypress(z),500,298879.6000000001,298879.3000000003,294440.175,294445.3000000003,294456.53,298898.734,8,400,49,,ISIC_0005062.JPG
break,html.Screen,4_48_1,2023-10-31T23:42:31.583Z,,0,,,NaN,,,,,,false,,,,298880.8000000003,298880.5,,298879.8000000003,,298898.734,8,400,,,
break_continue,html.Screen,4_48_2,2023-10-31T23:42:31.583Z,,0,,,NaN,,,,,,false,,,,298881.3000000003,298881.3000000003,,298881,,298898.734,8,400,,,
sequence,flow.Sequence,4_48,2023-10-31T23:42:31.583Z,,0,,,4424.7700000002515,completion,,,,,false,,,,298881.5,298881.3000000003,294440.175,294445.2000000002,294456.53,298898.734,8,400,,,
trial,html.Screen,4_49_0,2023-10-31T23:42:34.785Z,,0,1,,3184.3660000000964,response,ISIC_1356715.JPG,6,ISIC_2029418.JPG,ISIC_1356715.JPG,false,1,keypress(m),500,302083.3999999999,302083.1000000001,298866.654,298881.6000000001,298898.734,302102.526,8,400,50,,ISIC_2029418.JPG
break,html.Screen,4_49_1,2023-10-31T23:42:44.796Z,,0,,,10006.507999999973,timeout,,,,,false,,,,312093.8000000003,312092.594,302076.247,302083.6000000001,302102.526,312109.034,8,400,,,
break_continue,html.Screen,4_49_2,2023-10-31T23:42:45.901Z,,0,,,1074.6660000002012,response,,,,,false,continue,keypress(Space),,313199.6000000001,313183.7000000002,312092.594,312094.1000000001,312109.034,313218.819,8,400,,,
sequence,flow.Sequence,4_49,2023-10-31T23:42:45.902Z,,0,,,14284.96600000019,completion,,,,,false,,,,313199.8999999999,313183.7000000002,298866.654,298881.6000000001,298898.734,313218.819,8,400,,,
trial,html.Screen,4_50_0,2023-10-31T23:42:49.311Z,,0,2,,3390.4810000002617,response,ISIC_0046416.JPG,5,ISIC_8106899.JPG,ISIC_0046416.JPG,false,1,keypress(m),500,316609.5,316609.3000000003,313193.274,313200,313218.819,316611.546,8,400,1,,ISIC_8106899.JPG
break,html.Screen,4_50_1,2023-10-31T23:42:49.313Z,,0,,,NaN,,,,,,false,,,,316611.3999999999,316610.5,,316609.8999999999,,316611.546,8,400,,,
break_continue,html.Screen,4_50_2,2023-10-31T23:42:49.314Z,,0,,,NaN,,,,,,false,,,,316612,316611.8000000003,,316611.6000000001,,316611.546,8,400,,,
sequence,flow.Sequence,4_50,2023-10-31T23:42:49.314Z,,0,,,3392.9810000002617,completion,,,,,false,,,,316612.2000000002,316611.8000000003,313193.274,313200,313218.819,316611.546,8,400,,,
trial,html.Screen,4_51_0,2023-10-31T23:42:53.300Z,,0,2,,3986.1540000002133,response,ISIC_7134821.JPG,5,ISIC_0029933.JPG,ISIC_0029933.JPG,false,0,keypress(z),500,320598,320597.7000000002,316602.217,316612.3999999999,316611.546,320617.613,8,400,2,,ISIC_7134821.JPG
break,html.Screen,4_51_1,2023-10-31T23:42:53.301Z,,0,,,NaN,,,,,,false,,,,320599.3000000003,320599,,320598.3000000003,,320617.613,8,400,,,
break_continue,html.Screen,4_51_2,2023-10-31T23:42:53.302Z,,0,,,NaN,,,,,,false,,,,320599.8000000003,320599.7000000002,,320599.3999999999,,320617.613,8,400,,,
sequence,flow.Sequence,4_51,2023-10-31T23:42:53.302Z,,0,,,3988.1540000002133,completion,,,,,false,,,,320600.1000000001,320599.7000000002,316602.217,316612.3000000003,316611.546,320617.613,8,400,,,
trial,html.Screen,4_52_0,2023-10-31T23:42:56.216Z,,0,2,,2896.386999999988,response,ISIC_0014541.JPG,5,ISIC_7124160.JPG,ISIC_0014541.JPG,false,1,keypress(m),500,323514.3000000003,323514,320597.201,320600.2000000002,320617.613,323534.204,8,400,3,,ISIC_7124160.JPG
break,html.Screen,4_52_1,2023-10-31T23:42:56.218Z,,0,,,NaN,,,,,,false,,,,323516.2000000002,323515.7000000002,,323514.5,,323534.204,8,400,,,
break_continue,html.Screen,4_52_2,2023-10-31T23:42:56.219Z,,0,,,NaN,,,,,,false,,,,323516.7000000002,323516.6000000001,,323516.3000000003,,323534.204,8,400,,,
sequence,flow.Sequence,4_52,2023-10-31T23:42:56.219Z,,0,,,2898.987000000081,completion,,,,,false,,,,323516.8000000003,323516.6000000001,320597.201,320600.1000000001,320617.613,323534.204,8,400,,,
trial,html.Screen,4_53_0,2023-10-31T23:43:00.270Z,,0,2,,4033.795999999973,response,ISIC_7162343.JPG,5,ISIC_0058661.JPG,ISIC_0058661.JPG,false,0,keypress(z),500,327568.3000000003,327568,323506.666,323517,323534.204,327587.539,8,400,4,,ISIC_7162343.JPG
break,html.Screen,4_53_1,2023-10-31T23:43:00.272Z,,0,,,NaN,,,,,,false,,,,327570.2000000002,327569.8000000003,,327568.6000000001,,327587.539,8,400,,,
break_continue,html.Screen,4_53_2,2023-10-31T23:43:00.273Z,,0,,,NaN,,,,,,false,,,,327570.8999999999,327570.7000000002,,327570.3000000003,,327587.539,8,400,,,
sequence,flow.Sequence,4_53,2023-10-31T23:43:00.273Z,,0,,,4036.4960000001593,completion,,,,,false,,,,327571.1000000001,327570.7000000002,323506.666,323517,323534.204,327587.539,8,400,,,
trial,html.Screen,4_54_0,2023-10-31T23:43:03.187Z,,0,2,,2897.1610000001965,response,ISIC_0034233.JPG,5,ISIC_9196783.JPG,ISIC_0034233.JPG,false,1,keypress(m),500,330484.8999999999,330484.7000000002,327567.053,327571.3000000003,327587.539,330504.397,8,400,5,,ISIC_9196783.JPG
break,html.Screen,4_54_1,2023-10-31T23:43:03.188Z,,0,,,NaN,,,,,,false,,,,330486.1000000001,330485.8000000003,,330485.1000000001,,330504.397,8,400,,,
break_continue,html.Screen,4_54_2,2023-10-31T23:43:03.188Z,,0,,,NaN,,,,,,false,,,,330486.7000000002,330486.3999999999,,330486.2000000002,,330504.397,8,400,,,
sequence,flow.Sequence,4_54,2023-10-31T23:43:03.189Z,,0,,,2898.860999999917,completion,,,,,false,,,,330486.8000000003,330486.3999999999,327567.053,327571.2000000002,327587.539,330504.397,8,400,,,
trial,html.Screen,4_55_0,2023-10-31T23:43:06.440Z,,0,2,,3233.103000000003,response,ISIC_9540825.JPG,5,ISIC_0010848.JPG,ISIC_0010848.JPG,false,0,keypress(z),500,333737.8999999999,333737.5,330487.585,330487,330504.397,333755.68,8,400,6,,ISIC_9540825.JPG
break,html.Screen,4_55_1,2023-10-31T23:43:06.441Z,,0,,,NaN,,,,,,false,,,,333739.2000000002,333738.7000000002,,333738.1000000001,,333755.68,8,400,,,
break_continue,html.Screen,4_55_2,2023-10-31T23:43:06.441Z,,0,,,NaN,,,,,,false,,,,333739.6000000001,333739.5,,333739.3999999999,,333755.68,8,400,,,
sequence,flow.Sequence,4_55,2023-10-31T23:43:06.442Z,,0,,,3235.103000000003,completion,,,,,false,,,,333739.8000000003,333739.5,330487.585,330487,330504.397,333755.68,8,400,,,
trial,html.Screen,4_56_0,2023-10-31T23:43:09.596Z,,0,2,,3138.219999999914,response,ISIC_2741857.JPG,4,ISIC_0012222.JPG,ISIC_2741857.JPG,false,1,keypress(m),500,336894.2000000002,336893.8999999999,333729.27,333740,333755.68,336913.33,8,400,7,,ISIC_0012222.JPG
break,html.Screen,4_56_1,2023-10-31T23:43:09.597Z,,0,,,NaN,,,,,,false,,,,336895.6000000001,336895.3000000003,,336894.3999999999,,336913.33,8,400,,,
break_continue,html.Screen,4_56_2,2023-10-31T23:43:09.598Z,,0,,,NaN,,,,,,false,,,,336896.2000000002,336896,,336895.8000000003,,336913.33,8,400,,,
sequence,flow.Sequence,4_56,2023-10-31T23:43:09.598Z,,0,,,3140.320000000007,completion,,,,,false,,,,336896.3000000003,336896,333729.27,333739.8999999999,333755.68,336913.33,8,400,,,
trial,html.Screen,4_57_0,2023-10-31T23:43:12.545Z,,0,2,,2928.6699999999837,response,ISIC_1142962.JPG,5,ISIC_0063168.JPG,ISIC_0063168.JPG,false,0,keypress(z),500,339843.6000000001,339842,336885.943,336896.3999999999,336913.33,339863.049,8,400,8,,ISIC_1142962.JPG
break,html.Screen,4_57_1,2023-10-31T23:43:12.547Z,,0,,,NaN,,,,,,false,,,,339844.8999999999,339844.6000000001,,339844,,339863.049,8,400,,,
break_continue,html.Screen,4_57_2,2023-10-31T23:43:12.547Z,,0,,,NaN,,,,,,false,,,,339845.5,339845.3999999999,,339845.1000000001,,339863.049,8,400,,,
sequence,flow.Sequence,4_57,2023-10-31T23:43:12.548Z,,0,,,2932.0699999998906,completion,,,,,false,,,,339845.7000000002,339845.3999999999,336885.943,336896.3999999999,336913.33,339863.049,8,400,,,
trial,html.Screen,4_58_0,2023-10-31T23:43:15.654Z,,0,2,,3088.451000000001,response,ISIC_4894929.JPG,5,ISIC_0030072.JPG,ISIC_4894929.JPG,false,1,keypress(m),500,342951.8000000003,342951.5,339836.94,339845.8999999999,339863.049,342970.908,8,400,9,,ISIC_0030072.JPG
break,html.Screen,4_58_1,2023-10-31T23:43:15.655Z,,0,,,NaN,,,,,,false,,,,342953.3000000003,342952.8000000003,,342952,,342970.908,8,400,,,
break_continue,html.Screen,4_58_2,2023-10-31T23:43:15.656Z,,0,,,NaN,,,,,,false,,,,342953.8000000003,342953.7000000002,,342953.3999999999,,342970.908,8,400,,,
sequence,flow.Sequence,4_58,2023-10-31T23:43:15.656Z,,0,,,3090.651000000187,completion,,,,,false,,,,342954,342953.7000000002,339836.94,339845.8000000003,339863.049,342970.908,8,400,,,
trial,html.Screen,4_59_0,2023-10-31T23:43:19.050Z,,0,2,,3377.2920000001905,response,ISIC_0011114.JPG,4,ISIC_0013501.JPG,ISIC_0013501.JPG,false,0,keypress(z),500,346348.5,346348.2000000002,342947.197,342954.1000000001,342970.908,346350.234,8,400,10,,ISIC_0011114.JPG
break,html.Screen,4_59_1,2023-10-31T23:43:19.052Z,,0,,,NaN,,,,,,false,,,,346350,346349.7000000002,,346348.7000000002,,346350.234,8,400,,,
break_continue,html.Screen,4_59_2,2023-10-31T23:43:19.052Z,,0,,,NaN,,,,,,false,,,,346350.6000000001,346350.5,,346350.2000000002,,346350.234,8,400,,,
sequence,flow.Sequence,4_59,2023-10-31T23:43:19.053Z,,0,,,3379.592000000004,completion,,,,,false,,,,346350.8000000003,346350.5,342947.197,342954.1000000001,342970.908,346350.234,8,400,,,
trial,html.Screen,4_60_0,2023-10-31T23:43:22.223Z,,0,2,,3170.4660000001895,response,ISIC_7586566.JPG,6,ISIC_0032687.JPG,ISIC_7586566.JPG,false,1,keypress(m),500,349521,349520.7000000002,346348.945,346350.8999999999,346350.234,349540.166,8,400,11,,ISIC_0032687.JPG
break,html.Screen,4_60_1,2023-10-31T23:43:22.224Z,,0,,,NaN,,,,,,false,,,,349522.3000000003,349522,,349521.3000000003,,349540.166,8,400,,,
break_continue,html.Screen,4_60_2,2023-10-31T23:43:22.225Z,,0,,,NaN,,,,,,false,,,,349522.8000000003,349522.7000000002,,349522.5,,349540.166,8,400,,,
sequence,flow.Sequence,4_60,2023-10-31T23:43:22.225Z,,0,,,3172.4660000001895,completion,,,,,false,,,,349523,349522.7000000002,346348.945,346350.8999999999,346350.234,349540.166,8,400,,,
trial,html.Screen,4_61_0,2023-10-31T23:43:25.283Z,,0,2,,3040.5340000001597,response,ISIC_0028031.JPG,4,ISIC_0013845.JPG,ISIC_0013845.JPG,false,0,keypress(z),500,352581,352580.7000000002,349506.776,349523.1000000001,349540.166,352600.26,8,400,12,,ISIC_0028031.JPG
break,html.Screen,4_61_1,2023-10-31T23:43:25.284Z,,0,,,NaN,,,,,,false,,,,352582.3000000003,352581.8000000003,,352581.3000000003,,352600.26,8,400,,,
break_continue,html.Screen,4_61_2,2023-10-31T23:43:25.285Z,,0,,,NaN,,,,,,false,,,,352582.8999999999,352582.7000000002,,352582.3999999999,,352600.26,8,400,,,
sequence,flow.Sequence,4_61,2023-10-31T23:43:25.285Z,,0,,,3042.5340000001597,completion,,,,,false,,,,352583,352582.7000000002,349506.776,349523.1000000001,349540.166,352600.26,8,400,,,
trial,html.Screen,4_62_0,2023-10-31T23:43:28.583Z,,0,2,,3280.340000000084,response,ISIC_4723378.JPG,5,ISIC_0053540.JPG,ISIC_0053540.JPG,false,0,keypress(z),500,355880.8999999999,355880.6000000001,352567.199,352583.2000000002,352600.26,355900.638,8,400,13,,ISIC_4723378.JPG
break,html.Screen,4_62_1,2023-10-31T23:43:28.585Z,,0,,,NaN,,,,,,false,,,,355882.8999999999,355882.5,,355881.1000000001,,355900.638,8,400,,,
break_continue,html.Screen,4_62_2,2023-10-31T23:43:28.585Z,,0,,,NaN,,,,,,false,,,,355883.3999999999,355883.2000000002,,355883,,355900.638,8,400,,,
sequence,flow.Sequence,4_62,2023-10-31T23:43:28.585Z,,0,,,3282.940000000177,completion,,,,,false,,,,355883.6000000001,355883.2000000002,352567.199,352583.1000000001,352600.26,355900.638,8,400,,,
trial,html.Screen,4_63_0,2023-10-31T23:43:31.835Z,,0,2,,3232.362000000023,response,ISIC_0013731.JPG,5,ISIC_2124148.JPG,ISIC_0013731.JPG,false,1,keypress(m),500,359133.2000000002,359133,355866.886,355883.7000000002,355900.638,359135.188,8,400,14,,ISIC_2124148.JPG
break,html.Screen,4_63_1,2023-10-31T23:43:31.837Z,,0,,,NaN,,,,,,false,,,,359135,359134.1000000001,,359133.5,,359135.188,8,400,,,
break_continue,html.Screen,4_63_2,2023-10-31T23:43:31.837Z,,0,,,NaN,,,,,,false,,,,359135.6000000001,359135.5,,359135.2000000002,,359135.188,8,400,,,
sequence,flow.Sequence,4_63,2023-10-31T23:43:31.838Z,,0,,,3234.862000000023,completion,,,,,false,,,,359135.8999999999,359135.5,355866.886,355883.6000000001,355900.638,359135.188,8,400,,,
trial,html.Screen,4_64_0,2023-10-31T23:43:36.672Z,,0,2,,4834.711999999883,response,ISIC_0046429.JPG,4,ISIC_7183212.JPG,ISIC_0046429.JPG,false,1,keypress(m),500,363970.2000000002,363969.8999999999,359126.804,359136,359135.188,363989.251,8,400,15,,ISIC_7183212.JPG
break,html.Screen,4_64_1,2023-10-31T23:43:36.673Z,,0,,,NaN,,,,,,false,,,,363970.8999999999,363970.7000000002,,363970.3000000003,,363989.251,8,400,,,
break_continue,html.Screen,4_64_2,2023-10-31T23:43:36.673Z,,0,,,NaN,,,,,,false,,,,363971.2000000002,363971,,363970.8999999999,,363989.251,8,400,,,
sequence,flow.Sequence,4_64,2023-10-31T23:43:36.673Z,,0,,,4835.811999999976,completion,,,,,false,,,,363971.2000000002,363971,359126.804,359136,359135.188,363989.251,8,400,,,
trial,html.Screen,4_65_0,2023-10-31T23:43:40.116Z,,0,2,,3424.449000000197,response,ISIC_0029033.JPG,5,ISIC_0014525.JPG,ISIC_0014525.JPG,false,0,keypress(z),500,367414,367413.7000000002,363965.26,363971.3999999999,363989.251,367433.148,8,400,16,,ISIC_0029033.JPG
break,html.Screen,4_65_1,2023-10-31T23:43:40.117Z,,0,,,NaN,,,,,,false,,,,367415.5,367415.1000000001,,367414.3000000003,,367433.148,8,400,,,
break_continue,html.Screen,4_65_2,2023-10-31T23:43:40.118Z,,0,,,NaN,,,,,,false,,,,367416.2000000002,367416,,367415.6000000001,,367433.148,8,400,,,
sequence,flow.Sequence,4_65,2023-10-31T23:43:40.118Z,,0,,,3426.7490000000107,completion,,,,,false,,,,367416.3000000003,367416,363965.26,363971.3999999999,363989.251,367433.148,8,400,,,
trial,html.Screen,4_66_0,2023-10-31T23:43:43.560Z,,0,2,,3425.2519999999204,response,ISIC_0069260.JPG,5,ISIC_1877535.JPG,ISIC_0069260.JPG,false,1,keypress(m),500,370858.6000000001,370858.3999999999,367406.273,367416.5,367433.148,370877.815,8,400,17,,ISIC_1877535.JPG
break,html.Screen,4_66_1,2023-10-31T23:43:43.562Z,,0,,,NaN,,,,,,false,,,,370859.8999999999,370859.6000000001,,370858.8999999999,,370877.815,8,400,,,
break_continue,html.Screen,4_66_2,2023-10-31T23:43:43.562Z,,0,,,NaN,,,,,,false,,,,370860.5,370860.3999999999,,370860.1000000001,,370877.815,8,400,,,
sequence,flow.Sequence,4_66,2023-10-31T23:43:43.562Z,,0,,,3427.2519999999204,completion,,,,,false,,,,370860.7000000002,370860.3999999999,367406.273,367416.3999999999,367433.148,370877.815,8,400,,,
trial,html.Screen,4_67_0,2023-10-31T23:43:48.156Z,,0,2,,4576.485000000277,response,ISIC_0011526.JPG,6,ISIC_0067227.JPG,ISIC_0011526.JPG,false,1,keypress(m),500,375454.5,375454.3000000003,370846.367,370860.8000000003,370877.815,375473.57,8,400,18,,ISIC_0067227.JPG
break,html.Screen,4_67_1,2023-10-31T23:43:48.158Z,,0,,,NaN,,,,,,false,,,,375456.7000000002,375456.1000000001,,375454.8999999999,,375473.57,8,400,,,
break_continue,html.Screen,4_67_2,2023-10-31T23:43:48.159Z,,0,,,NaN,,,,,,false,,,,375457.3000000003,375457.2000000002,,375456.8999999999,,375473.57,8,400,,,
sequence,flow.Sequence,4_67,2023-10-31T23:43:48.159Z,,0,,,4579.385000000184,completion,,,,,false,,,,375457.6000000001,375457.2000000002,370846.367,370860.7000000002,370877.815,375473.57,8,400,,,
trial,html.Screen,4_68_0,2023-10-31T23:43:53.730Z,,0,2,,5554.429999999993,response,ISIC_0070253.JPG,6,ISIC_0000056.JPG,ISIC_0000056.JPG,false,0,keypress(z),500,381028.3000000003,381028,375447.712,375457.6000000001,375473.57,381047.817,8,400,19,,ISIC_0070253.JPG
break,html.Screen,4_68_1,2023-10-31T23:43:53.732Z,,0,,,NaN,,,,,,false,,,,381030.3999999999,381030,,381028.6000000001,,381047.817,8,400,,,
break_continue,html.Screen,4_68_2,2023-10-31T23:43:53.733Z,,0,,,NaN,,,,,,false,,,,381030.8999999999,381030.7000000002,,381030.5,,381047.817,8,400,,,
sequence,flow.Sequence,4_68,2023-10-31T23:43:53.733Z,,0,,,5557.130000000179,completion,,,,,false,,,,381031.1000000001,381030.7000000002,375447.712,375457.6000000001,375473.57,381047.817,8,400,,,
trial,html.Screen,4_69_0,2023-10-31T23:43:58.360Z,,0,2,,4609.582999999926,response,ISIC_0004099.JPG,4,ISIC_0028800.JPG,ISIC_0028800.JPG,false,0,keypress(z),500,385657.7000000002,385657.3999999999,381024.918,381031.2000000002,381047.817,385677.369,8,400,20,,ISIC_0004099.JPG
break,html.Screen,4_69_1,2023-10-31T23:43:58.361Z,,0,,,NaN,,,,,,false,,,,385659.1000000001,385658.8000000003,,385658,,385677.369,8,400,,,
break_continue,html.Screen,4_69_2,2023-10-31T23:43:58.362Z,,0,,,NaN,,,,,,false,,,,385659.7000000002,385659.6000000001,,385659.3000000003,,385677.369,8,400,,,
sequence,flow.Sequence,4_69,2023-10-31T23:43:58.362Z,,0,,,4611.783000000112,completion,,,,,false,,,,385659.8999999999,385659.6000000001,381024.918,381031.1000000001,381047.817,385677.369,8,400,,,
trial,html.Screen,4_70_0,2023-10-31T23:44:01.724Z,,0,2,,3344.231000000087,response,ISIC_0010346.JPG,6,ISIC_1632696.JPG,ISIC_1632696.JPG,false,0,keypress(z),500,389021.8999999999,389021.6000000001,385658.067,385660,385677.369,389040.951,8,400,21,,ISIC_0010346.JPG
break,html.Screen,4_70_1,2023-10-31T23:44:01.725Z,,0,,,NaN,,,,,,false,,,,389023.1000000001,389022.8000000003,,389022.1000000001,,389040.951,8,400,,,
break_continue,html.Screen,4_70_2,2023-10-31T23:44:01.725Z,,0,,,NaN,,,,,,false,,,,389023.7000000002,389023.6000000001,,389023.3000000003,,389040.951,8,400,,,
sequence,flow.Sequence,4_70,2023-10-31T23:44:01.726Z,,0,,,3346.231000000087,completion,,,,,false,,,,389023.8999999999,389023.6000000001,385658.067,385659.8999999999,385677.369,389040.951,8,400,,,
trial,html.Screen,4_71_0,2023-10-31T23:44:06.431Z,,0,2,,4688.3490000002785,response,ISIC_3738751.JPG,5,ISIC_0062407.JPG,ISIC_3738751.JPG,false,1,keypress(m),500,393729.6000000001,393729.3000000003,389007.171,389024,389040.951,393749.234,8,400,22,,ISIC_0062407.JPG
break,html.Screen,4_71_1,2023-10-31T23:44:06.433Z,,0,,,NaN,,,,,,false,,,,393730.8999999999,393730.6000000001,,393729.8999999999,,393749.234,8,400,,,
break_continue,html.Screen,4_71_2,2023-10-31T23:44:06.433Z,,0,,,NaN,,,,,,false,,,,393731.3000000003,393731.3000000003,,393731.1000000001,,393749.234,8,400,,,
sequence,flow.Sequence,4_71,2023-10-31T23:44:06.433Z,,0,,,4690.3490000002785,completion,,,,,false,,,,393731.6000000001,393731.3000000003,389007.171,389024,389040.951,393749.234,8,400,,,
trial,html.Screen,4_72_0,2023-10-31T23:44:09.555Z,,0,2,,3103.9660000001895,response,ISIC_0033329.JPG,6,ISIC_0069698.JPG,ISIC_0033329.JPG,false,1,keypress(m),500,396853.3999999999,396853.2000000002,393717.32,393731.7000000002,393749.234,396871.874,8,400,23,,ISIC_0069698.JPG
break,html.Screen,4_72_1,2023-10-31T23:44:09.557Z,,0,,,NaN,,,,,,false,,,,396854.7000000002,396854.3999999999,,396853.7000000002,,396871.874,8,400,,,
break_continue,html.Screen,4_72_2,2023-10-31T23:44:09.557Z,,0,,,NaN,,,,,,false,,,,396855.2000000002,396855.1000000001,,396854.8999999999,,396871.874,8,400,,,
sequence,flow.Sequence,4_72,2023-10-31T23:44:09.557Z,,0,,,3105.8660000000964,completion,,,,,false,,,,396855.3999999999,396855.1000000001,393717.32,393731.7000000002,393749.234,396871.874,8,400,,,
trial,html.Screen,4_73_0,2023-10-31T23:44:12.871Z,,0,2,,3297.025999999896,response,ISIC_0024656.JPG,5,ISIC_8373462.JPG,ISIC_0024656.JPG,false,1,keypress(m),500,400169.1000000001,400168.8999999999,396847.861,396855.6000000001,396871.874,400188.24,8,400,24,,ISIC_8373462.JPG
break,html.Screen,4_73_1,2023-10-31T23:44:12.872Z,,0,,,NaN,,,,,,false,,,,400170.3999999999,400170.1000000001,,400169.3999999999,,400188.24,8,400,,,
break_continue,html.Screen,4_73_2,2023-10-31T23:44:12.873Z,,0,,,NaN,,,,,,false,,,,400170.8999999999,400170.8000000003,,400170.5,,400188.24,8,400,,,
sequence,flow.Sequence,4_73,2023-10-31T23:44:12.873Z,,0,,,3298.9260000002687,completion,,,,,false,,,,400171.1000000001,400170.8000000003,396847.861,396855.5,396871.874,400188.24,8,400,,,
trial,html.Screen,4_74_0,2023-10-31T23:44:16.155Z,,0,2,,3264.3600000001024,response,ISIC_2975167.JPG,5,ISIC_0011703.JPG,ISIC_0011703.JPG,false,0,keypress(z),500,403453,403452.6000000001,400156.689,400171.3000000003,400188.24,403472.122,8,400,25,,ISIC_2975167.JPG
break,html.Screen,4_74_1,2023-10-31T23:44:16.157Z,,0,,,NaN,,,,,,false,,,,403454.8999999999,403453.8000000003,,403453.2000000002,,403472.122,8,400,,,
break_continue,html.Screen,4_74_2,2023-10-31T23:44:16.157Z,,0,,,NaN,,,,,,false,,,,403455.5,403455.3000000003,,403455.1000000001,,403472.122,8,400,,,
sequence,flow.Sequence,4_74,2023-10-31T23:44:16.157Z,,0,,,3267.0600000002887,completion,,,,,false,,,,403455.7000000002,403455.3000000003,400156.689,400171.2000000002,400188.24,403472.122,8,400,,,
trial,html.Screen,4_75_0,2023-10-31T23:44:21.050Z,,0,2,,4873.777999999933,response,ISIC_9363106.JPG,5,ISIC_7024807.JPG,ISIC_7024807.JPG,false,0,keypress(z),500,408347.8999999999,408345.8999999999,403447.484,403455.8000000003,403472.122,408430.832,8,400,26,,ISIC_9363106.JPG
break,html.Screen,4_75_1,2023-10-31T23:44:21.068Z,,0,,,NaN,,,,,,false,,,,408366.3999999999,408364.8999999999,,408360.3000000003,,408430.832,8,400,,,
break_continue,html.Screen,4_75_2,2023-10-31T23:44:21.137Z,,0,,,NaN,,,,,,false,,,,408435.5,408388.8999999999,,408377.1000000001,,408430.832,8,400,,,
sequence,flow.Sequence,4_75,2023-10-31T23:44:21.140Z,,0,,,4916.777999999933,completion,,,,,false,,,,408438.3999999999,408388.8999999999,403447.484,403455.8000000003,403472.122,408430.832,8,400,,,
trial,html.Screen,4_76_0,2023-10-31T23:44:24.234Z,,0,2,,3101.067999999912,response,ISIC_0071947.JPG,5,ISIC_4927943.JPG,ISIC_0071947.JPG,false,1,keypress(m),500,411532.1000000001,411531.8999999999,408361.486,408440.3000000003,408430.832,411551.102,8,400,27,,ISIC_4927943.JPG
break,html.Screen,4_76_1,2023-10-31T23:44:24.235Z,,0,,,NaN,,,,,,false,,,,411533.3999999999,411533.2000000002,,411532.3999999999,,411551.102,8,400,,,
break_continue,html.Screen,4_76_2,2023-10-31T23:44:24.236Z,,0,,,NaN,,,,,,false,,,,411534.1000000001,411533.8000000003,,411533.5,,411551.102,8,400,,,
sequence,flow.Sequence,4_76,2023-10-31T23:44:24.236Z,,0,,,3102.9680000002845,completion,,,,,false,,,,411534.3000000003,411533.8000000003,408361.486,408439.3999999999,408430.832,411551.102,8,400,,,
trial,html.Screen,4_77_0,2023-10-31T23:44:28.286Z,,0,2,,4033.198000000266,response,ISIC_0009187.JPG,5,ISIC_0594534.JPG,ISIC_0594534.JPG,false,0,keypress(z),500,415584.6000000001,415584.3000000003,411527.15,411534.5,411551.102,415603.608,8,400,28,,ISIC_0009187.JPG
break,html.Screen,4_77_1,2023-10-31T23:44:28.288Z,,0,,,NaN,,,,,,false,,,,415585.8999999999,415585.5,,415584.8000000003,,415603.608,8,400,,,
break_continue,html.Screen,4_77_2,2023-10-31T23:44:28.288Z,,0,,,NaN,,,,,,false,,,,415586.6000000001,415586.5,,415586.2000000002,,415603.608,8,400,,,
sequence,flow.Sequence,4_77,2023-10-31T23:44:28.289Z,,0,,,4035.3979999999865,completion,,,,,false,,,,415586.8000000003,415586.5,411527.15,411534.3999999999,411551.102,415603.608,8,400,,,
trial,html.Screen,4_78_0,2023-10-31T23:44:32.179Z,,0,2,,3873.692000000272,response,ISIC_0026009.JPG,5,ISIC_3281565.JPG,ISIC_3281565.JPG,false,0,keypress(z),500,419477.6000000001,419477.3000000003,415577.312,415586.8999999999,415603.608,419496.84,8,400,29,,ISIC_0026009.JPG
break,html.Screen,4_78_1,2023-10-31T23:44:32.181Z,,0,,,NaN,,,,,,false,,,,419478.8999999999,419478.6000000001,,419477.8999999999,,419496.84,8,400,,,
break_continue,html.Screen,4_78_2,2023-10-31T23:44:32.181Z,,0,,,NaN,,,,,,false,,,,419479.5,419479.3000000003,,419479.1000000001,,419496.84,8,400,,,
sequence,flow.Sequence,4_78,2023-10-31T23:44:32.181Z,,0,,,3875.692000000272,completion,,,,,false,,,,419479.7000000002,419479.3000000003,415577.312,415586.8999999999,415603.608,419496.84,8,400,,,
trial,html.Screen,4_79_0,2023-10-31T23:44:36.136Z,,0,2,,3936.7600000000675,response,ISIC_0029809.JPG,5,ISIC_0028554.JPG,ISIC_0029809.JPG,false,1,keypress(m),500,423434,423433.6000000001,419467.994,419479.8999999999,419496.84,423453.008,8,400,30,,ISIC_0028554.JPG
break,html.Screen,4_79_1,2023-10-31T23:44:36.138Z,,0,,,NaN,,,,,,false,,,,423435.7000000002,423434.8000000003,,423434.2000000002,,423453.008,8,400,,,
break_continue,html.Screen,4_79_2,2023-10-31T23:44:36.138Z,,0,,,NaN,,,,,,false,,,,423436.3000000003,423436.2000000002,,423436,,423453.008,8,400,,,
sequence,flow.Sequence,4_79,2023-10-31T23:44:36.138Z,,0,,,3939.3600000001607,completion,,,,,false,,,,423436.5,423436.2000000002,419467.994,419479.8000000003,419496.84,423453.008,8,400,,,
trial,html.Screen,4_80_0,2023-10-31T23:44:39.709Z,,0,2,,3553.792000000307,response,ISIC_2546644.JPG,5,ISIC_0055265.JPG,ISIC_0055265.JPG,false,0,keypress(z),500,427007.3000000003,427006.8000000003,423427.709,423436.7000000002,423453.008,427026.808,8,400,31,,ISIC_2546644.JPG
break,html.Screen,4_80_1,2023-10-31T23:44:39.710Z,,0,,,NaN,,,,,,false,,,,427008.5,427008.1000000001,,427007.3999999999,,427026.808,8,400,,,
break_continue,html.Screen,4_80_2,2023-10-31T23:44:39.711Z,,0,,,NaN,,,,,,false,,,,427009,427008.8000000003,,427008.6000000001,,427026.808,8,400,,,
sequence,flow.Sequence,4_80,2023-10-31T23:44:39.711Z,,0,,,3555.792000000307,completion,,,,,false,,,,427009.1000000001,427008.8000000003,423427.709,423436.6000000001,423453.008,427026.808,8,400,,,
trial,html.Screen,4_81_0,2023-10-31T23:44:42.833Z,,0,2,,3104.292000000074,response,ISIC_0033454.JPG,4,ISIC_5218530.JPG,ISIC_0033454.JPG,false,1,keypress(m),500,430131.3999999999,430131.1000000001,427007.65,427009.2000000002,427026.808,430150.603,8,400,32,,ISIC_5218530.JPG
break,html.Screen,4_81_1,2023-10-31T23:44:42.835Z,,0,,,NaN,,,,,,false,,,,430132.8000000003,430132.3999999999,,430131.7000000002,,430150.603,8,400,,,
break_continue,html.Screen,4_81_2,2023-10-31T23:44:42.835Z,,0,,,NaN,,,,,,false,,,,430133.2000000002,430133.1000000001,,430132.8999999999,,430150.603,8,400,,,
sequence,flow.Sequence,4_81,2023-10-31T23:44:42.835Z,,0,,,3106.292000000074,completion,,,,,false,,,,430133.5,430133.1000000001,427007.65,427009.2000000002,427026.808,430150.603,8,400,,,
trial,html.Screen,4_82_0,2023-10-31T23:44:47.525Z,,0,2,,4672.697000000277,response,ISIC_3464344.JPG,5,ISIC_2680588.JPG,ISIC_3464344.JPG,false,1,keypress(m),500,434823.6000000001,434823.3000000003,430116.624,430133.6000000001,430150.603,434843.509,8,400,33,,ISIC_2680588.JPG
break,html.Screen,4_82_1,2023-10-31T23:44:47.527Z,,0,,,NaN,,,,,,false,,,,434824.8000000003,434824.5,,434823.8999999999,,434843.509,8,400,,,
break_continue,html.Screen,4_82_2,2023-10-31T23:44:47.527Z,,0,,,NaN,,,,,,false,,,,434825.3999999999,434825.2000000002,,434825,,434843.509,8,400,,,
sequence,flow.Sequence,4_82,2023-10-31T23:44:47.527Z,,0,,,4674.5970000001835,completion,,,,,false,,,,434825.5,434825.2000000002,430116.624,430133.5,430150.603,434843.509,8,400,,,
trial,html.Screen,4_83_0,2023-10-31T23:44:50.490Z,,0,2,,2944.6910000001662,response,ISIC_4332846.JPG,5,ISIC_0034159.JPG,ISIC_0034159.JPG,false,0,keypress(z),500,437788.6000000001,437788.2000000002,434817.755,434825.7000000002,434843.509,437808.288,8,400,34,,ISIC_4332846.JPG
break,html.Screen,4_83_1,2023-10-31T23:44:50.492Z,,0,,,NaN,,,,,,false,,,,437789.8999999999,437789.6000000001,,437788.8999999999,,437808.288,8,400,,,
break_continue,html.Screen,4_83_2,2023-10-31T23:44:50.492Z,,0,,,NaN,,,,,,false,,,,437790.5,437790.3000000003,,437790.1000000001,,437808.288,8,400,,,
sequence,flow.Sequence,4_83,2023-10-31T23:44:50.493Z,,0,,,2946.7910000002594,completion,,,,,false,,,,437790.7000000002,437790.3000000003,434817.755,434825.7000000002,434843.509,437808.288,8,400,,,
trial,html.Screen,4_84_0,2023-10-31T23:44:54.191Z,,0,2,,3680.8120000000927,response,ISIC_0033524.JPG,4,ISIC_0000313.JPG,ISIC_0033524.JPG,false,1,keypress(m),500,441489.3000000003,441489.1000000001,437787.59,437790.8000000003,437808.288,441508.473,8,400,35,,ISIC_0000313.JPG
break,html.Screen,4_84_1,2023-10-31T23:44:54.193Z,,0,,,NaN,,,,,,false,,,,441490.6000000001,441490.2000000002,,441489.6000000001,,441508.473,8,400,,,
break_continue,html.Screen,4_84_2,2023-10-31T23:44:54.193Z,,0,,,NaN,,,,,,false,,,,441491,441491,,441490.7000000002,,441508.473,8,400,,,
sequence,flow.Sequence,4_84,2023-10-31T23:44:54.193Z,,0,,,3682.7119999999995,completion,,,,,false,,,,441491.2000000002,441491,437787.59,437790.7000000002,437808.288,441508.473,8,400,,,
trial,html.Screen,4_85_0,2023-10-31T23:44:59.379Z,,0,2,,5168.827000000281,response,ISIC_0034207.JPG,5,ISIC_3690890.JPG,ISIC_0034207.JPG,false,1,keypress(m),500,446677.5,446677.3000000003,441487.771,441491.3999999999,441508.473,446697.241,8,400,36,,ISIC_3690890.JPG
break,html.Screen,4_85_1,2023-10-31T23:44:59.381Z,,0,,,NaN,,,,,,false,,,,446678.8999999999,446678.5,,446677.8000000003,,446697.241,8,400,,,
break_continue,html.Screen,4_85_2,2023-10-31T23:44:59.381Z,,0,,,NaN,,,,,,false,,,,446679.5,446679.3999999999,,446679.1000000001,,446697.241,8,400,,,
sequence,flow.Sequence,4_85,2023-10-31T23:44:59.382Z,,0,,,5170.926999999909,completion,,,,,false,,,,446679.7000000002,446679.3999999999,441487.771,441491.3999999999,441508.473,446697.241,8,400,,,
trial,html.Screen,4_86_0,2023-10-31T23:45:03.848Z,,0,2,,4448.25900000002,response,ISIC_0013165.JPG,5,ISIC_0029480.JPG,ISIC_0013165.JPG,false,1,keypress(m),500,451145.7000000002,451145.5,446677.852,446679.8000000003,446697.241,451165.307,8,400,37,,ISIC_0029480.JPG
break,html.Screen,4_86_1,2023-10-31T23:45:03.849Z,,0,,,NaN,,,,,,false,,,,451147.2000000002,451146.8000000003,,451146,,451165.307,8,400,,,
break_continue,html.Screen,4_86_2,2023-10-31T23:45:03.850Z,,0,,,NaN,,,,,,false,,,,451147.7000000002,451147.6000000001,,451147.3000000003,,451165.307,8,400,,,
sequence,flow.Sequence,4_86,2023-10-31T23:45:03.850Z,,0,,,4450.359000000113,completion,,,,,false,,,,451148,451147.6000000001,446677.852,446679.8000000003,446697.241,451165.307,8,400,,,
trial,html.Screen,4_87_0,2023-10-31T23:45:07.629Z,,0,2,,3761.2930000001215,response,ISIC_0031425.JPG,5,ISIC_7140778.JPG,ISIC_0031425.JPG,false,1,keypress(m),500,454927,454926.6000000001,451137.274,451148.2000000002,451165.307,454946.3,8,400,38,,ISIC_7140778.JPG
break,html.Screen,4_87_1,2023-10-31T23:45:07.630Z,,0,,,NaN,,,,,,false,,,,454928.3000000003,454928,,454927.2000000002,,454946.3,8,400,,,
break_continue,html.Screen,4_87_2,2023-10-31T23:45:07.631Z,,0,,,NaN,,,,,,false,,,,454928.8000000003,454928.7000000002,,454928.3999999999,,454946.3,8,400,,,
sequence,flow.Sequence,4_87,2023-10-31T23:45:07.631Z,,0,,,3763.3930000002147,completion,,,,,false,,,,454929,454928.7000000002,451137.274,451148.1000000001,451165.307,454946.3,8,400,,,
trial,html.Screen,4_88_0,2023-10-31T23:45:11.762Z,,0,2,,4113.900000000198,response,ISIC_7059794.JPG,4,ISIC_0024552.JPG,ISIC_0024552.JPG,false,0,keypress(z),500,459060.5,459060.2000000002,454927.896,454929.1000000001,454946.3,459080.71,8,400,39,,ISIC_7059794.JPG
break,html.Screen,4_88_1,2023-10-31T23:45:11.764Z,,0,,,NaN,,,,,,false,,,,459061.8000000003,459061.5,,459060.8000000003,,459080.71,8,400,,,
break_continue,html.Screen,4_88_2,2023-10-31T23:45:11.764Z,,0,,,NaN,,,,,,false,,,,459062.3000000003,459062.2000000002,,459062,,459080.71,8,400,,,
sequence,flow.Sequence,4_88,2023-10-31T23:45:11.764Z,,0,,,4115.900000000198,completion,,,,,false,,,,459062.6000000001,459062.2000000002,454927.896,454929.1000000001,454946.3,459080.71,8,400,,,
trial,html.Screen,4_89_0,2023-10-31T23:45:16.071Z,,0,2,,4288.490000000165,response,ISIC_0009441.JPG,5,ISIC_0027538.JPG,ISIC_0009441.JPG,false,1,keypress(m),500,463369.5,463369.2000000002,459058.073,459062.6000000001,459080.71,463388.461,8,400,40,,ISIC_0027538.JPG
break,html.Screen,4_89_1,2023-10-31T23:45:16.073Z,,0,,,NaN,,,,,,false,,,,463371.5,463370.8999999999,,463369.7000000002,,463388.461,8,400,,,
break_continue,html.Screen,4_89_2,2023-10-31T23:45:16.074Z,,0,,,NaN,,,,,,false,,,,463372.2000000002,463372,,463371.7000000002,,463388.461,8,400,,,
sequence,flow.Sequence,4_89,2023-10-31T23:45:16.074Z,,0,,,4291.289999999979,completion,,,,,false,,,,463372.5,463372,459058.073,459062.6000000001,459080.71,463388.461,8,400,,,
trial,html.Screen,4_90_0,2023-10-31T23:45:19.181Z,,0,2,,3090.239000000176,response,ISIC_5999002.JPG,5,ISIC_0610477.JPG,ISIC_0610477.JPG,false,0,keypress(z),500,466479,466478.7000000002,463358.011,463372.8000000003,463388.461,466498.55,8,400,41,,ISIC_5999002.JPG
break,html.Screen,4_90_1,2023-10-31T23:45:19.182Z,,0,,,NaN,,,,,,false,,,,466480.5,466479.8000000003,,466479.2000000002,,466498.55,8,400,,,
break_continue,html.Screen,4_90_2,2023-10-31T23:45:19.183Z,,0,,,NaN,,,,,,false,,,,466481,466480.8999999999,,466480.7000000002,,466498.55,8,400,,,
sequence,flow.Sequence,4_90,2023-10-31T23:45:19.183Z,,0,,,3092.4389999998966,completion,,,,,false,,,,466481.3000000003,466480.8999999999,463358.011,463372.7000000002,463388.461,466498.55,8,400,,,
trial,html.Screen,4_91_0,2023-10-31T23:45:22.193Z,,0,2,,2992.750000000291,response,ISIC_8483382.JPG,6,ISIC_0010124.JPG,ISIC_8483382.JPG,false,1,keypress(m),500,469491.6000000001,469491.3000000003,466467.879,466481.3000000003,466498.55,469511.735,8,400,42,,ISIC_0010124.JPG
break,html.Screen,4_91_1,2023-10-31T23:45:22.195Z,,0,,,NaN,,,,,,false,,,,469492.8999999999,469492.5,,469491.8000000003,,469511.735,8,400,,,
break_continue,html.Screen,4_91_2,2023-10-31T23:45:22.195Z,,0,,,NaN,,,,,,false,,,,469493.5,469493.3999999999,,469493.1000000001,,469511.735,8,400,,,
sequence,flow.Sequence,4_91,2023-10-31T23:45:22.196Z,,0,,,2994.8499999999185,completion,,,,,false,,,,469493.7000000002,469493.3999999999,466467.879,466481.3000000003,466498.55,469511.735,8,400,,,
trial,html.Screen,4_92_0,2023-10-31T23:45:25.719Z,,0,2,,3504.664999999921,response,ISIC_8463871.JPG,5,ISIC_1788979.JPG,ISIC_1788979.JPG,false,0,keypress(z),500,473016.6000000001,473016.3999999999,469484.744,469493.8999999999,469511.735,473018.183,8,400,43,,ISIC_8463871.JPG
break,html.Screen,4_92_1,2023-10-31T23:45:25.719Z,,0,,,NaN,,,,,,false,,,,473017.3999999999,473017.2000000002,,473016.7000000002,,473018.183,8,400,,,
break_continue,html.Screen,4_92_2,2023-10-31T23:45:25.720Z,,0,,,NaN,,,,,,false,,,,473017.8000000003,473017.6000000001,,473017.5,,473018.183,8,400,,,
sequence,flow.Sequence,4_92,2023-10-31T23:45:25.720Z,,0,,,3505.865000000107,completion,,,,,false,,,,473017.8999999999,473017.6000000001,469484.744,469493.8000000003,469511.735,473018.183,8,400,,,
trial,html.Screen,4_93_0,2023-10-31T23:45:29.162Z,,0,2,,3441.816999999981,response,ISIC_0176781.JPG,5,ISIC_4460849.JPG,ISIC_0176781.JPG,false,1,keypress(m),500,476460.2000000002,476460,473006.388,473018.1000000001,473018.183,476482.745,8,400,44,,ISIC_4460849.JPG
break,html.Screen,4_93_1,2023-10-31T23:45:29.163Z,,0,,,NaN,,,,,,false,,,,476461.2000000002,476460.8999999999,,476460.3999999999,,476482.745,8,400,,,
break_continue,html.Screen,4_93_2,2023-10-31T23:45:29.164Z,,0,,,NaN,,,,,,false,,,,476461.7000000002,476461.6000000001,,476461.3000000003,,476482.745,8,400,,,
sequence,flow.Sequence,4_93,2023-10-31T23:45:29.164Z,,0,,,3443.417000000074,completion,,,,,false,,,,476461.8000000003,476461.6000000001,473006.388,473018,473018.183,476482.745,8,400,,,
trial,html.Screen,4_94_0,2023-10-31T23:45:32.493Z,,0,2,,3308.455000000191,response,ISIC_3439215.JPG,4,ISIC_0026039.JPG,ISIC_0026039.JPG,false,0,keypress(z),500,479791.6000000001,479791.2000000002,476466.076,476462,476482.745,479810.764,8,400,45,,ISIC_3439215.JPG
break,html.Screen,4_94_1,2023-10-31T23:45:32.495Z,,0,,,NaN,,,,,,false,,,,479792.8000000003,479792.3999999999,,479791.8000000003,,479810.764,8,400,,,
break_continue,html.Screen,4_94_2,2023-10-31T23:45:32.495Z,,0,,,NaN,,,,,,false,,,,479793.3999999999,479793.2000000002,,479793,,479810.764,8,400,,,
sequence,flow.Sequence,4_94,2023-10-31T23:45:32.495Z,,0,,,3310.455000000191,completion,,,,,false,,,,479793.5,479793.2000000002,476466.076,476462,476482.745,479810.764,8,400,,,
trial,html.Screen,4_95_0,2023-10-31T23:45:35.970Z,,0,2,,3457.2359999999753,response,ISIC_2513933.JPG,5,ISIC_9210086.JPG,ISIC_9210086.JPG,false,0,keypress(z),500,483268.3000000003,483268,479787.745,479793.6000000001,479810.764,483287.956,8,400,46,,ISIC_2513933.JPG
break,html.Screen,4_95_1,2023-10-31T23:45:35.971Z,,0,,,NaN,,,,,,false,,,,483269.6000000001,483269.2000000002,,483268.6000000001,,483287.956,8,400,,,
break_continue,html.Screen,4_95_2,2023-10-31T23:45:35.972Z,,0,,,NaN,,,,,,false,,,,483270.3000000003,483270.1000000001,,483269.8000000003,,483287.956,8,400,,,
sequence,flow.Sequence,4_95,2023-10-31T23:45:35.972Z,,0,,,3459.3360000000685,completion,,,,,false,,,,483270.5,483270.1000000001,479787.745,479793.6000000001,479810.764,483287.956,8,400,,,
trial,html.Screen,4_96_0,2023-10-31T23:45:39.271Z,,0,2,,3280.5439999999944,response,ISIC_0030575.JPG,5,ISIC_0070050.JPG,ISIC_0030575.JPG,false,1,keypress(m),500,486568.8000000003,486568.5,483258.466,483270.7000000002,483287.956,486581.001,8,400,47,,ISIC_0070050.JPG
break,html.Screen,4_96_1,2023-10-31T23:45:39.272Z,,0,,,NaN,,,,,,false,,,,486570,486569.7000000002,,486569,,486581.001,8,400,,,
break_continue,html.Screen,4_96_2,2023-10-31T23:45:39.272Z,,0,,,NaN,,,,,,false,,,,486570.6000000001,486570.5,,486570.3000000003,,486581.001,8,400,,,
sequence,flow.Sequence,4_96,2023-10-31T23:45:39.273Z,,0,,,3282.5439999999944,completion,,,,,false,,,,486570.8000000003,486570.5,483258.466,483270.6000000001,483287.956,486581.001,8,400,,,
trial,html.Screen,4_97_0,2023-10-31T23:45:42.459Z,,0,2,,3175.599000000104,response,ISIC_3727059.JPG,6,ISIC_0064692.JPG,ISIC_0064692.JPG,false,0,keypress(z),500,489756.8999999999,489756.6000000001,486564.032,486570.8999999999,486581.001,489778.296,8,400,48,,ISIC_3727059.JPG
break,html.Screen,4_97_1,2023-10-31T23:45:42.460Z,,0,,,NaN,,,,,,false,,,,489758,489757.7000000002,,489757.3000000003,,489778.296,8,400,,,
break_continue,html.Screen,4_97_2,2023-10-31T23:45:42.460Z,,0,,,NaN,,,,,,false,,,,489758.3999999999,489758.3000000003,,489758.1000000001,,489778.296,8,400,,,
sequence,flow.Sequence,4_97,2023-10-31T23:45:42.460Z,,0,,,3177.29900000029,completion,,,,,false,,,,489758.6000000001,489758.3000000003,486564.032,486570.8999999999,486581.001,489778.296,8,400,,,
trial,html.Screen,4_98_0,2023-10-31T23:45:45.454Z,,0,2,,2973.9040000002133,response,ISIC_7699223.JPG,5,ISIC_0032447.JPG,ISIC_0032447.JPG,false,0,keypress(z),500,492752.3999999999,492752.2000000002,489761.782,489758.8000000003,489778.296,492771.573,8,400,49,,ISIC_7699223.JPG
break,html.Screen,4_98_1,2023-10-31T23:45:45.456Z,,0,,,NaN,,,,,,false,,,,492754.1000000001,492753.8999999999,,492752.7000000002,,492771.573,8,400,,,
break_continue,html.Screen,4_98_2,2023-10-31T23:45:45.456Z,,0,,,NaN,,,,,,false,,,,492754.5,492754.3000000003,,492754.2000000002,,492771.573,8,400,,,
sequence,flow.Sequence,4_98,2023-10-31T23:45:45.456Z,,0,,,2976.0040000003064,completion,,,,,false,,,,492754.7000000002,492754.3000000003,489761.782,489758.7000000002,489778.296,492771.573,8,400,,,
trial,html.Screen,4_99_0,2023-10-31T23:45:49.155Z,,0,2,,3680.826999999932,response,ISIC_9223679.JPG,5,ISIC_1708591.JPG,ISIC_9223679.JPG,false,1,keypress(m),500,496452.8000000003,496452.3999999999,492746.573,492754.8000000003,492771.573,496472.916,8,400,50,,ISIC_1708591.JPG
break,html.Screen,4_99_1,2023-10-31T23:45:59.166Z,,0,,,10006.494999999995,timeout,,,,,false,,,,506464.1000000001,506462.726,496455.93,496452.8999999999,496472.916,506479.411,8,400,,,
break_continue,html.Screen,4_99_2,2023-10-31T23:46:00.132Z,,0,,,926.488999999885,response,,,,,false,continue,keypress(Space),,507430.3000000003,507405.8999999999,506462.726,506464.3999999999,506479.411,507432.05,8,400,,,
sequence,flow.Sequence,4_99,2023-10-31T23:46:00.132Z,,0,,,14634.326999999932,completion,,,,,false,,,,507430.3999999999,507405.8999999999,492746.573,492754.7000000002,492771.573,507432.05,8,400,,,
trial,html.Screen,4_100_0,2023-10-31T23:46:03.399Z,,0,3,,3265.150000000198,response,ISIC_0058408.JPG,5,ISIC_0786233.JPG,ISIC_0786233.JPG,false,0,keypress(z),500,510697.6000000001,510697.2000000002,507430.183,507430.5,507432.05,510717.061,8,400,1,,ISIC_0058408.JPG
break,html.Screen,4_100_1,2023-10-31T23:46:03.401Z,,0,,,NaN,,,,,,false,,,,510699,510698.5,,510697.8000000003,,510717.061,8,400,,,
break_continue,html.Screen,4_100_2,2023-10-31T23:46:03.401Z,,0,,,NaN,,,,,,false,,,,510699.6000000001,510699.5,,510699.2000000002,,510717.061,8,400,,,
sequence,flow.Sequence,4_100,2023-10-31T23:46:03.402Z,,0,,,3267.4500000000116,completion,,,,,false,,,,510699.8000000003,510699.5,507430.183,507430.5,507432.05,510717.061,8,400,,,
trial,html.Screen,4_101_0,2023-10-31T23:46:06.252Z,,0,3,,2832.939000000013,response,ISIC_0058666.JPG,5,ISIC_6697332.JPG,ISIC_0058666.JPG,false,1,keypress(m),500,513550.2000000002,513550,510697.995,510699.8999999999,510717.061,513569.347,8,400,2,,ISIC_6697332.JPG
break,html.Screen,4_101_1,2023-10-31T23:46:06.254Z,,0,,,NaN,,,,,,false,,,,513552.1000000001,513551.7000000002,,513550.5,,513569.347,8,400,,,
break_continue,html.Screen,4_101_2,2023-10-31T23:46:06.254Z,,0,,,NaN,,,,,,false,,,,513552.7000000002,513552.5,,513552.3999999999,,513569.347,8,400,,,
sequence,flow.Sequence,4_101,2023-10-31T23:46:06.255Z,,0,,,2835.439000000013,completion,,,,,false,,,,513552.8999999999,513552.5,510697.995,510699.8999999999,510717.061,513569.347,8,400,,,
trial,html.Screen,4_102_0,2023-10-31T23:46:09.475Z,,0,3,,3203.4530000002705,response,ISIC_8671662.JPG,5,ISIC_0066382.JPG,ISIC_0066382.JPG,false,0,keypress(z),500,516773,516772.8000000003,513539.219,513554.8999999999,513569.347,516774.975,8,400,3,,ISIC_8671662.JPG
break,html.Screen,4_102_1,2023-10-31T23:46:09.476Z,,0,,,NaN,,,,,,false,,,,516774.5,516774.1000000001,,516773.3000000003,,516774.975,8,400,,,
break_continue,html.Screen,4_102_2,2023-10-31T23:46:09.477Z,,0,,,NaN,,,,,,false,,,,516775.2000000002,516775,,516774.6000000001,,516774.975,8,400,,,
sequence,flow.Sequence,4_102,2023-10-31T23:46:09.477Z,,0,,,3205.652999999991,completion,,,,,false,,,,516775.3999999999,516775,513539.219,513554.8000000003,513569.347,516774.975,8,400,,,
trial,html.Screen,4_103_0,2023-10-31T23:46:12.151Z,,0,3,,2674.2250000002095,response,ISIC_0070032.JPG,5,ISIC_0046983.JPG,ISIC_0070032.JPG,false,1,keypress(m),500,519449.5,519449.2000000002,516768.284,516775.6000000001,516774.975,519468.618,8,400,4,,ISIC_0046983.JPG
break,html.Screen,4_103_1,2023-10-31T23:46:12.152Z,,0,,,NaN,,,,,,false,,,,519450.7000000002,519450.3999999999,,519449.7000000002,,519468.618,8,400,,,
break_continue,html.Screen,4_103_2,2023-10-31T23:46:12.153Z,,0,,,NaN,,,,,,false,,,,519451.2000000002,519451.1000000001,,519450.8000000003,,519468.618,8,400,,,
sequence,flow.Sequence,4_103,2023-10-31T23:46:12.153Z,,0,,,2676.1250000001164,completion,,,,,false,,,,519451.3999999999,519451.1000000001,516768.284,516775.6000000001,516774.975,519468.618,8,400,,,
trial,html.Screen,4_104_0,2023-10-31T23:46:14.827Z,,0,3,,2656.0820000001695,response,ISIC_0028666.JPG,4,ISIC_6674797.JPG,ISIC_6674797.JPG,false,0,keypress(z),500,522125,522124.7000000002,519448.404,519451.5,519468.618,522126.877,8,400,5,,ISIC_0028666.JPG
break,html.Screen,4_104_1,2023-10-31T23:46:14.829Z,,0,,,NaN,,,,,,false,,,,522126.8999999999,522126.3999999999,,522125.2000000002,,522126.877,8,400,,,
break_continue,html.Screen,4_104_2,2023-10-31T23:46:14.829Z,,0,,,NaN,,,,,,false,,,,522127.3999999999,522127.3000000003,,522127.1000000001,,522126.877,8,400,,,
sequence,flow.Sequence,4_104,2023-10-31T23:46:14.829Z,,0,,,2658.6820000002626,completion,,,,,false,,,,522127.6000000001,522127.3000000003,519448.404,519451.5,519468.618,522126.877,8,400,,,
trial,html.Screen,4_105_0,2023-10-31T23:46:18.303Z,,0,3,,3474.6230000000214,response,ISIC_3844404.JPG,5,ISIC_0067697.JPG,ISIC_0067697.JPG,false,0,keypress(z),500,525601.8000000003,525601.5,522117.539,522127.7000000002,522126.877,525620.861,8,400,6,,ISIC_3844404.JPG
break,html.Screen,4_105_1,2023-10-31T23:46:18.305Z,,0,,,NaN,,,,,,false,,,,525603,525602.7000000002,,525602,,525620.861,8,400,,,
break_continue,html.Screen,4_105_2,2023-10-31T23:46:18.305Z,,0,,,NaN,,,,,,false,,,,525603.6000000001,525603.5,,525603.2000000002,,525620.861,8,400,,,
sequence,flow.Sequence,4_105,2023-10-31T23:46:18.306Z,,0,,,3476.6230000000214,completion,,,,,false,,,,525603.8999999999,525603.5,522117.539,522127.7000000002,522126.877,525620.861,8,400,,,
trial,html.Screen,4_106_0,2023-10-31T23:46:21.108Z,,0,3,,2784.6389999999665,response,ISIC_6352565.JPG,5,ISIC_7068674.JPG,ISIC_6352565.JPG,false,1,keypress(m),500,528405.8000000003,528405.5,525588.027,525603.8999999999,525620.861,528424.862,8,400,7,,ISIC_7068674.JPG
break,html.Screen,4_106_1,2023-10-31T23:46:21.109Z,,0,,,NaN,,,,,,false,,,,528407.7000000002,528407.3000000003,,528406.1000000001,,528424.862,8,400,,,
break_continue,html.Screen,4_106_2,2023-10-31T23:46:21.110Z,,0,,,NaN,,,,,,false,,,,528408.2000000002,528408,,528407.8999999999,,528424.862,8,400,,,
sequence,flow.Sequence,4_106,2023-10-31T23:46:21.110Z,,0,,,2787.1389999999665,completion,,,,,false,,,,528408.3999999999,528408,525588.027,525603.8999999999,525620.861,528424.862,8,400,,,
trial,html.Screen,4_107_0,2023-10-31T23:46:24.200Z,,0,3,,3072.938000000315,response,ISIC_8901784.JPG,5,ISIC_4411889.JPG,ISIC_4411889.JPG,false,0,keypress(z),500,531498.2000000002,531497.8000000003,528397.932,528408.5,528424.862,531517.385,8,400,8,,ISIC_8901784.JPG
break,html.Screen,4_107_1,2023-10-31T23:46:24.201Z,,0,,,NaN,,,,,,false,,,,531499.5,531499.1000000001,,531498.3999999999,,531517.385,8,400,,,
break_continue,html.Screen,4_107_2,2023-10-31T23:46:24.202Z,,0,,,NaN,,,,,,false,,,,531500,531499.8999999999,,531499.6000000001,,531517.385,8,400,,,
sequence,flow.Sequence,4_107,2023-10-31T23:46:24.202Z,,0,,,3075.0379999999423,completion,,,,,false,,,,531500.2000000002,531499.8999999999,528397.932,528408.5,528424.862,531517.385,8,400,,,
trial,html.Screen,4_108_0,2023-10-31T23:46:27.692Z,,0,3,,3473.0149999998976,response,ISIC_0031233.JPG,5,ISIC_0028520.JPG,ISIC_0031233.JPG,false,1,keypress(m),500,534990.7000000002,534990.3999999999,531488.395,531500.2000000002,531517.385,535010.591,8,400,9,,ISIC_0028520.JPG
break,html.Screen,4_108_1,2023-10-31T23:46:27.695Z,,0,,,NaN,,,,,,false,,,,534992.8000000003,534991.8000000003,,534990.8999999999,,535010.591,8,400,,,
break_continue,html.Screen,4_108_2,2023-10-31T23:46:27.695Z,,0,,,NaN,,,,,,false,,,,534993.3000000003,534993.2000000002,,534993,,535010.591,8,400,,,
sequence,flow.Sequence,4_108,2023-10-31T23:46:27.695Z,,0,,,3475.815000000177,completion,,,,,false,,,,534993.3999999999,534993.2000000002,531488.395,531500.2000000002,531517.385,535010.591,8,400,,,
trial,html.Screen,4_109_0,2023-10-31T23:46:31.745Z,,0,3,,4032.808999999892,response,ISIC_0028075.JPG,5,ISIC_7727830.JPG,ISIC_0028075.JPG,false,1,keypress(m),500,539043.7000000002,539043.3999999999,534982.747,534993.6000000001,535010.591,539062.712,8,400,10,,ISIC_7727830.JPG
break,html.Screen,4_109_1,2023-10-31T23:46:31.747Z,,0,,,NaN,,,,,,false,,,,539045,539044.6000000001,,539043.8999999999,,539062.712,8,400,,,
break_continue,html.Screen,4_109_2,2023-10-31T23:46:31.748Z,,0,,,NaN,,,,,,false,,,,539045.8000000003,539045.6000000001,,539045.2000000002,,539062.712,8,400,,,
sequence,flow.Sequence,4_109,2023-10-31T23:46:31.748Z,,0,,,4035.0090000000782,completion,,,,,false,,,,539045.8999999999,539045.6000000001,534982.747,534993.6000000001,535010.591,539062.712,8,400,,,
trial,html.Screen,4_110_0,2023-10-31T23:46:35.110Z,,0,3,,3345.187999999849,response,ISIC_0031013.JPG,5,ISIC_1296490.JPG,ISIC_1296490.JPG,false,0,keypress(z),500,542408.1000000001,542407.8999999999,539028.202,539046,539062.712,542427.641,8,400,11,,ISIC_0031013.JPG
break,html.Screen,4_110_1,2023-10-31T23:46:35.112Z,,0,,,NaN,,,,,,false,,,,542410,542409.6000000001,,542408.3999999999,,542427.641,8,400,,,
break_continue,html.Screen,4_110_2,2023-10-31T23:46:35.112Z,,0,,,NaN,,,,,,false,,,,542410.6000000001,542410.3999999999,,542410.2000000002,,542427.641,8,400,,,
sequence,flow.Sequence,4_110,2023-10-31T23:46:35.116Z,,0,,,3347.687999999849,completion,,,,,false,,,,542413.7000000002,542410.3999999999,539028.202,539046,539062.712,542427.641,8,400,,,
trial,html.Screen,4_111_0,2023-10-31T23:46:38.958Z,,0,3,,3827.859000000055,response,ISIC_0011931.JPG,4,ISIC_5008399.JPG,ISIC_0011931.JPG,false,1,keypress(m),500,546255.7000000002,546255.5,542407.508,542413.8999999999,542427.641,546275.572,8,400,12,,ISIC_5008399.JPG
break,html.Screen,4_111_1,2023-10-31T23:46:38.959Z,,0,,,NaN,,,,,,false,,,,546257,546256.7000000002,,546256,,546275.572,8,400,,,
break_continue,html.Screen,4_111_2,2023-10-31T23:46:38.959Z,,0,,,NaN,,,,,,false,,,,546257.5,546257.3999999999,,546257.2000000002,,546275.572,8,400,,,
sequence,flow.Sequence,4_111,2023-10-31T23:46:38.960Z,,0,,,3829.758999999962,completion,,,,,false,,,,546257.7000000002,546257.3999999999,542407.508,542413.8000000003,542427.641,546275.572,8,400,,,
trial,html.Screen,4_112_0,2023-10-31T23:46:42.130Z,,0,3,,3152.2280000002356,response,ISIC_0032917.JPG,5,ISIC_0054663.JPG,ISIC_0032917.JPG,false,1,keypress(m),500,549428.1000000001,549427.8000000003,546248.621,546257.8000000003,546275.572,549447.719,8,400,13,,ISIC_0054663.JPG
break,html.Screen,4_112_1,2023-10-31T23:46:42.131Z,,0,,,NaN,,,,,,false,,,,549429.5,549429.2000000002,,549428.3000000003,,549447.719,8,400,,,
break_continue,html.Screen,4_112_2,2023-10-31T23:46:42.132Z,,0,,,NaN,,,,,,false,,,,549430,549429.8999999999,,549429.8000000003,,549447.719,8,400,,,
sequence,flow.Sequence,4_112,2023-10-31T23:46:42.132Z,,0,,,3154.327999999863,completion,,,,,false,,,,549430.2000000002,549429.8999999999,546248.621,546257.7000000002,546275.572,549447.719,8,400,,,
trial,html.Screen,4_113_0,2023-10-31T23:46:45.718Z,,0,3,,3568.280999999959,response,ISIC_0055191.JPG,5,ISIC_0011668.JPG,ISIC_0055191.JPG,false,1,keypress(m),500,553016.2000000002,553016,549418.004,549430.3000000003,549447.719,553036.158,8,400,14,,ISIC_0011668.JPG
break,html.Screen,4_113_1,2023-10-31T23:46:45.719Z,,0,,,NaN,,,,,,false,,,,553017.5,553017.2000000002,,553016.3999999999,,553036.158,8,400,,,
break_continue,html.Screen,4_113_2,2023-10-31T23:46:45.720Z,,0,,,NaN,,,,,,false,,,,553018,553017.8000000003,,553017.7000000002,,553036.158,8,400,,,
sequence,flow.Sequence,4_113,2023-10-31T23:46:45.720Z,,0,,,3570.0810000002384,completion,,,,,false,,,,553018.1000000001,553017.8000000003,549418.004,549430.3000000003,549447.719,553036.158,8,400,,,
trial,html.Screen,4_114_0,2023-10-31T23:46:50.394Z,,0,3,,4655.442000000039,response,ISIC_0059593.JPG,4,ISIC_3376976.JPG,ISIC_0059593.JPG,false,1,keypress(m),500,557691.8999999999,557691.6000000001,553016.833,553018.3000000003,553036.158,557711.794,8,400,15,,ISIC_3376976.JPG
break,html.Screen,4_114_1,2023-10-31T23:46:50.395Z,,0,,,NaN,,,,,,false,,,,557693.2000000002,557692.7000000002,,557692.1000000001,,557711.794,8,400,,,
break_continue,html.Screen,4_114_2,2023-10-31T23:46:50.396Z,,0,,,NaN,,,,,,false,,,,557693.7000000002,557693.5,,557693.2000000002,,557711.794,8,400,,,
sequence,flow.Sequence,4_114,2023-10-31T23:46:50.396Z,,0,,,4657.341999999946,completion,,,,,false,,,,557693.8000000003,557693.5,553016.833,553018.2000000002,553036.158,557711.794,8,400,,,
trial,html.Screen,4_115_0,2023-10-31T23:46:53.709Z,,0,3,,3295.506000000285,response,ISIC_0032476.JPG,6,ISIC_0031941.JPG,ISIC_0031941.JPG,false,0,keypress(z),500,561007.5,561007.3000000003,557678.408,557694,557711.794,561027.302,8,400,16,,ISIC_0032476.JPG
break,html.Screen,4_115_1,2023-10-31T23:46:53.711Z,,0,,,NaN,,,,,,false,,,,561009,561008.1000000001,,561007.6000000001,,561027.302,8,400,,,
break_continue,html.Screen,4_115_2,2023-10-31T23:46:53.711Z,,0,,,NaN,,,,,,false,,,,561009.3999999999,561009.3000000003,,561009.1000000001,,561027.302,8,400,,,
sequence,flow.Sequence,4_115,2023-10-31T23:46:53.711Z,,0,,,3297.506000000285,completion,,,,,false,,,,561009.5,561009.3000000003,557678.408,557693.8999999999,557711.794,561027.302,8,400,,,
trial,html.Screen,4_116_0,2023-10-31T23:46:57.473Z,,0,3,,3743.4980000002543,response,ISIC_6118824.JPG,5,ISIC_0032070.JPG,ISIC_0032070.JPG,false,0,keypress(z),500,564771.1000000001,564770.8000000003,560998.572,561009.6000000001,561027.302,564790.457,8,400,17,,ISIC_6118824.JPG
break,html.Screen,4_116_1,2023-10-31T23:46:57.474Z,,0,,,NaN,,,,,,false,,,,564772.3999999999,564772.1000000001,,564771.3000000003,,564790.457,8,400,,,
break_continue,html.Screen,4_116_2,2023-10-31T23:46:57.475Z,,0,,,NaN,,,,,,false,,,,564773,564772.8000000003,,564772.5,,564790.457,8,400,,,
sequence,flow.Sequence,4_116,2023-10-31T23:46:57.475Z,,0,,,3745.4980000002543,completion,,,,,false,,,,564773.2000000002,564772.8000000003,560998.572,561009.5,561027.302,564790.457,8,400,,,
trial,html.Screen,4_117_0,2023-10-31T23:47:00.917Z,,0,3,,3424.64300000004,response,ISIC_8671119.JPG,5,ISIC_0072010.JPG,ISIC_0072010.JPG,false,0,keypress(z),500,568215.5,568215.1000000001,564758.542,564773.3000000003,564790.457,568234.808,8,400,18,,ISIC_8671119.JPG
break,html.Screen,4_117_1,2023-10-31T23:47:00.919Z,,0,,,NaN,,,,,,false,,,,568217.1000000001,568216.7000000002,,568215.8000000003,,568234.808,8,400,,,
break_continue,html.Screen,4_117_2,2023-10-31T23:47:00.920Z,,0,,,NaN,,,,,,false,,,,568217.8000000003,568217.6000000001,,568217.3000000003,,568234.808,8,400,,,
sequence,flow.Sequence,4_117,2023-10-31T23:47:00.920Z,,0,,,3427.14300000004,completion,,,,,false,,,,568218,568217.6000000001,564758.542,564773.3000000003,564790.457,568234.808,8,400,,,
trial,html.Screen,4_118_0,2023-10-31T23:47:05.722Z,,0,3,,4785.392000000225,response,ISIC_0064761.JPG,5,ISIC_1441260.JPG,ISIC_0064761.JPG,false,1,keypress(m),500,573020.5,573020.2000000002,568211.469,568218.3000000003,568234.808,573039.556,8,400,19,,ISIC_1441260.JPG
break,html.Screen,4_118_1,2023-10-31T23:47:05.724Z,,0,,,NaN,,,,,,false,,,,573022,573021.6000000001,,573020.7000000002,,573039.556,8,400,,,
break_continue,html.Screen,4_118_2,2023-10-31T23:47:05.725Z,,0,,,NaN,,,,,,false,,,,573022.7000000002,573022.5,,573022.2000000002,,573039.556,8,400,,,
sequence,flow.Sequence,4_118,2023-10-31T23:47:05.725Z,,0,,,4787.692000000039,completion,,,,,false,,,,573022.8000000003,573022.5,568211.469,568218.2000000002,568234.808,573039.556,8,400,,,
trial,html.Screen,4_119_0,2023-10-31T23:47:08.880Z,,0,3,,3137.744000000297,response,ISIC_2698722.JPG,4,ISIC_1650523.JPG,ISIC_1650523.JPG,false,0,keypress(z),500,576177.8000000003,576177.3000000003,573009.532,573022.8999999999,573039.556,576198.329,8,400,20,,ISIC_2698722.JPG
break,html.Screen,4_119_1,2023-10-31T23:47:08.882Z,,0,,,NaN,,,,,,false,,,,576179.7000000002,576179.2000000002,,576178.3999999999,,576198.329,8,400,,,
break_continue,html.Screen,4_119_2,2023-10-31T23:47:08.882Z,,0,,,NaN,,,,,,false,,,,576180.6000000001,576180.3000000003,,576180,,576198.329,8,400,,,
sequence,flow.Sequence,4_119,2023-10-31T23:47:08.883Z,,0,,,3140.744000000297,completion,,,,,false,,,,576180.8999999999,576180.3000000003,573009.532,573022.8000000003,573039.556,576198.329,8,400,,,
trial,html.Screen,4_120_0,2023-10-31T23:47:13.941Z,,0,3,,5040.871000000159,response,ISIC_0063181.JPG,5,ISIC_6620748.JPG,ISIC_0063181.JPG,false,1,keypress(m),500,581239.6000000001,581239.2000000002,576168.598,576181.1000000001,576198.329,581258.595,8,400,21,,ISIC_6620748.JPG
break,html.Screen,4_120_1,2023-10-31T23:47:13.943Z,,0,,,NaN,,,,,,false,,,,581240.8000000003,581240.5,,581239.8000000003,,581258.595,8,400,,,
break_continue,html.Screen,4_120_2,2023-10-31T23:47:13.943Z,,0,,,NaN,,,,,,false,,,,581241.5,581241.3000000003,,581241,,581258.595,8,400,,,
sequence,flow.Sequence,4_120,2023-10-31T23:47:13.944Z,,0,,,5042.971000000252,completion,,,,,false,,,,581241.7000000002,581241.3000000003,576168.598,576181,576198.329,581258.595,8,400,,,
trial,html.Screen,4_121_0,2023-10-31T23:47:17.754Z,,0,3,,3793.2050000003073,response,ISIC_0060390.JPG,5,ISIC_0055996.JPG,ISIC_0060390.JPG,false,1,keypress(m),500,585052.2000000002,585051.8000000003,581228.079,581242,581258.595,585070.997,8,400,22,,ISIC_0055996.JPG
break,html.Screen,4_121_1,2023-10-31T23:47:17.775Z,,0,,,NaN,,,,,,false,,,,585073.1000000001,585072.7000000002,,585052.5,,585070.997,8,400,,,
break_continue,html.Screen,4_121_2,2023-10-31T23:47:17.776Z,,0,,,NaN,,,,,,false,,,,585073.6000000001,585073.5,,585073.2000000002,,585070.997,8,400,,,
sequence,flow.Sequence,4_121,2023-10-31T23:47:17.776Z,,0,,,3814.905000000028,completion,,,,,false,,,,585073.8000000003,585073.5,581228.079,581241.8999999999,581258.595,585070.997,8,400,,,
trial,html.Screen,4_122_0,2023-10-31T23:47:20.610Z,,0,3,,2836.603000000119,response,ISIC_9572152.JPG,6,ISIC_0064284.JPG,ISIC_0064284.JPG,false,0,keypress(z),500,587907.8999999999,587907.6000000001,585039.22,585073.8999999999,585070.997,587927.613,8,400,23,,ISIC_9572152.JPG
break,html.Screen,4_122_1,2023-10-31T23:47:20.611Z,,0,,,NaN,,,,,,false,,,,587909.3999999999,587909.1000000001,,587908.2000000002,,587927.613,8,400,,,
break_continue,html.Screen,4_122_2,2023-10-31T23:47:20.612Z,,0,,,NaN,,,,,,false,,,,587910.2000000002,587909.8999999999,,587909.6000000001,,587927.613,8,400,,,
sequence,flow.Sequence,4_122,2023-10-31T23:47:20.612Z,,0,,,2838.902999999933,completion,,,,,false,,,,587910.3999999999,587909.8999999999,585039.22,585073.8999999999,585070.997,587927.613,8,400,,,
trial,html.Screen,4_123_0,2023-10-31T23:47:24.215Z,,0,3,,3585.087000000174,response,ISIC_3799267.JPG,5,ISIC_0010379.JPG,ISIC_3799267.JPG,false,1,keypress(m),500,591512.8999999999,591512.7000000002,587908.467,587910.6000000001,587927.613,591532.197,8,400,24,,ISIC_0010379.JPG
break,html.Screen,4_123_1,2023-10-31T23:47:24.216Z,,0,,,NaN,,,,,,false,,,,591514.3999999999,591514,,591513.2000000002,,591532.197,8,400,,,
break_continue,html.Screen,4_123_2,2023-10-31T23:47:24.217Z,,0,,,NaN,,,,,,false,,,,591515.2000000002,591514.8999999999,,591514.6000000001,,591532.197,8,400,,,
sequence,flow.Sequence,4_123,2023-10-31T23:47:24.217Z,,0,,,3587.2869999998948,completion,,,,,false,,,,591515.3999999999,591514.8999999999,587908.467,587910.6000000001,587927.613,591532.197,8,400,,,
trial,html.Screen,4_124_0,2023-10-31T23:47:27.659Z,,0,3,,3424.9030000000494,response,ISIC_8909957.JPG,6,ISIC_4312841.JPG,ISIC_8909957.JPG,false,1,keypress(m),500,594957.3999999999,594957.1000000001,591498.54,591515.6000000001,591532.197,594977.586,8,400,25,,ISIC_4312841.JPG
break,html.Screen,4_124_1,2023-10-31T23:47:27.660Z,,0,,,NaN,,,,,,false,,,,594958.3999999999,594958.2000000002,,594957.7000000002,,594977.586,8,400,,,
break_continue,html.Screen,4_124_2,2023-10-31T23:47:27.661Z,,0,,,NaN,,,,,,false,,,,594959.1000000001,594958.8000000003,,594958.6000000001,,594977.586,8,400,,,
sequence,flow.Sequence,4_124,2023-10-31T23:47:27.661Z,,0,,,3426.6030000002356,completion,,,,,false,,,,594959.3000000003,594958.8000000003,591498.54,591515.6000000001,591532.197,594977.586,8,400,,,
trial,html.Screen,4_125_0,2023-10-31T23:47:30.752Z,,0,3,,3071.714000000269,response,ISIC_0034050.JPG,5,ISIC_0033086.JPG,ISIC_0033086.JPG,false,0,keypress(z),500,598049.6000000001,598049.3000000003,594960.915,594959.5,594977.586,598063.985,8,400,26,,ISIC_0034050.JPG
break,html.Screen,4_125_1,2023-10-31T23:47:30.753Z,,0,,,NaN,,,,,,false,,,,598051,598050.6000000001,,598049.8999999999,,598063.985,8,400,,,
break_continue,html.Screen,4_125_2,2023-10-31T23:47:30.753Z,,0,,,NaN,,,,,,false,,,,598051.5,598051.3000000003,,598051.1000000001,,598063.985,8,400,,,
sequence,flow.Sequence,4_125,2023-10-31T23:47:30.754Z,,0,,,3073.714000000269,completion,,,,,false,,,,598051.7000000002,598051.3000000003,594960.915,594959.3999999999,594977.586,598063.985,8,400,,,
trial,html.Screen,4_126_0,2023-10-31T23:47:33.831Z,,0,3,,3064.414999999921,response,ISIC_0065351.JPG,6,ISIC_0053796.JPG,ISIC_0065351.JPG,false,1,keypress(m),500,601128.7000000002,601128.3999999999,598047.361,598051.8000000003,598063.985,601148.001,8,400,27,,ISIC_0053796.JPG
break,html.Screen,4_126_1,2023-10-31T23:47:33.832Z,,0,,,NaN,,,,,,false,,,,601130,601129.7000000002,,601129,,601148.001,8,400,,,
break_continue,html.Screen,4_126_2,2023-10-31T23:47:33.832Z,,0,,,NaN,,,,,,false,,,,601130.6000000001,601130.3999999999,,601130.2000000002,,601148.001,8,400,,,
