sender,sender_type,sender_id,timestamp,meta,,blockNo,condition,duration,ended_on,img_left,img_reveal,img_right,loser,practice,response,response_action,selection_duration,time_commit,time_end,time_render,time_run,time_show,time_switch,total_blocks,total_trials,trialNo,url,winner
informed_consent,html.Screen,0,2023-09-16T01:39:49.654Z,"{""labjs_version"":""20.2.4"",""labjs_build"":{""flavor"":""production"",""commit"":""f5b4a49f956347addd546a832a3327688c2c0fef""},""location"":""https://run.pavlovia.org/MurrayBennett/melanoma-2afc/?participant=66043&platform=sona"",""userAgent"":""Mozilla/5.0 (Macintosh; Intel Mac OS X 10_15_7) AppleWebKit/605.1.15 (KHTML, like Gecko) Version/16.5 Safari/605.1.15"",""platform"":""MacIntel"",""language"":""en-US"",""locale"":""en-US"",""timeZone"":""America/Chicago"",""timezoneOffset"":300,""screen_width"":1440,""screen_height"":900,""scroll_width"":1440,""scroll_height"":772,""window_innerWidth"":1440,""window_innerHeight"":820,""devicePixelRatio"":2}",,,,10204,response,,,,,,consent,click button,,15158,15166,4962,4958,4978,15188,,,,"{""participant"":""66043"",""platform"":""sona""}",
Welcome,html.Screen,1,2023-09-16T01:39:52.140Z,,,,symmetry,2479.0000000000036,response,,,,,,continue,click button,,17644.000000000004,17650.000000000004,15171,15159,15188,17671,,,,,
trial,html.Screen,2_0_0,2023-09-16T01:40:00.365Z,,0,0,,8213.000000000004,response,ISIC_0069348.JPG,,ISIC_6997061.JPG,ISIC_0069348.JPG,true,1,keypress(m),500,25869,25868.000000000004,17655,17644.000000000004,17671,25905,1,6,1,,ISIC_6997061.JPG
sequence,flow.Sequence,2_0,2023-09-16T01:40:00.365Z,,0,,,8197.000000000004,completion,,,,,true,,,,25870,25868.000000000004,17655,17644.000000000004,17671,25905,1,6,,,
trial,html.Screen,2_1_0,2023-09-16T01:40:05.267Z,,0,0,,4882,response,ISIC_0009529.JPG,,ISIC_0057368.JPG,ISIC_0057368.JPG,true,0,keypress(z),500,30772.000000000004,30771,25889,25870,25905,30805,1,6,2,,ISIC_0009529.JPG
sequence,flow.Sequence,2_1,2023-09-16T01:40:05.268Z,,0,,,4866,completion,,,,,true,,,,30772.000000000004,30771,25889,25870,25905,30805,1,6,,,
trial,html.Screen,2_2_0,2023-09-16T01:40:10.460Z,,0,0,,5175,response,ISIC_9758671.JPG,,ISIC_0064954.JPG,ISIC_9758671.JPG,true,1,keypress(m),500,35964,35964,30789,30773,30805,35989,1,6,3,,ISIC_0064954.JPG
sequence,flow.Sequence,2_2,2023-09-16T01:40:10.460Z,,0,,,5159,completion,,,,,true,,,,35965,35964,30789,30773,30805,35989,1,6,,,
trial,html.Screen,2_3_0,2023-09-16T01:40:14.583Z,,0,0,,4115,response,ISIC_0000080.JPG,,ISIC_0005785.JPG,ISIC_0005785.JPG,true,0,keypress(z),500,40088,40087,35972,35965,35989,40123,1,6,4,,ISIC_0000080.JPG
sequence,flow.Sequence,2_3,2023-09-16T01:40:14.584Z,,0,,,4098,completion,,,,,true,,,,40089,40087,35972,35965,35989,40123,1,6,,,
trial,html.Screen,2_4_0,2023-09-16T01:40:18.096Z,,0,0,,3494,response,ISIC_7944028.JPG,,ISIC_5390060.JPG,ISIC_5390060.JPG,true,0,keypress(z),500,43601,43600,40106,40089,40123,43639,1,6,5,,ISIC_7944028.JPG
sequence,flow.Sequence,2_4,2023-09-16T01:40:18.096Z,,0,,,3477,completion,,,,,true,,,,43601,43600,40106,40089,40123,43639,1,6,,,
trial,html.Screen,2_5_0,2023-09-16T01:40:22.175Z,,0,0,,4058,response,ISIC_0794216.JPG,,ISIC_0010188.JPG,ISIC_0010188.JPG,true,0,keypress(z),500,47680,47680,43622,43602.00000000001,43639,47706,1,6,6,,ISIC_0794216.JPG
sequence,flow.Sequence,2_5,2023-09-16T01:40:22.176Z,,0,,,4041,completion,,,,,true,,,,47681.00000000001,47680,43622,43602.00000000001,43639,47706,1,6,,,
loop,flow.Loop,2,2023-09-16T01:40:22.176Z,,,,,30009,completion,,,,,true,,,,47681.00000000001,47680,17655,17644.000000000004,17671,47706,1,6,,,
exp_instructions,html.Screen,3,2023-09-16T01:40:32.466Z,,,,,10290,response,,,,,,continue,keypress(Space),,57972,57979,47689,47682,47706,58006,,,,,
trial,html.Screen,4_0_0,2023-09-16T01:40:36.256Z,,0,1,,3772,response,ISIC_0072377.JPG,13,ISIC_5132214.JPG,ISIC_0072377.JPG,false,1,keypress(m),500,61762,61761,57989,57972,58006,61790,8,400,1,,ISIC_5132214.JPG
break,html.Screen,4_0_1,2023-09-16T01:40:36.258Z,,0,,,NaN,,,,,,false,,,,61764,61763,,61762,,61790,8,400,,,
break_continue,html.Screen,4_0_2,2023-09-16T01:40:36.258Z,,0,,,NaN,,,,,,false,,,,61764,61764,,61764,,61790,8,400,,,
sequence,flow.Sequence,4_0,2023-09-16T01:40:36.259Z,,0,,,3758,completion,,,,,false,,,,61764,61764,57989,57972,58006,61790,8,400,,,
trial,html.Screen,4_1_0,2023-09-16T01:40:41.415Z,,0,1,,5147,response,ISIC_0072382.JPG,9,ISIC_1834920.JPG,ISIC_0072382.JPG,false,1,keypress(m),500,66921,66920,61773,61765,61790,66957,8,400,2,,ISIC_1834920.JPG
break,html.Screen,4_1_1,2023-09-16T01:40:41.416Z,,0,,,NaN,,,,,,false,,,,66922,66922,,66921,,66957,8,400,,,
break_continue,html.Screen,4_1_2,2023-09-16T01:40:41.417Z,,0,,,NaN,,,,,,false,,,,66923,66923,,66923,,66957,8,400,,,
sequence,flow.Sequence,4_1,2023-09-16T01:40:41.418Z,,0,,,5133,completion,,,,,false,,,,66924,66923,61773,61765,61790,66957,8,400,,,
trial,html.Screen,4_2_0,2023-09-16T01:40:46.525Z,,0,1,,5090,response,ISIC_0055776.JPG,9,ISIC_0011951.JPG,ISIC_0011951.JPG,false,0,keypress(z),500,72031,72030,66940,66924,66957,72056,8,400,3,,ISIC_0055776.JPG
break,html.Screen,4_2_1,2023-09-16T01:40:46.526Z,,0,,,NaN,,,,,,false,,,,72032,72032,,72031,,72056,8,400,,,
break_continue,html.Screen,4_2_2,2023-09-16T01:40:46.527Z,,0,,,NaN,,,,,,false,,,,72033,72033,,72032,,72056,8,400,,,
sequence,flow.Sequence,4_2,2023-09-16T01:40:46.527Z,,0,,,5076,completion,,,,,false,,,,72033,72033,66940,66924,66957,72056,8,400,,,
trial,html.Screen,4_3_0,2023-09-16T01:40:52.368Z,,0,1,,5834,response,ISIC_0056784.JPG,9,ISIC_2221217.JPG,ISIC_0056784.JPG,false,1,keypress(m),500,77875,77874,72040,72033,72056,77907,8,400,4,,ISIC_2221217.JPG
break,html.Screen,4_3_1,2023-09-16T01:40:52.370Z,,0,,,NaN,,,,,,false,,,,77876,77876,,77875,,77907,8,400,,,
break_continue,html.Screen,4_3_2,2023-09-16T01:40:52.370Z,,0,,,NaN,,,,,,false,,,,77877,77876,,77876,,77907,8,400,,,
sequence,flow.Sequence,4_3,2023-09-16T01:40:52.371Z,,0,,,5820,completion,,,,,false,,,,77877,77876,72040,72033,72056,77907,8,400,,,
trial,html.Screen,4_4_0,2023-09-16T01:40:58.680Z,,0,1,,6294,response,ISIC_8284685.JPG,8,ISIC_0030666.JPG,ISIC_8284685.JPG,false,1,keypress(m),500,84186,84185,77891,77877,77907,84224,8,400,5,,ISIC_0030666.JPG
break,html.Screen,4_4_1,2023-09-16T01:40:58.681Z,,0,,,NaN,,,,,,false,,,,84188,84187,,84187,,84224,8,400,,,
break_continue,html.Screen,4_4_2,2023-09-16T01:40:58.682Z,,0,,,NaN,,,,,,false,,,,84189,84188,,84188,,84224,8,400,,,
sequence,flow.Sequence,4_4,2023-09-16T01:40:58.682Z,,0,,,6281,completion,,,,,false,,,,84189,84188,77891,77877,77907,84224,8,400,,,
trial,html.Screen,4_5_0,2023-09-16T01:41:02.142Z,,0,1,,3440,response,ISIC_9754098.JPG,7,ISIC_7740023.JPG,ISIC_9754098.JPG,false,1,keypress(m),500,87649,87648,84208,84189,84224,87673,8,400,6,,ISIC_7740023.JPG
break,html.Screen,4_5_1,2023-09-16T01:41:02.143Z,,0,,,NaN,,,,,,false,,,,87650,87650,,87649,,87673,8,400,,,
break_continue,html.Screen,4_5_2,2023-09-16T01:41:02.144Z,,0,,,NaN,,,,,,false,,,,87651,87651,,87650,,87673,8,400,,,
sequence,flow.Sequence,4_5,2023-09-16T01:41:02.144Z,,0,,,3427,completion,,,,,false,,,,87651,87651,84208,84189,84224,87673,8,400,,,
trial,html.Screen,4_6_0,2023-09-16T01:41:05.081Z,,0,1,,2930,response,ISIC_0013921.JPG,8,ISIC_7260977.JPG,ISIC_0013921.JPG,false,1,keypress(m),500,90588.00000000001,90587,87657,87651,87673,90624,8,400,7,,ISIC_7260977.JPG
break,html.Screen,4_6_1,2023-09-16T01:41:05.082Z,,0,,,NaN,,,,,,false,,,,90589,90589,,90588.00000000001,,90624,8,400,,,
break_continue,html.Screen,4_6_2,2023-09-16T01:41:05.083Z,,0,,,NaN,,,,,,false,,,,90590,90589,,90589,,90624,8,400,,,
sequence,flow.Sequence,4_6,2023-09-16T01:41:05.083Z,,0,,,2916,completion,,,,,false,,,,90590,90589,87657,87651,87673,90624,8,400,,,
trial,html.Screen,4_7_0,2023-09-16T01:41:08.560Z,,0,1,,3460,response,ISIC_0032913.JPG,12,ISIC_0046626.JPG,ISIC_0032913.JPG,false,1,keypress(m),500,94067,94067,90607,90590,90624,94091,8,400,8,,ISIC_0046626.JPG
break,html.Screen,4_7_1,2023-09-16T01:41:08.562Z,,0,,,NaN,,,,,,false,,,,94069,94068,,94068,,94091,8,400,,,
break_continue,html.Screen,4_7_2,2023-09-16T01:41:08.562Z,,0,,,NaN,,,,,,false,,,,94069,94069,,94069,,94091,8,400,,,
sequence,flow.Sequence,4_7,2023-09-16T01:41:08.562Z,,0,,,3445,completion,,,,,false,,,,94069,94069,90607,90590,90624,94091,8,400,,,
trial,html.Screen,4_8_0,2023-09-16T01:41:12.048Z,,0,1,,3481,response,ISIC_1175776.JPG,1,ISIC_0062223.JPG,ISIC_0062223.JPG,false,0,keypress(z),500,97555,97555,94074,94069,94091,97575,8,400,9,,ISIC_1175776.JPG
break,html.Screen,4_8_1,2023-09-16T01:41:12.049Z,,0,,,NaN,,,,,,false,,,,97556,97556,,97555,,97575,8,400,,,
break_continue,html.Screen,4_8_2,2023-09-16T01:41:12.050Z,,0,,,NaN,,,,,,false,,,,97557,97557,,97557,,97575,8,400,,,
sequence,flow.Sequence,4_8,2023-09-16T01:41:12.050Z,,0,,,3466,completion,,,,,false,,,,97557,97557,94074,94069,94091,97575,8,400,,,
trial,html.Screen,4_9_0,2023-09-16T01:41:15.239Z,,0,1,,3186,response,ISIC_0033902.JPG,8,ISIC_3169133.JPG,ISIC_0033902.JPG,false,1,keypress(m),500,100746,100746,97560,97557,97575,100775,8,400,10,,ISIC_3169133.JPG
break,html.Screen,4_9_1,2023-09-16T01:41:15.240Z,,0,,,NaN,,,,,,false,,,,100748,100747,,100747,,100775,8,400,,,
break_continue,html.Screen,4_9_2,2023-09-16T01:41:15.241Z,,0,,,NaN,,,,,,false,,,,100748,100748,,100748,,100775,8,400,,,
sequence,flow.Sequence,4_9,2023-09-16T01:41:15.241Z,,0,,,3173,completion,,,,,false,,,,100748,100748,97560,97557,97575,100775,8,400,,,
trial,html.Screen,4_10_0,2023-09-16T01:41:18.253Z,,0,1,,3001,response,ISIC_2379024.JPG,7,ISIC_0000482.JPG,ISIC_2379024.JPG,false,1,keypress(m),500,103760,103759,100758,100749,100775,103792,8,400,11,,ISIC_0000482.JPG
break,html.Screen,4_10_1,2023-09-16T01:41:18.254Z,,0,,,NaN,,,,,,false,,,,103761,103761,,103760,,103792,8,400,,,
break_continue,html.Screen,4_10_2,2023-09-16T01:41:18.254Z,,0,,,NaN,,,,,,false,,,,103762,103762,,103761,,103792,8,400,,,
sequence,flow.Sequence,4_10,2023-09-16T01:41:18.255Z,,0,,,2987,completion,,,,,false,,,,103762,103762,100758,100749,100775,103792,8,400,,,
trial,html.Screen,4_11_0,2023-09-16T01:41:21.134Z,,0,1,,2865,response,ISIC_7875088.JPG,6,ISIC_7981097.JPG,ISIC_7875088.JPG,false,1,keypress(m),500,106641,106640,103775,103762,103792,106675,8,400,12,,ISIC_7981097.JPG
break,html.Screen,4_11_1,2023-09-16T01:41:21.135Z,,0,,,NaN,,,,,,false,,,,106643,106642,,106641,,106675,8,400,,,
break_continue,html.Screen,4_11_2,2023-09-16T01:41:21.135Z,,0,,,NaN,,,,,,false,,,,106643,106643,,106643,,106675,8,400,,,
sequence,flow.Sequence,4_11,2023-09-16T01:41:21.136Z,,0,,,2851,completion,,,,,false,,,,106643,106643,103775,103762,103792,106675,8,400,,,
trial,html.Screen,4_12_0,2023-09-16T01:41:24.114Z,,0,1,,2963.0000000000146,response,ISIC_0031324.JPG,2,ISIC_4623351.JPG,ISIC_0031324.JPG,false,1,keypress(m),500,109622,109621.00000000001,106658,106643,106675,109658,8,400,13,,ISIC_4623351.JPG
break,html.Screen,4_12_1,2023-09-16T01:41:24.115Z,,0,,,NaN,,,,,,false,,,,109623,109622,,109622,,109658,8,400,,,
break_continue,html.Screen,4_12_2,2023-09-16T01:41:24.115Z,,0,,,NaN,,,,,,false,,,,109623,109623,,109623,,109658,8,400,,,
sequence,flow.Sequence,4_12,2023-09-16T01:41:24.116Z,,0,,,2948,completion,,,,,false,,,,109623,109623,106658,106643,106675,109658,8,400,,,
trial,html.Screen,4_13_0,2023-09-16T01:41:27.336Z,,0,1,,3201,response,ISIC_9168700.JPG,8,ISIC_5005253.JPG,ISIC_9168700.JPG,false,1,keypress(m),500,112844.00000000001,112843,109642,109623,109658,112875,8,400,14,,ISIC_5005253.JPG
break,html.Screen,4_13_1,2023-09-16T01:41:27.337Z,,0,,,NaN,,,,,,false,,,,112845,112845,,112844.00000000001,,112875,8,400,,,
break_continue,html.Screen,4_13_2,2023-09-16T01:41:27.338Z,,0,,,NaN,,,,,,false,,,,112845,112845,,112845,,112875,8,400,,,
sequence,flow.Sequence,4_13,2023-09-16T01:41:27.338Z,,0,,,3187,completion,,,,,false,,,,112846,112845,109642,109623,109658,112875,8,400,,,
trial,html.Screen,4_14_0,2023-09-16T01:41:30.327Z,,0,1,,2975,response,ISIC_0028764.JPG,13,ISIC_0030353.JPG,ISIC_0028764.JPG,false,1,keypress(m),500,115835.00000000001,115834,112859,112846,112875,115859,8,400,15,,ISIC_0030353.JPG
break,html.Screen,4_14_1,2023-09-16T01:41:30.329Z,,0,,,NaN,,,,,,false,,,,115837,115836,,115836,,115859,8,400,,,
break_continue,html.Screen,4_14_2,2023-09-16T01:41:30.329Z,,0,,,NaN,,,,,,false,,,,115837,115837,,115837,,115859,8,400,,,
sequence,flow.Sequence,4_14,2023-09-16T01:41:30.330Z,,0,,,2962,completion,,,,,false,,,,115838.00000000001,115837,112859,112846,112875,115859,8,400,,,
trial,html.Screen,4_15_0,2023-09-16T01:41:33.610Z,,0,1,,3275,response,ISIC_7249063.JPG,1,ISIC_0030898.JPG,ISIC_7249063.JPG,false,1,keypress(m),500,119118.00000000001,119117,115842,115838.00000000001,115859,119141,8,400,16,,ISIC_0030898.JPG
break,html.Screen,4_15_1,2023-09-16T01:41:33.611Z,,0,,,NaN,,,,,,false,,,,119119,119119,,119118.00000000001,,119141,8,400,,,
break_continue,html.Screen,4_15_2,2023-09-16T01:41:33.612Z,,0,,,NaN,,,,,,false,,,,119120,119119,,119119,,119141,8,400,,,
sequence,flow.Sequence,4_15,2023-09-16T01:41:33.612Z,,0,,,3260,completion,,,,,false,,,,119120,119119,115842,115838.00000000001,115859,119141,8,400,,,
trial,html.Screen,4_16_0,2023-09-16T01:41:37.394Z,,0,1,,3777,response,ISIC_8621568.JPG,2,ISIC_9163466.JPG,ISIC_9163466.JPG,false,0,keypress(z),500,122902,122902,119125,119120,119141,122925,8,400,17,,ISIC_8621568.JPG
break,html.Screen,4_16_1,2023-09-16T01:41:37.396Z,,0,,,NaN,,,,,,false,,,,122904,122903,,122903,,122925,8,400,,,
break_continue,html.Screen,4_16_2,2023-09-16T01:41:37.396Z,,0,,,NaN,,,,,,false,,,,122904,122904,,122904,,122925,8,400,,,
sequence,flow.Sequence,4_16,2023-09-16T01:41:37.396Z,,0,,,3763,completion,,,,,false,,,,122905,122904,119125,119120,119141,122925,8,400,,,
trial,html.Screen,4_17_0,2023-09-16T01:41:40.061Z,,0,1,,2660,response,ISIC_0025571.JPG,6,ISIC_4081632.JPG,ISIC_0025571.JPG,false,1,keypress(m),500,125569,125569,122909,122905,122925,125592,8,400,18,,ISIC_4081632.JPG
break,html.Screen,4_17_1,2023-09-16T01:41:40.062Z,,0,,,NaN,,,,,,false,,,,125571,125571,,125570.00000000001,,125592,8,400,,,
break_continue,html.Screen,4_17_2,2023-09-16T01:41:40.063Z,,0,,,NaN,,,,,,false,,,,125571,125571,,125571,,125592,8,400,,,
sequence,flow.Sequence,4_17,2023-09-16T01:41:40.063Z,,0,,,2646,completion,,,,,false,,,,125571,125571,122909,122905,122925,125592,8,400,,,
trial,html.Screen,4_18_0,2023-09-16T01:41:42.863Z,,0,1,,2795,response,ISIC_9155465.JPG,4,ISIC_0029281.JPG,ISIC_9155465.JPG,false,1,keypress(m),500,128371.00000000001,128370,125575,125572,125592,128409,8,400,19,,ISIC_0029281.JPG
break,html.Screen,4_18_1,2023-09-16T01:41:42.864Z,,0,,,NaN,,,,,,false,,,,128372.99999999999,128372.00000000001,,128371.00000000001,,128409,8,400,,,
break_continue,html.Screen,4_18_2,2023-09-16T01:41:42.865Z,,0,,,NaN,,,,,,false,,,,128372.99999999999,128372.99999999999,,128372.99999999999,,128409,8,400,,,
sequence,flow.Sequence,4_18,2023-09-16T01:41:42.865Z,,0,,,2780.9999999999854,completion,,,,,false,,,,128374,128372.99999999999,125575,125572,125592,128409,8,400,,,
trial,html.Screen,4_19_0,2023-09-16T01:41:45.561Z,,0,1,,2677.0000000000146,response,ISIC_0011855.JPG,5,ISIC_1260545.JPG,ISIC_1260545.JPG,false,0,keypress(z),500,131070,131069.00000000001,128392,128374,128409,131093,8,400,20,,ISIC_0011855.JPG
break,html.Screen,4_19_1,2023-09-16T01:41:45.563Z,,0,,,NaN,,,,,,false,,,,131071,131071,,131070,,131093,8,400,,,
break_continue,html.Screen,4_19_2,2023-09-16T01:41:45.563Z,,0,,,NaN,,,,,,false,,,,131072,131071,,131071,,131093,8,400,,,
sequence,flow.Sequence,4_19,2023-09-16T01:41:45.563Z,,0,,,2662,completion,,,,,false,,,,131072,131071,128392,128374,128409,131093,8,400,,,
trial,html.Screen,4_20_0,2023-09-16T01:41:48.344Z,,0,1,,2777,response,ISIC_1819071.JPG,6,ISIC_0068886.JPG,ISIC_1819071.JPG,false,1,keypress(m),500,133853,133852,131075,131072,131093,133876,8,400,21,,ISIC_0068886.JPG
break,html.Screen,4_20_1,2023-09-16T01:41:48.346Z,,0,,,NaN,,,,,,false,,,,133854,133854,,133853,,133876,8,400,,,
break_continue,html.Screen,4_20_2,2023-09-16T01:41:48.346Z,,0,,,NaN,,,,,,false,,,,133855,133855,,133855,,133876,8,400,,,
sequence,flow.Sequence,4_20,2023-09-16T01:41:48.346Z,,0,,,2762,completion,,,,,false,,,,133855,133855,131075,131072,131093,133876,8,400,,,
trial,html.Screen,4_21_0,2023-09-16T01:41:51.828Z,,0,1,,3477,response,ISIC_0024802.JPG,6,ISIC_1835041.JPG,ISIC_1835041.JPG,false,0,keypress(z),500,137337,137336,133859,133855,133876,137376,8,400,22,,ISIC_0024802.JPG
break,html.Screen,4_21_1,2023-09-16T01:41:51.830Z,,0,,,NaN,,,,,,false,,,,137338,137338,,137337,,137376,8,400,,,
break_continue,html.Screen,4_21_2,2023-09-16T01:41:51.830Z,,0,,,NaN,,,,,,false,,,,137339,137339,,137338,,137376,8,400,,,
sequence,flow.Sequence,4_21,2023-09-16T01:41:51.830Z,,0,,,3463,completion,,,,,false,,,,137339,137339,133859,133855,133876,137376,8,400,,,
trial,html.Screen,4_22_0,2023-09-16T01:41:54.661Z,,0,1,,2810,response,ISIC_0002026.JPG,5,ISIC_0027986.JPG,ISIC_0027986.JPG,false,0,keypress(z),500,140169,140169,137359,137339,137376,140192,8,400,23,,ISIC_0002026.JPG
break,html.Screen,4_22_1,2023-09-16T01:41:54.662Z,,0,,,NaN,,,,,,false,,,,140171,140170.00000000003,,140170.00000000003,,140192,8,400,,,
break_continue,html.Screen,4_22_2,2023-09-16T01:41:54.662Z,,0,,,NaN,,,,,,false,,,,140171,140171,,140171,,140192,8,400,,,
sequence,flow.Sequence,4_22,2023-09-16T01:41:54.663Z,,0,,,2795,completion,,,,,false,,,,140171,140171,137359,137339,137376,140192,8,400,,,
trial,html.Screen,4_23_0,2023-09-16T01:41:57.454Z,,0,1,,2786,response,ISIC_2400177.JPG,14,ISIC_0032377.JPG,ISIC_2400177.JPG,false,1,keypress(m),500,142963,142962,140176,140172,140192,142992,8,400,24,,ISIC_0032377.JPG
break,html.Screen,4_23_1,2023-09-16T01:41:57.455Z,,0,,,NaN,,,,,,false,,,,142964,142964,,142963,,142992,8,400,,,
break_continue,html.Screen,4_23_2,2023-09-16T01:41:57.456Z,,0,,,NaN,,,,,,false,,,,142965,142964,,142964,,142992,8,400,,,
sequence,flow.Sequence,4_23,2023-09-16T01:41:57.456Z,,0,,,2772,completion,,,,,false,,,,142965,142964,140176,140171,140192,142992,8,400,,,
trial,html.Screen,4_24_0,2023-09-16T01:42:00.404Z,,0,1,,2937,response,ISIC_7292983.JPG,6,ISIC_0779920.JPG,ISIC_7292983.JPG,false,1,keypress(m),500,145913,145913,142976,142965,142992,145943,8,400,25,,ISIC_0779920.JPG
break,html.Screen,4_24_1,2023-09-16T01:42:00.406Z,,0,,,NaN,,,,,,false,,,,145915,145914.00000000003,,145914.00000000003,,145943,8,400,,,
break_continue,html.Screen,4_24_2,2023-09-16T01:42:00.406Z,,0,,,NaN,,,,,,false,,,,145915,145915,,145915,,145943,8,400,,,
sequence,flow.Sequence,4_24,2023-09-16T01:42:00.406Z,,0,,,2923,completion,,,,,false,,,,145915,145915,142976,142965,142992,145943,8,400,,,
trial,html.Screen,4_25_0,2023-09-16T01:42:04.347Z,,0,1,,3929,response,ISIC_0033636.JPG,2,ISIC_0010807.JPG,ISIC_0033636.JPG,false,1,keypress(m),500,149856,149856,145927,145916,145943,149893,8,400,26,,ISIC_0010807.JPG
break,html.Screen,4_25_1,2023-09-16T01:42:04.348Z,,0,,,NaN,,,,,,false,,,,149858,149857,,149857,,149893,8,400,,,
break_continue,html.Screen,4_25_2,2023-09-16T01:42:04.349Z,,0,,,NaN,,,,,,false,,,,149858,149858,,149858,,149893,8,400,,,
sequence,flow.Sequence,4_25,2023-09-16T01:42:04.349Z,,0,,,3915,completion,,,,,false,,,,149858,149858,145927,145916,145943,149893,8,400,,,
trial,html.Screen,4_26_0,2023-09-16T01:42:07.452Z,,0,1,,3084,response,ISIC_3814807.JPG,15,ISIC_1075605.JPG,ISIC_1075605.JPG,false,0,keypress(z),500,152961,152961,149877,149858,149893,152993,8,400,27,,ISIC_3814807.JPG
break,html.Screen,4_26_1,2023-09-16T01:42:07.453Z,,0,,,NaN,,,,,,false,,,,152963,152962,,152962,,152993,8,400,,,
break_continue,html.Screen,4_26_2,2023-09-16T01:42:07.454Z,,0,,,NaN,,,,,,false,,,,152963,152963,,152963,,152993,8,400,,,
sequence,flow.Sequence,4_26,2023-09-16T01:42:07.454Z,,0,,,3070,completion,,,,,false,,,,152963,152963,149877,149858,149893,152993,8,400,,,
trial,html.Screen,4_27_0,2023-09-16T01:42:10.513Z,,0,1,,3045,response,ISIC_0005854.JPG,7,ISIC_4185719.JPG,ISIC_0005854.JPG,false,1,keypress(m),500,156023,156022,152977,152963,152993,156043,8,400,28,,ISIC_4185719.JPG
break,html.Screen,4_27_1,2023-09-16T01:42:10.515Z,,0,,,NaN,,,,,,false,,,,156024,156024,,156023,,156043,8,400,,,
break_continue,html.Screen,4_27_2,2023-09-16T01:42:10.515Z,,0,,,NaN,,,,,,false,,,,156025,156024,,156024,,156043,8,400,,,
sequence,flow.Sequence,4_27,2023-09-16T01:42:10.515Z,,0,,,3031,completion,,,,,false,,,,156025,156024,152977,152963,152993,156043,8,400,,,
trial,html.Screen,4_28_0,2023-09-16T01:42:14.028Z,,0,1,,3510,response,ISIC_0663588.JPG,2,ISIC_0006321.JPG,ISIC_0006321.JPG,false,0,keypress(z),500,159537,159537,156027,156025,156043,159560,8,400,29,,ISIC_0663588.JPG
break,html.Screen,4_28_1,2023-09-16T01:42:14.029Z,,0,,,NaN,,,,,,false,,,,159539.00000000003,159538,,159538,,159560,8,400,,,
break_continue,html.Screen,4_28_2,2023-09-16T01:42:14.030Z,,0,,,NaN,,,,,,false,,,,159539.00000000003,159539.00000000003,,159539.00000000003,,159560,8,400,,,
sequence,flow.Sequence,4_28,2023-09-16T01:42:14.030Z,,0,,,3496.000000000029,completion,,,,,false,,,,159539.00000000003,159539.00000000003,156027,156025,156043,159560,8,400,,,
trial,html.Screen,4_29_0,2023-09-16T01:42:16.763Z,,0,1,,2729,response,ISIC_8077943.JPG,1,ISIC_0821520.JPG,ISIC_8077943.JPG,false,1,keypress(m),500,162272,162272,159543,159540,159560,162294,8,400,30,,ISIC_0821520.JPG
break,html.Screen,4_29_1,2023-09-16T01:42:16.764Z,,0,,,NaN,,,,,,false,,,,162274,162273,,162273,,162294,8,400,,,
break_continue,html.Screen,4_29_2,2023-09-16T01:42:16.764Z,,0,,,NaN,,,,,,false,,,,162274,162274,,162274,,162294,8,400,,,
sequence,flow.Sequence,4_29,2023-09-16T01:42:16.765Z,,0,,,2714,completion,,,,,false,,,,162274,162274,159543,159539.00000000003,159560,162294,8,400,,,
trial,html.Screen,4_30_0,2023-09-16T01:42:19.746Z,,0,1,,2979,response,ISIC_0030535.JPG,1,ISIC_0024892.JPG,ISIC_0024892.JPG,false,0,keypress(z),500,165256,165256,162277,162274,162294,165293,8,400,31,,ISIC_0030535.JPG
break,html.Screen,4_30_1,2023-09-16T01:42:19.747Z,,0,,,NaN,,,,,,false,,,,165257,165257,,165256,,165293,8,400,,,
break_continue,html.Screen,4_30_2,2023-09-16T01:42:19.748Z,,0,,,NaN,,,,,,false,,,,165258,165258,,165257,,165293,8,400,,,
sequence,flow.Sequence,4_30,2023-09-16T01:42:19.748Z,,0,,,2964,completion,,,,,false,,,,165258,165258,162277,162274,162294,165293,8,400,,,
trial,html.Screen,4_31_0,2023-09-16T01:42:23.050Z,,0,1,,3282,response,ISIC_9596721.JPG,13,ISIC_9987485.JPG,ISIC_9596721.JPG,false,1,keypress(m),500,168560,168559,165277,165258,165293,168594,8,400,32,,ISIC_9987485.JPG
break,html.Screen,4_31_1,2023-09-16T01:42:23.051Z,,0,,,NaN,,,,,,false,,,,168561,168561,,168560,,168594,8,400,,,
break_continue,html.Screen,4_31_2,2023-09-16T01:42:23.052Z,,0,,,NaN,,,,,,false,,,,168562,168561,,168561,,168594,8,400,,,
sequence,flow.Sequence,4_31,2023-09-16T01:42:23.052Z,,0,,,3268,completion,,,,,false,,,,168562,168561,165277,165258,165293,168594,8,400,,,
trial,html.Screen,4_32_0,2023-09-16T01:42:25.795Z,,0,1,,2728,response,ISIC_0070948.JPG,9,ISIC_9024078.JPG,ISIC_9024078.JPG,false,0,keypress(z),500,171306,171305,168577,168562,168594,171328,8,400,33,,ISIC_0070948.JPG
break,html.Screen,4_32_1,2023-09-16T01:42:25.797Z,,0,,,NaN,,,,,,false,,,,171307.00000000003,171307.00000000003,,171306,,171328,8,400,,,
break_continue,html.Screen,4_32_2,2023-09-16T01:42:25.797Z,,0,,,NaN,,,,,,false,,,,171307.00000000003,171307.00000000003,,171307.00000000003,,171328,8,400,,,
sequence,flow.Sequence,4_32,2023-09-16T01:42:25.797Z,,0,,,2713.000000000029,completion,,,,,false,,,,171307.00000000003,171307.00000000003,168577,168562,168594,171328,8,400,,,
trial,html.Screen,4_33_0,2023-09-16T01:42:28.456Z,,0,1,,2656,response,ISIC_0029905.JPG,5,ISIC_9301809.JPG,ISIC_0029905.JPG,false,1,keypress(m),500,173967,173966,171310,171308,171328,173994,8,400,34,,ISIC_9301809.JPG
break,html.Screen,4_33_1,2023-09-16T01:42:28.458Z,,0,,,NaN,,,,,,false,,,,173968.00000000003,173968.00000000003,,173967,,173994,8,400,,,
break_continue,html.Screen,4_33_2,2023-09-16T01:42:28.459Z,,0,,,NaN,,,,,,false,,,,173969,173969,,173968.00000000003,,173994,8,400,,,
sequence,flow.Sequence,4_33,2023-09-16T01:42:28.459Z,,0,,,2641,completion,,,,,false,,,,173969,173969,171310,171307.00000000003,171328,173994,8,400,,,
trial,html.Screen,4_34_0,2023-09-16T01:42:31.615Z,,0,1,,3147,response,ISIC_0055996.JPG,10,ISIC_0034289.JPG,ISIC_0034289.JPG,false,0,keypress(z),500,177125,177125,173978,173969,173994,177161,8,400,35,,ISIC_0055996.JPG
break,html.Screen,4_34_1,2023-09-16T01:42:31.616Z,,0,,,NaN,,,,,,false,,,,177126,177126,,177125,,177161,8,400,,,
break_continue,html.Screen,4_34_2,2023-09-16T01:42:31.617Z,,0,,,NaN,,,,,,false,,,,177127,177127,,177127,,177161,8,400,,,
sequence,flow.Sequence,4_34,2023-09-16T01:42:31.617Z,,0,,,3133,completion,,,,,false,,,,177127,177127,173978,173969,173994,177161,8,400,,,
trial,html.Screen,4_35_0,2023-09-16T01:42:34.476Z,,0,1,,2842,response,ISIC_7297078.JPG,11,ISIC_0541345.JPG,ISIC_7297078.JPG,false,1,keypress(m),500,179987,179986,177144,177127,177161,180011,8,400,36,,ISIC_0541345.JPG
break,html.Screen,4_35_1,2023-09-16T01:42:34.478Z,,0,,,NaN,,,,,,false,,,,179988,179988,,179987,,180011,8,400,,,
break_continue,html.Screen,4_35_2,2023-09-16T01:42:34.478Z,,0,,,NaN,,,,,,false,,,,179989,179988,,179988,,180011,8,400,,,
sequence,flow.Sequence,4_35,2023-09-16T01:42:34.478Z,,0,,,2827,completion,,,,,false,,,,179989,179988,177144,177127,177161,180011,8,400,,,
trial,html.Screen,4_36_0,2023-09-16T01:42:37.310Z,,0,1,,2826,response,ISIC_3520709.JPG,6,ISIC_9182285.JPG,ISIC_9182285.JPG,false,0,keypress(z),500,182821,182820,179994,179989,180011,182844,8,400,37,,ISIC_3520709.JPG
break,html.Screen,4_36_1,2023-09-16T01:42:37.311Z,,0,,,NaN,,,,,,false,,,,182822,182822,,182821,,182844,8,400,,,
break_continue,html.Screen,4_36_2,2023-09-16T01:42:37.312Z,,0,,,NaN,,,,,,false,,,,182822,182822,,182822,,182844,8,400,,,
sequence,flow.Sequence,4_36,2023-09-16T01:42:37.312Z,,0,,,2811,completion,,,,,false,,,,182822,182822,179994,179989,180011,182844,8,400,,,
trial,html.Screen,4_37_0,2023-09-16T01:42:40.847Z,,0,1,,3530,response,ISIC_0062058.JPG,1,ISIC_0056201.JPG,ISIC_0062058.JPG,false,1,keypress(m),500,186358,186357,182827,182823,182844,186395,8,400,38,,ISIC_0056201.JPG
break,html.Screen,4_37_1,2023-09-16T01:42:40.849Z,,0,,,NaN,,,,,,false,,,,186359,186359,,186358,,186395,8,400,,,
break_continue,html.Screen,4_37_2,2023-09-16T01:42:40.849Z,,0,,,NaN,,,,,,false,,,,186360,186360,,186359,,186395,8,400,,,
sequence,flow.Sequence,4_37,2023-09-16T01:42:40.849Z,,0,,,3516,completion,,,,,false,,,,186360,186360,182827,182823,182844,186395,8,400,,,
trial,html.Screen,4_38_0,2023-09-16T01:42:43.747Z,,0,1,,2878,response,ISIC_0053541.JPG,12,ISIC_0010684.JPG,ISIC_0053541.JPG,false,1,keypress(m),500,189258,189257,186379,186360,186395,189295,8,400,39,,ISIC_0010684.JPG
break,html.Screen,4_38_1,2023-09-16T01:42:43.748Z,,0,,,NaN,,,,,,false,,,,189259,189259,,189258,,189295,8,400,,,
break_continue,html.Screen,4_38_2,2023-09-16T01:42:43.748Z,,0,,,NaN,,,,,,false,,,,189259,189259,,189259,,189295,8,400,,,
sequence,flow.Sequence,4_38,2023-09-16T01:42:43.749Z,,0,,,2864,completion,,,,,false,,,,189259,189259,186379,186360,186395,189295,8,400,,,
trial,html.Screen,4_39_0,2023-09-16T01:42:46.394Z,,0,1,,2626,response,ISIC_0280912.JPG,12,ISIC_8663971.JPG,ISIC_0280912.JPG,false,1,keypress(m),500,191904,191904,189278,189260,189295,191928,8,400,40,,ISIC_8663971.JPG
break,html.Screen,4_39_1,2023-09-16T01:42:46.395Z,,0,,,NaN,,,,,,false,,,,191906,191905,,191905,,191928,8,400,,,
break_continue,html.Screen,4_39_2,2023-09-16T01:42:46.395Z,,0,,,NaN,,,,,,false,,,,191906,191906,,191906,,191928,8,400,,,
sequence,flow.Sequence,4_39,2023-09-16T01:42:46.395Z,,0,,,2611,completion,,,,,false,,,,191906,191906,189278,189260,189295,191928,8,400,,,
trial,html.Screen,4_40_0,2023-09-16T01:42:49.203Z,,0,1,,2803,response,ISIC_0054777.JPG,5,ISIC_6487069.JPG,ISIC_0054777.JPG,false,1,keypress(m),500,194715,194714,191911,191907,191928,194745,8,400,41,,ISIC_6487069.JPG
break,html.Screen,4_40_1,2023-09-16T01:42:49.205Z,,0,,,NaN,,,,,,false,,,,194716,194715,,194715,,194745,8,400,,,
break_continue,html.Screen,4_40_2,2023-09-16T01:42:49.205Z,,0,,,NaN,,,,,,false,,,,194716,194716,,194716,,194745,8,400,,,
sequence,flow.Sequence,4_40,2023-09-16T01:42:49.205Z,,0,,,2788,completion,,,,,false,,,,194716,194716,191911,191907,191928,194745,8,400,,,
trial,html.Screen,4_41_0,2023-09-16T01:42:53.711Z,,0,1,,4494,response,ISIC_0830217.JPG,7,ISIC_0054974.JPG,ISIC_0054974.JPG,false,0,keypress(z),500,199222,199222,194728,194717,194745,199245,8,400,42,,ISIC_0830217.JPG
break,html.Screen,4_41_1,2023-09-16T01:42:53.712Z,,0,,,NaN,,,,,,false,,,,199223,199223,,199222,,199245,8,400,,,
break_continue,html.Screen,4_41_2,2023-09-16T01:42:53.713Z,,0,,,NaN,,,,,,false,,,,199224.00000000003,199223,,199223,,199245,8,400,,,
sequence,flow.Sequence,4_41,2023-09-16T01:42:53.713Z,,0,,,4478,completion,,,,,false,,,,199224.00000000003,199223,194728,194716,194745,199245,8,400,,,
trial,html.Screen,4_42_0,2023-09-16T01:42:56.402Z,,0,1,,2685,response,ISIC_0064660.JPG,14,ISIC_0000002.JPG,ISIC_0064660.JPG,false,1,keypress(m),500,201914.00000000003,201913,199228,199224.00000000003,199245,201945,8,400,43,,ISIC_0000002.JPG
break,html.Screen,4_42_1,2023-09-16T01:42:56.403Z,,0,,,NaN,,,,,,false,,,,201915,201915,,201914.00000000003,,201945,8,400,,,
break_continue,html.Screen,4_42_2,2023-09-16T01:42:56.404Z,,0,,,NaN,,,,,,false,,,,201915,201915,,201915,,201945,8,400,,,
sequence,flow.Sequence,4_42,2023-09-16T01:42:56.404Z,,0,,,2670,completion,,,,,false,,,,201915,201915,199228,199224.00000000003,199245,201945,8,400,,,
trial,html.Screen,4_43_0,2023-09-16T01:42:59.226Z,,0,1,,2809,response,ISIC_0440848.JPG,5,ISIC_4462773.JPG,ISIC_0440848.JPG,false,1,keypress(m),500,204737,204737,201928,201916,201945,204762,8,400,44,,ISIC_4462773.JPG
break,html.Screen,4_43_1,2023-09-16T01:42:59.227Z,,0,,,NaN,,,,,,false,,,,204739,204738,,204737,,204762,8,400,,,
break_continue,html.Screen,4_43_2,2023-09-16T01:42:59.228Z,,0,,,NaN,,,,,,false,,,,204739,204739,,204739,,204762,8,400,,,
sequence,flow.Sequence,4_43,2023-09-16T01:42:59.228Z,,0,,,2794,completion,,,,,false,,,,204739,204739,201928,201916,201945,204762,8,400,,,
trial,html.Screen,4_44_0,2023-09-16T01:43:02.098Z,,0,1,,2864,response,ISIC_1711973.JPG,6,ISIC_6870208.JPG,ISIC_6870208.JPG,false,0,keypress(z),500,207609,207609,204745,204739,204762,207645,8,400,45,,ISIC_1711973.JPG
break,html.Screen,4_44_1,2023-09-16T01:43:02.099Z,,0,,,NaN,,,,,,false,,,,207611.00000000003,207610,,207610,,207645,8,400,,,
break_continue,html.Screen,4_44_2,2023-09-16T01:43:02.099Z,,0,,,NaN,,,,,,false,,,,207611.00000000003,207611.00000000003,,207611.00000000003,,207645,8,400,,,
sequence,flow.Sequence,4_44,2023-09-16T01:43:02.100Z,,0,,,2849.000000000029,completion,,,,,false,,,,207611.00000000003,207611.00000000003,204745,204739,204762,207645,8,400,,,
trial,html.Screen,4_45_0,2023-09-16T01:43:04.926Z,,0,1,,2809,response,ISIC_6414435.JPG,12,ISIC_1336351.JPG,ISIC_1336351.JPG,false,0,keypress(z),500,210438.00000000003,210437,207628,207611.00000000003,207645,210462,8,400,46,,ISIC_6414435.JPG
break,html.Screen,4_45_1,2023-09-16T01:43:04.927Z,,0,,,NaN,,,,,,false,,,,210439,210439,,210438.00000000003,,210462,8,400,,,
break_continue,html.Screen,4_45_2,2023-09-16T01:43:04.927Z,,0,,,NaN,,,,,,false,,,,210439,210439,,210439,,210462,8,400,,,
sequence,flow.Sequence,4_45,2023-09-16T01:43:04.928Z,,0,,,2794,completion,,,,,false,,,,210439,210439,207628,207611.00000000003,207645,210462,8,400,,,
trial,html.Screen,4_46_0,2023-09-16T01:43:08.098Z,,0,1,,3164,response,ISIC_0007148.JPG,5,ISIC_7251402.JPG,ISIC_0007148.JPG,false,1,keypress(m),500,213609,213609,210445,210439,210462,213646,8,400,47,,ISIC_7251402.JPG
break,html.Screen,4_46_1,2023-09-16T01:43:08.099Z,,0,,,NaN,,,,,,false,,,,213611.00000000003,213611.00000000003,,213610,,213646,8,400,,,
break_continue,html.Screen,4_46_2,2023-09-16T01:43:08.099Z,,0,,,NaN,,,,,,false,,,,213611.00000000003,213611.00000000003,,213611.00000000003,,213646,8,400,,,
sequence,flow.Sequence,4_46,2023-09-16T01:43:08.100Z,,0,,,3149.000000000029,completion,,,,,false,,,,213611.00000000003,213611.00000000003,210445,210439,210462,213646,8,400,,,
trial,html.Screen,4_47_0,2023-09-16T01:43:10.962Z,,0,1,,2845,response,ISIC_0033752.JPG,8,ISIC_1595658.JPG,ISIC_0033752.JPG,false,1,keypress(m),500,216474.00000000003,216473,213628,213612,213646,216496,8,400,48,,ISIC_1595658.JPG
break,html.Screen,4_47_1,2023-09-16T01:43:10.963Z,,0,,,NaN,,,,,,false,,,,216475,216475,,216474.00000000003,,216496,8,400,,,
break_continue,html.Screen,4_47_2,2023-09-16T01:43:10.963Z,,0,,,NaN,,,,,,false,,,,216475,216475,,216475,,216496,8,400,,,
sequence,flow.Sequence,4_47,2023-09-16T01:43:10.963Z,,0,,,2829,completion,,,,,false,,,,216475,216475,213628,213612,213646,216496,8,400,,,
trial,html.Screen,4_48_0,2023-09-16T01:43:13.818Z,,0,1,,2850,response,ISIC_0080817.JPG,6,ISIC_7748311.JPG,ISIC_0080817.JPG,false,1,keypress(m),500,219330,219329,216479,216476,216496,219363,8,400,49,,ISIC_7748311.JPG
break,html.Screen,4_48_1,2023-09-16T01:43:13.819Z,,0,,,NaN,,,,,,false,,,,219331.00000000003,219331.00000000003,,219330,,219363,8,400,,,
break_continue,html.Screen,4_48_2,2023-09-16T01:43:13.819Z,,0,,,NaN,,,,,,false,,,,219331.00000000003,219331.00000000003,,219331.00000000003,,219363,8,400,,,
sequence,flow.Sequence,4_48,2023-09-16T01:43:13.819Z,,0,,,2835.000000000029,completion,,,,,false,,,,219331.00000000003,219331.00000000003,216479,216475,216496,219363,8,400,,,
trial,html.Screen,4_49_0,2023-09-16T01:43:16.664Z,,0,1,,2829,response,ISIC_6722934.JPG,1,ISIC_0068950.JPG,ISIC_6722934.JPG,false,1,keypress(m),500,222176.00000000003,222175,219346,219332,219363,222213,8,400,50,,ISIC_0068950.JPG
break,html.Screen,4_49_1,2023-09-16T01:43:26.685Z,,0,,,10000,timeout,,,,,false,,,,232197,232196,222196,222176.00000000003,222213,232213,8,400,,,
break_continue,html.Screen,4_49_2,2023-09-16T01:43:27.692Z,,0,,,1019,response,,,,,false,continue,keypress(Space),,233204,233215,232196,232197,232213,233230,8,400,,,
sequence,flow.Sequence,4_49,2023-09-16T01:43:27.692Z,,0,,,13852,completion,,,,,false,,,,233204,233215,219346,219332,219363,233230,8,400,,,
trial,html.Screen,4_50_0,2023-09-16T01:43:31.418Z,,0,2,,3717,response,ISIC_2524005.JPG,1,ISIC_0010772.JPG,ISIC_0010772.JPG,false,0,keypress(z),500,236930,236930,233213,233205,233230,236963,8,400,1,,ISIC_2524005.JPG
break,html.Screen,4_50_1,2023-09-16T01:43:31.419Z,,0,,,NaN,,,,,,false,,,,236932.00000000003,236931,,236931,,236963,8,400,,,
break_continue,html.Screen,4_50_2,2023-09-16T01:43:31.419Z,,0,,,NaN,,,,,,false,,,,236932.00000000003,236932.00000000003,,236932.00000000003,,236963,8,400,,,
sequence,flow.Sequence,4_50,2023-09-16T01:43:31.419Z,,0,,,3702.000000000029,completion,,,,,false,,,,236932.00000000003,236932.00000000003,233213,233204,233230,236963,8,400,,,
trial,html.Screen,4_51_0,2023-09-16T01:43:34.127Z,,0,2,,2693.000000000029,response,ISIC_0021442.JPG,9,ISIC_6210962.JPG,ISIC_0021442.JPG,false,1,keypress(m),500,239640.00000000003,239640.00000000003,236947,236932.00000000003,236963,239663,8,400,2,,ISIC_6210962.JPG
break,html.Screen,4_51_1,2023-09-16T01:43:34.128Z,,0,,,NaN,,,,,,false,,,,239641,239641,,239640.00000000003,,239663,8,400,,,
break_continue,html.Screen,4_51_2,2023-09-16T01:43:34.129Z,,0,,,NaN,,,,,,false,,,,239642,239641,,239641,,239663,8,400,,,
sequence,flow.Sequence,4_51,2023-09-16T01:43:34.129Z,,0,,,2678,completion,,,,,false,,,,239642,239641,236947,236932.00000000003,236963,239663,8,400,,,
trial,html.Screen,4_52_0,2023-09-16T01:43:36.747Z,,0,2,,2613,response,ISIC_2481044.JPG,8,ISIC_8124482.JPG,ISIC_8124482.JPG,false,0,keypress(z),500,242260,242259,239646,239642,239663,242297,8,400,3,,ISIC_2481044.JPG
break,html.Screen,4_52_1,2023-09-16T01:43:36.748Z,,0,,,NaN,,,,,,false,,,,242261,242261,,242260,,242297,8,400,,,
break_continue,html.Screen,4_52_2,2023-09-16T01:43:36.748Z,,0,,,NaN,,,,,,false,,,,242261,242261,,242261,,242297,8,400,,,
sequence,flow.Sequence,4_52,2023-09-16T01:43:36.749Z,,0,,,2598,completion,,,,,false,,,,242261,242261,239646,239642,239663,242297,8,400,,,
trial,html.Screen,4_53_0,2023-09-16T01:43:39.409Z,,0,2,,2642,response,ISIC_2849353.JPG,9,ISIC_5484776.JPG,ISIC_5484776.JPG,false,0,keypress(z),500,244922,244922,242280,242262,242297,244947,8,400,4,,ISIC_2849353.JPG
break,html.Screen,4_53_1,2023-09-16T01:43:39.410Z,,0,,,NaN,,,,,,false,,,,244923,244923,,244922,,244947,8,400,,,
break_continue,html.Screen,4_53_2,2023-09-16T01:43:39.411Z,,0,,,NaN,,,,,,false,,,,244924,244924,,244923,,244947,8,400,,,
sequence,flow.Sequence,4_53,2023-09-16T01:43:39.411Z,,0,,,2627,completion,,,,,false,,,,244924,244924,242280,242262,242297,244947,8,400,,,
trial,html.Screen,4_54_0,2023-09-16T01:43:42.002Z,,0,2,,2585.000000000029,response,ISIC_0013967.JPG,7,ISIC_0024739.JPG,ISIC_0024739.JPG,false,0,keypress(z),500,247515.00000000003,247515.00000000003,244930,244924,244947,247547,8,400,5,,ISIC_0013967.JPG
break,html.Screen,4_54_1,2023-09-16T01:43:42.004Z,,0,,,NaN,,,,,,false,,,,247517,247516,,247516,,247547,8,400,,,
break_continue,html.Screen,4_54_2,2023-09-16T01:43:42.004Z,,0,,,NaN,,,,,,false,,,,247517,247517,,247517,,247547,8,400,,,
sequence,flow.Sequence,4_54,2023-09-16T01:43:42.004Z,,0,,,2570,completion,,,,,false,,,,247517,247517,244930,244924,244947,247547,8,400,,,
trial,html.Screen,4_55_0,2023-09-16T01:43:44.770Z,,0,2,,2754.000000000029,response,ISIC_4732241.JPG,5,ISIC_0014308.JPG,ISIC_0014308.JPG,false,0,keypress(z),500,250284,250283.00000000003,247529,247517,247547,250314,8,400,6,,ISIC_4732241.JPG
break,html.Screen,4_55_1,2023-09-16T01:43:44.772Z,,0,,,NaN,,,,,,false,,,,250285,250285,,250284,,250314,8,400,,,
break_continue,html.Screen,4_55_2,2023-09-16T01:43:44.772Z,,0,,,NaN,,,,,,false,,,,250285,250285,,250285,,250314,8,400,,,
sequence,flow.Sequence,4_55,2023-09-16T01:43:44.772Z,,0,,,2738,completion,,,,,false,,,,250285,250285,247529,247517,247547,250314,8,400,,,
trial,html.Screen,4_56_0,2023-09-16T01:43:47.682Z,,0,2,,2897.000000000029,response,ISIC_0028465.JPG,6,ISIC_0015136.JPG,ISIC_0015136.JPG,false,0,keypress(z),500,253195,253194.00000000003,250297,250286,250314,253230,8,400,7,,ISIC_0028465.JPG
break,html.Screen,4_56_1,2023-09-16T01:43:47.683Z,,0,,,NaN,,,,,,false,,,,253196,253196,,253195,,253230,8,400,,,
break_continue,html.Screen,4_56_2,2023-09-16T01:43:47.683Z,,0,,,NaN,,,,,,false,,,,253197,253197,,253196,,253230,8,400,,,
sequence,flow.Sequence,4_56,2023-09-16T01:43:47.684Z,,0,,,2883,completion,,,,,false,,,,253197,253197,250297,250286,250314,253230,8,400,,,
trial,html.Screen,4_57_0,2023-09-16T01:43:50.198Z,,0,2,,2497,response,ISIC_3435596.JPG,10,ISIC_0024737.JPG,ISIC_3435596.JPG,false,1,keypress(m),500,255711,255711,253214,253197,253230,255747,8,400,8,,ISIC_0024737.JPG
break,html.Screen,4_57_1,2023-09-16T01:43:50.199Z,,0,,,NaN,,,,,,false,,,,255712.00000000003,255712.00000000003,,255712.00000000003,,255747,8,400,,,
break_continue,html.Screen,4_57_2,2023-09-16T01:43:50.199Z,,0,,,NaN,,,,,,false,,,,255713,255713,,255713,,255747,8,400,,,
sequence,flow.Sequence,4_57,2023-09-16T01:43:50.200Z,,0,,,2483,completion,,,,,false,,,,255713,255713,253214,253197,253230,255747,8,400,,,
trial,html.Screen,4_58_0,2023-09-16T01:43:52.835Z,,0,2,,2617,response,ISIC_4620425.JPG,0,ISIC_0033640.JPG,ISIC_0033640.JPG,false,0,keypress(z),500,258349,258348,255731,255713,255747,258381,8,400,9,,ISIC_4620425.JPG
break,html.Screen,4_58_1,2023-09-16T01:43:52.836Z,,0,,,NaN,,,,,,false,,,,258350.00000000003,258350.00000000003,,258349,,258381,8,400,,,
break_continue,html.Screen,4_58_2,2023-09-16T01:43:52.837Z,,0,,,NaN,,,,,,false,,,,258350.00000000003,258350.00000000003,,258350.00000000003,,258381,8,400,,,
sequence,flow.Sequence,4_58,2023-09-16T01:43:52.837Z,,0,,,2603.000000000029,completion,,,,,false,,,,258351,258350.00000000003,255731,255713,255747,258381,8,400,,,
trial,html.Screen,4_59_0,2023-09-16T01:43:55.883Z,,0,2,,3033,response,ISIC_0032033.JPG,9,ISIC_6532137.JPG,ISIC_6532137.JPG,false,0,keypress(z),500,261397,261397,258364,258351,258381,261431,8,400,10,,ISIC_0032033.JPG
break,html.Screen,4_59_1,2023-09-16T01:43:55.885Z,,0,,,NaN,,,,,,false,,,,261398.00000000003,261398.00000000003,,261397,,261431,8,400,,,
break_continue,html.Screen,4_59_2,2023-09-16T01:43:55.885Z,,0,,,NaN,,,,,,false,,,,261399,261399,,261398.00000000003,,261431,8,400,,,
sequence,flow.Sequence,4_59,2023-09-16T01:43:55.885Z,,0,,,3018,completion,,,,,false,,,,261399,261399,258364,258351,258381,261431,8,400,,,
trial,html.Screen,4_60_0,2023-09-16T01:43:58.358Z,,0,2,,2457,response,ISIC_0567814.JPG,9,ISIC_0025987.JPG,ISIC_0567814.JPG,false,1,keypress(m),500,263872,263871,261414,261399,261431,263898,8,400,11,,ISIC_0025987.JPG
break,html.Screen,4_60_1,2023-09-16T01:43:58.359Z,,0,,,NaN,,,,,,false,,,,263873,263873,,263872,,263898,8,400,,,
break_continue,html.Screen,4_60_2,2023-09-16T01:43:58.360Z,,0,,,NaN,,,,,,false,,,,263873,263873,,263873,,263898,8,400,,,
sequence,flow.Sequence,4_60,2023-09-16T01:43:58.360Z,,0,,,2442,completion,,,,,false,,,,263874,263873,261414,261399,261431,263898,8,400,,,
trial,html.Screen,4_61_0,2023-09-16T01:44:00.821Z,,0,2,,2454,response,ISIC_5363229.JPG,4,ISIC_1745731.JPG,ISIC_1745731.JPG,false,0,keypress(z),500,266335,266335,263881,263874,263898,266364,8,400,12,,ISIC_5363229.JPG
break,html.Screen,4_61_1,2023-09-16T01:44:00.823Z,,0,,,NaN,,,,,,false,,,,266337,266336,,266335,,266364,8,400,,,
break_continue,html.Screen,4_61_2,2023-09-16T01:44:00.824Z,,0,,,NaN,,,,,,false,,,,266337,266337,,266337,,266364,8,400,,,
sequence,flow.Sequence,4_61,2023-09-16T01:44:00.824Z,,0,,,2439,completion,,,,,false,,,,266338,266337,263881,263874,263898,266364,8,400,,,
trial,html.Screen,4_62_0,2023-09-16T01:44:03.371Z,,0,2,,2536,response,ISIC_0981639.JPG,4,ISIC_0000459.JPG,ISIC_0000459.JPG,false,0,keypress(z),500,268885,268884,266348,266338,266364,268914,8,400,13,,ISIC_0981639.JPG
break,html.Screen,4_62_1,2023-09-16T01:44:03.373Z,,0,,,NaN,,,,,,false,,,,268887,268886,,268885,,268914,8,400,,,
break_continue,html.Screen,4_62_2,2023-09-16T01:44:03.373Z,,0,,,NaN,,,,,,false,,,,268887,268887,,268887,,268914,8,400,,,
sequence,flow.Sequence,4_62,2023-09-16T01:44:03.373Z,,0,,,2523,completion,,,,,false,,,,268887,268887,266348,266338,266364,268914,8,400,,,
trial,html.Screen,4_63_0,2023-09-16T01:44:06.785Z,,0,2,,3401,response,ISIC_1858989.JPG,9,ISIC_5961092.JPG,ISIC_5961092.JPG,false,0,keypress(z),500,272300,272299,268898,268888.00000000006,268914,272331,8,400,14,,ISIC_1858989.JPG
break,html.Screen,4_63_1,2023-09-16T01:44:06.787Z,,0,,,NaN,,,,,,false,,,,272301,272301,,272300,,272331,8,400,,,
break_continue,html.Screen,4_63_2,2023-09-16T01:44:06.787Z,,0,,,NaN,,,,,,false,,,,272301,272301,,272301,,272331,8,400,,,
sequence,flow.Sequence,4_63,2023-09-16T01:44:06.788Z,,0,,,3387,completion,,,,,false,,,,272302,272301,268898,268888.00000000006,268914,272331,8,400,,,
trial,html.Screen,4_64_0,2023-09-16T01:44:09.691Z,,0,2,,2890,response,ISIC_0073238.JPG,4,ISIC_7594601.JPG,ISIC_0073238.JPG,false,1,keypress(m),500,275206,275205,272315,272302,272331,275231,8,400,15,,ISIC_7594601.JPG
break,html.Screen,4_64_1,2023-09-16T01:44:09.693Z,,0,,,NaN,,,,,,false,,,,275207,275207,,275206,,275231,8,400,,,
break_continue,html.Screen,4_64_2,2023-09-16T01:44:09.693Z,,0,,,NaN,,,,,,false,,,,275207,275207,,275207,,275231,8,400,,,
sequence,flow.Sequence,4_64,2023-09-16T01:44:09.693Z,,0,,,2876,completion,,,,,false,,,,275208,275207,272315,272302,272331,275231,8,400,,,
trial,html.Screen,4_65_0,2023-09-16T01:44:12.363Z,,0,2,,2662,response,ISIC_6381981.JPG,9,ISIC_0001108.JPG,ISIC_0001108.JPG,false,0,keypress(z),500,277877,277877,275215,275208,275231,277915,8,400,16,,ISIC_6381981.JPG
break,html.Screen,4_65_1,2023-09-16T01:44:12.364Z,,0,,,NaN,,,,,,false,,,,277879,277878,,277878,,277915,8,400,,,
break_continue,html.Screen,4_65_2,2023-09-16T01:44:12.365Z,,0,,,NaN,,,,,,false,,,,277879,277879,,277879,,277915,8,400,,,
sequence,flow.Sequence,4_65,2023-09-16T01:44:12.365Z,,0,,,2648,completion,,,,,false,,,,277879,277879,275215,275208,275231,277915,8,400,,,
trial,html.Screen,4_66_0,2023-09-16T01:44:15.117Z,,0,2,,2733,response,ISIC_0061141.JPG,8,ISIC_0013572.JPG,ISIC_0061141.JPG,false,1,keypress(m),500,280631,280631,277898,277880,277915,280665,8,400,17,,ISIC_0013572.JPG
break,html.Screen,4_66_1,2023-09-16T01:44:15.118Z,,0,,,NaN,,,,,,false,,,,280633,280632,,280632,,280665,8,400,,,
break_continue,html.Screen,4_66_2,2023-09-16T01:44:15.119Z,,0,,,NaN,,,,,,false,,,,280633,280633,,280633,,280665,8,400,,,
sequence,flow.Sequence,4_66,2023-09-16T01:44:15.119Z,,0,,,2718,completion,,,,,false,,,,280633,280633,277898,277879,277915,280665,8,400,,,
trial,html.Screen,4_67_0,2023-09-16T01:44:18.615Z,,0,2,,3481,response,ISIC_0765585.JPG,8,ISIC_0055675.JPG,ISIC_0055675.JPG,false,0,keypress(z),500,284129,284129,280648,280633,280665,284165,8,400,18,,ISIC_0765585.JPG
break,html.Screen,4_67_1,2023-09-16T01:44:18.616Z,,0,,,NaN,,,,,,false,,,,284131,284131,,284130,,284165,8,400,,,
break_continue,html.Screen,4_67_2,2023-09-16T01:44:18.617Z,,0,,,NaN,,,,,,false,,,,284131,284131,,284131,,284165,8,400,,,
sequence,flow.Sequence,4_67,2023-09-16T01:44:18.617Z,,0,,,3466,completion,,,,,false,,,,284132,284131,280648,280633,280665,284165,8,400,,,
trial,html.Screen,4_68_0,2023-09-16T01:44:21.219Z,,0,2,,2586,response,ISIC_1071355.JPG,5,ISIC_3965872.JPG,ISIC_1071355.JPG,false,1,keypress(m),500,286734,286734,284148,284132,284165,286765,8,400,19,,ISIC_3965872.JPG
break,html.Screen,4_68_1,2023-09-16T01:44:21.221Z,,0,,,NaN,,,,,,false,,,,286735,286735,,286734,,286765,8,400,,,
break_continue,html.Screen,4_68_2,2023-09-16T01:44:21.221Z,,0,,,NaN,,,,,,false,,,,286736,286736,,286735,,286765,8,400,,,
sequence,flow.Sequence,4_68,2023-09-16T01:44:21.221Z,,0,,,2571,completion,,,,,false,,,,286736,286736,284148,284132,284165,286765,8,400,,,
trial,html.Screen,4_69_0,2023-09-16T01:44:23.820Z,,0,2,,2586,response,ISIC_1578399.JPG,2,ISIC_0060829.JPG,ISIC_0060829.JPG,false,0,keypress(z),500,289335,289334,286748,286736,286765,289365,8,400,20,,ISIC_1578399.JPG
break,html.Screen,4_69_1,2023-09-16T01:44:23.821Z,,0,,,NaN,,,,,,false,,,,289336,289336,,289335,,289365,8,400,,,
break_continue,html.Screen,4_69_2,2023-09-16T01:44:23.821Z,,0,,,NaN,,,,,,false,,,,289336,289336,,289336,,289365,8,400,,,
sequence,flow.Sequence,4_69,2023-09-16T01:44:23.822Z,,0,,,2571,completion,,,,,false,,,,289336,289336,286748,286736,286765,289365,8,400,,,
trial,html.Screen,4_70_0,2023-09-16T01:44:26.477Z,,0,2,,2643,response,ISIC_6646939.JPG,3,ISIC_6993129.JPG,ISIC_6993129.JPG,false,0,keypress(z),500,291992,291991,289348,289337,289365,292015,8,400,21,,ISIC_6646939.JPG
break,html.Screen,4_70_1,2023-09-16T01:44:26.478Z,,0,,,NaN,,,,,,false,,,,291993,291993,,291992,,292015,8,400,,,
break_continue,html.Screen,4_70_2,2023-09-16T01:44:26.479Z,,0,,,NaN,,,,,,false,,,,291994,291993,,291993,,292015,8,400,,,
sequence,flow.Sequence,4_70,2023-09-16T01:44:26.479Z,,0,,,2628,completion,,,,,false,,,,291994,291993,289348,289337,289365,292015,8,400,,,
trial,html.Screen,4_71_0,2023-09-16T01:44:29.725Z,,0,2,,3241.000000000058,response,ISIC_7702857.JPG,4,ISIC_0014181.JPG,ISIC_0014181.JPG,false,0,keypress(z),500,295240,295239.00000000006,291998,291994,292015,295265,8,400,22,,ISIC_7702857.JPG
break,html.Screen,4_71_1,2023-09-16T01:44:29.726Z,,0,,,NaN,,,,,,false,,,,295241,295241,,295240,,295265,8,400,,,
break_continue,html.Screen,4_71_2,2023-09-16T01:44:29.727Z,,0,,,NaN,,,,,,false,,,,295242,295242,,295241,,295265,8,400,,,
sequence,flow.Sequence,4_71,2023-09-16T01:44:29.727Z,,0,,,3227,completion,,,,,false,,,,295242,295242,291998,291994,292015,295265,8,400,,,
trial,html.Screen,4_72_0,2023-09-16T01:44:32.252Z,,0,2,,2519,response,ISIC_0011868.JPG,6,ISIC_5961092.JPG,ISIC_0011868.JPG,false,1,keypress(m),500,297767,297767,295248,295242,295265,297799,8,400,23,,ISIC_5961092.JPG
break,html.Screen,4_72_1,2023-09-16T01:44:32.253Z,,0,,,NaN,,,,,,false,,,,297768,297768,,297767,,297799,8,400,,,
break_continue,html.Screen,4_72_2,2023-09-16T01:44:32.254Z,,0,,,NaN,,,,,,false,,,,297769,297769,,297769,,297799,8,400,,,
sequence,flow.Sequence,4_72,2023-09-16T01:44:32.254Z,,0,,,2504,completion,,,,,false,,,,297769,297769,295248,295242,295265,297799,8,400,,,
trial,html.Screen,4_73_0,2023-09-16T01:44:34.972Z,,0,2,,2704,response,ISIC_4391909.JPG,2,ISIC_0001152.JPG,ISIC_0001152.JPG,false,0,keypress(z),500,300487,300486,297782,297769,297799,300516,8,400,24,,ISIC_4391909.JPG
break,html.Screen,4_73_1,2023-09-16T01:44:34.973Z,,0,,,NaN,,,,,,false,,,,300488,300488,,300487,,300516,8,400,,,
break_continue,html.Screen,4_73_2,2023-09-16T01:44:34.973Z,,0,,,NaN,,,,,,false,,,,300488,300488,,300488,,300516,8,400,,,
sequence,flow.Sequence,4_73,2023-09-16T01:44:34.973Z,,0,,,2689,completion,,,,,false,,,,300489.00000000006,300488,297782,297769,297799,300516,8,400,,,
trial,html.Screen,4_74_0,2023-09-16T01:44:37.645Z,,0,2,,2661,response,ISIC_0067840.JPG,0,ISIC_0028543.JPG,ISIC_0028543.JPG,false,0,keypress(z),500,303160,303160,300499,300489.00000000006,300516,303182,8,400,25,,ISIC_0067840.JPG
break,html.Screen,4_74_1,2023-09-16T01:44:37.646Z,,0,,,NaN,,,,,,false,,,,303162.00000000006,303161,,303161,,303182,8,400,,,
break_continue,html.Screen,4_74_2,2023-09-16T01:44:37.647Z,,0,,,NaN,,,,,,false,,,,303162.00000000006,303162.00000000006,,303162.00000000006,,303182,8,400,,,
sequence,flow.Sequence,4_74,2023-09-16T01:44:37.647Z,,0,,,2646.000000000058,completion,,,,,false,,,,303162.00000000006,303162.00000000006,300499,300489.00000000006,300516,303182,8,400,,,
trial,html.Screen,4_75_0,2023-09-16T01:44:40.344Z,,0,2,,2694,response,ISIC_0024735.JPG,3,ISIC_3291765.JPG,ISIC_3291765.JPG,false,0,keypress(z),500,305860,305859,303165,303162.00000000006,303182,305883,8,400,26,,ISIC_0024735.JPG
break,html.Screen,4_75_1,2023-09-16T01:44:40.345Z,,0,,,NaN,,,,,,false,,,,305861,305861,,305860,,305883,8,400,,,
break_continue,html.Screen,4_75_2,2023-09-16T01:44:40.346Z,,0,,,NaN,,,,,,false,,,,305861,305861,,305861,,305883,8,400,,,
sequence,flow.Sequence,4_75,2023-09-16T01:44:40.346Z,,0,,,2679,completion,,,,,false,,,,305861,305861,303165,303162.00000000006,303182,305883,8,400,,,
trial,html.Screen,4_76_0,2023-09-16T01:44:43.331Z,,0,2,,2981,response,ISIC_6464772.JPG,5,ISIC_3610783.JPG,ISIC_6464772.JPG,false,1,keypress(m),500,308847,308846,305865,305861,305883,308883,8,400,27,,ISIC_3610783.JPG
break,html.Screen,4_76_1,2023-09-16T01:44:43.332Z,,0,,,NaN,,,,,,false,,,,308848,308848,,308847,,308883,8,400,,,
break_continue,html.Screen,4_76_2,2023-09-16T01:44:43.333Z,,0,,,NaN,,,,,,false,,,,308848,308848,,308848,,308883,8,400,,,
sequence,flow.Sequence,4_76,2023-09-16T01:44:43.333Z,,0,,,2965,completion,,,,,false,,,,308849,308848,305865,305861,305883,308883,8,400,,,
trial,html.Screen,4_77_0,2023-09-16T01:44:46.417Z,,0,2,,3066,response,ISIC_8025644.JPG,12,ISIC_2320481.JPG,ISIC_2320481.JPG,false,0,keypress(z),500,311933,311932,308866,308849,308883,311966,8,400,28,,ISIC_8025644.JPG
break,html.Screen,4_77_1,2023-09-16T01:44:46.418Z,,0,,,NaN,,,,,,false,,,,311934,311934,,311933,,311966,8,400,,,
break_continue,html.Screen,4_77_2,2023-09-16T01:44:46.419Z,,0,,,NaN,,,,,,false,,,,311934,311934,,311934,,311966,8,400,,,
sequence,flow.Sequence,4_77,2023-09-16T01:44:46.419Z,,0,,,3051,completion,,,,,false,,,,311935,311934,308866,308849,308883,311966,8,400,,,
trial,html.Screen,4_78_0,2023-09-16T01:44:49.031Z,,0,2,,2597,response,ISIC_4735959.JPG,3,ISIC_8922355.JPG,ISIC_8922355.JPG,false,0,keypress(z),500,314547,314546,311949,311935,311966,314583,8,400,29,,ISIC_4735959.JPG
break,html.Screen,4_78_1,2023-09-16T01:44:49.033Z,,0,,,NaN,,,,,,false,,,,314549,314548,,314547,,314583,8,400,,,
break_continue,html.Screen,4_78_2,2023-09-16T01:44:49.033Z,,0,,,NaN,,,,,,false,,,,314549,314549,,314549,,314583,8,400,,,
sequence,flow.Sequence,4_78,2023-09-16T01:44:49.034Z,,0,,,2583,completion,,,,,false,,,,314549,314549,311949,311935,311966,314583,8,400,,,
trial,html.Screen,4_79_0,2023-09-16T01:44:52.055Z,,0,2,,3004,response,ISIC_3009877.JPG,6,ISIC_0067801.JPG,ISIC_3009877.JPG,false,1,keypress(m),500,317571,317570,314566,314550,314583,317600,8,400,30,,ISIC_0067801.JPG
break,html.Screen,4_79_1,2023-09-16T01:44:52.056Z,,0,,,NaN,,,,,,false,,,,317572,317571,,317571,,317600,8,400,,,
break_continue,html.Screen,4_79_2,2023-09-16T01:44:52.056Z,,0,,,NaN,,,,,,false,,,,317572,317572,,317572,,317600,8,400,,,
sequence,flow.Sequence,4_79,2023-09-16T01:44:52.057Z,,0,,,2989,completion,,,,,false,,,,317572,317572,314566,314549,314583,317600,8,400,,,
trial,html.Screen,4_80_0,2023-09-16T01:44:54.723Z,,0,2,,2656.000000000058,response,ISIC_0053542.JPG,7,ISIC_1870309.JPG,ISIC_0053542.JPG,false,1,keypress(m),500,320240,320239.00000000006,317583,317573,317600,320266,8,400,31,,ISIC_1870309.JPG
break,html.Screen,4_80_1,2023-09-16T01:44:54.725Z,,0,,,NaN,,,,,,false,,,,320241,320240,,320240,,320266,8,400,,,
break_continue,html.Screen,4_80_2,2023-09-16T01:44:54.725Z,,0,,,NaN,,,,,,false,,,,320241,320241,,320241,,320266,8,400,,,
sequence,flow.Sequence,4_80,2023-09-16T01:44:54.725Z,,0,,,2641,completion,,,,,false,,,,320241,320241,317583,317573,317600,320266,8,400,,,
trial,html.Screen,4_81_0,2023-09-16T01:44:57.631Z,,0,2,,2897,response,ISIC_0015180.JPG,5,ISIC_1601784.JPG,ISIC_0015180.JPG,false,1,keypress(m),500,323147,323146,320249,320241,320266,323183,8,400,32,,ISIC_1601784.JPG
break,html.Screen,4_81_1,2023-09-16T01:44:57.632Z,,0,,,NaN,,,,,,false,,,,323148,323148,,323147,,323183,8,400,,,
break_continue,html.Screen,4_81_2,2023-09-16T01:44:57.632Z,,0,,,NaN,,,,,,false,,,,323148,323148,,323148,,323183,8,400,,,
sequence,flow.Sequence,4_81,2023-09-16T01:44:57.632Z,,0,,,2882,completion,,,,,false,,,,323149,323148,320249,320241,320266,323183,8,400,,,
trial,html.Screen,4_82_0,2023-09-16T01:45:00.666Z,,0,2,,3014,response,ISIC_0025243.JPG,3,ISIC_5391190.JPG,ISIC_5391190.JPG,false,0,keypress(z),500,326182,326181,323167,323149,323183,326217,8,400,33,,ISIC_0025243.JPG
break,html.Screen,4_82_1,2023-09-16T01:45:00.666Z,,0,,,NaN,,,,,,false,,,,326183,326183,,326182,,326217,8,400,,,
break_continue,html.Screen,4_82_2,2023-09-16T01:45:00.667Z,,0,,,NaN,,,,,,false,,,,326183,326183,,326183,,326217,8,400,,,
sequence,flow.Sequence,4_82,2023-09-16T01:45:00.667Z,,0,,,3000,completion,,,,,false,,,,326183,326183,323167,323149,323183,326217,8,400,,,
trial,html.Screen,4_83_0,2023-09-16T01:45:03.788Z,,0,2,,3103,response,ISIC_0053796.JPG,1,ISIC_0014222.JPG,ISIC_0053796.JPG,false,1,keypress(m),500,329304.00000000006,329303,326200,326183,326217,329333,8,400,34,,ISIC_0014222.JPG
break,html.Screen,4_83_1,2023-09-16T01:45:03.789Z,,0,,,NaN,,,,,,false,,,,329305,329305,,329304.00000000006,,329333,8,400,,,
break_continue,html.Screen,4_83_2,2023-09-16T01:45:03.789Z,,0,,,NaN,,,,,,false,,,,329306,329305,,329305,,329333,8,400,,,
sequence,flow.Sequence,4_83,2023-09-16T01:45:03.789Z,,0,,,3088,completion,,,,,false,,,,329306,329305,326200,326183,326217,329333,8,400,,,
trial,html.Screen,4_84_0,2023-09-16T01:45:06.644Z,,0,2,,2843,response,ISIC_0062468.JPG,4,ISIC_0032559.JPG,ISIC_0062468.JPG,false,1,keypress(m),500,332160,332160,329317,329306,329333,332184,8,400,35,,ISIC_0032559.JPG
break,html.Screen,4_84_1,2023-09-16T01:45:06.644Z,,0,,,NaN,,,,,,false,,,,332161,332161,,332160,,332184,8,400,,,
break_continue,html.Screen,4_84_2,2023-09-16T01:45:06.645Z,,0,,,NaN,,,,,,false,,,,332161,332161,,332161,,332184,8,400,,,
sequence,flow.Sequence,4_84,2023-09-16T01:45:06.645Z,,0,,,2828,completion,,,,,false,,,,332161,332161,329317,329306,329333,332184,8,400,,,
trial,html.Screen,4_85_0,2023-09-16T01:45:09.232Z,,0,2,,2582,response,ISIC_0026911.JPG,15,ISIC_3884221.JPG,ISIC_3884221.JPG,false,0,keypress(z),500,334749,334748,332166,332162.00000000006,332184,334784,8,400,36,,ISIC_0026911.JPG
break,html.Screen,4_85_1,2023-09-16T01:45:09.233Z,,0,,,NaN,,,,,,false,,,,334750,334750,,334749,,334784,8,400,,,
break_continue,html.Screen,4_85_2,2023-09-16T01:45:09.234Z,,0,,,NaN,,,,,,false,,,,334750,334750,,334750,,334784,8,400,,,
sequence,flow.Sequence,4_85,2023-09-16T01:45:09.234Z,,0,,,2566,completion,,,,,false,,,,334750,334750,332166,332161,332184,334784,8,400,,,
trial,html.Screen,4_86_0,2023-09-16T01:45:11.877Z,,0,2,,2627,response,ISIC_0025800.JPG,8,ISIC_0024846.JPG,ISIC_0025800.JPG,false,1,keypress(m),500,337394,337394,334767,334751.00000000006,334784,337417,8,400,37,,ISIC_0024846.JPG
break,html.Screen,4_86_1,2023-09-16T01:45:11.879Z,,0,,,NaN,,,,,,false,,,,337395,337395,,337394,,337417,8,400,,,
break_continue,html.Screen,4_86_2,2023-09-16T01:45:11.879Z,,0,,,NaN,,,,,,false,,,,337396,337396,,337395,,337417,8,400,,,
sequence,flow.Sequence,4_86,2023-09-16T01:45:11.879Z,,0,,,2612,completion,,,,,false,,,,337396,337396,334767,334751.00000000006,334784,337417,8,400,,,
trial,html.Screen,4_87_0,2023-09-16T01:45:14.459Z,,0,2,,2575,response,ISIC_0034268.JPG,7,ISIC_7518798.JPG,ISIC_7518798.JPG,false,0,keypress(z),500,339975,339975,337400,337396,337417,340000,8,400,38,,ISIC_0034268.JPG
break,html.Screen,4_87_1,2023-09-16T01:45:14.460Z,,0,,,NaN,,,,,,false,,,,339977.00000000006,339976,,339976,,340000,8,400,,,
break_continue,html.Screen,4_87_2,2023-09-16T01:45:14.460Z,,0,,,NaN,,,,,,false,,,,339977.00000000006,339977.00000000006,,339977.00000000006,,340000,8,400,,,
sequence,flow.Sequence,4_87,2023-09-16T01:45:14.460Z,,0,,,2560.000000000058,completion,,,,,false,,,,339977.00000000006,339977.00000000006,337400,337396,337417,340000,8,400,,,
trial,html.Screen,4_88_0,2023-09-16T01:45:17.468Z,,0,2,,3001,response,ISIC_9407667.JPG,6,ISIC_1924949.JPG,ISIC_9407667.JPG,false,1,keypress(m),500,342985,342985,339984,339977.00000000006,340000,343017,8,400,39,,ISIC_1924949.JPG
break,html.Screen,4_88_1,2023-09-16T01:45:17.469Z,,0,,,NaN,,,,,,false,,,,342986,342986,,342986,,343017,8,400,,,
break_continue,html.Screen,4_88_2,2023-09-16T01:45:17.470Z,,0,,,NaN,,,,,,false,,,,342987,342987,,342987,,343017,8,400,,,
sequence,flow.Sequence,4_88,2023-09-16T01:45:17.470Z,,0,,,2987,completion,,,,,false,,,,342987,342987,339984,339977.00000000006,340000,343017,8,400,,,
trial,html.Screen,4_89_0,2023-09-16T01:45:20.110Z,,0,2,,2627,response,ISIC_9069800.JPG,4,ISIC_0062204.JPG,ISIC_0062204.JPG,false,0,keypress(z),500,345627,345627,343000,342987,343017,345651,8,400,40,,ISIC_9069800.JPG
break,html.Screen,4_89_1,2023-09-16T01:45:20.112Z,,0,,,NaN,,,,,,false,,,,345629,345628,,345628,,345651,8,400,,,
break_continue,html.Screen,4_89_2,2023-09-16T01:45:20.112Z,,0,,,NaN,,,,,,false,,,,345629,345629,,345629,,345651,8,400,,,
sequence,flow.Sequence,4_89,2023-09-16T01:45:20.112Z,,0,,,2612,completion,,,,,false,,,,345629,345629,343000,342987,343017,345651,8,400,,,
trial,html.Screen,4_90_0,2023-09-16T01:45:22.877Z,,0,2,,2760,response,ISIC_0067418.JPG,5,ISIC_0028484.JPG,ISIC_0067418.JPG,false,1,keypress(m),500,348395,348394,345634,345629,345651,348418,8,400,41,,ISIC_0028484.JPG
break,html.Screen,4_90_1,2023-09-16T01:45:22.879Z,,0,,,NaN,,,,,,false,,,,348396,348396,,348395,,348418,8,400,,,
break_continue,html.Screen,4_90_2,2023-09-16T01:45:22.879Z,,0,,,NaN,,,,,,false,,,,348396,348396,,348396,,348418,8,400,,,
sequence,flow.Sequence,4_90,2023-09-16T01:45:22.879Z,,0,,,2745,completion,,,,,false,,,,348396,348396,345634,345629,345651,348418,8,400,,,
trial,html.Screen,4_91_0,2023-09-16T01:45:25.415Z,,0,2,,2532,response,ISIC_0030704.JPG,4,ISIC_6759173.JPG,ISIC_6759173.JPG,false,0,keypress(z),500,350933,350932,348400,348397,348418,350968,8,400,42,,ISIC_0030704.JPG
break,html.Screen,4_91_1,2023-09-16T01:45:25.417Z,,0,,,NaN,,,,,,false,,,,350934,350934,,350933,,350968,8,400,,,
break_continue,html.Screen,4_91_2,2023-09-16T01:45:25.417Z,,0,,,NaN,,,,,,false,,,,350934,350934,,350934,,350968,8,400,,,
sequence,flow.Sequence,4_91,2023-09-16T01:45:25.417Z,,0,,,2516,completion,,,,,false,,,,350935,350934,348400,348396,348418,350968,8,400,,,
trial,html.Screen,4_92_0,2023-09-16T01:45:28.040Z,,0,2,,2606,response,ISIC_0011798.JPG,0,ISIC_8590883.JPG,ISIC_8590883.JPG,false,0,keypress(z),500,353557,353557,350951,350935,350968,353584,8,400,43,,ISIC_0011798.JPG
break,html.Screen,4_92_1,2023-09-16T01:45:28.041Z,,0,,,NaN,,,,,,false,,,,353558,353558,,353558,,353584,8,400,,,
break_continue,html.Screen,4_92_2,2023-09-16T01:45:28.041Z,,0,,,NaN,,,,,,false,,,,353559,353559,,353559,,353584,8,400,,,
sequence,flow.Sequence,4_92,2023-09-16T01:45:28.042Z,,0,,,2591,completion,,,,,false,,,,353559,353559,350951,350935,350968,353584,8,400,,,
trial,html.Screen,4_93_0,2023-09-16T01:45:30.753Z,,0,2,,2701,response,ISIC_9406755.JPG,7,ISIC_5955057.JPG,ISIC_9406755.JPG,false,1,keypress(m),500,356270,356269,353568,353559,353584,356301,8,400,44,,ISIC_5955057.JPG
break,html.Screen,4_93_1,2023-09-16T01:45:30.754Z,,0,,,NaN,,,,,,false,,,,356271,356271,,356270,,356301,8,400,,,
break_continue,html.Screen,4_93_2,2023-09-16T01:45:30.754Z,,0,,,NaN,,,,,,false,,,,356272,356271,,356271,,356301,8,400,,,
sequence,flow.Sequence,4_93,2023-09-16T01:45:30.754Z,,0,,,2687,completion,,,,,false,,,,356272,356271,353568,353559,353584,356301,8,400,,,
trial,html.Screen,4_94_0,2023-09-16T01:45:33.551Z,,0,2,,2784,response,ISIC_1327515.JPG,6,ISIC_0024321.JPG,ISIC_1327515.JPG,false,1,keypress(m),500,359069,359068,356284,356272,356301,359101,8,400,45,,ISIC_0024321.JPG
break,html.Screen,4_94_1,2023-09-16T01:45:33.552Z,,0,,,NaN,,,,,,false,,,,359070,359070,,359069,,359101,8,400,,,
break_continue,html.Screen,4_94_2,2023-09-16T01:45:33.553Z,,0,,,NaN,,,,,,false,,,,359070,359070,,359070,,359101,8,400,,,
sequence,flow.Sequence,4_94,2023-09-16T01:45:33.553Z,,0,,,2769,completion,,,,,false,,,,359071,359070,356284,356272,356301,359101,8,400,,,
trial,html.Screen,4_95_0,2023-09-16T01:45:36.874Z,,0,2,,3307,response,ISIC_0056247.JPG,5,ISIC_0025218.JPG,ISIC_0056247.JPG,false,1,keypress(m),500,362391,362391,359084,359071,359101,362418,8,400,46,,ISIC_0025218.JPG
break,html.Screen,4_95_1,2023-09-16T01:45:36.875Z,,0,,,NaN,,,,,,false,,,,362393,362392,,362392,,362418,8,400,,,
break_continue,html.Screen,4_95_2,2023-09-16T01:45:36.876Z,,0,,,NaN,,,,,,false,,,,362393,362393,,362393,,362418,8,400,,,
sequence,flow.Sequence,4_95,2023-09-16T01:45:36.876Z,,0,,,3292,completion,,,,,false,,,,362394,362393,359084,359071,359101,362418,8,400,,,
trial,html.Screen,4_96_0,2023-09-16T01:45:40.376Z,,0,2,,3492,response,ISIC_3923443.JPG,10,ISIC_0054885.JPG,ISIC_3923443.JPG,false,1,keypress(m),500,365894,365893,362401,362394,362418,365918,8,400,47,,ISIC_0054885.JPG
break,html.Screen,4_96_1,2023-09-16T01:45:40.377Z,,0,,,NaN,,,,,,false,,,,365895,365895,,365894,,365918,8,400,,,
break_continue,html.Screen,4_96_2,2023-09-16T01:45:40.378Z,,0,,,NaN,,,,,,false,,,,365896,365895,,365895,,365918,8,400,,,
sequence,flow.Sequence,4_96,2023-09-16T01:45:40.378Z,,0,,,3477,completion,,,,,false,,,,365896,365895,362401,362394,362418,365918,8,400,,,
trial,html.Screen,4_97_0,2023-09-16T01:45:43.139Z,,0,2,,2755,response,ISIC_0027712.JPG,6,ISIC_4950467.JPG,ISIC_4950467.JPG,false,0,keypress(z),500,368657,368656,365901,365896,365918,368684,8,400,48,,ISIC_0027712.JPG
break,html.Screen,4_97_1,2023-09-16T01:45:43.141Z,,0,,,NaN,,,,,,false,,,,368659,368658,,368657,,368684,8,400,,,
break_continue,html.Screen,4_97_2,2023-09-16T01:45:43.141Z,,0,,,NaN,,,,,,false,,,,368659,368659,,368659,,368684,8,400,,,
sequence,flow.Sequence,4_97,2023-09-16T01:45:43.141Z,,0,,,2741,completion,,,,,false,,,,368659,368659,365901,365896,365918,368684,8,400,,,
trial,html.Screen,4_98_0,2023-09-16T01:45:45.687Z,,0,2,,2537,response,ISIC_5823859.JPG,11,ISIC_4591316.JPG,ISIC_5823859.JPG,false,1,keypress(m),500,371205,371205,368668,368660,368684,371235,8,400,49,,ISIC_4591316.JPG
break,html.Screen,4_98_1,2023-09-16T01:45:45.688Z,,0,,,NaN,,,,,,false,,,,371206,371206,,371205,,371235,8,400,,,
break_continue,html.Screen,4_98_2,2023-09-16T01:45:45.688Z,,0,,,NaN,,,,,,false,,,,371207,371206,,371206,,371235,8,400,,,
sequence,flow.Sequence,4_98,2023-09-16T01:45:45.689Z,,0,,,2522,completion,,,,,false,,,,371207,371206,368668,368660,368684,371235,8,400,,,
trial,html.Screen,4_99_0,2023-09-16T01:45:48.437Z,,0,2,,2736,response,ISIC_5503634.JPG,0,ISIC_5651106.JPG,ISIC_5651106.JPG,false,0,keypress(z),500,373955,373954,371218,371207,371235,373985,8,400,50,,ISIC_5503634.JPG
break,html.Screen,4_99_1,2023-09-16T01:45:58.451Z,,0,,,10000,timeout,,,,,false,,,,383970,383969,373968,373955,373985,383985,8,400,,,
break_continue,html.Screen,4_99_2,2023-09-16T02:42:54.037Z,,0,,,3010085,response,,,,,false,continue,keypress(Space),,3393982,3394054,383969,383970,383985,3394009,8,400,,,
sequence,flow.Sequence,4_99,2023-09-16T02:42:54.038Z,,0,,,3022819,completion,,,,,false,,,,3393983,3394054,371218,371207,371235,3394009,8,400,,,
trial,html.Screen,4_100_0,2023-09-16T02:42:58.294Z,,0,3,,4247,response,ISIC_0030666.JPG,6,ISIC_0806303.JPG,ISIC_0806303.JPG,false,0,keypress(z),500,3398240.0000000005,3398239,3393992,3393983,3394009,3398276,8,400,1,,ISIC_0030666.JPG
break,html.Screen,4_100_1,2023-09-16T02:42:58.297Z,,0,,,NaN,,,,,,false,,,,3398243,3398242,,3398241,,3398276,8,400,,,
break_continue,html.Screen,4_100_2,2023-09-16T02:42:58.298Z,,0,,,NaN,,,,,,false,,,,3398244,3398243,,3398243,,3398276,8,400,,,
sequence,flow.Sequence,4_100,2023-09-16T02:42:58.299Z,,0,,,4234,completion,,,,,false,,,,3398244,3398243,3393992,3393983,3394009,3398276,8,400,,,
trial,html.Screen,4_101_0,2023-09-16T02:43:01.261Z,,0,3,,2947,response,ISIC_0475506.JPG,7,ISIC_5573566.JPG,ISIC_0475506.JPG,false,1,keypress(m),500,3401207,3401206,3398259,3398245,3398276,3401242,8,400,2,,ISIC_5573566.JPG
break,html.Screen,4_101_1,2023-09-16T02:43:01.263Z,,0,,,NaN,,,,,,false,,,,3401209.0000000005,3401208,,3401207,,3401242,8,400,,,
break_continue,html.Screen,4_101_2,2023-09-16T02:43:01.264Z,,0,,,NaN,,,,,,false,,,,3401210,3401209.0000000005,,3401209.0000000005,,3401242,8,400,,,
sequence,flow.Sequence,4_101,2023-09-16T02:43:01.264Z,,0,,,2933.0000000004657,completion,,,,,false,,,,3401210,3401209.0000000005,3398259,3398245,3398276,3401242,8,400,,,
trial,html.Screen,4_102_0,2023-09-16T02:43:04.070Z,,0,3,,2788,response,ISIC_0011428.JPG,9,ISIC_0025589.JPG,ISIC_0011428.JPG,false,1,keypress(m),500,3404015,3404014,3401226,3401210,3401242,3404042,8,400,3,,ISIC_0025589.JPG
break,html.Screen,4_102_1,2023-09-16T02:43:04.071Z,,0,,,NaN,,,,,,false,,,,3404017.0000000005,3404017.0000000005,,3404016,,3404042,8,400,,,
break_continue,html.Screen,4_102_2,2023-09-16T02:43:04.072Z,,0,,,NaN,,,,,,false,,,,3404018,3404018,,3404018,,3404042,8,400,,,
sequence,flow.Sequence,4_102,2023-09-16T02:43:04.073Z,,0,,,2776,completion,,,,,false,,,,3404019,3404018,3401226,3401210,3401242,3404042,8,400,,,
trial,html.Screen,4_103_0,2023-09-16T02:43:07.020Z,,0,3,,2939,response,ISIC_0066101.JPG,6,ISIC_5607452.JPG,ISIC_5607452.JPG,false,0,keypress(z),500,3406966,3406965,3404026,3404019,3404042,3406993,8,400,4,,ISIC_0066101.JPG
break,html.Screen,4_103_1,2023-09-16T02:43:07.022Z,,0,,,NaN,,,,,,false,,,,3406968,3406967,,3406967,,3406993,8,400,,,
break_continue,html.Screen,4_103_2,2023-09-16T02:43:07.022Z,,0,,,NaN,,,,,,false,,,,3406968,3406968,,3406968,,3406993,8,400,,,
sequence,flow.Sequence,4_103,2023-09-16T02:43:07.023Z,,0,,,2926,completion,,,,,false,,,,3406969,3406968,3404026,3404019,3404042,3406993,8,400,,,
trial,html.Screen,4_104_0,2023-09-16T02:43:09.947Z,,0,3,,2916.0000000004657,response,ISIC_0025418.JPG,10,ISIC_0027076.JPG,ISIC_0025418.JPG,false,1,keypress(m),500,3409894,3409892.0000000005,3406976,3406969,3406993,3409926,8,400,5,,ISIC_0027076.JPG
break,html.Screen,4_104_1,2023-09-16T02:43:09.949Z,,0,,,NaN,,,,,,false,,,,3409895,3409895,,3409894,,3409926,8,400,,,
break_continue,html.Screen,4_104_2,2023-09-16T02:43:09.950Z,,0,,,NaN,,,,,,false,,,,3409896,3409896,,3409895,,3409926,8,400,,,
sequence,flow.Sequence,4_104,2023-09-16T02:43:09.950Z,,0,,,2903,completion,,,,,false,,,,3409896,3409896,3406976,3406969,3406993,3409926,8,400,,,
trial,html.Screen,4_105_0,2023-09-16T02:43:12.586Z,,0,3,,2622,response,ISIC_6899527.JPG,4,ISIC_3963183.JPG,ISIC_6899527.JPG,false,1,keypress(m),500,3412532,3412531,3409909,3409897,3409926,3412559,8,400,6,,ISIC_3963183.JPG
break,html.Screen,4_105_1,2023-09-16T02:43:12.587Z,,0,,,NaN,,,,,,false,,,,3412534,3412533,,3412532,,3412559,8,400,,,
break_continue,html.Screen,4_105_2,2023-09-16T02:43:12.588Z,,0,,,NaN,,,,,,false,,,,3412534,3412534,,3412534,,3412559,8,400,,,
sequence,flow.Sequence,4_105,2023-09-16T02:43:12.588Z,,0,,,2608,completion,,,,,false,,,,3412535,3412534,3409909,3409896,3409926,3412559,8,400,,,
trial,html.Screen,4_106_0,2023-09-16T02:43:15.414Z,,0,3,,2817,response,ISIC_0315631.JPG,3,ISIC_0006181.JPG,ISIC_0315631.JPG,false,1,keypress(m),500,3415360,3415359,3412542,3412535,3412559,3415393,8,400,7,,ISIC_0006181.JPG
break,html.Screen,4_106_1,2023-09-16T02:43:15.415Z,,0,,,NaN,,,,,,false,,,,3415362,3415361,,3415361,,3415393,8,400,,,
break_continue,html.Screen,4_106_2,2023-09-16T02:43:15.416Z,,0,,,NaN,,,,,,false,,,,3415363.0000000005,3415362,,3415362,,3415393,8,400,,,
sequence,flow.Sequence,4_106,2023-09-16T02:43:15.417Z,,0,,,2803,completion,,,,,false,,,,3415363.0000000005,3415362,3412542,3412535,3412559,3415393,8,400,,,
trial,html.Screen,4_107_0,2023-09-16T02:43:18.386Z,,0,3,,2955,response,ISIC_0057406.JPG,3,ISIC_7919133.JPG,ISIC_7919133.JPG,false,0,keypress(z),500,3418332,3418331,3415376,3415363.0000000005,3415393,3418360,8,400,8,,ISIC_0057406.JPG
break,html.Screen,4_107_1,2023-09-16T02:43:18.388Z,,0,,,NaN,,,,,,false,,,,3418334.0000000005,3418334.0000000005,,3418333,,3418360,8,400,,,
break_continue,html.Screen,4_107_2,2023-09-16T02:43:18.388Z,,0,,,NaN,,,,,,false,,,,3418335,3418335,,3418334.0000000005,,3418360,8,400,,,
sequence,flow.Sequence,4_107,2023-09-16T02:43:18.389Z,,0,,,2942,completion,,,,,false,,,,3418335,3418335,3415376,3415363.0000000005,3415393,3418360,8,400,,,
trial,html.Screen,4_108_0,2023-09-16T02:43:21.263Z,,0,3,,2866,response,ISIC_5737704.JPG,4,ISIC_1507583.JPG,ISIC_5737704.JPG,false,1,keypress(m),500,3421209.0000000005,3421208,3418342,3418336.0000000005,3418360,3421242,8,400,9,,ISIC_1507583.JPG
break,html.Screen,4_108_1,2023-09-16T02:43:21.265Z,,0,,,NaN,,,,,,false,,,,3421211.0000000005,3421211.0000000005,,3421210,,3421242,8,400,,,
break_continue,html.Screen,4_108_2,2023-09-16T02:43:21.266Z,,0,,,NaN,,,,,,false,,,,3421212,3421212,,3421212,,3421242,8,400,,,
sequence,flow.Sequence,4_108,2023-09-16T02:43:21.266Z,,0,,,2852,completion,,,,,false,,,,3421212,3421212,3418342,3418336.0000000005,3418360,3421242,8,400,,,
trial,html.Screen,4_109_0,2023-09-16T02:43:23.828Z,,0,3,,2547,response,ISIC_1495793.JPG,0,ISIC_2808622.JPG,ISIC_1495793.JPG,false,1,keypress(m),500,3423775,3423774,3421227,3421213,3421242,3423810,8,400,10,,ISIC_2808622.JPG
break,html.Screen,4_109_1,2023-09-16T02:43:23.830Z,,0,,,NaN,,,,,,false,,,,3423776.0000000005,3423776.0000000005,,3423775,,3423810,8,400,,,
break_continue,html.Screen,4_109_2,2023-09-16T02:43:23.830Z,,0,,,NaN,,,,,,false,,,,3423777,3423777,,3423777,,3423810,8,400,,,
sequence,flow.Sequence,4_109,2023-09-16T02:43:23.831Z,,0,,,2535,completion,,,,,false,,,,3423778.0000000005,3423777,3421227,3421213,3421242,3423810,8,400,,,
trial,html.Screen,4_110_0,2023-09-16T02:43:26.472Z,,0,3,,2625,response,ISIC_0011894.JPG,8,ISIC_2023592.JPG,ISIC_0011894.JPG,false,1,keypress(m),500,3426419,3426418,3423793,3423778.0000000005,3423810,3426443,8,400,11,,ISIC_2023592.JPG
break,html.Screen,4_110_1,2023-09-16T02:43:26.474Z,,0,,,NaN,,,,,,false,,,,3426421.0000000005,3426420,,3426419,,3426443,8,400,,,
break_continue,html.Screen,4_110_2,2023-09-16T02:43:26.475Z,,0,,,NaN,,,,,,false,,,,3426421.0000000005,3426421.0000000005,,3426421.0000000005,,3426443,8,400,,,
sequence,flow.Sequence,4_110,2023-09-16T02:43:26.475Z,,0,,,2611.0000000004657,completion,,,,,false,,,,3426422,3426421.0000000005,3423793,3423778.0000000005,3423810,3426443,8,400,,,
trial,html.Screen,4_111_0,2023-09-16T02:43:29.076Z,,0,3,,2596,response,ISIC_1883330.JPG,2,ISIC_9542544.JPG,ISIC_1883330.JPG,false,1,keypress(m),500,3429023,3429022,3426426,3426422,3426443,3429060,8,400,12,,ISIC_9542544.JPG
break,html.Screen,4_111_1,2023-09-16T02:43:29.078Z,,0,,,NaN,,,,,,false,,,,3429024,3429024,,3429023,,3429060,8,400,,,
break_continue,html.Screen,4_111_2,2023-09-16T02:43:29.078Z,,0,,,NaN,,,,,,false,,,,3429025,3429025,,3429025,,3429060,8,400,,,
sequence,flow.Sequence,4_111,2023-09-16T02:43:29.078Z,,0,,,2582,completion,,,,,false,,,,3429025,3429025,3426426,3426422,3426443,3429060,8,400,,,
trial,html.Screen,4_112_0,2023-09-16T02:43:31.872Z,,0,3,,2774,response,ISIC_6398669.JPG,12,ISIC_0009886.JPG,ISIC_0009886.JPG,false,0,keypress(z),500,3431819,3431818,3429044,3429026.0000000005,3429060,3431844,8,400,13,,ISIC_6398669.JPG
break,html.Screen,4_112_1,2023-09-16T02:43:31.873Z,,0,,,NaN,,,,,,false,,,,3431820,3431820,,3431819,,3431844,8,400,,,
break_continue,html.Screen,4_112_2,2023-09-16T02:43:31.873Z,,0,,,NaN,,,,,,false,,,,3431820,3431820,,3431820,,3431844,8,400,,,
sequence,flow.Sequence,4_112,2023-09-16T02:43:31.874Z,,0,,,2760,completion,,,,,false,,,,3431821,3431820,3429044,3429026.0000000005,3429060,3431844,8,400,,,
trial,html.Screen,4_113_0,2023-09-16T02:43:34.882Z,,0,3,,3001,response,ISIC_0031621.JPG,8,ISIC_0067891.JPG,ISIC_0031621.JPG,false,1,keypress(m),500,3434829,3434828,3431827,3431821,3431844,3434860,8,400,14,,ISIC_0067891.JPG
break,html.Screen,4_113_1,2023-09-16T02:43:34.883Z,,0,,,NaN,,,,,,false,,,,3434830,3434830,,3434829,,3434860,8,400,,,
break_continue,html.Screen,4_113_2,2023-09-16T02:43:34.883Z,,0,,,NaN,,,,,,false,,,,3434831,3434830,,3434830,,3434860,8,400,,,
sequence,flow.Sequence,4_113,2023-09-16T02:43:34.884Z,,0,,,2986,completion,,,,,false,,,,3434831,3434830,3431827,3431821,3431844,3434860,8,400,,,
trial,html.Screen,4_114_0,2023-09-16T02:43:37.505Z,,0,3,,2607,response,ISIC_5789052.JPG,6,ISIC_0033546.JPG,ISIC_5789052.JPG,false,1,keypress(m),500,3437452,3437451,3434844,3434831,3434860,3437477,8,400,15,,ISIC_0033546.JPG
break,html.Screen,4_114_1,2023-09-16T02:43:37.506Z,,0,,,NaN,,,,,,false,,,,3437453,3437453,,3437452,,3437477,8,400,,,
break_continue,html.Screen,4_114_2,2023-09-16T02:43:37.507Z,,0,,,NaN,,,,,,false,,,,3437454,3437454,,3437454,,3437477,8,400,,,
sequence,flow.Sequence,4_114,2023-09-16T02:43:37.507Z,,0,,,2594,completion,,,,,false,,,,3437454,3437454,3434844,3434831,3434860,3437477,8,400,,,
trial,html.Screen,4_115_0,2023-09-16T02:43:40.212Z,,0,3,,2699,response,ISIC_2498064.JPG,5,ISIC_0011797.JPG,ISIC_2498064.JPG,false,1,keypress(m),500,3440159,3440159,3437460,3437454,3437477,3440194,8,400,16,,ISIC_0011797.JPG
break,html.Screen,4_115_1,2023-09-16T02:43:40.213Z,,0,,,NaN,,,,,,false,,,,3440161,3440160,,3440160,,3440194,8,400,,,
break_continue,html.Screen,4_115_2,2023-09-16T02:43:40.214Z,,0,,,NaN,,,,,,false,,,,3440161,3440161,,3440161,,3440194,8,400,,,
sequence,flow.Sequence,4_115,2023-09-16T02:43:40.214Z,,0,,,2684,completion,,,,,false,,,,3440162.0000000005,3440161,3437460,3437454,3437477,3440194,8,400,,,
trial,html.Screen,4_116_0,2023-09-16T02:43:42.920Z,,0,3,,2690,response,ISIC_0010521.JPG,7,ISIC_6208107.JPG,ISIC_6208107.JPG,false,0,keypress(z),500,3442868,3442867,3440177,3440162.0000000005,3440194,3442893,8,400,17,,ISIC_0010521.JPG
break,html.Screen,4_116_1,2023-09-16T02:43:42.922Z,,0,,,NaN,,,,,,false,,,,3442869,3442869,,3442868,,3442893,8,400,,,
break_continue,html.Screen,4_116_2,2023-09-16T02:43:42.922Z,,0,,,NaN,,,,,,false,,,,3442869,3442869,,3442869,,3442893,8,400,,,
sequence,flow.Sequence,4_116,2023-09-16T02:43:42.922Z,,0,,,2675,completion,,,,,false,,,,3442870,3442869,3440177,3440162.0000000005,3440194,3442893,8,400,,,
trial,html.Screen,4_117_0,2023-09-16T02:43:45.820Z,,0,3,,2890.0000000004657,response,ISIC_0013079.JPG,0,ISIC_0024512.JPG,ISIC_0013079.JPG,false,1,keypress(m),500,3445767.0000000005,3445767.0000000005,3442877,3442870,3442893,3445794,8,400,18,,ISIC_0024512.JPG
break,html.Screen,4_117_1,2023-09-16T02:43:45.822Z,,0,,,NaN,,,,,,false,,,,3445769,3445769,,3445768,,3445794,8,400,,,
break_continue,html.Screen,4_117_2,2023-09-16T02:43:45.822Z,,0,,,NaN,,,,,,false,,,,3445770,3445769,,3445769,,3445794,8,400,,,
sequence,flow.Sequence,4_117,2023-09-16T02:43:45.822Z,,0,,,2876,completion,,,,,false,,,,3445770,3445769,3442877,3442870,3442893,3445794,8,400,,,
trial,html.Screen,4_118_0,2023-09-16T02:43:48.484Z,,0,3,,2654,response,ISIC_5156491.JPG,3,ISIC_0055797.JPG,ISIC_5156491.JPG,false,1,keypress(m),500,3448432.0000000005,3448431,3445777,3445770,3445794,3448461,8,400,19,,ISIC_0055797.JPG
break,html.Screen,4_118_1,2023-09-16T02:43:48.486Z,,0,,,NaN,,,,,,false,,,,3448433,3448433,,3448432.0000000005,,3448461,8,400,,,
break_continue,html.Screen,4_118_2,2023-09-16T02:43:48.486Z,,0,,,NaN,,,,,,false,,,,3448434,3448433,,3448433,,3448461,8,400,,,
sequence,flow.Sequence,4_118,2023-09-16T02:43:48.486Z,,0,,,2639,completion,,,,,false,,,,3448434,3448433,3445777,3445770,3445794,3448461,8,400,,,
trial,html.Screen,4_119_0,2023-09-16T02:43:51.543Z,,0,3,,3047,response,ISIC_9203812.JPG,2,ISIC_8693637.JPG,ISIC_8693637.JPG,false,0,keypress(z),500,3451491,3451491,3448444,3448434,3448461,3451528,8,400,20,,ISIC_9203812.JPG
break,html.Screen,4_119_1,2023-09-16T02:43:51.545Z,,0,,,NaN,,,,,,false,,,,3451493,3451492,,3451492,,3451528,8,400,,,
break_continue,html.Screen,4_119_2,2023-09-16T02:43:51.545Z,,0,,,NaN,,,,,,false,,,,3451493,3451493,,3451493,,3451528,8,400,,,
sequence,flow.Sequence,4_119,2023-09-16T02:43:51.546Z,,0,,,3032,completion,,,,,false,,,,3451494,3451493,3448444,3448434,3448461,3451528,8,400,,,
trial,html.Screen,4_120_0,2023-09-16T02:43:54.180Z,,0,3,,2616,response,ISIC_4425766.JPG,7,ISIC_5823292.JPG,ISIC_5823292.JPG,false,0,keypress(z),500,3454128,3454127,3451511,3451494,3451528,3454161,8,400,21,,ISIC_4425766.JPG
break,html.Screen,4_120_1,2023-09-16T02:43:54.181Z,,0,,,NaN,,,,,,false,,,,3454129,3454129,,3454128,,3454161,8,400,,,
break_continue,html.Screen,4_120_2,2023-09-16T02:43:54.182Z,,0,,,NaN,,,,,,false,,,,3454129,3454129,,3454129,,3454161,8,400,,,
sequence,flow.Sequence,4_120,2023-09-16T02:43:54.182Z,,0,,,2601,completion,,,,,false,,,,3454130,3454129,3451511,3451494,3451528,3454161,8,400,,,
trial,html.Screen,4_121_0,2023-09-16T02:43:56.887Z,,0,3,,2689.0000000004657,response,ISIC_8077943.JPG,9,ISIC_0060659.JPG,ISIC_8077943.JPG,false,1,keypress(m),500,3456835,3456834.0000000005,3454145,3454130,3454161,3456861,8,400,22,,ISIC_0060659.JPG
break,html.Screen,4_121_1,2023-09-16T02:43:56.888Z,,0,,,NaN,,,,,,false,,,,3456836.0000000005,3456836.0000000005,,3456835,,3456861,8,400,,,
break_continue,html.Screen,4_121_2,2023-09-16T02:43:56.889Z,,0,,,NaN,,,,,,false,,,,3456837,3456837,,3456837,,3456861,8,400,,,
sequence,flow.Sequence,4_121,2023-09-16T02:43:56.889Z,,0,,,2676,completion,,,,,false,,,,3456837,3456837,3454145,3454130,3454161,3456861,8,400,,,
trial,html.Screen,4_122_0,2023-09-16T02:43:59.538Z,,0,3,,2641,response,ISIC_3026660.JPG,6,ISIC_1874480.JPG,ISIC_3026660.JPG,false,1,keypress(m),500,3459486,3459485,3456844,3456837,3456861,3459511,8,400,23,,ISIC_1874480.JPG
break,html.Screen,4_122_1,2023-09-16T02:43:59.539Z,,0,,,NaN,,,,,,false,,,,3459487,3459487,,3459486,,3459511,8,400,,,
break_continue,html.Screen,4_122_2,2023-09-16T02:43:59.540Z,,0,,,NaN,,,,,,false,,,,3459488.0000000005,3459488.0000000005,,3459488.0000000005,,3459511,8,400,,,
sequence,flow.Sequence,4_122,2023-09-16T02:43:59.540Z,,0,,,2627.0000000004657,completion,,,,,false,,,,3459488.0000000005,3459488.0000000005,3456844,3456837,3456861,3459511,8,400,,,
trial,html.Screen,4_123_0,2023-09-16T02:44:02.108Z,,0,3,,2562,response,ISIC_2750230.JPG,7,ISIC_6712342.JPG,ISIC_2750230.JPG,false,1,keypress(m),500,3462057.0000000005,3462056,3459494,3459488.0000000005,3459511,3462095,8,400,24,,ISIC_6712342.JPG
break,html.Screen,4_123_1,2023-09-16T02:44:02.110Z,,0,,,NaN,,,,,,false,,,,3462058,3462058,,3462057.0000000005,,3462095,8,400,,,
break_continue,html.Screen,4_123_2,2023-09-16T02:44:02.110Z,,0,,,NaN,,,,,,false,,,,3462058,3462058,,3462058,,3462095,8,400,,,
sequence,flow.Sequence,4_123,2023-09-16T02:44:02.111Z,,0,,,2547,completion,,,,,false,,,,3462059,3462058,3459494,3459488.0000000005,3459511,3462095,8,400,,,
trial,html.Screen,4_124_0,2023-09-16T02:44:04.782Z,,0,3,,2652,response,ISIC_0025812.JPG,8,ISIC_0070951.JPG,ISIC_0025812.JPG,false,1,keypress(m),500,3464731,3464730,3462078,3462059,3462095,3464762,8,400,25,,ISIC_0070951.JPG
break,html.Screen,4_124_1,2023-09-16T02:44:04.783Z,,0,,,NaN,,,,,,false,,,,3464732,3464731,,3464731,,3464762,8,400,,,
break_continue,html.Screen,4_124_2,2023-09-16T02:44:04.784Z,,0,,,NaN,,,,,,false,,,,3464732,3464732,,3464732,,3464762,8,400,,,
sequence,flow.Sequence,4_124,2023-09-16T02:44:04.785Z,,0,,,2637,completion,,,,,false,,,,3464733,3464732,3462078,3462059,3462095,3464762,8,400,,,
trial,html.Screen,4_125_0,2023-09-16T02:44:07.407Z,,0,3,,2609.0000000004657,response,ISIC_0008864.JPG,5,ISIC_0010767.JPG,ISIC_0008864.JPG,false,1,keypress(m),500,3467355,3467354.0000000005,3464745,3464733,3464762,3467378,8,400,26,,ISIC_0010767.JPG
break,html.Screen,4_125_1,2023-09-16T02:44:07.409Z,,0,,,NaN,,,,,,false,,,,3467357,3467356,,3467356,,3467378,8,400,,,
break_continue,html.Screen,4_125_2,2023-09-16T02:44:07.409Z,,0,,,NaN,,,,,,false,,,,3467357,3467357,,3467357,,3467378,8,400,,,
sequence,flow.Sequence,4_125,2023-09-16T02:44:07.409Z,,0,,,2595,completion,,,,,false,,,,3467358,3467357,3464745,3464733,3464762,3467378,8,400,,,
trial,html.Screen,4_126_0,2023-09-16T02:44:10.130Z,,0,3,,2717,response,ISIC_0031248.JPG,6,ISIC_0028508.JPG,ISIC_0028508.JPG,false,0,keypress(z),500,3470079,3470078,3467361,3467358,3467378,3470111,8,400,27,,ISIC_0031248.JPG
break,html.Screen,4_126_1,2023-09-16T02:44:10.131Z,,0,,,NaN,,,,,,false,,,,3470080,3470080,,3470079,,3470111,8,400,,,
break_continue,html.Screen,4_126_2,2023-09-16T02:44:10.132Z,,0,,,NaN,,,,,,false,,,,3470080,3470080,,3470080,,3470111,8,400,,,
sequence,flow.Sequence,4_126,2023-09-16T02:44:10.132Z,,0,,,2702,completion,,,,,false,,,,3470081,3470080,3467361,3467358,3467378,3470111,8,400,,,
trial,html.Screen,4_127_0,2023-09-16T02:44:12.709Z,,0,3,,2562,response,ISIC_0010510.JPG,8,ISIC_1961064.JPG,ISIC_0010510.JPG,false,1,keypress(m),500,3472658,3472657,3470095,3470081,3470111,3472694,8,400,28,,ISIC_1961064.JPG
break,html.Screen,4_127_1,2023-09-16T02:44:12.711Z,,0,,,NaN,,,,,,false,,,,3472659,3472659,,3472658,,3472694,8,400,,,
break_continue,html.Screen,4_127_2,2023-09-16T02:44:12.711Z,,0,,,NaN,,,,,,false,,,,3472660,3472660,,3472660,,3472694,8,400,,,
sequence,flow.Sequence,4_127,2023-09-16T02:44:12.712Z,,0,,,2549,completion,,,,,false,,,,3472660,3472660,3470095,3470081,3470111,3472694,8,400,,,
trial,html.Screen,4_128_0,2023-09-16T02:44:15.209Z,,0,3,,2478,response,ISIC_0062935.JPG,4,ISIC_1985436.JPG,ISIC_0062935.JPG,false,1,keypress(m),500,3475157,3475157,3472679,3472660,3472694,3475195,8,400,29,,ISIC_1985436.JPG
break,html.Screen,4_128_1,2023-09-16T02:44:15.210Z,,0,,,NaN,,,,,,false,,,,3475159,3475158,,3475158,,3475195,8,400,,,
break_continue,html.Screen,4_128_2,2023-09-16T02:44:15.211Z,,0,,,NaN,,,,,,false,,,,3475159,3475159,,3475159,,3475195,8,400,,,
sequence,flow.Sequence,4_128,2023-09-16T02:44:15.211Z,,0,,,2465,completion,,,,,false,,,,3475160,3475159,3472679,3472660,3472694,3475195,8,400,,,
trial,html.Screen,4_129_0,2023-09-16T02:44:17.840Z,,0,3,,2609,response,ISIC_7450481.JPG,7,ISIC_4936662.JPG,ISIC_7450481.JPG,false,1,keypress(m),500,3477789,3477788,3475179,3475160,3475195,3477812,8,400,30,,ISIC_4936662.JPG
break,html.Screen,4_129_1,2023-09-16T02:44:17.841Z,,0,,,NaN,,,,,,false,,,,3477790,3477790,,3477789,,3477812,8,400,,,
break_continue,html.Screen,4_129_2,2023-09-16T02:44:17.842Z,,0,,,NaN,,,,,,false,,,,3477791,3477791,,3477790,,3477812,8,400,,,
sequence,flow.Sequence,4_129,2023-09-16T02:44:17.842Z,,0,,,2596,completion,,,,,false,,,,3477791,3477791,3475179,3475160,3475195,3477812,8,400,,,
trial,html.Screen,4_130_0,2023-09-16T02:44:20.451Z,,0,3,,2604,response,ISIC_0032766.JPG,7,ISIC_3764173.JPG,ISIC_3764173.JPG,false,0,keypress(z),500,3480400,3480399,3477795,3477791,3477812,3480429,8,400,31,,ISIC_0032766.JPG
break,html.Screen,4_130_1,2023-09-16T02:44:20.452Z,,0,,,NaN,,,,,,false,,,,3480401.0000000005,3480401.0000000005,,3480400,,3480429,8,400,,,
break_continue,html.Screen,4_130_2,2023-09-16T02:44:20.453Z,,0,,,NaN,,,,,,false,,,,3480402,3480401.0000000005,,3480401.0000000005,,3480429,8,400,,,
sequence,flow.Sequence,4_130,2023-09-16T02:44:20.453Z,,0,,,2589.0000000004657,completion,,,,,false,,,,3480402,3480401.0000000005,3477795,3477791,3477812,3480429,8,400,,,
trial,html.Screen,4_131_0,2023-09-16T02:44:23.040Z,,0,3,,2577,response,ISIC_0033386.JPG,2,ISIC_0068616.JPG,ISIC_0068616.JPG,false,0,keypress(z),500,3482989,3482989,3480412,3480402,3480429,3483012,8,400,32,,ISIC_0033386.JPG
break,html.Screen,4_131_1,2023-09-16T02:44:23.040Z,,0,,,NaN,,,,,,false,,,,3482989,3482989,,3482989,,3483012,8,400,,,
break_continue,html.Screen,4_131_2,2023-09-16T02:44:23.040Z,,0,,,NaN,,,,,,false,,,,3482989,3482989,,3482989,,3483012,8,400,,,
sequence,flow.Sequence,4_131,2023-09-16T02:44:23.040Z,,0,,,2560,completion,,,,,false,,,,3482989,3482989,3480412,3480402,3480429,3483012,8,400,,,
trial,html.Screen,4_132_0,2023-09-16T02:44:25.697Z,,0,3,,2651,response,ISIC_5405889.JPG,9,ISIC_0033344.JPG,ISIC_5405889.JPG,false,1,keypress(m),500,3485647,3485646,3482995,3482989,3483012,3485679,8,400,33,,ISIC_0033344.JPG
break,html.Screen,4_132_1,2023-09-16T02:44:25.699Z,,0,,,NaN,,,,,,false,,,,3485648,3485648,,3485647,,3485679,8,400,,,
break_continue,html.Screen,4_132_2,2023-09-16T02:44:25.699Z,,0,,,NaN,,,,,,false,,,,3485648,3485648,,3485648,,3485679,8,400,,,
sequence,flow.Sequence,4_132,2023-09-16T02:44:25.699Z,,0,,,2636,completion,,,,,false,,,,3485648,3485648,3482995,3482989,3483012,3485679,8,400,,,
trial,html.Screen,4_133_0,2023-09-16T02:44:28.389Z,,0,3,,2675,response,ISIC_3365692.JPG,11,ISIC_0029281.JPG,ISIC_0029281.JPG,false,0,keypress(z),500,3488338,3488337,3485662,3485649,3485679,3488362,8,400,34,,ISIC_3365692.JPG
break,html.Screen,4_133_1,2023-09-16T02:44:28.390Z,,0,,,NaN,,,,,,false,,,,3488339,3488339,,3488338,,3488362,8,400,,,
break_continue,html.Screen,4_133_2,2023-09-16T02:44:28.391Z,,0,,,NaN,,,,,,false,,,,3488340,3488340,,3488340,,3488362,8,400,,,
sequence,flow.Sequence,4_133,2023-09-16T02:44:28.391Z,,0,,,2661,completion,,,,,false,,,,3488340,3488340,3485662,3485649,3485679,3488362,8,400,,,
trial,html.Screen,4_134_0,2023-09-16T02:44:30.960Z,,0,3,,2564,response,ISIC_0011709.JPG,8,ISIC_8145260.JPG,ISIC_8145260.JPG,false,0,keypress(z),500,3490909,3490909,3488345,3488341,3488362,3490946,8,400,35,,ISIC_0011709.JPG
break,html.Screen,4_134_1,2023-09-16T02:44:30.960Z,,0,,,NaN,,,,,,false,,,,3490910,3490909,,3490909,,3490946,8,400,,,
break_continue,html.Screen,4_134_2,2023-09-16T02:44:30.961Z,,0,,,NaN,,,,,,false,,,,3490910,3490910,,3490910,,3490946,8,400,,,
sequence,flow.Sequence,4_134,2023-09-16T02:44:30.961Z,,0,,,2548,completion,,,,,false,,,,3490910,3490910,3488345,3488340,3488362,3490946,8,400,,,
trial,html.Screen,4_135_0,2023-09-16T02:44:33.580Z,,0,3,,2600,response,ISIC_0064875.JPG,5,ISIC_3314555.JPG,ISIC_3314555.JPG,false,0,keypress(z),500,3493530,3493529,3490929,3490910,3490946,3493562,8,400,36,,ISIC_0064875.JPG
break,html.Screen,4_135_1,2023-09-16T02:44:33.582Z,,0,,,NaN,,,,,,false,,,,3493531,3493531,,3493530,,3493562,8,400,,,
break_continue,html.Screen,4_135_2,2023-09-16T02:44:33.582Z,,0,,,NaN,,,,,,false,,,,3493532,3493531,,3493531,,3493562,8,400,,,
sequence,flow.Sequence,4_135,2023-09-16T02:44:33.582Z,,0,,,2585,completion,,,,,false,,,,3493532,3493531,3490929,3490910,3490946,3493562,8,400,,,
trial,html.Screen,4_136_0,2023-09-16T02:44:36.368Z,,0,3,,2771,response,ISIC_0033584.JPG,2,ISIC_8730617.JPG,ISIC_8730617.JPG,false,0,keypress(z),500,3496318,3496317,3493546,3493532,3493562,3496346,8,400,37,,ISIC_0033584.JPG
break,html.Screen,4_136_1,2023-09-16T02:44:36.369Z,,0,,,NaN,,,,,,false,,,,3496319,3496319,,3496318,,3496346,8,400,,,
break_continue,html.Screen,4_136_2,2023-09-16T02:44:36.370Z,,0,,,NaN,,,,,,false,,,,3496319,3496319,,3496319,,3496346,8,400,,,
sequence,flow.Sequence,4_136,2023-09-16T02:44:36.370Z,,0,,,2757,completion,,,,,false,,,,3496319,3496319,3493546,3493532,3493562,3496346,8,400,,,
trial,html.Screen,4_137_0,2023-09-16T02:44:38.906Z,,0,3,,2526,response,ISIC_0060308.JPG,4,ISIC_0024410.JPG,ISIC_0060308.JPG,false,1,keypress(m),500,3498856,3498855,3496329,3496320,3496346,3498879,8,400,38,,ISIC_0024410.JPG
break,html.Screen,4_137_1,2023-09-16T02:44:38.907Z,,0,,,NaN,,,,,,false,,,,3498856,3498856,,3498856,,3498879,8,400,,,
break_continue,html.Screen,4_137_2,2023-09-16T02:44:38.907Z,,0,,,NaN,,,,,,false,,,,3498857,3498857,,3498857,,3498879,8,400,,,
sequence,flow.Sequence,4_137,2023-09-16T02:44:38.907Z,,0,,,2511,completion,,,,,false,,,,3498857,3498857,3496329,3496320,3496346,3498879,8,400,,,
trial,html.Screen,4_138_0,2023-09-16T02:44:41.832Z,,0,3,,2919,response,ISIC_9024724.JPG,3,ISIC_4606646.JPG,ISIC_4606646.JPG,false,0,keypress(z),500,3501782,3501781,3498862,3498857,3498879,3501813,8,400,39,,ISIC_9024724.JPG
break,html.Screen,4_138_1,2023-09-16T02:44:41.833Z,,0,,,NaN,,,,,,false,,,,3501783,3501783,,3501782,,3501813,8,400,,,
break_continue,html.Screen,4_138_2,2023-09-16T02:44:41.834Z,,0,,,NaN,,,,,,false,,,,3501784,3501783,,3501783,,3501813,8,400,,,
sequence,flow.Sequence,4_138,2023-09-16T02:44:41.834Z,,0,,,2904,completion,,,,,false,,,,3501784,3501783,3498862,3498857,3498879,3501813,8,400,,,
trial,html.Screen,4_139_0,2023-09-16T02:44:44.537Z,,0,3,,2691,response,ISIC_0012887.JPG,7,ISIC_8087949.JPG,ISIC_0012887.JPG,false,1,keypress(m),500,3504487,3504487,3501796,3501784,3501813,3504513,8,400,40,,ISIC_8087949.JPG
break,html.Screen,4_139_1,2023-09-16T02:44:44.538Z,,0,,,NaN,,,,,,false,,,,3504488.0000000005,3504488.0000000005,,3504487,,3504513,8,400,,,
break_continue,html.Screen,4_139_2,2023-09-16T02:44:44.538Z,,0,,,NaN,,,,,,false,,,,3504488.0000000005,3504488.0000000005,,3504488.0000000005,,3504513,8,400,,,
sequence,flow.Sequence,4_139,2023-09-16T02:44:44.538Z,,0,,,2675.0000000004657,completion,,,,,false,,,,3504488.0000000005,3504488.0000000005,3501796,3501784,3501813,3504513,8,400,,,
trial,html.Screen,4_140_0,2023-09-16T02:44:47.028Z,,0,3,,2481,response,ISIC_0032320.JPG,5,ISIC_8562820.JPG,ISIC_8562820.JPG,false,0,keypress(z),500,3506978,3506977,3504496,3504488.0000000005,3504513,3507013,8,400,41,,ISIC_0032320.JPG
break,html.Screen,4_140_1,2023-09-16T02:44:47.029Z,,0,,,NaN,,,,,,false,,,,3506979.0000000005,3506979.0000000005,,3506978,,3507013,8,400,,,
break_continue,html.Screen,4_140_2,2023-09-16T02:44:47.029Z,,0,,,NaN,,,,,,false,,,,3506979.0000000005,3506979.0000000005,,3506979.0000000005,,3507013,8,400,,,
sequence,flow.Sequence,4_140,2023-09-16T02:44:47.030Z,,0,,,2466.0000000004657,completion,,,,,false,,,,3506980,3506979.0000000005,3504496,3504488.0000000005,3504513,3507013,8,400,,,
trial,html.Screen,4_141_0,2023-09-16T02:44:49.536Z,,0,3,,2488,response,ISIC_0064141.JPG,8,ISIC_0014994.JPG,ISIC_0064141.JPG,false,1,keypress(m),500,3509486,3509485,3506997,3506980,3507013,3509513,8,400,42,,ISIC_0014994.JPG
break,html.Screen,4_141_1,2023-09-16T02:44:49.538Z,,0,,,NaN,,,,,,false,,,,3509488.0000000005,3509487,,3509486,,3509513,8,400,,,
break_continue,html.Screen,4_141_2,2023-09-16T02:44:49.538Z,,0,,,NaN,,,,,,false,,,,3509488.0000000005,3509488.0000000005,,3509488.0000000005,,3509513,8,400,,,
sequence,flow.Sequence,4_141,2023-09-16T02:44:49.538Z,,0,,,2475.0000000004657,completion,,,,,false,,,,3509488.0000000005,3509488.0000000005,3506997,3506980,3507013,3509513,8,400,,,
trial,html.Screen,4_142_0,2023-09-16T02:44:52.355Z,,0,3,,2807,response,ISIC_0067012.JPG,5,ISIC_9017110.JPG,ISIC_0067012.JPG,false,1,keypress(m),500,3512305.0000000005,3512304,3509497,3509489,3509513,3512330,8,400,43,,ISIC_9017110.JPG
break,html.Screen,4_142_1,2023-09-16T02:44:52.356Z,,0,,,NaN,,,,,,false,,,,3512306,3512306,,3512305.0000000005,,3512330,8,400,,,
break_continue,html.Screen,4_142_2,2023-09-16T02:44:52.357Z,,0,,,NaN,,,,,,false,,,,3512307.0000000005,3512307.0000000005,,3512306,,3512330,8,400,,,
sequence,flow.Sequence,4_142,2023-09-16T02:44:52.357Z,,0,,,2794.0000000004657,completion,,,,,false,,,,3512307.0000000005,3512307.0000000005,3509497,3509488.0000000005,3509513,3512330,8,400,,,
trial,html.Screen,4_143_0,2023-09-16T02:44:55.901Z,,0,3,,3537,response,ISIC_8837443.JPG,7,ISIC_0030747.JPG,ISIC_0030747.JPG,false,0,keypress(z),500,3515851,3515850,3512313,3512307.0000000005,3512330,3515880,8,400,44,,ISIC_8837443.JPG
break,html.Screen,4_143_1,2023-09-16T02:44:55.902Z,,0,,,NaN,,,,,,false,,,,3515853,3515852,,3515852,,3515880,8,400,,,
break_continue,html.Screen,4_143_2,2023-09-16T02:44:55.903Z,,0,,,NaN,,,,,,false,,,,3515853,3515853,,3515853,,3515880,8,400,,,
sequence,flow.Sequence,4_143,2023-09-16T02:44:55.903Z,,0,,,3523,completion,,,,,false,,,,3515853,3515853,3512313,3512307.0000000005,3512330,3515880,8,400,,,
trial,html.Screen,4_144_0,2023-09-16T02:44:58.455Z,,0,3,,2542,response,ISIC_0026272.JPG,1,ISIC_3152541.JPG,ISIC_3152541.JPG,false,0,keypress(z),500,3518405,3518405,3515863,3515853,3515880,3518430,8,400,45,,ISIC_0026272.JPG
break,html.Screen,4_144_1,2023-09-16T02:44:58.456Z,,0,,,NaN,,,,,,false,,,,3518407,3518406,,3518406,,3518430,8,400,,,
break_continue,html.Screen,4_144_2,2023-09-16T02:44:58.457Z,,0,,,NaN,,,,,,false,,,,3518407,3518407,,3518407,,3518430,8,400,,,
sequence,flow.Sequence,4_144,2023-09-16T02:44:58.457Z,,0,,,2527,completion,,,,,false,,,,3518407,3518407,3515863,3515853,3515880,3518430,8,400,,,
trial,html.Screen,4_145_0,2023-09-16T02:45:00.929Z,,0,3,,2466,response,ISIC_5422432.JPG,4,ISIC_0055675.JPG,ISIC_0055675.JPG,false,0,keypress(z),500,3520880,3520879,3518413,3518407,3518430,3520914,8,400,46,,ISIC_5422432.JPG
break,html.Screen,4_145_1,2023-09-16T02:45:00.930Z,,0,,,NaN,,,,,,false,,,,3520881,3520881,,3520880,,3520914,8,400,,,
break_continue,html.Screen,4_145_2,2023-09-16T02:45:00.931Z,,0,,,NaN,,,,,,false,,,,3520881,3520881,,3520881,,3520914,8,400,,,
sequence,flow.Sequence,4_145,2023-09-16T02:45:00.931Z,,0,,,2451,completion,,,,,false,,,,3520881,3520881,3518413,3518407,3518430,3520914,8,400,,,
trial,html.Screen,4_146_0,2023-09-16T02:45:03.836Z,,0,3,,2888,response,ISIC_3452564.JPG,0,ISIC_0011726.JPG,ISIC_3452564.JPG,false,1,keypress(m),500,3523786,3523785,3520897,3520881,3520914,3523814,8,400,47,,ISIC_0011726.JPG
break,html.Screen,4_146_1,2023-09-16T02:45:03.837Z,,0,,,NaN,,,,,,false,,,,3523787.0000000005,3523787.0000000005,,3523786,,3523814,8,400,,,
break_continue,html.Screen,4_146_2,2023-09-16T02:45:03.837Z,,0,,,NaN,,,,,,false,,,,3523788,3523788,,3523788,,3523814,8,400,,,
sequence,flow.Sequence,4_146,2023-09-16T02:45:03.838Z,,0,,,2874,completion,,,,,false,,,,3523788,3523788,3520897,3520881,3520914,3523814,8,400,,,
trial,html.Screen,4_147_0,2023-09-16T02:45:06.380Z,,0,3,,2533,response,ISIC_3820669.JPG,7,ISIC_0025355.JPG,ISIC_3820669.JPG,false,1,keypress(m),500,3526331,3526330,3523797,3523788,3523814,3526364,8,400,48,,ISIC_0025355.JPG
break,html.Screen,4_147_1,2023-09-16T02:45:06.382Z,,0,,,NaN,,,,,,false,,,,3526332,3526332,,3526331,,3526364,8,400,,,
break_continue,html.Screen,4_147_2,2023-09-16T02:45:06.382Z,,0,,,NaN,,,,,,false,,,,3526333,3526333,,3526332,,3526364,8,400,,,
sequence,flow.Sequence,4_147,2023-09-16T02:45:06.382Z,,0,,,2519,completion,,,,,false,,,,3526333,3526333,3523797,3523788,3523814,3526364,8,400,,,
trial,html.Screen,4_148_0,2023-09-16T02:45:08.980Z,,0,3,,2583.0000000004657,response,ISIC_0010358.JPG,8,ISIC_0008934.JPG,ISIC_0008934.JPG,false,0,keypress(z),500,3528931,3528930.0000000005,3526347,3526333,3526364,3528963,8,400,49,,ISIC_0010358.JPG
break,html.Screen,4_148_1,2023-09-16T02:45:08.982Z,,0,,,NaN,,,,,,false,,,,3528932.0000000005,3528932.0000000005,,3528931,,3528963,8,400,,,
break_continue,html.Screen,4_148_2,2023-09-16T02:45:08.982Z,,0,,,NaN,,,,,,false,,,,3528933,3528933,,3528933,,3528963,8,400,,,
sequence,flow.Sequence,4_148,2023-09-16T02:45:08.982Z,,0,,,2569,completion,,,,,false,,,,3528933,3528933,3526347,3526333,3526364,3528963,8,400,,,
trial,html.Screen,4_149_0,2023-09-16T02:45:11.499Z,,0,3,,2502,response,ISIC_0033122.JPG,7,ISIC_8292179.JPG,ISIC_0033122.JPG,false,1,keypress(m),500,3531450.0000000005,3531449,3528947,3528933,3528963,3531481,8,400,50,,ISIC_8292179.JPG
break,html.Screen,4_149_1,2023-09-16T02:45:21.514Z,,0,,,10000,timeout,,,,,false,,,,3541465,3541464,3531464,3531450.0000000005,3531481,3541481,8,400,,,
break_continue,html.Screen,4_149_2,2023-09-16T02:45:28.662Z,,0,,,7238,response,,,,,false,continue,keypress(Space),,3548614,3548702,3541464,3541465,3541481,3548647,8,400,,,
sequence,flow.Sequence,4_149,2023-09-16T02:45:28.663Z,,0,,,19739,completion,,,,,false,,,,3548614,3548702,3528947,3528933,3528963,3548647,8,400,,,
trial,html.Screen,4_150_0,2023-09-16T02:45:32.012Z,,0,4,,3332,response,ISIC_4642190.JPG,11,ISIC_0033470.JPG,ISIC_0033470.JPG,false,0,keypress(z),500,3551964,3551963,3548631,3548614,3548647,3551998,8,400,1,,ISIC_4642190.JPG
break,html.Screen,4_150_1,2023-09-16T02:45:32.013Z,,0,,,NaN,,,,,,false,,,,3551965,3551965,,3551964,,3551998,8,400,,,
break_continue,html.Screen,4_150_2,2023-09-16T02:45:32.014Z,,0,,,NaN,,,,,,false,,,,3551966,3551966,,3551965,,3551998,8,400,,,
sequence,flow.Sequence,4_150,2023-09-16T02:45:32.014Z,,0,,,3319,completion,,,,,false,,,,3551966,3551966,3548631,3548614,3548647,3551998,8,400,,,
trial,html.Screen,4_151_0,2023-09-16T02:45:34.707Z,,0,4,,2676,response,ISIC_9795458.JPG,6,ISIC_1674754.JPG,ISIC_1674754.JPG,false,0,keypress(z),500,3554659,3554658,3551982,3551966,3551998,3554681,8,400,2,,ISIC_9795458.JPG
break,html.Screen,4_151_1,2023-09-16T02:45:34.708Z,,0,,,NaN,,,,,,false,,,,3554660,3554660,,3554659,,3554681,8,400,,,
break_continue,html.Screen,4_151_2,2023-09-16T02:45:34.709Z,,0,,,NaN,,,,,,false,,,,3554661,3554660,,3554660,,3554681,8,400,,,
sequence,flow.Sequence,4_151,2023-09-16T02:45:34.709Z,,0,,,2662,completion,,,,,false,,,,3554661,3554660,3551982,3551966,3551998,3554681,8,400,,,
trial,html.Screen,4_152_0,2023-09-16T02:45:37.342Z,,0,4,,2630,response,ISIC_0057656.JPG,6,ISIC_2458253.JPG,ISIC_0057656.JPG,false,1,keypress(m),500,3557294,3557294,3554664,3554661,3554681,3557332,8,400,3,,ISIC_2458253.JPG
break,html.Screen,4_152_1,2023-09-16T02:45:37.344Z,,0,,,NaN,,,,,,false,,,,3557296.0000000005,3557295,,3557295,,3557332,8,400,,,
break_continue,html.Screen,4_152_2,2023-09-16T02:45:37.344Z,,0,,,NaN,,,,,,false,,,,3557296.0000000005,3557296.0000000005,,3557296.0000000005,,3557332,8,400,,,
sequence,flow.Sequence,4_152,2023-09-16T02:45:37.345Z,,0,,,2615.0000000004657,completion,,,,,false,,,,3557297,3557296.0000000005,3554664,3554661,3554681,3557332,8,400,,,
trial,html.Screen,4_153_0,2023-09-16T02:45:39.826Z,,0,4,,2462,response,ISIC_0033081.JPG,5,ISIC_4796100.JPG,ISIC_4796100.JPG,false,0,keypress(z),500,3559778.0000000005,3559777,3557315,3557297,3557332,3559814,8,400,4,,ISIC_0033081.JPG
break,html.Screen,4_153_1,2023-09-16T02:45:39.827Z,,0,,,NaN,,,,,,false,,,,3559779,3559779,,3559778.0000000005,,3559814,8,400,,,
break_continue,html.Screen,4_153_2,2023-09-16T02:45:39.828Z,,0,,,NaN,,,,,,false,,,,3559780,3559779,,3559779,,3559814,8,400,,,
sequence,flow.Sequence,4_153,2023-09-16T02:45:39.828Z,,0,,,2447,completion,,,,,false,,,,3559780,3559779,3557315,3557297,3557332,3559814,8,400,,,
trial,html.Screen,4_154_0,2023-09-16T02:45:42.475Z,,0,4,,2628,response,ISIC_0014151.JPG,6,ISIC_7452503.JPG,ISIC_0014151.JPG,false,1,keypress(m),500,3562427,3562426,3559798,3559780,3559814,3562449,8,400,5,,ISIC_7452503.JPG
break,html.Screen,4_154_1,2023-09-16T02:45:42.476Z,,0,,,NaN,,,,,,false,,,,3562428,3562428,,3562427,,3562449,8,400,,,
break_continue,html.Screen,4_154_2,2023-09-16T02:45:42.476Z,,0,,,NaN,,,,,,false,,,,3562429,3562428,,3562428,,3562449,8,400,,,
sequence,flow.Sequence,4_154,2023-09-16T02:45:42.477Z,,0,,,2614,completion,,,,,false,,,,3562429,3562428,3559798,3559780,3559814,3562449,8,400,,,
trial,html.Screen,4_155_0,2023-09-16T02:45:45.089Z,,0,4,,2610,response,ISIC_0982855.JPG,7,ISIC_0063190.JPG,ISIC_0982855.JPG,false,1,keypress(m),500,3565042,3565041,3562431,3562429,3562449,3565065,8,400,6,,ISIC_0063190.JPG
break,html.Screen,4_155_1,2023-09-16T02:45:45.091Z,,0,,,NaN,,,,,,false,,,,3565043,3565043,,3565042,,3565065,8,400,,,
break_continue,html.Screen,4_155_2,2023-09-16T02:45:45.091Z,,0,,,NaN,,,,,,false,,,,3565043,3565043,,3565043,,3565065,8,400,,,
sequence,flow.Sequence,4_155,2023-09-16T02:45:45.091Z,,0,,,2594,completion,,,,,false,,,,3565044,3565043,3562431,3562429,3562449,3565065,8,400,,,
trial,html.Screen,4_156_0,2023-09-16T02:45:47.718Z,,0,4,,2621,response,ISIC_1580034.JPG,7,ISIC_0032226.JPG,ISIC_0032226.JPG,false,0,keypress(z),500,3567670,3567669,3565048,3565044,3565065,3567699,8,400,7,,ISIC_1580034.JPG
