sender,sender_type,sender_id,timestamp,meta,,blockNo,condition,duration,ended_on,img_left,img_reveal,img_right,loser,practice,response,response_action,selection_duration,time_commit,time_end,time_render,time_run,time_show,time_switch,total_blocks,total_trials,trialNo,url,winner
informed_consent,html.Screen,0,2023-10-31T00:15:21.628Z,"{""labjs_version"":""20.2.4"",""labjs_build"":{""flavor"":""production"",""commit"":""f5b4a49f956347addd546a832a3327688c2c0fef""},""location"":""https://run.pavlovia.org/MurrayBennett/melanoma-2afc/?participant=66699&platform=sona"",""userAgent"":""Mozilla/5.0 (Windows NT 10.0; Win64; x64) AppleWebKit/537.36 (KHTML, like Gecko) Chrome/118.0.0.0 Safari/537.36"",""platform"":""Win32"",""language"":""en-US"",""locale"":""en-US"",""timeZone"":""America/Chicago"",""timezoneOffset"":300,""screen_width"":1280,""screen_height"":720,""scroll_width"":1280,""scroll_height"":563,""window_innerWidth"":1280,""window_innerHeight"":563,""devicePixelRatio"":1.5}",,,,15710.703,response,,,,,,consent,click button,,18008,18006.5,2279.142,2285.100000023842,2295.797,18016.214,,,,"{""participant"":""66699"",""platform"":""sona""}",
Welcome,html.Screen,1,2023-10-31T00:21:39.006Z,,,,colourful,377367.786,response,,,,,,continue,click button,,395385.39999997616,395384,17999.578,18008.19999998808,18016.214,395389.066,,,,,
trial,html.Screen,2_0_0,2023-10-31T00:21:43.601Z,,0,0,,4591.8339999761665,response,ISIC_0063388.JPG,,ISIC_0025593.JPG,ISIC_0063388.JPG,true,1,keypress(m),500,399981.1999999881,399980.89999997616,395372.584,395385.6999999881,395389.066,399985.326,1,6,1,,ISIC_0025593.JPG
sequence,flow.Sequence,2_0,2023-10-31T00:21:43.602Z,,0,,,4591.8339999761665,completion,,,,,true,,,,399981.60000002384,399980.89999997616,395372.584,395385.6999999881,395389.066,399985.326,1,6,,,
trial,html.Screen,2_1_0,2023-10-31T00:21:46.707Z,,0,0,,3101.774000023841,response,ISIC_0028178.JPG,,ISIC_1309015.JPG,ISIC_1309015.JPG,true,0,keypress(z),500,403087.3000000119,403087.10000002384,399968.787,399981.8000000119,399985.326,403099.578,1,6,2,,ISIC_0028178.JPG
sequence,flow.Sequence,2_1,2023-10-31T00:21:46.708Z,,0,,,3101.774000023841,completion,,,,,true,,,,403087.39999997616,403087.10000002384,399968.787,399981.6999999881,399985.326,403099.578,1,6,,,
trial,html.Screen,2_2_0,2023-10-31T00:21:51.350Z,,0,0,,4629.6219999881,response,ISIC_0031128.JPG,,ISIC_3314853.JPG,ISIC_0031128.JPG,true,1,keypress(m),500,407729.39999997616,407729.1999999881,403082.73,403087.5,403099.578,407745.703,1,6,3,,ISIC_3314853.JPG
sequence,flow.Sequence,2_2,2023-10-31T00:21:51.350Z,,0,,,4629.6219999881,completion,,,,,true,,,,407729.60000002384,407729.1999999881,403082.73,403087.5,403099.578,407745.703,1,6,,,
trial,html.Screen,2_3_0,2023-10-31T00:21:54.472Z,,0,0,,3105.3970000238623,response,ISIC_0031612.JPG,,ISIC_8980141.JPG,ISIC_0031612.JPG,true,1,keypress(m),500,410851.60000002384,410851.10000002384,407729.091,407729.6999999881,407745.703,410859.761,1,6,4,,ISIC_8980141.JPG
sequence,flow.Sequence,2_3,2023-10-31T00:21:54.473Z,,0,,,3105.3970000238623,completion,,,,,true,,,,410852.3000000119,410851.10000002384,407729.091,407729.6999999881,407745.703,410859.761,1,6,,,
trial,html.Screen,2_4_0,2023-10-31T00:21:57.772Z,,0,0,,3291.7390000000014,response,ISIC_1197737.JPG,,ISIC_9721604.JPG,ISIC_9721604.JPG,true,0,keypress(z),500,414152,414151.5,410843.137,410852.60000002384,410859.761,414157.098,1,6,5,,ISIC_1197737.JPG
sequence,flow.Sequence,2_4,2023-10-31T00:21:57.773Z,,0,,,3291.7390000000014,completion,,,,,true,,,,414152.6999999881,414151.5,410843.137,410852.60000002384,410859.761,414157.098,1,6,,,
trial,html.Screen,2_5_0,2023-10-31T00:22:01.200Z,,0,0,,3422.202000011923,response,ISIC_0025346.JPG,,ISIC_0010681.JPG,ISIC_0025346.JPG,true,1,keypress(m),500,417579.8000000119,417579.3000000119,414140.619,414152.89999997616,414157.098,417587.588,1,6,6,,ISIC_0010681.JPG
sequence,flow.Sequence,2_5,2023-10-31T00:22:01.200Z,,0,,,3422.202000011923,completion,,,,,true,,,,417580.3000000119,417579.3000000119,414140.619,414152.6999999881,414157.098,417587.588,1,6,,,
loop,flow.Loop,2,2023-10-31T00:22:01.201Z,,,,,22190.23400001193,completion,,,,,true,,,,417580.6999999881,417579.3000000119,395372.584,395385.60000002384,395389.066,417587.588,1,6,,,
exp_instructions,html.Screen,3,2023-10-31T00:22:10.124Z,,,,,8914.61199998809,response,,,,,,continue,keypress(Space),,426503.6999999881,426502.1999999881,417571.071,417580.89999997616,417587.588,426513.548,,,,,
trial,html.Screen,4_0_0,2023-10-31T00:22:15.907Z,,0,1,,5773.252000011911,response,ISIC_7935462.JPG,5,ISIC_4187627.JPG,ISIC_7935462.JPG,false,1,keypress(m),500,432287.1999999881,432286.8000000119,426495.278,426504.10000002384,426513.548,432292.167,8,400,1,,ISIC_4187627.JPG
break,html.Screen,4_0_1,2023-10-31T00:22:15.909Z,,0,,,NaN,,,,,,false,,,,432289.1999999881,432288.8000000119,,432287.60000002384,,432292.167,8,400,,,
break_continue,html.Screen,4_0_2,2023-10-31T00:22:15.910Z,,0,,,NaN,,,,,,false,,,,432290.10000002384,432289.8000000119,,432289.5,,432292.167,8,400,,,
sequence,flow.Sequence,4_0,2023-10-31T00:22:15.911Z,,0,,,5776.252000011911,completion,,,,,false,,,,432290.5,432289.8000000119,426495.278,426504,426513.548,432292.167,8,400,,,
trial,html.Screen,4_1_0,2023-10-31T00:22:19.786Z,,0,1,,3873.633000011905,response,ISIC_0028396.JPG,6,ISIC_9239632.JPG,ISIC_9239632.JPG,false,0,keypress(z),500,436166.1999999881,436165.8000000119,432275.63,432290.6999999881,432292.167,436172.316,8,400,2,,ISIC_0028396.JPG
break,html.Screen,4_1_1,2023-10-31T00:22:19.789Z,,0,,,NaN,,,,,,false,,,,436169,436167.3000000119,,436166.5,,436172.316,8,400,,,
break_continue,html.Screen,4_1_2,2023-10-31T00:22:19.790Z,,0,,,NaN,,,,,,false,,,,436169.6999999881,436169.5,,436169.1999999881,,436172.316,8,400,,,
sequence,flow.Sequence,4_1,2023-10-31T00:22:19.790Z,,0,,,3877.332999999984,completion,,,,,false,,,,436170.10000002384,436169.5,432275.63,432290.60000002384,432292.167,436172.316,8,400,,,
trial,html.Screen,4_2_0,2023-10-31T00:22:25.826Z,,0,1,,6033.0839999761665,response,ISIC_0028655.JPG,6,ISIC_0061315.JPG,ISIC_0061315.JPG,false,0,keypress(z),500,442205.8000000119,442205.39999997616,436155.575,436170.3000000119,436172.316,442233.964,8,400,3,,ISIC_0028655.JPG
break,html.Screen,4_2_1,2023-10-31T00:22:25.828Z,,0,,,NaN,,,,,,false,,,,442207.3000000119,442207,,442206.3000000119,,442233.964,8,400,,,
break_continue,html.Screen,4_2_2,2023-10-31T00:22:25.828Z,,0,,,NaN,,,,,,false,,,,442208,442207.8000000119,,442207.60000002384,,442233.964,8,400,,,
sequence,flow.Sequence,4_2,2023-10-31T00:22:25.829Z,,0,,,6035.484000011929,completion,,,,,false,,,,442208.3000000119,442207.8000000119,436155.575,436170.10000002384,436172.316,442233.964,8,400,,,
trial,html.Screen,4_3_0,2023-10-31T00:22:29.480Z,,0,1,,3625.536000000022,response,ISIC_9944671.JPG,6,ISIC_4137545.JPG,ISIC_4137545.JPG,false,0,keypress(z),500,445859.8000000119,445859.5,442217.294,442208.60000002384,442233.964,445864.353,8,400,4,,ISIC_9944671.JPG
break,html.Screen,4_3_1,2023-10-31T00:22:29.481Z,,0,,,NaN,,,,,,false,,,,445861.1999999881,445860.8000000119,,445860.1999999881,,445864.353,8,400,,,
break_continue,html.Screen,4_3_2,2023-10-31T00:22:29.482Z,,0,,,NaN,,,,,,false,,,,445861.8000000119,445861.6999999881,,445861.39999997616,,445864.353,8,400,,,
sequence,flow.Sequence,4_3,2023-10-31T00:22:29.482Z,,0,,,3627.735999988101,completion,,,,,false,,,,445862.10000002384,445861.6999999881,442217.294,442208.5,442233.964,445864.353,8,400,,,
trial,html.Screen,4_4_0,2023-10-31T00:22:32.382Z,,0,1,,2896.646999999997,response,ISIC_0033902.JPG,5,ISIC_4131697.JPG,ISIC_4131697.JPG,false,0,keypress(z),500,448761.3000000119,448761,445847.673,445862.3000000119,445864.353,448778.601,8,400,5,,ISIC_0033902.JPG
break,html.Screen,4_4_1,2023-10-31T00:22:32.383Z,,0,,,NaN,,,,,,false,,,,448763,448762.5,,448761.6999999881,,448778.601,8,400,,,
break_continue,html.Screen,4_4_2,2023-10-31T00:22:32.384Z,,0,,,NaN,,,,,,false,,,,448763.60000002384,448763.39999997616,,448763.1999999881,,448778.601,8,400,,,
sequence,flow.Sequence,4_4,2023-10-31T00:22:32.384Z,,0,,,2899.0469999761553,completion,,,,,false,,,,448763.89999997616,448763.39999997616,445847.673,445862.3000000119,445864.353,448778.601,8,400,,,
trial,html.Screen,4_5_0,2023-10-31T00:22:36.212Z,,0,1,,3812.1990000118967,response,ISIC_0066109.JPG,6,ISIC_0594534.JPG,ISIC_0594534.JPG,false,0,keypress(z),500,452591.1999999881,452590.8000000119,448762.063,448764.10000002384,448778.601,452608.758,8,400,6,,ISIC_0066109.JPG
break,html.Screen,4_5_1,2023-10-31T00:22:36.214Z,,0,,,NaN,,,,,,false,,,,452593,452592.3000000119,,452591.60000002384,,452608.758,8,400,,,
break_continue,html.Screen,4_5_2,2023-10-31T00:22:36.214Z,,0,,,NaN,,,,,,false,,,,452593.89999997616,452593.60000002384,,452593.39999997616,,452608.758,8,400,,,
sequence,flow.Sequence,4_5,2023-10-31T00:22:36.215Z,,0,,,3814.9990000238176,completion,,,,,false,,,,452594.1999999881,452593.60000002384,448762.063,448764,448778.601,452608.758,8,400,,,
trial,html.Screen,4_6_0,2023-10-31T00:22:40.265Z,,0,1,,4035.6419999761856,response,ISIC_8380904.JPG,6,ISIC_0331389.JPG,ISIC_0331389.JPG,false,0,keypress(z),500,456644.6999999881,456644.39999997616,452592.123,452594.5,452608.758,456655.377,8,400,7,,ISIC_8380904.JPG
break,html.Screen,4_6_1,2023-10-31T00:22:40.267Z,,0,,,NaN,,,,,,false,,,,456646.1999999881,456645.8000000119,,456645,,456655.377,8,400,,,
break_continue,html.Screen,4_6_2,2023-10-31T00:22:40.267Z,,0,,,NaN,,,,,,false,,,,456646.8000000119,456646.60000002384,,456646.3000000119,,456655.377,8,400,,,
sequence,flow.Sequence,4_6,2023-10-31T00:22:40.268Z,,0,,,4037.8420000238693,completion,,,,,false,,,,456647,456646.60000002384,452592.123,452594.39999997616,452608.758,456655.377,8,400,,,
trial,html.Screen,4_7_0,2023-10-31T00:22:46.239Z,,0,1,,5962.223000023863,response,ISIC_4009870.JPG,5,ISIC_7100755.JPG,ISIC_7100755.JPG,false,0,keypress(z),500,462618.1999999881,462617.60000002384,456638.691,456647.1999999881,456655.377,462650.503,8,400,8,,ISIC_4009870.JPG
break,html.Screen,4_7_1,2023-10-31T00:22:46.240Z,,0,,,NaN,,,,,,false,,,,462619.5,462619.3000000119,,462618.5,,462650.503,8,400,,,
break_continue,html.Screen,4_7_2,2023-10-31T00:22:46.241Z,,0,,,NaN,,,,,,false,,,,462620.1999999881,462620,,462619.8000000119,,462650.503,8,400,,,
sequence,flow.Sequence,4_7,2023-10-31T00:22:46.241Z,,0,,,5964.623000000021,completion,,,,,false,,,,462620.39999997616,462620,456638.691,456647.1999999881,456655.377,462650.503,8,400,,,
trial,html.Screen,4_8_0,2023-10-31T00:22:51.429Z,,0,1,,5157.097000023816,response,ISIC_0014558.JPG,6,ISIC_4163686.JPG,ISIC_0014558.JPG,false,1,keypress(m),500,467808,467807.60000002384,462633.982,462620.60000002384,462650.503,467812.949,8,400,9,,ISIC_4163686.JPG
break,html.Screen,4_8_1,2023-10-31T00:22:51.430Z,,0,,,NaN,,,,,,false,,,,467809.39999997616,467808.89999997616,,467808.3000000119,,467812.949,8,400,,,
break_continue,html.Screen,4_8_2,2023-10-31T00:22:51.431Z,,0,,,NaN,,,,,,false,,,,467810.10000002384,467809.89999997616,,467809.60000002384,,467812.949,8,400,,,
sequence,flow.Sequence,4_8,2023-10-31T00:22:51.431Z,,0,,,5159.396999976132,completion,,,,,false,,,,467810.3000000119,467809.89999997616,462633.982,462620.5,462650.503,467812.949,8,400,,,
trial,html.Screen,4_9_0,2023-10-31T00:22:57.498Z,,0,1,,6064.351000011899,response,ISIC_3012778.JPG,6,ISIC_8922893.JPG,ISIC_8922893.JPG,false,0,keypress(z),500,473877.60000002384,473877.3000000119,467796.348,467810.5,467812.949,473891.301,8,400,10,,ISIC_3012778.JPG
break,html.Screen,4_9_1,2023-10-31T00:22:57.499Z,,0,,,NaN,,,,,,false,,,,473878.1999999881,473878.10000002384,,473877.8000000119,,473891.301,8,400,,,
break_continue,html.Screen,4_9_2,2023-10-31T00:22:57.499Z,,0,,,NaN,,,,,,false,,,,473878.5,473878.39999997616,,473878.3000000119,,473891.301,8,400,,,
sequence,flow.Sequence,4_9,2023-10-31T00:22:57.499Z,,0,,,6065.450999976136,completion,,,,,false,,,,473878.6999999881,473878.39999997616,467796.348,467810.39999997616,467812.949,473891.301,8,400,,,
trial,html.Screen,4_10_0,2023-10-31T00:23:01.949Z,,0,1,,4437.0989999761805,response,ISIC_8897947.JPG,5,ISIC_9028997.JPG,ISIC_8897947.JPG,false,1,keypress(m),500,478328.8000000119,478328.39999997616,473874.717,473878.6999999881,473891.301,478337.682,8,400,11,,ISIC_9028997.JPG
break,html.Screen,4_10_1,2023-10-31T00:23:01.951Z,,0,,,NaN,,,,,,false,,,,478330,478329.8000000119,,478329.10000002384,,478337.682,8,400,,,
break_continue,html.Screen,4_10_2,2023-10-31T00:23:01.951Z,,0,,,NaN,,,,,,false,,,,478330.5,478330.39999997616,,478330.1999999881,,478337.682,8,400,,,
sequence,flow.Sequence,4_10,2023-10-31T00:23:01.951Z,,0,,,4439.0989999761805,completion,,,,,false,,,,478330.8000000119,478330.39999997616,473874.717,473878.6999999881,473891.301,478337.682,8,400,,,
trial,html.Screen,4_11_0,2023-10-31T00:23:05.412Z,,0,1,,3453.0179999881075,response,ISIC_4768512.JPG,5,ISIC_4084359.JPG,ISIC_4768512.JPG,false,1,keypress(m),500,481791.10000002384,481790.6999999881,478320.894,478331,478337.682,481801.4,8,400,12,,ISIC_4084359.JPG
break,html.Screen,4_11_1,2023-10-31T00:23:05.413Z,,0,,,NaN,,,,,,false,,,,481792.39999997616,481792,,481791.39999997616,,481801.4,8,400,,,
break_continue,html.Screen,4_11_2,2023-10-31T00:23:05.414Z,,0,,,NaN,,,,,,false,,,,481793.10000002384,481792.89999997616,,481792.60000002384,,481801.4,8,400,,,
sequence,flow.Sequence,4_11,2023-10-31T00:23:05.414Z,,0,,,3455.2179999761865,completion,,,,,false,,,,481793.3000000119,481792.89999997616,478320.894,478331,478337.682,481801.4,8,400,,,
trial,html.Screen,4_12_0,2023-10-31T00:23:09.113Z,,0,1,,3690.999999976135,response,ISIC_2805634.JPG,7,ISIC_3933658.JPG,ISIC_2805634.JPG,false,1,keypress(m),500,485492.6999999881,485492.39999997616,481784.728,481793.60000002384,481801.4,485498.31,8,400,13,,ISIC_3933658.JPG
break,html.Screen,4_12_1,2023-10-31T00:23:09.114Z,,0,,,NaN,,,,,,false,,,,485493.39999997616,485493.10000002384,,485492.8000000119,,485498.31,8,400,,,
break_continue,html.Screen,4_12_2,2023-10-31T00:23:09.114Z,,0,,,NaN,,,,,,false,,,,485493.8000000119,485493.60000002384,,485493.60000002384,,485498.31,8,400,,,
sequence,flow.Sequence,4_12,2023-10-31T00:23:09.114Z,,0,,,3692.2000000238186,completion,,,,,false,,,,485494,485493.60000002384,481784.728,481793.5,481801.4,485498.31,8,400,,,
trial,html.Screen,4_13_0,2023-10-31T00:23:12.940Z,,0,1,,3821.3899999880814,response,ISIC_4523565.JPG,5,ISIC_1974152.JPG,ISIC_1974152.JPG,false,0,keypress(z),500,489319.89999997616,489319.6999999881,485481.828,485494,485498.31,489328.485,8,400,14,,ISIC_4523565.JPG
break,html.Screen,4_13_1,2023-10-31T00:23:12.941Z,,0,,,NaN,,,,,,false,,,,489320.6999999881,489320.60000002384,,489320.10000002384,,489328.485,8,400,,,
break_continue,html.Screen,4_13_2,2023-10-31T00:23:12.942Z,,0,,,NaN,,,,,,false,,,,489321.1999999881,489321.10000002384,,489320.89999997616,,489328.485,8,400,,,
sequence,flow.Sequence,4_13,2023-10-31T00:23:12.942Z,,0,,,3822.790000023844,completion,,,,,false,,,,489321.3000000119,489321.10000002384,485481.828,485494,485498.31,489328.485,8,400,,,
trial,html.Screen,4_14_0,2023-10-31T00:23:17.121Z,,0,1,,4171.315000011935,response,ISIC_9048192.JPG,5,ISIC_0010760.JPG,ISIC_0010760.JPG,false,0,keypress(z),500,493500.1999999881,493499.8000000119,489311.818,489321.5,489328.485,493508.483,8,400,15,,ISIC_9048192.JPG
break,html.Screen,4_14_1,2023-10-31T00:23:17.122Z,,0,,,NaN,,,,,,false,,,,493501.60000002384,493501.1999999881,,493500.60000002384,,493508.483,8,400,,,
break_continue,html.Screen,4_14_2,2023-10-31T00:23:17.123Z,,0,,,NaN,,,,,,false,,,,493502.1999999881,493502,,493501.8000000119,,493508.483,8,400,,,
sequence,flow.Sequence,4_14,2023-10-31T00:23:17.123Z,,0,,,4173.515000000014,completion,,,,,false,,,,493502.60000002384,493502,489311.818,489321.39999997616,489328.485,493508.483,8,400,,,
trial,html.Screen,4_15_0,2023-10-31T00:23:21.686Z,,0,1,,4556.8170000119135,response,ISIC_7052658.JPG,6,ISIC_0030171.JPG,ISIC_0030171.JPG,false,0,keypress(z),500,498065.6999999881,498065.3000000119,493491.797,493502.6999999881,493508.483,498071.383,8,400,16,,ISIC_7052658.JPG
break,html.Screen,4_15_1,2023-10-31T00:23:21.688Z,,0,,,NaN,,,,,,false,,,,498067.1999999881,498066.8000000119,,498066.1999999881,,498071.383,8,400,,,
break_continue,html.Screen,4_15_2,2023-10-31T00:23:21.688Z,,0,,,NaN,,,,,,false,,,,498067.8000000119,498067.60000002384,,498067.39999997616,,498071.383,8,400,,,
sequence,flow.Sequence,4_15,2023-10-31T00:23:21.689Z,,0,,,4559.117000023834,completion,,,,,false,,,,498068.10000002384,498067.60000002384,493491.797,493502.6999999881,493508.483,498071.383,8,400,,,
trial,html.Screen,4_16_0,2023-10-31T00:23:28.060Z,,0,1,,6367.516999976186,response,ISIC_0024246.JPG,5,ISIC_0057594.JPG,ISIC_0024246.JPG,false,1,keypress(m),500,504439,504438.89999997616,498054.665,498068.3000000119,498071.383,504449.411,8,400,17,,ISIC_0057594.JPG
break,html.Screen,4_16_1,2023-10-31T00:23:28.060Z,,0,,,NaN,,,,,,false,,,,504439.5,504439.3000000119,,504439.10000002384,,504449.411,8,400,,,
break_continue,html.Screen,4_16_2,2023-10-31T00:23:28.060Z,,0,,,NaN,,,,,,false,,,,504439.6999999881,504439.60000002384,,504439.5,,504449.411,8,400,,,
sequence,flow.Sequence,4_16,2023-10-31T00:23:28.060Z,,0,,,6368.217000023869,completion,,,,,false,,,,504439.8000000119,504439.60000002384,498054.665,498068.3000000119,498071.383,504449.411,8,400,,,
trial,html.Screen,4_17_0,2023-10-31T00:23:31.406Z,,0,1,,3335.9889999761363,response,ISIC_5046340.JPG,5,ISIC_0032162.JPG,ISIC_5046340.JPG,false,1,keypress(m),500,507785.60000002384,507785.39999997616,504432.83,504439.8000000119,504449.411,507796.699,8,400,18,,ISIC_0032162.JPG
break,html.Screen,4_17_1,2023-10-31T00:23:31.407Z,,0,,,NaN,,,,,,false,,,,507786.3000000119,507786,,507785.6999999881,,507796.699,8,400,,,
break_continue,html.Screen,4_17_2,2023-10-31T00:23:31.407Z,,0,,,NaN,,,,,,false,,,,507786.6999999881,507786.5,,507786.39999997616,,507796.699,8,400,,,
sequence,flow.Sequence,4_17,2023-10-31T00:23:31.407Z,,0,,,3337.088999999978,completion,,,,,false,,,,507786.8000000119,507786.5,504432.83,504439.8000000119,504449.411,507796.699,8,400,,,
trial,html.Screen,4_18_0,2023-10-31T00:23:34.257Z,,0,1,,2839.5009999880567,response,ISIC_0071957.JPG,5,ISIC_1560455.JPG,ISIC_1560455.JPG,false,0,keypress(z),500,510636.60000002384,510636.1999999881,507780.147,507786.89999997616,507796.699,510644.421,8,400,19,,ISIC_0071957.JPG
break,html.Screen,4_18_1,2023-10-31T00:23:34.259Z,,0,,,NaN,,,,,,false,,,,510638.10000002384,510637.8000000119,,510637,,510644.421,8,400,,,
break_continue,html.Screen,4_18_2,2023-10-31T00:23:34.259Z,,0,,,NaN,,,,,,false,,,,510638.6999999881,510638.5,,510638.3000000119,,510644.421,8,400,,,
sequence,flow.Sequence,4_18,2023-10-31T00:23:34.259Z,,0,,,2841.8009999999776,completion,,,,,false,,,,510639,510638.5,507780.147,507786.89999997616,507796.699,510644.421,8,400,,,
trial,html.Screen,4_19_0,2023-10-31T00:23:37.847Z,,0,1,,3581.379000011948,response,ISIC_9529297.JPG,5,ISIC_0013831.JPG,ISIC_9529297.JPG,false,1,keypress(m),500,514226.10000002384,514225.8000000119,510627.721,510639.1999999881,510644.421,514241.459,8,400,20,,ISIC_0013831.JPG
break,html.Screen,4_19_1,2023-10-31T00:23:37.848Z,,0,,,NaN,,,,,,false,,,,514227.60000002384,514227.3000000119,,514226.39999997616,,514241.459,8,400,,,
break_continue,html.Screen,4_19_2,2023-10-31T00:23:37.849Z,,0,,,NaN,,,,,,false,,,,514228.3000000119,514228,,514227.8000000119,,514241.459,8,400,,,
sequence,flow.Sequence,4_19,2023-10-31T00:23:37.849Z,,0,,,3583.579000000027,completion,,,,,false,,,,514228.60000002384,514228,510627.721,510639.1999999881,510644.421,514241.459,8,400,,,
trial,html.Screen,4_20_0,2023-10-31T00:23:43.932Z,,0,1,,6069.3410000119475,response,ISIC_5005961.JPG,7,ISIC_8433108.JPG,ISIC_5005961.JPG,false,1,keypress(m),500,520311.1999999881,520310.8000000119,514224.862,514228.6999999881,514241.459,520319.707,8,400,21,,ISIC_8433108.JPG
break,html.Screen,4_20_1,2023-10-31T00:23:43.933Z,,0,,,NaN,,,,,,false,,,,520312.5,520312.10000002384,,520311.5,,520319.707,8,400,,,
break_continue,html.Screen,4_20_2,2023-10-31T00:23:43.934Z,,0,,,NaN,,,,,,false,,,,520313.1999999881,520313,,520312.8000000119,,520319.707,8,400,,,
sequence,flow.Sequence,4_20,2023-10-31T00:23:43.934Z,,0,,,6071.5410000000265,completion,,,,,false,,,,520313.5,520313,514224.862,514228.6999999881,514241.459,520319.707,8,400,,,
trial,html.Screen,4_21_0,2023-10-31T00:23:47.649Z,,0,1,,3708.893000023847,response,ISIC_0058580.JPG,5,ISIC_5391758.JPG,ISIC_0058580.JPG,false,1,keypress(m),500,524029,524028.60000002384,520303.073,520313.6999999881,520319.707,524033.359,8,400,22,,ISIC_5391758.JPG
break,html.Screen,4_21_1,2023-10-31T00:23:47.651Z,,0,,,NaN,,,,,,false,,,,524030.1999999881,524029.89999997616,,524029.3000000119,,524033.359,8,400,,,
break_continue,html.Screen,4_21_2,2023-10-31T00:23:47.651Z,,0,,,NaN,,,,,,false,,,,524031.10000002384,524030.8000000119,,524030.3000000119,,524033.359,8,400,,,
sequence,flow.Sequence,4_21,2023-10-31T00:23:47.652Z,,0,,,3711.093000011926,completion,,,,,false,,,,524031.5,524030.8000000119,520303.073,520313.6999999881,520319.707,524033.359,8,400,,,
trial,html.Screen,4_22_0,2023-10-31T00:23:54.760Z,,0,1,,7105.941000011924,response,ISIC_7189490.JPG,5,ISIC_0032901.JPG,ISIC_0032901.JPG,false,0,keypress(z),500,531139.6999999881,531139.3000000119,524016.736,524031.8000000119,524033.359,531144.189,8,400,23,,ISIC_7189490.JPG
break,html.Screen,4_22_1,2023-10-31T00:23:54.762Z,,0,,,NaN,,,,,,false,,,,531141.1000000238,531140.6999999881,,531140.1000000238,,531144.189,8,400,,,
break_continue,html.Screen,4_22_2,2023-10-31T00:23:54.762Z,,0,,,NaN,,,,,,false,,,,531141.6999999881,531141.6000000238,,531141.3000000119,,531144.189,8,400,,,
sequence,flow.Sequence,4_22,2023-10-31T00:23:54.762Z,,0,,,7108.241000023845,completion,,,,,false,,,,531142,531141.6000000238,524016.736,524031.6999999881,524033.359,531144.189,8,400,,,
trial,html.Screen,4_23_0,2023-10-31T00:23:58.206Z,,0,1,,3440.510999988066,response,ISIC_1396573.JPG,5,ISIC_0067727.JPG,ISIC_0067727.JPG,false,0,keypress(z),500,534585.1000000238,534584.6999999881,531127.683,531142.1999999881,531144.189,534591.308,8,400,24,,ISIC_1396573.JPG
break,html.Screen,4_23_1,2023-10-31T00:23:58.207Z,,0,,,NaN,,,,,,false,,,,534586.3999999762,534586.1000000238,,534585.3999999762,,534591.308,8,400,,,
break_continue,html.Screen,4_23_2,2023-10-31T00:23:58.207Z,,0,,,NaN,,,,,,false,,,,534587,534586.8999999762,,534586.6000000238,,534591.308,8,400,,,
sequence,flow.Sequence,4_23,2023-10-31T00:23:58.208Z,,0,,,3442.710999976145,completion,,,,,false,,,,534587.3999999762,534586.8999999762,531127.683,531142.1999999881,531144.189,534591.308,8,400,,,
trial,html.Screen,4_24_0,2023-10-31T00:24:01.427Z,,0,1,,3214.99200001196,response,ISIC_4354896.JPG,5,ISIC_0030817.JPG,ISIC_4354896.JPG,false,1,keypress(m),500,537806.5,537806.3000000119,534574.651,534587.5,534591.308,537821.958,8,400,25,,ISIC_0030817.JPG
break,html.Screen,4_24_1,2023-10-31T00:24:01.428Z,,0,,,NaN,,,,,,false,,,,537807.3999999762,537807.1000000238,,537806.6999999881,,537821.958,8,400,,,
break_continue,html.Screen,4_24_2,2023-10-31T00:24:01.428Z,,0,,,NaN,,,,,,false,,,,537807.8000000119,537807.6000000238,,537807.6000000238,,537821.958,8,400,,,
sequence,flow.Sequence,4_24,2023-10-31T00:24:01.428Z,,0,,,3216.292000023881,completion,,,,,false,,,,537807.8999999762,537807.6000000238,534574.651,534587.5,534591.308,537821.958,8,400,,,
trial,html.Screen,4_25_0,2023-10-31T00:24:05.016Z,,0,1,,3573.1420000238577,response,ISIC_6447663.JPG,5,ISIC_0060050.JPG,ISIC_6447663.JPG,false,1,keypress(m),500,541395.5,541395.1000000238,537805.317,537808.8999999762,537821.958,541402.371,8,400,26,,ISIC_0060050.JPG
break,html.Screen,4_25_1,2023-10-31T00:24:05.017Z,,0,,,NaN,,,,,,false,,,,541396.8000000119,541396.5,,541395.8000000119,,541402.371,8,400,,,
break_continue,html.Screen,4_25_2,2023-10-31T00:24:05.018Z,,0,,,NaN,,,,,,false,,,,541397.5,541397.3999999762,,541397.1000000238,,541402.371,8,400,,,
sequence,flow.Sequence,4_25,2023-10-31T00:24:05.018Z,,0,,,3575.441999976174,completion,,,,,false,,,,541397.8999999762,541397.3999999762,537805.317,537808,537821.958,541402.371,8,400,,,
trial,html.Screen,4_26_0,2023-10-31T00:24:08.429Z,,0,1,,3406.0289999761153,response,ISIC_0055367.JPG,4,ISIC_0029409.JPG,ISIC_0029409.JPG,false,0,keypress(z),500,544808.6000000238,544808.3999999762,541385.849,541398,541402.371,544816.251,8,400,27,,ISIC_0055367.JPG
break,html.Screen,4_26_1,2023-10-31T00:24:08.430Z,,0,,,NaN,,,,,,false,,,,544809.3999999762,544809.1999999881,,544808.8999999762,,544816.251,8,400,,,
break_continue,html.Screen,4_26_2,2023-10-31T00:24:08.430Z,,0,,,NaN,,,,,,false,,,,544809.8999999762,544809.6999999881,,544809.6000000238,,544816.251,8,400,,,
sequence,flow.Sequence,4_26,2023-10-31T00:24:08.430Z,,0,,,3407.3289999880362,completion,,,,,false,,,,544810,544809.6999999881,541385.849,541398,541402.371,544816.251,8,400,,,
trial,html.Screen,4_27_0,2023-10-31T00:24:11.281Z,,0,1,,2844.3490000237944,response,ISIC_7885010.JPG,5,ISIC_0032780.JPG,ISIC_7885010.JPG,false,1,keypress(m),500,547660.8000000119,547660.6000000238,544799.554,544810.1000000238,544816.251,547663.811,8,400,28,,ISIC_0032780.JPG
break,html.Screen,4_27_1,2023-10-31T00:24:11.282Z,,0,,,NaN,,,,,,false,,,,547661.1000000238,547661.1000000238,,547660.8999999762,,547663.811,8,400,,,
break_continue,html.Screen,4_27_2,2023-10-31T00:24:11.282Z,,0,,,NaN,,,,,,false,,,,547661.3000000119,547661.1999999881,,547661.1999999881,,547663.811,8,400,,,
sequence,flow.Sequence,4_27,2023-10-31T00:24:11.282Z,,0,,,2844.9489999880316,completion,,,,,false,,,,547661.3000000119,547661.1999999881,544799.554,544810.1000000238,544816.251,547663.811,8,400,,,
trial,html.Screen,4_28_0,2023-10-31T00:24:15.907Z,,0,1,,4622.289000023855,response,ISIC_0011747.JPG,5,ISIC_0071133.JPG,ISIC_0011747.JPG,false,1,keypress(m),500,552286.3000000119,552286.1000000238,547647.244,547661.3999999762,547663.811,552293.419,8,400,29,,ISIC_0071133.JPG
break,html.Screen,4_28_1,2023-10-31T00:24:15.907Z,,0,,,NaN,,,,,,false,,,,552286.8000000119,552286.6000000238,,552286.3999999762,,552293.419,8,400,,,
break_continue,html.Screen,4_28_2,2023-10-31T00:24:15.907Z,,0,,,NaN,,,,,,false,,,,552287.1000000238,552287,,552286.8999999762,,552293.419,8,400,,,
sequence,flow.Sequence,4_28,2023-10-31T00:24:15.908Z,,0,,,4623.189000000013,completion,,,,,false,,,,552287.1999999881,552287,547647.244,547661.3999999762,547663.811,552293.419,8,400,,,
trial,html.Screen,4_29_0,2023-10-31T00:24:22.565Z,,0,1,,6650.681000023847,response,ISIC_3513367.JPG,4,ISIC_6127074.JPG,ISIC_6127074.JPG,false,0,keypress(z),500,558944.6000000238,558944.1000000238,552276.736,552287.1999999881,552293.419,558954.591,8,400,30,,ISIC_3513367.JPG
break,html.Screen,4_29_1,2023-10-31T00:24:22.566Z,,0,,,NaN,,,,,,false,,,,558945.8999999762,558945.5,,558944.8999999762,,558954.591,8,400,,,
break_continue,html.Screen,4_29_2,2023-10-31T00:24:22.567Z,,0,,,NaN,,,,,,false,,,,558946.5,558946.3000000119,,558946.1000000238,,558954.591,8,400,,,
sequence,flow.Sequence,4_29,2023-10-31T00:24:22.567Z,,0,,,6652.8810000119265,completion,,,,,false,,,,558946.8000000119,558946.3000000119,552276.736,552287.1999999881,552293.419,558954.591,8,400,,,
trial,html.Screen,4_30_0,2023-10-31T00:24:27.978Z,,0,1,,5402.509000023827,response,ISIC_0013898.JPG,5,ISIC_6414435.JPG,ISIC_6414435.JPG,false,0,keypress(z),500,564357.5,564357.1000000238,558937.983,558947,558954.591,564366.807,8,400,31,,ISIC_0013898.JPG
break,html.Screen,4_30_1,2023-10-31T00:24:27.979Z,,0,,,NaN,,,,,,false,,,,564358.8000000119,564358.3999999762,,564357.8000000119,,564366.807,8,400,,,
break_continue,html.Screen,4_30_2,2023-10-31T00:24:27.980Z,,0,,,NaN,,,,,,false,,,,564359.5,564359.3000000119,,564359,,564366.807,8,400,,,
sequence,flow.Sequence,4_30,2023-10-31T00:24:27.980Z,,0,,,5404.709000011906,completion,,,,,false,,,,564359.8000000119,564359.3000000119,558937.983,558947,558954.591,564366.807,8,400,,,
trial,html.Screen,4_31_0,2023-10-31T00:24:32.399Z,,0,1,,4411.592999976128,response,ISIC_5288404.JPG,5,ISIC_8152423.JPG,ISIC_8152423.JPG,false,0,keypress(z),500,568778.5,568778.3999999762,564350.298,564359.8999999762,564366.807,568797.044,8,400,32,,ISIC_5288404.JPG
break,html.Screen,4_31_1,2023-10-31T00:24:32.400Z,,0,,,NaN,,,,,,false,,,,568779.1999999881,568778.8999999762,,568778.6000000238,,568797.044,8,400,,,
break_continue,html.Screen,4_31_2,2023-10-31T00:24:32.400Z,,0,,,NaN,,,,,,false,,,,568779.5,568779.3999999762,,568779.3000000119,,568797.044,8,400,,,
sequence,flow.Sequence,4_31,2023-10-31T00:24:32.400Z,,0,,,4412.592999976128,completion,,,,,false,,,,568779.5,568779.3999999762,564350.298,564359.8999999762,564366.807,568797.044,8,400,,,
trial,html.Screen,4_32_0,2023-10-31T00:24:35.682Z,,0,1,,3264.1559999880847,response,ISIC_8651476.JPG,5,ISIC_2673511.JPG,ISIC_8651476.JPG,false,1,keypress(m),500,572061.5,572061.1999999881,568763.212,568779.5,568797.044,572077.202,8,400,33,,ISIC_2673511.JPG
break,html.Screen,4_32_1,2023-10-31T00:24:35.683Z,,0,,,NaN,,,,,,false,,,,572062.6999999881,572062.5,,572061.8999999762,,572077.202,8,400,,,
break_continue,html.Screen,4_32_2,2023-10-31T00:24:35.684Z,,0,,,NaN,,,,,,false,,,,572063.3999999762,572063.1999999881,,572063,,572077.202,8,400,,,
sequence,flow.Sequence,4_32,2023-10-31T00:24:35.684Z,,0,,,3266.1559999880847,completion,,,,,false,,,,572063.6000000238,572063.1999999881,568763.212,568779.5,568797.044,572077.202,8,400,,,
trial,html.Screen,4_33_0,2023-10-31T00:24:43.799Z,,0,1,,8100.797999999952,response,ISIC_2470795.JPG,5,ISIC_0013731.JPG,ISIC_0013731.JPG,false,0,keypress(z),500,580178.1000000238,580178,572060.569,572063.8000000119,572077.202,580187.187,8,400,34,,ISIC_2470795.JPG
break,html.Screen,4_33_1,2023-10-31T00:24:43.799Z,,0,,,NaN,,,,,,false,,,,580178.8999999762,580178.6999999881,,580178.3000000119,,580187.187,8,400,,,
break_continue,html.Screen,4_33_2,2023-10-31T00:24:43.800Z,,0,,,NaN,,,,,,false,,,,580179.1999999881,580179.1000000238,,580178.8999999762,,580187.187,8,400,,,
sequence,flow.Sequence,4_33,2023-10-31T00:24:43.800Z,,0,,,8101.898000023793,completion,,,,,false,,,,580179.3000000119,580179.1000000238,572060.569,572063.8000000119,572077.202,580187.187,8,400,,,
trial,html.Screen,4_34_0,2023-10-31T00:24:52.123Z,,0,1,,8315.113000011886,response,ISIC_0055241.JPG,5,ISIC_0033180.JPG,ISIC_0033180.JPG,false,0,keypress(z),500,588502.6999999881,588502.3000000119,580170.386,580179.3999999762,580187.187,588513.595,8,400,35,,ISIC_0055241.JPG
break,html.Screen,4_34_1,2023-10-31T00:24:52.124Z,,0,,,NaN,,,,,,false,,,,588504,588503.6000000238,,588503,,588513.595,8,400,,,
break_continue,html.Screen,4_34_2,2023-10-31T00:24:52.125Z,,0,,,NaN,,,,,,false,,,,588504.6000000238,588504.3999999762,,588504.1999999881,,588513.595,8,400,,,
sequence,flow.Sequence,4_34,2023-10-31T00:24:52.125Z,,0,,,8317.212999976124,completion,,,,,false,,,,588504.8999999762,588504.3999999762,580170.386,580179.3999999762,580187.187,588513.595,8,400,,,
trial,html.Screen,4_35_0,2023-10-31T00:24:57.264Z,,0,1,,5129.405000000028,response,ISIC_8822331.JPG,5,ISIC_2603420.JPG,ISIC_2603420.JPG,false,0,keypress(z),500,593643.5,593643,588497.055,588505.1000000238,588513.595,593659.34,8,400,36,,ISIC_8822331.JPG
break,html.Screen,4_35_1,2023-10-31T00:24:57.265Z,,0,,,NaN,,,,,,false,,,,593644.8000000119,593644.5,,593643.8000000119,,593659.34,8,400,,,
break_continue,html.Screen,4_35_2,2023-10-31T00:24:57.266Z,,0,,,NaN,,,,,,false,,,,593645.3999999762,593645.1999999881,,593645,,593659.34,8,400,,,
sequence,flow.Sequence,4_35,2023-10-31T00:24:57.266Z,,0,,,5131.604999988107,completion,,,,,false,,,,593645.6999999881,593645.1999999881,588497.055,588505,588513.595,593659.34,8,400,,,
trial,html.Screen,4_36_0,2023-10-31T00:25:00.279Z,,0,1,,2998.8599999881117,response,ISIC_0031909.JPG,5,ISIC_5644242.JPG,ISIC_5644242.JPG,false,0,keypress(z),500,596658.6000000238,596658.1999999881,593642.747,593646.1000000238,593659.34,596673.552,8,400,37,,ISIC_0031909.JPG
break,html.Screen,4_36_1,2023-10-31T00:25:00.281Z,,0,,,NaN,,,,,,false,,,,596660,596659.6999999881,,596658.8999999762,,596673.552,8,400,,,
break_continue,html.Screen,4_36_2,2023-10-31T00:25:00.281Z,,0,,,NaN,,,,,,false,,,,596660.8999999762,596660.6999999881,,596660.3999999762,,596673.552,8,400,,,
sequence,flow.Sequence,4_36,2023-10-31T00:25:00.282Z,,0,,,3001.3599999881117,completion,,,,,false,,,,596661.3999999762,596660.6999999881,593642.747,593646,593659.34,596673.552,8,400,,,
trial,html.Screen,4_37_0,2023-10-31T00:25:03.277Z,,0,1,,2982.748000011896,response,ISIC_0046773.JPG,6,ISIC_9222136.JPG,ISIC_9222136.JPG,false,0,keypress(z),500,599656.6999999881,599656.3000000119,596657.031,596661.6999999881,596673.552,599671.203,8,400,38,,ISIC_0046773.JPG
break,html.Screen,4_37_1,2023-10-31T00:25:03.279Z,,0,,,NaN,,,,,,false,,,,599658,599657.6999999881,,599657,,599671.203,8,400,,,
break_continue,html.Screen,4_37_2,2023-10-31T00:25:03.279Z,,0,,,NaN,,,,,,false,,,,599658.6999999881,599658.5,,599658.3000000119,,599671.203,8,400,,,
sequence,flow.Sequence,4_37,2023-10-31T00:25:03.279Z,,0,,,2984.947999999975,completion,,,,,false,,,,599659,599658.5,596657.031,596661.6999999881,596673.552,599671.203,8,400,,,
trial,html.Screen,4_38_0,2023-10-31T00:25:11.618Z,,0,1,,8326.397000023862,response,ISIC_0033148.JPG,5,ISIC_0053659.JPG,ISIC_0033148.JPG,false,1,keypress(m),500,607997.8000000119,607997.6000000238,599654.508,599659.1999999881,599671.203,608014.171,8,400,39,,ISIC_0053659.JPG
break,html.Screen,4_38_1,2023-10-31T00:25:11.619Z,,0,,,NaN,,,,,,false,,,,607998.3999999762,607998.3000000119,,607997.8999999762,,608014.171,8,400,,,
break_continue,html.Screen,4_38_2,2023-10-31T00:25:11.619Z,,0,,,NaN,,,,,,false,,,,607998.6999999881,607998.6999999881,,607998.5,,608014.171,8,400,,,
sequence,flow.Sequence,4_38,2023-10-31T00:25:11.619Z,,0,,,8327.4969999881,completion,,,,,false,,,,607998.8000000119,607998.6999999881,599654.508,599659.1000000238,599671.203,608014.171,8,400,,,
trial,html.Screen,4_39_0,2023-10-31T00:25:14.404Z,,0,1,,2769.629000011948,response,ISIC_0011801.JPG,4,ISIC_7604596.JPG,ISIC_7604596.JPG,false,0,keypress(z),500,610784,610783.8000000119,607997.582,607998.8999999762,608014.171,610795.269,8,400,40,,ISIC_0011801.JPG
break,html.Screen,4_39_1,2023-10-31T00:25:14.405Z,,0,,,NaN,,,,,,false,,,,610784.5,610784.3000000119,,610784.1000000238,,610795.269,8,400,,,
break_continue,html.Screen,4_39_2,2023-10-31T00:25:14.405Z,,0,,,NaN,,,,,,false,,,,610784.6999999881,610784.6999999881,,610784.6000000238,,610795.269,8,400,,,
sequence,flow.Sequence,4_39,2023-10-31T00:25:14.405Z,,0,,,2770.528999988106,completion,,,,,false,,,,610784.8999999762,610784.6999999881,607997.582,607998.8000000119,608014.171,610795.269,8,400,,,
trial,html.Screen,4_40_0,2023-10-31T00:25:17.864Z,,0,1,,3447.430999988108,response,ISIC_0061606.JPG,5,ISIC_1337726.JPG,ISIC_1337726.JPG,false,0,keypress(z),500,614243.1000000238,614242.6999999881,610778.781,610785,610795.269,614259.042,8,400,41,,ISIC_0061606.JPG
break,html.Screen,4_40_1,2023-10-31T00:25:17.865Z,,0,,,NaN,,,,,,false,,,,614244.8000000119,614244.1000000238,,614243.5,,614259.042,8,400,,,
break_continue,html.Screen,4_40_2,2023-10-31T00:25:17.866Z,,0,,,NaN,,,,,,false,,,,614245.8999999762,614245.6000000238,,614245.1999999881,,614259.042,8,400,,,
sequence,flow.Sequence,4_40,2023-10-31T00:25:17.867Z,,0,,,3450.3310000238707,completion,,,,,false,,,,614246.5,614245.6000000238,610778.781,610785,610795.269,614259.042,8,400,,,
trial,html.Screen,4_41_0,2023-10-31T00:25:21.087Z,,0,1,,3207.3579999761423,response,ISIC_3246746.JPG,4,ISIC_0011793.JPG,ISIC_3246746.JPG,false,1,keypress(m),500,617466.8000000119,617466.3999999762,614242.546,614246.8000000119,614259.042,617473.115,8,400,42,,ISIC_0011793.JPG
break,html.Screen,4_41_1,2023-10-31T00:25:21.089Z,,0,,,NaN,,,,,,false,,,,617468.1999999881,617467.8000000119,,617467.1000000238,,617473.115,8,400,,,
break_continue,html.Screen,4_41_2,2023-10-31T00:25:21.089Z,,0,,,NaN,,,,,,false,,,,617468.6999999881,617468.6000000238,,617468.3000000119,,617473.115,8,400,,,
sequence,flow.Sequence,4_41,2023-10-31T00:25:21.089Z,,0,,,3209.558000023826,completion,,,,,false,,,,617469,617468.6000000238,614242.546,614246.6999999881,614259.042,617473.115,8,400,,,
trial,html.Screen,4_42_0,2023-10-31T00:25:27.029Z,,0,1,,5934.885000000009,response,ISIC_7186677.JPG,5,ISIC_0061972.JPG,ISIC_0061972.JPG,false,0,keypress(z),500,623408.3999999762,623408,617456.403,617469.1999999881,617473.115,623418.202,8,400,43,,ISIC_7186677.JPG
break,html.Screen,4_42_1,2023-10-31T00:25:27.030Z,,0,,,NaN,,,,,,false,,,,623409.8999999762,623409.3999999762,,623408.8000000119,,623418.202,8,400,,,
break_continue,html.Screen,4_42_2,2023-10-31T00:25:27.031Z,,0,,,NaN,,,,,,false,,,,623410.5,623410.3000000119,,623410.1000000238,,623418.202,8,400,,,
sequence,flow.Sequence,4_42,2023-10-31T00:25:27.031Z,,0,,,5937.18500001193,completion,,,,,false,,,,623410.8000000119,623410.3000000119,617456.403,617469.1999999881,617473.115,623418.202,8,400,,,
trial,html.Screen,4_43_0,2023-10-31T00:25:30.490Z,,0,1,,3450.5980000118725,response,ISIC_2214766.JPG,5,ISIC_8020153.JPG,ISIC_8020153.JPG,false,0,keypress(z),500,626869.1999999881,626868.8000000119,623401.559,623411,623418.202,626882.059,8,400,44,,ISIC_2214766.JPG
break,html.Screen,4_43_1,2023-10-31T00:25:30.491Z,,0,,,NaN,,,,,,false,,,,626870.6999999881,626870.3999999762,,626869.5,,626882.059,8,400,,,
break_continue,html.Screen,4_43_2,2023-10-31T00:25:30.492Z,,0,,,NaN,,,,,,false,,,,626871.3999999762,626871.1999999881,,626870.8999999762,,626882.059,8,400,,,
sequence,flow.Sequence,4_43,2023-10-31T00:25:30.492Z,,0,,,3452.9979999880306,completion,,,,,false,,,,626871.6999999881,626871.1999999881,623401.559,623410.8999999762,623418.202,626882.059,8,400,,,
trial,html.Screen,4_44_0,2023-10-31T00:25:33.711Z,,0,1,,3208.4409999999916,response,ISIC_5369000.JPG,4,ISIC_7850786.JPG,ISIC_5369000.JPG,false,1,keypress(m),500,630090.8999999762,630090.5,626865.355,626871.8999999762,626882.059,630096.113,8,400,45,,ISIC_7850786.JPG
break,html.Screen,4_44_1,2023-10-31T00:25:33.713Z,,0,,,NaN,,,,,,false,,,,630092.3000000119,630092,,630091.1999999881,,630096.113,8,400,,,
break_continue,html.Screen,4_44_2,2023-10-31T00:25:33.714Z,,0,,,NaN,,,,,,false,,,,630093,630092.6999999881,,630092.5,,630096.113,8,400,,,
sequence,flow.Sequence,4_44,2023-10-31T00:25:33.714Z,,0,,,3210.6409999880707,completion,,,,,false,,,,630093.3000000119,630092.6999999881,626865.355,626871.8000000119,626882.059,630096.113,8,400,,,
trial,html.Screen,4_45_0,2023-10-31T00:25:37.508Z,,0,1,,3791.586999988067,response,ISIC_4529363.JPG,5,ISIC_0058950.JPG,ISIC_4529363.JPG,false,1,keypress(m),500,633887.8999999762,633887.6999999881,630079.62,630093.5,630096.113,633892.847,8,400,46,,ISIC_0058950.JPG
break,html.Screen,4_45_1,2023-10-31T00:25:37.509Z,,0,,,NaN,,,,,,false,,,,633888.3999999762,633888.3000000119,,633888,,633892.847,8,400,,,
break_continue,html.Screen,4_45_2,2023-10-31T00:25:37.509Z,,0,,,NaN,,,,,,false,,,,633888.6999999881,633888.6000000238,,633888.6000000238,,633892.847,8,400,,,
sequence,flow.Sequence,4_45,2023-10-31T00:25:37.509Z,,0,,,3792.4870000238298,completion,,,,,false,,,,633888.8000000119,633888.6000000238,630079.62,630093.5,630096.113,633892.847,8,400,,,
trial,html.Screen,4_46_0,2023-10-31T00:25:41.111Z,,0,1,,3597.1530000000494,response,ISIC_0028018.JPG,5,ISIC_0011799.JPG,ISIC_0028018.JPG,false,1,keypress(m),500,637490.1999999881,637490,633876.401,633888.8999999762,633892.847,637506.605,8,400,47,,ISIC_0011799.JPG
break,html.Screen,4_46_1,2023-10-31T00:25:41.112Z,,0,,,NaN,,,,,,false,,,,637491,637490.8000000119,,637490.3999999762,,637506.605,8,400,,,
break_continue,html.Screen,4_46_2,2023-10-31T00:25:41.112Z,,0,,,NaN,,,,,,false,,,,637491.3000000119,637491.1999999881,,637491.1000000238,,637506.605,8,400,,,
sequence,flow.Sequence,4_46,2023-10-31T00:25:41.112Z,,0,,,3598.3529999881284,completion,,,,,false,,,,637491.5,637491.1999999881,633876.401,633888.8999999762,633892.847,637506.605,8,400,,,
trial,html.Screen,4_47_0,2023-10-31T00:25:44.779Z,,0,1,,3651.1950000119396,response,ISIC_4517738.JPG,4,ISIC_0032750.JPG,ISIC_0032750.JPG,false,0,keypress(z),500,641158.1000000238,641157.8000000119,637490.037,637491.6000000238,637506.605,641170.23,8,400,48,,ISIC_4517738.JPG
break,html.Screen,4_47_1,2023-10-31T00:25:44.780Z,,0,,,NaN,,,,,,false,,,,641159.1999999881,641158.8000000119,,641158.3000000119,,641170.23,8,400,,,
break_continue,html.Screen,4_47_2,2023-10-31T00:25:44.780Z,,0,,,NaN,,,,,,false,,,,641159.5,641159.3999999762,,641159.3000000119,,641170.23,8,400,,,
sequence,flow.Sequence,4_47,2023-10-31T00:25:44.780Z,,0,,,3652.7949999761768,completion,,,,,false,,,,641159.6999999881,641159.3999999762,637490.037,637491.5,637506.605,641170.23,8,400,,,
trial,html.Screen,4_48_0,2023-10-31T00:25:48.302Z,,0,1,,3511.1699999761768,response,ISIC_9121369.JPG,5,ISIC_0033071.JPG,ISIC_9121369.JPG,false,1,keypress(m),500,644681.5,644681.3999999762,641153.705,641159.8000000119,641170.23,644684.013,8,400,49,,ISIC_0033071.JPG
break,html.Screen,4_48_1,2023-10-31T00:25:48.303Z,,0,,,NaN,,,,,,false,,,,644682.1000000238,644681.8000000119,,644681.6999999881,,644684.013,8,400,,,
break_continue,html.Screen,4_48_2,2023-10-31T00:25:48.303Z,,0,,,NaN,,,,,,false,,,,644682.3000000119,644682.1999999881,,644682.1000000238,,644684.013,8,400,,,
sequence,flow.Sequence,4_48,2023-10-31T00:25:48.303Z,,0,,,3511.9699999880977,completion,,,,,false,,,,644682.3999999762,644682.1999999881,641153.705,641159.8000000119,641170.23,644684.013,8,400,,,
trial,html.Screen,4_49_0,2023-10-31T00:25:50.944Z,,0,1,,2639.2870000118855,response,ISIC_2072219.JPG,5,ISIC_0032549.JPG,ISIC_2072219.JPG,false,1,keypress(m),500,647323.6999999881,647323.3000000119,644667.506,644682.3999999762,644684.013,647331.881,8,400,50,,ISIC_0032549.JPG
break,html.Screen,4_49_1,2023-10-31T00:26:00.928Z,,0,,,9991.839999999967,timeout,,,,,false,,,,657307.8999999762,657307.073,647315.193,647324,647331.881,657323.721,8,400,,,
break_continue,html.Screen,4_49_2,2023-10-31T00:26:02.057Z,,0,,,1095.2789999999804,response,,,,,false,continue,keypress(Space),,658436.5,658419,657307.073,657308.1000000238,657323.721,658439.358,8,400,,,
sequence,flow.Sequence,4_49,2023-10-31T00:26:02.057Z,,0,,,13734.986999999965,completion,,,,,false,,,,658436.6999999881,658419,644667.506,644682.3999999762,644684.013,658439.358,8,400,,,
trial,html.Screen,4_50_0,2023-10-31T00:26:05.292Z,,0,2,,3231.7420000238344,response,ISIC_7575815.JPG,5,ISIC_6475049.JPG,ISIC_7575815.JPG,false,1,keypress(m),500,661671.1999999881,661671.1000000238,658422.606,658436.8999999762,658439.358,661686.78,8,400,1,,ISIC_6475049.JPG
break,html.Screen,4_50_1,2023-10-31T00:26:05.292Z,,0,,,NaN,,,,,,false,,,,661671.8000000119,661671.6000000238,,661671.3000000119,,661686.78,8,400,,,
break_continue,html.Screen,4_50_2,2023-10-31T00:26:05.293Z,,0,,,NaN,,,,,,false,,,,661672.1000000238,661671.8999999762,,661671.8999999762,,661686.78,8,400,,,
sequence,flow.Sequence,4_50,2023-10-31T00:26:05.293Z,,0,,,3232.5419999761507,completion,,,,,false,,,,661672.1999999881,661671.8999999762,658422.606,658436.8999999762,658439.358,661686.78,8,400,,,
trial,html.Screen,4_51_0,2023-10-31T00:26:10.702Z,,0,2,,5394.719999999972,response,ISIC_0029214.JPG,5,ISIC_0024421.JPG,ISIC_0024421.JPG,false,0,keypress(z),500,667081.6999999881,667081.5,661670.104,661672.3000000119,661686.78,667098.939,8,400,2,,ISIC_0029214.JPG
break,html.Screen,4_51_1,2023-10-31T00:26:10.703Z,,0,,,NaN,,,,,,false,,,,667082.3000000119,667082,,667081.6999999881,,667098.939,8,400,,,
break_continue,html.Screen,4_51_2,2023-10-31T00:26:10.703Z,,0,,,NaN,,,,,,false,,,,667082.6000000238,667082.5,,667082.3999999762,,667098.939,8,400,,,
sequence,flow.Sequence,4_51,2023-10-31T00:26:10.703Z,,0,,,5395.719999999972,completion,,,,,false,,,,667082.6999999881,667082.5,661670.104,661672.1999999881,661686.78,667098.939,8,400,,,
trial,html.Screen,4_52_0,2023-10-31T00:26:18.080Z,,0,2,,7360.760999988066,response,ISIC_9308275.JPG,5,ISIC_7131973.JPG,ISIC_9308275.JPG,false,1,keypress(m),500,674459.8999999762,674459.6999999881,667065.67,667082.6999999881,667098.939,674476.174,8,400,3,,ISIC_7131973.JPG
break,html.Screen,4_52_1,2023-10-31T00:26:18.081Z,,0,,,NaN,,,,,,false,,,,674460.5,674460.3000000119,,674460.1000000238,,674476.174,8,400,,,
break_continue,html.Screen,4_52_2,2023-10-31T00:26:18.081Z,,0,,,NaN,,,,,,false,,,,674460.6999999881,674460.6000000238,,674460.5,,674476.174,8,400,,,
sequence,flow.Sequence,4_52,2023-10-31T00:26:18.081Z,,0,,,7361.661000023829,completion,,,,,false,,,,674460.6999999881,674460.6000000238,667065.67,667082.6999999881,667098.939,674476.174,8,400,,,
trial,html.Screen,4_53_0,2023-10-31T00:26:22.947Z,,0,2,,4849.725999976159,response,ISIC_0070136.JPG,5,ISIC_7296201.JPG,ISIC_0070136.JPG,false,1,keypress(m),500,679326.3000000119,679325.8999999762,674459.586,674460.8999999762,674476.174,679338.864,8,400,4,,ISIC_7296201.JPG
break,html.Screen,4_53_1,2023-10-31T00:26:22.949Z,,0,,,NaN,,,,,,false,,,,679328,679327.6999999881,,679326.6000000238,,679338.864,8,400,,,
break_continue,html.Screen,4_53_2,2023-10-31T00:26:22.949Z,,0,,,NaN,,,,,,false,,,,679328.6999999881,679328.5,,679328.1999999881,,679338.864,8,400,,,
sequence,flow.Sequence,4_53,2023-10-31T00:26:22.950Z,,0,,,4852.326000000001,completion,,,,,false,,,,679329,679328.5,674459.586,674460.8999999762,674476.174,679338.864,8,400,,,
trial,html.Screen,4_54_0,2023-10-31T00:26:26.521Z,,0,2,,3561.535999976215,response,ISIC_2661598.JPG,5,ISIC_0011177.JPG,ISIC_2661598.JPG,false,1,keypress(m),500,682900.6999999881,682900.3999999762,679322.221,679329.1999999881,679338.864,682919.993,8,400,5,,ISIC_0011177.JPG
break,html.Screen,4_54_1,2023-10-31T00:26:26.523Z,,0,,,NaN,,,,,,false,,,,682901.8999999762,682901.6999999881,,682901,,682919.993,8,400,,,
break_continue,html.Screen,4_54_2,2023-10-31T00:26:26.523Z,,0,,,NaN,,,,,,false,,,,682902.6000000238,682902.3000000119,,682902.1000000238,,682919.993,8,400,,,
sequence,flow.Sequence,4_54,2023-10-31T00:26:26.523Z,,0,,,3563.4360000119777,completion,,,,,false,,,,682902.8999999762,682902.3000000119,679322.221,679329.1999999881,679338.864,682919.993,8,400,,,
trial,html.Screen,4_55_0,2023-10-31T00:26:29.439Z,,0,2,,2898.0069999999832,response,ISIC_8154363.JPG,5,ISIC_2436560.JPG,ISIC_2436560.JPG,false,0,keypress(z),500,685818.3999999762,685818,682885.994,682903,682919.993,685833.49,8,400,6,,ISIC_8154363.JPG
break,html.Screen,4_55_1,2023-10-31T00:26:29.440Z,,0,,,NaN,,,,,,false,,,,685819.8999999762,685819.5,,685818.6999999881,,685833.49,8,400,,,
break_continue,html.Screen,4_55_2,2023-10-31T00:26:29.441Z,,0,,,NaN,,,,,,false,,,,685820.5,685820.3000000119,,685820.1000000238,,685833.49,8,400,,,
sequence,flow.Sequence,4_55,2023-10-31T00:26:29.441Z,,0,,,2900.307000011904,completion,,,,,false,,,,685820.8000000119,685820.3000000119,682885.994,682903,682919.993,685833.49,8,400,,,
trial,html.Screen,4_56_0,2023-10-31T00:26:40.946Z,,0,2,,11507.648999999976,timeout,ISIC_0011268.JPG,5,ISIC_4502605.JPG,ISIC_4502605.JPG,false,,,500,697325,697324.5,685816.851,685821.1000000238,685833.49,,8,400,7,,ISIC_0011268.JPG
break,html.Screen,4_56_1,2023-10-31T00:26:40.947Z,,0,,,NaN,,,,,,false,,,,697326.1999999881,697325.8000000119,,697325.3000000119,,697357.402,8,400,,,
break_continue,html.Screen,4_56_2,2023-10-31T00:26:40.947Z,,0,,,NaN,,,,,,false,,,,697326.6999999881,697326.5,,697326.3000000119,,697357.402,8,400,,,
sequence,flow.Sequence,4_56,2023-10-31T00:26:40.947Z,,0,,,11493.01000000001,completion,,,,,false,,,,697326.8999999762,697326.5,685816.851,685821,685833.49,697357.402,8,400,,,
trial,html.Screen,4_56_0,2023-10-31T00:26:40.966Z,,0,2,,11511.81000001193,response,ISIC_0011268.JPG,5,ISIC_4502605.JPG,ISIC_4502605.JPG,false,0,keypress(z),500,697345.5,697345.3000000119,685816.851,685821.1000000238,685833.49,697357.402,8,400,7,,ISIC_0011268.JPG
trial,html.Screen,4_57_0,2023-10-31T00:26:43.702Z,,0,2,,2723.797999988077,response,ISIC_0013767.JPG,5,ISIC_6227397.JPG,ISIC_0013767.JPG,false,1,keypress(m),500,700081.3999999762,700081.1999999881,697340.79,697327.1000000238,697357.402,700088.41,8,400,8,,ISIC_6227397.JPG
break,html.Screen,4_57_1,2023-10-31T00:26:43.703Z,,0,,,NaN,,,,,,false,,,,700082.1999999881,700082,,700081.6000000238,,700088.41,8,400,,,
break_continue,html.Screen,4_57_2,2023-10-31T00:26:43.703Z,,0,,,NaN,,,,,,false,,,,700082.6000000238,700082.3999999762,,700082.3000000119,,700088.41,8,400,,,
sequence,flow.Sequence,4_57,2023-10-31T00:26:43.703Z,,0,,,2724.9979999761563,completion,,,,,false,,,,700082.6999999881,700082.3999999762,697340.79,697327,697357.402,700088.41,8,400,,,
trial,html.Screen,4_58_0,2023-10-31T00:26:47.721Z,,0,2,,4011.4899999761255,response,ISIC_4442490.JPG,5,ISIC_0063899.JPG,ISIC_0063899.JPG,false,0,keypress(z),500,704100.1999999881,704099.8999999762,700071.82,700082.8000000119,700088.41,704101.815,8,400,9,,ISIC_4442490.JPG
break,html.Screen,4_58_1,2023-10-31T00:26:47.721Z,,0,,,NaN,,,,,,false,,,,704100.8999999762,704100.6000000238,,704100.3000000119,,704101.815,8,400,,,
break_continue,html.Screen,4_58_2,2023-10-31T00:26:47.722Z,,0,,,NaN,,,,,,false,,,,704101.1999999881,704101.1000000238,,704101,,704101.815,8,400,,,
sequence,flow.Sequence,4_58,2023-10-31T00:26:47.722Z,,0,,,4012.6900000238093,completion,,,,,false,,,,704101.3999999762,704101.1000000238,700071.82,700082.6999999881,700088.41,704101.815,8,400,,,
trial,html.Screen,4_59_0,2023-10-31T00:26:50.636Z,,0,2,,2913.884999988135,response,ISIC_0030829.JPG,5,ISIC_0061379.JPG,ISIC_0030829.JPG,false,1,keypress(m),500,707015.8000000119,707015.6999999881,704085.151,704101.5,704101.815,707032.801,8,400,10,,ISIC_0061379.JPG
break,html.Screen,4_59_1,2023-10-31T00:26:50.637Z,,0,,,NaN,,,,,,false,,,,707016.5,707016.3000000119,,707015.8999999762,,707032.801,8,400,,,
break_continue,html.Screen,4_59_2,2023-10-31T00:26:50.637Z,,0,,,NaN,,,,,,false,,,,707016.8000000119,707016.6999999881,,707016.6000000238,,707032.801,8,400,,,
sequence,flow.Sequence,4_59,2023-10-31T00:26:50.638Z,,0,,,2914.884999988135,completion,,,,,false,,,,707016.8999999762,707016.6999999881,704085.151,704101.3999999762,704101.815,707032.801,8,400,,,
trial,html.Screen,4_60_0,2023-10-31T00:26:53.935Z,,0,2,,3281.4990000119433,response,ISIC_7768567.JPG,4,ISIC_9801917.JPG,ISIC_9801917.JPG,false,0,keypress(z),500,710314.6000000238,710314.3000000119,707016.103,707016.8999999762,707032.801,710330.022,8,400,11,,ISIC_7768567.JPG
break,html.Screen,4_60_1,2023-10-31T00:26:53.936Z,,0,,,NaN,,,,,,false,,,,710315.3000000119,710315.1999999881,,710314.6999999881,,710330.022,8,400,,,
break_continue,html.Screen,4_60_2,2023-10-31T00:26:53.936Z,,0,,,NaN,,,,,,false,,,,710315.6999999881,710315.5,,710315.3999999762,,710330.022,8,400,,,
sequence,flow.Sequence,4_60,2023-10-31T00:26:53.936Z,,0,,,3282.6990000000224,completion,,,,,false,,,,710315.8000000119,710315.5,707016.103,707016.8999999762,707032.801,710330.022,8,400,,,
trial,html.Screen,4_61_0,2023-10-31T00:26:58.771Z,,0,2,,4820.278000011924,response,ISIC_0973194.JPG,6,ISIC_0028949.JPG,ISIC_0973194.JPG,false,1,keypress(m),500,715150.6000000238,715150.3000000119,710313.464,710316,710330.022,715159.44,8,400,12,,ISIC_0028949.JPG
break,html.Screen,4_61_1,2023-10-31T00:26:58.772Z,,0,,,NaN,,,,,,false,,,,715151.6999999881,715151.3000000119,,715150.8000000119,,715159.44,8,400,,,
break_continue,html.Screen,4_61_2,2023-10-31T00:26:58.773Z,,0,,,NaN,,,,,,false,,,,715152,715151.8999999762,,715151.8000000119,,715159.44,8,400,,,
sequence,flow.Sequence,4_61,2023-10-31T00:26:58.773Z,,0,,,4821.877999976161,completion,,,,,false,,,,715152.3000000119,715151.8999999762,710313.464,710315.8999999762,710330.022,715159.44,8,400,,,
trial,html.Screen,4_62_0,2023-10-31T00:27:01.831Z,,0,2,,3050.759999988135,response,ISIC_8865595.JPG,5,ISIC_3416107.JPG,ISIC_8865595.JPG,false,1,keypress(m),500,718210.5,718210.1999999881,715142.713,715152.5,715159.44,718223.635,8,400,13,,ISIC_3416107.JPG
break,html.Screen,4_62_1,2023-10-31T00:27:01.832Z,,0,,,NaN,,,,,,false,,,,718211.6000000238,718211.1999999881,,718210.8000000119,,718223.635,8,400,,,
break_continue,html.Screen,4_62_2,2023-10-31T00:27:01.833Z,,0,,,NaN,,,,,,false,,,,718212.1000000238,718212,,718211.8000000119,,718223.635,8,400,,,
sequence,flow.Sequence,4_62,2023-10-31T00:27:01.833Z,,0,,,3052.560000000056,completion,,,,,false,,,,718212.3000000119,718212,715142.713,715152.5,715159.44,718223.635,8,400,,,
trial,html.Screen,4_63_0,2023-10-31T00:27:04.795Z,,0,2,,2950.1650000119116,response,ISIC_0072252.JPG,5,ISIC_0029026.JPG,ISIC_0072252.JPG,false,1,keypress(m),500,721174,721173.8000000119,718206.843,718212.3999999762,718223.635,721187.797,8,400,14,,ISIC_0029026.JPG
break,html.Screen,4_63_1,2023-10-31T00:27:04.795Z,,0,,,NaN,,,,,,false,,,,721174.3999999762,721174.3000000119,,721174.1000000238,,721187.797,8,400,,,
break_continue,html.Screen,4_63_2,2023-10-31T00:27:04.795Z,,0,,,NaN,,,,,,false,,,,721174.6999999881,721174.6000000238,,721174.5,,721187.797,8,400,,,
sequence,flow.Sequence,4_63,2023-10-31T00:27:04.795Z,,0,,,2950.9650000238325,completion,,,,,false,,,,721174.8000000119,721174.6000000238,718206.843,718212.3999999762,718223.635,721187.797,8,400,,,
trial,html.Screen,4_64_0,2023-10-31T00:27:08.957Z,,0,2,,4148.5030000119,response,ISIC_1497800.JPG,6,ISIC_2221217.JPG,ISIC_2221217.JPG,false,0,keypress(z),500,725336.5,725336.3000000119,721171.195,721174.8999999762,721187.797,725351.081,8,400,15,,ISIC_1497800.JPG
break,html.Screen,4_64_1,2023-10-31T00:27:08.958Z,,0,,,NaN,,,,,,false,,,,725337,725336.8999999762,,725336.6000000238,,725351.081,8,400,,,
break_continue,html.Screen,4_64_2,2023-10-31T00:27:08.958Z,,0,,,NaN,,,,,,false,,,,725337.1999999881,725337.1999999881,,725337.1000000238,,725351.081,8,400,,,
sequence,flow.Sequence,4_64,2023-10-31T00:27:08.958Z,,0,,,4149.402999988059,completion,,,,,false,,,,725337.3999999762,725337.1999999881,721171.195,721174.8000000119,721187.797,725351.081,8,400,,,
trial,html.Screen,4_65_0,2023-10-31T00:27:12.112Z,,0,2,,3139.7190000119153,response,ISIC_9644813.JPG,5,ISIC_7921023.JPG,ISIC_9644813.JPG,false,1,keypress(m),500,728491.1000000238,728490.8000000119,725334.434,725337.3999999762,725351.081,728498.458,8,400,16,,ISIC_7921023.JPG
break,html.Screen,4_65_1,2023-10-31T00:27:12.113Z,,0,,,NaN,,,,,,false,,,,728492.1000000238,728491.8000000119,,728491.3000000119,,728498.458,8,400,,,
break_continue,html.Screen,4_65_2,2023-10-31T00:27:12.113Z,,0,,,NaN,,,,,,false,,,,728492.5,728492.3999999762,,728492.1999999881,,728498.458,8,400,,,
sequence,flow.Sequence,4_65,2023-10-31T00:27:12.113Z,,0,,,3141.3189999761526,completion,,,,,false,,,,728492.8000000119,728492.3999999762,725334.434,725337.3999999762,725351.081,728498.458,8,400,,,
trial,html.Screen,4_66_0,2023-10-31T00:27:16.516Z,,0,2,,4397.042000000016,response,ISIC_0013258.JPG,5,ISIC_0054480.JPG,ISIC_0054480.JPG,false,0,keypress(z),500,732895.8999999762,732895.5,728481.843,728493,728498.458,732911.486,8,400,17,,ISIC_0013258.JPG
break,html.Screen,4_66_1,2023-10-31T00:27:16.517Z,,0,,,NaN,,,,,,false,,,,732896.6999999881,732896.5,,732896.1000000238,,732911.486,8,400,,,
break_continue,html.Screen,4_66_2,2023-10-31T00:27:16.518Z,,0,,,NaN,,,,,,false,,,,732897,732897,,732896.8000000119,,732911.486,8,400,,,
sequence,flow.Sequence,4_66,2023-10-31T00:27:16.518Z,,0,,,4398.542000000016,completion,,,,,false,,,,732897.1999999881,732897,728481.843,728492.8999999762,728498.458,732911.486,8,400,,,
trial,html.Screen,4_67_0,2023-10-31T00:27:19.272Z,,0,2,,2739.4139999761246,response,ISIC_0030219.JPG,4,ISIC_7012881.JPG,ISIC_7012881.JPG,false,0,keypress(z),500,735651.5,735650.8999999762,732894.848,732897.3000000119,732911.486,735659.294,8,400,18,,ISIC_0030219.JPG
break,html.Screen,4_67_1,2023-10-31T00:27:19.273Z,,0,,,NaN,,,,,,false,,,,735652.8000000119,735652.5,,735651.8999999762,,735659.294,8,400,,,
break_continue,html.Screen,4_67_2,2023-10-31T00:27:19.274Z,,0,,,NaN,,,,,,false,,,,735653.6999999881,735653.3999999762,,735653,,735659.294,8,400,,,
sequence,flow.Sequence,4_67,2023-10-31T00:27:19.275Z,,0,,,2741.9139999761246,completion,,,,,false,,,,735653.8999999762,735653.3999999762,732894.848,732897.3000000119,732911.486,735659.294,8,400,,,
trial,html.Screen,4_68_0,2023-10-31T00:27:22.785Z,,0,2,,3504.6059999761637,response,ISIC_0071245.JPG,8,ISIC_0034104.JPG,ISIC_0071245.JPG,false,1,keypress(m),500,739164.3999999762,739163.8999999762,735642.639,735654.1999999881,735659.294,739172.959,8,400,19,,ISIC_0034104.JPG
break,html.Screen,4_68_1,2023-10-31T00:27:22.786Z,,0,,,NaN,,,,,,false,,,,739165.8000000119,739165.5,,739164.8000000119,,739172.959,8,400,,,
break_continue,html.Screen,4_68_2,2023-10-31T00:27:22.787Z,,0,,,NaN,,,,,,false,,,,739166.3999999762,739166.1999999881,,739166,,739172.959,8,400,,,
sequence,flow.Sequence,4_68,2023-10-31T00:27:22.787Z,,0,,,3506.9059999880847,completion,,,,,false,,,,739166.6000000238,739166.1999999881,735642.639,735654.1000000238,735659.294,739172.959,8,400,,,
trial,html.Screen,4_69_0,2023-10-31T00:27:26.406Z,,0,2,,3612.0409999999683,response,ISIC_0226072.JPG,5,ISIC_0060972.JPG,ISIC_0226072.JPG,false,1,keypress(m),500,742785.1999999881,742785,739156.386,739166.8000000119,739172.959,742803.385,8,400,20,,ISIC_0060972.JPG
break,html.Screen,4_69_1,2023-10-31T00:27:26.406Z,,0,,,NaN,,,,,,false,,,,742785.8999999762,742785.6999999881,,742785.3000000119,,742803.385,8,400,,,
break_continue,html.Screen,4_69_2,2023-10-31T00:27:26.407Z,,0,,,NaN,,,,,,false,,,,742786.3000000119,742786.1000000238,,742786,,742803.385,8,400,,,
sequence,flow.Sequence,4_69,2023-10-31T00:27:26.407Z,,0,,,3613.14100002381,completion,,,,,false,,,,742786.3999999762,742786.1000000238,739156.386,739166.8000000119,739172.959,742803.385,8,400,,,
trial,html.Screen,4_70_0,2023-10-31T00:27:29.819Z,,0,2,,3394.3149999880698,response,ISIC_6423860.JPG,5,ISIC_0009871.JPG,ISIC_0009871.JPG,false,0,keypress(z),500,746198,746197.6999999881,742786.665,742786.6000000238,742803.385,746200.57,8,400,21,,ISIC_6423860.JPG
break,html.Screen,4_70_1,2023-10-31T00:27:29.820Z,,0,,,NaN,,,,,,false,,,,746199.5,746199.1000000238,,746198.3999999762,,746200.57,8,400,,,
break_continue,html.Screen,4_70_2,2023-10-31T00:27:29.821Z,,0,,,NaN,,,,,,false,,,,746200.1999999881,746199.8999999762,,746199.6999999881,,746200.57,8,400,,,
sequence,flow.Sequence,4_70,2023-10-31T00:27:29.821Z,,0,,,3396.514999976149,completion,,,,,false,,,,746200.5,746199.8999999762,742786.665,742786.5,742803.385,746200.57,8,400,,,
trial,html.Screen,4_71_0,2023-10-31T00:27:33.763Z,,0,2,,3941.930000000051,response,ISIC_0025573.JPG,6,ISIC_0016139.JPG,ISIC_0016139.JPG,false,0,keypress(z),500,750142.8000000119,750142.5,746183.936,746201.1000000238,746200.57,750147.328,8,400,22,,ISIC_0025573.JPG
break,html.Screen,4_71_1,2023-10-31T00:27:33.765Z,,0,,,NaN,,,,,,false,,,,750144.1999999881,750144,,750143.1999999881,,750147.328,8,400,,,
break_continue,html.Screen,4_71_2,2023-10-31T00:27:33.765Z,,0,,,NaN,,,,,,false,,,,750144.6999999881,750144.5,,750144.3999999762,,750147.328,8,400,,,
sequence,flow.Sequence,4_71,2023-10-31T00:27:33.766Z,,0,,,3943.930000000051,completion,,,,,false,,,,750145,750144.5,746183.936,746200.6999999881,746200.57,750147.328,8,400,,,
trial,html.Screen,4_72_0,2023-10-31T00:27:37.064Z,,0,2,,3295.8719999880996,response,ISIC_0064044.JPG,5,ISIC_5857303.JPG,ISIC_5857303.JPG,false,0,keypress(z),500,753443.5,753443.1999999881,750130.687,750145.1999999881,750147.328,753444.505,8,400,23,,ISIC_0064044.JPG
break,html.Screen,4_72_1,2023-10-31T00:27:37.065Z,,0,,,NaN,,,,,,false,,,,753444.1000000238,753443.8999999762,,753443.6000000238,,753444.505,8,400,,,
break_continue,html.Screen,4_72_2,2023-10-31T00:27:37.065Z,,0,,,NaN,,,,,,false,,,,753444.3999999762,753444.3000000119,,753444.1999999881,,753444.505,8,400,,,
sequence,flow.Sequence,4_72,2023-10-31T00:27:37.065Z,,0,,,3296.9720000119414,completion,,,,,false,,,,753444.5,753444.3000000119,750130.687,750145.1999999881,750147.328,753444.505,8,400,,,
trial,html.Screen,4_73_0,2023-10-31T00:27:40.108Z,,0,2,,3042.095000023837,response,ISIC_9475559.JPG,5,ISIC_0025964.JPG,ISIC_9475559.JPG,false,1,keypress(m),500,756487.1000000238,756486.6000000238,753427.865,753444.6000000238,753444.505,756492.122,8,400,24,,ISIC_0025964.JPG
break,html.Screen,4_73_1,2023-10-31T00:27:40.109Z,,0,,,NaN,,,,,,false,,,,756488.5,756488.1000000238,,756487.3999999762,,756492.122,8,400,,,
break_continue,html.Screen,4_73_2,2023-10-31T00:27:40.110Z,,0,,,NaN,,,,,,false,,,,756489,756488.8000000119,,756488.6999999881,,756492.122,8,400,,,
sequence,flow.Sequence,4_73,2023-10-31T00:27:40.110Z,,0,,,3044.2950000119163,completion,,,,,false,,,,756489.1999999881,756488.8000000119,753427.865,753444.6000000238,753444.505,756492.122,8,400,,,
trial,html.Screen,4_74_0,2023-10-31T00:27:42.882Z,,0,2,,2768.277999976184,response,ISIC_0210998.JPG,5,ISIC_1925590.JPG,ISIC_1925590.JPG,false,0,keypress(z),500,759261,759260.3999999762,756475.411,756489.3999999762,756492.122,759273.22,8,400,25,,ISIC_0210998.JPG
break,html.Screen,4_74_1,2023-10-31T00:27:42.883Z,,0,,,NaN,,,,,,false,,,,759262.3999999762,759262,,759261.3999999762,,759273.22,8,400,,,
break_continue,html.Screen,4_74_2,2023-10-31T00:27:42.883Z,,0,,,NaN,,,,,,false,,,,759262.8999999762,759262.8000000119,,759262.5,,759273.22,8,400,,,
sequence,flow.Sequence,4_74,2023-10-31T00:27:42.884Z,,0,,,2770.678000011947,completion,,,,,false,,,,759263.3000000119,759262.8000000119,756475.411,756489.3999999762,756492.122,759273.22,8,400,,,
trial,html.Screen,4_75_0,2023-10-31T00:27:45.590Z,,0,2,,2695.780000000028,response,ISIC_3993924.JPG,5,ISIC_7875088.JPG,ISIC_3993924.JPG,false,1,keypress(m),500,761969,761969,759256.438,759263.6000000238,759273.22,761970.816,8,400,26,,ISIC_7875088.JPG
break,html.Screen,4_75_1,2023-10-31T00:27:45.590Z,,0,,,NaN,,,,,,false,,,,761969.5,761969.3999999762,,761969.1999999881,,761970.816,8,400,,,
break_continue,html.Screen,4_75_2,2023-10-31T00:27:45.590Z,,0,,,NaN,,,,,,false,,,,761969.8999999762,761969.8000000119,,761969.6999999881,,761970.816,8,400,,,
sequence,flow.Sequence,4_75,2023-10-31T00:27:45.591Z,,0,,,2696.580000011949,completion,,,,,false,,,,761970,761969.8000000119,759256.438,759263.5,759273.22,761970.816,8,400,,,
trial,html.Screen,4_76_0,2023-10-31T00:27:48.489Z,,0,2,,2897.1840000000084,response,ISIC_0067097.JPG,5,ISIC_0059065.JPG,ISIC_0059065.JPG,false,0,keypress(z),500,764868.1999999881,764868,761954.214,761970.1000000238,761970.816,764885.222,8,400,27,,ISIC_0067097.JPG
break,html.Screen,4_76_1,2023-10-31T00:27:48.489Z,,0,,,NaN,,,,,,false,,,,764868.8000000119,764868.6999999881,,764868.3000000119,,764885.222,8,400,,,
break_continue,html.Screen,4_76_2,2023-10-31T00:27:48.490Z,,0,,,NaN,,,,,,false,,,,764869.1000000238,764869.1000000238,,764868.8999999762,,764885.222,8,400,,,
sequence,flow.Sequence,4_76,2023-10-31T00:27:48.490Z,,0,,,2898.2840000238502,completion,,,,,false,,,,764869.1999999881,764869.1000000238,761954.214,761970.1000000238,761970.816,764885.222,8,400,,,
trial,html.Screen,4_77_0,2023-10-31T00:27:53.323Z,,0,2,,4817.1779999762075,response,ISIC_4105234.JPG,5,ISIC_0014765.JPG,ISIC_4105234.JPG,false,1,keypress(m),500,769702.5,769702.3999999762,764868.459,764869.1999999881,764885.222,769714.522,8,400,28,,ISIC_0014765.JPG
break,html.Screen,4_77_1,2023-10-31T00:27:53.324Z,,0,,,NaN,,,,,,false,,,,769703,769703,,769702.6000000238,,769714.522,8,400,,,
break_continue,html.Screen,4_77_2,2023-10-31T00:27:53.324Z,,0,,,NaN,,,,,,false,,,,769703.1999999881,769703.1000000238,,769703.1000000238,,769714.522,8,400,,,
sequence,flow.Sequence,4_77,2023-10-31T00:27:53.324Z,,0,,,4817.878000023891,completion,,,,,false,,,,769703.3999999762,769703.1000000238,764868.459,764869.1999999881,764885.222,769714.522,8,400,,,
trial,html.Screen,4_78_0,2023-10-31T00:27:57.934Z,,0,2,,4598.778000011924,response,ISIC_3329255.JPG,7,ISIC_0033605.JPG,ISIC_3329255.JPG,false,1,keypress(m),500,774313.3999999762,774313.3000000119,769697.763,769703.5,769714.522,774327.368,8,400,29,,ISIC_0033605.JPG
break,html.Screen,4_78_1,2023-10-31T00:27:57.934Z,,0,,,NaN,,,,,,false,,,,774313.8000000119,774313.6999999881,,774313.3999999762,,774327.368,8,400,,,
break_continue,html.Screen,4_78_2,2023-10-31T00:27:57.935Z,,0,,,NaN,,,,,,false,,,,774314.1000000238,774313.8999999762,,774313.8999999762,,774327.368,8,400,,,
sequence,flow.Sequence,4_78,2023-10-31T00:27:57.935Z,,0,,,4599.377999976161,completion,,,,,false,,,,774314.1000000238,774313.8999999762,769697.763,769703.5,769714.522,774327.368,8,400,,,
trial,html.Screen,4_79_0,2023-10-31T00:28:01.457Z,,0,2,,3508.5319999761414,response,ISIC_8978290.JPG,6,ISIC_2424673.JPG,ISIC_8978290.JPG,false,1,keypress(m),500,777836.1000000238,777835.8999999762,774310.811,774314.1999999881,774327.368,777841.079,8,400,30,,ISIC_2424673.JPG
break,html.Screen,4_79_1,2023-10-31T00:28:01.457Z,,0,,,NaN,,,,,,false,,,,777836.6999999881,777836.5,,777836.1999999881,,777841.079,8,400,,,
break_continue,html.Screen,4_79_2,2023-10-31T00:28:01.457Z,,0,,,NaN,,,,,,false,,,,777837,777836.8000000119,,777836.8000000119,,777841.079,8,400,,,
sequence,flow.Sequence,4_79,2023-10-31T00:28:01.458Z,,0,,,3509.432000011904,completion,,,,,false,,,,777837,777836.8000000119,774310.811,774314.1999999881,774327.368,777841.079,8,400,,,
trial,html.Screen,4_80_0,2023-10-31T00:28:04.932Z,,0,2,,3469.820999976131,response,ISIC_0010194.JPG,5,ISIC_0014173.JPG,ISIC_0010194.JPG,false,1,keypress(m),500,781311,781310.8999999762,777824.557,777837.1999999881,777841.079,781321.714,8,400,31,,ISIC_0014173.JPG
break,html.Screen,4_80_1,2023-10-31T00:28:04.932Z,,0,,,NaN,,,,,,false,,,,781311.5,781311.3999999762,,781311.1999999881,,781321.714,8,400,,,
break_continue,html.Screen,4_80_2,2023-10-31T00:28:04.932Z,,0,,,NaN,,,,,,false,,,,781311.8000000119,781311.6999999881,,781311.6999999881,,781321.714,8,400,,,
sequence,flow.Sequence,4_80,2023-10-31T00:28:04.932Z,,0,,,3470.620999988052,completion,,,,,false,,,,781312,781311.6999999881,777824.557,777837.1000000238,777841.079,781321.714,8,400,,,
trial,html.Screen,4_81_0,2023-10-31T00:28:08.646Z,,0,2,,3703.5860000118846,response,ISIC_0063081.JPG,5,ISIC_4945233.JPG,ISIC_4945233.JPG,false,0,keypress(z),500,785025.3999999762,785025.3000000119,781305.027,781312.1000000238,781321.714,785035.169,8,400,32,,ISIC_0063081.JPG
break,html.Screen,4_81_1,2023-10-31T00:28:08.647Z,,0,,,NaN,,,,,,false,,,,785026.1999999881,785026,,785025.5,,785035.169,8,400,,,
break_continue,html.Screen,4_81_2,2023-10-31T00:28:08.647Z,,0,,,NaN,,,,,,false,,,,785026.6000000238,785026.3999999762,,785026.3000000119,,785035.169,8,400,,,
sequence,flow.Sequence,4_81,2023-10-31T00:28:08.647Z,,0,,,3704.685999976122,completion,,,,,false,,,,785026.6999999881,785026.3999999762,781305.027,781312,781321.714,785035.169,8,400,,,
trial,html.Screen,4_82_0,2023-10-31T00:28:15.562Z,,0,2,,6905.331000000006,response,ISIC_6780901.JPG,5,ISIC_2215276.JPG,ISIC_2215276.JPG,false,0,keypress(z),500,791941.1000000238,791940.5,785018.529,785026.8000000119,785035.169,791946.254,8,400,33,,ISIC_6780901.JPG
break,html.Screen,4_82_1,2023-10-31T00:28:15.563Z,,0,,,NaN,,,,,,false,,,,791942.6999999881,791942.3000000119,,791941.5,,791946.254,8,400,,,
break_continue,html.Screen,4_82_2,2023-10-31T00:28:15.564Z,,0,,,NaN,,,,,,false,,,,791943.3000000119,791943.1000000238,,791942.8999999762,,791946.254,8,400,,,
sequence,flow.Sequence,4_82,2023-10-31T00:28:15.564Z,,0,,,6907.931000023847,completion,,,,,false,,,,791943.6999999881,791943.1000000238,785018.529,785026.8000000119,785035.169,791946.254,8,400,,,
trial,html.Screen,4_83_0,2023-10-31T00:28:21.856Z,,0,2,,6288.746000000043,response,ISIC_9718067.JPG,5,ISIC_5555140.JPG,ISIC_5555140.JPG,false,0,keypress(z),500,798235.1999999881,798235,791929.676,791943.6999999881,791946.254,798240.996,8,400,34,,ISIC_9718067.JPG
break,html.Screen,4_83_1,2023-10-31T00:28:21.856Z,,0,,,NaN,,,,,,false,,,,798235.6999999881,798235.6000000238,,798235.1999999881,,798240.996,8,400,,,
break_continue,html.Screen,4_83_2,2023-10-31T00:28:21.856Z,,0,,,NaN,,,,,,false,,,,798235.8000000119,798235.8000000119,,798235.8000000119,,798240.996,8,400,,,
sequence,flow.Sequence,4_83,2023-10-31T00:28:21.856Z,,0,,,6289.546000011964,completion,,,,,false,,,,798235.8999999762,798235.8000000119,791929.676,791943.6999999881,791946.254,798240.996,8,400,,,
trial,html.Screen,4_84_0,2023-10-31T00:28:25.058Z,,0,2,,3196.7039999880362,response,ISIC_0817140.JPG,5,ISIC_1264725.JPG,ISIC_1264725.JPG,false,0,keypress(z),500,801437.8000000119,801437.6999999881,798224.489,798236,798240.996,801438.341,8,400,35,,ISIC_0817140.JPG
break,html.Screen,4_84_1,2023-10-31T00:28:25.059Z,,0,,,NaN,,,,,,false,,,,801438.3000000119,801438.1999999881,,801437.8999999762,,801438.341,8,400,,,
break_continue,html.Screen,4_84_2,2023-10-31T00:28:25.059Z,,0,,,NaN,,,,,,false,,,,801438.8000000119,801438.5,,801438.3000000119,,801438.341,8,400,,,
sequence,flow.Sequence,4_84,2023-10-31T00:28:25.059Z,,0,,,3197.503999999957,completion,,,,,false,,,,801439,801438.5,798224.489,798236,798240.996,801438.341,8,400,,,
trial,html.Screen,4_85_0,2023-10-31T00:28:28.101Z,,0,2,,3042.259000023827,response,ISIC_7287303.JPG,5,ISIC_0031278.JPG,ISIC_0031278.JPG,false,0,keypress(z),500,804480.8000000119,804480.6000000238,801421.671,801439,801438.341,804485.828,8,400,36,,ISIC_7287303.JPG
break,html.Screen,4_85_1,2023-10-31T00:28:28.102Z,,0,,,NaN,,,,,,false,,,,804481.3999999762,804481.1999999881,,804480.8999999762,,804485.828,8,400,,,
break_continue,html.Screen,4_85_2,2023-10-31T00:28:28.102Z,,0,,,NaN,,,,,,false,,,,804481.8000000119,804481.6000000238,,804481.5,,804485.828,8,400,,,
sequence,flow.Sequence,4_85,2023-10-31T00:28:28.102Z,,0,,,3043.259000023827,completion,,,,,false,,,,804481.8999999762,804481.6000000238,801421.671,801439,801438.341,804485.828,8,400,,,
trial,html.Screen,4_86_0,2023-10-31T00:28:32.089Z,,0,2,,3982.0719999761786,response,ISIC_0011949.JPG,6,ISIC_0063190.JPG,ISIC_0063190.JPG,false,0,keypress(z),500,808468.1999999881,808467.8999999762,804469.355,804482,804485.828,808482.599,8,400,37,,ISIC_0011949.JPG
break,html.Screen,4_86_1,2023-10-31T00:28:32.090Z,,0,,,NaN,,,,,,false,,,,808469,808468.6999999881,,808468.3999999762,,808482.599,8,400,,,
break_continue,html.Screen,4_86_2,2023-10-31T00:28:32.090Z,,0,,,NaN,,,,,,false,,,,808469.6000000238,808469.3000000119,,808469.1000000238,,808482.599,8,400,,,
sequence,flow.Sequence,4_86,2023-10-31T00:28:32.090Z,,0,,,3983.4720000119414,completion,,,,,false,,,,808469.6999999881,808469.3000000119,804469.355,804482,804485.828,808482.599,8,400,,,
trial,html.Screen,4_87_0,2023-10-31T00:28:35.982Z,,0,2,,3878.7010000118753,response,ISIC_0026470.JPG,5,ISIC_0000043.JPG,ISIC_0026470.JPG,false,1,keypress(m),500,812361.6999999881,812361.3000000119,808465.934,808470,808482.599,812379.415,8,400,38,,ISIC_0000043.JPG
break,html.Screen,4_87_1,2023-10-31T00:28:35.984Z,,0,,,NaN,,,,,,false,,,,812363,812362.6000000238,,812362,,812379.415,8,400,,,
break_continue,html.Screen,4_87_2,2023-10-31T00:28:35.985Z,,0,,,NaN,,,,,,false,,,,812364.3999999762,812363.6999999881,,812363.3000000119,,812379.415,8,400,,,
sequence,flow.Sequence,4_87,2023-10-31T00:28:35.985Z,,0,,,3881.1009999880334,completion,,,,,false,,,,812364.8999999762,812363.6999999881,808465.934,808469.8999999762,808482.599,812379.415,8,400,,,
trial,html.Screen,4_88_0,2023-10-31T00:28:40.804Z,,0,2,,4803.885000011884,response,ISIC_3413138.JPG,5,ISIC_0010971.JPG,ISIC_0010971.JPG,false,0,keypress(z),500,817183.5,817183.3000000119,812362.638,812365.1000000238,812379.415,817192.146,8,400,39,,ISIC_3413138.JPG
break,html.Screen,4_88_1,2023-10-31T00:28:40.805Z,,0,,,NaN,,,,,,false,,,,817184.3000000119,817184,,817183.6999999881,,817192.146,8,400,,,
break_continue,html.Screen,4_88_2,2023-10-31T00:28:40.805Z,,0,,,NaN,,,,,,false,,,,817184.6000000238,817184.5,,817184.3000000119,,817192.146,8,400,,,
sequence,flow.Sequence,4_88,2023-10-31T00:28:40.805Z,,0,,,4805.084999999963,completion,,,,,false,,,,817184.6999999881,817184.5,812362.638,812365,812379.415,817192.146,8,400,,,
trial,html.Screen,4_89_0,2023-10-31T00:28:44.409Z,,0,2,,3595.7539999762084,response,ISIC_1788979.JPG,5,ISIC_0047008.JPG,ISIC_1788979.JPG,false,1,keypress(m),500,820788.1000000238,820787.8999999762,817175.383,817184.8000000119,817192.146,820789.101,8,400,40,,ISIC_0047008.JPG
break,html.Screen,4_89_1,2023-10-31T00:28:44.409Z,,0,,,NaN,,,,,,false,,,,820788.8000000119,820788.5,,820788.1999999881,,820789.101,8,400,,,
break_continue,html.Screen,4_89_2,2023-10-31T00:28:44.410Z,,0,,,NaN,,,,,,false,,,,820789.1000000238,820789,,820788.8999999762,,820789.101,8,400,,,
sequence,flow.Sequence,4_89,2023-10-31T00:28:44.410Z,,0,,,3596.8540000000503,completion,,,,,false,,,,820789.1999999881,820789,817175.383,817184.8000000119,817192.146,820789.101,8,400,,,
trial,html.Screen,4_90_0,2023-10-31T00:28:47.805Z,,0,2,,3394.798999976134,response,ISIC_1637588.JPG,5,ISIC_0000143.JPG,ISIC_1637588.JPG,false,1,keypress(m),500,824184.3000000119,824183.8999999762,820772.514,820789.5,820789.101,824186.471,8,400,41,,ISIC_0000143.JPG
break,html.Screen,4_90_1,2023-10-31T00:28:47.806Z,,0,,,NaN,,,,,,false,,,,824185.6999999881,824185.3999999762,,824184.6000000238,,824186.471,8,400,,,
break_continue,html.Screen,4_90_2,2023-10-31T00:28:47.807Z,,0,,,NaN,,,,,,false,,,,824186.3999999762,824186.1000000238,,824186,,824186.471,8,400,,,
sequence,flow.Sequence,4_90,2023-10-31T00:28:47.807Z,,0,,,3396.9990000238176,completion,,,,,false,,,,824186.8999999762,824186.1000000238,820772.514,820789.5,820789.101,824186.471,8,400,,,
trial,html.Screen,4_91_0,2023-10-31T00:28:51.139Z,,0,2,,3332.2289999880595,response,ISIC_2498215.JPG,6,ISIC_0025379.JPG,ISIC_2498215.JPG,false,1,keypress(m),500,827518.8000000119,827518.6999999881,824169.791,824187.3999999762,824186.471,827533.691,8,400,42,,ISIC_0025379.JPG
break,html.Screen,4_91_1,2023-10-31T00:28:51.140Z,,0,,,NaN,,,,,,false,,,,827519.3999999762,827519.1000000238,,827518.8000000119,,827533.691,8,400,,,
break_continue,html.Screen,4_91_2,2023-10-31T00:28:51.140Z,,0,,,NaN,,,,,,false,,,,827519.6999999881,827519.6000000238,,827519.5,,827533.691,8,400,,,
sequence,flow.Sequence,4_91,2023-10-31T00:28:51.140Z,,0,,,3333.1290000238223,completion,,,,,false,,,,827519.8000000119,827519.6000000238,824169.791,824187.1999999881,824186.471,827533.691,8,400,,,
trial,html.Screen,4_92_0,2023-10-31T00:28:56.566Z,,0,2,,5411.7089999761665,response,ISIC_2271767.JPG,5,ISIC_0061029.JPG,ISIC_2271767.JPG,false,1,keypress(m),500,832945.6000000238,832945.3999999762,827517.008,827519.8000000119,827533.691,832979.063,8,400,43,,ISIC_0061029.JPG
break,html.Screen,4_92_1,2023-10-31T00:28:56.567Z,,0,,,NaN,,,,,,false,,,,832946.3999999762,832946.1000000238,,832945.6999999881,,832979.063,8,400,,,
break_continue,html.Screen,4_92_2,2023-10-31T00:28:56.567Z,,0,,,NaN,,,,,,false,,,,832946.8000000119,832946.6999999881,,832946.6000000238,,832979.063,8,400,,,
sequence,flow.Sequence,4_92,2023-10-31T00:28:56.568Z,,0,,,5413.008999988087,completion,,,,,false,,,,832946.8999999762,832946.6999999881,827517.008,827519.8000000119,827533.691,832979.063,8,400,,,
trial,html.Screen,4_93_0,2023-10-31T00:28:59.993Z,,0,2,,3393.2370000119554,response,ISIC_0014946.JPG,5,ISIC_0010723.JPG,ISIC_0010723.JPG,false,0,keypress(z),500,836372.6999999881,836372.3000000119,832962.451,832947.1000000238,832979.063,836376.358,8,400,44,,ISIC_0014946.JPG
break,html.Screen,4_93_1,2023-10-31T00:28:59.995Z,,0,,,NaN,,,,,,false,,,,836374,836373.6000000238,,836372.8999999762,,836376.358,8,400,,,
break_continue,html.Screen,4_93_2,2023-10-31T00:28:59.995Z,,0,,,NaN,,,,,,false,,,,836374.6000000238,836374.3999999762,,836374.1999999881,,836376.358,8,400,,,
sequence,flow.Sequence,4_93,2023-10-31T00:28:59.995Z,,0,,,3395.3369999761926,completion,,,,,false,,,,836374.8000000119,836374.3999999762,832962.451,832947.1000000238,832979.063,836376.358,8,400,,,
trial,html.Screen,4_94_0,2023-10-31T00:29:05.022Z,,0,2,,5025.041999976151,response,ISIC_0033044.JPG,5,ISIC_3343475.JPG,ISIC_3343475.JPG,false,0,keypress(z),500,841401.6999999881,841401.3999999762,836359.691,836375.1000000238,836376.358,841405.628,8,400,45,,ISIC_0033044.JPG
break,html.Screen,4_94_1,2023-10-31T00:29:05.023Z,,0,,,NaN,,,,,,false,,,,841402.8999999762,841402.6999999881,,841402,,841405.628,8,400,,,
break_continue,html.Screen,4_94_2,2023-10-31T00:29:05.024Z,,0,,,NaN,,,,,,false,,,,841403.6999999881,841403.5,,841403.1000000238,,841405.628,8,400,,,
sequence,flow.Sequence,4_94,2023-10-31T00:29:05.025Z,,0,,,5027.141999999993,completion,,,,,false,,,,841404,841403.5,836359.691,836375,836376.358,841405.628,8,400,,,
trial,html.Screen,4_95_0,2023-10-31T00:29:08.067Z,,0,2,,3040.172000011895,response,ISIC_1711973.JPG,5,ISIC_0056979.JPG,ISIC_1711973.JPG,false,1,keypress(m),500,844446.3000000119,844445.8000000119,841388.866,841404.1000000238,841405.628,844469.64,8,400,46,,ISIC_0056979.JPG
break,html.Screen,4_95_1,2023-10-31T00:29:08.069Z,,0,,,NaN,,,,,,false,,,,844448.5,844448,,844446.8999999762,,844469.64,8,400,,,
break_continue,html.Screen,4_95_2,2023-10-31T00:29:08.070Z,,0,,,NaN,,,,,,false,,,,844449.6000000238,844449.1999999881,,844448.8000000119,,844469.64,8,400,,,
sequence,flow.Sequence,4_95,2023-10-31T00:29:08.071Z,,0,,,3043.571999988053,completion,,,,,false,,,,844450.1000000238,844449.1999999881,841388.866,841404.1000000238,841405.628,844469.64,8,400,,,
trial,html.Screen,4_96_0,2023-10-31T00:29:11.419Z,,0,2,,3328.359999999986,response,ISIC_0010967.JPG,6,ISIC_5647697.JPG,ISIC_0010967.JPG,false,1,keypress(m),500,847798.1999999881,847798,844453.25,844450.5,844469.64,847800.208,8,400,47,,ISIC_5647697.JPG
break,html.Screen,4_96_1,2023-10-31T00:29:11.420Z,,0,,,NaN,,,,,,false,,,,847799,847798.8000000119,,847798.3999999762,,847800.208,8,400,,,
break_continue,html.Screen,4_96_2,2023-10-31T00:29:11.420Z,,0,,,NaN,,,,,,false,,,,847799.3000000119,847799.3000000119,,847799.1000000238,,847800.208,8,400,,,
sequence,flow.Sequence,4_96,2023-10-31T00:29:11.420Z,,0,,,3329.660000011907,completion,,,,,false,,,,847799.5,847799.3000000119,844453.25,844450.3000000119,844469.64,847800.208,8,400,,,
trial,html.Screen,4_97_0,2023-10-31T00:29:14.590Z,,0,2,,3168.691999976174,response,ISIC_0028508.JPG,6,ISIC_0693902.JPG,ISIC_0693902.JPG,false,0,keypress(z),500,850969.1000000238,850968.8999999762,847783.675,847799.6000000238,847800.208,850981.014,8,400,48,,ISIC_0028508.JPG
break,html.Screen,4_97_1,2023-10-31T00:29:14.590Z,,0,,,NaN,,,,,,false,,,,850969.6000000238,850969.3999999762,,850969.1999999881,,850981.014,8,400,,,
break_continue,html.Screen,4_97_2,2023-10-31T00:29:14.590Z,,0,,,NaN,,,,,,false,,,,850969.8000000119,850969.8000000119,,850969.6999999881,,850981.014,8,400,,,
sequence,flow.Sequence,4_97,2023-10-31T00:29:14.590Z,,0,,,3169.5920000119368,completion,,,,,false,,,,850969.8999999762,850969.8000000119,847783.675,847799.6000000238,847800.208,850981.014,8,400,,,
trial,html.Screen,4_98_0,2023-10-31T00:29:17.696Z,,0,2,,3093.7860000119545,response,ISIC_5229861.JPG,5,ISIC_2614347.JPG,ISIC_2614347.JPG,false,0,keypress(z),500,854075.1000000238,854074.8000000119,850964.374,850970,850981.014,854078.429,8,400,49,,ISIC_5229861.JPG
break,html.Screen,4_98_1,2023-10-31T00:29:17.696Z,,0,,,NaN,,,,,,false,,,,854075.8999999762,854075.6000000238,,854075.1999999881,,854078.429,8,400,,,
break_continue,html.Screen,4_98_2,2023-10-31T00:29:17.697Z,,0,,,NaN,,,,,,false,,,,854076.3000000119,854076.1000000238,,854076.1000000238,,854078.429,8,400,,,
sequence,flow.Sequence,4_98,2023-10-31T00:29:17.697Z,,0,,,3095.0860000238754,completion,,,,,false,,,,854076.5,854076.1000000238,850964.374,850970,850981.014,854078.429,8,400,,,
trial,html.Screen,4_99_0,2023-10-31T00:29:20.868Z,,0,2,,3168.371000011917,response,ISIC_6948604.JPG,4,ISIC_2380341.JPG,ISIC_2380341.JPG,false,0,keypress(z),500,857247,857246.8000000119,854061.758,854076.6000000238,854078.429,857259.11,8,400,50,,ISIC_6948604.JPG
break,html.Screen,4_99_1,2023-10-31T00:29:30.855Z,,0,,,9991.805999999982,timeout,,,,,false,,,,867234.8999999762,867234.239,857242.528,857247.1000000238,857259.11,867250.916,8,400,,,
break_continue,html.Screen,4_99_2,2023-10-31T00:29:46.155Z,,0,,,15233.28399998811,response,,,,,false,continue,keypress(Space),,882535.3999999762,882484.1999999881,867234.239,867234.8999999762,867250.916,882538.317,8,400,,,
sequence,flow.Sequence,4_99,2023-10-31T00:29:46.156Z,,0,,,28405.770999988075,completion,,,,,false,,,,882535.6999999881,882484.1999999881,854061.758,854076.5,854078.429,882538.317,8,400,,,
trial,html.Screen,4_100_0,2023-10-31T00:29:49.360Z,,0,3,,3200.682999999961,response,ISIC_9848743.JPG,4,ISIC_7460111.JPG,ISIC_9848743.JPG,false,1,keypress(m),500,885739.6000000238,885739,882520.945,882535.8999999762,882538.317,885752.376,8,400,1,,ISIC_7460111.JPG
break,html.Screen,4_100_1,2023-10-31T00:29:49.362Z,,0,,,NaN,,,,,,false,,,,885742.3999999762,885741.8999999762,,885740.1999999881,,885752.376,8,400,,,
break_continue,html.Screen,4_100_2,2023-10-31T00:29:49.364Z,,0,,,NaN,,,,,,false,,,,885743.3999999762,885743,,885742.6999999881,,885752.376,8,400,,,
sequence,flow.Sequence,4_100,2023-10-31T00:29:49.364Z,,0,,,3204.682999999961,completion,,,,,false,,,,885743.8000000119,885743,882520.945,882535.8999999762,882538.317,885752.376,8,400,,,
trial,html.Screen,4_101_0,2023-10-31T00:29:52.631Z,,0,3,,3258.3239999880316,response,ISIC_0006754.JPG,5,ISIC_0070215.JPG,ISIC_0006754.JPG,false,1,keypress(m),500,889011,889010.6999999881,885735.721,885744.1999999881,885752.376,889016.329,8,400,2,,ISIC_0070215.JPG
break,html.Screen,4_101_1,2023-10-31T00:29:52.632Z,,0,,,NaN,,,,,,false,,,,889011.8000000119,889011.6000000238,,889011.1999999881,,889016.329,8,400,,,
break_continue,html.Screen,4_101_2,2023-10-31T00:29:52.632Z,,0,,,NaN,,,,,,false,,,,889012.1999999881,889012.1000000238,,889012,,889016.329,8,400,,,
sequence,flow.Sequence,4_101,2023-10-31T00:29:52.632Z,,0,,,3259.7240000237944,completion,,,,,false,,,,889012.3999999762,889012.1000000238,885735.721,885744.1000000238,885752.376,889016.329,8,400,,,
trial,html.Screen,4_102_0,2023-10-31T00:29:55.915Z,,0,3,,3277.870999988052,response,ISIC_8168598.JPG,5,ISIC_0010024.JPG,ISIC_8168598.JPG,false,1,keypress(m),500,892294.6000000238,892294.1999999881,888999.745,889012.3999999762,889016.329,892297.111,8,400,3,,ISIC_0010024.JPG
break,html.Screen,4_102_1,2023-10-31T00:29:55.916Z,,0,,,NaN,,,,,,false,,,,892296.3000000119,892295.8999999762,,892295,,892297.111,8,400,,,
break_continue,html.Screen,4_102_2,2023-10-31T00:29:55.917Z,,0,,,NaN,,,,,,false,,,,892297,892296.6999999881,,892296.5,,892297.111,8,400,,,
sequence,flow.Sequence,4_102,2023-10-31T00:29:55.917Z,,0,,,3280.370999988052,completion,,,,,false,,,,892297.3000000119,892296.6999999881,888999.745,889012.3999999762,889016.329,892297.111,8,400,,,
trial,html.Screen,4_103_0,2023-10-31T00:29:59.281Z,,0,3,,3363.5889999880455,response,ISIC_0011686.JPG,5,ISIC_0011830.JPG,ISIC_0011830.JPG,false,0,keypress(z),500,895660.8999999762,895660.6999999881,892280.404,892297.8000000119,892297.111,895677.563,8,400,4,,ISIC_0011686.JPG
break,html.Screen,4_103_1,2023-10-31T00:29:59.282Z,,0,,,NaN,,,,,,false,,,,895661.8000000119,895661.6000000238,,895661.1999999881,,895677.563,8,400,,,
break_continue,html.Screen,4_103_2,2023-10-31T00:29:59.282Z,,0,,,NaN,,,,,,false,,,,895662.1999999881,895662.1000000238,,895662,,895677.563,8,400,,,
sequence,flow.Sequence,4_103,2023-10-31T00:29:59.282Z,,0,,,3364.9890000238083,completion,,,,,false,,,,895662.3999999762,895662.1000000238,892280.404,892297.6999999881,892297.111,895677.563,8,400,,,
trial,html.Screen,4_104_0,2023-10-31T00:30:03.060Z,,0,3,,3762.5370000238763,response,ISIC_8393181.JPG,6,ISIC_0028705.JPG,ISIC_8393181.JPG,false,1,keypress(m),500,899440.1999999881,899440.1000000238,895660.848,895662.5,895677.563,899441.051,8,400,5,,ISIC_0028705.JPG
break,html.Screen,4_104_1,2023-10-31T00:30:03.061Z,,0,,,NaN,,,,,,false,,,,899440.6999999881,899440.5,,899440.3000000119,,899441.051,8,400,,,
break_continue,html.Screen,4_104_2,2023-10-31T00:30:03.061Z,,0,,,NaN,,,,,,false,,,,899441.1999999881,899441,,899440.8999999762,,899441.051,8,400,,,
sequence,flow.Sequence,4_104,2023-10-31T00:30:03.062Z,,0,,,3763.4370000000345,completion,,,,,false,,,,899441.3000000119,899441,895660.848,895662.5,895677.563,899441.051,8,400,,,
trial,html.Screen,4_105_0,2023-10-31T00:30:07.112Z,,0,3,,4050.549000023864,response,ISIC_8785329.JPG,5,ISIC_3416324.JPG,ISIC_8785329.JPG,false,1,keypress(m),500,903491.8000000119,903491.6000000238,899424.432,899441.5,899441.051,903504.414,8,400,6,,ISIC_3416324.JPG
break,html.Screen,4_105_1,2023-10-31T00:30:07.113Z,,0,,,NaN,,,,,,false,,,,903492.5,903492.3000000119,,903491.8999999762,,903504.414,8,400,,,
break_continue,html.Screen,4_105_2,2023-10-31T00:30:07.113Z,,0,,,NaN,,,,,,false,,,,903492.8000000119,903492.6999999881,,903492.6000000238,,903504.414,8,400,,,
sequence,flow.Sequence,4_105,2023-10-31T00:30:07.113Z,,0,,,4051.6489999881014,completion,,,,,false,,,,903492.8999999762,903492.6999999881,899424.432,899441.5,899441.051,903504.414,8,400,,,
trial,html.Screen,4_106_0,2023-10-31T00:30:11.067Z,,0,3,,3942.386000011931,response,ISIC_0030029.JPG,5,ISIC_0010664.JPG,ISIC_0030029.JPG,false,1,keypress(m),500,907447.1000000238,907446.8000000119,903487.975,903493,903504.414,907451.183,8,400,7,,ISIC_0010664.JPG
break,html.Screen,4_106_1,2023-10-31T00:30:11.069Z,,0,,,NaN,,,,,,false,,,,907449.3000000119,907447.8000000119,,907447.3000000119,,907451.183,8,400,,,
break_continue,html.Screen,4_106_2,2023-10-31T00:30:11.070Z,,0,,,NaN,,,,,,false,,,,907450,907449.8999999762,,907449.6999999881,,907451.183,8,400,,,
sequence,flow.Sequence,4_106,2023-10-31T00:30:11.070Z,,0,,,3945.4859999761684,completion,,,,,false,,,,907450.1999999881,907449.8999999762,903487.975,903493,903504.414,907451.183,8,400,,,
trial,html.Screen,4_107_0,2023-10-31T00:30:14.033Z,,0,3,,2961.317000000039,response,ISIC_0072631.JPG,10,ISIC_1570390.JPG,ISIC_1570390.JPG,false,0,keypress(z),500,910412.6000000238,910412.5,907434.657,907450.3999999762,907451.183,910415.39,8,400,8,,ISIC_0072631.JPG
break,html.Screen,4_107_1,2023-10-31T00:30:14.033Z,,0,,,NaN,,,,,,false,,,,910413.1000000238,910413,,910412.8000000119,,910415.39,8,400,,,
break_continue,html.Screen,4_107_2,2023-10-31T00:30:14.033Z,,0,,,NaN,,,,,,false,,,,910413.3999999762,910413.3000000119,,910413.1999999881,,910415.39,8,400,,,
sequence,flow.Sequence,4_107,2023-10-31T00:30:14.034Z,,0,,,2962.11700001196,completion,,,,,false,,,,910413.3999999762,910413.3000000119,907434.657,907450.3999999762,907451.183,910415.39,8,400,,,
trial,html.Screen,4_108_0,2023-10-31T00:30:18.195Z,,0,3,,4158.809999988065,response,ISIC_0057362.JPG,5,ISIC_8244535.JPG,ISIC_8244535.JPG,false,0,keypress(z),500,914574.3999999762,914574.1999999881,910398.76,910413.5,910415.39,914578.615,8,400,9,,ISIC_0057362.JPG
break,html.Screen,4_108_1,2023-10-31T00:30:18.195Z,,0,,,NaN,,,,,,false,,,,914575,914574.8000000119,,914574.6000000238,,914578.615,8,400,,,
break_continue,html.Screen,4_108_2,2023-10-31T00:30:18.195Z,,0,,,NaN,,,,,,false,,,,914575.3999999762,914575.1999999881,,914575.1000000238,,914578.615,8,400,,,
sequence,flow.Sequence,4_108,2023-10-31T00:30:18.196Z,,0,,,4159.809999988065,completion,,,,,false,,,,914575.3999999762,914575.1999999881,910398.76,910413.5,910415.39,914578.615,8,400,,,
trial,html.Screen,4_109_0,2023-10-31T00:30:21.478Z,,0,3,,3279.0849999880884,response,ISIC_0056440.JPG,8,ISIC_4097868.JPG,ISIC_4097868.JPG,false,0,keypress(z),500,917857.8999999762,917857.6999999881,914562.064,914575.5,914578.615,917859.271,8,400,10,,ISIC_0056440.JPG
break,html.Screen,4_109_1,2023-10-31T00:30:21.479Z,,0,,,NaN,,,,,,false,,,,917858.6999999881,917858.3999999762,,917858,,917859.271,8,400,,,
break_continue,html.Screen,4_109_2,2023-10-31T00:30:21.479Z,,0,,,NaN,,,,,,false,,,,917859,917858.8999999762,,917858.8000000119,,917859.271,8,400,,,
sequence,flow.Sequence,4_109,2023-10-31T00:30:21.479Z,,0,,,3280.2849999761675,completion,,,,,false,,,,917859.1000000238,917858.8999999762,914562.064,914575.5,914578.615,917859.271,8,400,,,
trial,html.Screen,4_110_0,2023-10-31T00:30:24.537Z,,0,3,,3057.529000011971,response,ISIC_3642043.JPG,5,ISIC_0014171.JPG,ISIC_3642043.JPG,false,1,keypress(m),500,920917,920916.8000000119,917842.627,917859.1999999881,917859.271,920923.439,8,400,11,,ISIC_0014171.JPG
break,html.Screen,4_110_1,2023-10-31T00:30:24.538Z,,0,,,NaN,,,,,,false,,,,920917.6000000238,920917.5,,920917.1999999881,,920923.439,8,400,,,
break_continue,html.Screen,4_110_2,2023-10-31T00:30:24.538Z,,0,,,NaN,,,,,,false,,,,920918,920917.8999999762,,920917.8000000119,,920923.439,8,400,,,
sequence,flow.Sequence,4_110,2023-10-31T00:30:24.538Z,,0,,,3058.6289999762084,completion,,,,,false,,,,920918.1000000238,920917.8999999762,917842.627,917859.1999999881,917859.271,920923.439,8,400,,,
trial,html.Screen,4_111_0,2023-10-31T00:30:28.653Z,,0,3,,4108.861000011908,response,ISIC_2975167.JPG,8,ISIC_5833422.JPG,ISIC_5833422.JPG,false,0,keypress(z),500,925032.5,925032.3000000119,920906.838,920918.1999999881,920923.439,925036.665,8,400,12,,ISIC_2975167.JPG
break,html.Screen,4_111_1,2023-10-31T00:30:28.653Z,,0,,,NaN,,,,,,false,,,,925033.1000000238,925032.8999999762,,925032.6000000238,,925036.665,8,400,,,
break_continue,html.Screen,4_111_2,2023-10-31T00:30:28.654Z,,0,,,NaN,,,,,,false,,,,925033.5,925033.3000000119,,925033.1999999881,,925036.665,8,400,,,
sequence,flow.Sequence,4_111,2023-10-31T00:30:28.654Z,,0,,,4109.861000011908,completion,,,,,false,,,,925033.6000000238,925033.3000000119,920906.838,920918.1999999881,920923.439,925036.665,8,400,,,
trial,html.Screen,4_112_0,2023-10-31T00:30:32.112Z,,0,3,,3454.6350000118837,response,ISIC_4105234.JPG,5,ISIC_4645995.JPG,ISIC_4645995.JPG,false,0,keypress(z),500,928491.3999999762,928491.3000000119,925019.987,925033.6000000238,925036.665,928500.645,8,400,13,,ISIC_4105234.JPG
break,html.Screen,4_112_1,2023-10-31T00:30:32.113Z,,0,,,NaN,,,,,,false,,,,928492.3000000119,928492.1000000238,,928491.6999999881,,928500.645,8,400,,,
break_continue,html.Screen,4_112_2,2023-10-31T00:30:32.113Z,,0,,,NaN,,,,,,false,,,,928492.6000000238,928492.5,,928492.3000000119,,928500.645,8,400,,,
sequence,flow.Sequence,4_112,2023-10-31T00:30:32.113Z,,0,,,3455.8349999999627,completion,,,,,false,,,,928492.6999999881,928492.5,925019.987,925033.6000000238,925036.665,928500.645,8,400,,,
trial,html.Screen,4_113_0,2023-10-31T00:30:34.947Z,,0,3,,2825.6550000119023,response,ISIC_8635849.JPG,5,ISIC_0029736.JPG,ISIC_8635849.JPG,false,1,keypress(m),500,931326.6000000238,931326.3000000119,928483.85,928492.8999999762,928500.645,931331.56,8,400,14,,ISIC_0029736.JPG
break,html.Screen,4_113_1,2023-10-31T00:30:34.948Z,,0,,,NaN,,,,,,false,,,,931327.5,931327.3000000119,,931326.8000000119,,931331.56,8,400,,,
break_continue,html.Screen,4_113_2,2023-10-31T00:30:34.949Z,,0,,,NaN,,,,,,false,,,,931328,931327.8000000119,,931327.6000000238,,931331.56,8,400,,,
sequence,flow.Sequence,4_113,2023-10-31T00:30:34.949Z,,0,,,2827.1550000119023,completion,,,,,false,,,,931328.1000000238,931327.8000000119,928483.85,928492.8000000119,928500.645,931331.56,8,400,,,
trial,html.Screen,4_114_0,2023-10-31T00:30:37.799Z,,0,3,,2847.040000023786,response,ISIC_1534391.JPG,5,ISIC_0015631.JPG,ISIC_1534391.JPG,false,1,keypress(m),500,934178.8000000119,934178.6000000238,931314.906,931328.3000000119,931331.56,934195.911,8,400,15,,ISIC_0015631.JPG
break,html.Screen,4_114_1,2023-10-31T00:30:37.801Z,,0,,,NaN,,,,,,false,,,,934180.3000000119,934179.8999999762,,934179,,934195.911,8,400,,,
break_continue,html.Screen,4_114_2,2023-10-31T00:30:37.802Z,,0,,,NaN,,,,,,false,,,,934180.8999999762,934180.6999999881,,934180.5,,934195.911,8,400,,,
sequence,flow.Sequence,4_114,2023-10-31T00:30:37.802Z,,0,,,2849.139999988023,completion,,,,,false,,,,934181.1999999881,934180.6999999881,931314.906,931328.3000000119,931331.56,934195.911,8,400,,,
trial,html.Screen,4_115_0,2023-10-31T00:30:41.100Z,,0,3,,3283.689000023878,response,ISIC_0030300.JPG,6,ISIC_6839272.JPG,ISIC_0030300.JPG,false,1,keypress(m),500,937479.8000000119,937479.6000000238,934179.165,934181.5,934195.911,937493.212,8,400,16,,ISIC_6839272.JPG
break,html.Screen,4_115_1,2023-10-31T00:30:41.101Z,,0,,,NaN,,,,,,false,,,,937480.5,937480.3999999762,,937480,,937493.212,8,400,,,
break_continue,html.Screen,4_115_2,2023-10-31T00:30:41.101Z,,0,,,NaN,,,,,,false,,,,937480.8999999762,937480.8000000119,,937480.6999999881,,937493.212,8,400,,,
sequence,flow.Sequence,4_115,2023-10-31T00:30:41.102Z,,0,,,3284.8890000119573,completion,,,,,false,,,,937481,937480.8000000119,934179.165,934181.3000000119,934195.911,937493.212,8,400,,,
trial,html.Screen,4_116_0,2023-10-31T00:30:47.151Z,,0,3,,6037.388000023784,response,ISIC_0024423.JPG,6,ISIC_0012160.JPG,ISIC_0012160.JPG,false,0,keypress(z),500,943530.8000000119,943530.6000000238,937476.564,937481.1000000238,937493.212,943538.138,8,400,17,,ISIC_0024423.JPG
break,html.Screen,4_116_1,2023-10-31T00:30:47.152Z,,0,,,NaN,,,,,,false,,,,943531.8000000119,943531.5,,943531,,943538.138,8,400,,,
break_continue,html.Screen,4_116_2,2023-10-31T00:30:47.153Z,,0,,,NaN,,,,,,false,,,,943532.1000000238,943532,,943531.8999999762,,943538.138,8,400,,,
sequence,flow.Sequence,4_116,2023-10-31T00:30:47.153Z,,0,,,6038.787999999942,completion,,,,,false,,,,943532.3000000119,943532,937476.564,937481.1000000238,937493.212,943538.138,8,400,,,
trial,html.Screen,4_117_0,2023-10-31T00:30:50.659Z,,0,3,,3500.4620000238065,response,ISIC_0071550.JPG,5,ISIC_0010540.JPG,ISIC_0010540.JPG,false,0,keypress(z),500,947038.8999999762,947038.6000000238,943521.621,943532.3999999762,943538.138,947051.995,8,400,18,,ISIC_0071550.JPG
break,html.Screen,4_117_1,2023-10-31T00:30:50.660Z,,0,,,NaN,,,,,,false,,,,947039.8999999762,947039.6000000238,,947039,,947051.995,8,400,,,
break_continue,html.Screen,4_117_2,2023-10-31T00:30:50.661Z,,0,,,NaN,,,,,,false,,,,947040.3000000119,947040.1000000238,,947040,,947051.995,8,400,,,
sequence,flow.Sequence,4_117,2023-10-31T00:30:50.661Z,,0,,,3501.9620000238065,completion,,,,,false,,,,947040.5,947040.1000000238,943521.621,943532.3999999762,943538.138,947051.995,8,400,,,
trial,html.Screen,4_118_0,2023-10-31T00:30:57.192Z,,0,3,,6518.904999976163,response,ISIC_5813642.JPG,5,ISIC_0000024.JPG,ISIC_5813642.JPG,false,1,keypress(m),500,953571.3000000119,953570.8999999762,947035.252,947040.6999999881,947051.995,953579.905,8,400,19,,ISIC_0000024.JPG
break,html.Screen,4_118_1,2023-10-31T00:30:57.193Z,,0,,,NaN,,,,,,false,,,,953572.3999999762,953572.1999999881,,953571.6999999881,,953579.905,8,400,,,
break_continue,html.Screen,4_118_2,2023-10-31T00:30:57.194Z,,0,,,NaN,,,,,,false,,,,953572.8999999762,953572.8000000119,,953572.6000000238,,953579.905,8,400,,,
sequence,flow.Sequence,4_118,2023-10-31T00:30:57.194Z,,0,,,6520.805000011926,completion,,,,,false,,,,953573.1999999881,953572.8000000119,947035.252,947040.6000000238,947051.995,953579.905,8,400,,,
trial,html.Screen,4_119_0,2023-10-31T00:31:05.533Z,,0,3,,8331.895000011893,response,ISIC_0033245.JPG,9,ISIC_0026996.JPG,ISIC_0026996.JPG,false,0,keypress(z),500,961911.8999999762,961911.8000000119,953563.316,953573.3999999762,953579.905,961923.031,8,400,20,,ISIC_0033245.JPG
break,html.Screen,4_119_1,2023-10-31T00:31:05.533Z,,0,,,NaN,,,,,,false,,,,961912.5,961912.3999999762,,961912.1000000238,,961923.031,8,400,,,
break_continue,html.Screen,4_119_2,2023-10-31T00:31:05.533Z,,0,,,NaN,,,,,,false,,,,961912.8999999762,961912.8000000119,,961912.6999999881,,961923.031,8,400,,,
sequence,flow.Sequence,4_119,2023-10-31T00:31:05.534Z,,0,,,8332.895000011893,completion,,,,,false,,,,961913,961912.8000000119,953563.316,953573.3000000119,953579.905,961923.031,8,400,,,
trial,html.Screen,4_120_0,2023-10-31T00:31:12.511Z,,0,3,,6966.868999976199,response,ISIC_5499139.JPG,5,ISIC_8650269.JPG,ISIC_8650269.JPG,false,0,keypress(z),500,968890.1000000238,968889.8999999762,961906.438,961913,961923.031,968900.738,8,400,21,,ISIC_5499139.JPG
break,html.Screen,4_120_1,2023-10-31T00:31:12.511Z,,0,,,NaN,,,,,,false,,,,968890.8999999762,968890.6000000238,,968890.3000000119,,968900.738,8,400,,,
break_continue,html.Screen,4_120_2,2023-10-31T00:31:12.512Z,,0,,,NaN,,,,,,false,,,,968891.1999999881,968891,,968891,,968900.738,8,400,,,
sequence,flow.Sequence,4_120,2023-10-31T00:31:12.512Z,,0,,,6967.969000000041,completion,,,,,false,,,,968891.3000000119,968891,961906.438,961913,961923.031,968900.738,8,400,,,
trial,html.Screen,4_121_0,2023-10-31T00:31:18.434Z,,0,3,,5911.86200002383,response,ISIC_0962787.JPG,4,ISIC_8634334.JPG,ISIC_0962787.JPG,false,1,keypress(m),500,974813.1999999881,974812.6000000238,968884.023,968891.5,968900.738,974829.074,8,400,22,,ISIC_8634334.JPG
break,html.Screen,4_121_1,2023-10-31T00:31:18.435Z,,0,,,NaN,,,,,,false,,,,974814.3999999762,974814.1000000238,,974813.5,,974829.074,8,400,,,
break_continue,html.Screen,4_121_2,2023-10-31T00:31:18.436Z,,0,,,NaN,,,,,,false,,,,974815,974814.8000000119,,974814.6999999881,,974829.074,8,400,,,
sequence,flow.Sequence,4_121,2023-10-31T00:31:18.436Z,,0,,,5914.062000011909,completion,,,,,false,,,,974815.1999999881,974814.8000000119,968884.023,968891.3999999762,968900.738,974829.074,8,400,,,
trial,html.Screen,4_122_0,2023-10-31T00:31:21.974Z,,0,3,,3523.9259999999776,response,ISIC_0011684.JPG,5,ISIC_0007501.JPG,ISIC_0007501.JPG,false,0,keypress(z),500,978353.3000000119,978353,974812.437,974815.3999999762,974829.074,978359.482,8,400,23,,ISIC_0011684.JPG
break,html.Screen,4_122_1,2023-10-31T00:31:21.975Z,,0,,,NaN,,,,,,false,,,,978354.5,978354.1000000238,,978353.6000000238,,978359.482,8,400,,,
break_continue,html.Screen,4_122_2,2023-10-31T00:31:21.976Z,,0,,,NaN,,,,,,false,,,,978355,978354.8000000119,,978354.6000000238,,978359.482,8,400,,,
sequence,flow.Sequence,4_122,2023-10-31T00:31:21.976Z,,0,,,3525.7260000118986,completion,,,,,false,,,,978355.1999999881,978354.8000000119,974812.437,974815.3999999762,974829.074,978359.482,8,400,,,
trial,html.Screen,4_123_0,2023-10-31T00:31:25.371Z,,0,3,,3390.818000011961,response,ISIC_8502869.JPG,5,ISIC_2059085.JPG,ISIC_2059085.JPG,false,0,keypress(z),500,981750.6000000238,981750.3000000119,978342.829,978356.1999999881,978359.482,981756.713,8,400,24,,ISIC_8502869.JPG
break,html.Screen,4_123_1,2023-10-31T00:31:25.372Z,,0,,,NaN,,,,,,false,,,,981751.5,981751.3000000119,,981750.8000000119,,981756.713,8,400,,,
break_continue,html.Screen,4_123_2,2023-10-31T00:31:25.373Z,,0,,,NaN,,,,,,false,,,,981751.8999999762,981751.8000000119,,981751.6999999881,,981756.713,8,400,,,
sequence,flow.Sequence,4_123,2023-10-31T00:31:25.373Z,,0,,,3392.318000011961,completion,,,,,false,,,,981752.1000000238,981751.8000000119,978342.829,978356.1000000238,978359.482,981756.713,8,400,,,
trial,html.Screen,4_124_0,2023-10-31T00:31:28.446Z,,0,3,,3068.887000023853,response,ISIC_0072171.JPG,5,ISIC_2008230.JPG,ISIC_2008230.JPG,false,0,keypress(z),500,984825.8999999762,984825.6000000238,981740.098,981752.1999999881,981756.713,984837.553,8,400,25,,ISIC_0072171.JPG
break,html.Screen,4_124_1,2023-10-31T00:31:28.447Z,,0,,,NaN,,,,,,false,,,,984826.3999999762,984826.1999999881,,984826,,984837.553,8,400,,,
break_continue,html.Screen,4_124_2,2023-10-31T00:31:28.447Z,,0,,,NaN,,,,,,false,,,,984826.6000000238,984826.5,,984826.3999999762,,984837.553,8,400,,,
sequence,flow.Sequence,4_124,2023-10-31T00:31:28.447Z,,0,,,3069.787000000011,completion,,,,,false,,,,984826.8000000119,984826.5,981740.098,981752.1999999881,981756.713,984837.553,8,400,,,
trial,html.Screen,4_125_0,2023-10-31T00:31:32.034Z,,0,3,,3575.2470000119647,response,ISIC_1585370.JPG,5,ISIC_6937199.JPG,ISIC_6937199.JPG,false,0,keypress(z),500,988412.8999999762,988412.8000000119,984820.967,984826.8999999762,984837.553,988417.821,8,400,26,,ISIC_1585370.JPG
break,html.Screen,4_125_1,2023-10-31T00:31:32.034Z,,0,,,NaN,,,,,,false,,,,988413.3999999762,988413.1999999881,,988413.1000000238,,988417.821,8,400,,,
break_continue,html.Screen,4_125_2,2023-10-31T00:31:32.034Z,,0,,,NaN,,,,,,false,,,,988413.6999999881,988413.5,,988413.3999999762,,988417.821,8,400,,,
sequence,flow.Sequence,4_125,2023-10-31T00:31:32.034Z,,0,,,3575.9470000000438,completion,,,,,false,,,,988413.8000000119,988413.5,984820.967,984826.8999999762,984837.553,988417.821,8,400,,,
trial,html.Screen,4_126_0,2023-10-31T00:31:35.636Z,,0,3,,3597.378999988083,response,ISIC_7096885.JPG,5,ISIC_0420249.JPG,ISIC_7096885.JPG,false,1,keypress(m),500,992015.5,992015.1999999881,988401.242,988413.8999999762,988417.821,992031.633,8,400,27,,ISIC_0420249.JPG
break,html.Screen,4_126_1,2023-10-31T00:31:35.637Z,,0,,,NaN,,,,,,false,,,,992016.5,992016.1999999881,,992015.8000000119,,992031.633,8,400,,,
