sender,sender_type,sender_id,timestamp,meta,,blockNo,condition,duration,ended_on,img_left,img_reveal,img_right,loser,practice,response,response_action,selection_duration,time_commit,time_end,time_render,time_run,time_show,time_switch,total_blocks,total_trials,trialNo,url,winner
informed_consent,html.Screen,0,2023-05-02T20:25:58.535Z,"{""labjs_version"":""20.2.4"",""labjs_build"":{""flavor"":""production"",""commit"":""f5b4a49f956347addd546a832a3327688c2c0fef""},""location"":""https://run.pavlovia.org/MurrayBennett/melanoma-2afc/?participant=64800"",""userAgent"":""Mozilla/5.0 (Macintosh; Intel Mac OS X 10_15_7) AppleWebKit/537.36 (KHTML, like Gecko) Chrome/112.0.0.0 Safari/537.36"",""platform"":""MacIntel"",""language"":""en-US"",""locale"":""en-US"",""timeZone"":""America/Chicago"",""timezoneOffset"":300,""screen_width"":2048,""screen_height"":1152,""scroll_width"":1200,""scroll_height"":871,""window_innerWidth"":1200,""window_innerHeight"":919,""devicePixelRatio"":2}",,,,30343.816000071525,response,,,,,,consent,click button,,34656.300000071526,34654.800000071526,4044.296,4320.899999976158,4310.984,34687.44,,,,"{""participant"":""64800""}",
Welcome,html.Screen,1,2023-05-02T20:26:02.760Z,,,,irregular,4191.360000071523,response,,,,,,continue,click button,,38880.700000047684,38878.800000071526,34654.104,34656.5,34687.44,38887.776,,,,,
trial,html.Screen,2_0_0,2023-05-02T20:26:14.258Z,,0,0,,11517.588000000003,timeout,ISIC_0061792.JPG,,ISIC_4679428.JPG,,true,,,500,50378.10000002384,50377.89999997616,38871.108,38880.89999997616,38887.776,50405.364,1,6,1,,
sequence,flow.Sequence,2_0,2023-05-02T20:26:14.258Z,,0,,,11490.12399997616,completion,,,,,true,,,,50378.300000071526,50377.89999997616,38871.108,38880.800000071526,38887.776,50405.364,1,6,,,
trial,html.Screen,2_1_0,2023-05-02T20:26:19.974Z,,0,0,,5688.336000047682,response,ISIC_0776486.JPG,,ISIC_5199497.JPG,ISIC_5199497.JPG,true,0,keypress(Z),500,56094,56093.700000047684,50388.696,50378.39999997616,50405.364,56108.679,1,6,2,,ISIC_0776486.JPG
sequence,flow.Sequence,2_1,2023-05-02T20:26:19.974Z,,0,,,5688.336000047682,completion,,,,,true,,,,56094.200000047684,56093.700000047684,50388.696,50378.39999997616,50405.364,56108.679,1,6,,,
trial,html.Screen,2_2_0,2023-05-02T20:26:23.857Z,,0,0,,3868.0210000476873,response,ISIC_2556187.JPG,,ISIC_8575776.JPG,ISIC_8575776.JPG,true,0,keypress(Z),500,59976.89999997616,59976.700000047684,56092.011,56094.300000071526,56108.679,59992.323,1,6,3,,ISIC_2556187.JPG
sequence,flow.Sequence,2_2,2023-05-02T20:26:23.857Z,,0,,,3868.0210000476873,completion,,,,,true,,,,59977.300000071526,59976.700000047684,56092.011,56094.300000071526,56108.679,59992.323,1,6,,,
trial,html.Screen,2_3_0,2023-05-02T20:26:27.912Z,,0,0,,4040.1770000000033,response,ISIC_8141769.JPG,,ISIC_9238366.JPG,ISIC_9238366.JPG,true,0,keypress(Z),500,64032.60000002384,64032.5,59975.655,59977.39999997616,59992.323,64044.514,1,6,4,,ISIC_8141769.JPG
sequence,flow.Sequence,2_3,2023-05-02T20:26:27.913Z,,0,,,4040.1770000000033,completion,,,,,true,,,,64033,64032.5,59975.655,59977.300000071526,59992.323,64044.514,1,6,,,
trial,html.Screen,2_4_0,2023-05-02T20:26:36.433Z,,0,0,,8507.786000071523,response,ISIC_8949026.JPG,,ISIC_9959593.JPG,ISIC_9959593.JPG,true,0,keypress(Z),500,72552.39999997616,72552.30000007153,64027.846,64033.10000002384,64044.514,72564.485,1,6,5,,ISIC_8949026.JPG
sequence,flow.Sequence,2_4,2023-05-02T20:26:36.433Z,,0,,,8507.786000071523,completion,,,,,true,,,,72552.70000004768,72552.30000007153,64027.846,64033.10000002384,64044.514,72564.485,1,6,,,
trial,html.Screen,2_5_0,2023-05-02T20:26:39.608Z,,0,0,,3163.215000047683,response,ISIC_0010479.JPG,,ISIC_0460240.JPG,ISIC_0460240.JPG,true,0,keypress(Z),500,75727.80000007153,75727.70000004768,72547.817,72552.80000007153,72564.485,75731.405,1,6,6,,ISIC_0010479.JPG
sequence,flow.Sequence,2_5,2023-05-02T20:26:39.608Z,,0,,,3163.215000047683,completion,,,,,true,,,,75727.89999997616,75727.70000004768,72547.817,72552.80000007153,72564.485,75731.405,1,6,,,
loop,flow.Loop,2,2023-05-02T20:26:39.608Z,,,,,36839.924000047686,completion,,,,,true,,,,75728,75727.70000004768,38871.108,38880.800000071526,38887.776,75731.405,1,6,,,
exp_instructions,html.Screen,3,2023-05-02T20:26:42.584Z,,,,,2969.595000000001,response,,,,,,continue,keypress(Space),,78703.5,78701,75714.737,75728.10000002384,75731.405,78714.977,,,,,
trial,html.Screen,4_0_0,2023-05-02T20:26:46.625Z,,0,1,,4029.523000000001,response,ISIC_0060148.JPG,,ISIC_0059501.JPG,ISIC_0059501.JPG,false,0,keypress(Z),500,82744.80000007153,82744.5,78698.309,78703.70000004768,78714.977,82750.454,8,400,1,,ISIC_0060148.JPG
break,html.Screen,4_0_1,2023-05-02T20:26:46.626Z,,0,,,NaN,,,,,,false,,,,82745.30000007153,82745.20000004768,,82744.89999997616,,82750.454,8,400,,,
break_continue,html.Screen,4_0_2,2023-05-02T20:26:46.626Z,,0,,,NaN,,,,,,false,,,,82745.70000004768,82745.5,,82745.39999997616,,82750.454,8,400,,,
sequence,flow.Sequence,4_0,2023-05-02T20:26:46.626Z,,0,,,4030.523000000001,completion,,,,,false,,,,82745.80000007153,82745.5,78698.309,78703.70000004768,78714.977,82750.454,8,400,,,
trial,html.Screen,4_1_0,2023-05-02T20:26:49.529Z,,0,1,,2897.8460000715277,response,ISIC_0061829.JPG,,ISIC_0031202.JPG,ISIC_0031202.JPG,false,0,keypress(Z),500,85648.5,85648.30000007153,82733.786,82745.89999997616,82750.454,85650.686,8,400,2,,ISIC_0061829.JPG
break,html.Screen,4_1_1,2023-05-02T20:26:49.529Z,,0,,,NaN,,,,,,false,,,,85649.10000002384,85648.89999997616,,85648.70000004768,,85650.686,8,400,,,
break_continue,html.Screen,4_1_2,2023-05-02T20:26:49.530Z,,0,,,NaN,,,,,,false,,,,85649.30000007153,85649.20000004768,,85649.10000002384,,85650.686,8,400,,,
sequence,flow.Sequence,4_1,2023-05-02T20:26:49.530Z,,0,,,2898.746000047686,completion,,,,,false,,,,85649.39999997616,85649.20000004768,82733.786,82745.89999997616,82750.454,85650.686,8,400,,,
trial,html.Screen,4_2_0,2023-05-02T20:26:54.097Z,,0,1,,4565.614000071524,response,ISIC_4885444.JPG,,ISIC_9100283.JPG,ISIC_9100283.JPG,false,0,keypress(Z),500,90216.60000002384,90216.30000007153,85634.018,85649.5,85650.686,90217.718,8,400,3,,ISIC_4885444.JPG
break,html.Screen,4_2_1,2023-05-02T20:26:54.098Z,,0,,,NaN,,,,,,false,,,,90217,90216.80000007153,,90216.70000004768,,90217.718,8,400,,,
break_continue,html.Screen,4_2_2,2023-05-02T20:26:54.098Z,,0,,,NaN,,,,,,false,,,,90217.30000007153,90217.20000004768,,90217.10000002384,,90217.718,8,400,,,
sequence,flow.Sequence,4_2,2023-05-02T20:26:54.098Z,,0,,,4566.514000047682,completion,,,,,false,,,,90217.39999997616,90217.20000004768,85634.018,85649.39999997616,85650.686,90217.718,8,400,,,
trial,html.Screen,4_3_0,2023-05-02T20:26:57.175Z,,0,1,,3075.9820000476902,response,ISIC_0032590.JPG,,ISIC_2166661.JPG,ISIC_2166661.JPG,false,0,keypress(Z),500,93293.89999997616,93293.70000004768,90201.05,90217.5,90217.718,93303.19,8,400,4,,ISIC_0032590.JPG
break,html.Screen,4_3_1,2023-05-02T20:26:57.175Z,,0,,,NaN,,,,,,false,,,,93294.39999997616,93294.30000007153,,93294,,93303.19,8,400,,,
break_continue,html.Screen,4_3_2,2023-05-02T20:26:57.175Z,,0,,,NaN,,,,,,false,,,,93294.60000002384,93294.60000002384,,93294.39999997616,,93303.19,8,400,,,
sequence,flow.Sequence,4_3,2023-05-02T20:26:57.175Z,,0,,,3076.8820000238484,completion,,,,,false,,,,93294.80000007153,93294.60000002384,90201.05,90217.5,90217.718,93303.19,8,400,,,
trial,html.Screen,4_4_0,2023-05-02T20:27:00.279Z,,0,1,,3095.3099999999977,response,ISIC_0071901.JPG,,ISIC_0010397.JPG,ISIC_0010397.JPG,false,0,keypress(Z),500,96398.70000004768,96398.5,93286.522,93294.80000007153,93303.19,96403.438,8,400,5,,ISIC_0071901.JPG
break,html.Screen,4_4_1,2023-05-02T20:27:00.280Z,,0,,,NaN,,,,,,false,,,,96399.10000002384,96398.89999997616,,96398.80000007153,,96403.438,8,400,,,
break_continue,html.Screen,4_4_2,2023-05-02T20:27:00.280Z,,0,,,NaN,,,,,,false,,,,96399.30000007153,96399.30000007153,,96399.20000004768,,96403.438,8,400,,,
sequence,flow.Sequence,4_4,2023-05-02T20:27:00.280Z,,0,,,3096.1100000715232,completion,,,,,false,,,,96399.39999997616,96399.30000007153,93286.522,93294.80000007153,93303.19,96403.438,8,400,,,
trial,html.Screen,4_5_0,2023-05-02T20:27:06.050Z,,0,1,,5765.262000047689,response,ISIC_8690631.JPG,,ISIC_0031999.JPG,ISIC_0031999.JPG,false,0,keypress(Z),500,102168.89999997616,102168.70000004768,96386.77,96399.60000002384,96403.438,102170.566,8,400,6,,ISIC_8690631.JPG
break,html.Screen,4_5_1,2023-05-02T20:27:06.050Z,,0,,,NaN,,,,,,false,,,,102169.30000007153,102169.20000004768,,102168.89999997616,,102170.566,8,400,,,
break_continue,html.Screen,4_5_2,2023-05-02T20:27:06.050Z,,0,,,NaN,,,,,,false,,,,102169.5,102169.5,,102169.39999997616,,102170.566,8,400,,,
sequence,flow.Sequence,4_5,2023-05-02T20:27:06.051Z,,0,,,5766.062000000005,completion,,,,,false,,,,102169.60000002384,102169.5,96386.77,96399.60000002384,96403.438,102170.566,8,400,,,
trial,html.Screen,4_6_0,2023-05-02T20:27:08.801Z,,0,1,,2748.7340000715194,response,ISIC_5746904.JPG,,ISIC_0055086.JPG,ISIC_0055086.JPG,false,0,keypress(Z),500,104919.39999997616,104919.30000007153,102153.898,102169.70000004768,102170.566,104922.646,8,400,7,,ISIC_5746904.JPG
break,html.Screen,4_6_1,2023-05-02T20:27:08.801Z,,0,,,NaN,,,,,,false,,,,104919.89999997616,104919.80000007153,,104919.60000002384,,104922.646,8,400,,,
break_continue,html.Screen,4_6_2,2023-05-02T20:27:08.801Z,,0,,,NaN,,,,,,false,,,,104920.10000002384,104920.10000002384,,104920,,104922.646,8,400,,,
sequence,flow.Sequence,4_6,2023-05-02T20:27:08.801Z,,0,,,2749.5340000238357,completion,,,,,false,,,,104920.20000004768,104920.10000002384,102153.898,102169.70000004768,102170.566,104922.646,8,400,,,
trial,html.Screen,4_7_0,2023-05-02T20:27:12.864Z,,0,1,,4059.8540000000066,response,ISIC_7565128.JPG,,ISIC_0028285.JPG,ISIC_0028285.JPG,false,0,keypress(Z),500,108982.80000007153,108982.5,104905.978,104920.39999997616,104922.646,108989.638,8,400,8,,ISIC_7565128.JPG
break,html.Screen,4_7_1,2023-05-02T20:27:12.864Z,,0,,,NaN,,,,,,false,,,,108983.20000004768,108983.10000002384,,108982.89999997616,,108989.638,8,400,,,
break_continue,html.Screen,4_7_2,2023-05-02T20:27:12.865Z,,0,,,NaN,,,,,,false,,,,108983.39999997616,108983.39999997616,,108983.20000004768,,108989.638,8,400,,,
sequence,flow.Sequence,4_7,2023-05-02T20:27:12.865Z,,0,,,4060.753999976165,completion,,,,,false,,,,108983.5,108983.39999997616,104905.978,104920.39999997616,104922.646,108989.638,8,400,,,
trial,html.Screen,4_8_0,2023-05-02T20:27:15.472Z,,0,1,,2600.761999976152,response,ISIC_4781223.JPG,,ISIC_4128129.JPG,ISIC_4128129.JPG,false,0,keypress(Z),500,111590.60000002384,111590.39999997616,108972.97,108983.60000002384,108989.638,111606.514,8,400,9,,ISIC_4781223.JPG
break,html.Screen,4_8_1,2023-05-02T20:27:15.472Z,,0,,,NaN,,,,,,false,,,,111591.10000002384,111590.89999997616,,111590.70000004768,,111606.514,8,400,,,
break_continue,html.Screen,4_8_2,2023-05-02T20:27:15.473Z,,0,,,NaN,,,,,,false,,,,111591.30000007153,111591.30000007153,,111591.10000002384,,111606.514,8,400,,,
sequence,flow.Sequence,4_8,2023-05-02T20:27:15.473Z,,0,,,2601.6620000715193,completion,,,,,false,,,,111591.39999997616,111591.30000007153,108972.97,108983.60000002384,108989.638,111606.514,8,400,,,
trial,html.Screen,4_9_0,2023-05-02T20:27:17.827Z,,0,1,,2339.186000047688,response,ISIC_0024661.JPG,,ISIC_4412555.JPG,ISIC_4412555.JPG,false,0,keypress(Z),500,113945.89999997616,113945.70000004768,111589.846,111591.60000002384,111606.514,113975.228,8,400,10,,ISIC_0024661.JPG
break,html.Screen,4_9_1,2023-05-02T20:27:17.828Z,,0,,,NaN,,,,,,false,,,,113946.39999997616,113946.20000004768,,113946.10000002384,,113975.228,8,400,,,
break_continue,html.Screen,4_9_2,2023-05-02T20:27:17.828Z,,0,,,NaN,,,,,,false,,,,113946.60000002384,113946.39999997616,,113946.39999997616,,113975.228,8,400,,,
sequence,flow.Sequence,4_9,2023-05-02T20:27:17.828Z,,0,,,2339.8859999761626,completion,,,,,false,,,,113946.70000004768,113946.39999997616,111589.846,111591.5,111606.514,113975.228,8,400,,,
trial,html.Screen,4_10_0,2023-05-02T20:27:20.168Z,,0,1,,2310.771999999997,response,ISIC_8505412.JPG,,ISIC_1046678.JPG,ISIC_1046678.JPG,false,0,keypress(Z),500,116286.30000007153,116286,113958.56,113946.80000007153,113975.228,116292.08,8,400,11,,ISIC_8505412.JPG
break,html.Screen,4_10_1,2023-05-02T20:27:20.168Z,,0,,,NaN,,,,,,false,,,,116286.70000004768,116286.60000002384,,116286.39999997616,,116292.08,8,400,,,
break_continue,html.Screen,4_10_2,2023-05-02T20:27:20.168Z,,0,,,NaN,,,,,,false,,,,116287,116286.89999997616,,116286.89999997616,,116292.08,8,400,,,
sequence,flow.Sequence,4_10,2023-05-02T20:27:20.169Z,,0,,,2311.6719999761553,completion,,,,,false,,,,116287.10000002384,116286.89999997616,113958.56,113946.70000004768,113975.228,116292.08,8,400,,,
trial,html.Screen,4_11_0,2023-05-02T20:27:23.032Z,,0,1,,2858.720000071524,response,ISIC_9041897.JPG,,ISIC_3372067.JPG,ISIC_3372067.JPG,false,0,keypress(Z),500,119150.89999997616,119150.80000007153,116275.412,116287.20000004768,116292.08,119158.976,8,400,12,,ISIC_9041897.JPG
break,html.Screen,4_11_1,2023-05-02T20:27:23.033Z,,0,,,NaN,,,,,,false,,,,119151.39999997616,119151.20000004768,,119151.10000002384,,119158.976,8,400,,,
break_continue,html.Screen,4_11_2,2023-05-02T20:27:23.033Z,,0,,,NaN,,,,,,false,,,,119151.60000002384,119151.5,,119151.39999997616,,119158.976,8,400,,,
sequence,flow.Sequence,4_11,2023-05-02T20:27:23.033Z,,0,,,2859.4199999999983,completion,,,,,false,,,,119151.70000004768,119151.5,116275.412,116287.20000004768,116292.08,119158.976,8,400,,,
trial,html.Screen,4_12_0,2023-05-02T20:27:26.121Z,,0,1,,3079.8240000715305,response,ISIC_0027170.JPG,,ISIC_0357043.JPG,ISIC_0027170.JPG,false,1,keypress(m),500,122238.89999997616,122238.80000007153,119142.308,119151.80000007153,119158.976,122242.556,8,400,13,,ISIC_0357043.JPG
break,html.Screen,4_12_1,2023-05-02T20:27:26.121Z,,0,,,NaN,,,,,,false,,,,122239.39999997616,122239.30000007153,,122239.10000002384,,122242.556,8,400,,,
break_continue,html.Screen,4_12_2,2023-05-02T20:27:26.121Z,,0,,,NaN,,,,,,false,,,,122239.60000002384,122239.5,,122239.39999997616,,122242.556,8,400,,,
sequence,flow.Sequence,4_12,2023-05-02T20:27:26.121Z,,0,,,3080.524000000005,completion,,,,,false,,,,122239.70000004768,122239.5,119142.308,119151.80000007153,119158.976,122242.556,8,400,,,
trial,html.Screen,4_13_0,2023-05-02T20:27:28.418Z,,0,1,,2293.3439999761613,response,ISIC_0030957.JPG,,ISIC_2513481.JPG,ISIC_2513481.JPG,false,0,keypress(z),500,124536,124535.89999997616,122225.888,122239.80000007153,122242.556,124544.595,8,400,14,,ISIC_0030957.JPG
break,html.Screen,4_13_1,2023-05-02T20:27:28.418Z,,0,,,NaN,,,,,,false,,,,124536.5,124536.39999997616,,124536.20000004768,,124544.595,8,400,,,
break_continue,html.Screen,4_13_2,2023-05-02T20:27:28.418Z,,0,,,NaN,,,,,,false,,,,124536.70000004768,124536.60000002384,,124536.60000002384,,124544.595,8,400,,,
sequence,flow.Sequence,4_13,2023-05-02T20:27:28.419Z,,0,,,2294.044000023845,completion,,,,,false,,,,124536.89999997616,124536.60000002384,122225.888,122239.80000007153,122242.556,124544.595,8,400,,,
trial,html.Screen,4_14_0,2023-05-02T20:27:31.001Z,,0,1,,2574.804999976157,response,ISIC_0030695.JPG,,ISIC_9788545.JPG,ISIC_0030695.JPG,false,1,keypress(m),500,127119.60000002384,127119.39999997616,124527.927,124537,124544.595,127144.803,8,400,15,,ISIC_9788545.JPG
break,html.Screen,4_14_1,2023-05-02T20:27:31.002Z,,0,,,NaN,,,,,,false,,,,127120,127119.89999997616,,127119.80000007153,,127144.803,8,400,,,
break_continue,html.Screen,4_14_2,2023-05-02T20:27:31.002Z,,0,,,NaN,,,,,,false,,,,127120.30000007153,127120.20000004768,,127120.10000002384,,127144.803,8,400,,,
sequence,flow.Sequence,4_14,2023-05-02T20:27:31.002Z,,0,,,2575.6050000476826,completion,,,,,false,,,,127120.39999997616,127120.20000004768,124527.927,124536.89999997616,124544.595,127144.803,8,400,,,
trial,html.Screen,4_15_0,2023-05-02T20:27:33.672Z,,0,1,,2644.897000047684,response,ISIC_1788979.JPG,,ISIC_0011031.JPG,ISIC_1788979.JPG,false,1,keypress(m),500,129789.80000007153,129789.70000004768,127128.135,127120.5,127144.803,129795.015,8,400,16,,ISIC_0011031.JPG
break,html.Screen,4_15_1,2023-05-02T20:27:33.672Z,,0,,,NaN,,,,,,false,,,,129790.30000007153,129790.10000002384,,129790,,129795.015,8,400,,,
break_continue,html.Screen,4_15_2,2023-05-02T20:27:33.672Z,,0,,,NaN,,,,,,false,,,,129790.60000002384,129790.5,,129790.39999997616,,129795.015,8,400,,,
sequence,flow.Sequence,4_15,2023-05-02T20:27:33.672Z,,0,,,2645.697,completion,,,,,false,,,,129790.70000004768,129790.5,127128.135,127120.5,127144.803,129795.015,8,400,,,
trial,html.Screen,4_16_0,2023-05-02T20:27:36.307Z,,0,1,,2629.785000071526,response,ISIC_9142919.JPG,,ISIC_0056127.JPG,ISIC_9142919.JPG,false,1,keypress(m),500,132424.89999997616,132424.80000007153,129778.347,129790.70000004768,129795.015,132428.559,8,400,17,,ISIC_0056127.JPG
break,html.Screen,4_16_1,2023-05-02T20:27:36.307Z,,0,,,NaN,,,,,,false,,,,132425.30000007153,132425.20000004768,,132425.10000002384,,132428.559,8,400,,,
break_continue,html.Screen,4_16_2,2023-05-02T20:27:36.307Z,,0,,,NaN,,,,,,false,,,,132425.60000002384,132425.5,,132425.39999997616,,132428.559,8,400,,,
sequence,flow.Sequence,4_16,2023-05-02T20:27:36.308Z,,0,,,2630.4850000000006,completion,,,,,false,,,,132425.70000004768,132425.5,129778.347,129790.70000004768,129795.015,132428.559,8,400,,,
trial,html.Screen,4_17_0,2023-05-02T20:27:39.179Z,,0,1,,2867.9409999999916,response,ISIC_0069986.JPG,,ISIC_0982855.JPG,ISIC_0982855.JPG,false,0,keypress(z),500,135296.60000002384,135296.5,132411.891,132425.70000004768,132428.559,135297.308,8,400,18,,ISIC_0069986.JPG
break,html.Screen,4_17_1,2023-05-02T20:27:39.179Z,,0,,,NaN,,,,,,false,,,,135297.10000002384,135296.89999997616,,135296.70000004768,,135297.308,8,400,,,
break_continue,html.Screen,4_17_2,2023-05-02T20:27:39.179Z,,0,,,NaN,,,,,,false,,,,135297.30000007153,135297.20000004768,,135297.20000004768,,135297.308,8,400,,,
sequence,flow.Sequence,4_17,2023-05-02T20:27:39.179Z,,0,,,2868.6410000476753,completion,,,,,false,,,,135297.39999997616,135297.20000004768,132411.891,132425.70000004768,132428.559,135297.308,8,400,,,
trial,html.Screen,4_18_0,2023-05-02T20:27:42.369Z,,0,1,,3188.292000023852,response,ISIC_0060978.JPG,,ISIC_1595325.JPG,ISIC_1595325.JPG,false,0,keypress(z),500,138486.70000004768,138485.60000002384,135280.64,135297.5,135297.308,138497.564,8,400,19,,ISIC_0060978.JPG
break,html.Screen,4_18_1,2023-05-02T20:27:42.370Z,,0,,,NaN,,,,,,false,,,,138488.20000004768,138488.10000002384,,138487,,138497.564,8,400,,,
break_continue,html.Screen,4_18_2,2023-05-02T20:27:42.371Z,,0,,,NaN,,,,,,false,,,,138488.5,138488.30000007153,,138488.20000004768,,138497.564,8,400,,,
sequence,flow.Sequence,4_18,2023-05-02T20:27:42.371Z,,0,,,3190.9920000715356,completion,,,,,false,,,,138488.60000002384,138488.30000007153,135280.64,135297.5,135297.308,138497.564,8,400,,,
trial,html.Screen,4_19_0,2023-05-02T20:27:45.723Z,,0,1,,3343.036000023829,response,ISIC_4475268.JPG,,ISIC_0033473.JPG,ISIC_4475268.JPG,false,1,keypress(m),500,141840.70000004768,141840.60000002384,138480.896,138488.70000004768,138497.564,141847.832,8,400,20,,ISIC_0033473.JPG
break,html.Screen,4_19_1,2023-05-02T20:27:45.723Z,,0,,,NaN,,,,,,false,,,,141841.20000004768,141841.10000002384,,141840.89999997616,,141847.832,8,400,,,
break_continue,html.Screen,4_19_2,2023-05-02T20:27:45.724Z,,0,,,NaN,,,,,,false,,,,141841.39999997616,141841.39999997616,,141841.30000007153,,141847.832,8,400,,,
sequence,flow.Sequence,4_19,2023-05-02T20:27:45.724Z,,0,,,3343.835999976145,completion,,,,,false,,,,141841.60000002384,141841.39999997616,138480.896,138488.60000002384,138497.564,141847.832,8,400,,,
trial,html.Screen,4_20_0,2023-05-02T20:27:48.707Z,,0,1,,2976.5679999761633,response,ISIC_0029591.JPG,,ISIC_1784613.JPG,ISIC_1784613.JPG,false,0,keypress(z),500,144824.60000002384,144824.39999997616,141831.164,141841.60000002384,141847.832,144833.267,8,400,21,,ISIC_0029591.JPG
break,html.Screen,4_20_1,2023-05-02T20:27:48.707Z,,0,,,NaN,,,,,,false,,,,144824.89999997616,144824.80000007153,,144824.70000004768,,144833.267,8,400,,,
break_continue,html.Screen,4_20_2,2023-05-02T20:27:48.707Z,,0,,,NaN,,,,,,false,,,,144825.10000002384,144825.10000002384,,144825,,144833.267,8,400,,,
sequence,flow.Sequence,4_20,2023-05-02T20:27:48.708Z,,0,,,2977.268000023847,completion,,,,,false,,,,144825.30000007153,144825.10000002384,141831.164,141841.60000002384,141847.832,144833.267,8,400,,,
trial,html.Screen,4_21_0,2023-05-02T20:27:51.384Z,,0,1,,2668.033000071533,response,ISIC_2105563.JPG,,ISIC_4715386.JPG,ISIC_2105563.JPG,false,1,keypress(m),500,147501.39999997616,147501.30000007153,144816.599,144825.39999997616,144833.267,147516.815,8,400,22,,ISIC_4715386.JPG
break,html.Screen,4_21_1,2023-05-02T20:27:51.384Z,,0,,,NaN,,,,,,false,,,,147502,147501.80000007153,,147501.60000002384,,147516.815,8,400,,,
break_continue,html.Screen,4_21_2,2023-05-02T20:27:51.384Z,,0,,,NaN,,,,,,false,,,,147502.10000002384,147502,,147502,,147516.815,8,400,,,
sequence,flow.Sequence,4_21,2023-05-02T20:27:51.385Z,,0,,,2668.7330000000075,completion,,,,,false,,,,147502.30000007153,147502,144816.599,144825.30000007153,144833.267,147516.815,8,400,,,
trial,html.Screen,4_22_0,2023-05-02T20:27:54.249Z,,0,1,,2849.6849999999977,response,ISIC_0010532.JPG,,ISIC_4887995.JPG,ISIC_4887995.JPG,false,0,keypress(z),500,150366.70000004768,150366.5,147500.147,147502.39999997616,147516.815,150383.711,8,400,23,,ISIC_0010532.JPG
break,html.Screen,4_22_1,2023-05-02T20:27:54.250Z,,0,,,NaN,,,,,,false,,,,150367.10000002384,150367,,150366.80000007153,,150383.711,8,400,,,
break_continue,html.Screen,4_22_2,2023-05-02T20:27:54.250Z,,0,,,NaN,,,,,,false,,,,150367.30000007153,150367.30000007153,,150367.20000004768,,150383.711,8,400,,,
sequence,flow.Sequence,4_22,2023-05-02T20:27:54.250Z,,0,,,2850.4850000715232,completion,,,,,false,,,,150367.5,150367.30000007153,147500.147,147502.39999997616,147516.815,150383.711,8,400,,,
trial,html.Screen,4_23_0,2023-05-02T20:27:57.562Z,,0,1,,3295.0890000715153,response,ISIC_3928910.JPG,,ISIC_0070551.JPG,ISIC_0070551.JPG,false,0,keypress(z),500,153679,153678.80000007153,150367.043,150367.60000002384,150383.711,153683.975,8,400,24,,ISIC_3928910.JPG
break,html.Screen,4_23_1,2023-05-02T20:27:57.562Z,,0,,,NaN,,,,,,false,,,,153679.39999997616,153679.39999997616,,153679.10000002384,,153683.975,8,400,,,
break_continue,html.Screen,4_23_2,2023-05-02T20:27:57.562Z,,0,,,NaN,,,,,,false,,,,153679.70000004768,153679.60000002384,,153679.60000002384,,153683.975,8,400,,,
sequence,flow.Sequence,4_23,2023-05-02T20:27:57.562Z,,0,,,3295.8890000238316,completion,,,,,false,,,,153679.80000007153,153679.60000002384,150367.043,150367.60000002384,150383.711,153683.975,8,400,,,
trial,html.Screen,4_24_0,2023-05-02T20:28:00.608Z,,0,1,,3041.3250000715198,response,ISIC_7109582.JPG,,ISIC_9364740.JPG,ISIC_9364740.JPG,false,0,keypress(z),500,156725.39999997616,156725.30000007153,153667.307,153679.89999997616,153683.975,156736.097,8,400,25,,ISIC_7109582.JPG
break,html.Screen,4_24_1,2023-05-02T20:28:00.608Z,,0,,,NaN,,,,,,false,,,,156725.80000007153,156725.70000004768,,156725.60000002384,,156736.097,8,400,,,
break_continue,html.Screen,4_24_2,2023-05-02T20:28:00.609Z,,0,,,NaN,,,,,,false,,,,156726.10000002384,156726,,156725.89999997616,,156736.097,8,400,,,
sequence,flow.Sequence,4_24,2023-05-02T20:28:00.609Z,,0,,,3042.024999999994,completion,,,,,false,,,,156726.10000002384,156726,153667.307,153679.80000007153,153683.975,156736.097,8,400,,,
trial,html.Screen,4_25_0,2023-05-02T20:28:03.162Z,,0,1,,2542.7030000715167,response,ISIC_2532039.JPG,,ISIC_0057997.JPG,ISIC_2532039.JPG,false,1,keypress(m),500,159279,159278.80000007153,156719.429,156726.30000007153,156736.097,159286.301,8,400,26,,ISIC_0057997.JPG
break,html.Screen,4_25_1,2023-05-02T20:28:03.162Z,,0,,,NaN,,,,,,false,,,,159279.39999997616,159279.30000007153,,159279.10000002384,,159286.301,8,400,,,
break_continue,html.Screen,4_25_2,2023-05-02T20:28:03.162Z,,0,,,NaN,,,,,,false,,,,159279.70000004768,159279.5,,159279.5,,159286.301,8,400,,,
sequence,flow.Sequence,4_25,2023-05-02T20:28:03.162Z,,0,,,2543.402999999991,completion,,,,,false,,,,159279.70000004768,159279.5,156719.429,156726.20000004768,156736.097,159286.301,8,400,,,
trial,html.Screen,4_26_0,2023-05-02T20:28:05.795Z,,0,1,,2626.1989999999932,response,ISIC_9564379.JPG,,ISIC_4642695.JPG,ISIC_9564379.JPG,false,1,keypress(m),500,161912.60000002384,161912.5,159269.633,159279.80000007153,159286.301,161919.845,8,400,27,,ISIC_4642695.JPG
break,html.Screen,4_26_1,2023-05-02T20:28:05.796Z,,0,,,NaN,,,,,,false,,,,161913,161912.89999997616,,161912.70000004768,,161919.845,8,400,,,
break_continue,html.Screen,4_26_2,2023-05-02T20:28:05.796Z,,0,,,NaN,,,,,,false,,,,161913.20000004768,161913.20000004768,,161913.20000004768,,161919.845,8,400,,,
sequence,flow.Sequence,4_26,2023-05-02T20:28:05.796Z,,0,,,2626.899000047677,completion,,,,,false,,,,161913.39999997616,161913.20000004768,159269.633,159279.80000007153,159286.301,161919.845,8,400,,,
trial,html.Screen,4_27_0,2023-05-02T20:28:08.482Z,,0,1,,2679.4550000715244,response,ISIC_5518557.JPG,,ISIC_8853902.JPG,ISIC_8853902.JPG,false,0,keypress(z),500,164599.5,164599.30000007153,161903.177,161913.5,161919.845,164603.393,8,400,28,,ISIC_5518557.JPG
break,html.Screen,4_27_1,2023-05-02T20:28:08.483Z,,0,,,NaN,,,,,,false,,,,164599.89999997616,164599.80000007153,,164599.60000002384,,164603.393,8,400,,,
break_continue,html.Screen,4_27_2,2023-05-02T20:28:08.483Z,,0,,,NaN,,,,,,false,,,,164600.10000002384,164600.10000002384,,164599.89999997616,,164603.393,8,400,,,
sequence,flow.Sequence,4_27,2023-05-02T20:28:08.483Z,,0,,,2680.2550000238407,completion,,,,,false,,,,164600.20000004768,164600.10000002384,161903.177,161913.39999997616,161919.845,164603.393,8,400,,,
trial,html.Screen,4_28_0,2023-05-02T20:28:11.115Z,,0,1,,2628.207000023831,response,ISIC_0058909.JPG,,ISIC_7443391.JPG,ISIC_7443391.JPG,false,0,keypress(z),500,167231.80000007153,167231.60000002384,164586.725,164600.30000007153,164603.393,167238.8,8,400,29,,ISIC_0058909.JPG
break,html.Screen,4_28_1,2023-05-02T20:28:11.115Z,,0,,,NaN,,,,,,false,,,,167232.20000004768,167232.10000002384,,167231.89999997616,,167238.8,8,400,,,
break_continue,html.Screen,4_28_2,2023-05-02T20:28:11.115Z,,0,,,NaN,,,,,,false,,,,167232.39999997616,167232.30000007153,,167232.30000007153,,167238.8,8,400,,,
sequence,flow.Sequence,4_28,2023-05-02T20:28:11.115Z,,0,,,2628.9070000715146,completion,,,,,false,,,,167232.60000002384,167232.30000007153,164586.725,164600.20000004768,164603.393,167238.8,8,400,,,
trial,html.Screen,4_29_0,2023-05-02T20:28:13.706Z,,0,1,,2584.09999997617,response,ISIC_0000377.JPG,,ISIC_0062005.JPG,ISIC_0000377.JPG,false,1,keypress(m),500,169823,169822.89999997616,167222.132,167232.60000002384,167238.8,169839.008,8,400,30,,ISIC_0062005.JPG
break,html.Screen,4_29_1,2023-05-02T20:28:13.706Z,,0,,,NaN,,,,,,false,,,,169823.5,169823.30000007153,,169823.20000004768,,169839.008,8,400,,,
break_continue,html.Screen,4_29_2,2023-05-02T20:28:13.707Z,,0,,,NaN,,,,,,false,,,,169823.60000002384,169823.5,,169823.5,,169839.008,8,400,,,
sequence,flow.Sequence,4_29,2023-05-02T20:28:13.707Z,,0,,,2584.7000000000116,completion,,,,,false,,,,169823.80000007153,169823.5,167222.132,167232.60000002384,167238.8,169839.008,8,400,,,
trial,html.Screen,4_30_0,2023-05-02T20:28:16.433Z,,0,1,,2710.8919999761565,response,ISIC_6899527.JPG,,ISIC_9024078.JPG,ISIC_9024078.JPG,false,0,keypress(z),500,172550,172549.89999997616,169822.34,169823.89999997616,169839.008,172555.892,8,400,31,,ISIC_6899527.JPG
break,html.Screen,4_30_1,2023-05-02T20:28:16.434Z,,0,,,NaN,,,,,,false,,,,172550.5,172550.39999997616,,172550.10000002384,,172555.892,8,400,,,
break_continue,html.Screen,4_30_2,2023-05-02T20:28:16.434Z,,0,,,NaN,,,,,,false,,,,172550.60000002384,172550.60000002384,,172550.5,,172555.892,8,400,,,
sequence,flow.Sequence,4_30,2023-05-02T20:28:16.434Z,,0,,,2711.5920000238402,completion,,,,,false,,,,172550.80000007153,172550.60000002384,169822.34,169823.80000007153,169839.008,172555.892,8,400,,,
trial,html.Screen,4_31_0,2023-05-02T20:28:19.242Z,,0,1,,2802.7080000238493,response,ISIC_0254447.JPG,,ISIC_8133350.JPG,ISIC_0254447.JPG,false,1,keypress(m),500,175358.70000004768,175358.60000002384,172539.224,172550.89999997616,172555.892,175372.784,8,400,32,,ISIC_8133350.JPG
break,html.Screen,4_31_1,2023-05-02T20:28:19.242Z,,0,,,NaN,,,,,,false,,,,175359.10000002384,175359.10000002384,,175358.89999997616,,175372.784,8,400,,,
break_continue,html.Screen,4_31_2,2023-05-02T20:28:19.243Z,,0,,,NaN,,,,,,false,,,,175359.39999997616,175359.30000007153,,175359.30000007153,,175372.784,8,400,,,
sequence,flow.Sequence,4_31,2023-05-02T20:28:19.243Z,,0,,,2803.408000071533,completion,,,,,false,,,,175359.5,175359.30000007153,172539.224,172550.80000007153,172555.892,175372.784,8,400,,,
trial,html.Screen,4_32_0,2023-05-02T20:28:21.850Z,,0,1,,2594.115999976144,response,ISIC_4589609.JPG,,ISIC_1336351.JPG,ISIC_1336351.JPG,false,0,keypress(z),500,177967,177966.89999997616,175356.116,175359.60000002384,175372.784,177974.83,8,400,33,,ISIC_4589609.JPG
break,html.Screen,4_32_1,2023-05-02T20:28:21.851Z,,0,,,NaN,,,,,,false,,,,177967.39999997616,177967.30000007153,,177967.10000002384,,177974.83,8,400,,,
break_continue,html.Screen,4_32_2,2023-05-02T20:28:21.851Z,,0,,,NaN,,,,,,false,,,,177967.60000002384,177967.60000002384,,177967.5,,177974.83,8,400,,,
sequence,flow.Sequence,4_32,2023-05-02T20:28:21.851Z,,0,,,2594.8160000238277,completion,,,,,false,,,,177967.70000004768,177967.60000002384,175356.116,175359.5,175372.784,177974.83,8,400,,,
trial,html.Screen,4_33_0,2023-05-02T20:28:25.059Z,,0,1,,3200.4700000715384,response,ISIC_0867503.JPG,,ISIC_0058753.JPG,ISIC_0867503.JPG,false,1,keypress(m),500,181175.39999997616,181175.30000007153,177958.162,177967.89999997616,177974.83,181191.754,8,400,34,,ISIC_0058753.JPG
break,html.Screen,4_33_1,2023-05-02T20:28:25.059Z,,0,,,NaN,,,,,,false,,,,181175.89999997616,181175.70000004768,,181175.5,,181191.754,8,400,,,
break_continue,html.Screen,4_33_2,2023-05-02T20:28:25.059Z,,0,,,NaN,,,,,,false,,,,181176.10000002384,181176,,181175.89999997616,,181191.754,8,400,,,
sequence,flow.Sequence,4_33,2023-05-02T20:28:25.060Z,,0,,,3201.170000000013,completion,,,,,false,,,,181176.10000002384,181176,177958.162,177967.80000007153,177974.83,181191.754,8,400,,,
trial,html.Screen,4_34_0,2023-05-02T20:28:28.268Z,,0,1,,3192.8460000238556,response,ISIC_4034644.JPG,,ISIC_4998826.JPG,ISIC_4034644.JPG,false,1,keypress(m),500,184384.70000004768,184384.60000002384,181175.086,181176.20000004768,181191.754,184392.01,8,400,35,,ISIC_4998826.JPG
break,html.Screen,4_34_1,2023-05-02T20:28:28.269Z,,0,,,NaN,,,,,,false,,,,184385.20000004768,184385.10000002384,,184384.89999997616,,184392.01,8,400,,,
break_continue,html.Screen,4_34_2,2023-05-02T20:28:28.269Z,,0,,,NaN,,,,,,false,,,,184385.5,184385.39999997616,,184385.20000004768,,184392.01,8,400,,,
sequence,flow.Sequence,4_34,2023-05-02T20:28:28.269Z,,0,,,3193.645999976172,completion,,,,,false,,,,184385.5,184385.39999997616,181175.086,181176.20000004768,181191.754,184392.01,8,400,,,
trial,html.Screen,4_35_0,2023-05-02T20:28:30.980Z,,0,1,,2704.2900000715163,response,ISIC_0061158.JPG,,ISIC_0026759.JPG,ISIC_0026759.JPG,false,0,keypress(z),500,187096.39999997616,187096.30000007153,184375.342,184385.60000002384,184392.01,187111.517,8,400,36,,ISIC_0061158.JPG
break,html.Screen,4_35_1,2023-05-02T20:28:30.980Z,,0,,,NaN,,,,,,false,,,,187096.89999997616,187096.80000007153,,187096.5,,187111.517,8,400,,,
break_continue,html.Screen,4_35_2,2023-05-02T20:28:30.981Z,,0,,,NaN,,,,,,false,,,,187097.10000002384,187097,,187097,,187111.517,8,400,,,
sequence,flow.Sequence,4_35,2023-05-02T20:28:30.981Z,,0,,,2704.9899999999907,completion,,,,,false,,,,187097.20000004768,187097,184375.342,184385.60000002384,184392.01,187111.517,8,400,,,
trial,html.Screen,4_36_0,2023-05-02T20:28:33.755Z,,0,1,,2759.5830000238493,response,ISIC_9754098.JPG,,ISIC_0015136.JPG,ISIC_9754098.JPG,false,1,keypress(m),500,189871.30000007153,189871.10000002384,187094.849,187097.30000007153,187111.517,189878.405,8,400,37,,ISIC_0015136.JPG
break,html.Screen,4_36_1,2023-05-02T20:28:33.755Z,,0,,,NaN,,,,,,false,,,,189871.70000004768,189871.60000002384,,189871.39999997616,,189878.405,8,400,,,
break_continue,html.Screen,4_36_2,2023-05-02T20:28:33.756Z,,0,,,NaN,,,,,,false,,,,189871.89999997616,189871.80000007153,,189871.80000007153,,189878.405,8,400,,,
sequence,flow.Sequence,4_36,2023-05-02T20:28:33.756Z,,0,,,2760.283000071533,completion,,,,,false,,,,189872,189871.80000007153,187094.849,187097.30000007153,187111.517,189878.405,8,400,,,
trial,html.Screen,4_37_0,2023-05-02T20:28:36.419Z,,0,1,,2656.4949999761593,response,ISIC_9684649.JPG,,ISIC_7498132.JPG,ISIC_7498132.JPG,false,0,keypress(z),500,192535,192534.89999997616,189861.737,189872.10000002384,189878.405,192545.285,8,400,38,,ISIC_9684649.JPG
break,html.Screen,4_37_1,2023-05-02T20:28:36.419Z,,0,,,NaN,,,,,,false,,,,192535.5,192535.39999997616,,192535.20000004768,,192545.285,8,400,,,
break_continue,html.Screen,4_37_2,2023-05-02T20:28:36.419Z,,0,,,NaN,,,,,,false,,,,192535.70000004768,192535.70000004768,,192535.5,,192545.285,8,400,,,
sequence,flow.Sequence,4_37,2023-05-02T20:28:36.420Z,,0,,,2657.295000047685,completion,,,,,false,,,,192535.89999997616,192535.70000004768,189861.737,189872.10000002384,189878.405,192545.285,8,400,,,
trial,html.Screen,4_38_0,2023-05-02T20:28:39.203Z,,0,1,,2773.7149999999965,response,ISIC_0010044.JPG,,ISIC_0054185.JPG,ISIC_0010044.JPG,false,1,keypress(m),500,195319.20000004768,195319,192528.617,192535.89999997616,192545.285,195328.841,8,400,39,,ISIC_0054185.JPG
break,html.Screen,4_38_1,2023-05-02T20:28:39.203Z,,0,,,NaN,,,,,,false,,,,195319.60000002384,195319.5,,195319.30000007153,,195328.841,8,400,,,
break_continue,html.Screen,4_38_2,2023-05-02T20:28:39.204Z,,0,,,NaN,,,,,,false,,,,195319.89999997616,195319.80000007153,,195319.70000004768,,195328.841,8,400,,,
sequence,flow.Sequence,4_38,2023-05-02T20:28:39.204Z,,0,,,2774.515000071522,completion,,,,,false,,,,195320,195319.80000007153,192528.617,192535.89999997616,192545.285,195328.841,8,400,,,
trial,html.Screen,4_39_0,2023-05-02T20:28:41.875Z,,0,1,,2661.659000000014,response,ISIC_1499915.JPG,,ISIC_0028919.JPG,ISIC_0028919.JPG,false,0,keypress(z),500,197990.70000004768,197990.5,195312.173,195320.10000002384,195328.841,197997.516,8,400,40,,ISIC_1499915.JPG
break,html.Screen,4_39_1,2023-05-02T20:28:41.875Z,,0,,,NaN,,,,,,false,,,,197991.10000002384,197991,,197990.80000007153,,197997.516,8,400,,,
break_continue,html.Screen,4_39_2,2023-05-02T20:28:41.875Z,,0,,,NaN,,,,,,false,,,,197991.30000007153,197991.20000004768,,197991.20000004768,,197997.516,8,400,,,
sequence,flow.Sequence,4_39,2023-05-02T20:28:41.875Z,,0,,,2662.359000047698,completion,,,,,false,,,,197991.39999997616,197991.20000004768,195312.173,195320,195328.841,197997.516,8,400,,,
trial,html.Screen,4_40_0,2023-05-02T20:28:44.669Z,,0,1,,2786.9839999999967,response,ISIC_0016161.JPG,,ISIC_0032226.JPG,ISIC_0032226.JPG,false,0,keypress(z),500,200784.60000002384,200784.5,197980.848,197991.5,197997.516,200797.74,8,400,41,,ISIC_0016161.JPG
break,html.Screen,4_40_1,2023-05-02T20:28:44.669Z,,0,,,NaN,,,,,,false,,,,200785,200784.89999997616,,200784.80000007153,,200797.74,8,400,,,
break_continue,html.Screen,4_40_2,2023-05-02T20:28:44.669Z,,0,,,NaN,,,,,,false,,,,200785.30000007153,200785.20000004768,,200785.20000004768,,200797.74,8,400,,,
sequence,flow.Sequence,4_40,2023-05-02T20:28:44.669Z,,0,,,2787.6840000476805,completion,,,,,false,,,,200785.30000007153,200785.20000004768,197980.848,197991.5,197997.516,200797.74,8,400,,,
trial,html.Screen,4_41_0,2023-05-02T20:28:47.243Z,,0,1,,2561.560000071535,response,ISIC_0001923.JPG,,ISIC_1956354.JPG,ISIC_0001923.JPG,false,1,keypress(m),500,203359.5,203359.30000007153,200781.072,200785.39999997616,200797.74,203364.612,8,400,42,,ISIC_1956354.JPG
break,html.Screen,4_41_1,2023-05-02T20:28:47.244Z,,0,,,NaN,,,,,,false,,,,203359.89999997616,203359.80000007153,,203359.5,,203364.612,8,400,,,
break_continue,html.Screen,4_41_2,2023-05-02T20:28:47.244Z,,0,,,NaN,,,,,,false,,,,203360.10000002384,203360,,203360,,203364.612,8,400,,,
sequence,flow.Sequence,4_41,2023-05-02T20:28:47.244Z,,0,,,2562.2600000000093,completion,,,,,false,,,,203360.30000007153,203360,200781.072,200785.39999997616,200797.74,203364.612,8,400,,,
trial,html.Screen,4_42_0,2023-05-02T20:28:49.538Z,,0,1,,2289.188000071532,response,ISIC_4950467.JPG,,ISIC_8274622.JPG,ISIC_8274622.JPG,false,0,keypress(z),500,205654,205653.80000007153,203347.944,203360.39999997616,203364.612,205681.464,8,400,43,,ISIC_4950467.JPG
break,html.Screen,4_42_1,2023-05-02T20:28:49.538Z,,0,,,NaN,,,,,,false,,,,205654.39999997616,205654.30000007153,,205654.10000002384,,205681.464,8,400,,,
break_continue,html.Screen,4_42_2,2023-05-02T20:28:49.539Z,,0,,,NaN,,,,,,false,,,,205654.70000004768,205654.60000002384,,205654.5,,205681.464,8,400,,,
sequence,flow.Sequence,4_42,2023-05-02T20:28:49.539Z,,0,,,2289.988000023848,completion,,,,,false,,,,205654.80000007153,205654.60000002384,203347.944,203360.30000007153,203364.612,205681.464,8,400,,,
trial,html.Screen,4_43_0,2023-05-02T20:28:52.088Z,,0,1,,2522.1360000238346,response,ISIC_7365889.JPG,,ISIC_0032913.JPG,ISIC_7365889.JPG,false,1,keypress(m),500,208203.70000004768,208203.60000002384,205664.796,205654.80000007153,205681.464,208233.594,8,400,44,,ISIC_0032913.JPG
break,html.Screen,4_43_1,2023-05-02T20:28:52.088Z,,0,,,NaN,,,,,,false,,,,208204.10000002384,208204,,208203.80000007153,,208233.594,8,400,,,
break_continue,html.Screen,4_43_2,2023-05-02T20:28:52.088Z,,0,,,NaN,,,,,,false,,,,208204.30000007153,208204.20000004768,,208204.10000002384,,208233.594,8,400,,,
sequence,flow.Sequence,4_43,2023-05-02T20:28:52.089Z,,0,,,2522.7360000476765,completion,,,,,false,,,,208204.39999997616,208204.20000004768,205664.796,205654.80000007153,205681.464,208233.594,8,400,,,
trial,html.Screen,4_44_0,2023-05-02T20:28:55.091Z,,0,1,,2973.405999999988,response,ISIC_0483289.JPG,,ISIC_0024261.JPG,ISIC_0483289.JPG,false,1,keypress(m),500,211207.10000002384,211207,208216.926,208204.5,208233.594,211217.166,8,400,45,,ISIC_0024261.JPG
break,html.Screen,4_44_1,2023-05-02T20:28:55.092Z,,0,,,NaN,,,,,,false,,,,211207.60000002384,211207.39999997616,,211207.20000004768,,211217.166,8,400,,,
break_continue,html.Screen,4_44_2,2023-05-02T20:28:55.092Z,,0,,,NaN,,,,,,false,,,,211207.80000007153,211207.70000004768,,211207.70000004768,,211217.166,8,400,,,
sequence,flow.Sequence,4_44,2023-05-02T20:28:55.092Z,,0,,,2974.106000047672,completion,,,,,false,,,,211207.89999997616,211207.70000004768,208216.926,208204.5,208233.594,211217.166,8,400,,,
trial,html.Screen,4_45_0,2023-05-02T20:28:57.715Z,,0,1,,2613.8340000000026,response,ISIC_0032134.JPG,,ISIC_4798962.JPG,ISIC_4798962.JPG,false,0,keypress(z),500,213831.20000004768,213831,211200.498,211208,211217.166,213834.042,8,400,46,,ISIC_0032134.JPG
break,html.Screen,4_45_1,2023-05-02T20:28:57.716Z,,0,,,NaN,,,,,,false,,,,213831.60000002384,213831.39999997616,,213831.30000007153,,213834.042,8,400,,,
break_continue,html.Screen,4_45_2,2023-05-02T20:28:57.716Z,,0,,,NaN,,,,,,false,,,,213831.80000007153,213831.70000004768,,213831.70000004768,,213834.042,8,400,,,
sequence,flow.Sequence,4_45,2023-05-02T20:28:57.716Z,,0,,,2614.5340000476863,completion,,,,,false,,,,213832,213831.70000004768,211200.498,211208,211217.166,213834.042,8,400,,,
trial,html.Screen,4_46_0,2023-05-02T20:29:00.412Z,,0,1,,2693.558000023855,response,ISIC_4870676.JPG,,ISIC_0011094.JPG,ISIC_4870676.JPG,false,1,keypress(m),500,216527.80000007153,216527.60000002384,213817.374,213832.10000002384,213834.042,216534.258,8,400,47,,ISIC_0011094.JPG
break,html.Screen,4_46_1,2023-05-02T20:29:00.413Z,,0,,,NaN,,,,,,false,,,,216528.10000002384,216528,,216527.80000007153,,216534.258,8,400,,,
break_continue,html.Screen,4_46_2,2023-05-02T20:29:00.413Z,,0,,,NaN,,,,,,false,,,,216528.39999997616,216528.30000007153,,216528.30000007153,,216534.258,8,400,,,
sequence,flow.Sequence,4_46,2023-05-02T20:29:00.413Z,,0,,,2694.258000071539,completion,,,,,false,,,,216528.5,216528.30000007153,213817.374,213832,213834.042,216534.258,8,400,,,
trial,html.Screen,4_47_0,2023-05-02T20:29:03.042Z,,0,1,,2623.042000071524,response,ISIC_5298608.JPG,,ISIC_8009880.JPG,ISIC_8009880.JPG,false,0,keypress(z),500,219157.39999997616,219157.30000007153,216517.59,216528.60000002384,216534.258,219169.656,8,400,48,,ISIC_5298608.JPG
break,html.Screen,4_47_1,2023-05-02T20:29:03.042Z,,0,,,NaN,,,,,,false,,,,219157.89999997616,219157.70000004768,,219157.5,,219169.656,8,400,,,
break_continue,html.Screen,4_47_2,2023-05-02T20:29:03.043Z,,0,,,NaN,,,,,,false,,,,219158.10000002384,219157.89999997616,,219157.89999997616,,219169.656,8,400,,,
sequence,flow.Sequence,4_47,2023-05-02T20:29:03.043Z,,0,,,2623.6419999761565,completion,,,,,false,,,,219158.10000002384,219157.89999997616,216517.59,216528.60000002384,216534.258,219169.656,8,400,,,
trial,html.Screen,4_48_0,2023-05-02T20:29:05.652Z,,0,1,,2597.4440000238537,response,ISIC_0032583.JPG,,ISIC_6954782.JPG,ISIC_6954782.JPG,false,0,keypress(z),500,221767.30000007153,221767.10000002384,219152.988,219158.30000007153,219169.656,221769.864,8,400,49,,ISIC_0032583.JPG
break,html.Screen,4_48_1,2023-05-02T20:29:05.652Z,,0,,,NaN,,,,,,false,,,,221767.70000004768,221767.60000002384,,221767.5,,221769.864,8,400,,,
break_continue,html.Screen,4_48_2,2023-05-02T20:29:05.652Z,,0,,,NaN,,,,,,false,,,,221767.89999997616,221767.80000007153,,221767.80000007153,,221769.864,8,400,,,
sequence,flow.Sequence,4_48,2023-05-02T20:29:05.653Z,,0,,,2598.1440000715374,completion,,,,,false,,,,221768,221767.80000007153,219152.988,219158.20000004768,219169.656,221769.864,8,400,,,
trial,html.Screen,4_49_0,2023-05-02T20:29:08.484Z,,0,1,,2829.3360000476823,response,ISIC_6188574.JPG,,ISIC_4343552.JPG,ISIC_6188574.JPG,false,1,keypress(m),500,224599.39999997616,224599.20000004768,221753.196,221768.10000002384,221769.864,224603.424,8,400,50,,ISIC_4343552.JPG
break,html.Screen,4_49_1,2023-05-02T20:29:13.475Z,,0,,,5000.399999999994,timeout,,,,,false,,,,229590,229587.156,224586.756,224599.39999997616,224603.424,229603.824,8,400,,,
break_continue,html.Screen,4_49_2,2023-05-02T20:29:14.689Z,,0,,,1193.4760000715323,response,,,,,false,continue,keypress(Space),,230804.20000004768,230797.30000007153,229587.156,229590.10000002384,229603.824,230820.588,8,400,,,
sequence,flow.Sequence,4_49,2023-05-02T20:29:14.689Z,,0,,,9027.436000071524,completion,,,,,false,,,,230804.20000004768,230797.30000007153,221753.196,221768.10000002384,221769.864,230820.588,8,400,,,
trial,html.Screen,4_50_0,2023-05-02T20:29:17.308Z,,0,2,,2602.612000047695,response,ISIC_9099430.JPG,,ISIC_6254731.JPG,ISIC_6254731.JPG,false,0,keypress(z),500,233423.39999997616,233423.20000004768,230803.92,230804.30000007153,230820.588,233437.464,8,400,1,,ISIC_9099430.JPG
break,html.Screen,4_50_1,2023-05-02T20:29:17.309Z,,0,,,NaN,,,,,,false,,,,233423.89999997616,233423.80000007153,,233423.5,,233437.464,8,400,,,
break_continue,html.Screen,4_50_2,2023-05-02T20:29:17.309Z,,0,,,NaN,,,,,,false,,,,233424.10000002384,233424.10000002384,,233424,,233437.464,8,400,,,
sequence,flow.Sequence,4_50,2023-05-02T20:29:17.309Z,,0,,,2603.512000023853,completion,,,,,false,,,,233424.30000007153,233424.10000002384,230803.92,230804.30000007153,230820.588,233437.464,8,400,,,
trial,html.Screen,4_51_0,2023-05-02T20:29:19.932Z,,0,2,,2609.535999999993,response,ISIC_7171090.JPG,,ISIC_0025835.JPG,ISIC_7171090.JPG,false,1,keypress(m),500,236047.30000007153,236047,233420.796,233424.39999997616,233437.464,236054.34,8,400,2,,ISIC_0025835.JPG
break,html.Screen,4_51_1,2023-05-02T20:29:19.933Z,,0,,,NaN,,,,,,false,,,,236047.70000004768,236047.60000002384,,236047.30000007153,,236054.34,8,400,,,
break_continue,html.Screen,4_51_2,2023-05-02T20:29:19.933Z,,0,,,NaN,,,,,,false,,,,236047.89999997616,236047.80000007153,,236047.80000007153,,236054.34,8,400,,,
sequence,flow.Sequence,4_51,2023-05-02T20:29:19.933Z,,0,,,2610.3360000715184,completion,,,,,false,,,,236048.10000002384,236047.80000007153,233420.796,233424.30000007153,233437.464,236054.34,8,400,,,
trial,html.Screen,4_52_0,2023-05-02T20:29:22.582Z,,0,2,,2642.360000047687,response,ISIC_0029693.JPG,,ISIC_0027622.JPG,ISIC_0029693.JPG,false,1,keypress(m),500,238696.80000007153,238696.70000004768,236037.672,236048.20000004768,236054.34,238708.286,8,400,3,,ISIC_0027622.JPG
break,html.Screen,4_52_1,2023-05-02T20:29:22.582Z,,0,,,NaN,,,,,,false,,,,238697.30000007153,238697.20000004768,,238697,,238708.286,8,400,,,
break_continue,html.Screen,4_52_2,2023-05-02T20:29:22.583Z,,0,,,NaN,,,,,,false,,,,238697.60000002384,238697.5,,238697.30000007153,,238708.286,8,400,,,
sequence,flow.Sequence,4_52,2023-05-02T20:29:22.583Z,,0,,,2643.1600000000035,completion,,,,,false,,,,238697.60000002384,238697.5,236037.672,236048.10000002384,236054.34,238708.286,8,400,,,
trial,html.Screen,4_53_0,2023-05-02T20:29:25.131Z,,0,2,,2536.914000047691,response,ISIC_0054070.JPG,,ISIC_0071904.JPG,ISIC_0054070.JPG,false,1,keypress(m),500,241245.30000007153,241245.20000004768,238691.618,238697.80000007153,238708.286,241258.49,8,400,4,,ISIC_0071904.JPG
break,html.Screen,4_53_1,2023-05-02T20:29:25.131Z,,0,,,NaN,,,,,,false,,,,241245.80000007153,241245.70000004768,,241245.5,,241258.49,8,400,,,
break_continue,html.Screen,4_53_2,2023-05-02T20:29:25.131Z,,0,,,NaN,,,,,,false,,,,241246,241245.89999997616,,241245.89999997616,,241258.49,8,400,,,
sequence,flow.Sequence,4_53,2023-05-02T20:29:25.131Z,,0,,,2537.6139999761654,completion,,,,,false,,,,241246.10000002384,241245.89999997616,238691.618,238697.80000007153,238708.286,241258.49,8,400,,,
trial,html.Screen,4_54_0,2023-05-02T20:29:27.462Z,,0,2,,2318.210000047693,response,ISIC_0014809.JPG,,ISIC_4762702.JPG,ISIC_0014809.JPG,false,1,keypress(m),500,243576.89999997616,243576.70000004768,241241.822,241246.30000007153,241258.49,243592.01,8,400,5,,ISIC_4762702.JPG
break,html.Screen,4_54_1,2023-05-02T20:29:27.463Z,,0,,,NaN,,,,,,false,,,,243577.30000007153,243577.20000004768,,243577,,243592.01,8,400,,,
break_continue,html.Screen,4_54_2,2023-05-02T20:29:27.463Z,,0,,,NaN,,,,,,false,,,,243577.5,243577.5,,243577.39999997616,,243592.01,8,400,,,
sequence,flow.Sequence,4_54,2023-05-02T20:29:27.463Z,,0,,,2319.0100000000093,completion,,,,,false,,,,243577.60000002384,243577.5,241241.822,241246.20000004768,241258.49,243592.01,8,400,,,
trial,html.Screen,4_55_0,2023-05-02T20:29:29.966Z,,0,2,,2488.7900000715163,response,ISIC_8147189.JPG,,ISIC_0025316.JPG,ISIC_0025316.JPG,false,0,keypress(z),500,246081,246080.80000007153,243575.342,243577.80000007153,243592.01,246092.21,8,400,6,,ISIC_8147189.JPG
break,html.Screen,4_55_1,2023-05-02T20:29:29.967Z,,0,,,NaN,,,,,,false,,,,246081.5,246081.39999997616,,246081.20000004768,,246092.21,8,400,,,
break_continue,html.Screen,4_55_2,2023-05-02T20:29:29.967Z,,0,,,NaN,,,,,,false,,,,246081.80000007153,246081.70000004768,,246081.60000002384,,246092.21,8,400,,,
sequence,flow.Sequence,4_55,2023-05-02T20:29:29.967Z,,0,,,2489.6900000476744,completion,,,,,false,,,,246081.89999997616,246081.70000004768,243575.342,243577.70000004768,243592.01,246092.21,8,400,,,
trial,html.Screen,4_56_0,2023-05-02T20:29:32.294Z,,0,2,,2316.39000002385,response,ISIC_0413173.JPG,,ISIC_0594695.JPG,ISIC_0413173.JPG,false,1,keypress(m),500,248408.80000007153,248408.60000002384,246075.542,246082,246092.21,248425.73,8,400,7,,ISIC_0594695.JPG
break,html.Screen,4_56_1,2023-05-02T20:29:32.295Z,,0,,,NaN,,,,,,false,,,,248409.20000004768,248409.10000002384,,248408.89999997616,,248425.73,8,400,,,
break_continue,html.Screen,4_56_2,2023-05-02T20:29:32.295Z,,0,,,NaN,,,,,,false,,,,248409.39999997616,248409.30000007153,,248409.30000007153,,248425.73,8,400,,,
sequence,flow.Sequence,4_56,2023-05-02T20:29:32.295Z,,0,,,2317.0900000715337,completion,,,,,false,,,,248409.60000002384,248409.30000007153,246075.542,246082,246092.21,248425.73,8,400,,,
trial,html.Screen,4_57_0,2023-05-02T20:29:34.541Z,,0,2,,2229.4700000476732,response,ISIC_0068116.JPG,,ISIC_0254447.JPG,ISIC_0254447.JPG,false,0,keypress(z),500,250655.30000007153,250655.20000004768,248409.062,248409.60000002384,248425.73,250661.082,8,400,8,,ISIC_0068116.JPG
break,html.Screen,4_57_1,2023-05-02T20:29:34.541Z,,0,,,NaN,,,,,,false,,,,250655.70000004768,250655.60000002384,,250655.5,,250661.082,8,400,,,
break_continue,html.Screen,4_57_2,2023-05-02T20:29:34.541Z,,0,,,NaN,,,,,,false,,,,250656,250655.89999997616,,250655.80000007153,,250661.082,8,400,,,
sequence,flow.Sequence,4_57,2023-05-02T20:29:34.542Z,,0,,,2230.1699999761477,completion,,,,,false,,,,250656.10000002384,250655.89999997616,248409.062,248409.60000002384,248425.73,250661.082,8,400,,,
trial,html.Screen,4_58_0,2023-05-02T20:29:36.838Z,,0,2,,2291.418000000005,response,ISIC_3254309.JPG,,ISIC_0031246.JPG,ISIC_3254309.JPG,false,1,keypress(m),500,252952.70000004768,252952.5,250644.414,250656.10000002384,250661.082,252961.266,8,400,9,,ISIC_0031246.JPG
break,html.Screen,4_58_1,2023-05-02T20:29:36.839Z,,0,,,NaN,,,,,,false,,,,252953.10000002384,252953,,252952.80000007153,,252961.266,8,400,,,
break_continue,html.Screen,4_58_2,2023-05-02T20:29:36.839Z,,0,,,NaN,,,,,,false,,,,252953.39999997616,252953.30000007153,,252953.20000004768,,252961.266,8,400,,,
sequence,flow.Sequence,4_58,2023-05-02T20:29:36.839Z,,0,,,2292.2180000715307,completion,,,,,false,,,,252953.39999997616,252953.30000007153,250644.414,250656.10000002384,250661.082,252961.266,8,400,,,
trial,html.Screen,4_59_0,2023-05-02T20:29:39.477Z,,0,2,,2629.9340000476805,response,ISIC_0056316.JPG,,ISIC_0025313.JPG,ISIC_0025313.JPG,false,0,keypress(z),500,255591.39999997616,255591.20000004768,252944.598,252953.60000002384,252961.266,255611.478,8,400,10,,ISIC_0056316.JPG
break,html.Screen,4_59_1,2023-05-02T20:29:39.477Z,,0,,,NaN,,,,,,false,,,,255591.80000007153,255591.70000004768,,255591.5,,255611.478,8,400,,,
break_continue,html.Screen,4_59_2,2023-05-02T20:29:39.478Z,,0,,,NaN,,,,,,false,,,,255592,255591.89999997616,,255591.80000007153,,255611.478,8,400,,,
sequence,flow.Sequence,4_59,2023-05-02T20:29:39.478Z,,0,,,2630.633999976155,completion,,,,,false,,,,255592.10000002384,255591.89999997616,252944.598,252953.60000002384,252961.266,255611.478,8,400,,,
trial,html.Screen,4_60_0,2023-05-02T20:29:41.813Z,,0,2,,2315.9219999761553,response,ISIC_0016131.JPG,,ISIC_7694028.JPG,ISIC_0016131.JPG,false,1,keypress(m),500,257927.60000002384,257927.39999997616,255594.81,255592.30000007153,255611.478,257944.998,8,400,11,,ISIC_7694028.JPG
break,html.Screen,4_60_1,2023-05-02T20:29:41.814Z,,0,,,NaN,,,,,,false,,,,257928,257927.89999997616,,257927.70000004768,,257944.998,8,400,,,
break_continue,html.Screen,4_60_2,2023-05-02T20:29:41.814Z,,0,,,NaN,,,,,,false,,,,257928.20000004768,257928.10000002384,,257928.10000002384,,257944.998,8,400,,,
sequence,flow.Sequence,4_60,2023-05-02T20:29:41.814Z,,0,,,2316.622000023839,completion,,,,,false,,,,257928.39999997616,257928.10000002384,255594.81,255592.20000004768,255611.478,257944.998,8,400,,,
trial,html.Screen,4_61_0,2023-05-02T20:29:44.261Z,,0,2,,2429.901999976166,response,ISIC_0034101.JPG,,ISIC_4748605.JPG,ISIC_4748605.JPG,false,0,keypress(z),500,260375,260374.89999997616,257928.33,257928.5,257944.998,260380.397,8,400,12,,ISIC_0034101.JPG
break,html.Screen,4_61_1,2023-05-02T20:29:44.261Z,,0,,,NaN,,,,,,false,,,,260375.39999997616,260375.30000007153,,260375.20000004768,,260380.397,8,400,,,
break_continue,html.Screen,4_61_2,2023-05-02T20:29:44.261Z,,0,,,NaN,,,,,,false,,,,260375.70000004768,260375.60000002384,,260375.5,,260380.397,8,400,,,
sequence,flow.Sequence,4_61,2023-05-02T20:29:44.262Z,,0,,,2430.6020000238495,completion,,,,,false,,,,260375.80000007153,260375.60000002384,257928.33,257928.39999997616,257944.998,260380.397,8,400,,,
trial,html.Screen,4_62_0,2023-05-02T20:29:46.867Z,,0,2,,2601.103000000003,response,ISIC_2768150.JPG,,ISIC_0032098.JPG,ISIC_2768150.JPG,false,1,keypress(m),500,262981.7000000477,262981.5,260363.729,260375.89999997616,260380.397,262997.273,8,400,13,,ISIC_0032098.JPG
break,html.Screen,4_62_1,2023-05-02T20:29:46.868Z,,0,,,NaN,,,,,,false,,,,262982.10000002384,262981.89999997616,,262981.8000000715,,262997.273,8,400,,,
break_continue,html.Screen,4_62_2,2023-05-02T20:29:46.868Z,,0,,,NaN,,,,,,false,,,,262982.3000000715,262982.2000000477,,262982.2000000477,,262997.273,8,400,,,
sequence,flow.Sequence,4_62,2023-05-02T20:29:46.868Z,,0,,,2601.8030000476865,completion,,,,,false,,,,262982.39999997616,262982.2000000477,260363.729,260375.89999997616,260380.397,262997.273,8,400,,,
trial,html.Screen,4_63_0,2023-05-02T20:29:49.268Z,,0,2,,2384.927000047697,response,ISIC_7785723.JPG,,ISIC_0060707.JPG,ISIC_0060707.JPG,false,0,keypress(z),500,265382.3000000715,265382.2000000477,262980.605,262982.5,262997.273,265397.465,8,400,14,,ISIC_7785723.JPG
break,html.Screen,4_63_1,2023-05-02T20:29:49.269Z,,0,,,NaN,,,,,,false,,,,265382.7000000477,265382.60000002384,,265382.39999997616,,265397.465,8,400,,,
break_continue,html.Screen,4_63_2,2023-05-02T20:29:49.269Z,,0,,,NaN,,,,,,false,,,,265382.89999997616,265382.89999997616,,265382.8000000715,,265397.465,8,400,,,
sequence,flow.Sequence,4_63,2023-05-02T20:29:49.269Z,,0,,,2385.6269999761716,completion,,,,,false,,,,265383.10000002384,265382.89999997616,262980.605,262982.5,262997.273,265397.465,8,400,,,
trial,html.Screen,4_64_0,2023-05-02T20:29:51.669Z,,0,2,,2385.6350000238162,response,ISIC_3966064.JPG,,ISIC_0000213.JPG,ISIC_3966064.JPG,false,1,keypress(m),500,267783.3000000715,267783.10000002384,265380.797,265383.10000002384,265397.465,267797.657,8,400,15,,ISIC_0000213.JPG
break,html.Screen,4_64_1,2023-05-02T20:29:51.670Z,,0,,,NaN,,,,,,false,,,,267783.7000000477,267783.60000002384,,267783.39999997616,,267797.657,8,400,,,
break_continue,html.Screen,4_64_2,2023-05-02T20:29:51.670Z,,0,,,NaN,,,,,,false,,,,267783.89999997616,267783.8000000715,,267783.7000000477,,267797.657,8,400,,,
sequence,flow.Sequence,4_64,2023-05-02T20:29:51.670Z,,0,,,2386.3350000715,completion,,,,,false,,,,267784,267783.8000000715,265380.797,265383.10000002384,265397.465,267797.657,8,400,,,
trial,html.Screen,4_65_0,2023-05-02T20:29:54.399Z,,0,2,,2714.8429999999935,response,ISIC_0034194.JPG,,ISIC_3926397.JPG,ISIC_0034194.JPG,false,1,keypress(m),500,270512.60000002384,270512.5,267780.989,267784.10000002384,267797.657,270516.388,8,400,16,,ISIC_3926397.JPG
break,html.Screen,4_65_1,2023-05-02T20:29:54.399Z,,0,,,NaN,,,,,,false,,,,270513.10000002384,270513,,270512.8000000715,,270516.388,8,400,,,
break_continue,html.Screen,4_65_2,2023-05-02T20:29:54.399Z,,0,,,NaN,,,,,,false,,,,270513.3000000715,270513.2000000477,,270513.10000002384,,270516.388,8,400,,,
sequence,flow.Sequence,4_65,2023-05-02T20:29:54.399Z,,0,,,2715.543000047677,completion,,,,,false,,,,270513.5,270513.2000000477,267780.989,267784.10000002384,267797.657,270516.388,8,400,,,
trial,html.Screen,4_66_0,2023-05-02T20:29:56.902Z,,0,2,,2499.511999976181,response,ISIC_0026916.JPG,,ISIC_0031304.JPG,ISIC_0026916.JPG,false,1,keypress(m),500,273016.10000002384,273015.89999997616,270499.72,270513.60000002384,270516.388,273016.588,8,400,17,,ISIC_0031304.JPG
break,html.Screen,4_66_1,2023-05-02T20:29:56.903Z,,0,,,NaN,,,,,,false,,,,273016.39999997616,273016.39999997616,,273016.2000000477,,273016.588,8,400,,,
break_continue,html.Screen,4_66_2,2023-05-02T20:29:56.903Z,,0,,,NaN,,,,,,false,,,,273016.7000000477,273016.7000000477,,273016.60000002384,,273016.588,8,400,,,
sequence,flow.Sequence,4_66,2023-05-02T20:29:56.903Z,,0,,,2500.3120000477065,completion,,,,,false,,,,273016.8000000715,273016.7000000477,270499.72,270513.60000002384,270516.388,273016.588,8,400,,,
trial,html.Screen,4_67_0,2023-05-02T20:29:59.454Z,,0,2,,2550.912000000011,response,ISIC_0026364.JPG,,ISIC_6780662.JPG,ISIC_6780662.JPG,false,0,keypress(z),500,275567.5,275567.5,272999.92,273016.89999997616,273016.588,275583.46,8,400,18,,ISIC_0026364.JPG
break,html.Screen,4_67_1,2023-05-02T20:29:59.454Z,,0,,,NaN,,,,,,false,,,,275568,275567.8000000715,,275567.7000000477,,275583.46,8,400,,,
break_continue,html.Screen,4_67_2,2023-05-02T20:29:59.454Z,,0,,,NaN,,,,,,false,,,,275568.2000000477,275568.10000002384,,275568.10000002384,,275583.46,8,400,,,
sequence,flow.Sequence,4_67,2023-05-02T20:29:59.455Z,,0,,,2551.512000023853,completion,,,,,false,,,,275568.39999997616,275568.10000002384,272999.92,273016.89999997616,273016.588,275583.46,8,400,,,
trial,html.Screen,4_68_0,2023-05-02T20:30:01.973Z,,0,2,,2503.2400000476628,response,ISIC_0897526.JPG,,ISIC_2644988.JPG,ISIC_0897526.JPG,false,1,keypress(m),500,278086.89999997616,278086.7000000477,275566.792,275568.5,275583.46,278100.328,8,400,19,,ISIC_2644988.JPG
break,html.Screen,4_68_1,2023-05-02T20:30:01.974Z,,0,,,NaN,,,,,,false,,,,278087.3000000715,278087.2000000477,,278087,,278100.328,8,400,,,
break_continue,html.Screen,4_68_2,2023-05-02T20:30:01.974Z,,0,,,NaN,,,,,,false,,,,278087.7000000477,278087.7000000477,,278087.60000002384,,278100.328,8,400,,,
sequence,flow.Sequence,4_68,2023-05-02T20:30:01.974Z,,0,,,2504.2400000476628,completion,,,,,false,,,,278087.89999997616,278087.7000000477,275566.792,275568.39999997616,275583.46,278100.328,8,400,,,
trial,html.Screen,4_69_0,2023-05-02T20:30:04.582Z,,0,2,,2594.7720000238623,response,ISIC_0071050.JPG,,ISIC_0489267.JPG,ISIC_0489267.JPG,false,0,keypress(z),500,280695.3000000715,280695.10000002384,278083.66,278087.89999997616,278100.328,280702.409,8,400,20,,ISIC_0071050.JPG
break,html.Screen,4_69_1,2023-05-02T20:30:04.582Z,,0,,,NaN,,,,,,false,,,,280695.7000000477,280695.5,,280695.39999997616,,280702.409,8,400,,,
break_continue,html.Screen,4_69_2,2023-05-02T20:30:04.582Z,,0,,,NaN,,,,,,false,,,,280695.8000000715,280695.8000000715,,280695.8000000715,,280702.409,8,400,,,
sequence,flow.Sequence,4_69,2023-05-02T20:30:04.582Z,,0,,,2595.472000071546,completion,,,,,false,,,,280696,280695.8000000715,278083.66,278087.89999997616,278100.328,280702.409,8,400,,,
trial,html.Screen,4_70_0,2023-05-02T20:30:07.094Z,,0,2,,2504.6910000238568,response,ISIC_3448546.JPG,,ISIC_2355513.JPG,ISIC_3448546.JPG,false,1,keypress(m),500,283207.3000000715,283207.10000002384,280685.741,280696.10000002384,280702.409,283219.277,8,400,21,,ISIC_2355513.JPG
break,html.Screen,4_70_1,2023-05-02T20:30:07.094Z,,0,,,NaN,,,,,,false,,,,283207.7000000477,283207.60000002384,,283207.39999997616,,283219.277,8,400,,,
break_continue,html.Screen,4_70_2,2023-05-02T20:30:07.094Z,,0,,,NaN,,,,,,false,,,,283207.89999997616,283207.8000000715,,283207.8000000715,,283219.277,8,400,,,
sequence,flow.Sequence,4_70,2023-05-02T20:30:07.094Z,,0,,,2505.3910000715405,completion,,,,,false,,,,283208,283207.8000000715,280685.741,280696.10000002384,280702.409,283219.277,8,400,,,
trial,html.Screen,4_71_0,2023-05-02T20:30:09.621Z,,0,2,,2515.32300002384,response,ISIC_0028883.JPG,,ISIC_0014189.JPG,ISIC_0028883.JPG,false,1,keypress(m),500,285734.7000000477,285734.60000002384,283202.609,283208.10000002384,283219.277,285752.813,8,400,22,,ISIC_0014189.JPG
break,html.Screen,4_71_1,2023-05-02T20:30:09.622Z,,0,,,NaN,,,,,,false,,,,285735.10000002384,285735,,285734.8000000715,,285752.813,8,400,,,
break_continue,html.Screen,4_71_2,2023-05-02T20:30:09.622Z,,0,,,NaN,,,,,,false,,,,285735.3000000715,285735.3000000715,,285735.2000000477,,285752.813,8,400,,,
sequence,flow.Sequence,4_71,2023-05-02T20:30:09.622Z,,0,,,2516.0230000715237,completion,,,,,false,,,,285735.5,285735.3000000715,283202.609,283208.10000002384,283219.277,285752.813,8,400,,,
trial,html.Screen,4_72_0,2023-05-02T20:30:12.367Z,,0,2,,2727.6869999999763,response,ISIC_0001832.JPG,,ISIC_1377409.JPG,ISIC_1377409.JPG,false,0,keypress(z),500,288480.60000002384,288480.5,285736.145,285735.60000002384,285752.813,288486.365,8,400,23,,ISIC_0001832.JPG
break,html.Screen,4_72_1,2023-05-02T20:30:12.368Z,,0,,,NaN,,,,,,false,,,,288481,288480.89999997616,,288480.7000000477,,288486.365,8,400,,,
break_continue,html.Screen,4_72_2,2023-05-02T20:30:12.368Z,,0,,,NaN,,,,,,false,,,,288481.2000000477,288481.10000002384,,288481.10000002384,,288486.365,8,400,,,
sequence,flow.Sequence,4_72,2023-05-02T20:30:12.368Z,,0,,,2728.287000023818,completion,,,,,false,,,,288481.3000000715,288481.10000002384,285736.145,285735.60000002384,285752.813,288486.365,8,400,,,
trial,html.Screen,4_73_0,2023-05-02T20:30:14.856Z,,0,2,,2482.5349999761675,response,ISIC_5403296.JPG,,ISIC_0032535.JPG,ISIC_5403296.JPG,false,1,keypress(m),500,290968.89999997616,290968.89999997616,288469.697,288481.39999997616,288486.365,290971.75,8,400,24,,ISIC_0032535.JPG
break,html.Screen,4_73_1,2023-05-02T20:30:14.856Z,,0,,,NaN,,,,,,false,,,,290969.39999997616,290969.3000000715,,290969.10000002384,,290971.75,8,400,,,
break_continue,html.Screen,4_73_2,2023-05-02T20:30:14.856Z,,0,,,NaN,,,,,,false,,,,290969.60000002384,290969.60000002384,,290969.5,,290971.75,8,400,,,
sequence,flow.Sequence,4_73,2023-05-02T20:30:14.856Z,,0,,,2483.235000023851,completion,,,,,false,,,,290969.7000000477,290969.60000002384,288469.697,288481.39999997616,288486.365,290971.75,8,400,,,
trial,html.Screen,4_74_0,2023-05-02T20:30:17.350Z,,0,2,,2491.0500000715256,response,ISIC_0055601.JPG,,ISIC_0033799.JPG,ISIC_0033799.JPG,false,0,keypress(z),500,293463,293462.8000000715,290955.082,290969.8000000715,290971.75,293488.618,8,400,25,,ISIC_0055601.JPG
break,html.Screen,4_74_1,2023-05-02T20:30:17.350Z,,0,,,NaN,,,,,,false,,,,293463.39999997616,293463.2000000477,,293463.10000002384,,293488.618,8,400,,,
break_continue,html.Screen,4_74_2,2023-05-02T20:30:17.350Z,,0,,,NaN,,,,,,false,,,,293463.60000002384,293463.5,,293463.39999997616,,293488.618,8,400,,,
sequence,flow.Sequence,4_74,2023-05-02T20:30:17.350Z,,0,,,2491.75,completion,,,,,false,,,,293463.7000000477,293463.5,290955.082,290969.8000000715,290971.75,293488.618,8,400,,,
trial,html.Screen,4_75_0,2023-05-02T20:30:20.175Z,,0,2,,2799.682000071509,response,ISIC_0032535.JPG,,ISIC_6710082.JPG,ISIC_6710082.JPG,false,0,keypress(z),500,296288.5,296288.3000000715,293471.95,293463.8000000715,293488.618,296305.51,8,400,26,,ISIC_0032535.JPG
break,html.Screen,4_75_1,2023-05-02T20:30:20.176Z,,0,,,NaN,,,,,,false,,,,296288.89999997616,296288.8000000715,,296288.60000002384,,296305.51,8,400,,,
break_continue,html.Screen,4_75_2,2023-05-02T20:30:20.176Z,,0,,,NaN,,,,,,false,,,,296289.10000002384,296289,,296289,,296305.51,8,400,,,
sequence,flow.Sequence,4_75,2023-05-02T20:30:20.176Z,,0,,,2800.3819999999832,completion,,,,,false,,,,296289.2000000477,296289,293471.95,293463.8000000715,293488.618,296305.51,8,400,,,
trial,html.Screen,4_76_0,2023-05-02T20:30:22.749Z,,0,2,,2556.2900000715163,response,ISIC_0014629.JPG,,ISIC_4348579.JPG,ISIC_4348579.JPG,false,0,keypress(z),500,298861.89999997616,298861.8000000715,296288.842,296289.3000000715,296305.51,298872.382,8,400,27,,ISIC_0014629.JPG
break,html.Screen,4_76_1,2023-05-02T20:30:22.749Z,,0,,,NaN,,,,,,false,,,,298862.3000000715,298862.2000000477,,298862,,298872.382,8,400,,,
break_continue,html.Screen,4_76_2,2023-05-02T20:30:22.749Z,,0,,,NaN,,,,,,false,,,,298862.60000002384,298862.5,,298862.39999997616,,298872.382,8,400,,,
sequence,flow.Sequence,4_76,2023-05-02T20:30:22.750Z,,0,,,2556.9899999999907,completion,,,,,false,,,,298862.7000000477,298862.5,296288.842,296289.3000000715,296305.51,298872.382,8,400,,,
trial,html.Screen,4_77_0,2023-05-02T20:30:25.342Z,,0,2,,2582.017999976175,response,ISIC_1689678.JPG,,ISIC_0055924.JPG,ISIC_1689678.JPG,false,1,keypress(m),500,301454.5,301454.39999997616,298855.714,298862.8000000715,298872.382,301457.784,8,400,28,,ISIC_0055924.JPG
break,html.Screen,4_77_1,2023-05-02T20:30:25.342Z,,0,,,NaN,,,,,,false,,,,301455,301454.89999997616,,301454.7000000477,,301457.784,8,400,,,
break_continue,html.Screen,4_77_2,2023-05-02T20:30:25.342Z,,0,,,NaN,,,,,,false,,,,301455.2000000477,301455.10000002384,,301455.10000002384,,301457.784,8,400,,,
sequence,flow.Sequence,4_77,2023-05-02T20:30:25.342Z,,0,,,2582.7180000238586,completion,,,,,false,,,,301455.39999997616,301455.10000002384,298855.714,298862.7000000477,298872.382,301457.784,8,400,,,
trial,html.Screen,4_78_0,2023-05-02T20:30:28.013Z,,0,2,,2668.0160000715405,response,ISIC_0067008.JPG,,ISIC_0006331.JPG,ISIC_0067008.JPG,false,1,keypress(m),500,304125.8000000715,304125.8000000715,301441.116,301455.5,301457.784,304141.332,8,400,29,,ISIC_0006331.JPG
break,html.Screen,4_78_1,2023-05-02T20:30:28.013Z,,0,,,NaN,,,,,,false,,,,304126.3000000715,304126.2000000477,,304126,,304141.332,8,400,,,
break_continue,html.Screen,4_78_2,2023-05-02T20:30:28.014Z,,0,,,NaN,,,,,,false,,,,304126.5,304126.39999997616,,304126.3000000715,,304141.332,8,400,,,
sequence,flow.Sequence,4_78,2023-05-02T20:30:28.014Z,,0,,,2668.615999976173,completion,,,,,false,,,,304126.60000002384,304126.39999997616,301441.116,301455.39999997616,301457.784,304141.332,8,400,,,
trial,html.Screen,4_79_0,2023-05-02T20:30:30.549Z,,0,2,,2520.268000023847,response,ISIC_4442490.JPG,,ISIC_0057556.JPG,ISIC_4442490.JPG,false,1,keypress(m),500,306661.8000000715,306661.60000002384,304124.664,304126.7000000477,304141.332,306674.868,8,400,30,,ISIC_0057556.JPG
break,html.Screen,4_79_1,2023-05-02T20:30:30.549Z,,0,,,NaN,,,,,,false,,,,306662.2000000477,306662.10000002384,,306662,,306674.868,8,400,,,
break_continue,html.Screen,4_79_2,2023-05-02T20:30:30.550Z,,0,,,NaN,,,,,,false,,,,306662.5,306662.39999997616,,306662.3000000715,,306674.868,8,400,,,
sequence,flow.Sequence,4_79,2023-05-02T20:30:30.550Z,,0,,,2521.0679999761633,completion,,,,,false,,,,306662.60000002384,306662.39999997616,304124.664,304126.7000000477,304141.332,306674.868,8,400,,,
trial,html.Screen,4_80_0,2023-05-02T20:30:33.206Z,,0,2,,2644.1319999999832,response,ISIC_6877295.JPG,,ISIC_0060955.JPG,ISIC_6877295.JPG,false,1,keypress(m),500,309319.2000000477,309319,306658.2,306662.7000000477,306674.868,309325.08,8,400,31,,ISIC_0060955.JPG
break,html.Screen,4_80_1,2023-05-02T20:30:33.207Z,,0,,,NaN,,,,,,false,,,,309319.7000000477,309319.5,,309319.3000000715,,309325.08,8,400,,,
break_continue,html.Screen,4_80_2,2023-05-02T20:30:33.207Z,,0,,,NaN,,,,,,false,,,,309319.89999997616,309319.8000000715,,309319.7000000477,,309325.08,8,400,,,
sequence,flow.Sequence,4_80,2023-05-02T20:30:33.207Z,,0,,,2644.932000071509,completion,,,,,false,,,,309320,309319.8000000715,306658.2,306662.60000002384,306674.868,309325.08,8,400,,,
trial,html.Screen,4_81_0,2023-05-02T20:30:35.814Z,,0,2,,2601.319999976142,response,ISIC_0011315.JPG,,ISIC_0014349.JPG,ISIC_0014349.JPG,false,0,keypress(z),500,311926.7000000477,311926.39999997616,309308.412,309320,309325.08,311927.152,8,400,32,,ISIC_0011315.JPG
break,html.Screen,4_81_1,2023-05-02T20:30:35.814Z,,0,,,NaN,,,,,,false,,,,311927.10000002384,311926.89999997616,,311926.7000000477,,311927.152,8,400,,,
break_continue,html.Screen,4_81_2,2023-05-02T20:30:35.815Z,,0,,,NaN,,,,,,false,,,,311927.2000000477,311927.2000000477,,311927.10000002384,,311927.152,8,400,,,
sequence,flow.Sequence,4_81,2023-05-02T20:30:35.815Z,,0,,,2602.1200000476674,completion,,,,,false,,,,311927.39999997616,311927.2000000477,309308.412,309320,309325.08,311927.152,8,400,,,
trial,html.Screen,4_82_0,2023-05-02T20:30:38.415Z,,0,2,,2600.2479999761563,response,ISIC_0030006.JPG,,ISIC_0026791.JPG,ISIC_0026791.JPG,false,0,keypress(z),500,314527.60000002384,314527.39999997616,311910.484,311927.5,311927.152,314544.028,8,400,33,,ISIC_0030006.JPG
break,html.Screen,4_82_1,2023-05-02T20:30:38.415Z,,0,,,NaN,,,,,,false,,,,314528,314527.89999997616,,314527.7000000477,,314544.028,8,400,,,
break_continue,html.Screen,4_82_2,2023-05-02T20:30:38.416Z,,0,,,NaN,,,,,,false,,,,314528.2000000477,314528.10000002384,,314528.10000002384,,314544.028,8,400,,,
sequence,flow.Sequence,4_82,2023-05-02T20:30:38.416Z,,0,,,2600.94800002384,completion,,,,,false,,,,314528.3000000715,314528.10000002384,311910.484,311927.39999997616,311927.152,314544.028,8,400,,,
trial,html.Screen,4_83_0,2023-05-02T20:30:40.991Z,,0,2,,2559.2720000715344,response,ISIC_7763042.JPG,,ISIC_0034211.JPG,ISIC_7763042.JPG,false,1,keypress(m),500,317103.39999997616,317103.3000000715,314527.36,314528.39999997616,314544.028,317110.9,8,400,34,,ISIC_0034211.JPG
break,html.Screen,4_83_1,2023-05-02T20:30:40.991Z,,0,,,NaN,,,,,,false,,,,317103.89999997616,317103.8000000715,,317103.60000002384,,317110.9,8,400,,,
break_continue,html.Screen,4_83_2,2023-05-02T20:30:40.992Z,,0,,,NaN,,,,,,false,,,,317104,317104,,317103.89999997616,,317110.9,8,400,,,
sequence,flow.Sequence,4_83,2023-05-02T20:30:40.992Z,,0,,,2559.972000000009,completion,,,,,false,,,,317104.2000000477,317104,314527.36,314528.39999997616,314544.028,317110.9,8,400,,,
trial,html.Screen,4_84_0,2023-05-02T20:30:43.268Z,,0,2,,2269.0999999999767,response,ISIC_0013052.JPG,,ISIC_0070927.JPG,ISIC_0070927.JPG,false,0,keypress(z),500,319380.10000002384,319380,317094.232,317104.3000000715,317110.9,319411.084,8,400,35,,ISIC_0013052.JPG
break,html.Screen,4_84_1,2023-05-02T20:30:43.268Z,,0,,,NaN,,,,,,false,,,,319380.5,319380.5,,319380.2000000477,,319411.084,8,400,,,
break_continue,html.Screen,4_84_2,2023-05-02T20:30:43.268Z,,0,,,NaN,,,,,,false,,,,319380.8000000715,319380.7000000477,,319380.7000000477,,319411.084,8,400,,,
sequence,flow.Sequence,4_84,2023-05-02T20:30:43.268Z,,0,,,2269.8000000476604,completion,,,,,false,,,,319380.89999997616,319380.7000000477,317094.232,317104.3000000715,317110.9,319411.084,8,400,,,
trial,html.Screen,4_85_0,2023-05-02T20:30:45.687Z,,0,2,,2388.216000071552,response,ISIC_8869249.JPG,,ISIC_5308066.JPG,ISIC_8869249.JPG,false,1,keypress(m),500,321799.5,321799.3000000715,319394.416,319381,319411.084,321813.125,8,400,36,,ISIC_5308066.JPG
break,html.Screen,4_85_1,2023-05-02T20:30:45.687Z,,0,,,NaN,,,,,,false,,,,321799.89999997616,321799.7000000477,,321799.5,,321813.125,8,400,,,
break_continue,html.Screen,4_85_2,2023-05-02T20:30:45.688Z,,0,,,NaN,,,,,,false,,,,321800.10000002384,321800,,321800,,321813.125,8,400,,,
sequence,flow.Sequence,4_85,2023-05-02T20:30:45.688Z,,0,,,2388.9160000000265,completion,,,,,false,,,,321800.2000000477,321800,319394.416,319381,319411.084,321813.125,8,400,,,
trial,html.Screen,4_86_0,2023-05-02T20:30:48.219Z,,0,2,,2518.274999976158,response,ISIC_2309744.JPG,,ISIC_3382231.JPG,ISIC_3382231.JPG,false,0,keypress(z),500,324331.60000002384,324331.39999997616,321796.457,321800.3000000715,321813.125,324363.329,8,400,37,,ISIC_2309744.JPG
break,html.Screen,4_86_1,2023-05-02T20:30:48.220Z,,0,,,NaN,,,,,,false,,,,324332,324331.89999997616,,324331.7000000477,,324363.329,8,400,,,
break_continue,html.Screen,4_86_2,2023-05-02T20:30:48.220Z,,0,,,NaN,,,,,,false,,,,324332.2000000477,324332.10000002384,,324332,,324363.329,8,400,,,
sequence,flow.Sequence,4_86,2023-05-02T20:30:48.220Z,,0,,,2518.975000023842,completion,,,,,false,,,,324332.3000000715,324332.10000002384,321796.457,321800.3000000715,321813.125,324363.329,8,400,,,
trial,html.Screen,4_87_0,2023-05-02T20:30:51.126Z,,0,2,,2875.170999999973,response,ISIC_5546806.JPG,,ISIC_0065889.JPG,ISIC_5546806.JPG,false,1,keypress(m),500,327238.60000002384,327238.5,324346.661,324332.39999997616,324363.329,327246.893,8,400,38,,ISIC_0065889.JPG
break,html.Screen,4_87_1,2023-05-02T20:30:51.127Z,,0,,,NaN,,,,,,false,,,,327239.10000002384,327239,,327238.8000000715,,327246.893,8,400,,,
break_continue,html.Screen,4_87_2,2023-05-02T20:30:51.127Z,,0,,,NaN,,,,,,false,,,,327239.3000000715,327239.2000000477,,327239.2000000477,,327246.893,8,400,,,
sequence,flow.Sequence,4_87,2023-05-02T20:30:51.127Z,,0,,,2875.8710000476567,completion,,,,,false,,,,327239.39999997616,327239.2000000477,324346.661,324332.39999997616,324363.329,327246.893,8,400,,,
trial,html.Screen,4_88_0,2023-05-02T20:30:53.456Z,,0,2,,2321.20700002386,response,ISIC_8635889.JPG,,ISIC_0069370.JPG,ISIC_0069370.JPG,false,0,keypress(z),500,329568.3000000715,329568.10000002384,327230.225,327239.60000002384,327246.893,329580.413,8,400,39,,ISIC_8635889.JPG
break,html.Screen,4_88_1,2023-05-02T20:30:53.457Z,,0,,,NaN,,,,,,false,,,,329568.7000000477,329568.5,,329568.39999997616,,329580.413,8,400,,,
break_continue,html.Screen,4_88_2,2023-05-02T20:30:53.457Z,,0,,,NaN,,,,,,false,,,,329568.89999997616,329568.8000000715,,329568.8000000715,,329580.413,8,400,,,
sequence,flow.Sequence,4_88,2023-05-02T20:30:53.457Z,,0,,,2321.9070000715437,completion,,,,,false,,,,329569,329568.8000000715,327230.225,327239.5,327246.893,329580.413,8,400,,,
trial,html.Screen,4_89_0,2023-05-02T20:30:56.021Z,,0,2,,2552.9869999761577,response,ISIC_8052769.JPG,,ISIC_0055003.JPG,ISIC_8052769.JPG,false,1,keypress(m),500,332133.60000002384,332133.39999997616,329563.745,329569.10000002384,329580.413,332165.816,8,400,40,,ISIC_0055003.JPG
break,html.Screen,4_89_1,2023-05-02T20:30:56.022Z,,0,,,NaN,,,,,,false,,,,332133.89999997616,332133.89999997616,,332133.7000000477,,332165.816,8,400,,,
break_continue,html.Screen,4_89_2,2023-05-02T20:30:56.022Z,,0,,,NaN,,,,,,false,,,,332134.2000000477,332134.10000002384,,332134.10000002384,,332165.816,8,400,,,
sequence,flow.Sequence,4_89,2023-05-02T20:30:56.022Z,,0,,,2553.6870000238414,completion,,,,,false,,,,332134.3000000715,332134.10000002384,329563.745,329569.10000002384,329580.413,332165.816,8,400,,,
trial,html.Screen,4_90_0,2023-05-02T20:30:58.466Z,,0,2,,2411.984000071534,response,ISIC_0033574.JPG,,ISIC_0064589.JPG,ISIC_0033574.JPG,false,1,keypress(m),500,334578,334577.8000000715,332149.148,332134.39999997616,332165.816,334599.344,8,400,41,,ISIC_0064589.JPG
break,html.Screen,4_90_1,2023-05-02T20:30:58.466Z,,0,,,NaN,,,,,,false,,,,334578.39999997616,334578.3000000715,,334578.10000002384,,334599.344,8,400,,,
break_continue,html.Screen,4_90_2,2023-05-02T20:30:58.467Z,,0,,,NaN,,,,,,false,,,,334578.60000002384,334578.60000002384,,334578.5,,334599.344,8,400,,,
sequence,flow.Sequence,4_90,2023-05-02T20:30:58.467Z,,0,,,2412.7840000238502,completion,,,,,false,,,,334578.7000000477,334578.60000002384,332149.148,332134.3000000715,332165.816,334599.344,8,400,,,
trial,html.Screen,4_91_0,2023-05-02T20:31:00.985Z,,0,2,,2497.356000047701,response,ISIC_0032922.JPG,,ISIC_1384527.JPG,ISIC_1384527.JPG,false,0,keypress(z),500,337096.8000000715,337096.7000000477,334582.676,334578.8000000715,334599.344,337116.212,8,400,42,,ISIC_0032922.JPG
break,html.Screen,4_91_1,2023-05-02T20:31:00.985Z,,0,,,NaN,,,,,,false,,,,337097.2000000477,337097.10000002384,,337096.89999997616,,337116.212,8,400,,,
break_continue,html.Screen,4_91_2,2023-05-02T20:31:00.985Z,,0,,,NaN,,,,,,false,,,,337097.3000000715,337097.3000000715,,337097.3000000715,,337116.212,8,400,,,
sequence,flow.Sequence,4_91,2023-05-02T20:31:00.986Z,,0,,,2497.956000071543,completion,,,,,false,,,,337097.5,337097.3000000715,334582.676,334578.8000000715,334599.344,337116.212,8,400,,,
trial,html.Screen,4_92_0,2023-05-02T20:31:03.638Z,,0,2,,2633.8880000238423,response,ISIC_0025379.JPG,,ISIC_6559840.JPG,ISIC_0025379.JPG,false,1,keypress(m),500,339750.2000000477,339750.10000002384,337099.544,337097.5,337116.212,339766.424,8,400,43,,ISIC_6559840.JPG
break,html.Screen,4_92_1,2023-05-02T20:31:03.639Z,,0,,,NaN,,,,,,false,,,,339750.60000002384,339750.60000002384,,339750.39999997616,,339766.424,8,400,,,
break_continue,html.Screen,4_92_2,2023-05-02T20:31:03.639Z,,0,,,NaN,,,,,,false,,,,339750.8000000715,339750.8000000715,,339750.7000000477,,339766.424,8,400,,,
sequence,flow.Sequence,4_92,2023-05-02T20:31:03.639Z,,0,,,2634.588000071526,completion,,,,,false,,,,339751,339750.8000000715,337099.544,337097.5,337116.212,339766.424,8,400,,,
trial,html.Screen,4_93_0,2023-05-02T20:31:06.104Z,,0,2,,2448.7760000476846,response,ISIC_8951909.JPG,,ISIC_3560519.JPG,ISIC_3560519.JPG,false,0,keypress(z),500,342215.39999997616,342215.2000000477,339749.756,339751,339766.424,342218.473,8,400,44,,ISIC_8951909.JPG
break,html.Screen,4_93_1,2023-05-02T20:31:06.104Z,,0,,,NaN,,,,,,false,,,,342215.8000000715,342215.7000000477,,342215.5,,342218.473,8,400,,,
break_continue,html.Screen,4_93_2,2023-05-02T20:31:06.104Z,,0,,,NaN,,,,,,false,,,,342216,342215.89999997616,,342215.89999997616,,342218.473,8,400,,,
sequence,flow.Sequence,4_93,2023-05-02T20:31:06.104Z,,0,,,2449.475999976159,completion,,,,,false,,,,342216.10000002384,342215.89999997616,339749.756,339751,339766.424,342218.473,8,400,,,
trial,html.Screen,4_94_0,2023-05-02T20:31:08.369Z,,0,2,,2262.2270000476856,response,ISIC_5420979.JPG,,ISIC_2555494.JPG,ISIC_5420979.JPG,false,1,keypress(m),500,344480.8000000715,344480.7000000477,342201.805,342216.2000000477,342218.473,344485.321,8,400,45,,ISIC_2555494.JPG
break,html.Screen,4_94_1,2023-05-02T20:31:08.370Z,,0,,,NaN,,,,,,false,,,,344481.3000000715,344481.10000002384,,344480.89999997616,,344485.321,8,400,,,
break_continue,html.Screen,4_94_2,2023-05-02T20:31:08.370Z,,0,,,NaN,,,,,,false,,,,344481.39999997616,344481.39999997616,,344481.39999997616,,344485.321,8,400,,,
sequence,flow.Sequence,4_94,2023-05-02T20:31:08.370Z,,0,,,2262.92699997616,completion,,,,,false,,,,344481.60000002384,344481.39999997616,342201.805,342216.10000002384,342218.473,344485.321,8,400,,,
trial,html.Screen,4_95_0,2023-05-02T20:31:10.686Z,,0,2,,2311.9790000715293,response,ISIC_0072215.JPG,,ISIC_0024962.JPG,ISIC_0072215.JPG,false,1,keypress(m),500,346797.5,346797.3000000715,344468.653,344481.7000000477,344485.321,346802.173,8,400,46,,ISIC_0024962.JPG
break,html.Screen,4_95_1,2023-05-02T20:31:10.686Z,,0,,,NaN,,,,,,false,,,,346798,346797.8000000715,,346797.60000002384,,346802.173,8,400,,,
break_continue,html.Screen,4_95_2,2023-05-02T20:31:10.687Z,,0,,,NaN,,,,,,false,,,,346798.2000000477,346798.10000002384,,346798,,346802.173,8,400,,,
sequence,flow.Sequence,4_95,2023-05-02T20:31:10.687Z,,0,,,2312.7790000238456,completion,,,,,false,,,,346798.3000000715,346798.10000002384,344468.653,344481.7000000477,344485.321,346802.173,8,400,,,
trial,html.Screen,4_96_0,2023-05-02T20:31:13.327Z,,0,2,,2636.027000047674,response,ISIC_4474170.JPG,,ISIC_9732721.JPG,ISIC_9732721.JPG,false,0,keypress(z),500,349438.39999997616,349438.2000000477,346785.505,346798.39999997616,346802.173,349452.385,8,400,47,,ISIC_4474170.JPG
break,html.Screen,4_96_1,2023-05-02T20:31:13.327Z,,0,,,NaN,,,,,,false,,,,349438.7000000477,349438.60000002384,,349438.5,,349452.385,8,400,,,
break_continue,html.Screen,4_96_2,2023-05-02T20:31:13.327Z,,0,,,NaN,,,,,,false,,,,349439.10000002384,349439,,349438.8000000715,,349452.385,8,400,,,
sequence,flow.Sequence,4_96,2023-05-02T20:31:13.328Z,,0,,,2636.82699999999,completion,,,,,false,,,,349439.10000002384,349439,346785.505,346798.3000000715,346802.173,349452.385,8,400,,,
trial,html.Screen,4_97_0,2023-05-02T20:31:15.654Z,,0,2,,2313.1149999999907,response,ISIC_0028219.JPG,,ISIC_0063268.JPG,ISIC_0028219.JPG,false,1,keypress(m),500,351765.7000000477,351765.5,349435.717,349439.2000000477,349452.385,351787.746,8,400,48,,ISIC_0063268.JPG
break,html.Screen,4_97_1,2023-05-02T20:31:15.655Z,,0,,,NaN,,,,,,false,,,,351766.10000002384,351766,,351765.8000000715,,351787.746,8,400,,,
break_continue,html.Screen,4_97_2,2023-05-02T20:31:15.655Z,,0,,,NaN,,,,,,false,,,,351766.39999997616,351766.2000000477,,351766.2000000477,,351787.746,8,400,,,
sequence,flow.Sequence,4_97,2023-05-02T20:31:15.655Z,,0,,,2313.8150000476744,completion,,,,,false,,,,351766.39999997616,351766.2000000477,349435.717,349439.2000000477,349452.385,351787.746,8,400,,,
trial,html.Screen,4_98_0,2023-05-02T20:31:17.761Z,,0,2,,2084.954000047699,response,ISIC_7096389.JPG,,ISIC_0070246.JPG,ISIC_7096389.JPG,false,1,keypress(m),500,353872.8000000715,353872.7000000477,351771.078,351766.5,351787.746,353887.914,8,400,49,,ISIC_0070246.JPG
break,html.Screen,4_98_1,2023-05-02T20:31:17.762Z,,0,,,NaN,,,,,,false,,,,353873.3000000715,353873.10000002384,,353873,,353887.914,8,400,,,
break_continue,html.Screen,4_98_2,2023-05-02T20:31:17.762Z,,0,,,NaN,,,,,,false,,,,353873.5,353873.5,,353873.39999997616,,353887.914,8,400,,,
sequence,flow.Sequence,4_98,2023-05-02T20:31:17.762Z,,0,,,2085.7540000000154,completion,,,,,false,,,,353873.7000000477,353873.5,351771.078,351766.5,351787.746,353887.914,8,400,,,
trial,html.Screen,4_99_0,2023-05-02T20:31:20.361Z,,0,2,,2584.5860000000102,response,ISIC_0072221.JPG,,ISIC_4870676.JPG,ISIC_4870676.JPG,false,0,keypress(z),500,356472.7000000477,356472.5,353871.246,353873.7000000477,353887.914,356488.122,8,400,50,,ISIC_0072221.JPG
break,html.Screen,4_99_1,2023-05-02T20:31:25.364Z,,0,,,5000.400000000023,timeout,,,,,false,,,,361475.60000002384,361471.854,356471.454,356472.8000000715,356488.122,361488.522,8,400,,,
break_continue,html.Screen,4_99_2,2023-05-02T20:31:26.632Z,,0,,,1245.1780000476865,response,,,,,false,continue,keypress(Space),,362743,362733.7000000477,361471.854,361475.8000000715,361488.522,362755.29,8,400,,,
sequence,flow.Sequence,4_99,2023-05-02T20:31:26.632Z,,0,,,8845.786000047694,completion,,,,,false,,,,362743.10000002384,362733.7000000477,353871.246,353873.7000000477,353887.914,362755.29,8,400,,,
trial,html.Screen,4_100_0,2023-05-02T20:31:29.424Z,,0,3,,2779.710000000021,response,ISIC_0060937.JPG,,ISIC_0031900.JPG,ISIC_0031900.JPG,false,0,keypress(z),500,365535.2000000477,365535,362738.622,362743.10000002384,362755.29,365538.846,8,400,1,,ISIC_0060937.JPG
break,html.Screen,4_100_1,2023-05-02T20:31:29.425Z,,0,,,NaN,,,,,,false,,,,365535.60000002384,365535.60000002384,,365535.39999997616,,365538.846,8,400,,,
break_continue,html.Screen,4_100_2,2023-05-02T20:31:29.425Z,,0,,,NaN,,,,,,false,,,,365535.89999997616,365535.8000000715,,365535.7000000477,,365538.846,8,400,,,
sequence,flow.Sequence,4_100,2023-05-02T20:31:29.425Z,,0,,,2780.5100000715465,completion,,,,,false,,,,365536,365535.8000000715,362738.622,362743.10000002384,362755.29,365538.846,8,400,,,
trial,html.Screen,4_101_0,2023-05-02T20:31:40.917Z,,0,3,,11517.587999999989,timeout,ISIC_0073015.JPG,,ISIC_7594601.JPG,,false,,,500,377027.5,377027.39999997616,365522.178,365536.10000002384,365538.846,377056.434,8,400,2,,
break,html.Screen,4_101_1,2023-05-02T20:31:40.917Z,,0,,,NaN,,,,,,false,,,,377027.89999997616,377027.8000000715,,377027.60000002384,,377056.434,8,400,,,
break_continue,html.Screen,4_101_2,2023-05-02T20:31:40.917Z,,0,,,NaN,,,,,,false,,,,377028.2000000477,377028.10000002384,,377028,,377056.434,8,400,,,
sequence,flow.Sequence,4_101,2023-05-02T20:31:40.918Z,,0,,,11489.254000023822,completion,,,,,false,,,,377028.3000000715,377028.10000002384,365522.178,365536.10000002384,365538.846,377056.434,8,400,,,
trial,html.Screen,4_102_0,2023-05-02T20:31:44.529Z,,0,3,,3582.866000071517,response,ISIC_8278688.JPG,,ISIC_2843245.JPG,ISIC_8278688.JPG,false,1,keypress(m),500,380639.5,380639.3000000715,377039.766,377028.39999997616,377056.434,380645.425,8,400,3,,ISIC_2843245.JPG
break,html.Screen,4_102_1,2023-05-02T20:31:44.529Z,,0,,,NaN,,,,,,false,,,,380640,380639.8000000715,,380639.60000002384,,380645.425,8,400,,,
break_continue,html.Screen,4_102_2,2023-05-02T20:31:44.530Z,,0,,,NaN,,,,,,false,,,,380640.2000000477,380640.10000002384,,380640.10000002384,,380645.425,8,400,,,
sequence,flow.Sequence,4_102,2023-05-02T20:31:44.530Z,,0,,,3583.6660000238335,completion,,,,,false,,,,380640.3000000715,380640.10000002384,377039.766,377028.3000000715,377056.434,380645.425,8,400,,,
trial,html.Screen,4_103_0,2023-05-02T20:31:48.112Z,,0,3,,3576.6750000238535,response,ISIC_7301963.JPG,,ISIC_4721599.JPG,ISIC_7301963.JPG,false,1,keypress(m),500,384222.3000000715,384222.10000002384,380628.757,380640.39999997616,380645.425,384229.045,8,400,4,,ISIC_4721599.JPG
break,html.Screen,4_103_1,2023-05-02T20:31:48.112Z,,0,,,NaN,,,,,,false,,,,384222.7000000477,384222.5,,384222.39999997616,,384229.045,8,400,,,
break_continue,html.Screen,4_103_2,2023-05-02T20:31:48.112Z,,0,,,NaN,,,,,,false,,,,384223,384222.89999997616,,384222.8000000715,,384229.045,8,400,,,
sequence,flow.Sequence,4_103,2023-05-02T20:31:48.113Z,,0,,,3577.47499997617,completion,,,,,false,,,,384223.10000002384,384222.89999997616,380628.757,380640.39999997616,380645.425,384229.045,8,400,,,
trial,html.Screen,4_104_0,2023-05-02T20:31:53.110Z,,0,3,,4991.354999976174,response,ISIC_2489504.JPG,,ISIC_7499769.JPG,ISIC_7499769.JPG,false,0,keypress(z),500,389220.5,389220.39999997616,384212.377,384223.2000000477,384229.045,389248.032,8,400,5,,ISIC_2489504.JPG
break,html.Screen,4_104_1,2023-05-02T20:31:53.110Z,,0,,,NaN,,,,,,false,,,,389220.8000000715,389220.8000000715,,389220.60000002384,,389248.032,8,400,,,
break_continue,html.Screen,4_104_2,2023-05-02T20:31:53.111Z,,0,,,NaN,,,,,,false,,,,389221,389221,,389220.89999997616,,389248.032,8,400,,,
sequence,flow.Sequence,4_104,2023-05-02T20:31:53.111Z,,0,,,4991.955000000016,completion,,,,,false,,,,389221.10000002384,389221,384212.377,384223.2000000477,384229.045,389248.032,8,400,,,
trial,html.Screen,4_105_0,2023-05-02T20:31:57.203Z,,0,3,,4064.668000047677,response,ISIC_0068560.JPG,,ISIC_6536232.JPG,ISIC_0068560.JPG,false,1,keypress(m),500,393312.8000000715,393312.7000000477,389231.364,389221.2000000477,389248.032,393315.024,8,400,6,,ISIC_6536232.JPG
break,html.Screen,4_105_1,2023-05-02T20:31:57.203Z,,0,,,NaN,,,,,,false,,,,393313.3000000715,393313.2000000477,,393312.89999997616,,393315.024,8,400,,,
break_continue,html.Screen,4_105_2,2023-05-02T20:31:57.203Z,,0,,,NaN,,,,,,false,,,,393313.5,393313.5,,393313.39999997616,,393315.024,8,400,,,
sequence,flow.Sequence,4_105,2023-05-02T20:31:57.203Z,,0,,,4065.4679999999935,completion,,,,,false,,,,393313.60000002384,393313.5,389231.364,389221.10000002384,389248.032,393315.024,8,400,,,
trial,html.Screen,4_106_0,2023-05-02T20:32:00.040Z,,0,3,,2835.476000000024,response,ISIC_1632313.JPG,,ISIC_0026889.JPG,ISIC_0026889.JPG,false,0,keypress(z),500,396150.7000000477,396150.5,393298.356,393313.8000000715,393315.024,396165.252,8,400,7,,ISIC_1632313.JPG
break,html.Screen,4_106_1,2023-05-02T20:32:00.041Z,,0,,,NaN,,,,,,false,,,,396151.10000002384,396151,,396150.89999997616,,396165.252,8,400,,,
break_continue,html.Screen,4_106_2,2023-05-02T20:32:00.041Z,,0,,,NaN,,,,,,false,,,,396151.39999997616,396151.3000000715,,396151.2000000477,,396165.252,8,400,,,
sequence,flow.Sequence,4_106,2023-05-02T20:32:00.041Z,,0,,,2836.27600007155,completion,,,,,false,,,,396151.5,396151.3000000715,393298.356,393313.8000000715,393315.024,396165.252,8,400,,,
trial,html.Screen,4_107_0,2023-05-02T20:32:03.248Z,,0,3,,3192.2480000000214,response,ISIC_0025941.JPG,,ISIC_0071257.JPG,ISIC_0025941.JPG,false,1,keypress(m),500,399357.8000000715,399357.5,396148.584,396151.60000002384,396165.252,399367.353,8,400,8,,ISIC_0071257.JPG
break,html.Screen,4_107_1,2023-05-02T20:32:03.248Z,,0,,,NaN,,,,,,false,,,,399358.2000000477,399358.10000002384,,399357.89999997616,,399367.353,8,400,,,
break_continue,html.Screen,4_107_2,2023-05-02T20:32:03.248Z,,0,,,NaN,,,,,,false,,,,399358.39999997616,399358.3000000715,,399358.3000000715,,399367.353,8,400,,,
sequence,flow.Sequence,4_107,2023-05-02T20:32:03.248Z,,0,,,3193.048000071547,completion,,,,,false,,,,399358.5,399358.3000000715,396148.584,396151.60000002384,396165.252,399367.353,8,400,,,
trial,html.Screen,4_108_0,2023-05-02T20:32:05.707Z,,0,3,,2449.347000047681,response,ISIC_0060266.JPG,,ISIC_2332127.JPG,ISIC_2332127.JPG,false,0,keypress(z),500,401817,401816.7000000477,399350.685,399358.60000002384,399367.353,401817.549,8,400,9,,ISIC_0060266.JPG
break,html.Screen,4_108_1,2023-05-02T20:32:05.707Z,,0,,,NaN,,,,,,false,,,,401817.39999997616,401817.2000000477,,401817.10000002384,,401817.549,8,400,,,
break_continue,html.Screen,4_108_2,2023-05-02T20:32:05.708Z,,0,,,NaN,,,,,,false,,,,401817.60000002384,401817.5,,401817.39999997616,,401817.549,8,400,,,
sequence,flow.Sequence,4_108,2023-05-02T20:32:05.708Z,,0,,,2450.146999999997,completion,,,,,false,,,,401817.7000000477,401817.5,399350.685,399358.60000002384,399367.353,401817.549,8,400,,,
trial,html.Screen,4_109_0,2023-05-02T20:32:10.259Z,,0,3,,4550.651000047685,response,ISIC_1359533.JPG,,ISIC_0032820.JPG,ISIC_1359533.JPG,false,1,keypress(m),500,406368.39999997616,406368.2000000477,401800.881,401817.8000000715,401817.549,406384.581,8,400,10,,ISIC_0032820.JPG
break,html.Screen,4_109_1,2023-05-02T20:32:10.259Z,,0,,,NaN,,,,,,false,,,,406368.89999997616,406368.7000000477,,406368.5,,406384.581,8,400,,,
break_continue,html.Screen,4_109_2,2023-05-02T20:32:10.259Z,,0,,,NaN,,,,,,false,,,,406369.10000002384,406369,,406368.89999997616,,406384.581,8,400,,,
sequence,flow.Sequence,4_109,2023-05-02T20:32:10.259Z,,0,,,4551.451000000001,completion,,,,,false,,,,406369.2000000477,406369,401800.881,401817.7000000477,401817.549,406384.581,8,400,,,
trial,html.Screen,4_110_0,2023-05-02T20:32:12.683Z,,0,3,,2407.9189999999944,response,ISIC_0001578.JPG,,ISIC_8357679.JPG,ISIC_8357679.JPG,false,0,keypress(z),500,408792.7000000477,408792.5,406367.913,406369.3000000715,406384.581,408801.441,8,400,11,,ISIC_0001578.JPG
break,html.Screen,4_110_1,2023-05-02T20:32:12.683Z,,0,,,NaN,,,,,,false,,,,408793.10000002384,408793,,408792.8000000715,,408801.441,8,400,,,
break_continue,html.Screen,4_110_2,2023-05-02T20:32:12.683Z,,0,,,NaN,,,,,,false,,,,408793.39999997616,408793.2000000477,,408793.10000002384,,408801.441,8,400,,,
sequence,flow.Sequence,4_110,2023-05-02T20:32:12.684Z,,0,,,2408.619000047678,completion,,,,,false,,,,408793.5,408793.2000000477,406367.913,406369.3000000715,406384.581,408801.441,8,400,,,
trial,html.Screen,4_111_0,2023-05-02T20:32:21.043Z,,0,3,,8351.059000000008,response,ISIC_2153301.JPG,,ISIC_0030512.JPG,ISIC_2153301.JPG,false,1,keypress(m),500,417152.7000000477,417152.5,408784.773,408793.5,408801.441,417153.995,8,400,12,,ISIC_0030512.JPG
break,html.Screen,4_111_1,2023-05-02T20:32:21.044Z,,0,,,NaN,,,,,,false,,,,417153.10000002384,417153,,417152.8000000715,,417153.995,8,400,,,
break_continue,html.Screen,4_111_2,2023-05-02T20:32:21.044Z,,0,,,NaN,,,,,,false,,,,417153.39999997616,417153.3000000715,,417153.2000000477,,417153.995,8,400,,,
sequence,flow.Sequence,4_111,2023-05-02T20:32:21.044Z,,0,,,8351.859000071534,completion,,,,,false,,,,417153.5,417153.3000000715,408784.773,408793.5,408801.441,417153.995,8,400,,,
trial,html.Screen,4_112_0,2023-05-02T20:32:23.474Z,,0,3,,2429.3050000715302,response,ISIC_0066358.JPG,,ISIC_9458746.JPG,ISIC_0066358.JPG,false,1,keypress(m),500,419583.39999997616,419583.3000000715,417137.327,417153.5,417153.995,419587.523,8,400,13,,ISIC_9458746.JPG
break,html.Screen,4_112_1,2023-05-02T20:32:23.474Z,,0,,,NaN,,,,,,false,,,,419583.89999997616,419583.8000000715,,419583.60000002384,,419587.523,8,400,,,
break_continue,html.Screen,4_112_2,2023-05-02T20:32:23.475Z,,0,,,NaN,,,,,,false,,,,419584.10000002384,419584,,419583.89999997616,,419587.523,8,400,,,
sequence,flow.Sequence,4_112,2023-05-02T20:32:23.475Z,,0,,,2430.0050000000047,completion,,,,,false,,,,419584.3000000715,419584,417137.327,417153.5,417153.995,419587.523,8,400,,,
trial,html.Screen,4_113_0,2023-05-02T20:32:25.979Z,,0,3,,2500.5770000238554,response,ISIC_0033804.JPG,,ISIC_0011336.JPG,ISIC_0033804.JPG,false,1,keypress(m),500,422088.2000000477,422088.10000002384,419570.855,419584.3000000715,419587.523,422106.267,8,400,14,,ISIC_0011336.JPG
break,html.Screen,4_113_1,2023-05-02T20:32:25.979Z,,0,,,NaN,,,,,,false,,,,422088.60000002384,422088.5,,422088.39999997616,,422106.267,8,400,,,
break_continue,html.Screen,4_113_2,2023-05-02T20:32:25.979Z,,0,,,NaN,,,,,,false,,,,422088.89999997616,422088.8000000715,,422088.7000000477,,422106.267,8,400,,,
sequence,flow.Sequence,4_113,2023-05-02T20:32:25.980Z,,0,,,2501.277000071539,completion,,,,,false,,,,422089,422088.8000000715,419570.855,419584.3000000715,419587.523,422106.267,8,400,,,
trial,html.Screen,4_114_0,2023-05-02T20:32:28.261Z,,0,3,,2263.033000071533,response,ISIC_0025437.JPG,,ISIC_1932064.JPG,ISIC_1932064.JPG,false,0,keypress(z),500,424369.5,424369.3000000715,422089.599,422089.10000002384,422106.267,424373.115,8,400,15,,ISIC_0025437.JPG
break,html.Screen,4_114_1,2023-05-02T20:32:28.261Z,,0,,,NaN,,,,,,false,,,,424369.89999997616,424369.8000000715,,424369.5,,424373.115,8,400,,,
break_continue,html.Screen,4_114_2,2023-05-02T20:32:28.262Z,,0,,,NaN,,,,,,false,,,,424370.10000002384,424370,,424370,,424373.115,8,400,,,
sequence,flow.Sequence,4_114,2023-05-02T20:32:28.262Z,,0,,,2263.7330000000075,completion,,,,,false,,,,424370.2000000477,424370,422089.599,422089.10000002384,422106.267,424373.115,8,400,,,
trial,html.Screen,4_115_0,2023-05-02T20:32:30.972Z,,0,3,,2701.585000047693,response,ISIC_0025015.JPG,,ISIC_3624318.JPG,ISIC_0025015.JPG,false,1,keypress(m),500,427074.89999997616,427074.7000000477,424356.447,424370.39999997616,424373.115,427106.667,8,400,16,,ISIC_3624318.JPG
break,html.Screen,4_115_1,2023-05-02T20:32:30.973Z,,0,,,NaN,,,,,,false,,,,427075.3000000715,427075.2000000477,,427075,,427106.667,8,400,,,
break_continue,html.Screen,4_115_2,2023-05-02T20:32:30.973Z,,0,,,NaN,,,,,,false,,,,427075.60000002384,427075.39999997616,,427075.39999997616,,427106.667,8,400,,,
sequence,flow.Sequence,4_115,2023-05-02T20:32:30.973Z,,0,,,2702.2849999761675,completion,,,,,false,,,,427075.60000002384,427075.39999997616,424356.447,424370.3000000715,424373.115,427106.667,8,400,,,
trial,html.Screen,4_116_0,2023-05-02T20:32:33.351Z,,0,3,,2342.033000047668,response,ISIC_3613012.JPG,,ISIC_0000054.JPG,ISIC_3613012.JPG,false,1,keypress(m),500,429448.89999997616,429448.7000000477,427089.999,427075.7000000477,427106.667,429456.855,8,400,17,,ISIC_0000054.JPG
break,html.Screen,4_116_1,2023-05-02T20:32:33.351Z,,0,,,NaN,,,,,,false,,,,429449.39999997616,429449.2000000477,,429449.10000002384,,429456.855,8,400,,,
break_continue,html.Screen,4_116_2,2023-05-02T20:32:33.351Z,,0,,,NaN,,,,,,false,,,,429449.60000002384,429449.5,,429449.39999997616,,429456.855,8,400,,,
sequence,flow.Sequence,4_116,2023-05-02T20:32:33.352Z,,0,,,2342.832999999984,completion,,,,,false,,,,429449.7000000477,429449.5,427089.999,427075.7000000477,427106.667,429456.855,8,400,,,
trial,html.Screen,4_117_0,2023-05-02T20:32:36.112Z,,0,3,,2748.8450000477023,response,ISIC_3159924.JPG,,ISIC_0054663.JPG,ISIC_3159924.JPG,false,1,keypress(m),500,432205.89999997616,432205.7000000477,429440.187,429449.8000000715,429456.855,432208.934,8,400,18,,ISIC_0054663.JPG
break,html.Screen,4_117_1,2023-05-02T20:32:36.113Z,,0,,,NaN,,,,,,false,,,,432206.3000000715,432206.2000000477,,432206,,432208.934,8,400,,,
break_continue,html.Screen,4_117_2,2023-05-02T20:32:36.113Z,,0,,,NaN,,,,,,false,,,,432206.5,432206.39999997616,,432206.39999997616,,432208.934,8,400,,,
sequence,flow.Sequence,4_117,2023-05-02T20:32:36.113Z,,0,,,2749.5449999761768,completion,,,,,false,,,,432206.7000000477,432206.39999997616,429440.187,429449.8000000715,429456.855,432208.934,8,400,,,
trial,html.Screen,4_118_0,2023-05-02T20:32:38.478Z,,0,3,,2359.7660000476753,response,ISIC_2166661.JPG,,ISIC_0010510.JPG,ISIC_0010510.JPG,false,0,keypress(z),500,434568.89999997616,434568.7000000477,432192.266,432206.7000000477,432208.934,434575.79,8,400,19,,ISIC_2166661.JPG
break,html.Screen,4_118_1,2023-05-02T20:32:38.479Z,,0,,,NaN,,,,,,false,,,,434569.3000000715,434569.2000000477,,434569,,434575.79,8,400,,,
break_continue,html.Screen,4_118_2,2023-05-02T20:32:38.479Z,,0,,,NaN,,,,,,false,,,,434569.5,434569.39999997616,,434569.39999997616,,434575.79,8,400,,,
sequence,flow.Sequence,4_118,2023-05-02T20:32:38.479Z,,0,,,2360.4659999761498,completion,,,,,false,,,,434569.60000002384,434569.39999997616,432192.266,432206.7000000477,432208.934,434575.79,8,400,,,
trial,html.Screen,4_119_0,2023-05-02T20:32:40.912Z,,0,3,,2423.5100000715465,response,ISIC_0028465.JPG,,ISIC_7806612.JPG,ISIC_7806612.JPG,false,0,keypress(z),500,436999.5,436999.3000000715,434559.122,434569.7000000477,434575.79,437009.318,8,400,20,,ISIC_0028465.JPG
break,html.Screen,4_119_1,2023-05-02T20:32:40.912Z,,0,,,NaN,,,,,,false,,,,436999.89999997616,436999.8000000715,,436999.60000002384,,437009.318,8,400,,,
break_continue,html.Screen,4_119_2,2023-05-02T20:32:40.912Z,,0,,,NaN,,,,,,false,,,,437000.10000002384,437000,,436999.89999997616,,437009.318,8,400,,,
sequence,flow.Sequence,4_119,2023-05-02T20:32:40.913Z,,0,,,2424.210000000021,completion,,,,,false,,,,437000.2000000477,437000,434559.122,434569.7000000477,434575.79,437009.318,8,400,,,
trial,html.Screen,4_120_0,2023-05-02T20:32:43.610Z,,0,3,,2685.2820000238135,response,ISIC_0059170.JPG,,ISIC_0064066.JPG,ISIC_0064066.JPG,false,0,keypress(z),500,439694.7000000477,439694.60000002384,436992.65,437000.3000000715,437009.318,439709.534,8,400,21,,ISIC_0059170.JPG
break,html.Screen,4_120_1,2023-05-02T20:32:43.610Z,,0,,,NaN,,,,,,false,,,,439695.2000000477,439695,,439694.8000000715,,439709.534,8,400,,,
break_continue,html.Screen,4_120_2,2023-05-02T20:32:43.610Z,,0,,,NaN,,,,,,false,,,,439695.39999997616,439695.3000000715,,439695.3000000715,,439709.534,8,400,,,
sequence,flow.Sequence,4_120,2023-05-02T20:32:43.611Z,,0,,,2685.982000071497,completion,,,,,false,,,,439695.5,439695.3000000715,436992.65,437000.3000000715,437009.318,439709.534,8,400,,,
trial,html.Screen,4_121_0,2023-05-02T20:32:46.475Z,,0,3,,2848.0660000238568,response,ISIC_4926448.JPG,,ISIC_4882123.JPG,ISIC_4926448.JPG,false,1,keypress(m),500,442557.8000000715,442557.60000002384,439692.866,439695.60000002384,439709.534,442561.626,8,400,22,,ISIC_4882123.JPG
break,html.Screen,4_121_1,2023-05-02T20:32:46.476Z,,0,,,NaN,,,,,,false,,,,442558.3000000715,442558.10000002384,,442557.89999997616,,442561.626,8,400,,,
break_continue,html.Screen,4_121_2,2023-05-02T20:32:46.476Z,,0,,,NaN,,,,,,false,,,,442558.5,442558.39999997616,,442558.39999997616,,442561.626,8,400,,,
sequence,flow.Sequence,4_121,2023-05-02T20:32:46.476Z,,0,,,2848.865999976173,completion,,,,,false,,,,442558.60000002384,442558.39999997616,439692.866,439695.60000002384,439709.534,442561.626,8,400,,,
trial,html.Screen,4_122_0,2023-05-02T20:32:49.326Z,,0,3,,2844.773999976169,response,ISIC_0033265.JPG,,ISIC_0027072.JPG,ISIC_0033265.JPG,false,1,keypress(m),500,445406.60000002384,445406.39999997616,442544.958,442558.7000000477,442561.626,445411.854,8,400,23,,ISIC_0027072.JPG
break,html.Screen,4_122_1,2023-05-02T20:32:49.326Z,,0,,,NaN,,,,,,false,,,,445407.10000002384,445406.89999997616,,445406.8000000715,,445411.854,8,400,,,
break_continue,html.Screen,4_122_2,2023-05-02T20:32:49.327Z,,0,,,NaN,,,,,,false,,,,445407.3000000715,445407.3000000715,,445407.2000000477,,445411.854,8,400,,,
sequence,flow.Sequence,4_122,2023-05-02T20:32:49.327Z,,0,,,2845.6740000715363,completion,,,,,false,,,,445407.39999997616,445407.3000000715,442544.958,442558.7000000477,442561.626,445411.854,8,400,,,
trial,html.Screen,4_123_0,2023-05-02T20:32:52.026Z,,0,3,,2692.646000000008,response,ISIC_0059840.JPG,,ISIC_0000146.JPG,ISIC_0059840.JPG,false,1,keypress(m),500,448104.60000002384,448104.5,445395.186,445407.5,445411.854,448112.07,8,400,24,,ISIC_0000146.JPG
break,html.Screen,4_123_1,2023-05-02T20:32:52.026Z,,0,,,NaN,,,,,,false,,,,448105.10000002384,448105,,448104.8000000715,,448112.07,8,400,,,
break_continue,html.Screen,4_123_2,2023-05-02T20:32:52.026Z,,0,,,NaN,,,,,,false,,,,448105.3000000715,448105.2000000477,,448105.10000002384,,448112.07,8,400,,,
sequence,flow.Sequence,4_123,2023-05-02T20:32:52.026Z,,0,,,2693.3460000476916,completion,,,,,false,,,,448105.39999997616,448105.2000000477,445395.186,445407.5,445411.854,448112.07,8,400,,,
trial,html.Screen,4_124_0,2023-05-02T20:32:54.368Z,,0,3,,2333.329999976151,response,ISIC_0029874.JPG,,ISIC_0054599.JPG,ISIC_0029874.JPG,false,1,keypress(m),500,450445.60000002384,450445.39999997616,448095.402,448105.39999997616,448112.07,450462.258,8,400,25,,ISIC_0054599.JPG
break,html.Screen,4_124_1,2023-05-02T20:32:54.368Z,,0,,,NaN,,,,,,false,,,,450446,450445.89999997616,,450445.7000000477,,450462.258,8,400,,,
break_continue,html.Screen,4_124_2,2023-05-02T20:32:54.368Z,,0,,,NaN,,,,,,false,,,,450446.2000000477,450446.10000002384,,450446.10000002384,,450462.258,8,400,,,
sequence,flow.Sequence,4_124,2023-05-02T20:32:54.368Z,,0,,,2334.030000023835,completion,,,,,false,,,,450446.39999997616,450446.10000002384,448095.402,448105.39999997616,448112.07,450462.258,8,400,,,
trial,html.Screen,4_125_0,2023-05-02T20:32:57.281Z,,0,3,,2895.442000047711,response,ISIC_0033275.JPG,,ISIC_2797576.JPG,ISIC_0033275.JPG,false,1,keypress(m),500,453357.89999997616,453357.7000000477,450445.59,450446.39999997616,450462.258,453364.343,8,400,26,,ISIC_2797576.JPG
break,html.Screen,4_125_1,2023-05-02T20:32:57.282Z,,0,,,NaN,,,,,,false,,,,453358.3000000715,453358.2000000477,,453358,,453364.343,8,400,,,
break_continue,html.Screen,4_125_2,2023-05-02T20:32:57.282Z,,0,,,NaN,,,,,,false,,,,453358.5,453358.39999997616,,453358.39999997616,,453364.343,8,400,,,
