sender,sender_type,sender_id,timestamp,meta,,blockNo,condition,duration,ended_on,img_left,img_reveal,img_right,loser,practice,response,response_action,selection_duration,time_commit,time_end,time_render,time_run,time_show,time_switch,total_blocks,total_trials,trialNo,url,winner
informed_consent,html.Screen,0,2023-09-21T16:57:55.590Z,"{""labjs_version"":""20.2.4"",""labjs_build"":{""flavor"":""production"",""commit"":""f5b4a49f956347addd546a832a3327688c2c0fef""},""location"":""https://run.pavlovia.org/MurrayBennett/melanoma-2afc/?participant=66899&platform=sona"",""userAgent"":""Mozilla/5.0 (Macintosh; Intel Mac OS X 10_15_7) AppleWebKit/537.36 (KHTML, like Gecko) Chrome/117.0.0.0 Safari/537.36"",""platform"":""MacIntel"",""language"":""en-US"",""locale"":""en-US"",""timeZone"":""America/Chicago"",""timezoneOffset"":300,""screen_width"":1440,""screen_height"":900,""scroll_width"":1440,""scroll_height"":620,""window_innerWidth"":1440,""window_innerHeight"":668,""devicePixelRatio"":2}",,,,12405.224999999977,response,,,,,,consent,click button,,16156.5,16153.099999999977,3731.209,3735.899999999907,3747.875,16164.799,,,,"{""participant"":""66899"",""platform"":""sona""}",
Welcome,html.Screen,1,2023-09-21T16:58:15.356Z,,,,colourful,19755.600999999908,response,,,,,,continue,click button,,35922.69999999995,35920.39999999991,16148.133,16156.79999999993,16164.799,35932.067,,,,,
trial,html.Screen,2_0_0,2023-09-21T16:58:19.938Z,,0,0,,4572.432999999997,response,ISIC_0025593.JPG,,ISIC_0063388.JPG,ISIC_0063388.JPG,true,0,keypress(z),500,40505.09999999998,40504.5,35915.401,35923.09999999998,35932.067,40515.217,1,6,1,,ISIC_0025593.JPG
sequence,flow.Sequence,2_0,2023-09-21T16:58:19.938Z,,0,,,4572.432999999997,completion,,,,,true,,,,40505.59999999998,40504.5,35915.401,35923.09999999998,35932.067,40515.217,1,6,,,
trial,html.Screen,2_1_0,2023-09-21T16:58:23.945Z,,0,0,,3996.4829999999565,response,ISIC_0028178.JPG,,ISIC_1309015.JPG,ISIC_1309015.JPG,true,0,keypress(z),500,44512.19999999995,44511.69999999995,40498.551,40505.79999999993,40515.217,44515.925,1,6,2,,ISIC_0028178.JPG
sequence,flow.Sequence,2_1,2023-09-21T16:58:23.945Z,,0,,,3996.4829999999565,completion,,,,,true,,,,44512.69999999995,44511.69999999995,40498.551,40505.79999999993,40515.217,44515.925,1,6,,,
trial,html.Screen,2_2_0,2023-09-21T16:58:28.589Z,,0,0,,4640.374999999927,response,ISIC_0031128.JPG,,ISIC_3314853.JPG,ISIC_3314853.JPG,true,0,keypress(z),500,49156.89999999991,49156.29999999993,44499.259,44512.89999999991,44515.925,49165.739,1,6,3,,ISIC_0031128.JPG
sequence,flow.Sequence,2_2,2023-09-21T16:58:28.589Z,,0,,,4640.374999999927,completion,,,,,true,,,,49157.29999999993,49156.29999999993,44499.259,44512.89999999991,44515.925,49165.739,1,6,,,
trial,html.Screen,2_3_0,2023-09-21T16:58:32.196Z,,0,0,,3598.0609999999288,response,ISIC_8980141.JPG,,ISIC_0031612.JPG,ISIC_0031612.JPG,true,0,keypress(z),500,52764.39999999991,52763.79999999993,49149.073,49157.69999999995,49165.739,52766.401,1,6,4,,ISIC_8980141.JPG
sequence,flow.Sequence,2_3,2023-09-21T16:58:32.197Z,,0,,,3598.0609999999288,completion,,,,,true,,,,52764.89999999991,52763.79999999993,49149.073,49157.5,49165.739,52766.401,1,6,,,
trial,html.Screen,2_4_0,2023-09-21T16:58:36.218Z,,0,0,,4019.2989999999554,response,ISIC_1197737.JPG,,ISIC_9721604.JPG,ISIC_9721604.JPG,true,0,keypress(z),500,56786.29999999993,56785.69999999995,52749.735,52765.19999999995,52766.401,56799.573,1,6,5,,ISIC_1197737.JPG
sequence,flow.Sequence,2_4,2023-09-21T16:58:36.219Z,,0,,,4019.2989999999554,completion,,,,,true,,,,56786.69999999995,56785.69999999995,52749.735,52765.09999999998,52766.401,56799.573,1,6,,,
trial,html.Screen,2_5_0,2023-09-21T16:58:41.071Z,,0,0,,4838.927000000003,response,ISIC_0025346.JPG,,ISIC_0010681.JPG,ISIC_0025346.JPG,true,1,keypress(m),500,61639.09999999998,61638.5,56782.907,56787,56799.573,61649.379,1,6,6,,ISIC_0010681.JPG
sequence,flow.Sequence,2_5,2023-09-21T16:58:41.071Z,,0,,,4838.927000000003,completion,,,,,true,,,,61639.5,61638.5,56782.907,56786.79999999993,56799.573,61649.379,1,6,,,
loop,flow.Loop,2,2023-09-21T16:58:41.071Z,,,,,25706.432999999997,completion,,,,,true,,,,61639.89999999991,61638.5,35915.401,35923,35932.067,61649.379,1,6,,,
exp_instructions,html.Screen,3,2023-09-21T16:58:47.462Z,,,,,6375.620999999999,response,,,,,,continue,keypress(Space),,68030.29999999993,68025,61632.713,61640,61649.379,68032.457,,,,,
trial,html.Screen,4_0_0,2023-09-21T16:58:50.701Z,,0,1,,3237.3429999999353,response,ISIC_7137995.JPG,7,ISIC_7651944.JPG,ISIC_7137995.JPG,false,1,keypress(m),500,71270,71269.79999999993,68015.791,68030.79999999993,68032.457,71283.034,8,400,1,,ISIC_7651944.JPG
break,html.Screen,4_0_1,2023-09-21T16:58:50.702Z,,0,,,NaN,,,,,,false,,,,71270.3999999999,71270.29999999993,,71270,,71283.034,8,400,,,
break_continue,html.Screen,4_0_2,2023-09-21T16:58:50.702Z,,0,,,NaN,,,,,,false,,,,71270.59999999998,71270.5,,71270.3999999999,,71283.034,8,400,,,
sequence,flow.Sequence,4_0,2023-09-21T16:58:50.702Z,,0,,,3238.043000000005,completion,,,,,false,,,,71270.59999999998,71270.5,68015.791,68030.69999999995,68032.457,71283.034,8,400,,,
trial,html.Screen,4_1_0,2023-09-21T16:58:53.729Z,,0,1,,3014.2659999999305,response,ISIC_0010510.JPG,8,ISIC_0009941.JPG,ISIC_0010510.JPG,false,1,keypress(m),500,74297.79999999993,74297.29999999993,71266.368,71270.69999999995,71283.034,74299.58,8,400,2,,ISIC_0009941.JPG
break,html.Screen,4_1_1,2023-09-21T16:58:53.730Z,,0,,,NaN,,,,,,false,,,,74299.19999999995,74298.79999999993,,74298.09999999998,,74299.58,8,400,,,
break_continue,html.Screen,4_1_2,2023-09-21T16:58:53.731Z,,0,,,NaN,,,,,,false,,,,74299.59999999998,74299.5,,74299.29999999993,,74299.58,8,400,,,
sequence,flow.Sequence,4_1,2023-09-21T16:58:53.731Z,,0,,,3016.4660000000003,completion,,,,,false,,,,74299.79999999993,74299.5,71266.368,71270.59999999998,71283.034,74299.58,8,400,,,
trial,html.Screen,4_2_0,2023-09-21T16:58:57.625Z,,0,1,,3893.9199999999983,response,ISIC_7694069.JPG,7,ISIC_7775535.JPG,ISIC_7775535.JPG,false,0,keypress(z),500,78194,78193.5,74282.914,74299.8999999999,74299.58,78199.424,8,400,3,,ISIC_7694069.JPG
break,html.Screen,4_2_1,2023-09-21T16:58:57.626Z,,0,,,NaN,,,,,,false,,,,78195.3999999999,78195,,78194.19999999995,,78199.424,8,400,,,
break_continue,html.Screen,4_2_2,2023-09-21T16:58:57.627Z,,0,,,NaN,,,,,,false,,,,78195.79999999993,78195.69999999995,,78195.5,,78199.424,8,400,,,
sequence,flow.Sequence,4_2,2023-09-21T16:58:57.627Z,,0,,,3896.1199999999517,completion,,,,,false,,,,78195.8999999999,78195.69999999995,74282.914,74299.8999999999,74299.58,78199.424,8,400,,,
trial,html.Screen,4_3_0,2023-09-21T16:59:03.008Z,,0,1,,5377.175999999978,response,ISIC_0033229.JPG,9,ISIC_0000287.JPG,ISIC_0033229.JPG,false,1,keypress(m),500,83577.09999999998,83576.59999999998,78182.758,78196,78199.424,83583.747,8,400,4,,ISIC_0000287.JPG
break,html.Screen,4_3_1,2023-09-21T16:59:03.009Z,,0,,,NaN,,,,,,false,,,,83578.5,83578.09999999998,,83577.3999999999,,83583.747,8,400,,,
break_continue,html.Screen,4_3_2,2023-09-21T16:59:03.009Z,,0,,,NaN,,,,,,false,,,,83578.79999999993,83578.59999999998,,83578.5,,83583.747,8,400,,,
sequence,flow.Sequence,4_3,2023-09-21T16:59:03.009Z,,0,,,5379.175999999978,completion,,,,,false,,,,83578.8999999999,83578.59999999998,78182.758,78195.8999999999,78199.424,83583.747,8,400,,,
trial,html.Screen,4_4_0,2023-09-21T16:59:05.801Z,,0,1,,2785.8529999999737,response,ISIC_3613392.JPG,8,ISIC_0011778.JPG,ISIC_3613392.JPG,false,1,keypress(m),500,86370.09999999998,86369.59999999998,83567.081,83579.09999999998,83583.747,86383.635,8,400,5,,ISIC_0011778.JPG
break,html.Screen,4_4_1,2023-09-21T16:59:05.802Z,,0,,,NaN,,,,,,false,,,,86371.3999999999,86371.09999999998,,86370.3999999999,,86383.635,8,400,,,
break_continue,html.Screen,4_4_2,2023-09-21T16:59:05.802Z,,0,,,NaN,,,,,,false,,,,86371.79999999993,86371.79999999993,,86371.5,,86383.635,8,400,,,
sequence,flow.Sequence,4_4,2023-09-21T16:59:05.802Z,,0,,,2788.052999999927,completion,,,,,false,,,,86372,86371.79999999993,83567.081,83578.8999999999,83583.747,86383.635,8,400,,,
trial,html.Screen,4_5_0,2023-09-21T16:59:08.735Z,,0,1,,2920.964999999982,response,ISIC_0024732.JPG,8,ISIC_0025489.JPG,ISIC_0025489.JPG,false,0,keypress(z),500,89305.09999999998,89304.59999999998,86366.969,86372.19999999995,86383.635,89317.688,8,400,6,,ISIC_0024732.JPG
break,html.Screen,4_5_1,2023-09-21T16:59:08.737Z,,0,,,NaN,,,,,,false,,,,89306.19999999995,89306,,89305.29999999993,,89317.688,8,400,,,
break_continue,html.Screen,4_5_2,2023-09-21T16:59:08.737Z,,0,,,NaN,,,,,,false,,,,89306.59999999998,89306.5,,89306.3999999999,,89317.688,8,400,,,
sequence,flow.Sequence,4_5,2023-09-21T16:59:08.737Z,,0,,,2922.8650000000052,completion,,,,,false,,,,89306.79999999993,89306.5,86366.969,86372.09999999998,86383.635,89317.688,8,400,,,
trial,html.Screen,4_6_0,2023-09-21T16:59:12.281Z,,0,1,,3533.1119999999355,response,ISIC_0485417.JPG,7,ISIC_6052860.JPG,ISIC_6052860.JPG,false,0,keypress(z),500,92851.19999999995,92850.79999999993,89301.022,89307,89317.688,92867.546,8,400,7,,ISIC_0485417.JPG
break,html.Screen,4_6_1,2023-09-21T16:59:12.283Z,,0,,,NaN,,,,,,false,,,,92852.5,92852.19999999995,,92851.59999999998,,92867.546,8,400,,,
break_continue,html.Screen,4_6_2,2023-09-21T16:59:12.283Z,,0,,,NaN,,,,,,false,,,,92852.8999999999,92852.79999999993,,92852.59999999998,,92867.546,8,400,,,
sequence,flow.Sequence,4_6,2023-09-21T16:59:12.283Z,,0,,,3535.1119999999355,completion,,,,,false,,,,92853.09999999998,92852.79999999993,89301.022,89306.8999999999,89317.688,92867.546,8,400,,,
trial,html.Screen,4_7_0,2023-09-21T16:59:15.648Z,,0,1,,3350.253999999928,response,ISIC_1919324.JPG,8,ISIC_0024574.JPG,ISIC_1919324.JPG,false,1,keypress(m),500,96218.19999999995,96217.79999999993,92850.88,92853.29999999993,92867.546,96234.078,8,400,8,,ISIC_0024574.JPG
break,html.Screen,4_7_1,2023-09-21T16:59:15.650Z,,0,,,NaN,,,,,,false,,,,96219.59999999998,96219.29999999993,,96218.59999999998,,96234.078,8,400,,,
break_continue,html.Screen,4_7_2,2023-09-21T16:59:15.650Z,,0,,,NaN,,,,,,false,,,,96220.09999999998,96220,,96219.69999999995,,96234.078,8,400,,,
sequence,flow.Sequence,4_7,2023-09-21T16:59:15.651Z,,0,,,3352.453999999998,completion,,,,,false,,,,96221.5,96220,92850.88,92853.19999999995,92867.546,96234.078,8,400,,,
trial,html.Screen,4_8_0,2023-09-21T16:59:19.192Z,,0,1,,3528.0219999999827,response,ISIC_9157162.JPG,8,ISIC_0030150.JPG,ISIC_9157162.JPG,false,1,keypress(m),500,99762.59999999998,99762.09999999998,96217.412,96221.69999999995,96234.078,99767.943,8,400,9,,ISIC_0030150.JPG
break,html.Screen,4_8_1,2023-09-21T16:59:19.194Z,,0,,,NaN,,,,,,false,,,,99763.8999999999,99763.59999999998,,99762.8999999999,,99767.943,8,400,,,
break_continue,html.Screen,4_8_2,2023-09-21T16:59:19.194Z,,0,,,NaN,,,,,,false,,,,99764.29999999993,99764.19999999995,,99764,,99767.943,8,400,,,
sequence,flow.Sequence,4_8,2023-09-21T16:59:19.194Z,,0,,,3530.1219999999594,completion,,,,,false,,,,99764.5,99764.19999999995,96217.412,96221.59999999998,96234.078,99767.943,8,400,,,
trial,html.Screen,4_9_0,2023-09-21T16:59:22.063Z,,0,1,,2864.756999999954,response,ISIC_0046471.JPG,8,ISIC_0010900.JPG,ISIC_0010900.JPG,false,0,keypress(z),500,102633.09999999998,102632.69999999995,99751.277,99764.69999999995,99767.943,102634.495,8,400,10,,ISIC_0046471.JPG
break,html.Screen,4_9_1,2023-09-21T16:59:22.064Z,,0,,,NaN,,,,,,false,,,,102634.5,102634.09999999998,,102633.5,,102634.495,8,400,,,
break_continue,html.Screen,4_9_2,2023-09-21T16:59:22.065Z,,0,,,NaN,,,,,,false,,,,102634.79999999993,102634.69999999995,,102634.5,,102634.495,8,400,,,
sequence,flow.Sequence,4_9,2023-09-21T16:59:22.065Z,,0,,,2866.756999999954,completion,,,,,false,,,,102635.09999999998,102634.69999999995,99751.277,99764.59999999998,99767.943,102634.495,8,400,,,
trial,html.Screen,4_10_0,2023-09-21T16:59:25.349Z,,0,1,,3284.1049999999814,response,ISIC_4323070.JPG,8,ISIC_6970607.JPG,ISIC_6970607.JPG,false,0,keypress(z),500,105919,105918.59999999998,102617.829,102635.09999999998,102634.495,105934.363,8,400,11,,ISIC_4323070.JPG
break,html.Screen,4_10_1,2023-09-21T16:59:25.350Z,,0,,,NaN,,,,,,false,,,,105920.29999999993,105920,,105919.3999999999,,105934.363,8,400,,,
break_continue,html.Screen,4_10_2,2023-09-21T16:59:25.350Z,,0,,,NaN,,,,,,false,,,,105920.69999999995,105920.59999999998,,105920.3999999999,,105934.363,8,400,,,
sequence,flow.Sequence,4_10,2023-09-21T16:59:25.350Z,,0,,,3286.1049999999814,completion,,,,,false,,,,105920.79999999993,105920.59999999998,102617.829,102635.09999999998,102634.495,105934.363,8,400,,,
trial,html.Screen,4_11_0,2023-09-21T16:59:29.243Z,,0,1,,3878.4369999999326,response,ISIC_5377237.JPG,5,ISIC_0055179.JPG,ISIC_0055179.JPG,false,0,keypress(z),500,109813.19999999995,109812.79999999993,105917.697,105921,105934.363,109818.411,8,400,12,,ISIC_5377237.JPG
break,html.Screen,4_11_1,2023-09-21T16:59:29.244Z,,0,,,NaN,,,,,,false,,,,109814.59999999998,109814.29999999993,,109813.5,,109818.411,8,400,,,
break_continue,html.Screen,4_11_2,2023-09-21T16:59:29.244Z,,0,,,NaN,,,,,,false,,,,109815,109814.8999999999,,109814.69999999995,,109818.411,8,400,,,
sequence,flow.Sequence,4_11,2023-09-21T16:59:29.245Z,,0,,,3880.5369999999093,completion,,,,,false,,,,109815.19999999995,109814.8999999999,105917.697,105920.8999999999,105934.363,109818.411,8,400,,,
trial,html.Screen,4_12_0,2023-09-21T16:59:32.466Z,,0,1,,3218.089000000007,response,ISIC_9312164.JPG,6,ISIC_3819893.JPG,ISIC_3819893.JPG,false,0,keypress(z),500,113036.8999999999,113036.5,109801.745,109815.29999999993,109818.411,113051.615,8,400,13,,ISIC_9312164.JPG
break,html.Screen,4_12_1,2023-09-21T16:59:32.467Z,,0,,,NaN,,,,,,false,,,,113038.29999999993,113038.09999999998,,113037.29999999993,,113051.615,8,400,,,
break_continue,html.Screen,4_12_2,2023-09-21T16:59:32.468Z,,0,,,NaN,,,,,,false,,,,113038.69999999995,113038.59999999998,,113038.3999999999,,113051.615,8,400,,,
sequence,flow.Sequence,4_12,2023-09-21T16:59:32.468Z,,0,,,3220.188999999984,completion,,,,,false,,,,113038.79999999993,113038.59999999998,109801.745,109815.29999999993,109818.411,113051.615,8,400,,,
trial,html.Screen,4_13_0,2023-09-21T16:59:35.325Z,,0,1,,2844.184999999925,response,ISIC_4148086.JPG,8,ISIC_0032925.JPG,ISIC_4148086.JPG,false,1,keypress(m),500,115896.29999999993,115895.79999999993,113034.949,113038.8999999999,113051.615,115918.167,8,400,14,,ISIC_0032925.JPG
break,html.Screen,4_13_1,2023-09-21T16:59:35.327Z,,0,,,NaN,,,,,,false,,,,115897.59999999998,115897.29999999993,,115896.59999999998,,115918.167,8,400,,,
break_continue,html.Screen,4_13_2,2023-09-21T16:59:35.327Z,,0,,,NaN,,,,,,false,,,,115898,115897.8999999999,,115897.69999999995,,115918.167,8,400,,,
sequence,flow.Sequence,4_13,2023-09-21T16:59:35.327Z,,0,,,2846.2849999999016,completion,,,,,false,,,,115898.09999999998,115897.8999999999,113034.949,113038.8999999999,113051.615,115918.167,8,400,,,
trial,html.Screen,4_14_0,2023-09-21T16:59:38.213Z,,0,1,,2865.7329999999056,response,ISIC_6557194.JPG,7,ISIC_8967786.JPG,ISIC_8967786.JPG,false,0,keypress(z),500,118784.3999999999,118783.8999999999,115901.501,115898.3999999999,115918.167,118801.385,8,400,15,,ISIC_6557194.JPG
break,html.Screen,4_14_1,2023-09-21T16:59:38.215Z,,0,,,NaN,,,,,,false,,,,118785.59999999998,118785.3999999999,,118784.69999999995,,118801.385,8,400,,,
break_continue,html.Screen,4_14_2,2023-09-21T16:59:38.215Z,,0,,,NaN,,,,,,false,,,,118786.09999999998,118785.8999999999,,118785.69999999995,,118801.385,8,400,,,
sequence,flow.Sequence,4_14,2023-09-21T16:59:38.215Z,,0,,,2867.7329999999056,completion,,,,,false,,,,118786.19999999995,118785.8999999999,115901.501,115898.19999999995,115918.167,118801.385,8,400,,,
trial,html.Screen,4_15_0,2023-09-21T16:59:41.129Z,,0,1,,2898.6150000000052,response,ISIC_0057787.JPG,8,ISIC_4076162.JPG,ISIC_4076162.JPG,false,0,keypress(z),500,121700.3999999999,121700,118784.719,118786.3999999999,118801.385,121701.984,8,400,16,,ISIC_0057787.JPG
break,html.Screen,4_15_1,2023-09-21T16:59:41.131Z,,0,,,NaN,,,,,,false,,,,121701.69999999995,121701.5,,121700.69999999995,,121701.984,8,400,,,
break_continue,html.Screen,4_15_2,2023-09-21T16:59:41.131Z,,0,,,NaN,,,,,,false,,,,121702.19999999995,121702,,121701.8999999999,,121701.984,8,400,,,
sequence,flow.Sequence,4_15,2023-09-21T16:59:41.131Z,,0,,,2900.6150000000052,completion,,,,,false,,,,121702.3999999999,121702,118784.719,118786.3999999999,118801.385,121701.984,8,400,,,
trial,html.Screen,4_16_0,2023-09-21T16:59:47.021Z,,0,1,,5890.11599999998,response,ISIC_0032766.JPG,7,ISIC_0013258.JPG,ISIC_0013258.JPG,false,0,keypress(z),500,127592.5,127592.09999999998,121685.318,121702.5,121701.984,127601.748,8,400,17,,ISIC_0032766.JPG
break,html.Screen,4_16_1,2023-09-21T16:59:47.022Z,,0,,,NaN,,,,,,false,,,,127593.8999999999,127593.59999999998,,127592.79999999993,,127601.748,8,400,,,
break_continue,html.Screen,4_16_2,2023-09-21T16:59:47.023Z,,0,,,NaN,,,,,,false,,,,127594.3999999999,127594.29999999993,,127594,,127601.748,8,400,,,
sequence,flow.Sequence,4_16,2023-09-21T16:59:47.023Z,,0,,,5892.315999999933,completion,,,,,false,,,,127594.5,127594.29999999993,121685.318,121702.3999999999,121701.984,127601.748,8,400,,,
trial,html.Screen,4_17_0,2023-09-21T16:59:49.829Z,,0,1,,2798.35199999997,response,ISIC_7888672.JPG,5,ISIC_0061300.JPG,ISIC_7888672.JPG,false,1,keypress(m),500,130400.5,130400.09999999998,127585.082,127594.69999999995,127601.748,130402.472,8,400,18,,ISIC_0061300.JPG
break,html.Screen,4_17_1,2023-09-21T16:59:49.830Z,,0,,,NaN,,,,,,false,,,,130401.79999999993,130401.59999999998,,130400.8999999999,,130402.472,8,400,,,
break_continue,html.Screen,4_17_2,2023-09-21T16:59:49.831Z,,0,,,NaN,,,,,,false,,,,130402.19999999995,130402.09999999998,,130401.8999999999,,130402.472,8,400,,,
sequence,flow.Sequence,4_17,2023-09-21T16:59:49.831Z,,0,,,2800.35199999997,completion,,,,,false,,,,130402.29999999993,130402.09999999998,127585.082,127594.59999999998,127601.748,130402.472,8,400,,,
trial,html.Screen,4_18_0,2023-09-21T16:59:53.181Z,,0,1,,3350.1279999999824,response,ISIC_3617159.JPG,9,ISIC_7956417.JPG,ISIC_7956417.JPG,false,0,keypress(z),500,133753,133752.59999999998,130385.806,130402.5,130402.472,133769.004,8,400,19,,ISIC_3617159.JPG
break,html.Screen,4_18_1,2023-09-21T16:59:53.182Z,,0,,,NaN,,,,,,false,,,,133754.19999999995,133754.09999999998,,133753.29999999993,,133769.004,8,400,,,
break_continue,html.Screen,4_18_2,2023-09-21T16:59:53.183Z,,0,,,NaN,,,,,,false,,,,133754.69999999995,133754.59999999998,,133754.3999999999,,133769.004,8,400,,,
sequence,flow.Sequence,4_18,2023-09-21T16:59:53.183Z,,0,,,3352.1279999999824,completion,,,,,false,,,,133754.8999999999,133754.59999999998,130385.806,130402.3999999999,130402.472,133769.004,8,400,,,
trial,html.Screen,4_19_0,2023-09-21T16:59:55.942Z,,0,1,,2744.8959999999206,response,ISIC_8436492.JPG,4,ISIC_0440848.JPG,ISIC_0440848.JPG,false,0,keypress(z),500,136514.29999999993,136513.8999999999,133752.338,133755,133769.004,136518.894,8,400,20,,ISIC_8436492.JPG
break,html.Screen,4_19_1,2023-09-21T16:59:55.944Z,,0,,,NaN,,,,,,false,,,,136515.5,136515.19999999995,,136514.5,,136518.894,8,400,,,
break_continue,html.Screen,4_19_2,2023-09-21T16:59:55.944Z,,0,,,NaN,,,,,,false,,,,136516.09999999998,136515.8999999999,,136515.69999999995,,136518.894,8,400,,,
sequence,flow.Sequence,4_19,2023-09-21T16:59:55.944Z,,0,,,2746.8959999999206,completion,,,,,false,,,,136516.29999999993,136515.8999999999,133752.338,133755,133769.004,136518.894,8,400,,,
trial,html.Screen,4_20_0,2023-09-21T16:59:59.728Z,,0,1,,3780.6059999999998,response,ISIC_5298608.JPG,6,ISIC_0014987.JPG,ISIC_5298608.JPG,false,1,keypress(m),500,140300,140299.5,136502.228,136516.3999999999,136518.894,140319.52,8,400,21,,ISIC_0014987.JPG
break,html.Screen,4_20_1,2023-09-21T16:59:59.729Z,,0,,,NaN,,,,,,false,,,,140301.3999999999,140301.09999999998,,140300.29999999993,,140319.52,8,400,,,
break_continue,html.Screen,4_20_2,2023-09-21T16:59:59.730Z,,0,,,NaN,,,,,,false,,,,140301.79999999993,140301.59999999998,,140301.3999999999,,140319.52,8,400,,,
sequence,flow.Sequence,4_20,2023-09-21T16:59:59.730Z,,0,,,3782.7059999999765,completion,,,,,false,,,,140302,140301.59999999998,136502.228,136516.3999999999,136518.894,140319.52,8,400,,,
trial,html.Screen,4_21_0,2023-09-21T17:00:02.540Z,,0,1,,2791.7799999999406,response,ISIC_1343433.JPG,7,ISIC_0010742.JPG,ISIC_0010742.JPG,false,0,keypress(z),500,143111.69999999995,143111.29999999993,140302.854,140302.09999999998,140319.52,143119.408,8,400,22,,ISIC_1343433.JPG
break,html.Screen,4_21_1,2023-09-21T17:00:02.541Z,,0,,,NaN,,,,,,false,,,,143112.8999999999,143112.69999999995,,143112,,143119.408,8,400,,,
break_continue,html.Screen,4_21_2,2023-09-21T17:00:02.541Z,,0,,,NaN,,,,,,false,,,,143113.5,143113.5,,143113.19999999995,,143119.408,8,400,,,
sequence,flow.Sequence,4_21,2023-09-21T17:00:02.541Z,,0,,,2793.9800000000105,completion,,,,,false,,,,143113.59999999998,143113.5,140302.854,140302.09999999998,140319.52,143119.408,8,400,,,
trial,html.Screen,4_22_0,2023-09-21T17:00:08.595Z,,0,1,,6047.891999999934,response,ISIC_0027248.JPG,8,ISIC_0000087.JPG,ISIC_0000087.JPG,false,0,keypress(z),500,149167.8999999999,149167.29999999993,143102.742,143113.79999999993,143119.408,149169.166,8,400,23,,ISIC_0027248.JPG
break,html.Screen,4_22_1,2023-09-21T17:00:08.597Z,,0,,,NaN,,,,,,false,,,,149169.09999999998,149168.8999999999,,149168.09999999998,,149169.166,8,400,,,
break_continue,html.Screen,4_22_2,2023-09-21T17:00:08.597Z,,0,,,NaN,,,,,,false,,,,149169.5,149169.5,,149169.29999999993,,149169.166,8,400,,,
sequence,flow.Sequence,4_22,2023-09-21T17:00:08.597Z,,0,,,6050.092000000004,completion,,,,,false,,,,149169.69999999995,149169.5,143102.742,143113.69999999995,143119.408,149169.166,8,400,,,
trial,html.Screen,4_23_0,2023-09-21T17:00:11.230Z,,0,1,,2633.3340000000026,response,ISIC_2861793.JPG,5,ISIC_9354604.JPG,ISIC_2861793.JPG,false,1,keypress(m),500,151802.8999999999,151802.5,149152.5,149169.79999999993,149169.166,151819.812,8,400,24,,ISIC_9354604.JPG
break,html.Screen,4_23_1,2023-09-21T17:00:11.232Z,,0,,,NaN,,,,,,false,,,,151804.09999999998,151803.8999999999,,151803.19999999995,,151819.812,8,400,,,
break_continue,html.Screen,4_23_2,2023-09-21T17:00:11.232Z,,0,,,NaN,,,,,,false,,,,151804.59999999998,151804.5,,151804.19999999995,,151819.812,8,400,,,
sequence,flow.Sequence,4_23,2023-09-21T17:00:11.232Z,,0,,,2635.3340000000026,completion,,,,,false,,,,151804.69999999995,151804.5,149152.5,149169.79999999993,149169.166,151819.812,8,400,,,
trial,html.Screen,4_24_0,2023-09-21T17:00:14.020Z,,0,1,,2772.6879999999946,response,ISIC_0068975.JPG,9,ISIC_4811593.JPG,ISIC_4811593.JPG,false,0,keypress(z),500,154592.8999999999,154592.5,151803.146,151804.79999999993,151819.812,154603.034,8,400,25,,ISIC_0068975.JPG
break,html.Screen,4_24_1,2023-09-21T17:00:14.021Z,,0,,,NaN,,,,,,false,,,,154594.19999999995,154593.79999999993,,154593.19999999995,,154603.034,8,400,,,
break_continue,html.Screen,4_24_2,2023-09-21T17:00:14.022Z,,0,,,NaN,,,,,,false,,,,154594.59999999998,154594.3999999999,,154594.29999999993,,154603.034,8,400,,,
sequence,flow.Sequence,4_24,2023-09-21T17:00:14.022Z,,0,,,2774.5879999999015,completion,,,,,false,,,,154594.79999999993,154594.3999999999,151803.146,151804.69999999995,151819.812,154603.034,8,400,,,
trial,html.Screen,4_25_0,2023-09-21T17:00:16.975Z,,0,1,,2944.0659999999625,response,ISIC_0010649.JPG,6,ISIC_0060089.JPG,ISIC_0060089.JPG,false,0,keypress(z),500,157547.3999999999,157547.09999999998,154586.368,154594.8999999999,154603.034,157552.916,8,400,26,,ISIC_0010649.JPG
break,html.Screen,4_25_1,2023-09-21T17:00:16.976Z,,0,,,NaN,,,,,,false,,,,157548.69999999995,157548.5,,157547.79999999993,,157552.916,8,400,,,
break_continue,html.Screen,4_25_2,2023-09-21T17:00:16.976Z,,0,,,NaN,,,,,,false,,,,157549.09999999998,157549.09999999998,,157548.79999999993,,157552.916,8,400,,,
sequence,flow.Sequence,4_25,2023-09-21T17:00:16.976Z,,0,,,2946.0659999999625,completion,,,,,false,,,,157549.3999999999,157549.09999999998,154586.368,154594.79999999993,154603.034,157552.916,8,400,,,
trial,html.Screen,4_26_0,2023-09-21T17:00:22.903Z,,0,1,,5921.183999999979,response,ISIC_0025242.JPG,7,ISIC_0023811.JPG,ISIC_0023811.JPG,false,0,keypress(z),500,163476,163474.09999999998,157536.25,157549.5,157552.916,163486.681,8,400,27,,ISIC_0025242.JPG
break,html.Screen,4_26_1,2023-09-21T17:00:22.904Z,,0,,,NaN,,,,,,false,,,,163477.09999999998,163476.8999999999,,163476.19999999995,,163486.681,8,400,,,
break_continue,html.Screen,4_26_2,2023-09-21T17:00:22.904Z,,0,,,NaN,,,,,,false,,,,163477.3999999999,163477.29999999993,,163477.19999999995,,163486.681,8,400,,,
sequence,flow.Sequence,4_26,2023-09-21T17:00:22.904Z,,0,,,5924.383999999933,completion,,,,,false,,,,163477.59999999998,163477.29999999993,157536.25,157549.3999999999,157552.916,163486.681,8,400,,,
trial,html.Screen,4_27_0,2023-09-21T17:00:25.773Z,,0,1,,2859.518999999942,response,ISIC_9234944.JPG,8,ISIC_0011497.JPG,ISIC_9234944.JPG,false,1,keypress(m),500,166346.59999999998,166346.19999999995,163470.015,163477.69999999995,163486.681,166353.233,8,400,28,,ISIC_0011497.JPG
break,html.Screen,4_27_1,2023-09-21T17:00:25.775Z,,0,,,NaN,,,,,,false,,,,166348,166347.79999999993,,166346.8999999999,,166353.233,8,400,,,
break_continue,html.Screen,4_27_2,2023-09-21T17:00:25.775Z,,0,,,NaN,,,,,,false,,,,166348.3999999999,166348.29999999993,,166348.09999999998,,166353.233,8,400,,,
sequence,flow.Sequence,4_27,2023-09-21T17:00:25.775Z,,0,,,2861.6189999999187,completion,,,,,false,,,,166348.59999999998,166348.29999999993,163470.015,163477.69999999995,163486.681,166353.233,8,400,,,
trial,html.Screen,4_28_0,2023-09-21T17:00:28.403Z,,0,1,,2622.7669999999925,response,ISIC_0065341.JPG,8,ISIC_0054982.JPG,ISIC_0065341.JPG,false,1,keypress(m),500,168976.5,168976,166336.567,166348.69999999995,166353.233,168986.461,8,400,29,,ISIC_0054982.JPG
break,html.Screen,4_28_1,2023-09-21T17:00:28.404Z,,0,,,NaN,,,,,,false,,,,168977.69999999995,168977.3999999999,,168976.69999999995,,168986.461,8,400,,,
break_continue,html.Screen,4_28_2,2023-09-21T17:00:28.405Z,,0,,,NaN,,,,,,false,,,,168978.09999999998,168978,,168977.79999999993,,168986.461,8,400,,,
sequence,flow.Sequence,4_28,2023-09-21T17:00:28.405Z,,0,,,2624.7669999999925,completion,,,,,false,,,,168978.29999999993,168978,166336.567,166348.69999999995,166353.233,168986.461,8,400,,,
trial,html.Screen,4_29_0,2023-09-21T17:00:33.437Z,,0,1,,5023.83899999992,response,ISIC_1686556.JPG,8,ISIC_7131689.JPG,ISIC_1686556.JPG,false,1,keypress(m),500,174010.69999999995,174010.29999999993,168969.795,168978.5,168986.461,174020.455,8,400,30,,ISIC_7131689.JPG
break,html.Screen,4_29_1,2023-09-21T17:00:33.438Z,,0,,,NaN,,,,,,false,,,,174012,174011.69999999995,,174010.8999999999,,174020.455,8,400,,,
break_continue,html.Screen,4_29_2,2023-09-21T17:00:33.439Z,,0,,,NaN,,,,,,false,,,,174012.3999999999,174012.29999999993,,174012.09999999998,,174020.455,8,400,,,
sequence,flow.Sequence,4_29,2023-09-21T17:00:33.439Z,,0,,,5025.83899999992,completion,,,,,false,,,,174012.59999999998,174012.29999999993,168969.795,168978.3999999999,168986.461,174020.455,8,400,,,
trial,html.Screen,4_30_0,2023-09-21T17:00:36.581Z,,0,1,,3133.545000000013,response,ISIC_3084322.JPG,8,ISIC_6899527.JPG,ISIC_6899527.JPG,false,0,keypress(z),500,177154.5,177154,174003.789,174012.69999999995,174020.455,177170.329,8,400,31,,ISIC_3084322.JPG
break,html.Screen,4_30_1,2023-09-21T17:00:36.582Z,,0,,,NaN,,,,,,false,,,,177155.59999999986,177155.3999999999,,177154.69999999995,,177170.329,8,400,,,
break_continue,html.Screen,4_30_2,2023-09-21T17:00:36.582Z,,0,,,NaN,,,,,,false,,,,177156.19999999995,177156,,177155.80000000005,,177170.329,8,400,,,
sequence,flow.Sequence,4_30,2023-09-21T17:00:36.583Z,,0,,,3135.545000000013,completion,,,,,false,,,,177156.30000000005,177156,174003.789,174012.69999999995,174020.455,177170.329,8,400,,,
trial,html.Screen,4_31_0,2023-09-21T17:00:40.190Z,,0,1,,3593.4710000000487,response,ISIC_0033365.JPG,7,ISIC_0011506.JPG,ISIC_0033365.JPG,false,1,keypress(m),500,180764.19999999995,180763.80000000005,177153.663,177156.5,177170.329,180770.185,8,400,32,,ISIC_0011506.JPG
break,html.Screen,4_31_1,2023-09-21T17:00:40.192Z,,0,,,NaN,,,,,,false,,,,180765.5,180765.19999999995,,180764.5,,180770.185,8,400,,,
break_continue,html.Screen,4_31_2,2023-09-21T17:00:40.192Z,,0,,,NaN,,,,,,false,,,,180765.8999999999,180765.69999999995,,180765.59999999986,,180770.185,8,400,,,
sequence,flow.Sequence,4_31,2023-09-21T17:00:40.192Z,,0,,,3595.3709999999555,completion,,,,,false,,,,180766,180765.69999999995,177153.663,177156.3999999999,177170.329,180770.185,8,400,,,
trial,html.Screen,4_32_0,2023-09-21T17:00:44.328Z,,0,1,,4131.615000000049,response,ISIC_3826102.JPG,8,ISIC_1008321.JPG,ISIC_3826102.JPG,false,1,keypress(m),500,184902.30000000005,184901.80000000005,180753.519,180766.19999999995,180770.185,184904.241,8,400,33,,ISIC_1008321.JPG
break,html.Screen,4_32_1,2023-09-21T17:00:44.329Z,,0,,,NaN,,,,,,false,,,,184903.5,184903.30000000005,,184902.5,,184904.241,8,400,,,
break_continue,html.Screen,4_32_2,2023-09-21T17:00:44.330Z,,0,,,NaN,,,,,,false,,,,184903.8999999999,184903.80000000005,,184903.59999999986,,184904.241,8,400,,,
sequence,flow.Sequence,4_32,2023-09-21T17:00:44.330Z,,0,,,4133.615000000049,completion,,,,,false,,,,184904.09999999986,184903.80000000005,180753.519,180766.09999999986,180770.185,184904.241,8,400,,,
trial,html.Screen,4_33_0,2023-09-21T17:00:48.207Z,,0,1,,3876.258999999991,response,ISIC_0070012.JPG,8,ISIC_0031018.JPG,ISIC_0070012.JPG,false,1,keypress(m),500,188781,188780.5,184887.575,184904.30000000005,184904.241,188787.419,8,400,34,,ISIC_0031018.JPG
break,html.Screen,4_33_1,2023-09-21T17:00:48.208Z,,0,,,NaN,,,,,,false,,,,188782.19999999995,188781.8999999999,,188781.19999999995,,188787.419,8,400,,,
break_continue,html.Screen,4_33_2,2023-09-21T17:00:48.208Z,,0,,,NaN,,,,,,false,,,,188782.5,188782.3999999999,,188782.30000000005,,188787.419,8,400,,,
sequence,flow.Sequence,4_33,2023-09-21T17:00:48.208Z,,0,,,3878.158999999898,completion,,,,,false,,,,188782.69999999995,188782.3999999999,184887.575,184904.30000000005,184904.241,188787.419,8,400,,,
trial,html.Screen,4_34_0,2023-09-21T17:00:51.064Z,,0,1,,2850.9809999999125,response,ISIC_4132082.JPG,7,ISIC_1838876.JPG,ISIC_1838876.JPG,false,0,keypress(z),500,191638.8999999999,191638.3999999999,188770.753,188782.80000000005,188787.419,191653.971,8,400,35,,ISIC_4132082.JPG
break,html.Screen,4_34_1,2023-09-21T17:00:51.066Z,,0,,,NaN,,,,,,false,,,,191640.30000000005,191640,,191639.19999999995,,191653.971,8,400,,,
break_continue,html.Screen,4_34_2,2023-09-21T17:00:51.066Z,,0,,,NaN,,,,,,false,,,,191640.69999999995,191640.59999999986,,191640.3999999999,,191653.971,8,400,,,
sequence,flow.Sequence,4_34,2023-09-21T17:00:51.066Z,,0,,,2853.180999999866,completion,,,,,false,,,,191640.8999999999,191640.59999999986,188770.753,188782.69999999995,188787.419,191653.971,8,400,,,
trial,html.Screen,4_35_0,2023-09-21T17:00:53.855Z,,0,1,,2775.5290000000095,response,ISIC_1177505.JPG,8,ISIC_0056572.JPG,ISIC_1177505.JPG,false,1,keypress(m),500,194430,194429.5,191637.305,191641,191653.971,194438.071,8,400,36,,ISIC_0056572.JPG
break,html.Screen,4_35_1,2023-09-21T17:00:53.857Z,,0,,,NaN,,,,,,false,,,,194431.19999999995,194430.8999999999,,194430.30000000005,,194438.071,8,400,,,
break_continue,html.Screen,4_35_2,2023-09-21T17:00:53.857Z,,0,,,NaN,,,,,,false,,,,194431.59999999986,194431.5,,194431.30000000005,,194438.071,8,400,,,
sequence,flow.Sequence,4_35,2023-09-21T17:00:53.857Z,,0,,,2777.5290000000095,completion,,,,,false,,,,194431.80000000005,194431.5,191637.305,191641,191653.971,194438.071,8,400,,,
trial,html.Screen,4_36_0,2023-09-21T17:00:56.440Z,,0,1,,2576.128999999957,response,ISIC_9879347.JPG,8,ISIC_0027171.JPG,ISIC_9879347.JPG,false,1,keypress(m),500,197014.69999999995,197014.19999999995,194421.405,194431.8999999999,194438.071,197021.301,8,400,37,,ISIC_0027171.JPG
break,html.Screen,4_36_1,2023-09-21T17:00:56.441Z,,0,,,NaN,,,,,,false,,,,197015.8999999999,197015.59999999986,,197015,,197021.301,8,400,,,
break_continue,html.Screen,4_36_2,2023-09-21T17:00:56.442Z,,0,,,NaN,,,,,,false,,,,197016.3999999999,197016.30000000005,,197016,,197021.301,8,400,,,
sequence,flow.Sequence,4_36,2023-09-21T17:00:56.442Z,,0,,,2578.2290000000503,completion,,,,,false,,,,197016.59999999986,197016.30000000005,194421.405,194431.8999999999,194438.071,197021.301,8,400,,,
trial,html.Screen,4_37_0,2023-09-21T17:01:02.816Z,,0,1,,6369.0989999999,response,ISIC_0005264.JPG,6,ISIC_0027561.JPG,ISIC_0005264.JPG,false,1,keypress(m),500,203390.80000000005,203390.3999999999,197004.635,197016.80000000005,197021.301,203404.379,8,400,38,,ISIC_0027561.JPG
break,html.Screen,4_37_1,2023-09-21T17:01:02.817Z,,0,,,NaN,,,,,,false,,,,203392,203391.80000000005,,203391.09999999986,,203404.379,8,400,,,
break_continue,html.Screen,4_37_2,2023-09-21T17:01:02.817Z,,0,,,NaN,,,,,,false,,,,203392.5,203392.30000000005,,203392.19999999995,,203404.379,8,400,,,
sequence,flow.Sequence,4_37,2023-09-21T17:01:02.818Z,,0,,,6370.99900000004,completion,,,,,false,,,,203392.69999999995,203392.30000000005,197004.635,197016.69999999995,197021.301,203404.379,8,400,,,
trial,html.Screen,4_38_0,2023-09-21T17:01:05.867Z,,0,1,,3037.320999999967,response,ISIC_0032419.JPG,6,ISIC_0003117.JPG,ISIC_0003117.JPG,false,0,keypress(z),500,206442.09999999986,206441.69999999995,203387.713,203392.80000000005,203404.379,206454.971,8,400,39,,ISIC_0032419.JPG
break,html.Screen,4_38_1,2023-09-21T17:01:05.868Z,,0,,,NaN,,,,,,false,,,,206443.3999999999,206443.09999999986,,206442.5,,206454.971,8,400,,,
break_continue,html.Screen,4_38_2,2023-09-21T17:01:05.869Z,,0,,,NaN,,,,,,false,,,,206443.80000000005,206443.69999999995,,206443.5,,206454.971,8,400,,,
sequence,flow.Sequence,4_38,2023-09-21T17:01:05.869Z,,0,,,3039.320999999967,completion,,,,,false,,,,206444,206443.69999999995,203387.713,203392.69999999995,203404.379,206454.971,8,400,,,
trial,html.Screen,4_39_0,2023-09-21T17:01:08.850Z,,0,1,,2970.228999999963,response,ISIC_7357474.JPG,5,ISIC_5486460.JPG,ISIC_7357474.JPG,false,1,keypress(m),500,209425.69999999995,209425.19999999995,206438.305,206444.19999999995,206454.971,209438.185,8,400,40,,ISIC_5486460.JPG
break,html.Screen,4_39_1,2023-09-21T17:01:08.852Z,,0,,,NaN,,,,,,false,,,,209426.8999999999,209426.59999999986,,209426,,209438.185,8,400,,,
break_continue,html.Screen,4_39_2,2023-09-21T17:01:08.852Z,,0,,,NaN,,,,,,false,,,,209427.30000000005,209427.19999999995,,209426.8999999999,,209438.185,8,400,,,
sequence,flow.Sequence,4_39,2023-09-21T17:01:08.852Z,,0,,,2972.228999999963,completion,,,,,false,,,,209427.5,209427.19999999995,206438.305,206444.09999999986,206454.971,209438.185,8,400,,,
trial,html.Screen,4_40_0,2023-09-21T17:01:13.292Z,,0,1,,4429.214999999909,response,ISIC_7172145.JPG,7,ISIC_0065192.JPG,ISIC_7172145.JPG,false,1,keypress(m),500,213867.8999999999,213867.3999999999,209421.519,209427.59999999986,209438.185,213871.341,8,400,41,,ISIC_0065192.JPG
break,html.Screen,4_40_1,2023-09-21T17:01:13.294Z,,0,,,NaN,,,,,,false,,,,213869.19999999995,213868.8999999999,,213868.19999999995,,213871.341,8,400,,,
break_continue,html.Screen,4_40_2,2023-09-21T17:01:13.294Z,,0,,,NaN,,,,,,false,,,,213869.59999999986,213869.5,,213869.30000000005,,213871.341,8,400,,,
sequence,flow.Sequence,4_40,2023-09-21T17:01:13.294Z,,0,,,4431.315000000002,completion,,,,,false,,,,213869.80000000005,213869.5,209421.519,209427.59999999986,209438.185,213871.341,8,400,,,
trial,html.Screen,4_41_0,2023-09-21T17:01:18.020Z,,0,1,,4723.358999999968,response,ISIC_2721699.JPG,8,ISIC_0070003.JPG,ISIC_2721699.JPG,false,1,keypress(m),500,218595.19999999995,218594.69999999995,213854.675,213869.8999999999,213871.341,218605.276,8,400,42,,ISIC_0070003.JPG
break,html.Screen,4_41_1,2023-09-21T17:01:18.021Z,,0,,,NaN,,,,,,false,,,,218596.5,218596.19999999995,,218595.5,,218605.276,8,400,,,
break_continue,html.Screen,4_41_2,2023-09-21T17:01:18.021Z,,0,,,NaN,,,,,,false,,,,218596.80000000005,218596.69999999995,,218596.5,,218605.276,8,400,,,
sequence,flow.Sequence,4_41,2023-09-21T17:01:18.021Z,,0,,,4725.358999999968,completion,,,,,false,,,,218596.8999999999,218596.69999999995,213854.675,213869.8999999999,213871.341,218605.276,8,400,,,
trial,html.Screen,4_42_0,2023-09-21T17:01:20.874Z,,0,1,,2844.3239999998477,response,ISIC_0029944.JPG,7,ISIC_0014288.JPG,ISIC_0014288.JPG,false,0,keypress(z),500,221450,221449.59999999986,218588.61,218597.09999999986,218605.276,221455.162,8,400,43,,ISIC_0029944.JPG
break,html.Screen,4_42_1,2023-09-21T17:01:20.875Z,,0,,,NaN,,,,,,false,,,,221451.19999999995,221451,,221450.30000000005,,221455.162,8,400,,,
break_continue,html.Screen,4_42_2,2023-09-21T17:01:20.876Z,,0,,,NaN,,,,,,false,,,,221451.59999999986,221451.5,,221451.3999999999,,221455.162,8,400,,,
sequence,flow.Sequence,4_42,2023-09-21T17:01:20.876Z,,0,,,2846.2239999999874,completion,,,,,false,,,,221451.80000000005,221451.5,218588.61,218597.09999999986,218605.276,221455.162,8,400,,,
trial,html.Screen,4_43_0,2023-09-21T17:01:23.971Z,,0,1,,3090.937999999849,response,ISIC_9544832.JPG,8,ISIC_9261199.JPG,ISIC_9261199.JPG,false,0,keypress(z),500,224546.59999999986,224546.09999999986,221438.496,221451.8999999999,221455.162,224555.038,8,400,44,,ISIC_9544832.JPG
break,html.Screen,4_43_1,2023-09-21T17:01:23.972Z,,0,,,NaN,,,,,,false,,,,224547.8999999999,224547.69999999995,,224546.80000000005,,224555.038,8,400,,,
break_continue,html.Screen,4_43_2,2023-09-21T17:01:23.972Z,,0,,,NaN,,,,,,false,,,,224548.30000000005,224548.19999999995,,224548.09999999986,,224555.038,8,400,,,
sequence,flow.Sequence,4_43,2023-09-21T17:01:23.972Z,,0,,,3093.0379999999423,completion,,,,,false,,,,224548.3999999999,224548.19999999995,221438.496,221451.8999999999,221455.162,224555.038,8,400,,,
trial,html.Screen,4_44_0,2023-09-21T17:01:26.681Z,,0,1,,2701.161999999953,response,ISIC_3445468.JPG,8,ISIC_9513918.JPG,ISIC_3445468.JPG,false,1,keypress(m),500,227256.69999999995,227256.19999999995,224538.372,224548.5,224555.038,227272.476,8,400,45,,ISIC_9513918.JPG
break,html.Screen,4_44_1,2023-09-21T17:01:26.682Z,,0,,,NaN,,,,,,false,,,,227257.8999999999,227257.59999999986,,227256.8999999999,,227272.476,8,400,,,
break_continue,html.Screen,4_44_2,2023-09-21T17:01:26.682Z,,0,,,NaN,,,,,,false,,,,227258.3999999999,227258.30000000005,,227258,,227272.476,8,400,,,
sequence,flow.Sequence,4_44,2023-09-21T17:01:26.682Z,,0,,,2703.262000000046,completion,,,,,false,,,,227258.5,227258.30000000005,224538.372,224548.5,224555.038,227272.476,8,400,,,
trial,html.Screen,4_45_0,2023-09-21T17:01:30.003Z,,0,1,,3306.123999999865,response,ISIC_0033967.JPG,7,ISIC_6985859.JPG,ISIC_6985859.JPG,false,0,keypress(z),500,230579.09999999986,230578.59999999986,227255.81,227258.59999999986,227272.476,230589.01,8,400,46,,ISIC_0033967.JPG
break,html.Screen,4_45_1,2023-09-21T17:01:30.004Z,,0,,,NaN,,,,,,false,,,,230580.3999999999,230580.09999999986,,230579.3999999999,,230589.01,8,400,,,
break_continue,html.Screen,4_45_2,2023-09-21T17:01:30.005Z,,0,,,NaN,,,,,,false,,,,230580.80000000005,230580.69999999995,,230580.5,,230589.01,8,400,,,
sequence,flow.Sequence,4_45,2023-09-21T17:01:30.005Z,,0,,,3308.2239999999583,completion,,,,,false,,,,230581,230580.69999999995,227255.81,227258.59999999986,227272.476,230589.01,8,400,,,
trial,html.Screen,4_46_0,2023-09-21T17:01:33.342Z,,0,1,,3328.4899999999907,response,ISIC_0030034.JPG,8,ISIC_2203239.JPG,ISIC_2203239.JPG,false,0,keypress(z),500,233917.8999999999,233917.5,230572.344,230581.09999999986,230589.01,233922.21,8,400,47,,ISIC_0030034.JPG
break,html.Screen,4_46_1,2023-09-21T17:01:33.343Z,,0,,,NaN,,,,,,false,,,,233919.09999999986,233918.8999999999,,233918.19999999995,,233922.21,8,400,,,
break_continue,html.Screen,4_46_2,2023-09-21T17:01:33.343Z,,0,,,NaN,,,,,,false,,,,233919.59999999986,233919.5,,233919.30000000005,,233922.21,8,400,,,
sequence,flow.Sequence,4_46,2023-09-21T17:01:33.343Z,,0,,,3330.4899999999907,completion,,,,,false,,,,233919.69999999995,233919.5,230572.344,230581,230589.01,233922.21,8,400,,,
trial,html.Screen,4_47_0,2023-09-21T17:01:36.084Z,,0,1,,2737.290000000008,response,ISIC_0058151.JPG,8,ISIC_0064279.JPG,ISIC_0058151.JPG,false,1,keypress(m),500,236660,236659.5,233905.544,233919.8999999999,233922.21,236672.9,8,400,48,,ISIC_0064279.JPG
break,html.Screen,4_47_1,2023-09-21T17:01:36.085Z,,0,,,NaN,,,,,,false,,,,236661.30000000005,236661.09999999986,,236660.30000000005,,236672.9,8,400,,,
break_continue,html.Screen,4_47_2,2023-09-21T17:01:36.085Z,,0,,,NaN,,,,,,false,,,,236661.69999999995,236661.59999999986,,236661.3999999999,,236672.9,8,400,,,
sequence,flow.Sequence,4_47,2023-09-21T17:01:36.085Z,,0,,,2739.3899999998685,completion,,,,,false,,,,236661.8999999999,236661.59999999986,233905.544,233919.8999999999,233922.21,236672.9,8,400,,,
trial,html.Screen,4_48_0,2023-09-21T17:01:39.148Z,,0,1,,3050.9000000000524,response,ISIC_7912104.JPG,8,ISIC_5414609.JPG,ISIC_7912104.JPG,false,1,keypress(m),500,239724.30000000005,239723.80000000005,236656.234,236662,236672.9,239739.444,8,400,49,,ISIC_5414609.JPG
break,html.Screen,4_48_1,2023-09-21T17:01:39.149Z,,0,,,NaN,,,,,,false,,,,239725.5,239725.30000000005,,239724.59999999986,,239739.444,8,400,,,
break_continue,html.Screen,4_48_2,2023-09-21T17:01:39.149Z,,0,,,NaN,,,,,,false,,,,239725.8999999999,239725.80000000005,,239725.59999999986,,239739.444,8,400,,,
sequence,flow.Sequence,4_48,2023-09-21T17:01:39.149Z,,0,,,3052.9000000000524,completion,,,,,false,,,,239726,239725.80000000005,236656.234,236662,236672.9,239739.444,8,400,,,
trial,html.Screen,4_49_0,2023-09-21T17:01:42.006Z,,0,1,,2842.9559999999183,response,ISIC_0001110.JPG,8,ISIC_0031337.JPG,ISIC_0031337.JPG,false,0,keypress(z),500,242582.8999999999,242582.3999999999,239722.778,239726.19999999995,239739.444,242589.33,8,400,50,,ISIC_0001110.JPG
break,html.Screen,4_49_1,2023-09-21T17:01:51.999Z,,0,,,10000.357000000018,timeout,,,,,false,,,,252576.69999999995,252573.021,242572.664,242583.19999999995,242589.33,252589.687,8,400,,,
break_continue,html.Screen,4_49_2,2023-09-21T17:01:52.994Z,,0,,,969.5129999999481,response,,,,,false,continue,keypress(Space),,253571.59999999986,253559.19999999995,252573.021,252576.80000000005,252589.687,253572.981,8,400,,,
sequence,flow.Sequence,4_49,2023-09-21T17:01:52.994Z,,0,,,13819.755999999965,completion,,,,,false,,,,253571.69999999995,253559.19999999995,239722.778,239726.19999999995,239739.444,253572.981,8,400,,,
trial,html.Screen,4_50_0,2023-09-21T17:01:57.145Z,,0,2,,4148.918999999907,response,ISIC_0059368.JPG,9,ISIC_0067873.JPG,ISIC_0067873.JPG,false,0,keypress(z),500,257722.5,257721.8999999999,253556.315,253571.80000000005,253572.981,257723.485,8,400,1,,ISIC_0059368.JPG
break,html.Screen,4_50_1,2023-09-21T17:01:57.146Z,,0,,,NaN,,,,,,false,,,,257723.80000000005,257723.5,,257722.69999999995,,257723.485,8,400,,,
break_continue,html.Screen,4_50_2,2023-09-21T17:01:57.147Z,,0,,,NaN,,,,,,false,,,,257724.19999999995,257724.09999999986,,257723.8999999999,,257723.485,8,400,,,
sequence,flow.Sequence,4_50,2023-09-21T17:01:57.147Z,,0,,,4151.1189999998605,completion,,,,,false,,,,257724.3999999999,257724.09999999986,253556.315,253571.80000000005,253572.981,257723.485,8,400,,,
trial,html.Screen,4_51_0,2023-09-21T17:01:59.840Z,,0,2,,2694.1149999998743,response,ISIC_4460849.JPG,6,ISIC_3564136.JPG,ISIC_4460849.JPG,false,1,keypress(m),500,260418.09999999986,260417.59999999986,257706.819,257724.59999999986,257723.485,260423.377,8,400,2,,ISIC_3564136.JPG
break,html.Screen,4_51_1,2023-09-21T17:01:59.842Z,,0,,,NaN,,,,,,false,,,,260419.30000000005,260419.09999999986,,260418.30000000005,,260423.377,8,400,,,
break_continue,html.Screen,4_51_2,2023-09-21T17:01:59.842Z,,0,,,NaN,,,,,,false,,,,260419.80000000005,260419.59999999986,,260419.3999999999,,260423.377,8,400,,,
sequence,flow.Sequence,4_51,2023-09-21T17:01:59.842Z,,0,,,2696.1149999998743,completion,,,,,false,,,,260419.8999999999,260419.59999999986,257706.819,257724.5,257723.485,260423.377,8,400,,,
trial,html.Screen,4_52_0,2023-09-21T17:02:03.511Z,,0,2,,3665.1229999999923,response,ISIC_0013917.JPG,8,ISIC_4601527.JPG,ISIC_4601527.JPG,false,0,keypress(z),500,264089.09999999986,264088.5,260406.711,260420.09999999986,260423.377,264106.563,8,400,3,,ISIC_0013917.JPG
break,html.Screen,4_52_1,2023-09-21T17:02:03.513Z,,0,,,NaN,,,,,,false,,,,264090.5,264090.09999999986,,264089.5,,264106.563,8,400,,,
break_continue,html.Screen,4_52_2,2023-09-21T17:02:03.513Z,,0,,,NaN,,,,,,false,,,,264090.8999999999,264090.80000000005,,264090.59999999986,,264106.563,8,400,,,
sequence,flow.Sequence,4_52,2023-09-21T17:02:03.513Z,,0,,,3667.423000000039,completion,,,,,false,,,,264091.09999999986,264090.80000000005,260406.711,260420,260423.377,264106.563,8,400,,,
trial,html.Screen,4_53_0,2023-09-21T17:02:06.448Z,,0,2,,2918.9369999999763,response,ISIC_0032517.JPG,8,ISIC_7858034.JPG,ISIC_7858034.JPG,false,0,keypress(z),500,267026,267025.5,264089.897,264091.30000000005,264106.563,267039.779,8,400,4,,ISIC_0032517.JPG
break,html.Screen,4_53_1,2023-09-21T17:02:06.449Z,,0,,,NaN,,,,,,false,,,,267027.19999999995,267027,,267026.30000000005,,267039.779,8,400,,,
break_continue,html.Screen,4_53_2,2023-09-21T17:02:06.450Z,,0,,,NaN,,,,,,false,,,,267027.69999999995,267027.5,,267027.30000000005,,267039.779,8,400,,,
sequence,flow.Sequence,4_53,2023-09-21T17:02:06.450Z,,0,,,2920.9369999999763,completion,,,,,false,,,,267027.80000000005,267027.5,264089.897,264091.19999999995,264106.563,267039.779,8,400,,,
trial,html.Screen,4_54_0,2023-09-21T17:02:09.399Z,,0,2,,2937.1209999999264,response,ISIC_0057753.JPG,7,ISIC_0067564.JPG,ISIC_0067564.JPG,false,0,keypress(z),500,269977.30000000005,269976.8999999999,267023.113,267028,267039.779,269990.561,8,400,5,,ISIC_0057753.JPG
break,html.Screen,4_54_1,2023-09-21T17:02:09.400Z,,0,,,NaN,,,,,,false,,,,269978.5,269978.30000000005,,269977.59999999986,,269990.561,8,400,,,
break_continue,html.Screen,4_54_2,2023-09-21T17:02:09.401Z,,0,,,NaN,,,,,,false,,,,269978.8999999999,269978.8999999999,,269978.69999999995,,269990.561,8,400,,,
sequence,flow.Sequence,4_54,2023-09-21T17:02:09.401Z,,0,,,2939.1209999999264,completion,,,,,false,,,,269979.19999999995,269978.8999999999,267023.113,267028,267039.779,269990.561,8,400,,,
trial,html.Screen,4_55_0,2023-09-21T17:02:13.297Z,,0,2,,3884.2390000000596,response,ISIC_9303849.JPG,6,ISIC_8087949.JPG,ISIC_9303849.JPG,false,1,keypress(m),500,273875.30000000005,273874.80000000005,269973.895,269979.30000000005,269990.561,273890.405,8,400,6,,ISIC_8087949.JPG
break,html.Screen,4_55_1,2023-09-21T17:02:13.298Z,,0,,,NaN,,,,,,false,,,,273876.5,273876.19999999995,,273875.59999999986,,273890.405,8,400,,,
break_continue,html.Screen,4_55_2,2023-09-21T17:02:13.299Z,,0,,,NaN,,,,,,false,,,,273876.8999999999,273876.80000000005,,273876.69999999995,,273890.405,8,400,,,
sequence,flow.Sequence,4_55,2023-09-21T17:02:13.299Z,,0,,,3886.2390000000596,completion,,,,,false,,,,273877.09999999986,273876.80000000005,269973.895,269979.30000000005,269990.561,273890.405,8,400,,,
trial,html.Screen,4_56_0,2023-09-21T17:02:16.009Z,,0,2,,2695.994999999879,response,ISIC_0033977.JPG,7,ISIC_0016103.JPG,ISIC_0016103.JPG,false,0,keypress(z),500,276586.8999999999,276586.3999999999,273873.739,273877.30000000005,273890.405,276590.297,8,400,7,,ISIC_0033977.JPG
break,html.Screen,4_56_1,2023-09-21T17:02:16.010Z,,0,,,NaN,,,,,,false,,,,276588.09999999986,276587.8999999999,,276587.19999999995,,276590.297,8,400,,,
break_continue,html.Screen,4_56_2,2023-09-21T17:02:16.010Z,,0,,,NaN,,,,,,false,,,,276588.5,276588.3999999999,,276588.19999999995,,276590.297,8,400,,,
sequence,flow.Sequence,4_56,2023-09-21T17:02:16.010Z,,0,,,2697.994999999879,completion,,,,,false,,,,276588.69999999995,276588.3999999999,273873.739,273877.19999999995,273890.405,276590.297,8,400,,,
trial,html.Screen,4_57_0,2023-09-21T17:02:19.619Z,,0,2,,3606.6029999998864,response,ISIC_1226440.JPG,9,ISIC_0065039.JPG,ISIC_1226440.JPG,false,1,keypress(m),500,280197.30000000005,280196.8999999999,276573.631,276588.80000000005,276590.297,280207.54,8,400,8,,ISIC_0065039.JPG
break,html.Screen,4_57_1,2023-09-21T17:02:19.620Z,,0,,,NaN,,,,,,false,,,,280198.5,280198.19999999995,,280197.59999999986,,280207.54,8,400,,,
break_continue,html.Screen,4_57_2,2023-09-21T17:02:19.620Z,,0,,,NaN,,,,,,false,,,,280198.8999999999,280198.80000000005,,280198.59999999986,,280207.54,8,400,,,
sequence,flow.Sequence,4_57,2023-09-21T17:02:19.621Z,,0,,,3608.503000000026,completion,,,,,false,,,,280199.09999999986,280198.80000000005,276573.631,276588.80000000005,276590.297,280207.54,8,400,,,
trial,html.Screen,4_58_0,2023-09-21T17:02:22.266Z,,0,2,,2636.2600000000675,response,ISIC_0305800.JPG,8,ISIC_1632313.JPG,ISIC_0305800.JPG,false,1,keypress(m),500,282844.30000000005,282843.80000000005,280190.874,280199.09999999986,280207.54,282857.434,8,400,9,,ISIC_1632313.JPG
break,html.Screen,4_58_1,2023-09-21T17:02:22.267Z,,0,,,NaN,,,,,,false,,,,282845.5,282845.19999999995,,282844.5,,282857.434,8,400,,,
break_continue,html.Screen,4_58_2,2023-09-21T17:02:22.267Z,,0,,,NaN,,,,,,false,,,,282845.8999999999,282845.8999999999,,282845.59999999986,,282857.434,8,400,,,
sequence,flow.Sequence,4_58,2023-09-21T17:02:22.267Z,,0,,,2638.359999999928,completion,,,,,false,,,,282846.09999999986,282845.8999999999,280190.874,280199.09999999986,280207.54,282857.434,8,400,,,
trial,html.Screen,4_59_0,2023-09-21T17:02:24.995Z,,0,2,,2715.9659999998985,response,ISIC_0029934.JPG,9,ISIC_0567814.JPG,ISIC_0567814.JPG,false,0,keypress(z),500,285573.8999999999,285573.3999999999,282840.768,282846.19999999995,282857.434,285590.658,8,400,10,,ISIC_0029934.JPG
break,html.Screen,4_59_1,2023-09-21T17:02:24.996Z,,0,,,NaN,,,,,,false,,,,285575.09999999986,285574.80000000005,,285574.09999999986,,285590.658,8,400,,,
break_continue,html.Screen,4_59_2,2023-09-21T17:02:24.997Z,,0,,,NaN,,,,,,false,,,,285575.5,285575.3999999999,,285575.19999999995,,285590.658,8,400,,,
sequence,flow.Sequence,4_59,2023-09-21T17:02:24.997Z,,0,,,2717.9659999998985,completion,,,,,false,,,,285575.69999999995,285575.3999999999,282840.768,282846.19999999995,282857.434,285590.658,8,400,,,
trial,html.Screen,4_60_0,2023-09-21T17:02:28.681Z,,0,2,,3668.5419999999576,response,ISIC_0439726.JPG,8,ISIC_1745182.JPG,ISIC_1745182.JPG,false,0,keypress(z),500,289259.69999999995,289259.19999999995,285573.992,285575.80000000005,285590.658,289274.635,8,400,11,,ISIC_0439726.JPG
break,html.Screen,4_60_1,2023-09-21T17:02:28.682Z,,0,,,NaN,,,,,,false,,,,289260.8999999999,289260.69999999995,,289259.8999999999,,289274.635,8,400,,,
break_continue,html.Screen,4_60_2,2023-09-21T17:02:28.682Z,,0,,,NaN,,,,,,false,,,,289261.30000000005,289261.19999999995,,289261,,289274.635,8,400,,,
sequence,flow.Sequence,4_60,2023-09-21T17:02:28.683Z,,0,,,3670.5419999999576,completion,,,,,false,,,,289261.5,289261.19999999995,285573.992,285575.80000000005,285590.658,289274.635,8,400,,,
trial,html.Screen,4_61_0,2023-09-21T17:02:31.666Z,,0,2,,2970.2649999998976,response,ISIC_9719936.JPG,5,ISIC_0031221.JPG,ISIC_9719936.JPG,false,1,keypress(m),500,292245.30000000005,292244.8999999999,289257.969,289261.69999999995,289274.635,292257.849,8,400,12,,ISIC_0031221.JPG
break,html.Screen,4_61_1,2023-09-21T17:02:31.667Z,,0,,,NaN,,,,,,false,,,,292246.5,292246.19999999995,,292245.69999999995,,292257.849,8,400,,,
break_continue,html.Screen,4_61_2,2023-09-21T17:02:31.668Z,,0,,,NaN,,,,,,false,,,,292246.8999999999,292246.80000000005,,292246.59999999986,,292257.849,8,400,,,
sequence,flow.Sequence,4_61,2023-09-21T17:02:31.668Z,,0,,,2972.1650000000373,completion,,,,,false,,,,292247.09999999986,292246.80000000005,289257.969,289261.59999999986,289274.635,292257.849,8,400,,,
trial,html.Screen,4_62_0,2023-09-21T17:02:34.345Z,,0,2,,2665.750999999873,response,ISIC_0028127.JPG,5,ISIC_1202976.JPG,ISIC_1202976.JPG,false,0,keypress(z),500,294924.09999999986,294923.59999999986,292241.183,292247.19999999995,292257.849,294941.075,8,400,13,,ISIC_0028127.JPG
break,html.Screen,4_62_1,2023-09-21T17:02:34.346Z,,0,,,NaN,,,,,,false,,,,294925.19999999995,294925.09999999986,,294924.30000000005,,294941.075,8,400,,,
break_continue,html.Screen,4_62_2,2023-09-21T17:02:34.346Z,,0,,,NaN,,,,,,false,,,,294925.59999999986,294925.59999999986,,294925.3999999999,,294941.075,8,400,,,
sequence,flow.Sequence,4_62,2023-09-21T17:02:34.347Z,,0,,,2667.750999999873,completion,,,,,false,,,,294925.8999999999,294925.59999999986,292241.183,292247.19999999995,292257.849,294941.075,8,400,,,
trial,html.Screen,4_63_0,2023-09-21T17:02:37.279Z,,0,2,,2917.124999999942,response,ISIC_6356522.JPG,8,ISIC_0068223.JPG,ISIC_6356522.JPG,false,1,keypress(m),500,297858.59999999986,297858.19999999995,294924.409,294926,294941.075,297874.291,8,400,14,,ISIC_0068223.JPG
break,html.Screen,4_63_1,2023-09-21T17:02:37.281Z,,0,,,NaN,,,,,,false,,,,297859.8999999999,297859.69999999995,,297859,,297874.291,8,400,,,
break_continue,html.Screen,4_63_2,2023-09-21T17:02:37.281Z,,0,,,NaN,,,,,,false,,,,297860.3999999999,297860.19999999995,,297860,,297874.291,8,400,,,
sequence,flow.Sequence,4_63,2023-09-21T17:02:37.281Z,,0,,,2919.124999999942,completion,,,,,false,,,,297860.5,297860.19999999995,294924.409,294926,294941.075,297874.291,8,400,,,
trial,html.Screen,4_64_0,2023-09-21T17:02:40.198Z,,0,2,,2902.8089999998338,response,ISIC_1390308.JPG,8,ISIC_8252406.JPG,ISIC_1390308.JPG,false,1,keypress(m),500,300777.5,300777.09999999986,297857.625,297860.69999999995,297874.291,300791.694,8,400,15,,ISIC_8252406.JPG
break,html.Screen,4_64_1,2023-09-21T17:02:40.199Z,,0,,,NaN,,,,,,false,,,,300778.80000000005,300778.59999999986,,300777.69999999995,,300791.694,8,400,,,
break_continue,html.Screen,4_64_2,2023-09-21T17:02:40.200Z,,0,,,NaN,,,,,,false,,,,300779.30000000005,300779.09999999986,,300779,,300791.694,8,400,,,
sequence,flow.Sequence,4_64,2023-09-21T17:02:40.200Z,,0,,,2904.8089999998338,completion,,,,,false,,,,300779.5,300779.09999999986,297857.625,297860.69999999995,297874.291,300791.694,8,400,,,
trial,html.Screen,4_65_0,2023-09-21T17:02:45.677Z,,0,2,,5465.106000000029,response,ISIC_6385296.JPG,7,ISIC_8128335.JPG,ISIC_6385296.JPG,false,1,keypress(m),500,306257.30000000005,306256.80000000005,300775.028,300779.69999999995,300791.694,306258.142,8,400,16,,ISIC_8128335.JPG
break,html.Screen,4_65_1,2023-09-21T17:02:45.679Z,,0,,,NaN,,,,,,false,,,,306258.3999999999,306258.19999999995,,306257.5,,306258.142,8,400,,,
break_continue,html.Screen,4_65_2,2023-09-21T17:02:45.679Z,,0,,,NaN,,,,,,false,,,,306258.8999999999,306258.69999999995,,306258.59999999986,,306258.142,8,400,,,
sequence,flow.Sequence,4_65,2023-09-21T17:02:45.679Z,,0,,,5467.005999999936,completion,,,,,false,,,,306259,306258.69999999995,300775.028,300779.59999999986,300791.694,306258.142,8,400,,,
trial,html.Screen,4_66_0,2023-09-21T17:02:48.377Z,,0,2,,2698.3580000000075,response,ISIC_0012059.JPG,6,ISIC_7915065.JPG,ISIC_7915065.JPG,false,0,keypress(z),500,308957,308956.5,306241.476,306259.19999999995,306258.142,308958.034,8,400,17,,ISIC_0012059.JPG
break,html.Screen,4_66_1,2023-09-21T17:02:48.378Z,,0,,,NaN,,,,,,false,,,,308958.19999999995,308957.8999999999,,308957.30000000005,,308958.034,8,400,,,
break_continue,html.Screen,4_66_2,2023-09-21T17:02:48.379Z,,0,,,NaN,,,,,,false,,,,308958.69999999995,308958.5,,308958.3999999999,,308958.034,8,400,,,
sequence,flow.Sequence,4_66,2023-09-21T17:02:48.379Z,,0,,,2700.3580000000075,completion,,,,,false,,,,308958.8999999999,308958.5,306241.476,306259.09999999986,306258.142,308958.034,8,400,,,
trial,html.Screen,4_67_0,2023-09-21T17:02:52.181Z,,0,2,,3802.2660000000615,response,ISIC_6284012.JPG,7,ISIC_4921413.JPG,ISIC_4921413.JPG,false,0,keypress(z),500,312760.8999999999,312760.30000000005,308941.368,308959,308958.034,312775.305,8,400,18,,ISIC_6284012.JPG
break,html.Screen,4_67_1,2023-09-21T17:02:52.182Z,,0,,,NaN,,,,,,false,,,,312762.09999999986,312761.80000000005,,312761.19999999995,,312775.305,8,400,,,
break_continue,html.Screen,4_67_2,2023-09-21T17:02:52.182Z,,0,,,NaN,,,,,,false,,,,312762.3999999999,312762.3999999999,,312762.19999999995,,312775.305,8,400,,,
sequence,flow.Sequence,4_67,2023-09-21T17:02:52.183Z,,0,,,3804.3659999999218,completion,,,,,false,,,,312762.69999999995,312762.3999999999,308941.368,308959,308958.034,312775.305,8,400,,,
trial,html.Screen,4_68_0,2023-09-21T17:02:55.019Z,,0,2,,2822.8949999999604,response,ISIC_4348579.JPG,6,ISIC_0025418.JPG,ISIC_4348579.JPG,false,1,keypress(m),500,315598.69999999995,315598.19999999995,312758.639,312762.80000000005,312775.305,315608.525,8,400,19,,ISIC_0025418.JPG
break,html.Screen,4_68_1,2023-09-21T17:02:55.020Z,,0,,,NaN,,,,,,false,,,,315600.19999999995,315599.80000000005,,315599,,315608.525,8,400,,,
break_continue,html.Screen,4_68_2,2023-09-21T17:02:55.021Z,,0,,,NaN,,,,,,false,,,,315600.69999999995,315600.5,,315600.30000000005,,315608.525,8,400,,,
sequence,flow.Sequence,4_68,2023-09-21T17:02:55.021Z,,0,,,2825.195000000007,completion,,,,,false,,,,315600.8999999999,315600.5,312758.639,312762.80000000005,312775.305,315608.525,8,400,,,
trial,html.Screen,4_69_0,2023-09-21T17:02:57.923Z,,0,2,,2894.67499999993,response,ISIC_0011422.JPG,5,ISIC_3691320.JPG,ISIC_3691320.JPG,false,0,keypress(z),500,318503.69999999995,318503.19999999995,315591.859,315601.09999999986,315608.525,318508.409,8,400,20,,ISIC_0011422.JPG
break,html.Screen,4_69_1,2023-09-21T17:02:57.925Z,,0,,,NaN,,,,,,false,,,,318505,318504.80000000005,,318504,,318508.409,8,400,,,
break_continue,html.Screen,4_69_2,2023-09-21T17:02:57.925Z,,0,,,NaN,,,,,,false,,,,318505.3999999999,318505.30000000005,,318505.09999999986,,318508.409,8,400,,,
sequence,flow.Sequence,4_69,2023-09-21T17:02:57.925Z,,0,,,2896.7750000000233,completion,,,,,false,,,,318505.59999999986,318505.30000000005,315591.859,315601,315608.525,318508.409,8,400,,,
trial,html.Screen,4_70_0,2023-09-21T17:03:00.987Z,,0,2,,3058.2909999999683,response,ISIC_0024317.JPG,8,ISIC_3430953.JPG,ISIC_3430953.JPG,false,0,keypress(z),500,321567.09999999986,321566.69999999995,318491.743,318506.8999999999,318508.409,321575.785,8,400,21,,ISIC_0024317.JPG
break,html.Screen,4_70_1,2023-09-21T17:03:00.988Z,,0,,,NaN,,,,,,false,,,,321568.3999999999,321568.09999999986,,321567.3999999999,,321575.785,8,400,,,
break_continue,html.Screen,4_70_2,2023-09-21T17:03:00.988Z,,0,,,NaN,,,,,,false,,,,321568.8999999999,321568.69999999995,,321568.5,,321575.785,8,400,,,
sequence,flow.Sequence,4_70,2023-09-21T17:03:00.989Z,,0,,,3060.2909999999683,completion,,,,,false,,,,321569,321568.69999999995,318491.743,318506.80000000005,318508.409,321575.785,8,400,,,
trial,html.Screen,4_71_0,2023-09-21T17:03:04.863Z,,0,2,,3867.7150000000256,response,ISIC_0034150.JPG,7,ISIC_9126992.JPG,ISIC_9126992.JPG,false,0,keypress(z),500,325443.8999999999,325443.5,321559.119,321569.19999999995,321575.785,325458.963,8,400,22,,ISIC_0034150.JPG
break,html.Screen,4_71_1,2023-09-21T17:03:04.865Z,,0,,,NaN,,,,,,false,,,,325445.09999999986,325444.8999999999,,325444.19999999995,,325458.963,8,400,,,
break_continue,html.Screen,4_71_2,2023-09-21T17:03:04.865Z,,0,,,NaN,,,,,,false,,,,325445.59999999986,325445.3999999999,,325445.30000000005,,325458.963,8,400,,,
sequence,flow.Sequence,4_71,2023-09-21T17:03:04.865Z,,0,,,3869.6149999999325,completion,,,,,false,,,,325445.69999999995,325445.3999999999,321559.119,321569.19999999995,321575.785,325458.963,8,400,,,
trial,html.Screen,4_72_0,2023-09-21T17:03:07.497Z,,0,2,,2618.1369999998715,response,ISIC_0069667.JPG,6,ISIC_2337650.JPG,ISIC_2337650.JPG,false,0,keypress(z),500,328077.59999999986,328077.09999999986,325442.297,325445.8999999999,325458.963,328092.191,8,400,23,,ISIC_0069667.JPG
break,html.Screen,4_72_1,2023-09-21T17:03:07.498Z,,0,,,NaN,,,,,,false,,,,328078.8999999999,328078.5,,328077.8999999999,,328092.191,8,400,,,
break_continue,html.Screen,4_72_2,2023-09-21T17:03:07.499Z,,0,,,NaN,,,,,,false,,,,328079.30000000005,328079.19999999995,,328079.09999999986,,328092.191,8,400,,,
sequence,flow.Sequence,4_72,2023-09-21T17:03:07.499Z,,0,,,2620.2369999999646,completion,,,,,false,,,,328079.3999999999,328079.19999999995,325442.297,325445.8999999999,325458.963,328092.191,8,400,,,
trial,html.Screen,4_73_0,2023-09-21T17:03:10.463Z,,0,2,,2950.9089999998687,response,ISIC_7030404.JPG,8,ISIC_0069645.JPG,ISIC_7030404.JPG,false,1,keypress(m),500,331043.59999999986,331043.09999999986,328075.525,328079.5,328092.191,331059.461,8,400,24,,ISIC_0069645.JPG
break,html.Screen,4_73_1,2023-09-21T17:03:10.464Z,,0,,,NaN,,,,,,false,,,,331044.8999999999,331044.59999999986,,331043.8999999999,,331059.461,8,400,,,
break_continue,html.Screen,4_73_2,2023-09-21T17:03:10.464Z,,0,,,NaN,,,,,,false,,,,331045.19999999995,331045.09999999986,,331044.8999999999,,331059.461,8,400,,,
sequence,flow.Sequence,4_73,2023-09-21T17:03:10.464Z,,0,,,2952.9089999998687,completion,,,,,false,,,,331045.3999999999,331045.09999999986,328075.525,328079.5,328092.191,331059.461,8,400,,,
trial,html.Screen,4_74_0,2023-09-21T17:03:16.067Z,,0,2,,5588.238999999943,response,ISIC_4770073.JPG,8,ISIC_0014548.JPG,ISIC_4770073.JPG,false,1,keypress(m),500,336648.19999999995,336647.69999999995,331042.795,331045.5,331059.461,336659.237,8,400,25,,ISIC_0014548.JPG
break,html.Screen,4_74_1,2023-09-21T17:03:16.068Z,,0,,,NaN,,,,,,false,,,,336649.5,336649.19999999995,,336648.5,,336659.237,8,400,,,
break_continue,html.Screen,4_74_2,2023-09-21T17:03:16.069Z,,0,,,NaN,,,,,,false,,,,336649.8999999999,336649.69999999995,,336649.59999999986,,336659.237,8,400,,,
sequence,flow.Sequence,4_74,2023-09-21T17:03:16.069Z,,0,,,5590.238999999943,completion,,,,,false,,,,336650,336649.69999999995,331042.795,331045.5,331059.461,336659.237,8,400,,,
trial,html.Screen,4_75_0,2023-09-21T17:03:18.923Z,,0,2,,2844.162999999884,response,ISIC_0032637.JPG,8,ISIC_9196783.JPG,ISIC_9196783.JPG,false,0,keypress(z),500,339503.80000000005,339503.3999999999,336642.571,336650.19999999995,336659.237,339509.123,8,400,26,,ISIC_0032637.JPG
break,html.Screen,4_75_1,2023-09-21T17:03:18.924Z,,0,,,NaN,,,,,,false,,,,339505,339504.80000000005,,339504.09999999986,,339509.123,8,400,,,
break_continue,html.Screen,4_75_2,2023-09-21T17:03:18.924Z,,0,,,NaN,,,,,,false,,,,339505.30000000005,339505.19999999995,,339505.09999999986,,339509.123,8,400,,,
sequence,flow.Sequence,4_75,2023-09-21T17:03:18.924Z,,0,,,2845.9629999999306,completion,,,,,false,,,,339505.5,339505.19999999995,336642.571,336650.09999999986,336659.237,339509.123,8,400,,,
trial,html.Screen,4_76_0,2023-09-21T17:03:21.875Z,,0,2,,2946.7769999998854,response,ISIC_9130157.JPG,6,ISIC_6052702.JPG,ISIC_6052702.JPG,false,0,keypress(z),500,342456.30000000005,342455.8999999999,339492.457,339505.69999999995,339509.123,342459.789,8,400,27,,ISIC_9130157.JPG
break,html.Screen,4_76_1,2023-09-21T17:03:21.876Z,,0,,,NaN,,,,,,false,,,,342457.3999999999,342457.19999999995,,342456.5,,342459.789,8,400,,,
break_continue,html.Screen,4_76_2,2023-09-21T17:03:21.876Z,,0,,,NaN,,,,,,false,,,,342457.8999999999,342457.80000000005,,342457.59999999986,,342459.789,8,400,,,
sequence,flow.Sequence,4_76,2023-09-21T17:03:21.877Z,,0,,,2948.677000000025,completion,,,,,false,,,,342458,342457.80000000005,339492.457,339505.59999999986,339509.123,342459.789,8,400,,,
trial,html.Screen,4_77_0,2023-09-21T17:03:24.942Z,,0,2,,3063.610999999917,response,ISIC_0011210.JPG,8,ISIC_1426331.JPG,ISIC_1426331.JPG,false,0,keypress(z),500,345523.8999999999,345523.3999999999,342443.123,342458.19999999995,342459.789,345526.333,8,400,28,,ISIC_0011210.JPG
break,html.Screen,4_77_1,2023-09-21T17:03:24.944Z,,0,,,NaN,,,,,,false,,,,345525,345524.80000000005,,345524.19999999995,,345526.333,8,400,,,
break_continue,html.Screen,4_77_2,2023-09-21T17:03:24.944Z,,0,,,NaN,,,,,,false,,,,345525.69999999995,345525.59999999986,,345525.09999999986,,345526.333,8,400,,,
sequence,flow.Sequence,4_77,2023-09-21T17:03:24.944Z,,0,,,3065.8109999998705,completion,,,,,false,,,,345525.80000000005,345525.59999999986,342443.123,342458.09999999986,342459.789,345526.333,8,400,,,
trial,html.Screen,4_78_0,2023-09-21T17:03:28.022Z,,0,2,,3076.8669999999693,response,ISIC_2805573.JPG,8,ISIC_1569775.JPG,ISIC_1569775.JPG,false,0,keypress(z),500,348603.69999999995,348603.19999999995,345509.667,345526,345526.333,348609.543,8,400,29,,ISIC_2805573.JPG
break,html.Screen,4_78_1,2023-09-21T17:03:28.023Z,,0,,,NaN,,,,,,false,,,,348605,348604.80000000005,,348604,,348609.543,8,400,,,
break_continue,html.Screen,4_78_2,2023-09-21T17:03:28.024Z,,0,,,NaN,,,,,,false,,,,348605.3999999999,348605.30000000005,,348605.09999999986,,348609.543,8,400,,,
sequence,flow.Sequence,4_78,2023-09-21T17:03:28.024Z,,0,,,3078.9670000000624,completion,,,,,false,,,,348605.59999999986,348605.30000000005,345509.667,345525.8999999999,345526.333,348609.543,8,400,,,
trial,html.Screen,4_79_0,2023-09-21T17:03:30.704Z,,0,2,,2675.3569999999017,response,ISIC_0070593.JPG,8,ISIC_0056938.JPG,ISIC_0056938.JPG,false,0,keypress(z),500,351285.3999999999,351284.8999999999,348592.877,348605.69999999995,348609.543,351293.618,8,400,30,,ISIC_0070593.JPG
break,html.Screen,4_79_1,2023-09-21T17:03:30.705Z,,0,,,NaN,,,,,,false,,,,351286.59999999986,351286.30000000005,,351285.59999999986,,351293.618,8,400,,,
break_continue,html.Screen,4_79_2,2023-09-21T17:03:30.705Z,,0,,,NaN,,,,,,false,,,,351286.8999999999,351286.8999999999,,351286.69999999995,,351293.618,8,400,,,
sequence,flow.Sequence,4_79,2023-09-21T17:03:30.705Z,,0,,,2677.3569999999017,completion,,,,,false,,,,351287.19999999995,351286.8999999999,348592.877,348605.69999999995,348609.543,351293.618,8,400,,,
trial,html.Screen,4_80_0,2023-09-21T17:03:33.735Z,,0,2,,3022.78199999989,response,ISIC_0062161.JPG,8,ISIC_0066289.JPG,ISIC_0066289.JPG,false,0,keypress(z),500,354316.80000000005,354316.3999999999,351276.952,351287.19999999995,351293.618,354326.83,8,400,31,,ISIC_0062161.JPG
break,html.Screen,4_80_1,2023-09-21T17:03:33.736Z,,0,,,NaN,,,,,,false,,,,354318.09999999986,354317.80000000005,,354317.09999999986,,354326.83,8,400,,,
break_continue,html.Screen,4_80_2,2023-09-21T17:03:33.737Z,,0,,,NaN,,,,,,false,,,,354318.5,354318.3999999999,,354318.19999999995,,354326.83,8,400,,,
sequence,flow.Sequence,4_80,2023-09-21T17:03:33.737Z,,0,,,3024.78199999989,completion,,,,,false,,,,354318.59999999986,354318.3999999999,351276.952,351287.19999999995,351293.618,354326.83,8,400,,,
trial,html.Screen,4_81_0,2023-09-21T17:03:36.463Z,,0,2,,2718.369999999937,response,ISIC_6511689.JPG,8,ISIC_0028751.JPG,ISIC_6511689.JPG,false,1,keypress(m),500,357045.59999999986,357045.19999999995,354310.164,354318.80000000005,354326.83,357060.054,8,400,32,,ISIC_0028751.JPG
break,html.Screen,4_81_1,2023-09-21T17:03:36.465Z,,0,,,NaN,,,,,,false,,,,357047,357046.69999999995,,357045.80000000005,,357060.054,8,400,,,
break_continue,html.Screen,4_81_2,2023-09-21T17:03:36.465Z,,0,,,NaN,,,,,,false,,,,357047.3999999999,357047.19999999995,,357047.09999999986,,357060.054,8,400,,,
sequence,flow.Sequence,4_81,2023-09-21T17:03:36.465Z,,0,,,2720.369999999937,completion,,,,,false,,,,357047.59999999986,357047.19999999995,354310.164,354318.69999999995,354326.83,357060.054,8,400,,,
trial,html.Screen,4_82_0,2023-09-21T17:03:41.686Z,,0,2,,5208.246000000043,response,ISIC_0030470.JPG,6,ISIC_0034074.JPG,ISIC_0030470.JPG,false,1,keypress(m),500,362268.80000000005,362268.30000000005,357043.388,357047.69999999995,357060.054,362277.099,8,400,33,,ISIC_0034074.JPG
break,html.Screen,4_82_1,2023-09-21T17:03:41.688Z,,0,,,NaN,,,,,,false,,,,362270.09999999986,362269.80000000005,,362269.09999999986,,362277.099,8,400,,,
break_continue,html.Screen,4_82_2,2023-09-21T17:03:41.688Z,,0,,,NaN,,,,,,false,,,,362270.5,362270.30000000005,,362270.19999999995,,362277.099,8,400,,,
sequence,flow.Sequence,4_82,2023-09-21T17:03:41.688Z,,0,,,5210.246000000043,completion,,,,,false,,,,362270.59999999986,362270.30000000005,357043.388,357047.59999999986,357060.054,362277.099,8,400,,,
trial,html.Screen,4_83_0,2023-09-21T17:03:44.557Z,,0,2,,2862.201000000059,response,ISIC_0033512.JPG,7,ISIC_0012099.JPG,ISIC_0012099.JPG,false,0,keypress(z),500,365139.80000000005,365139.30000000005,362260.433,362270.80000000005,362277.099,365143.651,8,400,34,,ISIC_0033512.JPG
break,html.Screen,4_83_1,2023-09-21T17:03:44.559Z,,0,,,NaN,,,,,,false,,,,365140.8999999999,365140.69999999995,,365140,,365143.651,8,400,,,
break_continue,html.Screen,4_83_2,2023-09-21T17:03:44.559Z,,0,,,NaN,,,,,,false,,,,365141.3999999999,365141.30000000005,,365141.09999999986,,365143.651,8,400,,,
sequence,flow.Sequence,4_83,2023-09-21T17:03:44.559Z,,0,,,2864.201000000059,completion,,,,,false,,,,365141.5,365141.30000000005,362260.433,362270.69999999995,362277.099,365143.651,8,400,,,
trial,html.Screen,4_84_0,2023-09-21T17:03:49.027Z,,0,2,,4465.649000000034,response,ISIC_0033752.JPG,8,ISIC_7327423.JPG,ISIC_7327423.JPG,false,0,keypress(z),500,369609.69999999995,369609.30000000005,365126.985,365141.69999999995,365143.651,369626.805,8,400,35,,ISIC_0033752.JPG
break,html.Screen,4_84_1,2023-09-21T17:03:49.028Z,,0,,,NaN,,,,,,false,,,,369611,369610.80000000005,,369610,,369626.805,8,400,,,
break_continue,html.Screen,4_84_2,2023-09-21T17:03:49.029Z,,0,,,NaN,,,,,,false,,,,369611.3999999999,369611.19999999995,,369611.09999999986,,369626.805,8,400,,,
sequence,flow.Sequence,4_84,2023-09-21T17:03:49.029Z,,0,,,4467.548999999941,completion,,,,,false,,,,369611.5,369611.19999999995,365126.985,365141.59999999986,365143.651,369626.805,8,400,,,
trial,html.Screen,4_85_0,2023-09-21T17:03:51.687Z,,0,2,,2642.7949999998673,response,ISIC_7519627.JPG,8,ISIC_0011642.JPG,ISIC_7519627.JPG,false,1,keypress(m),500,372269.80000000005,372269.59999999986,369610.139,369611.80000000005,369626.805,372294.359,8,400,36,,ISIC_0011642.JPG
break,html.Screen,4_85_1,2023-09-21T17:03:51.688Z,,0,,,NaN,,,,,,false,,,,372270.69999999995,372270.5,,372270,,372294.359,8,400,,,
break_continue,html.Screen,4_85_2,2023-09-21T17:03:51.688Z,,0,,,NaN,,,,,,false,,,,372271,372270.80000000005,,372270.69999999995,,372294.359,8,400,,,
sequence,flow.Sequence,4_85,2023-09-21T17:03:51.688Z,,0,,,2643.9950000000536,completion,,,,,false,,,,372271.09999999986,372270.80000000005,369610.139,369611.69999999995,369626.805,372294.359,8,400,,,
trial,html.Screen,4_86_0,2023-09-21T17:03:55.757Z,,0,2,,4045.1410000000033,response,ISIC_6882582.JPG,9,ISIC_0919467.JPG,ISIC_0919467.JPG,false,0,keypress(z),500,376340,376339.5,372277.693,372271.19999999995,372294.359,376344.197,8,400,37,,ISIC_6882582.JPG
break,html.Screen,4_86_1,2023-09-21T17:03:55.758Z,,0,,,NaN,,,,,,false,,,,376341.19999999995,376341,,376340.19999999995,,376344.197,8,400,,,
break_continue,html.Screen,4_86_2,2023-09-21T17:03:55.759Z,,0,,,NaN,,,,,,false,,,,376341.59999999986,376341.5,,376341.30000000005,,376344.197,8,400,,,
sequence,flow.Sequence,4_86,2023-09-21T17:03:55.759Z,,0,,,4047.1410000000033,completion,,,,,false,,,,376341.80000000005,376341.5,372277.693,372271.09999999986,372294.359,376344.197,8,400,,,
trial,html.Screen,4_87_0,2023-09-21T17:03:58.563Z,,0,2,,2801.2029999999213,response,ISIC_5810696.JPG,8,ISIC_0000175.JPG,ISIC_5810696.JPG,false,1,keypress(m),500,379145.8999999999,379145.3999999999,376327.531,376341.8999999999,376344.197,379160.751,8,400,38,,ISIC_0000175.JPG
break,html.Screen,4_87_1,2023-09-21T17:03:58.564Z,,0,,,NaN,,,,,,false,,,,379147.09999999986,379146.8999999999,,379146.19999999995,,379160.751,8,400,,,
break_continue,html.Screen,4_87_2,2023-09-21T17:03:58.564Z,,0,,,NaN,,,,,,false,,,,379147.59999999986,379147.5,,379147.30000000005,,379160.751,8,400,,,
sequence,flow.Sequence,4_87,2023-09-21T17:03:58.565Z,,0,,,2803.3030000000144,completion,,,,,false,,,,379147.69999999995,379147.5,376327.531,376341.8999999999,376344.197,379160.751,8,400,,,
trial,html.Screen,4_88_0,2023-09-21T17:04:01.178Z,,0,2,,2599.6489999999176,response,ISIC_0034209.JPG,5,ISIC_6460137.JPG,ISIC_6460137.JPG,false,0,keypress(z),500,381760.80000000005,381760.3999999999,379144.085,379147.8999999999,379160.751,381777.313,8,400,39,,ISIC_0034209.JPG
break,html.Screen,4_88_1,2023-09-21T17:04:01.179Z,,0,,,NaN,,,,,,false,,,,381762.09999999986,381761.80000000005,,381761.09999999986,,381777.313,8,400,,,
break_continue,html.Screen,4_88_2,2023-09-21T17:04:01.179Z,,0,,,NaN,,,,,,false,,,,381762.3999999999,381762.30000000005,,381762.19999999995,,381777.313,8,400,,,
sequence,flow.Sequence,4_88,2023-09-21T17:04:01.179Z,,0,,,2601.5490000000573,completion,,,,,false,,,,381762.59999999986,381762.30000000005,379144.085,379147.8999999999,379160.751,381777.313,8,400,,,
trial,html.Screen,4_89_0,2023-09-21T17:04:05.123Z,,0,2,,3928.6869999999763,response,ISIC_0228772.JPG,9,ISIC_5729818.JPG,ISIC_0228772.JPG,false,1,keypress(m),500,385706.5,385706,381760.647,381762.80000000005,381777.313,385711.243,8,400,40,,ISIC_5729818.JPG
break,html.Screen,4_89_1,2023-09-21T17:04:05.124Z,,0,,,NaN,,,,,,false,,,,385707.69999999995,385707.5,,385706.8999999999,,385711.243,8,400,,,
break_continue,html.Screen,4_89_2,2023-09-21T17:04:05.125Z,,0,,,NaN,,,,,,false,,,,385708.09999999986,385708,,385707.80000000005,,385711.243,8,400,,,
sequence,flow.Sequence,4_89,2023-09-21T17:04:05.125Z,,0,,,3930.6869999999763,completion,,,,,false,,,,385708.30000000005,385708,381760.647,381762.80000000005,381777.313,385711.243,8,400,,,
trial,html.Screen,4_90_0,2023-09-21T17:04:08.599Z,,0,2,,3470.9569999999367,response,ISIC_8607090.JPG,7,ISIC_0004140.JPG,ISIC_8607090.JPG,false,1,keypress(m),500,389182.59999999986,389182.19999999995,385694.577,385708.5,385711.243,389211.103,8,400,41,,ISIC_0004140.JPG
break,html.Screen,4_90_1,2023-09-21T17:04:08.600Z,,0,,,NaN,,,,,,false,,,,389183.8999999999,389183.59999999986,,389182.8999999999,,389211.103,8,400,,,
break_continue,html.Screen,4_90_2,2023-09-21T17:04:08.601Z,,0,,,NaN,,,,,,false,,,,389184.30000000005,389184.19999999995,,389184,,389211.103,8,400,,,
sequence,flow.Sequence,4_90,2023-09-21T17:04:08.601Z,,0,,,3472.9569999999367,completion,,,,,false,,,,389184.5,389184.19999999995,385694.577,385708.3999999999,385711.243,389211.103,8,400,,,
trial,html.Screen,4_91_0,2023-09-21T17:04:11.297Z,,0,2,,2669.5969999999506,response,ISIC_4459528.JPG,6,ISIC_1807276.JPG,ISIC_4459528.JPG,false,1,keypress(m),500,391881.09999999986,391880.69999999995,389194.437,389184.59999999986,389211.103,391894.329,8,400,42,,ISIC_1807276.JPG
break,html.Screen,4_91_1,2023-09-21T17:04:11.299Z,,0,,,NaN,,,,,,false,,,,391882.3999999999,391882.09999999986,,391881.3999999999,,391894.329,8,400,,,
break_continue,html.Screen,4_91_2,2023-09-21T17:04:11.299Z,,0,,,NaN,,,,,,false,,,,391882.80000000005,391882.69999999995,,391882.5,,391894.329,8,400,,,
sequence,flow.Sequence,4_91,2023-09-21T17:04:11.299Z,,0,,,2671.5969999999506,completion,,,,,false,,,,391882.8999999999,391882.69999999995,389194.437,389184.5,389211.103,391894.329,8,400,,,
trial,html.Screen,4_92_0,2023-09-21T17:04:15.976Z,,0,2,,4665.170999999973,response,ISIC_0056608.JPG,8,ISIC_7004652.JPG,ISIC_7004652.JPG,false,0,keypress(z),500,396559.8999999999,396559.5,391877.663,391883.09999999986,391894.329,396561.571,8,400,43,,ISIC_0056608.JPG
break,html.Screen,4_92_1,2023-09-21T17:04:15.977Z,,0,,,NaN,,,,,,false,,,,396561.09999999986,396560.8999999999,,396560.19999999995,,396561.571,8,400,,,
break_continue,html.Screen,4_92_2,2023-09-21T17:04:15.978Z,,0,,,NaN,,,,,,false,,,,396561.5,396561.3999999999,,396561.19999999995,,396561.571,8,400,,,
sequence,flow.Sequence,4_92,2023-09-21T17:04:15.978Z,,0,,,4667.07099999988,completion,,,,,false,,,,396561.69999999995,396561.3999999999,391877.663,391883,391894.329,396561.571,8,400,,,
trial,html.Screen,4_93_0,2023-09-21T17:04:18.703Z,,0,2,,2724.8289999999106,response,ISIC_6148533.JPG,7,ISIC_0000072.JPG,ISIC_6148533.JPG,false,1,keypress(m),500,399286.80000000005,399286.3999999999,396544.905,396561.8999999999,396561.571,399294.795,8,400,44,,ISIC_0000072.JPG
break,html.Screen,4_93_1,2023-09-21T17:04:18.704Z,,0,,,NaN,,,,,,false,,,,399288.09999999986,399287.80000000005,,399287.09999999986,,399294.795,8,400,,,
break_continue,html.Screen,4_93_2,2023-09-21T17:04:18.704Z,,0,,,NaN,,,,,,false,,,,399288.3999999999,399288.30000000005,,399288.19999999995,,399294.795,8,400,,,
sequence,flow.Sequence,4_93,2023-09-21T17:04:18.705Z,,0,,,2726.7290000000503,completion,,,,,false,,,,399288.69999999995,399288.30000000005,396544.905,396561.80000000005,396561.571,399294.795,8,400,,,
trial,html.Screen,4_94_0,2023-09-21T17:04:22.677Z,,0,2,,3965.9049999999697,response,ISIC_3505339.JPG,8,ISIC_2967024.JPG,ISIC_2967024.JPG,false,0,keypress(z),500,403261.19999999995,403260.69999999995,399278.129,399288.80000000005,399294.795,403278.641,8,400,45,,ISIC_3505339.JPG
break,html.Screen,4_94_1,2023-09-21T17:04:22.678Z,,0,,,NaN,,,,,,false,,,,403262.3999999999,403262.09999999986,,403261.5,,403278.641,8,400,,,
break_continue,html.Screen,4_94_2,2023-09-21T17:04:22.679Z,,0,,,NaN,,,,,,false,,,,403262.80000000005,403262.69999999995,,403262.5,,403278.641,8,400,,,
sequence,flow.Sequence,4_94,2023-09-21T17:04:22.679Z,,0,,,3967.9049999999697,completion,,,,,false,,,,403263,403262.69999999995,399278.129,399288.80000000005,399294.795,403278.641,8,400,,,
trial,html.Screen,4_95_0,2023-09-21T17:04:28.649Z,,0,2,,5954.55899999995,response,ISIC_0013184.JPG,7,ISIC_0057669.JPG,ISIC_0013184.JPG,false,1,keypress(m),500,409233.69999999995,409233.19999999995,403261.975,403263.19999999995,403278.641,409261.735,8,400,46,,ISIC_0057669.JPG
break,html.Screen,4_95_1,2023-09-21T17:04:28.650Z,,0,,,NaN,,,,,,false,,,,409235,409234.69999999995,,409234,,409261.735,8,400,,,
break_continue,html.Screen,4_95_2,2023-09-21T17:04:28.651Z,,0,,,NaN,,,,,,false,,,,409235.3999999999,409235.30000000005,,409235.09999999986,,409261.735,8,400,,,
sequence,flow.Sequence,4_95,2023-09-21T17:04:28.651Z,,0,,,5956.659000000043,completion,,,,,false,,,,409235.5,409235.30000000005,403261.975,403263.19999999995,403278.641,409261.735,8,400,,,
trial,html.Screen,4_96_0,2023-09-21T17:04:32.707Z,,0,2,,4029.0650000000605,response,ISIC_0014291.JPG,8,ISIC_0028967.JPG,ISIC_0014291.JPG,false,1,keypress(m),500,413291.19999999995,413290.80000000005,409245.069,409235.69999999995,409261.735,413295.656,8,400,47,,ISIC_0028967.JPG
break,html.Screen,4_96_1,2023-09-21T17:04:32.708Z,,0,,,NaN,,,,,,false,,,,413292.5,413292.30000000005,,413291.5,,413295.656,8,400,,,
break_continue,html.Screen,4_96_2,2023-09-21T17:04:32.708Z,,0,,,NaN,,,,,,false,,,,413292.8999999999,413292.80000000005,,413292.59999999986,,413295.656,8,400,,,
sequence,flow.Sequence,4_96,2023-09-21T17:04:32.708Z,,0,,,4031.0650000000605,completion,,,,,false,,,,413293.09999999986,413292.80000000005,409245.069,409235.59999999986,409261.735,413295.656,8,400,,,
trial,html.Screen,4_97_0,2023-09-21T17:04:35.753Z,,0,2,,3041.443999999843,response,ISIC_0010164.JPG,8,ISIC_0027155.JPG,ISIC_0010164.JPG,false,1,keypress(m),500,416337.59999999986,416337.09999999986,413278.99,413293.19999999995,413295.656,416345.534,8,400,48,,ISIC_0027155.JPG
break,html.Screen,4_97_1,2023-09-21T17:04:35.754Z,,0,,,NaN,,,,,,false,,,,416338.80000000005,416338.59999999986,,416337.8999999999,,416345.534,8,400,,,
break_continue,html.Screen,4_97_2,2023-09-21T17:04:35.754Z,,0,,,NaN,,,,,,false,,,,416339.30000000005,416339.19999999995,,416339,,416345.534,8,400,,,
sequence,flow.Sequence,4_97,2023-09-21T17:04:35.755Z,,0,,,3043.543999999936,completion,,,,,false,,,,416339.5,416339.19999999995,413278.99,413293.19999999995,413295.656,416345.534,8,400,,,
trial,html.Screen,4_98_0,2023-09-21T17:04:38.653Z,,0,2,,2892.065999999875,response,ISIC_0024323.JPG,8,ISIC_7190243.JPG,ISIC_0024323.JPG,false,1,keypress(m),500,419238,419237.59999999986,416328.868,416339.69999999995,416345.534,419262.084,8,400,49,,ISIC_7190243.JPG
break,html.Screen,4_98_1,2023-09-21T17:04:38.654Z,,0,,,NaN,,,,,,false,,,,419239.30000000005,419239,,419238.3999999999,,419262.084,8,400,,,
break_continue,html.Screen,4_98_2,2023-09-21T17:04:38.655Z,,0,,,NaN,,,,,,false,,,,419239.69999999995,419239.59999999986,,419239.3999999999,,419262.084,8,400,,,
sequence,flow.Sequence,4_98,2023-09-21T17:04:38.655Z,,0,,,2894.065999999875,completion,,,,,false,,,,419239.8999999999,419239.59999999986,416328.868,416339.5,416345.534,419262.084,8,400,,,
trial,html.Screen,4_99_0,2023-09-21T17:04:41.651Z,,0,2,,2973.9160000000265,response,ISIC_0029729.JPG,6,ISIC_3386656.JPG,ISIC_3386656.JPG,false,0,keypress(z),500,422236.5,422236,419245.418,419240.09999999986,419262.084,422245.298,8,400,50,,ISIC_0029729.JPG
break,html.Screen,4_99_1,2023-09-21T17:04:51.648Z,,0,,,10000.507999999973,timeout,,,,,false,,,,432233.09999999986,432229.14,422228.632,422236.69999999995,422245.298,432245.806,8,400,,,
break_continue,html.Screen,4_99_2,2023-09-21T17:04:53.470Z,,0,,,1794.793999999878,response,,,,,false,continue,keypress(Space),,434055.3999999999,434040.59999999986,432229.14,432233.3999999999,432245.806,434062.4,8,400,,,
sequence,flow.Sequence,4_99,2023-09-21T17:04:53.470Z,,0,,,14778.515999999887,completion,,,,,false,,,,434055.5,434040.59999999986,419245.418,419240,419262.084,434062.4,8,400,,,
trial,html.Screen,4_100_0,2023-09-21T17:04:56.450Z,,0,3,,2972.9999999998836,response,ISIC_5153848.JPG,7,ISIC_0071457.JPG,ISIC_5153848.JPG,false,1,keypress(m),500,437035.80000000005,437035.3999999999,434045.734,434055.5,434062.4,437046.325,8,400,1,,ISIC_0071457.JPG
break,html.Screen,4_100_1,2023-09-21T17:04:56.451Z,,0,,,NaN,,,,,,false,,,,437037.19999999995,437036.8999999999,,437036.19999999995,,437046.325,8,400,,,
break_continue,html.Screen,4_100_2,2023-09-21T17:04:56.452Z,,0,,,NaN,,,,,,false,,,,437037.59999999986,437037.3999999999,,437037.30000000005,,437046.325,8,400,,,
sequence,flow.Sequence,4_100,2023-09-21T17:04:56.452Z,,0,,,2974.9999999998836,completion,,,,,false,,,,437037.80000000005,437037.3999999999,434045.734,434055.5,434062.4,437046.325,8,400,,,
trial,html.Screen,4_101_0,2023-09-21T17:04:59.338Z,,0,3,,2876.574999999895,response,ISIC_0011350.JPG,5,ISIC_7380353.JPG,ISIC_7380353.JPG,false,0,keypress(z),500,439923.5,439922.8999999999,437029.659,437038,437046.325,439929.543,8,400,2,,ISIC_0011350.JPG
break,html.Screen,4_101_1,2023-09-21T17:04:59.339Z,,0,,,NaN,,,,,,false,,,,439924.80000000005,439924.5,,439923.80000000005,,439929.543,8,400,,,
break_continue,html.Screen,4_101_2,2023-09-21T17:04:59.339Z,,0,,,NaN,,,,,,false,,,,439925.09999999986,439925,,439924.8999999999,,439929.543,8,400,,,
sequence,flow.Sequence,4_101,2023-09-21T17:04:59.339Z,,0,,,2878.6749999999884,completion,,,,,false,,,,439925.19999999995,439925,437029.659,437037.8999999999,437046.325,439929.543,8,400,,,
trial,html.Screen,4_102_0,2023-09-21T17:05:01.923Z,,0,3,,2578.7570000000414,response,ISIC_0025735.JPG,8,ISIC_0055731.JPG,ISIC_0025735.JPG,false,1,keypress(m),500,442508.69999999995,442508.30000000005,439912.877,439925.3999999999,439929.543,442512.773,8,400,3,,ISIC_0055731.JPG
break,html.Screen,4_102_1,2023-09-21T17:05:01.924Z,,0,,,NaN,,,,,,false,,,,442510,442509.69999999995,,442508.8999999999,,442512.773,8,400,,,
break_continue,html.Screen,4_102_2,2023-09-21T17:05:01.924Z,,0,,,NaN,,,,,,false,,,,442510.3999999999,442510.30000000005,,442510.09999999986,,442512.773,8,400,,,
sequence,flow.Sequence,4_102,2023-09-21T17:05:01.925Z,,0,,,2580.7570000000414,completion,,,,,false,,,,442510.59999999986,442510.30000000005,439912.877,439925.30000000005,439929.543,442512.773,8,400,,,
trial,html.Screen,4_103_0,2023-09-21T17:05:04.858Z,,0,3,,2930.52700000006,response,ISIC_2291059.JPG,7,ISIC_5791954.JPG,ISIC_2291059.JPG,false,1,keypress(m),500,445443.80000000005,445443.30000000005,442496.107,442510.69999999995,442512.773,445446.876,8,400,4,,ISIC_5791954.JPG
break,html.Screen,4_103_1,2023-09-21T17:05:04.859Z,,0,,,NaN,,,,,,false,,,,445445.09999999986,445444.80000000005,,445444,,445446.876,8,400,,,
break_continue,html.Screen,4_103_2,2023-09-21T17:05:04.859Z,,0,,,NaN,,,,,,false,,,,445445.5,445445.3999999999,,445445.19999999995,,445446.876,8,400,,,
sequence,flow.Sequence,4_103,2023-09-21T17:05:04.860Z,,0,,,2932.6269999999204,completion,,,,,false,,,,445445.80000000005,445445.3999999999,442496.107,442510.69999999995,442512.773,445446.876,8,400,,,
trial,html.Screen,4_104_0,2023-09-21T17:05:07.750Z,,0,3,,2889.323999999964,response,ISIC_4368650.JPG,4,ISIC_9014786.JPG,ISIC_4368650.JPG,false,1,keypress(m),500,448336.69999999995,448336.19999999995,445430.21,445445.8999999999,445446.876,448346.76,8,400,5,,ISIC_9014786.JPG
break,html.Screen,4_104_1,2023-09-21T17:05:07.752Z,,0,,,NaN,,,,,,false,,,,448338,448337.69999999995,,448337,,448346.76,8,400,,,
break_continue,html.Screen,4_104_2,2023-09-21T17:05:07.752Z,,0,,,NaN,,,,,,false,,,,448338.3999999999,448338.30000000005,,448338.09999999986,,448346.76,8,400,,,
sequence,flow.Sequence,4_104,2023-09-21T17:05:07.752Z,,0,,,2891.4240000000573,completion,,,,,false,,,,448338.59999999986,448338.30000000005,445430.21,445445.80000000005,445446.876,448346.76,8,400,,,
trial,html.Screen,4_105_0,2023-09-21T17:05:10.624Z,,0,3,,2863.5400000000373,response,ISIC_3688362.JPG,8,ISIC_4596803.JPG,ISIC_3688362.JPG,false,1,keypress(m),500,451210.69999999995,451210.30000000005,448330.094,448338.80000000005,448346.76,451213.312,8,400,6,,ISIC_4596803.JPG
break,html.Screen,4_105_1,2023-09-21T17:05:10.625Z,,0,,,NaN,,,,,,false,,,,451212,451211.69999999995,,451211,,451213.312,8,400,,,
break_continue,html.Screen,4_105_2,2023-09-21T17:05:10.626Z,,0,,,NaN,,,,,,false,,,,451212.30000000005,451212.19999999995,,451212.09999999986,,451213.312,8,400,,,
sequence,flow.Sequence,4_105,2023-09-21T17:05:10.626Z,,0,,,2865.439999999944,completion,,,,,false,,,,451212.5,451212.19999999995,448330.094,448338.69999999995,448346.76,451213.312,8,400,,,
trial,html.Screen,4_106_0,2023-09-21T17:05:13.366Z,,0,3,,2738.887999999977,response,ISIC_0070585.JPG,8,ISIC_8222254.JPG,ISIC_8222254.JPG,false,0,keypress(z),500,453952.59999999986,453952.19999999995,451196.646,451212.69999999995,451213.312,453963.202,8,400,7,,ISIC_0070585.JPG
break,html.Screen,4_106_1,2023-09-21T17:05:13.367Z,,0,,,NaN,,,,,,false,,,,453953.8999999999,453953.59999999986,,453952.8999999999,,453963.202,8,400,,,
break_continue,html.Screen,4_106_2,2023-09-21T17:05:13.368Z,,0,,,NaN,,,,,,false,,,,453954.3999999999,453954.19999999995,,453954,,453963.202,8,400,,,
sequence,flow.Sequence,4_106,2023-09-21T17:05:13.368Z,,0,,,2740.887999999977,completion,,,,,false,,,,453954.5,453954.19999999995,451196.646,451212.59999999986,451213.312,453963.202,8,400,,,
trial,html.Screen,4_107_0,2023-09-21T17:05:16.141Z,,0,3,,2764.0980000000563,response,ISIC_5218773.JPG,6,ISIC_1020968.JPG,ISIC_1020968.JPG,false,0,keypress(z),500,456727.69999999995,456727.30000000005,453946.536,453954.59999999986,453963.202,456730.582,8,400,8,,ISIC_5218773.JPG
break,html.Screen,4_107_1,2023-09-21T17:05:16.142Z,,0,,,NaN,,,,,,false,,,,456729,456728.80000000005,,456728,,456730.582,8,400,,,
break_continue,html.Screen,4_107_2,2023-09-21T17:05:16.143Z,,0,,,NaN,,,,,,false,,,,456729.5,456729.30000000005,,456729.09999999986,,456730.582,8,400,,,
sequence,flow.Sequence,4_107,2023-09-21T17:05:16.143Z,,0,,,2766.0980000000563,completion,,,,,false,,,,456729.59999999986,456729.30000000005,453946.536,453954.5,453963.202,456730.582,8,400,,,
trial,html.Screen,4_108_0,2023-09-21T17:05:20.899Z,,0,3,,4755.117999999959,response,ISIC_3545622.JPG,6,ISIC_4271108.JPG,ISIC_4271108.JPG,false,0,keypress(z),500,461486.09999999986,461485.69999999995,456713.916,456729.80000000005,456730.582,461497.058,8,400,9,,ISIC_3545622.JPG
break,html.Screen,4_108_1,2023-09-21T17:05:20.901Z,,0,,,NaN,,,,,,false,,,,461487.5,461487.19999999995,,461486.3999999999,,461497.058,8,400,,,
break_continue,html.Screen,4_108_2,2023-09-21T17:05:20.901Z,,0,,,NaN,,,,,,false,,,,461487.8999999999,461487.80000000005,,461487.59999999986,,461497.058,8,400,,,
sequence,flow.Sequence,4_108,2023-09-21T17:05:20.901Z,,0,,,4757.218000000052,completion,,,,,false,,,,461488,461487.80000000005,456713.916,456729.69999999995,456730.582,461497.058,8,400,,,
trial,html.Screen,4_109_0,2023-09-21T17:05:24.411Z,,0,3,,3501.041999999841,response,ISIC_0862745.JPG,8,ISIC_9714746.JPG,ISIC_9714746.JPG,false,0,keypress(z),500,464998.59999999986,464998.09999999986,461480.392,461488.30000000005,461497.058,465013.584,8,400,10,,ISIC_0862745.JPG
break,html.Screen,4_109_1,2023-09-21T17:05:24.413Z,,0,,,NaN,,,,,,false,,,,464999.80000000005,464999.5,,464998.8999999999,,465013.584,8,400,,,
break_continue,html.Screen,4_109_2,2023-09-21T17:05:24.413Z,,0,,,NaN,,,,,,false,,,,465000.30000000005,465000,,464999.8999999999,,465013.584,8,400,,,
sequence,flow.Sequence,4_109,2023-09-21T17:05:24.413Z,,0,,,3502.941999999981,completion,,,,,false,,,,465000.5,465000,461480.392,461488.19999999995,461497.058,465013.584,8,400,,,
trial,html.Screen,4_110_0,2023-09-21T17:05:27.507Z,,0,3,,3080.61599999998,response,ISIC_1008609.JPG,8,ISIC_3560519.JPG,ISIC_1008609.JPG,false,1,keypress(m),500,468094.69999999995,468094.19999999995,464996.918,465000.5,465013.584,468097.549,8,400,11,,ISIC_3560519.JPG
break,html.Screen,4_110_1,2023-09-21T17:05:27.509Z,,0,,,NaN,,,,,,false,,,,468096,468095.69999999995,,468095,,468097.549,8,400,,,
break_continue,html.Screen,4_110_2,2023-09-21T17:05:27.509Z,,0,,,NaN,,,,,,false,,,,468096.3999999999,468096.30000000005,,468096.09999999986,,468097.549,8,400,,,
sequence,flow.Sequence,4_110,2023-09-21T17:05:27.511Z,,0,,,3082.716000000073,completion,,,,,false,,,,468098,468096.30000000005,464996.918,465000.5,465013.584,468097.549,8,400,,,
trial,html.Screen,4_111_0,2023-09-21T17:05:30.105Z,,0,3,,2594.0509999998612,response,ISIC_7759913.JPG,5,ISIC_4879187.JPG,ISIC_7759913.JPG,false,1,keypress(m),500,470692.30000000005,470691.59999999986,468080.883,468098.09999999986,468097.549,470697.445,8,400,12,,ISIC_4879187.JPG
break,html.Screen,4_111_1,2023-09-21T17:05:30.106Z,,0,,,NaN,,,,,,false,,,,470693.59999999986,470693.30000000005,,470692.59999999986,,470697.445,8,400,,,
break_continue,html.Screen,4_111_2,2023-09-21T17:05:30.107Z,,0,,,NaN,,,,,,false,,,,470694.09999999986,470693.8999999999,,470693.69999999995,,470697.445,8,400,,,
sequence,flow.Sequence,4_111,2023-09-21T17:05:30.107Z,,0,,,2596.350999999908,completion,,,,,false,,,,470694.19999999995,470693.8999999999,468080.883,468098,468097.549,470697.445,8,400,,,
trial,html.Screen,4_112_0,2023-09-21T17:05:32.656Z,,0,3,,2545.4549999999,response,ISIC_0033412.JPG,8,ISIC_0026272.JPG,ISIC_0033412.JPG,false,1,keypress(m),500,473243.5,473242.8999999999,470680.779,470694.5,470697.445,473247.343,8,400,13,,ISIC_0026272.JPG
break,html.Screen,4_112_1,2023-09-21T17:05:32.657Z,,0,,,NaN,,,,,,false,,,,473244.69999999995,473244.3999999999,,473243.69999999995,,473247.343,8,400,,,
break_continue,html.Screen,4_112_2,2023-09-21T17:05:32.658Z,,0,,,NaN,,,,,,false,,,,473245.19999999995,473245.09999999986,,473244.80000000005,,473247.343,8,400,,,
sequence,flow.Sequence,4_112,2023-09-21T17:05:32.658Z,,0,,,2547.6549999998533,completion,,,,,false,,,,473245.3999999999,473245.09999999986,470680.779,470694.30000000005,470697.445,473247.343,8,400,,,
trial,html.Screen,4_113_0,2023-09-21T17:05:35.861Z,,0,3,,3201.1570000000065,response,ISIC_8138363.JPG,7,ISIC_2355374.JPG,ISIC_2355374.JPG,false,0,keypress(z),500,476449,476448.5,473230.677,473245.5,473247.343,476464.704,8,400,14,,ISIC_8138363.JPG
break,html.Screen,4_113_1,2023-09-21T17:05:35.863Z,,0,,,NaN,,,,,,false,,,,476450.19999999995,476449.8999999999,,476449.30000000005,,476464.704,8,400,,,
break_continue,html.Screen,4_113_2,2023-09-21T17:05:35.863Z,,0,,,NaN,,,,,,false,,,,476450.59999999986,476450.5,,476450.30000000005,,476464.704,8,400,,,
sequence,flow.Sequence,4_113,2023-09-21T17:05:35.863Z,,0,,,3203.1570000000065,completion,,,,,false,,,,476450.80000000005,476450.5,473230.677,473245.5,473247.343,476464.704,8,400,,,
trial,html.Screen,4_114_0,2023-09-21T17:05:38.720Z,,0,3,,2842.8959999998333,response,ISIC_0015455.JPG,6,ISIC_0002578.JPG,ISIC_0002578.JPG,false,0,keypress(z),500,479308.09999999986,479307.59999999986,476448.038,476450.8999999999,476464.704,479314.59,8,400,15,,ISIC_0015455.JPG
break,html.Screen,4_114_1,2023-09-21T17:05:38.722Z,,0,,,NaN,,,,,,false,,,,479309.3999999999,479309.19999999995,,479308.3999999999,,479314.59,8,400,,,
break_continue,html.Screen,4_114_2,2023-09-21T17:05:38.722Z,,0,,,NaN,,,,,,false,,,,479309.8999999999,479309.80000000005,,479309.59999999986,,479314.59,8,400,,,
sequence,flow.Sequence,4_114,2023-09-21T17:05:38.722Z,,0,,,2845.0960000000196,completion,,,,,false,,,,479310,479309.80000000005,476448.038,476450.8999999999,476464.704,479314.59,8,400,,,
trial,html.Screen,4_115_0,2023-09-21T17:05:41.323Z,,0,3,,2595.710000000021,response,ISIC_8650516.JPG,9,ISIC_4184050.JPG,ISIC_8650516.JPG,false,1,keypress(m),500,481910.80000000005,481910.30000000005,479297.924,479310.09999999986,479314.59,481914.486,8,400,16,,ISIC_4184050.JPG
break,html.Screen,4_115_1,2023-09-21T17:05:41.324Z,,0,,,NaN,,,,,,false,,,,481912.09999999986,481911.80000000005,,481911.09999999986,,481914.486,8,400,,,
break_continue,html.Screen,4_115_2,2023-09-21T17:05:41.325Z,,0,,,NaN,,,,,,false,,,,481912.5,481912.3999999999,,481912.19999999995,,481914.486,8,400,,,
sequence,flow.Sequence,4_115,2023-09-21T17:05:41.325Z,,0,,,2597.8099999998813,completion,,,,,false,,,,481912.69999999995,481912.3999999999,479297.924,479310.09999999986,479314.59,481914.486,8,400,,,
trial,html.Screen,4_116_0,2023-09-21T17:05:44.262Z,,0,3,,2935.213999999978,response,ISIC_0060741.JPG,8,ISIC_2000959.JPG,ISIC_2000959.JPG,false,0,keypress(z),500,484850.19999999995,484849.69999999995,481897.82,481912.80000000005,481914.486,484864.368,8,400,17,,ISIC_0060741.JPG
break,html.Screen,4_116_1,2023-09-21T17:05:44.263Z,,0,,,NaN,,,,,,false,,,,484851.5,484851.19999999995,,484850.59999999986,,484864.368,8,400,,,
break_continue,html.Screen,4_116_2,2023-09-21T17:05:44.264Z,,0,,,NaN,,,,,,false,,,,484851.8999999999,484851.80000000005,,484851.59999999986,,484864.368,8,400,,,
sequence,flow.Sequence,4_116,2023-09-21T17:05:44.264Z,,0,,,2937.3140000000712,completion,,,,,false,,,,484852,484851.80000000005,481897.82,481912.69999999995,481914.486,484864.368,8,400,,,
trial,html.Screen,4_117_0,2023-09-21T17:05:46.832Z,,0,3,,2554.8319999999367,response,ISIC_6336926.JPG,6,ISIC_0028696.JPG,ISIC_6336926.JPG,false,1,keypress(m),500,487419.69999999995,487419.19999999995,484847.702,484852.30000000005,484864.368,487431.679,8,400,18,,ISIC_0028696.JPG
break,html.Screen,4_117_1,2023-09-21T17:05:46.833Z,,0,,,NaN,,,,,,false,,,,487421,487420.80000000005,,487420.09999999986,,487431.679,8,400,,,
break_continue,html.Screen,4_117_2,2023-09-21T17:05:46.833Z,,0,,,NaN,,,,,,false,,,,487421.3999999999,487421.30000000005,,487421.19999999995,,487431.679,8,400,,,
sequence,flow.Sequence,4_117,2023-09-21T17:05:46.833Z,,0,,,2556.93200000003,completion,,,,,false,,,,487421.5,487421.30000000005,484847.702,484852.19999999995,484864.368,487431.679,8,400,,,
trial,html.Screen,4_118_0,2023-09-21T17:05:50.267Z,,0,3,,3423.0209999999497,response,ISIC_4055288.JPG,9,ISIC_1589997.JPG,ISIC_1589997.JPG,false,0,keypress(z),500,490855.19999999995,490854.69999999995,487415.013,487421.69999999995,487431.679,490864.875,8,400,19,,ISIC_4055288.JPG
break,html.Screen,4_118_1,2023-09-21T17:05:50.268Z,,0,,,NaN,,,,,,false,,,,490856.3999999999,490856.19999999995,,490855.5,,490864.875,8,400,,,
break_continue,html.Screen,4_118_2,2023-09-21T17:05:50.269Z,,0,,,NaN,,,,,,false,,,,490856.80000000005,490856.69999999995,,490856.5,,490864.875,8,400,,,
sequence,flow.Sequence,4_118,2023-09-21T17:05:50.269Z,,0,,,3425.0209999999497,completion,,,,,false,,,,490857,490856.69999999995,487415.013,487421.59999999986,487431.679,490864.875,8,400,,,
trial,html.Screen,4_119_0,2023-09-21T17:05:53.026Z,,0,3,,2749.125,response,ISIC_1661837.JPG,7,ISIC_0014059.JPG,ISIC_1661837.JPG,false,1,keypress(m),500,493614.5,493614,490848.209,490857.19999999995,490864.875,493631.431,8,400,20,,ISIC_0014059.JPG
break,html.Screen,4_119_1,2023-09-21T17:05:53.027Z,,0,,,NaN,,,,,,false,,,,493615.69999999995,493615.3999999999,,493614.69999999995,,493631.431,8,400,,,
break_continue,html.Screen,4_119_2,2023-09-21T17:05:53.028Z,,0,,,NaN,,,,,,false,,,,493616.09999999986,493615.8999999999,,493615.80000000005,,493631.431,8,400,,,
sequence,flow.Sequence,4_119,2023-09-21T17:05:53.028Z,,0,,,2751.024999999907,completion,,,,,false,,,,493616.19999999995,493615.8999999999,490848.209,490857.09999999986,490864.875,493631.431,8,400,,,
trial,html.Screen,4_120_0,2023-09-21T17:05:56.188Z,,0,3,,3144.4689999999246,response,ISIC_0071906.JPG,7,ISIC_7303761.JPG,ISIC_7303761.JPG,false,0,keypress(z),500,496776.30000000005,496775.8999999999,493614.765,493616.3999999999,493631.431,496781.305,8,400,21,,ISIC_0071906.JPG
break,html.Screen,4_120_1,2023-09-21T17:05:56.189Z,,0,,,NaN,,,,,,false,,,,496777.59999999986,496777.19999999995,,496776.59999999986,,496781.305,8,400,,,
break_continue,html.Screen,4_120_2,2023-09-21T17:05:56.189Z,,0,,,NaN,,,,,,false,,,,496778,496777.8999999999,,496777.59999999986,,496781.305,8,400,,,
sequence,flow.Sequence,4_120,2023-09-21T17:05:56.190Z,,0,,,3146.4689999999246,completion,,,,,false,,,,496778.09999999986,496777.8999999999,493614.765,493616.3999999999,493631.431,496781.305,8,400,,,
trial,html.Screen,4_121_0,2023-09-21T17:05:58.866Z,,0,3,,2672.695000000007,response,ISIC_1048913.JPG,8,ISIC_0025603.JPG,ISIC_1048913.JPG,false,1,keypress(m),500,499454.5,499454,496764.639,496778.3999999999,496781.305,499465.314,8,400,22,,ISIC_0025603.JPG
break,html.Screen,4_121_1,2023-09-21T17:05:58.867Z,,0,,,NaN,,,,,,false,,,,499455.80000000005,499455.5,,499454.80000000005,,499465.314,8,400,,,
break_continue,html.Screen,4_121_2,2023-09-21T17:05:58.868Z,,0,,,NaN,,,,,,false,,,,499456.19999999995,499456.09999999986,,499455.8999999999,,499465.314,8,400,,,
sequence,flow.Sequence,4_121,2023-09-21T17:05:58.868Z,,0,,,2674.7949999998673,completion,,,,,false,,,,499456.30000000005,499456.09999999986,496764.639,496778.30000000005,496781.305,499465.314,8,400,,,
trial,html.Screen,4_122_0,2023-09-21T17:06:02.361Z,,0,3,,3484.4860000000335,response,ISIC_7763831.JPG,7,ISIC_0010208.JPG,ISIC_0010208.JPG,false,0,keypress(z),500,502950.30000000005,502949.80000000005,499448.648,499456.5,499465.314,502965.174,8,400,23,,ISIC_7763831.JPG
break,html.Screen,4_122_1,2023-09-21T17:06:02.363Z,,0,,,NaN,,,,,,false,,,,502951.59999999986,502951.19999999995,,502950.59999999986,,502965.174,8,400,,,
break_continue,html.Screen,4_122_2,2023-09-21T17:06:02.363Z,,0,,,NaN,,,,,,false,,,,502952,502951.8999999999,,502951.69999999995,,502965.174,8,400,,,
sequence,flow.Sequence,4_122,2023-09-21T17:06:02.363Z,,0,,,3486.585999999894,completion,,,,,false,,,,502952.19999999995,502951.8999999999,499448.648,499456.5,499465.314,502965.174,8,400,,,
trial,html.Screen,4_123_0,2023-09-21T17:06:05.216Z,,0,3,,2839.326000000001,response,ISIC_0011930.JPG,7,ISIC_0010901.JPG,ISIC_0010901.JPG,false,0,keypress(z),500,505804.8999999999,505804.5,502948.508,502952.30000000005,502965.174,505815.06,8,400,24,,ISIC_0011930.JPG
break,html.Screen,4_123_1,2023-09-21T17:06:05.217Z,,0,,,NaN,,,,,,false,,,,505806.19999999995,505805.8999999999,,505805.19999999995,,505815.06,8,400,,,
break_continue,html.Screen,4_123_2,2023-09-21T17:06:05.218Z,,0,,,NaN,,,,,,false,,,,505806.59999999986,505806.5,,505806.3999999999,,505815.06,8,400,,,
sequence,flow.Sequence,4_123,2023-09-21T17:06:05.218Z,,0,,,2841.326000000001,completion,,,,,false,,,,505806.69999999995,505806.5,502948.508,502952.19999999995,502965.174,505815.06,8,400,,,
trial,html.Screen,4_124_0,2023-09-21T17:06:08.647Z,,0,3,,3420.740000000049,response,ISIC_8001757.JPG,6,ISIC_7923008.JPG,ISIC_7923008.JPG,false,0,keypress(z),500,509236.19999999995,509235.80000000005,505798.394,505806.8999999999,505815.06,509249.05,8,400,25,,ISIC_8001757.JPG
break,html.Screen,4_124_1,2023-09-21T17:06:08.648Z,,0,,,NaN,,,,,,false,,,,509237.5,509237.19999999995,,509236.5,,509249.05,8,400,,,
break_continue,html.Screen,4_124_2,2023-09-21T17:06:08.649Z,,0,,,NaN,,,,,,false,,,,509238,509237.69999999995,,509237.69999999995,,509249.05,8,400,,,
sequence,flow.Sequence,4_124,2023-09-21T17:06:08.650Z,,0,,,3422.6399999999558,completion,,,,,false,,,,509239.59999999986,509237.69999999995,505798.394,505806.80000000005,505815.06,509249.05,8,400,,,
trial,html.Screen,4_125_0,2023-09-21T17:06:11.281Z,,0,3,,2620.8499999999185,response,ISIC_8635889.JPG,8,ISIC_0011139.JPG,ISIC_8635889.JPG,false,1,keypress(m),500,511870.3999999999,511869.8999999999,509232.384,509239.69999999995,509249.05,511882.278,8,400,26,,ISIC_0011139.JPG
break,html.Screen,4_125_1,2023-09-21T17:06:11.282Z,,0,,,NaN,,,,,,false,,,,511871.59999999986,511871.30000000005,,511870.59999999986,,511882.278,8,400,,,
