sender,sender_type,sender_id,timestamp,meta,,blockNo,condition,duration,ended_on,img_left,img_reveal,img_right,loser,practice,response,response_action,selection_duration,time_commit,time_end,time_render,time_run,time_show,time_switch,total_blocks,total_trials,trialNo,url,winner
informed_consent,html.Screen,0,2023-10-30T22:37:29.599Z,"{""labjs_version"":""20.2.4"",""labjs_build"":{""flavor"":""production"",""commit"":""f5b4a49f956347addd546a832a3327688c2c0fef""},""location"":""https://run.pavlovia.org/MurrayBennett/melanoma-2afc/?participant=67571&platform=sona"",""userAgent"":""Mozilla/5.0 (Macintosh; Intel Mac OS X 10_15_7) AppleWebKit/537.36 (KHTML, like Gecko) Chrome/118.0.0.0 Safari/537.36"",""platform"":""MacIntel"",""language"":""en-US"",""locale"":""en-US"",""timeZone"":""America/Chicago"",""timezoneOffset"":300,""screen_width"":1440,""screen_height"":900,""scroll_width"":1440,""scroll_height"":767,""window_innerWidth"":1440,""window_innerHeight"":815,""devicePixelRatio"":2}",,,,7588.885,response,,,,,,consent,click button,,9282.10000000894,9280.5,1558.287,1692.6000000089407,1691.615,9292.032,,,,"{""participant"":""67571"",""platform"":""sona""}",
Welcome,html.Screen,1,2023-10-30T22:37:43.684Z,,,,symmetry,14072.168000002981,response,,,,,,continue,click button,,23367.60000000894,23364.20000000298,9275.366,9282.20000000298,9292.032,23376.183,,,,,
trial,html.Screen,2_0_0,2023-10-30T22:37:55.181Z,,0,0,,11516.414999999997,timeout,ISIC_6997061.JPG,,ISIC_0069348.JPG,,true,,,500,34864.40000000596,34863.79999999702,23359.517,23367.79999999702,23376.183,34892.598,1,6,1,,
sequence,flow.Sequence,2_0,2023-10-30T22:37:55.181Z,,0,,,11487.616999997019,completion,,,,,true,,,,34864.90000000596,34863.79999999702,23359.517,23367.79999999702,23376.183,34892.598,1,6,,,
trial,html.Screen,2_1_0,2023-10-30T22:38:00.432Z,,0,0,,5222.802000005962,response,ISIC_0057368.JPG,,ISIC_0009529.JPG,ISIC_0057368.JPG,true,1,keypress(m),500,40116,40115.40000000596,34875.932,34865.10000000894,34892.598,40125.722,1,6,2,,ISIC_0009529.JPG
sequence,flow.Sequence,2_1,2023-10-30T22:38:00.432Z,,0,,,5222.802000005962,completion,,,,,true,,,,40116.5,40115.40000000596,34875.932,34865.10000000894,34892.598,40125.722,1,6,,,
trial,html.Screen,2_2_0,2023-10-30T22:38:05.333Z,,0,0,,4890.978000002979,response,ISIC_0064954.JPG,,ISIC_9758671.JPG,ISIC_9758671.JPG,true,0,keypress(z),500,45017.29999999702,45016.70000000298,40109.056,40116.70000000298,40125.722,45025.526,1,6,3,,ISIC_0064954.JPG
sequence,flow.Sequence,2_2,2023-10-30T22:38:05.333Z,,0,,,4890.978000002979,completion,,,,,true,,,,45017.70000000298,45016.70000000298,40109.056,40116.70000000298,40125.722,45025.526,1,6,,,
trial,html.Screen,2_3_0,2023-10-30T22:38:08.752Z,,0,0,,3409.974000000002,response,ISIC_0000080.JPG,,ISIC_0005785.JPG,ISIC_0005785.JPG,true,0,keypress(z),500,48436,48435.5,45008.86,45017.90000000596,45025.526,48443.448,1,6,4,,ISIC_0000080.JPG
sequence,flow.Sequence,2_3,2023-10-30T22:38:08.752Z,,0,,,3409.974000000002,completion,,,,,true,,,,48436.60000000894,48435.5,45008.86,45017.90000000596,45025.526,48443.448,1,6,,,
trial,html.Screen,2_4_0,2023-10-30T22:38:12.100Z,,0,0,,3340.5520000000033,response,ISIC_5390060.JPG,,ISIC_7944028.JPG,ISIC_5390060.JPG,true,1,keypress(m),500,51784.60000000894,51784,48426.782,48436.79999999702,48443.448,51793.314,1,6,5,,ISIC_7944028.JPG
sequence,flow.Sequence,2_4,2023-10-30T22:38:12.100Z,,0,,,3340.5520000000033,completion,,,,,true,,,,51785.10000000894,51784,48426.782,48436.70000000298,48443.448,51793.314,1,6,,,
trial,html.Screen,2_5_0,2023-10-30T22:38:15.608Z,,0,0,,3498.786000008942,response,ISIC_0794216.JPG,,ISIC_0010188.JPG,ISIC_0010188.JPG,true,0,keypress(z),500,55292.5,55292.10000000894,51776.648,51785.29999999702,51793.314,55309.84,1,6,6,,ISIC_0794216.JPG
sequence,flow.Sequence,2_5,2023-10-30T22:38:15.608Z,,0,,,3498.786000008942,completion,,,,,true,,,,55292.90000000596,55292.10000000894,51776.648,51785.20000000298,51793.314,55309.84,1,6,,,
loop,flow.Loop,2,2023-10-30T22:38:15.608Z,,,,,31915.91700000894,completion,,,,,true,,,,55293.20000000298,55292.10000000894,23359.517,23367.79999999702,23376.183,55309.84,1,6,,,
exp_instructions,html.Screen,3,2023-10-30T22:38:31.130Z,,,,,15496.660000000003,response,,,,,,continue,keypress(Space),,70815.40000000596,70806.5,55293.174,55293.29999999702,55309.84,70826.656,,,,,
trial,html.Screen,4_0_0,2023-10-30T22:38:36.144Z,,0,1,,5002.544000002978,response,ISIC_8901133.JPG,6,ISIC_9317483.JPG,ISIC_8901133.JPG,false,1,keypress(m),500,75829.60000000894,75829.20000000298,70809.99,70815.70000000298,70826.656,75843.122,8,400,1,,ISIC_9317483.JPG
break,html.Screen,4_0_1,2023-10-30T22:38:36.145Z,,0,,,NaN,,,,,,false,,,,75831.10000000894,75830.90000000596,,75830,,75843.122,8,400,,,
break_continue,html.Screen,4_0_2,2023-10-30T22:38:36.146Z,,0,,,NaN,,,,,,false,,,,75831.40000000596,75831.40000000596,,75831.20000000298,,75843.122,8,400,,,
sequence,flow.Sequence,4_0,2023-10-30T22:38:36.146Z,,0,,,5004.744000005958,completion,,,,,false,,,,75831.70000000298,75831.40000000596,70809.99,70815.70000000298,70826.656,75843.122,8,400,,,
trial,html.Screen,4_1_0,2023-10-30T22:38:39.515Z,,0,1,,3357.078000002977,response,ISIC_6001936.JPG,7,ISIC_0033432.JPG,ISIC_0033432.JPG,false,0,keypress(z),500,79200.70000000298,79200.20000000298,75826.456,75831.79999999702,75843.122,79211.317,8,400,2,,ISIC_6001936.JPG
break,html.Screen,4_1_1,2023-10-30T22:38:39.516Z,,0,,,NaN,,,,,,false,,,,79201.70000000298,79201.60000000894,,79200.90000000596,,79211.317,8,400,,,
break_continue,html.Screen,4_1_2,2023-10-30T22:38:39.516Z,,0,,,NaN,,,,,,false,,,,79202.10000000894,79202,,79201.90000000596,,79211.317,8,400,,,
sequence,flow.Sequence,4_1,2023-10-30T22:38:39.516Z,,0,,,3358.877999999997,completion,,,,,false,,,,79202.29999999702,79202,75826.456,75831.79999999702,75843.122,79211.317,8,400,,,
trial,html.Screen,4_2_0,2023-10-30T22:38:42.899Z,,0,1,,3372.7830000089452,response,ISIC_0013688.JPG,8,ISIC_4252285.JPG,ISIC_4252285.JPG,false,0,keypress(z),500,82584.5,82584.10000000894,79194.651,79202.29999999702,79211.317,82594.515,8,400,3,,ISIC_0013688.JPG
break,html.Screen,4_2_1,2023-10-30T22:38:42.900Z,,0,,,NaN,,,,,,false,,,,82585.70000000298,82585.5,,82584.79999999702,,82594.515,8,400,,,
break_continue,html.Screen,4_2_2,2023-10-30T22:38:42.900Z,,0,,,NaN,,,,,,false,,,,82586.10000000894,82585.90000000596,,82585.90000000596,,82594.515,8,400,,,
sequence,flow.Sequence,4_2,2023-10-30T22:38:42.900Z,,0,,,3374.583000005965,completion,,,,,false,,,,82586.20000000298,82585.90000000596,79194.651,79202.29999999702,79211.317,82594.515,8,400,,,
trial,html.Screen,4_3_0,2023-10-30T22:38:45.945Z,,0,1,,3036.185000002981,response,ISIC_5132214.JPG,8,ISIC_6225409.JPG,ISIC_6225409.JPG,false,0,keypress(z),500,85631.20000000298,85630.70000000298,82577.849,82586.40000000596,82594.515,85644.393,8,400,4,,ISIC_5132214.JPG
break,html.Screen,4_3_1,2023-10-30T22:38:45.946Z,,0,,,NaN,,,,,,false,,,,85632.40000000596,85632.10000000894,,85631.5,,85644.393,8,400,,,
break_continue,html.Screen,4_3_2,2023-10-30T22:38:45.947Z,,0,,,NaN,,,,,,false,,,,85632.70000000298,85632.70000000298,,85632.5,,85644.393,8,400,,,
sequence,flow.Sequence,4_3,2023-10-30T22:38:45.947Z,,0,,,3038.185000002981,completion,,,,,false,,,,85632.90000000596,85632.70000000298,82577.849,82586.29999999702,82594.515,85644.393,8,400,,,
trial,html.Screen,4_4_0,2023-10-30T22:38:50.032Z,,0,1,,4073.2070000089443,response,ISIC_2268341.JPG,7,ISIC_0060817.JPG,ISIC_2268341.JPG,false,1,keypress(m),500,89718.10000000894,89717.60000000894,85627.727,85633,85644.393,89728.166,8,400,5,,ISIC_0060817.JPG
break,html.Screen,4_4_1,2023-10-30T22:38:50.033Z,,0,,,NaN,,,,,,false,,,,89719.20000000298,89719.10000000894,,89718.40000000596,,89728.166,8,400,,,
break_continue,html.Screen,4_4_2,2023-10-30T22:38:50.033Z,,0,,,NaN,,,,,,false,,,,89719.70000000298,89719.5,,89719.40000000596,,89728.166,8,400,,,
sequence,flow.Sequence,4_4,2023-10-30T22:38:50.034Z,,0,,,4075.1070000000036,completion,,,,,false,,,,89719.90000000596,89719.5,85627.727,85632.90000000596,85644.393,89728.166,8,400,,,
trial,html.Screen,4_5_0,2023-10-30T22:38:54.427Z,,0,1,,4385.133999997022,response,ISIC_6507792.JPG,7,ISIC_7839712.JPG,ISIC_7839712.JPG,false,0,keypress(z),500,94113.70000000298,94113.29999999702,89711.5,89720,89728.166,94127.99,8,400,6,,ISIC_6507792.JPG
break,html.Screen,4_5_1,2023-10-30T22:38:54.428Z,,0,,,NaN,,,,,,false,,,,94114.90000000596,94114.79999999702,,94114,,94127.99,8,400,,,
break_continue,html.Screen,4_5_2,2023-10-30T22:38:54.429Z,,0,,,NaN,,,,,,false,,,,94115.29999999702,94115.20000000298,,94115.10000000894,,94127.99,8,400,,,
sequence,flow.Sequence,4_5,2023-10-30T22:38:54.429Z,,0,,,4387.034000002983,completion,,,,,false,,,,94115.40000000596,94115.20000000298,89711.5,89720,89728.166,94127.99,8,400,,,
trial,html.Screen,4_6_0,2023-10-30T22:38:58.498Z,,0,1,,4055.910000005955,response,ISIC_3239813.JPG,6,ISIC_1531204.JPG,ISIC_1531204.JPG,false,0,keypress(z),500,98184.29999999702,98183.90000000596,94111.324,94115.60000000894,94127.99,98194.494,8,400,7,,ISIC_3239813.JPG
break,html.Screen,4_6_1,2023-10-30T22:38:58.499Z,,0,,,NaN,,,,,,false,,,,98185.60000000894,98185.40000000596,,98184.60000000894,,98194.494,8,400,,,
break_continue,html.Screen,4_6_2,2023-10-30T22:38:58.499Z,,0,,,NaN,,,,,,false,,,,98185.90000000596,98185.79999999702,,98185.70000000298,,98194.494,8,400,,,
sequence,flow.Sequence,4_6,2023-10-30T22:38:58.499Z,,0,,,4057.8099999970145,completion,,,,,false,,,,98186.10000000894,98185.79999999702,94111.324,94115.5,94127.99,98194.494,8,400,,,
trial,html.Screen,4_7_0,2023-10-30T22:39:01.384Z,,0,1,,2875.9060000059544,response,ISIC_4899386.JPG,6,ISIC_0033333.JPG,ISIC_4899386.JPG,false,1,keypress(m),500,101070.90000000596,101070.40000000596,98177.828,98186.10000000894,98194.494,101078.568,8,400,8,,ISIC_0033333.JPG
break,html.Screen,4_7_1,2023-10-30T22:39:01.385Z,,0,,,NaN,,,,,,false,,,,101072.10000000894,101071.90000000596,,101071.20000000298,,101078.568,8,400,,,
break_continue,html.Screen,4_7_2,2023-10-30T22:39:01.386Z,,0,,,NaN,,,,,,false,,,,101072.40000000596,101072.29999999702,,101072.20000000298,,101078.568,8,400,,,
sequence,flow.Sequence,4_7,2023-10-30T22:39:01.386Z,,0,,,2877.8059999970137,completion,,,,,false,,,,101072.60000000894,101072.29999999702,98177.828,98186.10000000894,98194.494,101078.568,8,400,,,
trial,html.Screen,4_8_0,2023-10-30T22:39:05.667Z,,0,1,,4274.432000000001,response,ISIC_2447578.JPG,8,ISIC_0268187.JPG,ISIC_2447578.JPG,false,1,keypress(m),500,105353.5,105353,101061.902,101072.70000000298,101078.568,105361.73,8,400,9,,ISIC_0268187.JPG
break,html.Screen,4_8_1,2023-10-30T22:39:05.668Z,,0,,,NaN,,,,,,false,,,,105354.70000000298,105354.5,,105353.70000000298,,105361.73,8,400,,,
break_continue,html.Screen,4_8_2,2023-10-30T22:39:05.668Z,,0,,,NaN,,,,,,false,,,,105355,105354.90000000596,,105354.70000000298,,105361.73,8,400,,,
sequence,flow.Sequence,4_8,2023-10-30T22:39:05.668Z,,0,,,4276.332000005961,completion,,,,,false,,,,105355.20000000298,105354.90000000596,101061.902,101072.60000000894,101078.568,105361.73,8,400,,,
trial,html.Screen,4_9_0,2023-10-30T22:39:09.115Z,,0,1,,3439.770000000004,response,ISIC_0032550.JPG,7,ISIC_8979540.JPG,ISIC_8979540.JPG,false,0,keypress(z),500,108802,108801.5,105345.064,105355.20000000298,105361.73,108811.592,8,400,10,,ISIC_0032550.JPG
break,html.Screen,4_9_1,2023-10-30T22:39:09.116Z,,0,,,NaN,,,,,,false,,,,108803.10000000894,108803,,108802.20000000298,,108811.592,8,400,,,
break_continue,html.Screen,4_9_2,2023-10-30T22:39:09.116Z,,0,,,NaN,,,,,,false,,,,108803.5,108803.40000000596,,108803.29999999702,,108811.592,8,400,,,
sequence,flow.Sequence,4_9,2023-10-30T22:39:09.117Z,,0,,,3441.6700000059645,completion,,,,,false,,,,108803.60000000894,108803.40000000596,105345.064,105355.20000000298,105361.73,108811.592,8,400,,,
trial,html.Screen,4_10_0,2023-10-30T22:39:12.498Z,,0,1,,3372.7079999970156,response,ISIC_1654342.JPG,5,ISIC_6908183.JPG,ISIC_6908183.JPG,false,0,keypress(z),500,112184.79999999702,112184.29999999702,108794.926,108803.90000000596,108811.592,112195.546,8,400,11,,ISIC_1654342.JPG
break,html.Screen,4_10_1,2023-10-30T22:39:12.499Z,,0,,,NaN,,,,,,false,,,,112185.90000000596,112185.79999999702,,112185.10000000894,,112195.546,8,400,,,
break_continue,html.Screen,4_10_2,2023-10-30T22:39:12.499Z,,0,,,NaN,,,,,,false,,,,112186.29999999702,112186.20000000298,,112186,,112195.546,8,400,,,
sequence,flow.Sequence,4_10,2023-10-30T22:39:12.499Z,,0,,,3374.608000002976,completion,,,,,false,,,,112186.5,112186.20000000298,108794.926,108803.79999999702,108811.592,112195.546,8,400,,,
trial,html.Screen,4_11_0,2023-10-30T22:39:15.468Z,,0,1,,2959.8540000059584,response,ISIC_1565767.JPG,8,ISIC_0069908.JPG,ISIC_1565767.JPG,false,1,keypress(m),500,115155.79999999702,115155.40000000596,112178.88,112186.70000000298,112195.546,115162.094,8,400,12,,ISIC_0069908.JPG
break,html.Screen,4_11_1,2023-10-30T22:39:15.470Z,,0,,,NaN,,,,,,false,,,,115156.90000000596,115156.79999999702,,115156.10000000894,,115162.094,8,400,,,
break_continue,html.Screen,4_11_2,2023-10-30T22:39:15.470Z,,0,,,NaN,,,,,,false,,,,115157.29999999702,115157.20000000298,,115157.10000000894,,115162.094,8,400,,,
sequence,flow.Sequence,4_11,2023-10-30T22:39:15.470Z,,0,,,2961.654000002978,completion,,,,,false,,,,115157.5,115157.20000000298,112178.88,112186.5,112195.546,115162.094,8,400,,,
trial,html.Screen,4_12_0,2023-10-30T22:39:19.171Z,,0,1,,3696.606000002983,response,ISIC_6732560.JPG,8,ISIC_0001572.JPG,ISIC_0001572.JPG,false,0,keypress(z),500,118859,118858.70000000298,115145.428,115157.60000000894,115162.094,118861.946,8,400,13,,ISIC_6732560.JPG
break,html.Screen,4_12_1,2023-10-30T22:39:19.173Z,,0,,,NaN,,,,,,false,,,,118860.10000000894,118859.90000000596,,118859.29999999702,,118861.946,8,400,,,
break_continue,html.Screen,4_12_2,2023-10-30T22:39:19.173Z,,0,,,NaN,,,,,,false,,,,118860.40000000596,118860.29999999702,,118860.20000000298,,118861.946,8,400,,,
sequence,flow.Sequence,4_12,2023-10-30T22:39:19.173Z,,0,,,3698.2059999970224,completion,,,,,false,,,,118860.60000000894,118860.29999999702,115145.428,115157.60000000894,115162.094,118861.946,8,400,,,
trial,html.Screen,4_13_0,2023-10-30T22:39:22.327Z,,0,1,,3152.1540000089444,response,ISIC_2212473.JPG,7,ISIC_1579745.JPG,ISIC_1579745.JPG,false,0,keypress(z),500,122014.60000000894,122014.10000000894,118845.28,118860.70000000298,118861.946,122029.13,8,400,14,,ISIC_2212473.JPG
break,html.Screen,4_13_1,2023-10-30T22:39:22.328Z,,0,,,NaN,,,,,,false,,,,122015.90000000596,122015.60000000894,,122014.90000000596,,122029.13,8,400,,,
break_continue,html.Screen,4_13_2,2023-10-30T22:39:22.329Z,,0,,,NaN,,,,,,false,,,,122016.20000000298,122016.10000000894,,122016,,122029.13,8,400,,,
sequence,flow.Sequence,4_13,2023-10-30T22:39:22.329Z,,0,,,3154.1540000089444,completion,,,,,false,,,,122016.40000000596,122016.10000000894,118845.28,118860.70000000298,118861.946,122029.13,8,400,,,
trial,html.Screen,4_14_0,2023-10-30T22:39:25.502Z,,0,1,,3160.0700000029756,response,ISIC_3065253.JPG,8,ISIC_6398669.JPG,ISIC_6398669.JPG,false,0,keypress(z),500,125189.5,125189.20000000298,122012.464,122016.60000000894,122029.13,125212.336,8,400,15,,ISIC_3065253.JPG
break,html.Screen,4_14_1,2023-10-30T22:39:25.503Z,,0,,,NaN,,,,,,false,,,,125190.60000000894,125190.5,,125189.70000000298,,125212.336,8,400,,,
break_continue,html.Screen,4_14_2,2023-10-30T22:39:25.503Z,,0,,,NaN,,,,,,false,,,,125191,125190.90000000596,,125190.70000000298,,125212.336,8,400,,,
sequence,flow.Sequence,4_14,2023-10-30T22:39:25.503Z,,0,,,3161.770000005956,completion,,,,,false,,,,125191.10000000894,125190.90000000596,122012.464,122016.5,122029.13,125212.336,8,400,,,
trial,html.Screen,4_15_0,2023-10-30T22:39:28.292Z,,0,1,,2767.463999997024,response,ISIC_4672131.JPG,6,ISIC_0033081.JPG,ISIC_4672131.JPG,false,1,keypress(m),500,127980.20000000298,127979.79999999702,125195.67,125191.20000000298,125212.336,127995.558,8,400,16,,ISIC_0033081.JPG
break,html.Screen,4_15_1,2023-10-30T22:39:28.293Z,,0,,,NaN,,,,,,false,,,,127981.29999999702,127981.20000000298,,127980.5,,127995.558,8,400,,,
break_continue,html.Screen,4_15_2,2023-10-30T22:39:28.294Z,,0,,,NaN,,,,,,false,,,,127981.70000000298,127981.60000000894,,127981.40000000596,,127995.558,8,400,,,
sequence,flow.Sequence,4_15,2023-10-30T22:39:28.294Z,,0,,,2769.264000008945,completion,,,,,false,,,,127982,127981.60000000894,125195.67,125191.20000000298,125212.336,127995.558,8,400,,,
trial,html.Screen,4_16_0,2023-10-30T22:39:31.231Z,,0,1,,2923.6420000029757,response,ISIC_0027030.JPG,5,ISIC_0072382.JPG,ISIC_0027030.JPG,false,1,keypress(m),500,130919.60000000894,130919.20000000298,127978.892,127982.10000000894,127995.558,130929.596,8,400,17,,ISIC_0072382.JPG
break,html.Screen,4_16_1,2023-10-30T22:39:31.233Z,,0,,,NaN,,,,,,false,,,,130920.90000000596,130920.60000000894,,130919.79999999702,,130929.596,8,400,,,
break_continue,html.Screen,4_16_2,2023-10-30T22:39:31.233Z,,0,,,NaN,,,,,,false,,,,130921.29999999702,130921.20000000298,,130921,,130929.596,8,400,,,
sequence,flow.Sequence,4_16,2023-10-30T22:39:31.233Z,,0,,,2925.6420000029757,completion,,,,,false,,,,130921.5,130921.20000000298,127978.892,127982,127995.558,130929.596,8,400,,,
trial,html.Screen,4_17_0,2023-10-30T22:39:34.712Z,,0,1,,3470.104000002975,response,ISIC_1108204.JPG,8,ISIC_0024999.JPG,ISIC_0024999.JPG,false,0,keypress(z),500,134400.10000000894,134399.70000000298,130912.93,130921.70000000298,130929.596,134412.79,8,400,18,,ISIC_1108204.JPG
break,html.Screen,4_17_1,2023-10-30T22:39:34.713Z,,0,,,NaN,,,,,,false,,,,134401.29999999702,134401.10000000894,,134400.5,,134412.79,8,400,,,
break_continue,html.Screen,4_17_2,2023-10-30T22:39:34.713Z,,0,,,NaN,,,,,,false,,,,134401.60000000894,134401.5,,134401.40000000596,,134412.79,8,400,,,
sequence,flow.Sequence,4_17,2023-10-30T22:39:34.714Z,,0,,,3471.903999999995,completion,,,,,false,,,,134401.79999999702,134401.5,130912.93,130921.5,130929.596,134412.79,8,400,,,
trial,html.Screen,4_18_0,2023-10-30T22:39:37.842Z,,0,1,,3116.8100000089325,response,ISIC_0059904.JPG,6,ISIC_0002862.JPG,ISIC_0059904.JPG,false,1,keypress(m),500,137530.10000000894,137529.60000000894,134396.124,134402,134412.79,137545.998,8,400,19,,ISIC_0002862.JPG
break,html.Screen,4_18_1,2023-10-30T22:39:37.843Z,,0,,,NaN,,,,,,false,,,,137531.20000000298,137531.10000000894,,137530.29999999702,,137545.998,8,400,,,
break_continue,html.Screen,4_18_2,2023-10-30T22:39:37.843Z,,0,,,NaN,,,,,,false,,,,137531.5,137531.5,,137531.40000000596,,137545.998,8,400,,,
sequence,flow.Sequence,4_18,2023-10-30T22:39:37.843Z,,0,,,3118.709999999992,completion,,,,,false,,,,137531.70000000298,137531.5,134396.124,134401.90000000596,134412.79,137545.998,8,400,,,
trial,html.Screen,4_19_0,2023-10-30T22:39:41.049Z,,0,1,,3190.702000002988,response,ISIC_3463156.JPG,8,ISIC_0033520.JPG,ISIC_3463156.JPG,false,1,keypress(m),500,140737.20000000298,140736.70000000298,137529.332,137531.90000000596,137545.998,140745.87,8,400,20,,ISIC_0033520.JPG
break,html.Screen,4_19_1,2023-10-30T22:39:41.050Z,,0,,,NaN,,,,,,false,,,,140738.40000000596,140738.20000000298,,140737.5,,140745.87,8,400,,,
break_continue,html.Screen,4_19_2,2023-10-30T22:39:41.050Z,,0,,,NaN,,,,,,false,,,,140738.70000000298,140738.60000000894,,140738.5,,140745.87,8,400,,,
sequence,flow.Sequence,4_19,2023-10-30T22:39:41.050Z,,0,,,3192.6020000089484,completion,,,,,false,,,,140738.79999999702,140738.60000000894,137529.332,137531.90000000596,137545.998,140745.87,8,400,,,
trial,html.Screen,4_20_0,2023-10-30T22:39:44.047Z,,0,1,,2989.530000005965,response,ISIC_2214766.JPG,8,ISIC_4236274.JPG,ISIC_4236274.JPG,false,0,keypress(z),500,143735.90000000596,143735.40000000596,140729.204,140739,140745.87,143746.448,8,400,21,,ISIC_2214766.JPG
break,html.Screen,4_20_1,2023-10-30T22:39:44.048Z,,0,,,NaN,,,,,,false,,,,143737,143736.79999999702,,143736.20000000298,,143746.448,8,400,,,
break_continue,html.Screen,4_20_2,2023-10-30T22:39:44.049Z,,0,,,NaN,,,,,,false,,,,143737.29999999702,143737.20000000298,,143737.20000000298,,143746.448,8,400,,,
sequence,flow.Sequence,4_20,2023-10-30T22:39:44.049Z,,0,,,2991.330000002985,completion,,,,,false,,,,143737.60000000894,143737.20000000298,140729.204,140739,140745.87,143746.448,8,400,,,
trial,html.Screen,4_21_0,2023-10-30T22:39:46.965Z,,0,1,,2907.2520000029763,response,ISIC_4559115.JPG,8,ISIC_8535451.JPG,ISIC_8535451.JPG,false,0,keypress(z),500,146654.10000000894,146653.70000000298,143729.782,143737.70000000298,143746.448,146662.998,8,400,22,,ISIC_4559115.JPG
break,html.Screen,4_21_1,2023-10-30T22:39:46.966Z,,0,,,NaN,,,,,,false,,,,146655.20000000298,146655.10000000894,,146654.5,,146662.998,8,400,,,
break_continue,html.Screen,4_21_2,2023-10-30T22:39:46.967Z,,0,,,NaN,,,,,,false,,,,146655.70000000298,146655.60000000894,,146655.29999999702,,146662.998,8,400,,,
sequence,flow.Sequence,4_21,2023-10-30T22:39:46.967Z,,0,,,2909.1520000089367,completion,,,,,false,,,,146655.79999999702,146655.60000000894,143729.782,143737.70000000298,143746.448,146662.998,8,400,,,
trial,html.Screen,4_22_0,2023-10-30T22:39:49.882Z,,0,1,,2907.6020000089484,response,ISIC_0032782.JPG,7,ISIC_1132496.JPG,ISIC_1132496.JPG,false,0,keypress(z),500,149571.10000000894,149570.60000000894,146646.332,146656,146662.998,149579.548,8,400,23,,ISIC_0032782.JPG
break,html.Screen,4_22_1,2023-10-30T22:39:49.883Z,,0,,,NaN,,,,,,false,,,,149572.20000000298,149572,,149571.29999999702,,149579.548,8,400,,,
break_continue,html.Screen,4_22_2,2023-10-30T22:39:49.884Z,,0,,,NaN,,,,,,false,,,,149572.5,149572.40000000596,,149572.29999999702,,149579.548,8,400,,,
sequence,flow.Sequence,4_22,2023-10-30T22:39:49.884Z,,0,,,2909.402000005968,completion,,,,,false,,,,149572.70000000298,149572.40000000596,146646.332,146656,146662.998,149579.548,8,400,,,
trial,html.Screen,4_23_0,2023-10-30T22:39:52.735Z,,0,1,,2844.25199999701,response,ISIC_0028618.JPG,6,ISIC_5015378.JPG,ISIC_0028618.JPG,false,1,keypress(m),500,152424.20000000298,152423.79999999702,149562.882,149572.79999999702,149579.548,152430.207,8,400,24,,ISIC_5015378.JPG
break,html.Screen,4_23_1,2023-10-30T22:39:52.736Z,,0,,,NaN,,,,,,false,,,,152425.29999999702,152425.10000000894,,152424.5,,152430.207,8,400,,,
break_continue,html.Screen,4_23_2,2023-10-30T22:39:52.737Z,,0,,,NaN,,,,,,false,,,,152425.60000000894,152425.5,,152425.40000000596,,152430.207,8,400,,,
sequence,flow.Sequence,4_23,2023-10-30T22:39:52.737Z,,0,,,2845.95199999999,completion,,,,,false,,,,152425.79999999702,152425.5,149562.882,149572.79999999702,149579.548,152430.207,8,400,,,
trial,html.Screen,4_24_0,2023-10-30T22:39:55.447Z,,0,1,,2704.9930000029854,response,ISIC_9696502.JPG,8,ISIC_7416587.JPG,ISIC_9696502.JPG,false,1,keypress(m),500,155135.70000000298,155135.20000000298,152413.541,152426,152430.207,155146.765,8,400,25,,ISIC_7416587.JPG
break,html.Screen,4_24_1,2023-10-30T22:39:55.448Z,,0,,,NaN,,,,,,false,,,,155136.90000000596,155136.60000000894,,155135.90000000596,,155146.765,8,400,,,
break_continue,html.Screen,4_24_2,2023-10-30T22:39:55.448Z,,0,,,NaN,,,,,,false,,,,155137.10000000894,155137.10000000894,,155136.90000000596,,155146.765,8,400,,,
sequence,flow.Sequence,4_24,2023-10-30T22:39:55.448Z,,0,,,2706.893000008946,completion,,,,,false,,,,155137.29999999702,155137.10000000894,152413.541,152426,152430.207,155146.765,8,400,,,
trial,html.Screen,4_25_0,2023-10-30T22:39:58.780Z,,0,1,,3321.9350000029663,response,ISIC_5971591.JPG,8,ISIC_0010895.JPG,ISIC_0010895.JPG,false,0,keypress(z),500,158469.29999999702,158468.70000000298,155130.099,155137.5,155146.765,158479.965,8,400,26,,ISIC_5971591.JPG
break,html.Screen,4_25_1,2023-10-30T22:39:58.781Z,,0,,,NaN,,,,,,false,,,,158470.29999999702,158470.20000000298,,158469.60000000894,,158479.965,8,400,,,
break_continue,html.Screen,4_25_2,2023-10-30T22:39:58.781Z,,0,,,NaN,,,,,,false,,,,158470.70000000298,158470.60000000894,,158470.5,,158479.965,8,400,,,
sequence,flow.Sequence,4_25,2023-10-30T22:39:58.782Z,,0,,,3323.8350000089267,completion,,,,,false,,,,158470.90000000596,158470.60000000894,155130.099,155137.40000000596,155146.765,158479.965,8,400,,,
trial,html.Screen,4_26_0,2023-10-30T22:40:01.539Z,,0,1,,2747.5350000000035,response,ISIC_0003851.JPG,8,ISIC_0024990.JPG,ISIC_0003851.JPG,false,1,keypress(m),500,161228,161227.5,158463.299,158471,158479.965,161229.855,8,400,27,,ISIC_0024990.JPG
break,html.Screen,4_26_1,2023-10-30T22:40:01.540Z,,0,,,NaN,,,,,,false,,,,161229.10000000894,161228.90000000596,,161228.29999999702,,161229.855,8,400,,,
break_continue,html.Screen,4_26_2,2023-10-30T22:40:01.540Z,,0,,,NaN,,,,,,false,,,,161229.5,161229.29999999702,,161229.20000000298,,161229.855,8,400,,,
sequence,flow.Sequence,4_26,2023-10-30T22:40:01.540Z,,0,,,2749.3349999970233,completion,,,,,false,,,,161229.60000000894,161229.29999999702,158463.299,158470.90000000596,158479.965,161229.855,8,400,,,
trial,html.Screen,4_27_0,2023-10-30T22:40:04.394Z,,0,1,,2853.1449999999895,response,ISIC_0046908.JPG,8,ISIC_8766254.JPG,ISIC_0046908.JPG,false,1,keypress(m),500,164083.40000000596,164083,161213.189,161229.70000000298,161229.855,164097.093,8,400,28,,ISIC_8766254.JPG
break,html.Screen,4_27_1,2023-10-30T22:40:04.395Z,,0,,,NaN,,,,,,false,,,,164084.70000000298,164084.40000000596,,164083.70000000298,,164097.093,8,400,,,
break_continue,html.Screen,4_27_2,2023-10-30T22:40:04.395Z,,0,,,NaN,,,,,,false,,,,164085,164084.79999999702,,164084.70000000298,,164097.093,8,400,,,
sequence,flow.Sequence,4_27,2023-10-30T22:40:04.396Z,,0,,,2854.9449999970093,completion,,,,,false,,,,164085.10000000894,164084.79999999702,161213.189,161229.60000000894,161229.855,164097.093,8,400,,,
trial,html.Screen,4_28_0,2023-10-30T22:40:07.601Z,,0,1,,3192.9070000000065,response,ISIC_2720971.JPG,5,ISIC_0031304.JPG,ISIC_0031304.JPG,false,0,keypress(z),500,167290.5,167290,164080.427,164085.29999999702,164097.093,167296.965,8,400,29,,ISIC_2720971.JPG
break,html.Screen,4_28_1,2023-10-30T22:40:07.602Z,,0,,,NaN,,,,,,false,,,,167291.60000000894,167291.40000000596,,167290.79999999702,,167296.965,8,400,,,
break_continue,html.Screen,4_28_2,2023-10-30T22:40:07.602Z,,0,,,NaN,,,,,,false,,,,167292,167291.79999999702,,167291.70000000298,,167296.965,8,400,,,
sequence,flow.Sequence,4_28,2023-10-30T22:40:07.602Z,,0,,,3194.7069999970263,completion,,,,,false,,,,167292.10000000894,167291.79999999702,164080.427,164085.20000000298,164097.093,167296.965,8,400,,,
trial,html.Screen,4_29_0,2023-10-30T22:40:10.712Z,,0,1,,3103.935000005964,response,ISIC_1457687.JPG,6,ISIC_0058158.JPG,ISIC_0058158.JPG,false,0,keypress(z),500,170401.40000000596,170400.90000000596,167280.299,167292.20000000298,167296.965,170413.507,8,400,30,,ISIC_1457687.JPG
break,html.Screen,4_29_1,2023-10-30T22:40:10.713Z,,0,,,NaN,,,,,,false,,,,170402.60000000894,170402.5,,170401.70000000298,,170413.507,8,400,,,
break_continue,html.Screen,4_29_2,2023-10-30T22:40:10.713Z,,0,,,NaN,,,,,,false,,,,170402.90000000596,170402.90000000596,,170402.70000000298,,170413.507,8,400,,,
sequence,flow.Sequence,4_29,2023-10-30T22:40:10.713Z,,0,,,3105.935000005964,completion,,,,,false,,,,170403.20000000298,170402.90000000596,167280.299,167292.10000000894,167296.965,170413.507,8,400,,,
trial,html.Screen,4_30_0,2023-10-30T22:40:13.662Z,,0,1,,2938.193000002968,response,ISIC_0033711.JPG,8,ISIC_0032604.JPG,ISIC_0032604.JPG,false,0,keypress(z),500,173352.20000000298,173351.70000000298,170396.841,170403.29999999702,170413.507,173364.077,8,400,31,,ISIC_0033711.JPG
break,html.Screen,4_30_1,2023-10-30T22:40:13.663Z,,0,,,NaN,,,,,,false,,,,173353.40000000596,173353.10000000894,,173352.5,,173364.077,8,400,,,
break_continue,html.Screen,4_30_2,2023-10-30T22:40:13.664Z,,0,,,NaN,,,,,,false,,,,173353.60000000894,173353.5,,173353.5,,173364.077,8,400,,,
sequence,flow.Sequence,4_30,2023-10-30T22:40:13.664Z,,0,,,2939.9929999999877,completion,,,,,false,,,,173353.79999999702,173353.5,170396.841,170403.20000000298,170413.507,173364.077,8,400,,,
trial,html.Screen,4_31_0,2023-10-30T22:40:17.333Z,,0,1,,3658.92300000001,response,ISIC_2940684.JPG,7,ISIC_0033643.JPG,ISIC_2940684.JPG,false,1,keypress(m),500,177023.40000000596,177023,173347.411,173353.90000000596,173364.077,177030.597,8,400,32,,ISIC_0033643.JPG
break,html.Screen,4_31_1,2023-10-30T22:40:17.334Z,,0,,,NaN,,,,,,false,,,,177024.5,177024.40000000596,,177023.79999999702,,177030.597,8,400,,,
break_continue,html.Screen,4_31_2,2023-10-30T22:40:17.335Z,,0,,,NaN,,,,,,false,,,,177024.90000000596,177024.70000000298,,177024.70000000298,,177030.597,8,400,,,
sequence,flow.Sequence,4_31,2023-10-30T22:40:17.335Z,,0,,,3660.62300000299,completion,,,,,false,,,,177025,177024.70000000298,173347.411,173353.90000000596,173364.077,177030.597,8,400,,,
trial,html.Screen,4_32_0,2023-10-30T22:40:20.302Z,,0,1,,2961.1030000029714,response,ISIC_4383671.JPG,5,ISIC_0026730.JPG,ISIC_0026730.JPG,false,0,keypress(z),500,179992.20000000298,179991.70000000298,177013.931,177025.29999999702,177030.597,179997.145,8,400,33,,ISIC_4383671.JPG
break,html.Screen,4_32_1,2023-10-30T22:40:20.303Z,,0,,,NaN,,,,,,false,,,,179993.40000000596,179993.20000000298,,179992.5,,179997.145,8,400,,,
break_continue,html.Screen,4_32_2,2023-10-30T22:40:20.303Z,,0,,,NaN,,,,,,false,,,,179993.70000000298,179993.5,,179993.40000000596,,179997.145,8,400,,,
sequence,flow.Sequence,4_32,2023-10-30T22:40:20.304Z,,0,,,2962.902999999991,completion,,,,,false,,,,179993.79999999702,179993.5,177013.931,177025.10000000894,177030.597,179997.145,8,400,,,
trial,html.Screen,4_33_0,2023-10-30T22:40:23.414Z,,0,1,,3106.455000008951,response,ISIC_0274382.JPG,6,ISIC_0033938.JPG,ISIC_0033938.JPG,false,0,keypress(z),500,183104.10000000894,183103.60000000894,179980.479,179993.90000000596,179997.145,183114.477,8,400,34,,ISIC_0274382.JPG
break,html.Screen,4_33_1,2023-10-30T22:40:23.415Z,,0,,,NaN,,,,,,false,,,,183105.20000000298,183105,,183104.40000000596,,183114.477,8,400,,,
break_continue,html.Screen,4_33_2,2023-10-30T22:40:23.415Z,,0,,,NaN,,,,,,false,,,,183105.5,183105.40000000596,,183105.29999999702,,183114.477,8,400,,,
sequence,flow.Sequence,4_33,2023-10-30T22:40:23.415Z,,0,,,3108.255000005971,completion,,,,,false,,,,183105.70000000298,183105.40000000596,179980.479,179993.90000000596,179997.145,183114.477,8,400,,,
trial,html.Screen,4_34_0,2023-10-30T22:40:26.651Z,,0,1,,3226.7230000029667,response,ISIC_2126084.JPG,7,ISIC_5961333.JPG,ISIC_5961333.JPG,false,0,keypress(z),500,186341.79999999702,186341.20000000298,183097.811,183105.90000000596,183114.477,186347.681,8,400,35,,ISIC_2126084.JPG
break,html.Screen,4_34_1,2023-10-30T22:40:26.652Z,,0,,,NaN,,,,,,false,,,,186342.90000000596,186342.70000000298,,186342.10000000894,,186347.681,8,400,,,
break_continue,html.Screen,4_34_2,2023-10-30T22:40:26.653Z,,0,,,NaN,,,,,,false,,,,186343.29999999702,186343.10000000894,,186343,,186347.681,8,400,,,
sequence,flow.Sequence,4_34,2023-10-30T22:40:26.653Z,,0,,,3228.623000008927,completion,,,,,false,,,,186343.40000000596,186343.10000000894,183097.811,183105.79999999702,183114.477,186347.681,8,400,,,
trial,html.Screen,4_35_0,2023-10-30T22:40:29.410Z,,0,1,,2752.1189999970084,response,ISIC_2245709.JPG,8,ISIC_9348809.JPG,ISIC_2245709.JPG,false,1,keypress(m),500,189100.20000000298,189099.79999999702,186331.015,186343.60000000894,186347.681,189114.237,8,400,36,,ISIC_9348809.JPG
break,html.Screen,4_35_1,2023-10-30T22:40:29.411Z,,0,,,NaN,,,,,,false,,,,189101.29999999702,189101.20000000298,,189100.5,,189114.237,8,400,,,
break_continue,html.Screen,4_35_2,2023-10-30T22:40:29.411Z,,0,,,NaN,,,,,,false,,,,189101.70000000298,189101.60000000894,,189101.40000000596,,189114.237,8,400,,,
sequence,flow.Sequence,4_35,2023-10-30T22:40:29.411Z,,0,,,2753.9190000089293,completion,,,,,false,,,,189101.79999999702,189101.60000000894,186331.015,186343.5,186347.681,189114.237,8,400,,,
trial,html.Screen,4_36_0,2023-10-30T22:40:32.073Z,,0,1,,2648.7630000000063,response,ISIC_0057696.JPG,8,ISIC_3448630.JPG,ISIC_0057696.JPG,false,1,keypress(m),500,191763.5,191763,189097.571,189102,189114.237,191780.797,8,400,37,,ISIC_3448630.JPG
break,html.Screen,4_36_1,2023-10-30T22:40:32.074Z,,0,,,NaN,,,,,,false,,,,191764.60000000894,191764.40000000596,,191763.70000000298,,191780.797,8,400,,,
break_continue,html.Screen,4_36_2,2023-10-30T22:40:32.074Z,,0,,,NaN,,,,,,false,,,,191764.90000000596,191764.79999999702,,191764.70000000298,,191780.797,8,400,,,
sequence,flow.Sequence,4_36,2023-10-30T22:40:32.074Z,,0,,,2650.562999997026,completion,,,,,false,,,,191765.10000000894,191764.79999999702,189097.571,189101.90000000596,189114.237,191780.797,8,400,,,
trial,html.Screen,4_37_0,2023-10-30T22:40:35.810Z,,0,1,,3719.903000002989,response,ISIC_6024335.JPG,8,ISIC_0053541.JPG,ISIC_0053541.JPG,false,0,keypress(z),500,195501.20000000298,195500.70000000298,191764.131,191765.20000000298,191780.797,195514.711,8,400,38,,ISIC_6024335.JPG
break,html.Screen,4_37_1,2023-10-30T22:40:35.811Z,,0,,,NaN,,,,,,false,,,,195502.29999999702,195502.20000000298,,195501.5,,195514.711,8,400,,,
break_continue,html.Screen,4_37_2,2023-10-30T22:40:35.812Z,,0,,,NaN,,,,,,false,,,,195502.60000000894,195502.5,,195502.40000000596,,195514.711,8,400,,,
sequence,flow.Sequence,4_37,2023-10-30T22:40:35.812Z,,0,,,3721.7030000000086,completion,,,,,false,,,,195502.90000000596,195502.5,191764.131,191765.20000000298,191780.797,195514.711,8,400,,,
trial,html.Screen,4_38_0,2023-10-30T22:40:38.633Z,,0,1,,2808.98900000297,response,ISIC_0029508.JPG,5,ISIC_5294540.JPG,ISIC_0029508.JPG,false,1,keypress(m),500,198324.20000000298,198323.70000000298,195498.045,195503,195514.711,198331.265,8,400,39,,ISIC_5294540.JPG
break,html.Screen,4_38_1,2023-10-30T22:40:38.634Z,,0,,,NaN,,,,,,false,,,,198325.29999999702,198325.20000000298,,198324.5,,198331.265,8,400,,,
break_continue,html.Screen,4_38_2,2023-10-30T22:40:38.635Z,,0,,,NaN,,,,,,false,,,,198325.70000000298,198325.60000000894,,198325.40000000596,,198331.265,8,400,,,
sequence,flow.Sequence,4_38,2023-10-30T22:40:38.635Z,,0,,,2810.8890000089305,completion,,,,,false,,,,198325.79999999702,198325.60000000894,195498.045,195502.90000000596,195514.711,198331.265,8,400,,,
trial,html.Screen,4_39_0,2023-10-30T22:40:41.376Z,,0,1,,2734.9350000029663,response,ISIC_0010789.JPG,8,ISIC_0056707.JPG,ISIC_0010789.JPG,false,1,keypress(m),500,201066.79999999702,201066.20000000298,198314.599,198326.20000000298,198331.265,201081.155,8,400,40,,ISIC_0056707.JPG
break,html.Screen,4_39_1,2023-10-30T22:40:41.377Z,,0,,,NaN,,,,,,false,,,,201067.90000000596,201067.70000000298,,201067,,201081.155,8,400,,,
break_continue,html.Screen,4_39_2,2023-10-30T22:40:41.377Z,,0,,,NaN,,,,,,false,,,,201068.20000000298,201068.10000000894,,201068,,201081.155,8,400,,,
sequence,flow.Sequence,4_39,2023-10-30T22:40:41.377Z,,0,,,2736.8350000089267,completion,,,,,false,,,,201068.29999999702,201068.10000000894,198314.599,198326.10000000894,198331.265,201081.155,8,400,,,
trial,html.Screen,4_40_0,2023-10-30T22:40:44.357Z,,0,1,,2966.445000008942,response,ISIC_0011381.JPG,7,ISIC_7205745.JPG,ISIC_0011381.JPG,false,1,keypress(m),500,204048.10000000894,204047.60000000894,201064.489,201068.5,201081.155,204065.031,8,400,41,,ISIC_7205745.JPG
break,html.Screen,4_40_1,2023-10-30T22:40:44.358Z,,0,,,NaN,,,,,,false,,,,204049.29999999702,204049,,204048.40000000596,,204065.031,8,400,,,
break_continue,html.Screen,4_40_2,2023-10-30T22:40:44.358Z,,0,,,NaN,,,,,,false,,,,204049.60000000894,204049.5,,204049.29999999702,,204065.031,8,400,,,
sequence,flow.Sequence,4_40,2023-10-30T22:40:44.358Z,,0,,,2968.345000000001,completion,,,,,false,,,,204049.70000000298,204049.5,201064.489,201068.40000000596,201081.155,204065.031,8,400,,,
trial,html.Screen,4_41_0,2023-10-30T22:40:47.101Z,,0,1,,2727.2689999970316,response,ISIC_0053485.JPG,8,ISIC_0011763.JPG,ISIC_0011763.JPG,false,0,keypress(z),500,206792.79999999702,206792.29999999702,204048.365,204049.79999999702,204065.031,206798.255,8,400,42,,ISIC_0053485.JPG
break,html.Screen,4_41_1,2023-10-30T22:40:47.102Z,,0,,,NaN,,,,,,false,,,,206793.79999999702,206793.70000000298,,206793,,206798.255,8,400,,,
break_continue,html.Screen,4_41_2,2023-10-30T22:40:47.103Z,,0,,,NaN,,,,,,false,,,,206794.29999999702,206794.10000000894,,206794,,206798.255,8,400,,,
sequence,flow.Sequence,4_41,2023-10-30T22:40:47.103Z,,0,,,2729.0690000089526,completion,,,,,false,,,,206794.5,206794.10000000894,204048.365,204049.79999999702,204065.031,206798.255,8,400,,,
trial,html.Screen,4_42_0,2023-10-30T22:40:50.424Z,,0,1,,3317.044999997015,response,ISIC_0070051.JPG,5,ISIC_0027928.JPG,ISIC_0027928.JPG,false,0,keypress(z),500,210115.40000000596,210115.29999999702,206781.589,206794.60000000894,206798.255,210131.455,8,400,43,,ISIC_0070051.JPG
break,html.Screen,4_42_1,2023-10-30T22:40:50.424Z,,0,,,NaN,,,,,,false,,,,210115.70000000298,210115.60000000894,,210115.40000000596,,210131.455,8,400,,,
break_continue,html.Screen,4_42_2,2023-10-30T22:40:50.424Z,,0,,,NaN,,,,,,false,,,,210115.70000000298,210115.70000000298,,210115.70000000298,,210131.455,8,400,,,
sequence,flow.Sequence,4_42,2023-10-30T22:40:50.424Z,,0,,,3317.4450000029756,completion,,,,,false,,,,210115.70000000298,210115.70000000298,206781.589,206794.60000000894,206798.255,210131.455,8,400,,,
trial,html.Screen,4_43_0,2023-10-30T22:40:53.658Z,,0,1,,3217.6450000089535,response,ISIC_0056326.JPG,6,ISIC_3688362.JPG,ISIC_3688362.JPG,false,0,keypress(z),500,213349.60000000894,213349.10000000894,210114.789,210115.79999999702,210131.455,213365.497,8,400,44,,ISIC_0056326.JPG
break,html.Screen,4_43_1,2023-10-30T22:40:53.659Z,,0,,,NaN,,,,,,false,,,,213350.79999999702,213350.60000000894,,213349.90000000596,,213365.497,8,400,,,
break_continue,html.Screen,4_43_2,2023-10-30T22:40:53.659Z,,0,,,NaN,,,,,,false,,,,213351.10000000894,213351.10000000894,,213350.90000000596,,213365.497,8,400,,,
sequence,flow.Sequence,4_43,2023-10-30T22:40:53.660Z,,0,,,3219.6450000089535,completion,,,,,false,,,,213351.20000000298,213351.10000000894,210114.789,210115.70000000298,210131.455,213365.497,8,400,,,
trial,html.Screen,4_44_0,2023-10-30T22:40:56.530Z,,0,1,,2855.502999999997,response,ISIC_0218072.JPG,8,ISIC_0033530.JPG,ISIC_0033530.JPG,false,0,keypress(z),500,216221.5,216221,213348.831,213351.40000000596,213365.497,216232.049,8,400,45,,ISIC_0218072.JPG
break,html.Screen,4_44_1,2023-10-30T22:40:56.531Z,,0,,,NaN,,,,,,false,,,,216222.5,216222.40000000596,,216221.79999999702,,216232.049,8,400,,,
break_continue,html.Screen,4_44_2,2023-10-30T22:40:56.531Z,,0,,,NaN,,,,,,false,,,,216222.70000000298,216222.60000000894,,216222.60000000894,,216232.049,8,400,,,
sequence,flow.Sequence,4_44,2023-10-30T22:40:56.531Z,,0,,,2857.1030000089377,completion,,,,,false,,,,216222.79999999702,216222.60000000894,213348.831,213351.40000000596,213365.497,216232.049,8,400,,,
trial,html.Screen,4_45_0,2023-10-30T22:41:00.405Z,,0,1,,3864.7509999970207,response,ISIC_0012263.JPG,8,ISIC_0056155.JPG,ISIC_0012263.JPG,false,1,keypress(m),500,220097.29999999702,220096.79999999702,216215.383,216222.90000000596,216232.049,220115.227,8,400,46,,ISIC_0056155.JPG
break,html.Screen,4_45_1,2023-10-30T22:41:00.406Z,,0,,,NaN,,,,,,false,,,,220098.40000000596,220098.20000000298,,220097.60000000894,,220115.227,8,400,,,
break_continue,html.Screen,4_45_2,2023-10-30T22:41:00.407Z,,0,,,NaN,,,,,,false,,,,220098.70000000298,220098.60000000894,,220098.5,,220115.227,8,400,,,
sequence,flow.Sequence,4_45,2023-10-30T22:41:00.407Z,,0,,,3866.5510000089416,completion,,,,,false,,,,220098.90000000596,220098.60000000894,216215.383,216222.90000000596,216232.049,220115.227,8,400,,,
trial,html.Screen,4_46_0,2023-10-30T22:41:03.116Z,,0,1,,2692.4730000029667,response,ISIC_7298784.JPG,9,ISIC_0014270.JPG,ISIC_0014270.JPG,false,0,keypress(z),500,222808.20000000298,222807.70000000298,220098.561,220099.10000000894,220115.227,222815.119,8,400,47,,ISIC_7298784.JPG
break,html.Screen,4_46_1,2023-10-30T22:41:03.117Z,,0,,,NaN,,,,,,false,,,,222809.29999999702,222809,,222808.40000000596,,222815.119,8,400,,,
break_continue,html.Screen,4_46_2,2023-10-30T22:41:03.118Z,,0,,,NaN,,,,,,false,,,,222809.60000000894,222809.60000000894,,222809.40000000596,,222815.119,8,400,,,
sequence,flow.Sequence,4_46,2023-10-30T22:41:03.118Z,,0,,,2694.373000008927,completion,,,,,false,,,,222809.79999999702,222809.60000000894,220098.561,220099,220115.227,222815.119,8,400,,,
trial,html.Screen,4_47_0,2023-10-30T22:41:05.906Z,,0,1,,2782.380999999994,response,ISIC_0068438.JPG,7,ISIC_8603734.JPG,ISIC_0068438.JPG,false,1,keypress(m),500,225598.10000000894,225597.5,222798.453,222810,222815.119,225599.051,8,400,48,,ISIC_8603734.JPG
break,html.Screen,4_47_1,2023-10-30T22:41:05.907Z,,0,,,NaN,,,,,,false,,,,225599.20000000298,225599,,225598.29999999702,,225599.051,8,400,,,
break_continue,html.Screen,4_47_2,2023-10-30T22:41:05.907Z,,0,,,NaN,,,,,,false,,,,225599.60000000894,225599.40000000596,,225599.29999999702,,225599.051,8,400,,,
sequence,flow.Sequence,4_47,2023-10-30T22:41:05.907Z,,0,,,2784.2810000059544,completion,,,,,false,,,,225599.70000000298,225599.40000000596,222798.453,222809.90000000596,222815.119,225599.051,8,400,,,
trial,html.Screen,4_48_0,2023-10-30T22:41:09.050Z,,0,1,,3142.6490000029735,response,ISIC_3750329.JPG,9,ISIC_0013969.JPG,ISIC_3750329.JPG,false,1,keypress(m),500,228742.29999999702,228741.70000000298,225582.385,225599.79999999702,225599.051,228748.925,8,400,49,,ISIC_0013969.JPG
break,html.Screen,4_48_1,2023-10-30T22:41:09.051Z,,0,,,NaN,,,,,,false,,,,228743.5,228743.20000000298,,228742.5,,228748.925,8,400,,,
break_continue,html.Screen,4_48_2,2023-10-30T22:41:09.051Z,,0,,,NaN,,,,,,false,,,,228743.79999999702,228743.60000000894,,228743.5,,228748.925,8,400,,,
sequence,flow.Sequence,4_48,2023-10-30T22:41:09.052Z,,0,,,3144.549000008934,completion,,,,,false,,,,228743.90000000596,228743.60000000894,225582.385,225599.70000000298,225599.051,228748.925,8,400,,,
trial,html.Screen,4_49_0,2023-10-30T22:41:12.207Z,,0,1,,3150.475000005972,response,ISIC_5813642.JPG,8,ISIC_0065525.JPG,ISIC_5813642.JPG,false,1,keypress(m),500,231900,231899.40000000596,228732.259,228744,228748.925,231915.465,8,400,50,,ISIC_0065525.JPG
break,html.Screen,4_49_1,2023-10-30T22:41:22.208Z,,0,,,10000.325000000012,timeout,,,,,false,,,,241901.5,241899.124,231898.799,231901.40000000596,231915.465,241915.79,8,400,,,
break_continue,html.Screen,4_49_2,2023-10-30T22:41:24.044Z,,0,,,1805.6100000059523,response,,,,,false,continue,keypress(Space),,243737,243721.40000000596,241899.124,241901.60000000894,241915.79,243749.05,8,400,,,
sequence,flow.Sequence,4_49,2023-10-30T22:41:24.044Z,,0,,,14972.475000005972,completion,,,,,false,,,,243737.20000000298,243721.40000000596,228732.259,228744,228748.925,243749.05,8,400,,,
trial,html.Screen,4_50_0,2023-10-30T22:41:28.272Z,,0,2,,4215.950000000012,response,ISIC_0054677.JPG,6,ISIC_0004691.JPG,ISIC_0054677.JPG,false,1,keypress(m),500,247965.60000000894,247965,243732.384,243737.29999999702,243749.05,247982.976,8,400,1,,ISIC_0004691.JPG
break,html.Screen,4_50_1,2023-10-30T22:41:28.273Z,,0,,,NaN,,,,,,false,,,,247966.5,247966.40000000596,,247965.79999999702,,247982.976,8,400,,,
break_continue,html.Screen,4_50_2,2023-10-30T22:41:28.274Z,,0,,,NaN,,,,,,false,,,,247966.79999999702,247966.70000000298,,247966.70000000298,,247982.976,8,400,,,
sequence,flow.Sequence,4_50,2023-10-30T22:41:28.274Z,,0,,,4217.650000002992,completion,,,,,false,,,,247967,247966.70000000298,243732.384,243737.20000000298,243749.05,247982.976,8,400,,,
trial,html.Screen,4_51_0,2023-10-30T22:41:31.018Z,,0,2,,2728.3239999970247,response,ISIC_0009894.JPG,9,ISIC_0001120.JPG,ISIC_0001120.JPG,false,0,keypress(z),500,250711.5,250711.29999999702,247966.31,247967.10000000894,247982.976,250716.2,8,400,2,,ISIC_0009894.JPG
break,html.Screen,4_51_1,2023-10-30T22:41:31.019Z,,0,,,NaN,,,,,,false,,,,250711.90000000596,250711.79999999702,,250711.60000000894,,250716.2,8,400,,,
break_continue,html.Screen,4_51_2,2023-10-30T22:41:31.019Z,,0,,,NaN,,,,,,false,,,,250712.10000000894,250712,,250712,,250716.2,8,400,,,
sequence,flow.Sequence,4_51,2023-10-30T22:41:31.019Z,,0,,,2729.024000000005,completion,,,,,false,,,,250712.10000000894,250712,247966.31,247967,247982.976,250716.2,8,400,,,
trial,html.Screen,4_52_0,2023-10-30T22:41:33.743Z,,0,2,,2720.400000008929,response,ISIC_4130478.JPG,8,ISIC_2854303.JPG,ISIC_4130478.JPG,false,1,keypress(m),500,253436.79999999702,253436.60000000894,250699.534,250712.20000000298,250716.2,253449.424,8,400,3,,ISIC_2854303.JPG
break,html.Screen,4_52_1,2023-10-30T22:41:33.744Z,,0,,,NaN,,,,,,false,,,,253437.29999999702,253437.20000000298,,253436.90000000596,,253449.424,8,400,,,
break_continue,html.Screen,4_52_2,2023-10-30T22:41:33.744Z,,0,,,NaN,,,,,,false,,,,253437.5,253437.40000000596,,253437.29999999702,,253449.424,8,400,,,
sequence,flow.Sequence,4_52,2023-10-30T22:41:33.744Z,,0,,,2721.200000005949,completion,,,,,false,,,,253437.5,253437.40000000596,250699.534,250712.20000000298,250716.2,253449.424,8,400,,,
trial,html.Screen,4_53_0,2023-10-30T22:41:36.531Z,,0,2,,2775.276000002981,response,ISIC_0010162.JPG,8,ISIC_1912589.JPG,ISIC_0010162.JPG,false,1,keypress(m),500,256225,256224.70000000298,253432.758,253437.60000000894,253449.424,256233.411,8,400,4,,ISIC_1912589.JPG
break,html.Screen,4_53_1,2023-10-30T22:41:36.532Z,,0,,,NaN,,,,,,false,,,,256225.5,256225.29999999702,,256225.10000000894,,256233.411,8,400,,,
break_continue,html.Screen,4_53_2,2023-10-30T22:41:36.532Z,,0,,,NaN,,,,,,false,,,,256225.60000000894,256225.5,,256225.5,,256233.411,8,400,,,
sequence,flow.Sequence,4_53,2023-10-30T22:41:36.532Z,,0,,,2776.076000000001,completion,,,,,false,,,,256225.70000000298,256225.5,253432.758,253437.60000000894,253449.424,256233.411,8,400,,,
trial,html.Screen,4_54_0,2023-10-30T22:41:39.114Z,,0,2,,2573.9890000059677,response,ISIC_0032490.JPG,7,ISIC_7852890.JPG,ISIC_7852890.JPG,false,0,keypress(z),500,258807.60000000894,258807.40000000596,256216.745,256225.79999999702,256233.411,258816.641,8,400,5,,ISIC_0032490.JPG
break,html.Screen,4_54_1,2023-10-30T22:41:39.114Z,,0,,,NaN,,,,,,false,,,,258808.10000000894,258808,,258807.60000000894,,258816.641,8,400,,,
break_continue,html.Screen,4_54_2,2023-10-30T22:41:39.115Z,,0,,,NaN,,,,,,false,,,,258808.20000000298,258808.20000000298,,258808.20000000298,,258816.641,8,400,,,
sequence,flow.Sequence,4_54,2023-10-30T22:41:39.115Z,,0,,,2574.7890000029874,completion,,,,,false,,,,258808.20000000298,258808.20000000298,256216.745,256225.70000000298,256233.411,258816.641,8,400,,,
trial,html.Screen,4_55_0,2023-10-30T22:41:42.173Z,,0,2,,3050.3589999999967,response,ISIC_2560463.JPG,8,ISIC_0072876.JPG,ISIC_0072876.JPG,false,0,keypress(z),500,261867.20000000298,261867,258799.975,258808.29999999702,258816.641,261883.185,8,400,6,,ISIC_2560463.JPG
break,html.Screen,4_55_1,2023-10-30T22:41:42.174Z,,0,,,NaN,,,,,,false,,,,261867.90000000596,261867.79999999702,,261867.29999999702,,261883.185,8,400,,,
break_continue,html.Screen,4_55_2,2023-10-30T22:41:42.174Z,,0,,,NaN,,,,,,false,,,,261868,261868,,261868,,261883.185,8,400,,,
sequence,flow.Sequence,4_55,2023-10-30T22:41:42.174Z,,0,,,3051.3589999999967,completion,,,,,false,,,,261868.10000000894,261868,258799.975,258808.29999999702,258816.641,261883.185,8,400,,,
trial,html.Screen,4_56_0,2023-10-30T22:41:44.802Z,,0,2,,2612.715000005963,response,ISIC_0068847.JPG,6,ISIC_0013898.JPG,ISIC_0013898.JPG,false,0,keypress(z),500,264496,264495.90000000596,261866.519,261868.20000000298,261883.185,264499.747,8,400,7,,ISIC_0068847.JPG
break,html.Screen,4_56_1,2023-10-30T22:41:44.803Z,,0,,,NaN,,,,,,false,,,,264496.60000000894,264496.5,,264496.200000003,,264499.747,8,400,,,
break_continue,html.Screen,4_56_2,2023-10-30T22:41:44.803Z,,0,,,NaN,,,,,,false,,,,264496.90000000596,264496.799999997,,264496.700000003,,264499.747,8,400,,,
sequence,flow.Sequence,4_56,2023-10-30T22:41:44.803Z,,0,,,2613.614999997022,completion,,,,,false,,,,264496.90000000596,264496.799999997,261866.519,261868.10000000894,261883.185,264499.747,8,400,,,
trial,html.Screen,4_57_0,2023-10-30T22:41:47.622Z,,0,2,,2816.552999997046,response,ISIC_0034062.JPG,6,ISIC_0034222.JPG,ISIC_0034222.JPG,false,0,keypress(z),500,267316.60000000894,267316.299999997,264483.081,264496.90000000596,264499.747,267333.652,8,400,8,,ISIC_0034062.JPG
break,html.Screen,4_57_1,2023-10-30T22:41:47.623Z,,0,,,NaN,,,,,,false,,,,267317.10000000894,267317,,267316.700000003,,267333.652,8,400,,,
break_continue,html.Screen,4_57_2,2023-10-30T22:41:47.623Z,,0,,,NaN,,,,,,false,,,,267317.5,267317.40000000596,,267317.299999997,,267333.652,8,400,,,
sequence,flow.Sequence,4_57,2023-10-30T22:41:47.623Z,,0,,,2817.6530000059865,completion,,,,,false,,,,267317.60000000894,267317.40000000596,264483.081,264496.90000000596,264499.747,267333.652,8,400,,,
trial,html.Screen,4_58_0,2023-10-30T22:41:50.446Z,,0,2,,2806.2480000059586,response,ISIC_4966865.JPG,8,ISIC_0027170.JPG,ISIC_4966865.JPG,false,1,keypress(m),500,270140.200000003,270139.90000000596,267316.986,267317.700000003,267333.652,270150.206,8,400,9,,ISIC_0027170.JPG
break,html.Screen,4_58_1,2023-10-30T22:41:50.447Z,,0,,,NaN,,,,,,false,,,,270141,270140.90000000596,,270140.299999997,,270150.206,8,400,,,
break_continue,html.Screen,4_58_2,2023-10-30T22:41:50.447Z,,0,,,NaN,,,,,,false,,,,270141.299999997,270141.200000003,,270141.200000003,,270150.206,8,400,,,
sequence,flow.Sequence,4_58,2023-10-30T22:41:50.447Z,,0,,,2807.5480000029784,completion,,,,,false,,,,270141.5,270141.200000003,267316.986,267317.700000003,267333.652,270150.206,8,400,,,
trial,html.Screen,4_59_0,2023-10-30T22:41:53.476Z,,0,2,,3019.694000005955,response,ISIC_6945921.JPG,7,ISIC_0026911.JPG,ISIC_0026911.JPG,false,0,keypress(z),500,273170.200000003,273169.90000000596,270133.54,270141.700000003,270150.206,273183.418,8,400,10,,ISIC_6945921.JPG
break,html.Screen,4_59_1,2023-10-30T22:41:53.477Z,,0,,,NaN,,,,,,false,,,,273171.40000000596,273171.10000000894,,273170.5,,273183.418,8,400,,,
break_continue,html.Screen,4_59_2,2023-10-30T22:41:53.477Z,,0,,,NaN,,,,,,false,,,,273171.60000000894,273171.5,,273171.5,,273183.418,8,400,,,
sequence,flow.Sequence,4_59,2023-10-30T22:41:53.478Z,,0,,,3021.2939999999944,completion,,,,,false,,,,273171.90000000596,273171.5,270133.54,270141.60000000894,270150.206,273183.418,8,400,,,
trial,html.Screen,4_60_0,2023-10-30T22:41:56.171Z,,0,2,,2681.4820000059553,response,ISIC_0000313.JPG,7,ISIC_0072496.JPG,ISIC_0072496.JPG,false,0,keypress(z),500,275865.200000003,275864.90000000596,273166.752,273171.90000000596,273183.418,275867.364,8,400,11,,ISIC_0000313.JPG
break,html.Screen,4_60_1,2023-10-30T22:41:56.172Z,,0,,,NaN,,,,,,false,,,,275866.40000000596,275866.299999997,,275865.5,,275867.364,8,400,,,
break_continue,html.Screen,4_60_2,2023-10-30T22:41:56.172Z,,0,,,NaN,,,,,,false,,,,275866.700000003,275866.700000003,,275866.60000000894,,275867.364,8,400,,,
sequence,flow.Sequence,4_60,2023-10-30T22:41:56.172Z,,0,,,2683.282000002975,completion,,,,,false,,,,275866.90000000596,275866.700000003,273166.752,273171.90000000596,273183.418,275867.364,8,400,,,
trial,html.Screen,4_61_0,2023-10-30T22:41:59.568Z,,0,2,,3395.036000005959,response,ISIC_0009993.JPG,9,ISIC_6737771.JPG,ISIC_0009993.JPG,false,1,keypress(m),500,279262.60000000894,279262.40000000596,275850.698,275867,275867.364,279267.228,8,400,12,,ISIC_6737771.JPG
break,html.Screen,4_61_1,2023-10-30T22:41:59.569Z,,0,,,NaN,,,,,,false,,,,279263.40000000596,279263.200000003,,279262.799999997,,279267.228,8,400,,,
break_continue,html.Screen,4_61_2,2023-10-30T22:41:59.569Z,,0,,,NaN,,,,,,false,,,,279263.700000003,279263.60000000894,,279263.5,,279267.228,8,400,,,
sequence,flow.Sequence,4_61,2023-10-30T22:41:59.569Z,,0,,,3396.2360000089393,completion,,,,,false,,,,279263.90000000596,279263.60000000894,275850.698,275867,275867.364,279267.228,8,400,,,
trial,html.Screen,4_62_0,2023-10-30T22:42:02.408Z,,0,2,,2835.6720000059577,response,ISIC_0064936.JPG,8,ISIC_0046900.JPG,ISIC_0046900.JPG,false,0,keypress(z),500,282103.200000003,282102.90000000596,279250.562,279264,279267.228,282117.114,8,400,13,,ISIC_0064936.JPG
break,html.Screen,4_62_1,2023-10-30T22:42:02.409Z,,0,,,NaN,,,,,,false,,,,282104,282103.799999997,,282103.40000000596,,282117.114,8,400,,,
break_continue,html.Screen,4_62_2,2023-10-30T22:42:02.410Z,,0,,,NaN,,,,,,false,,,,282104.299999997,282104.200000003,,282104.10000000894,,282117.114,8,400,,,
sequence,flow.Sequence,4_62,2023-10-30T22:42:02.410Z,,0,,,2836.9720000029774,completion,,,,,false,,,,282104.40000000596,282104.200000003,279250.562,279264,279267.228,282117.114,8,400,,,
trial,html.Screen,4_63_0,2023-10-30T22:42:05.326Z,,0,2,,2903.4860000089393,response,ISIC_8414421.JPG,8,ISIC_6704623.JPG,ISIC_6704623.JPG,false,0,keypress(z),500,285021.200000003,285020.60000000894,282100.448,282104.5,282117.114,285033.664,8,400,14,,ISIC_8414421.JPG
break,html.Screen,4_63_1,2023-10-30T22:42:05.327Z,,0,,,NaN,,,,,,false,,,,285022.200000003,285022.10000000894,,285021.40000000596,,285033.664,8,400,,,
break_continue,html.Screen,4_63_2,2023-10-30T22:42:05.328Z,,0,,,NaN,,,,,,false,,,,285022.60000000894,285022.5,,285022.299999997,,285033.664,8,400,,,
sequence,flow.Sequence,4_63,2023-10-30T22:42:05.328Z,,0,,,2905.3859999999986,completion,,,,,false,,,,285022.90000000596,285022.5,282100.448,282104.5,282117.114,285033.664,8,400,,,
trial,html.Screen,4_64_0,2023-10-30T22:42:08.070Z,,0,2,,2730.936000008951,response,ISIC_0057661.JPG,8,ISIC_7161069.JPG,ISIC_7161069.JPG,false,0,keypress(z),500,287764.90000000596,287764.60000000894,285016.998,285023.10000000894,285033.664,287767.642,8,400,15,,ISIC_0057661.JPG
break,html.Screen,4_64_1,2023-10-30T22:42:08.071Z,,0,,,NaN,,,,,,false,,,,287765.5,287765.299999997,,287765,,287767.642,8,400,,,
break_continue,html.Screen,4_64_2,2023-10-30T22:42:08.071Z,,0,,,NaN,,,,,,false,,,,287765.700000003,287765.60000000894,,287765.60000000894,,287767.642,8,400,,,
sequence,flow.Sequence,4_64,2023-10-30T22:42:08.071Z,,0,,,2731.936000008951,completion,,,,,false,,,,287765.799999997,287765.60000000894,285016.998,285023,285033.664,287767.642,8,400,,,
trial,html.Screen,4_65_0,2023-10-30T22:42:11.280Z,,0,2,,3206.8580000000075,response,ISIC_0057028.JPG,6,ISIC_0029374.JPG,ISIC_0029374.JPG,false,0,keypress(z),500,290974.799999997,290974.5,287750.976,287765.799999997,287767.642,290984.18,8,400,16,,ISIC_0057028.JPG
break,html.Screen,4_65_1,2023-10-30T22:42:11.280Z,,0,,,NaN,,,,,,false,,,,290975.299999997,290975.200000003,,290974.90000000596,,290984.18,8,400,,,
break_continue,html.Screen,4_65_2,2023-10-30T22:42:11.280Z,,0,,,NaN,,,,,,false,,,,290975.40000000596,290975.40000000596,,290975.299999997,,290984.18,8,400,,,
sequence,flow.Sequence,4_65,2023-10-30T22:42:11.280Z,,0,,,3207.758000005968,completion,,,,,false,,,,290975.5,290975.40000000596,287750.976,287765.799999997,287767.642,290984.18,8,400,,,
trial,html.Screen,4_66_0,2023-10-30T22:42:14.020Z,,0,2,,2730.4200000089477,response,ISIC_2805573.JPG,0,ISIC_0058661.JPG,ISIC_2805573.JPG,false,1,keypress(m),500,293714.90000000596,293714.60000000894,290967.514,290975.60000000894,290984.18,293734.07,8,400,17,,ISIC_0058661.JPG
break,html.Screen,4_66_1,2023-10-30T22:42:14.021Z,,0,,,NaN,,,,,,false,,,,293715.90000000596,293715.700000003,,293715.10000000894,,293734.07,8,400,,,
break_continue,html.Screen,4_66_2,2023-10-30T22:42:14.021Z,,0,,,NaN,,,,,,false,,,,293716.10000000894,293716,,293715.90000000596,,293734.07,8,400,,,
sequence,flow.Sequence,4_66,2023-10-30T22:42:14.021Z,,0,,,2731.820000000007,completion,,,,,false,,,,293716.200000003,293716,290967.514,290975.60000000894,290984.18,293734.07,8,400,,,
trial,html.Screen,4_67_0,2023-10-30T22:42:16.890Z,,0,2,,2850.6300000029732,response,ISIC_3481133.JPG,7,ISIC_0071957.JPG,ISIC_0071957.JPG,false,0,keypress(z),500,296585.299999997,296584.700000003,293717.404,293716.200000003,293734.07,296601.297,8,400,18,,ISIC_3481133.JPG
break,html.Screen,4_67_1,2023-10-30T22:42:16.891Z,,0,,,NaN,,,,,,false,,,,296586.90000000596,296586.5,,296585.60000000894,,296601.297,8,400,,,
break_continue,html.Screen,4_67_2,2023-10-30T22:42:16.892Z,,0,,,NaN,,,,,,false,,,,296587.10000000894,296587,,296586.90000000596,,296601.297,8,400,,,
sequence,flow.Sequence,4_67,2023-10-30T22:42:16.892Z,,0,,,2852.929999999993,completion,,,,,false,,,,296587.299999997,296587,293717.404,293716.200000003,293734.07,296601.297,8,400,,,
trial,html.Screen,4_68_0,2023-10-30T22:42:19.941Z,,0,2,,3034.9030000029597,response,ISIC_0071111.JPG,6,ISIC_0034042.JPG,ISIC_0071111.JPG,false,1,keypress(m),500,299636.700000003,299636.200000003,296584.631,296587.40000000596,296601.297,299651.175,8,400,19,,ISIC_0034042.JPG
break,html.Screen,4_68_1,2023-10-30T22:42:19.943Z,,0,,,NaN,,,,,,false,,,,299638.10000000894,299637.90000000596,,299637.10000000894,,299651.175,8,400,,,
break_continue,html.Screen,4_68_2,2023-10-30T22:42:19.943Z,,0,,,NaN,,,,,,false,,,,299638.299999997,299638.200000003,,299638.200000003,,299651.175,8,400,,,
sequence,flow.Sequence,4_68,2023-10-30T22:42:19.943Z,,0,,,3036.9030000029597,completion,,,,,false,,,,299638.5,299638.200000003,296584.631,296587.40000000596,296601.297,299651.175,8,400,,,
trial,html.Screen,4_69_0,2023-10-30T22:42:23.181Z,,0,2,,3224.6249999970314,response,ISIC_0413173.JPG,6,ISIC_4981135.JPG,ISIC_0413173.JPG,false,1,keypress(m),500,302876.299999997,302875.799999997,299634.509,299638.5,299651.175,302884.379,8,400,20,,ISIC_4981135.JPG
break,html.Screen,4_69_1,2023-10-30T22:42:23.182Z,,0,,,NaN,,,,,,false,,,,302877.10000000894,302877,,302876.40000000596,,302884.379,8,400,,,
break_continue,html.Screen,4_69_2,2023-10-30T22:42:23.182Z,,0,,,NaN,,,,,,false,,,,302877.40000000596,302877.299999997,,302877.200000003,,302884.379,8,400,,,
sequence,flow.Sequence,4_69,2023-10-30T22:42:23.182Z,,0,,,3226.1249999970314,completion,,,,,false,,,,302877.60000000894,302877.299999997,299634.509,299638.5,299651.175,302884.379,8,400,,,
trial,html.Screen,4_70_0,2023-10-30T22:42:25.829Z,,0,2,,2640.021000005945,response,ISIC_0025316.JPG,5,ISIC_6855540.JPG,ISIC_6855540.JPG,false,0,keypress(z),500,305524.60000000894,305524.40000000596,302867.713,302877.700000003,302884.379,305534.273,8,400,21,,ISIC_0025316.JPG
break,html.Screen,4_70_1,2023-10-30T22:42:25.830Z,,0,,,NaN,,,,,,false,,,,305525.5,305525.200000003,,305524.799999997,,305534.273,8,400,,,
break_continue,html.Screen,4_70_2,2023-10-30T22:42:25.830Z,,0,,,NaN,,,,,,false,,,,305525.799999997,305525.60000000894,,305525.5,,305534.273,8,400,,,
sequence,flow.Sequence,4_70,2023-10-30T22:42:25.830Z,,0,,,2641.2210000089253,completion,,,,,false,,,,305525.90000000596,305525.60000000894,302867.713,302877.700000003,302884.379,305534.273,8,400,,,
trial,html.Screen,4_71_0,2023-10-30T22:42:29.439Z,,0,2,,3600.127000005974,response,ISIC_0428257.JPG,6,ISIC_3959570.JPG,ISIC_3959570.JPG,false,0,keypress(z),500,309134.60000000894,309134.40000000596,305517.607,305526,305534.273,309151.487,8,400,22,,ISIC_0428257.JPG
break,html.Screen,4_71_1,2023-10-30T22:42:29.440Z,,0,,,NaN,,,,,,false,,,,309135.5,309135.299999997,,309134.90000000596,,309151.487,8,400,,,
break_continue,html.Screen,4_71_2,2023-10-30T22:42:29.440Z,,0,,,NaN,,,,,,false,,,,309135.90000000596,309135.799999997,,309135.60000000894,,309151.487,8,400,,,
sequence,flow.Sequence,4_71,2023-10-30T22:42:29.440Z,,0,,,3601.5269999970333,completion,,,,,false,,,,309136.200000003,309135.799999997,305517.607,305525.90000000596,305534.273,309151.487,8,400,,,
trial,html.Screen,4_72_0,2023-10-30T22:42:32.117Z,,0,2,,2660.812999996997,response,ISIC_0066674.JPG,8,ISIC_0029906.JPG,ISIC_0066674.JPG,false,1,keypress(m),500,311812.60000000894,311812.299999997,309134.821,309136.299999997,309151.487,311818.047,8,400,23,,ISIC_0029906.JPG
break,html.Screen,4_72_1,2023-10-30T22:42:32.117Z,,0,,,NaN,,,,,,false,,,,311813.40000000596,311813.200000003,,311812.700000003,,311818.047,8,400,,,
break_continue,html.Screen,4_72_2,2023-10-30T22:42:32.118Z,,0,,,NaN,,,,,,false,,,,311813.700000003,311813.5,,311813.5,,311818.047,8,400,,,
sequence,flow.Sequence,4_72,2023-10-30T22:42:32.118Z,,0,,,2662.012999999977,completion,,,,,false,,,,311813.799999997,311813.5,309134.821,309136.200000003,309151.487,311818.047,8,400,,,
trial,html.Screen,4_73_0,2023-10-30T22:42:35.710Z,,0,2,,3588.35300000594,response,ISIC_2212473.JPG,8,ISIC_9802008.JPG,ISIC_9802008.JPG,false,0,keypress(z),500,315406.700000003,315406.40000000596,311801.381,311813.90000000596,311818.047,315434.569,8,400,24,,ISIC_2212473.JPG
break,html.Screen,4_73_1,2023-10-30T22:42:35.711Z,,0,,,NaN,,,,,,false,,,,315407.40000000596,315407.299999997,,315406.799999997,,315434.569,8,400,,,
break_continue,html.Screen,4_73_2,2023-10-30T22:42:35.712Z,,0,,,NaN,,,,,,false,,,,315407.700000003,315407.60000000894,,315407.5,,315434.569,8,400,,,
sequence,flow.Sequence,4_73,2023-10-30T22:42:35.712Z,,0,,,3589.55300000892,completion,,,,,false,,,,315407.799999997,315407.60000000894,311801.381,311813.90000000596,311818.047,315434.569,8,400,,,
trial,html.Screen,4_74_0,2023-10-30T22:42:38.724Z,,0,2,,2985.230999997002,response,ISIC_0025451.JPG,5,ISIC_0024323.JPG,ISIC_0025451.JPG,false,1,keypress(m),500,318420.10000000894,318419.799999997,315417.903,315408,315434.569,318435.143,8,400,25,,ISIC_0024323.JPG
break,html.Screen,4_74_1,2023-10-30T22:42:38.724Z,,0,,,NaN,,,,,,false,,,,318420.700000003,318420.700000003,,318420.299999997,,318435.143,8,400,,,
break_continue,html.Screen,4_74_2,2023-10-30T22:42:38.725Z,,0,,,NaN,,,,,,false,,,,318421,318420.90000000596,,318420.799999997,,318435.143,8,400,,,
sequence,flow.Sequence,4_74,2023-10-30T22:42:38.725Z,,0,,,2986.3310000059428,completion,,,,,false,,,,318421.200000003,318420.90000000596,315417.903,315408,315434.569,318435.143,8,400,,,
trial,html.Screen,4_75_0,2023-10-30T22:42:41.755Z,,0,2,,3015.957000008959,response,ISIC_0060403.JPG,8,ISIC_0073119.JPG,ISIC_0073119.JPG,false,0,keypress(z),500,321451.40000000596,321451.10000000894,318418.477,318421.299999997,318435.143,321468.355,8,400,26,,ISIC_0060403.JPG
break,html.Screen,4_75_1,2023-10-30T22:42:41.756Z,,0,,,NaN,,,,,,false,,,,321452.200000003,321452,,321451.60000000894,,321468.355,8,400,,,
break_continue,html.Screen,4_75_2,2023-10-30T22:42:41.756Z,,0,,,NaN,,,,,,false,,,,321452.5,321452.40000000596,,321452.299999997,,321468.355,8,400,,,
sequence,flow.Sequence,4_75,2023-10-30T22:42:41.756Z,,0,,,3017.2570000059786,completion,,,,,false,,,,321452.60000000894,321452.40000000596,318418.477,318421.200000003,318435.143,321468.355,8,400,,,
trial,html.Screen,4_76_0,2023-10-30T22:42:44.433Z,,0,2,,2660.6450000000186,response,ISIC_0063473.JPG,8,ISIC_0033344.JPG,ISIC_0033344.JPG,false,0,keypress(z),500,324129.200000003,324129,321451.689,321452.700000003,321468.355,324134.915,8,400,27,,ISIC_0063473.JPG
break,html.Screen,4_76_1,2023-10-30T22:42:44.433Z,,0,,,NaN,,,,,,false,,,,324130,324129.799999997,,324129.40000000596,,324134.915,8,400,,,
break_continue,html.Screen,4_76_2,2023-10-30T22:42:44.434Z,,0,,,NaN,,,,,,false,,,,324130.40000000596,324130.200000003,,324130.10000000894,,324134.915,8,400,,,
sequence,flow.Sequence,4_76,2023-10-30T22:42:44.434Z,,0,,,2661.845000002999,completion,,,,,false,,,,324130.5,324130.200000003,321451.689,321452.700000003,321468.355,324134.915,8,400,,,
trial,html.Screen,4_77_0,2023-10-30T22:42:47.322Z,,0,2,,2883.285000003001,response,ISIC_4298624.JPG,7,ISIC_0025001.JPG,ISIC_4298624.JPG,false,1,keypress(m),500,327018.5,327018.200000003,324118.249,324130.700000003,324134.915,327035.476,8,400,28,,ISIC_0025001.JPG
break,html.Screen,4_77_1,2023-10-30T22:42:47.323Z,,0,,,NaN,,,,,,false,,,,327019.200000003,327019,,327018.60000000894,,327035.476,8,400,,,
break_continue,html.Screen,4_77_2,2023-10-30T22:42:47.323Z,,0,,,NaN,,,,,,false,,,,327019.5,327019.40000000596,,327019.299999997,,327035.476,8,400,,,
sequence,flow.Sequence,4_77,2023-10-30T22:42:47.323Z,,0,,,2884.4850000059814,completion,,,,,false,,,,327019.60000000894,327019.40000000596,324118.249,324130.700000003,324134.915,327035.476,8,400,,,
trial,html.Screen,4_78_0,2023-10-30T22:42:50.336Z,,0,2,,2996.523999999976,response,ISIC_4307626.JPG,7,ISIC_0034075.JPG,ISIC_4307626.JPG,false,1,keypress(m),500,330032.5,330032,327018.81,327019.799999997,327035.476,330035.356,8,400,29,,ISIC_0034075.JPG
break,html.Screen,4_78_1,2023-10-30T22:42:50.337Z,,0,,,NaN,,,,,,false,,,,330033.5,330033.40000000596,,330032.700000003,,330035.356,8,400,,,
break_continue,html.Screen,4_78_2,2023-10-30T22:42:50.337Z,,0,,,NaN,,,,,,false,,,,330033.90000000596,330033.799999997,,330033.700000003,,330035.356,8,400,,,
sequence,flow.Sequence,4_78,2023-10-30T22:42:50.337Z,,0,,,2998.3239999969956,completion,,,,,false,,,,330034.10000000894,330033.799999997,327018.81,327019.799999997,327035.476,330035.356,8,400,,,
trial,html.Screen,4_79_0,2023-10-30T22:42:52.964Z,,0,2,,2624.943999996991,response,ISIC_0030932.JPG,8,ISIC_6961503.JPG,ISIC_6961503.JPG,false,0,keypress(z),500,332660.60000000894,332660.299999997,330018.69,330034.200000003,330035.356,332668.584,8,400,30,,ISIC_0030932.JPG
break,html.Screen,4_79_1,2023-10-30T22:42:52.964Z,,0,,,NaN,,,,,,false,,,,332661.10000000894,332661.10000000894,,332660.700000003,,332668.584,8,400,,,
break_continue,html.Screen,4_79_2,2023-10-30T22:42:52.964Z,,0,,,NaN,,,,,,false,,,,332661.299999997,332661.299999997,,332661.200000003,,332668.584,8,400,,,
sequence,flow.Sequence,4_79,2023-10-30T22:42:52.964Z,,0,,,2625.943999996991,completion,,,,,false,,,,332661.40000000596,332661.299999997,330018.69,330034.200000003,330035.356,332668.584,8,400,,,
trial,html.Screen,4_80_0,2023-10-30T22:42:56.311Z,,0,2,,3339.2159999970463,response,ISIC_5230371.JPG,8,ISIC_2795397.JPG,ISIC_5230371.JPG,false,1,keypress(m),500,336007.90000000596,336007.799999997,332651.918,332661.5,332668.584,336051.782,8,400,31,,ISIC_2795397.JPG
break,html.Screen,4_80_1,2023-10-30T22:42:56.320Z,,0,,,NaN,,,,,,false,,,,336017.60000000894,336013.700000003,,336010.60000000894,,336051.782,8,400,,,
break_continue,html.Screen,4_80_2,2023-10-30T22:42:56.321Z,,0,,,NaN,,,,,,false,,,,336018.299999997,336018.200000003,,336018.10000000894,,336051.782,8,400,,,
sequence,flow.Sequence,4_80,2023-10-30T22:42:56.321Z,,0,,,3349.616000003007,completion,,,,,false,,,,336018.40000000596,336018.200000003,332651.918,332661.5,332668.584,336051.782,8,400,,,
trial,html.Screen,4_81_0,2023-10-30T22:42:59.237Z,,0,2,,2882.318000008934,response,ISIC_8759726.JPG,6,ISIC_0032540.JPG,ISIC_8759726.JPG,false,1,keypress(m),500,338934.40000000596,338934.10000000894,336018.45,336018.5,336051.782,338935.679,8,400,32,,ISIC_0032540.JPG
break,html.Screen,4_81_1,2023-10-30T22:42:59.238Z,,0,,,NaN,,,,,,false,,,,338935.40000000596,338935.200000003,,338934.60000000894,,338935.679,8,400,,,
break_continue,html.Screen,4_81_2,2023-10-30T22:42:59.238Z,,0,,,NaN,,,,,,false,,,,338935.60000000894,338935.5,,338935.5,,338935.679,8,400,,,
sequence,flow.Sequence,4_81,2023-10-30T22:42:59.238Z,,0,,,2883.7179999999935,completion,,,,,false,,,,338935.700000003,338935.5,336018.45,336018.5,336051.782,338935.679,8,400,,,
trial,html.Screen,4_82_0,2023-10-30T22:43:02.154Z,,0,2,,2915.2210000059567,response,ISIC_0064559.JPG,7,ISIC_9863059.JPG,ISIC_0064559.JPG,false,1,keypress(m),500,341851.200000003,341850.90000000596,338919.013,338935.799999997,338935.679,341852.229,8,400,33,,ISIC_9863059.JPG
break,html.Screen,4_82_1,2023-10-30T22:43:02.155Z,,0,,,NaN,,,,,,false,,,,341852.200000003,341851.90000000596,,341851.40000000596,,341852.229,8,400,,,
break_continue,html.Screen,4_82_2,2023-10-30T22:43:02.155Z,,0,,,NaN,,,,,,false,,,,341852.60000000894,341852.5,,341852.299999997,,341852.229,8,400,,,
sequence,flow.Sequence,4_82,2023-10-30T22:43:02.155Z,,0,,,2916.8209999999963,completion,,,,,false,,,,341852.700000003,341852.5,338919.013,338935.700000003,338935.679,341852.229,8,400,,,
trial,html.Screen,4_83_0,2023-10-30T22:43:05.296Z,,0,2,,3140.5709999970277,response,ISIC_9152137.JPG,8,ISIC_4052597.JPG,ISIC_9152137.JPG,false,1,keypress(m),500,344993.10000000894,344992.799999997,341835.563,341853,341852.229,345002.103,8,400,34,,ISIC_4052597.JPG
break,html.Screen,4_83_1,2023-10-30T22:43:05.296Z,,0,,,NaN,,,,,,false,,,,344993.90000000596,344993.700000003,,344993.200000003,,345002.103,8,400,,,
break_continue,html.Screen,4_83_2,2023-10-30T22:43:05.297Z,,0,,,NaN,,,,,,false,,,,344994.200000003,344994.10000000894,,344993.90000000596,,345002.103,8,400,,,
sequence,flow.Sequence,4_83,2023-10-30T22:43:05.297Z,,0,,,3141.8710000089486,completion,,,,,false,,,,344994.40000000596,344994.10000000894,341835.563,341852.90000000596,341852.229,345002.103,8,400,,,
trial,html.Screen,4_84_0,2023-10-30T22:43:08.166Z,,0,2,,2861.396999999997,response,ISIC_0059925.JPG,7,ISIC_7319169.JPG,ISIC_0059925.JPG,false,1,keypress(m),500,347863.799999997,347863.5,344985.437,344994.5,345002.103,347869.341,8,400,35,,ISIC_7319169.JPG
break,html.Screen,4_84_1,2023-10-30T22:43:08.167Z,,0,,,NaN,,,,,,false,,,,347864.60000000894,347864.5,,347863.90000000596,,347869.341,8,400,,,
break_continue,html.Screen,4_84_2,2023-10-30T22:43:08.167Z,,0,,,NaN,,,,,,false,,,,347865,347864.799999997,,347864.700000003,,347869.341,8,400,,,
sequence,flow.Sequence,4_84,2023-10-30T22:43:08.167Z,,0,,,2862.696999997017,completion,,,,,false,,,,347865,347864.799999997,344985.437,344994.40000000596,345002.103,347869.341,8,400,,,
trial,html.Screen,4_85_0,2023-10-30T22:43:11.227Z,,0,2,,3055.259000008926,response,ISIC_0013084.JPG,9,ISIC_1509635.JPG,ISIC_1509635.JPG,false,0,keypress(z),500,350924.90000000596,350924.60000000894,347852.675,347865.200000003,347869.341,350935.885,8,400,36,,ISIC_0013084.JPG
break,html.Screen,4_85_1,2023-10-30T22:43:11.228Z,,0,,,NaN,,,,,,false,,,,350925.700000003,350925.60000000894,,350925.10000000894,,350935.885,8,400,,,
break_continue,html.Screen,4_85_2,2023-10-30T22:43:11.228Z,,0,,,NaN,,,,,,false,,,,350926,350925.90000000596,,350925.799999997,,350935.885,8,400,,,
sequence,flow.Sequence,4_85,2023-10-30T22:43:11.228Z,,0,,,3056.5590000059456,completion,,,,,false,,,,350926.200000003,350925.90000000596,347852.675,347865.10000000894,347869.341,350935.885,8,400,,,
trial,html.Screen,4_86_0,2023-10-30T22:43:13.954Z,,0,2,,2715.315000002971,response,ISIC_0029225.JPG,9,ISIC_6253295.JPG,ISIC_0029225.JPG,false,1,keypress(m),500,353651.5,353651.200000003,350919.219,350926.200000003,350935.885,353652.443,8,400,37,,ISIC_6253295.JPG
break,html.Screen,4_86_1,2023-10-30T22:43:13.954Z,,0,,,NaN,,,,,,false,,,,353652.299999997,353652.10000000894,,353651.700000003,,353652.443,8,400,,,
break_continue,html.Screen,4_86_2,2023-10-30T22:43:13.955Z,,0,,,NaN,,,,,,false,,,,353652.60000000894,353652.40000000596,,353652.299999997,,353652.443,8,400,,,
sequence,flow.Sequence,4_86,2023-10-30T22:43:13.955Z,,0,,,2716.515000005951,completion,,,,,false,,,,353652.799999997,353652.40000000596,350919.219,350926.200000003,350935.885,353652.443,8,400,,,
trial,html.Screen,4_87_0,2023-10-30T22:43:16.663Z,,0,2,,2708.1570000089123,response,ISIC_0029349.JPG,7,ISIC_0033517.JPG,ISIC_0033517.JPG,false,0,keypress(z),500,356361,356360.60000000894,353635.777,353652.90000000596,353652.443,356369.001,8,400,38,,ISIC_0029349.JPG
break,html.Screen,4_87_1,2023-10-30T22:43:16.664Z,,0,,,NaN,,,,,,false,,,,356361.90000000596,356361.700000003,,356361.200000003,,356369.001,8,400,,,
break_continue,html.Screen,4_87_2,2023-10-30T22:43:16.664Z,,0,,,NaN,,,,,,false,,,,356362.200000003,356362.10000000894,,356362,,356369.001,8,400,,,
sequence,flow.Sequence,4_87,2023-10-30T22:43:16.664Z,,0,,,2709.6570000089123,completion,,,,,false,,,,356362.40000000596,356362.10000000894,353635.777,353652.90000000596,353652.443,356369.001,8,400,,,
trial,html.Screen,4_88_0,2023-10-30T22:43:19.741Z,,0,2,,3069.7989999970305,response,ISIC_0068223.JPG,8,ISIC_6207818.JPG,ISIC_6207818.JPG,false,0,keypress(z),500,359439.200000003,359438.799999997,356352.335,356362.40000000596,356369.001,359452.846,8,400,39,,ISIC_0068223.JPG
break,html.Screen,4_88_1,2023-10-30T22:43:19.742Z,,0,,,NaN,,,,,,false,,,,359440,359439.90000000596,,359439.40000000596,,359452.846,8,400,,,
break_continue,html.Screen,4_88_2,2023-10-30T22:43:19.742Z,,0,,,NaN,,,,,,false,,,,359440.40000000596,359440.299999997,,359440.200000003,,359452.846,8,400,,,
sequence,flow.Sequence,4_88,2023-10-30T22:43:19.742Z,,0,,,3071.2989999970305,completion,,,,,false,,,,359440.5,359440.299999997,356352.335,356362.40000000596,356369.001,359452.846,8,400,,,
trial,html.Screen,4_89_0,2023-10-30T22:43:23.432Z,,0,2,,3677.1539999999804,response,ISIC_0082704.JPG,8,ISIC_1314502.JPG,ISIC_1314502.JPG,false,0,keypress(z),500,363130.5,363130,359436.18,359440.60000000894,359452.846,363136.032,8,400,40,,ISIC_0082704.JPG
break,html.Screen,4_89_1,2023-10-30T22:43:23.433Z,,0,,,NaN,,,,,,false,,,,363131.799999997,363131.60000000894,,363130.799999997,,363136.032,8,400,,,
break_continue,html.Screen,4_89_2,2023-10-30T22:43:23.434Z,,0,,,NaN,,,,,,false,,,,363132,363131.90000000596,,363131.90000000596,,363136.032,8,400,,,
sequence,flow.Sequence,4_89,2023-10-30T22:43:23.434Z,,0,,,3679.054000005941,completion,,,,,false,,,,363132.200000003,363131.90000000596,359436.18,359440.5,359452.846,363136.032,8,400,,,
trial,html.Screen,4_90_0,2023-10-30T22:43:26.734Z,,0,2,,3296.4679999999935,response,ISIC_0011698.JPG,5,ISIC_0014132.JPG,ISIC_0014132.JPG,false,0,keypress(z),500,366432.90000000596,366432.5,363119.366,363132.40000000596,363136.032,366435.9,8,400,41,,ISIC_0011698.JPG
break,html.Screen,4_90_1,2023-10-30T22:43:26.736Z,,0,,,NaN,,,,,,false,,,,366433.90000000596,366433.700000003,,366433.200000003,,366435.9,8,400,,,
break_continue,html.Screen,4_90_2,2023-10-30T22:43:26.736Z,,0,,,NaN,,,,,,false,,,,366434.200000003,366434.200000003,,366434,,366435.9,8,400,,,
sequence,flow.Sequence,4_90,2023-10-30T22:43:26.736Z,,0,,,3298.1680000029737,completion,,,,,false,,,,366434.40000000596,366434.200000003,363119.366,363132.299999997,363136.032,366435.9,8,400,,,
trial,html.Screen,4_91_0,2023-10-30T22:43:29.908Z,,0,2,,3170.2000000089174,response,ISIC_0283957.JPG,7,ISIC_7440724.JPG,ISIC_0283957.JPG,false,1,keypress(m),500,369606.40000000596,369606.10000000894,366419.234,366434.5,366435.9,369619.751,8,400,42,,ISIC_7440724.JPG
break,html.Screen,4_91_1,2023-10-30T22:43:29.909Z,,0,,,NaN,,,,,,false,,,,369607.200000003,369607,,369606.60000000894,,369619.751,8,400,,,
break_continue,html.Screen,4_91_2,2023-10-30T22:43:29.909Z,,0,,,NaN,,,,,,false,,,,369607.5,369607.40000000596,,369607.299999997,,369619.751,8,400,,,
sequence,flow.Sequence,4_91,2023-10-30T22:43:29.909Z,,0,,,3171.500000005937,completion,,,,,false,,,,369607.60000000894,369607.40000000596,366419.234,366434.5,366435.9,369619.751,8,400,,,
trial,html.Screen,4_92_0,2023-10-30T22:43:32.855Z,,0,2,,2934.0489999970305,response,ISIC_0015206.JPG,8,ISIC_0066749.JPG,ISIC_0015206.JPG,false,1,keypress(m),500,372554.10000000894,372553.799999997,369603.085,369607.700000003,369619.751,372569.633,8,400,43,,ISIC_0066749.JPG
break,html.Screen,4_92_1,2023-10-30T22:43:32.856Z,,0,,,NaN,,,,,,false,,,,372554.5,372554.5,,372554.10000000894,,372569.633,8,400,,,
break_continue,html.Screen,4_92_2,2023-10-30T22:43:32.856Z,,0,,,NaN,,,,,,false,,,,372554.700000003,372554.700000003,,372554.60000000894,,372569.633,8,400,,,
sequence,flow.Sequence,4_92,2023-10-30T22:43:32.856Z,,0,,,2934.949000002991,completion,,,,,false,,,,372554.700000003,372554.700000003,369603.085,369607.700000003,369619.751,372569.633,8,400,,,
trial,html.Screen,4_93_0,2023-10-30T22:43:36.331Z,,0,2,,3460.267000005988,response,ISIC_6801680.JPG,5,ISIC_0010723.JPG,ISIC_0010723.JPG,false,0,keypress(z),500,376030.200000003,376029.90000000596,372552.967,372554.799999997,372569.633,376036.161,8,400,44,,ISIC_6801680.JPG
break,html.Screen,4_93_1,2023-10-30T22:43:36.332Z,,0,,,NaN,,,,,,false,,,,376031,376030.90000000596,,376030.40000000596,,376036.161,8,400,,,
break_continue,html.Screen,4_93_2,2023-10-30T22:43:36.332Z,,0,,,NaN,,,,,,false,,,,376031.299999997,376031.200000003,,376031.10000000894,,376036.161,8,400,,,
sequence,flow.Sequence,4_93,2023-10-30T22:43:36.333Z,,0,,,3461.5670000030077,completion,,,,,false,,,,376031.40000000596,376031.200000003,372552.967,372554.799999997,372569.633,376036.161,8,400,,,
trial,html.Screen,4_94_0,2023-10-30T22:43:38.883Z,,0,2,,2545.338999999978,response,ISIC_0056793.JPG,8,ISIC_0900349.JPG,ISIC_0056793.JPG,false,1,keypress(m),500,378581.799999997,378581.5,376019.495,376031.60000000894,376036.161,378586.737,8,400,45,,ISIC_0900349.JPG
break,html.Screen,4_94_1,2023-10-30T22:43:38.884Z,,0,,,NaN,,,,,,false,,,,378582.60000000894,378582.5,,378582.10000000894,,378586.737,8,400,,,
break_continue,html.Screen,4_94_2,2023-10-30T22:43:38.884Z,,0,,,NaN,,,,,,false,,,,378583,378582.799999997,,378582.799999997,,378586.737,8,400,,,
sequence,flow.Sequence,4_94,2023-10-30T22:43:38.884Z,,0,,,2546.638999996998,completion,,,,,false,,,,378583.10000000894,378582.799999997,376019.495,376031.5,376036.161,378586.737,8,400,,,
trial,html.Screen,4_95_0,2023-10-30T22:43:41.689Z,,0,2,,2801.1630000059376,response,ISIC_0032484.JPG,7,ISIC_4097868.JPG,ISIC_0032484.JPG,false,1,keypress(m),500,381388.200000003,381387.90000000596,378570.071,378583.200000003,378586.737,381403.291,8,400,46,,ISIC_4097868.JPG
break,html.Screen,4_95_1,2023-10-30T22:43:41.690Z,,0,,,NaN,,,,,,false,,,,381388.90000000596,381388.700000003,,381388.40000000596,,381403.291,8,400,,,
break_continue,html.Screen,4_95_2,2023-10-30T22:43:41.690Z,,0,,,NaN,,,,,,false,,,,381389.299999997,381389.10000000894,,381389.10000000894,,381403.291,8,400,,,
sequence,flow.Sequence,4_95,2023-10-30T22:43:41.690Z,,0,,,2802.363000008918,completion,,,,,false,,,,381389.5,381389.10000000894,378570.071,378583.200000003,378586.737,381403.291,8,400,,,
trial,html.Screen,4_96_0,2023-10-30T22:43:44.238Z,,0,2,,2533.4090000029537,response,ISIC_6298228.JPG,6,ISIC_6734679.JPG,ISIC_6298228.JPG,false,1,keypress(m),500,383936.90000000596,383936.700000003,381386.625,381389.5,381403.291,383953.189,8,400,47,,ISIC_6734679.JPG
break,html.Screen,4_96_1,2023-10-30T22:43:44.238Z,,0,,,NaN,,,,,,false,,,,383937.10000000894,383937.10000000894,,383936.90000000596,,383953.189,8,400,,,
break_continue,html.Screen,4_96_2,2023-10-30T22:43:44.238Z,,0,,,NaN,,,,,,false,,,,383937.10000000894,383937.10000000894,,383937.10000000894,,383953.189,8,400,,,
sequence,flow.Sequence,4_96,2023-10-30T22:43:44.238Z,,0,,,2533.809000008914,completion,,,,,false,,,,383937.200000003,383937.10000000894,381386.625,381389.5,381403.291,383953.189,8,400,,,
trial,html.Screen,4_97_0,2023-10-30T22:43:46.914Z,,0,2,,2660.2110000059474,response,ISIC_0024574.JPG,9,ISIC_8699453.JPG,ISIC_8699453.JPG,false,0,keypress(z),500,386613.700000003,386613.40000000596,383936.523,383937.200000003,383953.189,386619.749,8,400,48,,ISIC_0024574.JPG
break,html.Screen,4_97_1,2023-10-30T22:43:46.915Z,,0,,,NaN,,,,,,false,,,,386614.40000000596,386614.299999997,,386613.799999997,,386619.749,8,400,,,
break_continue,html.Screen,4_97_2,2023-10-30T22:43:46.915Z,,0,,,NaN,,,,,,false,,,,386614.700000003,386614.60000000894,,386614.40000000596,,386619.749,8,400,,,
sequence,flow.Sequence,4_97,2023-10-30T22:43:46.916Z,,0,,,2661.4110000089277,completion,,,,,false,,,,386614.799999997,386614.60000000894,383936.523,383937.200000003,383953.189,386619.749,8,400,,,
trial,html.Screen,4_98_0,2023-10-30T22:43:50.344Z,,0,2,,3423.35100000893,response,ISIC_1390308.JPG,5,ISIC_0011482.JPG,ISIC_0011482.JPG,false,0,keypress(z),500,390043.40000000596,390043.10000000894,386603.083,386615,386619.749,390053.619,8,400,49,,ISIC_1390308.JPG
break,html.Screen,4_98_1,2023-10-30T22:43:50.345Z,,0,,,NaN,,,,,,false,,,,390044.40000000596,390044.200000003,,390043.799999997,,390053.619,8,400,,,
break_continue,html.Screen,4_98_2,2023-10-30T22:43:50.345Z,,0,,,NaN,,,,,,false,,,,390044.799999997,390044.60000000894,,390044.40000000596,,390053.619,8,400,,,
sequence,flow.Sequence,4_98,2023-10-30T22:43:50.345Z,,0,,,3424.85100000893,completion,,,,,false,,,,390045,390044.60000000894,386603.083,386614.90000000596,386619.749,390053.619,8,400,,,
trial,html.Screen,4_99_0,2023-10-30T22:43:53.517Z,,0,2,,3162.1809999970137,response,ISIC_0055054.JPG,9,ISIC_6685513.JPG,ISIC_0055054.JPG,false,1,keypress(m),500,393216.200000003,393215.799999997,390036.953,390045,390053.619,393220.159,8,400,50,,ISIC_6685513.JPG
break,html.Screen,4_99_1,2023-10-30T22:44:03.508Z,,0,,,10000.237000000023,timeout,,,,,false,,,,403208.299999997,403203.73,393203.493,393216.40000000596,393220.159,403220.396,8,400,,,
break_continue,html.Screen,4_99_2,2023-10-30T22:44:14.367Z,,0,,,10816.403999997012,response,,,,,false,continue,keypress(Space),,414067.60000000894,414036.799999997,403203.73,403208.60000000894,403220.396,414087.513,8,400,,,
sequence,flow.Sequence,4_99,2023-10-30T22:44:14.368Z,,0,,,23983.180999997014,completion,,,,,false,,,,414068.10000000894,414036.799999997,390036.953,390045,390053.619,414087.513,8,400,,,
trial,html.Screen,4_100_0,2023-10-30T22:44:16.981Z,,0,3,,2593.487000000023,response,ISIC_0054655.JPG,8,ISIC_0032162.JPG,ISIC_0054655.JPG,false,1,keypress(m),500,416681.60000000894,416681,414069.962,414068.299999997,414087.513,416687.409,8,400,1,,ISIC_0032162.JPG
break,html.Screen,4_100_1,2023-10-30T22:44:16.983Z,,0,,,NaN,,,,,,false,,,,416683.5,416683.200000003,,416682,,416687.409,8,400,,,
break_continue,html.Screen,4_100_2,2023-10-30T22:44:16.983Z,,0,,,NaN,,,,,,false,,,,416683.799999997,416683.700000003,,416683.60000000894,,416687.409,8,400,,,
sequence,flow.Sequence,4_100,2023-10-30T22:44:16.983Z,,0,,,2596.187000003003,completion,,,,,false,,,,416683.90000000596,416683.700000003,414069.962,414068.200000003,414087.513,416687.409,8,400,,,
trial,html.Screen,4_101_0,2023-10-30T22:44:19.647Z,,0,3,,2660.1910000089556,response,ISIC_0034265.JPG,7,ISIC_2904474.JPG,ISIC_0034265.JPG,false,1,keypress(m),500,419347.90000000596,419347.60000000894,416670.743,416684,416687.409,419353.969,8,400,2,,ISIC_2904474.JPG
break,html.Screen,4_101_1,2023-10-30T22:44:19.648Z,,0,,,NaN,,,,,,false,,,,419348.700000003,419348.5,,419348.10000000894,,419353.969,8,400,,,
break_continue,html.Screen,4_101_2,2023-10-30T22:44:19.648Z,,0,,,NaN,,,,,,false,,,,419349,419348.90000000596,,419348.799999997,,419353.969,8,400,,,
sequence,flow.Sequence,4_101,2023-10-30T22:44:19.648Z,,0,,,2661.4910000059754,completion,,,,,false,,,,419349.200000003,419348.90000000596,416670.743,416684,416687.409,419353.969,8,400,,,
trial,html.Screen,4_102_0,2023-10-30T22:44:22.181Z,,0,3,,2527.9310000059777,response,ISIC_1722909.JPG,7,ISIC_0032938.JPG,ISIC_1722909.JPG,false,1,keypress(m),500,421882.200000003,421881.90000000596,419337.303,419349.299999997,419353.969,421887.201,8,400,3,,ISIC_0032938.JPG
break,html.Screen,4_102_1,2023-10-30T22:44:22.182Z,,0,,,NaN,,,,,,false,,,,421882.90000000596,421882.700000003,,421882.40000000596,,421887.201,8,400,,,
break_continue,html.Screen,4_102_2,2023-10-30T22:44:22.182Z,,0,,,NaN,,,,,,false,,,,421883.10000000894,421883,,421882.90000000596,,421887.201,8,400,,,
sequence,flow.Sequence,4_102,2023-10-30T22:44:22.182Z,,0,,,2529.0310000000172,completion,,,,,false,,,,421883.200000003,421883,419337.303,419349.299999997,419353.969,421887.201,8,400,,,
trial,html.Screen,4_103_0,2023-10-30T22:44:25.050Z,,0,3,,2862.9990000029793,response,ISIC_1296490.JPG,7,ISIC_9476244.JPG,ISIC_9476244.JPG,false,0,keypress(z),500,424750.5,424750.200000003,421870.535,421883.40000000596,421887.201,424754.511,8,400,4,,ISIC_1296490.JPG
break,html.Screen,4_103_1,2023-10-30T22:44:25.050Z,,0,,,NaN,,,,,,false,,,,424751.299999997,424751.10000000894,,424750.700000003,,424754.511,8,400,,,
break_continue,html.Screen,4_103_2,2023-10-30T22:44:25.051Z,,0,,,NaN,,,,,,false,,,,424751.60000000894,424751.40000000596,,424751.299999997,,424754.511,8,400,,,
sequence,flow.Sequence,4_103,2023-10-30T22:44:25.051Z,,0,,,2864.1990000059595,completion,,,,,false,,,,424751.700000003,424751.40000000596,421870.535,421883.299999997,421887.201,424754.511,8,400,,,
trial,html.Screen,4_104_0,2023-10-30T22:44:28.245Z,,0,3,,3191.288999997021,response,ISIC_0065525.JPG,7,ISIC_5011583.JPG,ISIC_0065525.JPG,false,1,keypress(m),500,427946,427945.799999997,424737.845,424751.799999997,424754.511,427954.383,8,400,5,,ISIC_5011583.JPG
break,html.Screen,4_104_1,2023-10-30T22:44:28.245Z,,0,,,NaN,,,,,,false,,,,427946.40000000596,427946.299999997,,427946.10000000894,,427954.383,8,400,,,
break_continue,html.Screen,4_104_2,2023-10-30T22:44:28.245Z,,0,,,NaN,,,,,,false,,,,427946.5,427946.5,,427946.40000000596,,427954.383,8,400,,,
sequence,flow.Sequence,4_104,2023-10-30T22:44:28.245Z,,0,,,3191.9890000000014,completion,,,,,false,,,,427946.60000000894,427946.5,424737.845,424751.799999997,424754.511,427954.383,8,400,,,
trial,html.Screen,4_105_0,2023-10-30T22:44:30.839Z,,0,3,,2585.1170000000275,response,ISIC_0071806.JPG,4,ISIC_0033759.JPG,ISIC_0033759.JPG,false,0,keypress(z),500,430539.700000003,430539.5,427937.717,427946.700000003,427954.383,430554.279,8,400,6,,ISIC_0071806.JPG
break,html.Screen,4_105_1,2023-10-30T22:44:30.839Z,,0,,,NaN,,,,,,false,,,,430540.700000003,430540.5,,430540,,430554.279,8,400,,,
break_continue,html.Screen,4_105_2,2023-10-30T22:44:30.840Z,,0,,,NaN,,,,,,false,,,,430541,430540.799999997,,430540.799999997,,430554.279,8,400,,,
sequence,flow.Sequence,4_105,2023-10-30T22:44:30.840Z,,0,,,2586.4169999970472,completion,,,,,false,,,,430541.200000003,430540.799999997,427937.717,427946.700000003,427954.383,430554.279,8,400,,,
trial,html.Screen,4_106_0,2023-10-30T22:44:33.884Z,,0,3,,3030.8210000089603,response,ISIC_0059905.JPG,6,ISIC_0000287.JPG,ISIC_0059905.JPG,false,1,keypress(m),500,433585.299999997,433585.10000000894,430537.613,430541.299999997,430554.279,433587.491,8,400,7,,ISIC_0000287.JPG
break,html.Screen,4_106_1,2023-10-30T22:44:33.885Z,,0,,,NaN,,,,,,false,,,,433586.10000000894,433585.90000000596,,433585.5,,433587.491,8,400,,,
break_continue,html.Screen,4_106_2,2023-10-30T22:44:33.885Z,,0,,,NaN,,,,,,false,,,,433586.40000000596,433586.200000003,,433586.200000003,,433587.491,8,400,,,
sequence,flow.Sequence,4_106,2023-10-30T22:44:33.885Z,,0,,,3031.921000003,completion,,,,,false,,,,433586.60000000894,433586.200000003,430537.613,430541.200000003,430554.279,433587.491,8,400,,,
trial,html.Screen,4_107_0,2023-10-30T22:44:36.496Z,,0,3,,2610.00900000002,response,ISIC_1897507.JPG,7,ISIC_0025357.JPG,ISIC_1897507.JPG,false,1,keypress(m),500,436197.700000003,436197.5,433570.825,433588,433587.491,436204.622,8,400,8,,ISIC_0025357.JPG
break,html.Screen,4_107_1,2023-10-30T22:44:36.497Z,,0,,,NaN,,,,,,false,,,,436198.40000000596,436198.200000003,,436197.90000000596,,436204.622,8,400,,,
break_continue,html.Screen,4_107_2,2023-10-30T22:44:36.497Z,,0,,,NaN,,,,,,false,,,,436198.5,436198.5,,436198.40000000596,,436204.622,8,400,,,
sequence,flow.Sequence,4_107,2023-10-30T22:44:36.497Z,,0,,,2611.00900000002,completion,,,,,false,,,,436198.60000000894,436198.5,433570.825,433587.90000000596,433587.491,436204.622,8,400,,,
trial,html.Screen,4_108_0,2023-10-30T22:44:39.332Z,,0,3,,2828.7780000059865,response,ISIC_7353400.JPG,8,ISIC_0011356.JPG,ISIC_0011356.JPG,false,0,keypress(z),500,439033.60000000894,439033.40000000596,436187.956,436198.60000000894,436204.622,439037.842,8,400,9,,ISIC_7353400.JPG
break,html.Screen,4_108_1,2023-10-30T22:44:39.333Z,,0,,,NaN,,,,,,false,,,,439034.5,439034.40000000596,,439033.90000000596,,439037.842,8,400,,,
break_continue,html.Screen,4_108_2,2023-10-30T22:44:39.333Z,,0,,,NaN,,,,,,false,,,,439034.799999997,439034.799999997,,439034.60000000894,,439037.842,8,400,,,
sequence,flow.Sequence,4_108,2023-10-30T22:44:39.333Z,,0,,,2830.177999997046,completion,,,,,false,,,,439035,439034.799999997,436187.956,436198.60000000894,436204.622,439037.842,8,400,,,
trial,html.Screen,4_109_0,2023-10-30T22:44:42.023Z,,0,3,,2686.858000002976,response,ISIC_0010933.JPG,7,ISIC_4967639.JPG,ISIC_0010933.JPG,false,1,keypress(m),500,441725,441724.700000003,439021.176,439035.10000000894,439037.842,441737.734,8,400,10,,ISIC_4967639.JPG
break,html.Screen,4_109_1,2023-10-30T22:44:42.024Z,,0,,,NaN,,,,,,false,,,,441725.799999997,441725.60000000894,,441725.200000003,,441737.734,8,400,,,
break_continue,html.Screen,4_109_2,2023-10-30T22:44:42.024Z,,0,,,NaN,,,,,,false,,,,441726.200000003,441726,,441725.90000000596,,441737.734,8,400,,,
sequence,flow.Sequence,4_109,2023-10-30T22:44:42.025Z,,0,,,2688.157999999996,completion,,,,,false,,,,441726.299999997,441726,439021.176,439035,439037.842,441737.734,8,400,,,
trial,html.Screen,4_110_0,2023-10-30T22:44:44.702Z,,0,3,,2665.6660000059637,response,ISIC_6400232.JPG,8,ISIC_0033029.JPG,ISIC_6400232.JPG,false,1,keypress(m),500,444403.700000003,444403.40000000596,441721.068,441726.299999997,441737.734,444404.294,8,400,11,,ISIC_0033029.JPG
break,html.Screen,4_110_1,2023-10-30T22:44:44.703Z,,0,,,NaN,,,,,,false,,,,444404.5,444404.299999997,,444403.799999997,,444404.294,8,400,,,
break_continue,html.Screen,4_110_2,2023-10-30T22:44:44.703Z,,0,,,NaN,,,,,,false,,,,444404.799999997,444404.60000000894,,444404.60000000894,,444404.294,8,400,,,
sequence,flow.Sequence,4_110,2023-10-30T22:44:44.703Z,,0,,,2666.866000008944,completion,,,,,false,,,,444404.90000000596,444404.60000000894,441721.068,441726.299999997,441737.734,444404.294,8,400,,,
trial,html.Screen,4_111_0,2023-10-30T22:44:48.357Z,,0,3,,3654.0059999970254,response,ISIC_4129376.JPG,8,ISIC_1802502.JPG,ISIC_1802502.JPG,false,0,keypress(z),500,448058.700000003,448058.299999997,444387.628,444404.90000000596,444404.294,448071.47,8,400,12,,ISIC_4129376.JPG
break,html.Screen,4_111_1,2023-10-30T22:44:48.358Z,,0,,,NaN,,,,,,false,,,,448059.60000000894,448059.5,,448059,,448071.47,8,400,,,
break_continue,html.Screen,4_111_2,2023-10-30T22:44:48.358Z,,0,,,NaN,,,,,,false,,,,448060.10000000894,448059.90000000596,,448059.799999997,,448071.47,8,400,,,
sequence,flow.Sequence,4_111,2023-10-30T22:44:48.358Z,,0,,,3655.606000005966,completion,,,,,false,,,,448060.200000003,448059.90000000596,444387.628,444404.90000000596,444404.294,448071.47,8,400,,,
trial,html.Screen,4_112_0,2023-10-30T22:44:51.003Z,,0,3,,2633.4300000059884,response,ISIC_0046628.JPG,6,ISIC_0011869.JPG,ISIC_0011869.JPG,false,0,keypress(z),500,450705.5,450704.90000000596,448054.804,448060.299999997,448071.47,450721.364,8,400,13,,ISIC_0046628.JPG
break,html.Screen,4_112_1,2023-10-30T22:44:51.005Z,,0,,,NaN,,,,,,false,,,,450707,450706.700000003,,450706,,450721.364,8,400,,,
break_continue,html.Screen,4_112_2,2023-10-30T22:44:51.005Z,,0,,,NaN,,,,,,false,,,,450707.40000000596,450707.299999997,,450707.200000003,,450721.364,8,400,,,
sequence,flow.Sequence,4_112,2023-10-30T22:44:51.006Z,,0,,,2635.8299999970477,completion,,,,,false,,,,450707.700000003,450707.299999997,448054.804,448060.299999997,448071.47,450721.364,8,400,,,
trial,html.Screen,4_113_0,2023-10-30T22:44:53.620Z,,0,3,,2600.1359999999986,response,ISIC_0567814.JPG,7,ISIC_1332766.JPG,ISIC_0567814.JPG,false,1,keypress(m),500,453321.799999997,453321.5,450704.698,450707.90000000596,450721.364,453337.926,8,400,14,,ISIC_1332766.JPG
break,html.Screen,4_113_1,2023-10-30T22:44:53.620Z,,0,,,NaN,,,,,,false,,,,453322.60000000894,453322.40000000596,,453322,,453337.926,8,400,,,
break_continue,html.Screen,4_113_2,2023-10-30T22:44:53.621Z,,0,,,NaN,,,,,,false,,,,453322.90000000596,453322.90000000596,,453322.700000003,,453337.926,8,400,,,
sequence,flow.Sequence,4_113,2023-10-30T22:44:53.621Z,,0,,,2601.536000005959,completion,,,,,false,,,,453323.10000000894,453322.90000000596,450704.698,450707.90000000596,450721.364,453337.926,8,400,,,
trial,html.Screen,4_114_0,2023-10-30T22:44:56.296Z,,0,3,,2660.174000008963,response,ISIC_0025169.JPG,6,ISIC_2378211.JPG,ISIC_2378211.JPG,false,0,keypress(z),500,455998.60000000894,455998.10000000894,453321.26,453323.200000003,453337.926,456005.157,8,400,15,,ISIC_0025169.JPG
break,html.Screen,4_114_1,2023-10-30T22:44:56.297Z,,0,,,NaN,,,,,,false,,,,455999.5,455999.299999997,,455998.799999997,,456005.157,8,400,,,
break_continue,html.Screen,4_114_2,2023-10-30T22:44:56.297Z,,0,,,NaN,,,,,,false,,,,455999.90000000596,455999.799999997,,455999.60000000894,,456005.157,8,400,,,
sequence,flow.Sequence,4_114,2023-10-30T22:44:56.298Z,,0,,,2661.873999997042,completion,,,,,false,,,,455999.90000000596,455999.799999997,453321.26,453323.200000003,453337.926,456005.157,8,400,,,
trial,html.Screen,4_115_0,2023-10-30T22:44:58.956Z,,0,3,,2652.943000008934,response,ISIC_0033708.JPG,9,ISIC_0026292.JPG,ISIC_0033708.JPG,false,1,keypress(m),500,458658.40000000596,458658.10000000894,455988.491,456000.10000000894,456005.157,458671.717,8,400,16,,ISIC_0026292.JPG
break,html.Screen,4_115_1,2023-10-30T22:44:58.956Z,,0,,,NaN,,,,,,false,,,,458658.90000000596,458658.799999997,,458658.40000000596,,458671.717,8,400,,,
break_continue,html.Screen,4_115_2,2023-10-30T22:44:58.957Z,,0,,,NaN,,,,,,false,,,,458659.10000000894,458659,,458659,,458671.717,8,400,,,
sequence,flow.Sequence,4_115,2023-10-30T22:44:58.957Z,,0,,,2653.8429999999935,completion,,,,,false,,,,458659.200000003,458659,455988.491,456000,456005.157,458671.717,8,400,,,
trial,html.Screen,4_116_0,2023-10-30T22:45:02.528Z,,0,3,,3558.483000002976,response,ISIC_0205127.JPG,7,ISIC_0346815.JPG,ISIC_0346815.JPG,false,0,keypress(z),500,462230.40000000596,462230.200000003,458655.051,458659.299999997,458671.717,462238.241,8,400,17,,ISIC_0205127.JPG
break,html.Screen,4_116_1,2023-10-30T22:45:02.529Z,,0,,,NaN,,,,,,false,,,,462231.299999997,462231.10000000894,,462230.60000000894,,462238.241,8,400,,,
break_continue,html.Screen,4_116_2,2023-10-30T22:45:02.529Z,,0,,,NaN,,,,,,false,,,,462231.60000000894,462231.5,,462231.40000000596,,462238.241,8,400,,,
sequence,flow.Sequence,4_116,2023-10-30T22:45:02.529Z,,0,,,3559.782999999996,completion,,,,,false,,,,462231.799999997,462231.5,458655.051,458659.200000003,458671.717,462238.241,8,400,,,
trial,html.Screen,4_117_0,2023-10-30T22:45:05.748Z,,0,3,,3212.9590000030003,response,ISIC_7601403.JPG,7,ISIC_0001581.JPG,ISIC_0001581.JPG,false,0,keypress(z),500,465451.299999997,465451.200000003,462221.575,462231.90000000596,462238.241,465454.779,8,400,18,,ISIC_7601403.JPG
break,html.Screen,4_117_1,2023-10-30T22:45:05.749Z,,0,,,NaN,,,,,,false,,,,465451.5,465451.40000000596,,465451.299999997,,465454.779,8,400,,,
break_continue,html.Screen,4_117_2,2023-10-30T22:45:05.749Z,,0,,,NaN,,,,,,false,,,,465451.5,465451.5,,465451.5,,465454.779,8,400,,,
sequence,flow.Sequence,4_117,2023-10-30T22:45:05.749Z,,0,,,3213.25900000002,completion,,,,,false,,,,465451.60000000894,465451.5,462221.575,462231.90000000596,462238.241,465454.779,8,400,,,
trial,html.Screen,4_118_0,2023-10-30T22:45:09.238Z,,0,3,,3486.3210000089603,response,ISIC_8748070.JPG,7,ISIC_4529363.JPG,ISIC_8748070.JPG,false,1,keypress(m),500,468941.40000000596,468941.10000000894,465438.113,465451.60000000894,465454.779,468955.244,8,400,19,,ISIC_4529363.JPG
break,html.Screen,4_118_1,2023-10-30T22:45:09.239Z,,0,,,NaN,,,,,,false,,,,468942.10000000894,468942,,468941.60000000894,,468955.244,8,400,,,
break_continue,html.Screen,4_118_2,2023-10-30T22:45:09.239Z,,0,,,NaN,,,,,,false,,,,468942.5,468942.299999997,,468942.299999997,,468955.244,8,400,,,
sequence,flow.Sequence,4_118,2023-10-30T22:45:09.240Z,,0,,,3487.5209999970393,completion,,,,,false,,,,468942.5,468942.299999997,465438.113,465451.60000000894,465454.779,468955.244,8,400,,,
trial,html.Screen,4_119_0,2023-10-30T22:45:12.638Z,,0,3,,3385.6560000059544,response,ISIC_0012066.JPG,7,ISIC_0034106.JPG,ISIC_0012066.JPG,false,1,keypress(m),500,472341.5,472340.90000000596,468938.578,468942.60000000894,468955.244,472355.108,8,400,20,,ISIC_0034106.JPG
break,html.Screen,4_119_1,2023-10-30T22:45:12.640Z,,0,,,NaN,,,,,,false,,,,472342.700000003,472342.5,,472341.90000000596,,472355.108,8,400,,,
break_continue,html.Screen,4_119_2,2023-10-30T22:45:12.640Z,,0,,,NaN,,,,,,false,,,,472343.10000000894,472343,,472342.799999997,,472355.108,8,400,,,
sequence,flow.Sequence,4_119,2023-10-30T22:45:12.640Z,,0,,,3387.755999999994,completion,,,,,false,,,,472343.200000003,472343,468938.578,468942.60000000894,468955.244,472355.108,8,400,,,
trial,html.Screen,4_120_0,2023-10-30T22:45:15.366Z,,0,3,,2713.9920000089332,response,ISIC_0012701.JPG,7,ISIC_4960406.JPG,ISIC_0012701.JPG,false,1,keypress(m),500,475069.299999997,475069.10000000894,472338.442,472343.40000000596,472355.108,475071.666,8,400,21,,ISIC_4960406.JPG
break,html.Screen,4_120_1,2023-10-30T22:45:15.367Z,,0,,,NaN,,,,,,false,,,,475069.700000003,475069.700000003,,475069.40000000596,,475071.666,8,400,,,
break_continue,html.Screen,4_120_2,2023-10-30T22:45:15.367Z,,0,,,NaN,,,,,,false,,,,475069.90000000596,475069.90000000596,,475069.799999997,,475071.666,8,400,,,
sequence,flow.Sequence,4_120,2023-10-30T22:45:15.367Z,,0,,,2714.792000005953,completion,,,,,false,,,,475070,475069.90000000596,472338.442,472343.299999997,472355.108,475071.666,8,400,,,
trial,html.Screen,4_121_0,2023-10-30T22:45:18.394Z,,0,3,,3025.3339999999735,response,ISIC_0033655.JPG,8,ISIC_5559165.JPG,ISIC_0033655.JPG,false,1,keypress(m),500,478097.299999997,478097,475055,475070.10000000894,475071.666,478105.524,8,400,22,,ISIC_5559165.JPG
break,html.Screen,4_121_1,2023-10-30T22:45:18.395Z,,0,,,NaN,,,,,,false,,,,478098,478097.90000000596,,478097.5,,478105.524,8,400,,,
break_continue,html.Screen,4_121_2,2023-10-30T22:45:18.395Z,,0,,,NaN,,,,,,false,,,,478098.10000000894,478098.10000000894,,478098,,478105.524,8,400,,,
sequence,flow.Sequence,4_121,2023-10-30T22:45:18.395Z,,0,,,3026.434000008914,completion,,,,,false,,,,478098.10000000894,478098.10000000894,475055,475070.10000000894,475071.666,478105.524,8,400,,,
trial,html.Screen,4_122_0,2023-10-30T22:45:21.406Z,,0,3,,3003.476000000024,response,ISIC_7972996.JPG,7,ISIC_0014932.JPG,ISIC_0014932.JPG,false,0,keypress(z),500,481109.5,481109,478088.858,478098.200000003,478105.524,481122.07,8,400,23,,ISIC_7972996.JPG
break,html.Screen,4_122_1,2023-10-30T22:45:21.407Z,,0,,,NaN,,,,,,false,,,,481110.5,481110.299999997,,481109.799999997,,481122.07,8,400,,,
break_continue,html.Screen,4_122_2,2023-10-30T22:45:21.408Z,,0,,,NaN,,,,,,false,,,,481111,481110.90000000596,,481110.799999997,,481122.07,8,400,,,
sequence,flow.Sequence,4_122,2023-10-30T22:45:21.408Z,,0,,,3005.3760000059847,completion,,,,,false,,,,481111.200000003,481110.90000000596,478088.858,478098.10000000894,478105.524,481122.07,8,400,,,
trial,html.Screen,4_123_0,2023-10-30T22:45:24.154Z,,0,3,,2735.1300000029732,response,ISIC_0032165.JPG,7,ISIC_0055714.JPG,ISIC_0055714.JPG,false,0,keypress(z),500,483857.700000003,483857.200000003,481105.404,481111.40000000596,481122.07,483871.96,8,400,24,,ISIC_0032165.JPG
break,html.Screen,4_123_1,2023-10-30T22:45:24.155Z,,0,,,NaN,,,,,,false,,,,483858.90000000596,483858.700000003,,483858,,483871.96,8,400,,,
break_continue,html.Screen,4_123_2,2023-10-30T22:45:24.156Z,,0,,,NaN,,,,,,false,,,,483859.40000000596,483859.200000003,,483859.10000000894,,483871.96,8,400,,,
sequence,flow.Sequence,4_123,2023-10-30T22:45:24.156Z,,0,,,2737.1300000029732,completion,,,,,false,,,,483859.60000000894,483859.200000003,481105.404,481111.299999997,481122.07,483871.96,8,400,,,
trial,html.Screen,4_124_0,2023-10-30T22:45:27.271Z,,0,3,,3102.7400000029593,response,ISIC_0011350.JPG,8,ISIC_1632696.JPG,ISIC_0011350.JPG,false,1,keypress(m),500,486975,486974.700000003,483855.294,483859.700000003,483871.96,486989.137,8,400,25,,ISIC_1632696.JPG
break,html.Screen,4_124_1,2023-10-30T22:45:27.272Z,,0,,,NaN,,,,,,false,,,,486976.10000000894,486975.90000000596,,486975.40000000596,,486989.137,8,400,,,
break_continue,html.Screen,4_124_2,2023-10-30T22:45:27.273Z,,0,,,NaN,,,,,,false,,,,486976.40000000596,486976.299999997,,486976.10000000894,,486989.137,8,400,,,
sequence,flow.Sequence,4_124,2023-10-30T22:45:27.273Z,,0,,,3104.339999996999,completion,,,,,false,,,,486976.5,486976.299999997,483855.294,483859.60000000894,483871.96,486989.137,8,400,,,
trial,html.Screen,4_125_0,2023-10-30T22:45:29.997Z,,0,3,,2711.363000000012,response,ISIC_4568084.JPG,7,ISIC_0004955.JPG,ISIC_0004955.JPG,false,0,keypress(z),500,489701.10000000894,489700.5,486972.471,486976.60000000894,486989.137,489705.695,8,400,26,,ISIC_4568084.JPG
break,html.Screen,4_125_1,2023-10-30T22:45:29.999Z,,0,,,NaN,,,,,,false,,,,489702.40000000596,489702,,489701.40000000596,,489705.695,8,400,,,
break_continue,html.Screen,4_125_2,2023-10-30T22:45:29.999Z,,0,,,NaN,,,,,,false,,,,489702.799999997,489702.700000003,,489702.5,,489705.695,8,400,,,
sequence,flow.Sequence,4_125,2023-10-30T22:45:29.999Z,,0,,,2713.5630000029923,completion,,,,,false,,,,489703,489702.700000003,486972.471,486976.60000000894,486989.137,489705.695,8,400,,,
trial,html.Screen,4_126_0,2023-10-30T22:45:34.740Z,,0,3,,4737.804999999993,response,ISIC_0012059.JPG,4,ISIC_0010587.JPG,ISIC_0010587.JPG,false,0,keypress(z),500,494444,494443.5,489689.029,489703.200000003,489705.695,494455.505,8,400,27,,ISIC_0012059.JPG
