sender,sender_type,sender_id,timestamp,meta,,blockNo,condition,duration,ended_on,img_left,img_reveal,img_right,loser,practice,response,response_action,selection_duration,time_commit,time_end,time_render,time_run,time_show,time_switch,total_blocks,total_trials,trialNo,url,winner
informed_consent,html.Screen,0,2023-11-06T17:23:45.213Z,"{""labjs_version"":""20.2.4"",""labjs_build"":{""flavor"":""production"",""commit"":""f5b4a49f956347addd546a832a3327688c2c0fef""},""location"":""https://run.pavlovia.org/MurrayBennett/melanoma-2afc/?participant=65715&platform=sona"",""userAgent"":""Mozilla/5.0 (Macintosh; Intel Mac OS X 10_15_7) AppleWebKit/605.1.15 (KHTML, like Gecko) Version/16.1 Safari/605.1.15"",""platform"":""MacIntel"",""language"":""en-US"",""locale"":""en-US"",""timeZone"":""America/Chicago"",""timezoneOffset"":360,""screen_width"":1440,""screen_height"":900,""scroll_width"":1165,""scroll_height"":596,""window_innerWidth"":1165,""window_innerHeight"":644,""devicePixelRatio"":2}",,,,4521,response,,,,,,consent,click button,,7518,7517,2996,2992,3010,7565,,,,"{""participant"":""65715"",""platform"":""sona""}",
Welcome,html.Screen,1,2023-11-06T17:24:01.081Z,,,,regular,15853,response,,,,,,continue,click button,,23385,23385,7532,7518,7565,23432,,,,,
trial,html.Screen,2_0_0,2023-11-06T17:24:07.298Z,,0,0,,6203,response,ISIC_0061792.JPG,,ISIC_4679428.JPG,ISIC_0061792.JPG,true,1,keypress(m),500,29603,29602,23399,23386,23432,29649,1,6,1,,ISIC_4679428.JPG
sequence,flow.Sequence,2_0,2023-11-06T17:24:07.298Z,,0,,,6170,completion,,,,,true,,,,29603,29602,23399,23386,23432,29649,1,6,,,
trial,html.Screen,2_1_0,2023-11-06T17:24:15.621Z,,0,0,,8309.000000000007,response,ISIC_5199497.JPG,,ISIC_0776486.JPG,ISIC_0776486.JPG,true,0,keypress(z),500,37926,37925.00000000001,29616,29604,29649,37966,1,6,2,,ISIC_5199497.JPG
sequence,flow.Sequence,2_1,2023-11-06T17:24:15.622Z,,0,,,8276.000000000007,completion,,,,,true,,,,37927,37925.00000000001,29616,29603,29649,37966,1,6,,,
trial,html.Screen,2_2_0,2023-11-06T17:24:21.046Z,,0,0,,5419,response,ISIC_8575776.JPG,,ISIC_2556187.JPG,ISIC_2556187.JPG,true,0,keypress(z),500,43351,43351,37932,37927,37966,43399,1,6,3,,ISIC_8575776.JPG
sequence,flow.Sequence,2_2,2023-11-06T17:24:21.047Z,,0,,,5385,completion,,,,,true,,,,43352.00000000001,43351,37932,37927,37966,43399,1,6,,,
trial,html.Screen,2_3_0,2023-11-06T17:24:24.748Z,,0,0,,3687.0000000000073,response,ISIC_8141769.JPG,,ISIC_9238366.JPG,ISIC_8141769.JPG,true,1,keypress(m),500,47054,47053.00000000001,43366,43352.00000000001,43399,47100,1,6,4,,ISIC_9238366.JPG
sequence,flow.Sequence,2_3,2023-11-06T17:24:24.749Z,,0,,,3654.0000000000073,completion,,,,,true,,,,47054,47053.00000000001,43366,43352.00000000001,43399,47100,1,6,,,
trial,html.Screen,2_4_0,2023-11-06T17:24:27.433Z,,0,0,,2672,response,ISIC_9959593.JPG,,ISIC_8949026.JPG,ISIC_8949026.JPG,true,0,keypress(z),500,49739.00000000001,49738,47066,47055,47100,49783,1,6,5,,ISIC_9959593.JPG
sequence,flow.Sequence,2_4,2023-11-06T17:24:27.434Z,,0,,,2638,completion,,,,,true,,,,49739.00000000001,49738,47066,47055,47100,49783,1,6,,,
trial,html.Screen,2_5_0,2023-11-06T17:24:30.206Z,,0,0,,2760,response,ISIC_0010479.JPG,,ISIC_0460240.JPG,ISIC_0010479.JPG,true,1,keypress(m),500,52511,52510,49750,49740,49783,52566,1,6,6,,ISIC_0460240.JPG
sequence,flow.Sequence,2_5,2023-11-06T17:24:30.206Z,,0,,,2727,completion,,,,,true,,,,52512,52510,49750,49740,49783,52566,1,6,,,
loop,flow.Loop,2,2023-11-06T17:24:30.207Z,,,,,29078,completion,,,,,true,,,,52512,52510,23399,23386,23432,52566,1,6,,,
exp_instructions,html.Screen,3,2023-11-06T17:24:37.895Z,,,,,7668,response,,,,,,continue,keypress(Space),,60201,60201,52533,52513,52566,60250,,,,,
trial,html.Screen,4_0_0,2023-11-06T17:24:42.447Z,,0,1,,4535.999999999993,response,ISIC_4116224.JPG,5,ISIC_0046222.JPG,ISIC_4116224.JPG,false,1,keypress(m),500,64753,64751.99999999999,60216,60201,60250,64799,8,400,1,,ISIC_0046222.JPG
break,html.Screen,4_0_1,2023-11-06T17:24:42.448Z,,0,,,NaN,,,,,,false,,,,64754.00000000001,64754.00000000001,,64753,,64799,8,400,,,
break_continue,html.Screen,4_0_2,2023-11-06T17:24:42.449Z,,0,,,NaN,,,,,,false,,,,64754.99999999999,64754.99999999999,,64754.99999999999,,64799,8,400,,,
sequence,flow.Sequence,4_0,2023-11-06T17:24:42.449Z,,0,,,4504.999999999993,completion,,,,,false,,,,64754.99999999999,64754.99999999999,60216,60201,60250,64799,8,400,,,
trial,html.Screen,4_1_0,2023-11-06T17:24:46.037Z,,0,1,,3575,response,ISIC_6588982.JPG,4,ISIC_0055013.JPG,ISIC_0055013.JPG,false,0,keypress(z),500,68343,68342,64767,64756,64799,68383,8,400,2,,ISIC_6588982.JPG
break,html.Screen,4_1_1,2023-11-06T17:24:46.039Z,,0,,,NaN,,,,,,false,,,,68345,68344.00000000001,,68343,,68383,8,400,,,
break_continue,html.Screen,4_1_2,2023-11-06T17:24:46.040Z,,0,,,NaN,,,,,,false,,,,68346,68345,,68345,,68383,8,400,,,
sequence,flow.Sequence,4_1,2023-11-06T17:24:46.040Z,,0,,,3546,completion,,,,,false,,,,68346,68345,64767,64754.99999999999,64799,68383,8,400,,,
trial,html.Screen,4_2_0,2023-11-06T17:24:50.492Z,,0,1,,4449,response,ISIC_0032774.JPG,5,ISIC_0011830.JPG,ISIC_0032774.JPG,false,1,keypress(m),500,72799,72798,68349,68346,68383,72850,8,400,3,,ISIC_0011830.JPG
break,html.Screen,4_2_1,2023-11-06T17:24:50.494Z,,0,,,NaN,,,,,,false,,,,72800,72800,,72799,,72850,8,400,,,
break_continue,html.Screen,4_2_2,2023-11-06T17:24:50.495Z,,0,,,NaN,,,,,,false,,,,72801,72801,,72800,,72850,8,400,,,
sequence,flow.Sequence,4_2,2023-11-06T17:24:50.495Z,,0,,,4418,completion,,,,,false,,,,72801,72801,68349,68346,68383,72850,8,400,,,
trial,html.Screen,4_3_0,2023-11-06T17:24:55.811Z,,0,1,,5299,response,ISIC_3392451.JPG,10,ISIC_1519891.JPG,ISIC_3392451.JPG,false,1,keypress(m),500,78117,78116,72817,72801,72850,78167,8,400,4,,ISIC_1519891.JPG
break,html.Screen,4_3_1,2023-11-06T17:24:55.812Z,,0,,,NaN,,,,,,false,,,,78118,78118,,78117,,78167,8,400,,,
break_continue,html.Screen,4_3_2,2023-11-06T17:24:55.813Z,,0,,,NaN,,,,,,false,,,,78119,78119,,78119,,78167,8,400,,,
sequence,flow.Sequence,4_3,2023-11-06T17:24:55.813Z,,0,,,5269,completion,,,,,false,,,,78119,78119,72817,72801,72850,78167,8,400,,,
trial,html.Screen,4_4_0,2023-11-06T17:24:58.945Z,,0,1,,3117,response,ISIC_0070136.JPG,6,ISIC_0010478.JPG,ISIC_0070136.JPG,false,1,keypress(m),500,81252,81251,78134,78120,78167,81299,8,400,5,,ISIC_0010478.JPG
break,html.Screen,4_4_1,2023-11-06T17:24:58.947Z,,0,,,NaN,,,,,,false,,,,81253,81253,,81252,,81299,8,400,,,
break_continue,html.Screen,4_4_2,2023-11-06T17:24:58.948Z,,0,,,NaN,,,,,,false,,,,81254,81254,,81254,,81299,8,400,,,
sequence,flow.Sequence,4_4,2023-11-06T17:24:58.948Z,,0,,,3087,completion,,,,,false,,,,81254,81254,78134,78120,78167,81299,8,400,,,
trial,html.Screen,4_5_0,2023-11-06T17:25:01.855Z,,0,1,,2894,response,ISIC_0031914.JPG,4,ISIC_7365889.JPG,ISIC_0031914.JPG,false,1,keypress(m),500,84162,84161,81267,81254,81299,84200,8,400,6,,ISIC_7365889.JPG
break,html.Screen,4_5_1,2023-11-06T17:25:01.857Z,,0,,,NaN,,,,,,false,,,,84163,84163,,84162,,84200,8,400,,,
break_continue,html.Screen,4_5_2,2023-11-06T17:25:01.857Z,,0,,,NaN,,,,,,false,,,,84164,84163,,84163,,84200,8,400,,,
sequence,flow.Sequence,4_5,2023-11-06T17:25:01.857Z,,0,,,2864,completion,,,,,false,,,,84164,84163,81267,81254,81299,84200,8,400,,,
trial,html.Screen,4_6_0,2023-11-06T17:25:04.787Z,,0,1,,2926,response,ISIC_7575815.JPG,12,ISIC_8252406.JPG,ISIC_8252406.JPG,false,0,keypress(z),500,87094.00000000001,87093,84167,84164,84200,87134,8,400,7,,ISIC_7575815.JPG
break,html.Screen,4_6_1,2023-11-06T17:25:04.789Z,,0,,,NaN,,,,,,false,,,,87095,87095,,87094.00000000001,,87134,8,400,,,
break_continue,html.Screen,4_6_2,2023-11-06T17:25:04.789Z,,0,,,NaN,,,,,,false,,,,87096,87096,,87096,,87134,8,400,,,
sequence,flow.Sequence,4_6,2023-11-06T17:25:04.790Z,,0,,,2896,completion,,,,,false,,,,87096,87096,84167,84164,84200,87134,8,400,,,
trial,html.Screen,4_7_0,2023-11-06T17:25:10.179Z,,0,1,,5385,response,ISIC_0064113.JPG,6,ISIC_0025056.JPG,ISIC_0064113.JPG,false,1,keypress(m),500,92486,92485,87100,87097.00000000001,87134,92534,8,400,8,,ISIC_0025056.JPG
break,html.Screen,4_7_1,2023-11-06T17:25:10.180Z,,0,,,NaN,,,,,,false,,,,92487.00000000001,92487.00000000001,,92486,,92534,8,400,,,
break_continue,html.Screen,4_7_2,2023-11-06T17:25:10.181Z,,0,,,NaN,,,,,,false,,,,92487.00000000001,92487.00000000001,,92487.00000000001,,92534,8,400,,,
sequence,flow.Sequence,4_7,2023-11-06T17:25:10.181Z,,0,,,5353.000000000015,completion,,,,,false,,,,92488,92487.00000000001,87100,87097.00000000001,87134,92534,8,400,,,
trial,html.Screen,4_8_0,2023-11-06T17:25:13.351Z,,0,1,,3157,response,ISIC_0011665.JPG,6,ISIC_0982855.JPG,ISIC_0011665.JPG,false,1,keypress(m),500,95658,95657,92500,92488,92534,95701,8,400,9,,ISIC_0982855.JPG
break,html.Screen,4_8_1,2023-11-06T17:25:13.352Z,,0,,,NaN,,,,,,false,,,,95659,95659,,95658,,95701,8,400,,,
break_continue,html.Screen,4_8_2,2023-11-06T17:25:13.353Z,,0,,,NaN,,,,,,false,,,,95660,95660,,95659,,95701,8,400,,,
sequence,flow.Sequence,4_8,2023-11-06T17:25:13.353Z,,0,,,3126,completion,,,,,false,,,,95660,95660,92500,92488,92534,95701,8,400,,,
trial,html.Screen,4_9_0,2023-11-06T17:25:17.508Z,,0,1,,4147,response,ISIC_4419686.JPG,9,ISIC_6618851.JPG,ISIC_4419686.JPG,false,1,keypress(m),500,99815,99814,95667,95660,95701,99867,8,400,10,,ISIC_6618851.JPG
break,html.Screen,4_9_1,2023-11-06T17:25:17.509Z,,0,,,NaN,,,,,,false,,,,99816,99816,,99815,,99867,8,400,,,
break_continue,html.Screen,4_9_2,2023-11-06T17:25:17.510Z,,0,,,NaN,,,,,,false,,,,99816,99816,,99816,,99867,8,400,,,
sequence,flow.Sequence,4_9,2023-11-06T17:25:17.510Z,,0,,,4115,completion,,,,,false,,,,99817,99816,95667,95660,95701,99867,8,400,,,
trial,html.Screen,4_10_0,2023-11-06T17:25:22.151Z,,0,1,,4625,response,ISIC_5573566.JPG,11,ISIC_2198823.JPG,ISIC_2198823.JPG,false,0,keypress(z),500,104458,104458,99833,99817,99867,104501,8,400,11,,ISIC_5573566.JPG
break,html.Screen,4_10_1,2023-11-06T17:25:22.153Z,,0,,,NaN,,,,,,false,,,,104460.00000000001,104460.00000000001,,104459,,104501,8,400,,,
break_continue,html.Screen,4_10_2,2023-11-06T17:25:22.153Z,,0,,,NaN,,,,,,false,,,,104460.00000000001,104460.00000000001,,104460.00000000001,,104501,8,400,,,
sequence,flow.Sequence,4_10,2023-11-06T17:25:22.154Z,,0,,,4593.000000000015,completion,,,,,false,,,,104461,104460.00000000001,99833,99817,99867,104501,8,400,,,
trial,html.Screen,4_11_0,2023-11-06T17:25:25.543Z,,0,1,,3383.0000000000146,response,ISIC_2513018.JPG,8,ISIC_0439726.JPG,ISIC_2513018.JPG,false,1,keypress(m),500,107850.00000000001,107850.00000000001,104467,104461,104501,107900,8,400,12,,ISIC_0439726.JPG
break,html.Screen,4_11_1,2023-11-06T17:25:25.545Z,,0,,,NaN,,,,,,false,,,,107852,107852,,107851,,107900,8,400,,,
break_continue,html.Screen,4_11_2,2023-11-06T17:25:25.545Z,,0,,,NaN,,,,,,false,,,,107852,107852,,107852,,107900,8,400,,,
sequence,flow.Sequence,4_11,2023-11-06T17:25:25.545Z,,0,,,3351,completion,,,,,false,,,,107853.00000000001,107852,104467,104461,104501,107900,8,400,,,
trial,html.Screen,4_12_0,2023-11-06T17:25:28.408Z,,0,1,,2846,response,ISIC_6099476.JPG,11,ISIC_0000031.JPG,ISIC_0000031.JPG,false,0,keypress(z),500,110715,110714,107868,107853.00000000001,107900,110768,8,400,13,,ISIC_6099476.JPG
break,html.Screen,4_12_1,2023-11-06T17:25:28.409Z,,0,,,NaN,,,,,,false,,,,110716.00000000001,110716.00000000001,,110715,,110768,8,400,,,
break_continue,html.Screen,4_12_2,2023-11-06T17:25:28.409Z,,0,,,NaN,,,,,,false,,,,110717,110716.00000000001,,110716.00000000001,,110768,8,400,,,
sequence,flow.Sequence,4_12,2023-11-06T17:25:28.410Z,,0,,,2816.0000000000146,completion,,,,,false,,,,110717,110716.00000000001,107868,107853.00000000001,107900,110768,8,400,,,
trial,html.Screen,4_13_0,2023-11-06T17:25:32.198Z,,0,1,,3771,response,ISIC_0071916.JPG,11,ISIC_3352962.JPG,ISIC_0071916.JPG,false,1,keypress(m),500,114505,114505,110734,110717,110768,114550,8,400,14,,ISIC_3352962.JPG
break,html.Screen,4_13_1,2023-11-06T17:25:32.199Z,,0,,,NaN,,,,,,false,,,,114507,114506,,114506,,114550,8,400,,,
break_continue,html.Screen,4_13_2,2023-11-06T17:25:32.200Z,,0,,,NaN,,,,,,false,,,,114507,114507,,114507,,114550,8,400,,,
sequence,flow.Sequence,4_13,2023-11-06T17:25:32.200Z,,0,,,3739,completion,,,,,false,,,,114507,114507,110734,110717,110768,114550,8,400,,,
trial,html.Screen,4_14_0,2023-11-06T17:25:35.630Z,,0,1,,3420,response,ISIC_9859873.JPG,8,ISIC_0024980.JPG,ISIC_0024980.JPG,false,0,keypress(z),500,117937,117937,114517,114507,114550,117984,8,400,15,,ISIC_9859873.JPG
break,html.Screen,4_14_1,2023-11-06T17:25:35.632Z,,0,,,NaN,,,,,,false,,,,117939,117939,,117938,,117984,8,400,,,
break_continue,html.Screen,4_14_2,2023-11-06T17:25:35.632Z,,0,,,NaN,,,,,,false,,,,117940,117939,,117939,,117984,8,400,,,
sequence,flow.Sequence,4_14,2023-11-06T17:25:35.632Z,,0,,,3389,completion,,,,,false,,,,117940,117939,114517,114507,114550,117984,8,400,,,
trial,html.Screen,4_15_0,2023-11-06T17:25:38.738Z,,0,1,,3094,response,ISIC_0058149.JPG,6,ISIC_1519891.JPG,ISIC_0058149.JPG,false,1,keypress(m),500,121046,121045,117951,117940,117984,121084,8,400,16,,ISIC_1519891.JPG
break,html.Screen,4_15_1,2023-11-06T17:25:38.739Z,,0,,,NaN,,,,,,false,,,,121047,121047,,121046,,121084,8,400,,,
break_continue,html.Screen,4_15_2,2023-11-06T17:25:38.740Z,,0,,,NaN,,,,,,false,,,,121047,121047,,121047,,121084,8,400,,,
sequence,flow.Sequence,4_15,2023-11-06T17:25:38.740Z,,0,,,3063,completion,,,,,false,,,,121047,121047,117951,117940,117984,121084,8,400,,,
trial,html.Screen,4_16_0,2023-11-06T17:25:41.529Z,,0,1,,2786,response,ISIC_5098778.JPG,11,ISIC_0011862.JPG,ISIC_5098778.JPG,false,1,keypress(m),500,123837,123836,121050,121048,121084,123885,8,400,17,,ISIC_0011862.JPG
break,html.Screen,4_16_1,2023-11-06T17:25:41.531Z,,0,,,NaN,,,,,,false,,,,123838.00000000001,123838.00000000001,,123837,,123885,8,400,,,
break_continue,html.Screen,4_16_2,2023-11-06T17:25:41.531Z,,0,,,NaN,,,,,,false,,,,123839,123839,,123839,,123885,8,400,,,
sequence,flow.Sequence,4_16,2023-11-06T17:25:41.532Z,,0,,,2755,completion,,,,,false,,,,123839,123839,121050,121048,121084,123885,8,400,,,
trial,html.Screen,4_17_0,2023-11-06T17:25:44.314Z,,0,1,,2770.0000000000146,response,ISIC_6529819.JPG,8,ISIC_0056937.JPG,ISIC_0056937.JPG,false,0,keypress(z),500,126622,126621.00000000001,123851,123839,123885,126668,8,400,18,,ISIC_6529819.JPG
break,html.Screen,4_17_1,2023-11-06T17:25:44.315Z,,0,,,NaN,,,,,,false,,,,126623,126623,,126622,,126668,8,400,,,
break_continue,html.Screen,4_17_2,2023-11-06T17:25:44.316Z,,0,,,NaN,,,,,,false,,,,126624.00000000001,126623,,126623,,126668,8,400,,,
sequence,flow.Sequence,4_17,2023-11-06T17:25:44.316Z,,0,,,2738,completion,,,,,false,,,,126624.00000000001,126623,123851,123839,123885,126668,8,400,,,
trial,html.Screen,4_18_0,2023-11-06T17:25:47.541Z,,0,1,,3214.0000000000146,response,ISIC_5652135.JPG,10,ISIC_4084359.JPG,ISIC_4084359.JPG,false,0,keypress(z),500,129848.99999999999,129848.00000000001,126634,126624.00000000001,126668,129901,8,400,19,,ISIC_5652135.JPG
break,html.Screen,4_18_1,2023-11-06T17:25:47.543Z,,0,,,NaN,,,,,,false,,,,129851,129850,,129850,,129901,8,400,,,
break_continue,html.Screen,4_18_2,2023-11-06T17:25:47.543Z,,0,,,NaN,,,,,,false,,,,129851,129851,,129851,,129901,8,400,,,
sequence,flow.Sequence,4_18,2023-11-06T17:25:47.544Z,,0,,,3183,completion,,,,,false,,,,129852,129851,126634,126624.00000000001,126668,129901,8,400,,,
trial,html.Screen,4_19_0,2023-11-06T17:25:51.692Z,,0,1,,4131,response,ISIC_0033752.JPG,8,ISIC_7433993.JPG,ISIC_0033752.JPG,false,1,keypress(m),500,134000,133999,129868,129852,129901,134051,8,400,20,,ISIC_7433993.JPG
break,html.Screen,4_19_1,2023-11-06T17:25:51.693Z,,0,,,NaN,,,,,,false,,,,134001,134001,,134000,,134051,8,400,,,
break_continue,html.Screen,4_19_2,2023-11-06T17:25:51.693Z,,0,,,NaN,,,,,,false,,,,134001,134001,,134001,,134051,8,400,,,
sequence,flow.Sequence,4_19,2023-11-06T17:25:51.694Z,,0,,,4100,completion,,,,,false,,,,134002,134001,129868,129852,129901,134051,8,400,,,
trial,html.Screen,4_20_0,2023-11-06T17:25:54.769Z,,0,1,,3059,response,ISIC_1026382.JPG,15,ISIC_0844312.JPG,ISIC_1026382.JPG,false,1,keypress(m),500,137077,137077,134018,134002,134051,137117,8,400,21,,ISIC_0844312.JPG
break,html.Screen,4_20_1,2023-11-06T17:25:54.771Z,,0,,,NaN,,,,,,false,,,,137079,137078,,137078,,137117,8,400,,,
break_continue,html.Screen,4_20_2,2023-11-06T17:25:54.771Z,,0,,,NaN,,,,,,false,,,,137079,137079,,137079,,137117,8,400,,,
sequence,flow.Sequence,4_20,2023-11-06T17:25:54.771Z,,0,,,3028,completion,,,,,false,,,,137080,137079,134018,134002,134051,137117,8,400,,,
trial,html.Screen,4_21_0,2023-11-06T17:25:57.441Z,,0,1,,2664,response,ISIC_7935462.JPG,11,ISIC_0056389.JPG,ISIC_0056389.JPG,false,0,keypress(z),500,139749,139748,137084,137080,137117,139802,8,400,22,,ISIC_7935462.JPG
break,html.Screen,4_21_1,2023-11-06T17:25:57.441Z,,0,,,NaN,,,,,,false,,,,139749,139749,,139749,,139802,8,400,,,
break_continue,html.Screen,4_21_2,2023-11-06T17:25:57.442Z,,0,,,NaN,,,,,,false,,,,139750,139750,,139750,,139802,8,400,,,
sequence,flow.Sequence,4_21,2023-11-06T17:25:57.442Z,,0,,,2633,completion,,,,,false,,,,139750,139750,137084,137080,137117,139802,8,400,,,
trial,html.Screen,4_22_0,2023-11-06T17:26:00.202Z,,0,1,,2741,response,ISIC_5101111.JPG,5,ISIC_0185547.JPG,ISIC_0185547.JPG,false,0,keypress(z),500,142510,142510,139769,139750,139802,142552,8,400,23,,ISIC_5101111.JPG
break,html.Screen,4_22_1,2023-11-06T17:26:00.203Z,,0,,,NaN,,,,,,false,,,,142512,142511,,142511,,142552,8,400,,,
break_continue,html.Screen,4_22_2,2023-11-06T17:26:00.204Z,,0,,,NaN,,,,,,false,,,,142512,142512,,142512,,142552,8,400,,,
sequence,flow.Sequence,4_22,2023-11-06T17:26:00.204Z,,0,,,2710,completion,,,,,false,,,,142512,142512,139769,139750,139802,142552,8,400,,,
trial,html.Screen,4_23_0,2023-11-06T17:26:03.752Z,,0,1,,3541,response,ISIC_8575769.JPG,6,ISIC_5789052.JPG,ISIC_5789052.JPG,false,0,keypress(z),500,146060,146059,142518,142513,142552,146102,8,400,24,,ISIC_8575769.JPG
break,html.Screen,4_23_1,2023-11-06T17:26:03.753Z,,0,,,NaN,,,,,,false,,,,146061,146061,,146060,,146102,8,400,,,
break_continue,html.Screen,4_23_2,2023-11-06T17:26:03.753Z,,0,,,NaN,,,,,,false,,,,146061,146061,,146061,,146102,8,400,,,
sequence,flow.Sequence,4_23,2023-11-06T17:26:03.753Z,,0,,,3509,completion,,,,,false,,,,146062,146061,142518,142513,142552,146102,8,400,,,
trial,html.Screen,4_24_0,2023-11-06T17:26:08.126Z,,0,1,,4367,response,ISIC_0032232.JPG,8,ISIC_6657600.JPG,ISIC_6657600.JPG,false,0,keypress(z),500,150435,150434,146067,146062,146102,150485,8,400,25,,ISIC_0032232.JPG
break,html.Screen,4_24_1,2023-11-06T17:26:08.128Z,,0,,,NaN,,,,,,false,,,,150436,150436,,150435,,150485,8,400,,,
break_continue,html.Screen,4_24_2,2023-11-06T17:26:08.128Z,,0,,,NaN,,,,,,false,,,,150437,150436,,150436,,150485,8,400,,,
sequence,flow.Sequence,4_24,2023-11-06T17:26:08.128Z,,0,,,4334,completion,,,,,false,,,,150437,150436,146067,146062,146102,150485,8,400,,,
trial,html.Screen,4_25_0,2023-11-06T17:26:11.661Z,,0,1,,3517,response,ISIC_7648726.JPG,8,ISIC_0033336.JPG,ISIC_7648726.JPG,false,1,keypress(m),500,153970,153969,150452,150437,150485,154018,8,400,26,,ISIC_0033336.JPG
break,html.Screen,4_25_1,2023-11-06T17:26:11.662Z,,0,,,NaN,,,,,,false,,,,153971,153971,,153970,,154018,8,400,,,
break_continue,html.Screen,4_25_2,2023-11-06T17:26:11.663Z,,0,,,NaN,,,,,,false,,,,153971,153971,,153971,,154018,8,400,,,
sequence,flow.Sequence,4_25,2023-11-06T17:26:11.663Z,,0,,,3486,completion,,,,,false,,,,153971,153971,150452,150437,150485,154018,8,400,,,
trial,html.Screen,4_26_0,2023-11-06T17:26:16.873Z,,0,1,,5196,response,ISIC_0070784.JPG,7,ISIC_0028394.JPG,ISIC_0070784.JPG,false,1,keypress(m),500,159181,159181,153985,153972,154018,159235,8,400,27,,ISIC_0028394.JPG
break,html.Screen,4_26_1,2023-11-06T17:26:16.874Z,,0,,,NaN,,,,,,false,,,,159183,159182.00000000003,,159182.00000000003,,159235,8,400,,,
break_continue,html.Screen,4_26_2,2023-11-06T17:26:16.874Z,,0,,,NaN,,,,,,false,,,,159183,159183,,159183,,159235,8,400,,,
sequence,flow.Sequence,4_26,2023-11-06T17:26:16.874Z,,0,,,5165,completion,,,,,false,,,,159183,159183,153985,153972,154018,159235,8,400,,,
trial,html.Screen,4_27_0,2023-11-06T17:26:20.366Z,,0,1,,3472,response,ISIC_3025889.JPG,9,ISIC_0028320.JPG,ISIC_3025889.JPG,false,1,keypress(m),500,162675,162674,159202,159183,159235,162718,8,400,28,,ISIC_0028320.JPG
break,html.Screen,4_27_1,2023-11-06T17:26:20.367Z,,0,,,NaN,,,,,,false,,,,162676.00000000003,162676.00000000003,,162675,,162718,8,400,,,
break_continue,html.Screen,4_27_2,2023-11-06T17:26:20.368Z,,0,,,NaN,,,,,,false,,,,162677,162677,,162676.00000000003,,162718,8,400,,,
sequence,flow.Sequence,4_27,2023-11-06T17:26:20.368Z,,0,,,3442,completion,,,,,false,,,,162677,162677,159202,159183,159235,162718,8,400,,,
trial,html.Screen,4_28_0,2023-11-06T17:26:23.936Z,,0,1,,3559,response,ISIC_8324870.JPG,2,ISIC_0046983.JPG,ISIC_0046983.JPG,false,0,keypress(z),500,166244,166244,162685,162677,162718,166285,8,400,29,,ISIC_8324870.JPG
break,html.Screen,4_28_1,2023-11-06T17:26:23.937Z,,0,,,NaN,,,,,,false,,,,166246,166246,,166245,,166285,8,400,,,
break_continue,html.Screen,4_28_2,2023-11-06T17:26:23.937Z,,0,,,NaN,,,,,,false,,,,166246,166246,,166246,,166285,8,400,,,
sequence,flow.Sequence,4_28,2023-11-06T17:26:23.938Z,,0,,,3528,completion,,,,,false,,,,166246,166246,162685,162677,162718,166285,8,400,,,
trial,html.Screen,4_29_0,2023-11-06T17:26:31.798Z,,0,1,,7855,response,ISIC_0025369.JPG,8,ISIC_9014786.JPG,ISIC_0025369.JPG,false,1,keypress(m),500,174107,174107,166252,166247,166285,174152,8,400,30,,ISIC_9014786.JPG
break,html.Screen,4_29_1,2023-11-06T17:26:31.799Z,,0,,,NaN,,,,,,false,,,,174109,174108,,174108,,174152,8,400,,,
break_continue,html.Screen,4_29_2,2023-11-06T17:26:31.800Z,,0,,,NaN,,,,,,false,,,,174109,174109,,174109,,174152,8,400,,,
sequence,flow.Sequence,4_29,2023-11-06T17:26:31.800Z,,0,,,7824,completion,,,,,false,,,,174109,174109,166252,166247,166285,174152,8,400,,,
trial,html.Screen,4_30_0,2023-11-06T17:26:34.587Z,,0,1,,2777,response,ISIC_0010883.JPG,10,ISIC_3432650.JPG,ISIC_0010883.JPG,false,1,keypress(m),500,176896.00000000003,176895,174118,174109,174152,176936,8,400,31,,ISIC_3432650.JPG
break,html.Screen,4_30_1,2023-11-06T17:26:34.588Z,,0,,,NaN,,,,,,false,,,,176897,176897,,176896.00000000003,,176936,8,400,,,
break_continue,html.Screen,4_30_2,2023-11-06T17:26:34.588Z,,0,,,NaN,,,,,,false,,,,176898,176897,,176897,,176936,8,400,,,
sequence,flow.Sequence,4_30,2023-11-06T17:26:34.589Z,,0,,,2745,completion,,,,,false,,,,176898,176897,174118,174109,174152,176936,8,400,,,
trial,html.Screen,4_31_0,2023-11-06T17:26:37.426Z,,0,1,,2832,response,ISIC_0000814.JPG,5,ISIC_0070747.JPG,ISIC_0070747.JPG,false,0,keypress(z),500,179735,179734,176902,176898,176936,179785,8,400,32,,ISIC_0000814.JPG
break,html.Screen,4_31_1,2023-11-06T17:26:37.427Z,,0,,,NaN,,,,,,false,,,,179736,179736,,179735,,179785,8,400,,,
break_continue,html.Screen,4_31_2,2023-11-06T17:26:37.427Z,,0,,,NaN,,,,,,false,,,,179737,179736,,179736,,179785,8,400,,,
sequence,flow.Sequence,4_31,2023-11-06T17:26:37.428Z,,0,,,2800,completion,,,,,false,,,,179737,179736,176902,176898,176936,179785,8,400,,,
trial,html.Screen,4_32_0,2023-11-06T17:26:40.453Z,,0,1,,3010,response,ISIC_0247330.JPG,12,ISIC_0055039.JPG,ISIC_0055039.JPG,false,0,keypress(z),500,182762,182762,179752,179737,179785,182802,8,400,33,,ISIC_0247330.JPG
break,html.Screen,4_32_1,2023-11-06T17:26:40.454Z,,0,,,NaN,,,,,,false,,,,182764,182763,,182763,,182802,8,400,,,
break_continue,html.Screen,4_32_2,2023-11-06T17:26:40.454Z,,0,,,NaN,,,,,,false,,,,182764,182764,,182764,,182802,8,400,,,
sequence,flow.Sequence,4_32,2023-11-06T17:26:40.455Z,,0,,,2979,completion,,,,,false,,,,182764,182764,179752,179737,179785,182802,8,400,,,
trial,html.Screen,4_33_0,2023-11-06T17:26:43.690Z,,0,1,,3230,response,ISIC_2379379.JPG,5,ISIC_0012040.JPG,ISIC_0012040.JPG,false,0,keypress(z),500,185999,185999,182769,182764,182802,186052,8,400,34,,ISIC_2379379.JPG
break,html.Screen,4_33_1,2023-11-06T17:26:43.691Z,,0,,,NaN,,,,,,false,,,,186001,186000,,186000,,186052,8,400,,,
break_continue,html.Screen,4_33_2,2023-11-06T17:26:43.692Z,,0,,,NaN,,,,,,false,,,,186001,186001,,186001,,186052,8,400,,,
sequence,flow.Sequence,4_33,2023-11-06T17:26:43.692Z,,0,,,3199,completion,,,,,false,,,,186001,186001,182769,182764,182802,186052,8,400,,,
trial,html.Screen,4_34_0,2023-11-06T17:26:46.462Z,,0,1,,2752.000000000029,response,ISIC_0030501.JPG,12,ISIC_0031127.JPG,ISIC_0030501.JPG,false,1,keypress(m),500,188772,188771.00000000003,186019,186002,186052,188819,8,400,35,,ISIC_0031127.JPG
break,html.Screen,4_34_1,2023-11-06T17:26:46.463Z,,0,,,NaN,,,,,,false,,,,188773,188773,,188772,,188819,8,400,,,
break_continue,html.Screen,4_34_2,2023-11-06T17:26:46.464Z,,0,,,NaN,,,,,,false,,,,188774,188773,,188773,,188819,8,400,,,
sequence,flow.Sequence,4_34,2023-11-06T17:26:46.464Z,,0,,,2721,completion,,,,,false,,,,188774,188773,186019,186002,186052,188819,8,400,,,
trial,html.Screen,4_35_0,2023-11-06T17:26:49.932Z,,0,1,,3455,response,ISIC_9199158.JPG,6,ISIC_8609756.JPG,ISIC_9199158.JPG,false,1,keypress(m),500,192242,192241,188786,188774,188819,192286,8,400,36,,ISIC_8609756.JPG
break,html.Screen,4_35_1,2023-11-06T17:26:49.933Z,,0,,,NaN,,,,,,false,,,,192243,192243,,192242,,192286,8,400,,,
break_continue,html.Screen,4_35_2,2023-11-06T17:26:49.934Z,,0,,,NaN,,,,,,false,,,,192243,192243,,192243,,192286,8,400,,,
sequence,flow.Sequence,4_35,2023-11-06T17:26:49.934Z,,0,,,3424,completion,,,,,false,,,,192244,192243,188786,188774,188819,192286,8,400,,,
trial,html.Screen,4_36_0,2023-11-06T17:26:52.557Z,,0,1,,2613,response,ISIC_8855790.JPG,9,ISIC_0012740.JPG,ISIC_8855790.JPG,false,1,keypress(m),500,194867,194866,192253,192244,192286,194919,8,400,37,,ISIC_0012740.JPG
break,html.Screen,4_36_1,2023-11-06T17:26:52.558Z,,0,,,NaN,,,,,,false,,,,194868,194868,,194867,,194919,8,400,,,
break_continue,html.Screen,4_36_2,2023-11-06T17:26:52.558Z,,0,,,NaN,,,,,,false,,,,194868,194868,,194868,,194919,8,400,,,
sequence,flow.Sequence,4_36,2023-11-06T17:26:52.559Z,,0,,,2582,completion,,,,,false,,,,194868,194868,192253,192244,192286,194919,8,400,,,
trial,html.Screen,4_37_0,2023-11-06T17:26:55.588Z,,0,1,,3012,response,ISIC_6938608.JPG,9,ISIC_0013572.JPG,ISIC_6938608.JPG,false,1,keypress(m),500,197898,197897,194885,194869,194919,197936,8,400,38,,ISIC_0013572.JPG
break,html.Screen,4_37_1,2023-11-06T17:26:55.589Z,,0,,,NaN,,,,,,false,,,,197899,197899,,197898,,197936,8,400,,,
break_continue,html.Screen,4_37_2,2023-11-06T17:26:55.590Z,,0,,,NaN,,,,,,false,,,,197900,197899,,197899,,197936,8,400,,,
sequence,flow.Sequence,4_37,2023-11-06T17:26:55.590Z,,0,,,2980,completion,,,,,false,,,,197900,197899,194885,194868,194919,197936,8,400,,,
trial,html.Screen,4_38_0,2023-11-06T17:26:59.497Z,,0,1,,3904,response,ISIC_2139752.JPG,8,ISIC_2307760.JPG,ISIC_2139752.JPG,false,1,keypress(m),500,201807.00000000003,201806,197902,197900,197936,201853,8,400,39,,ISIC_2307760.JPG
break,html.Screen,4_38_1,2023-11-06T17:26:59.498Z,,0,,,NaN,,,,,,false,,,,201808,201808,,201807.00000000003,,201853,8,400,,,
break_continue,html.Screen,4_38_2,2023-11-06T17:26:59.499Z,,0,,,NaN,,,,,,false,,,,201809,201808,,201808,,201853,8,400,,,
sequence,flow.Sequence,4_38,2023-11-06T17:26:59.499Z,,0,,,3872,completion,,,,,false,,,,201809,201808,197902,197900,197936,201853,8,400,,,
trial,html.Screen,4_39_0,2023-11-06T17:27:02.243Z,,0,1,,2733,response,ISIC_0058828.JPG,6,ISIC_4527661.JPG,ISIC_0058828.JPG,false,1,keypress(m),500,204553,204553,201820,201809,201853,204603,8,400,40,,ISIC_4527661.JPG
break,html.Screen,4_39_1,2023-11-06T17:27:02.245Z,,0,,,NaN,,,,,,false,,,,204555,204554,,204554,,204603,8,400,,,
break_continue,html.Screen,4_39_2,2023-11-06T17:27:02.245Z,,0,,,NaN,,,,,,false,,,,204555,204555,,204555,,204603,8,400,,,
sequence,flow.Sequence,4_39,2023-11-06T17:27:02.245Z,,0,,,2702,completion,,,,,false,,,,204555,204555,201820,201809,201853,204603,8,400,,,
trial,html.Screen,4_40_0,2023-11-06T17:27:05.571Z,,0,1,,3311,response,ISIC_7980387.JPG,9,ISIC_0065313.JPG,ISIC_0065313.JPG,false,0,keypress(z),500,207881,207881,204570,204555,204603,207919,8,400,41,,ISIC_7980387.JPG
break,html.Screen,4_40_1,2023-11-06T17:27:05.572Z,,0,,,NaN,,,,,,false,,,,207882,207882,,207882,,207919,8,400,,,
break_continue,html.Screen,4_40_2,2023-11-06T17:27:05.573Z,,0,,,NaN,,,,,,false,,,,207883,207883,,207883,,207919,8,400,,,
sequence,flow.Sequence,4_40,2023-11-06T17:27:05.573Z,,0,,,3280,completion,,,,,false,,,,207883,207883,204570,204555,204603,207919,8,400,,,
trial,html.Screen,4_41_0,2023-11-06T17:27:08.689Z,,0,1,,3112,response,ISIC_0046316.JPG,13,ISIC_8621568.JPG,ISIC_0046316.JPG,false,1,keypress(m),500,210999,210998,207886,207883,207919,211053,8,400,42,,ISIC_8621568.JPG
break,html.Screen,4_41_1,2023-11-06T17:27:08.690Z,,0,,,NaN,,,,,,false,,,,211000,211000,,210999,,211053,8,400,,,
break_continue,html.Screen,4_41_2,2023-11-06T17:27:08.690Z,,0,,,NaN,,,,,,false,,,,211000,211000,,211000,,211053,8,400,,,
sequence,flow.Sequence,4_41,2023-11-06T17:27:08.690Z,,0,,,3081,completion,,,,,false,,,,211001,211000,207886,207883,207919,211053,8,400,,,
trial,html.Screen,4_42_0,2023-11-06T17:27:11.591Z,,0,1,,2881,response,ISIC_0034107.JPG,9,ISIC_0011757.JPG,ISIC_0011757.JPG,false,0,keypress(z),500,213902.00000000003,213901,211020,211001,211053,213953,8,400,43,,ISIC_0034107.JPG
break,html.Screen,4_42_1,2023-11-06T17:27:11.592Z,,0,,,NaN,,,,,,false,,,,213903,213902.00000000003,,213902.00000000003,,213953,8,400,,,
break_continue,html.Screen,4_42_2,2023-11-06T17:27:11.593Z,,0,,,NaN,,,,,,false,,,,213903,213903,,213903,,213953,8,400,,,
sequence,flow.Sequence,4_42,2023-11-06T17:27:11.593Z,,0,,,2850,completion,,,,,false,,,,213903,213903,211020,211001,211053,213953,8,400,,,
trial,html.Screen,4_43_0,2023-11-06T17:27:14.583Z,,0,1,,2973,response,ISIC_4448959.JPG,9,ISIC_2479512.JPG,ISIC_2479512.JPG,false,0,keypress(z),500,216893,216893,213920,213904,213953,216936,8,400,44,,ISIC_4448959.JPG
break,html.Screen,4_43_1,2023-11-06T17:27:14.584Z,,0,,,NaN,,,,,,false,,,,216895,216894,,216893,,216936,8,400,,,
break_continue,html.Screen,4_43_2,2023-11-06T17:27:14.585Z,,0,,,NaN,,,,,,false,,,,216895,216895,,216895,,216936,8,400,,,
sequence,flow.Sequence,4_43,2023-11-06T17:27:14.585Z,,0,,,2942,completion,,,,,false,,,,216895,216895,213920,213904,213953,216936,8,400,,,
trial,html.Screen,4_44_0,2023-11-06T17:27:17.338Z,,0,1,,2745,response,ISIC_9544059.JPG,7,ISIC_0271408.JPG,ISIC_0271408.JPG,false,0,keypress(z),500,219649,219648,216903,216896.00000000003,216936,219703,8,400,45,,ISIC_9544059.JPG
break,html.Screen,4_44_1,2023-11-06T17:27:17.340Z,,0,,,NaN,,,,,,false,,,,219650,219650,,219649,,219703,8,400,,,
break_continue,html.Screen,4_44_2,2023-11-06T17:27:17.340Z,,0,,,NaN,,,,,,false,,,,219650,219650,,219650,,219703,8,400,,,
sequence,flow.Sequence,4_44,2023-11-06T17:27:17.340Z,,0,,,2714,completion,,,,,false,,,,219651,219650,216903,216895,216936,219703,8,400,,,
trial,html.Screen,4_45_0,2023-11-06T17:27:20.380Z,,0,1,,3021,response,ISIC_9384835.JPG,7,ISIC_0012048.JPG,ISIC_0012048.JPG,false,0,keypress(z),500,222691,222690,219669,219651,219703,222736,8,400,46,,ISIC_9384835.JPG
break,html.Screen,4_45_1,2023-11-06T17:27:20.381Z,,0,,,NaN,,,,,,false,,,,222692,222692,,222691,,222736,8,400,,,
break_continue,html.Screen,4_45_2,2023-11-06T17:27:20.382Z,,0,,,NaN,,,,,,false,,,,222692,222692,,222692,,222736,8,400,,,
sequence,flow.Sequence,4_45,2023-11-06T17:27:20.382Z,,0,,,2989,completion,,,,,false,,,,222693,222692,219669,219651,219703,222736,8,400,,,
trial,html.Screen,4_46_0,2023-11-06T17:27:23.243Z,,0,1,,2850,response,ISIC_7623407.JPG,8,ISIC_3771332.JPG,ISIC_7623407.JPG,false,1,keypress(m),500,225554,225553,222703,222693,222736,225603,8,400,47,,ISIC_3771332.JPG
break,html.Screen,4_46_1,2023-11-06T17:27:23.244Z,,0,,,NaN,,,,,,false,,,,225555,225555,,225554,,225603,8,400,,,
break_continue,html.Screen,4_46_2,2023-11-06T17:27:23.245Z,,0,,,NaN,,,,,,false,,,,225555,225555,,225555,,225603,8,400,,,
sequence,flow.Sequence,4_46,2023-11-06T17:27:23.245Z,,0,,,2819,completion,,,,,false,,,,225555,225555,222703,222693,222736,225603,8,400,,,
trial,html.Screen,4_47_0,2023-11-06T17:27:25.918Z,,0,1,,2658,response,ISIC_0000161.JPG,8,ISIC_0066412.JPG,ISIC_0000161.JPG,false,1,keypress(m),500,228229,228228,225570,225556,225603,228270,8,400,48,,ISIC_0066412.JPG
break,html.Screen,4_47_1,2023-11-06T17:27:25.919Z,,0,,,NaN,,,,,,false,,,,228230.00000000003,228230.00000000003,,228229,,228270,8,400,,,
break_continue,html.Screen,4_47_2,2023-11-06T17:27:25.920Z,,0,,,NaN,,,,,,false,,,,228230.00000000003,228230.00000000003,,228230.00000000003,,228270,8,400,,,
sequence,flow.Sequence,4_47,2023-11-06T17:27:25.920Z,,0,,,2627.000000000029,completion,,,,,false,,,,228231,228230.00000000003,225570,225556,225603,228270,8,400,,,
trial,html.Screen,4_48_0,2023-11-06T17:27:28.913Z,,0,1,,2988.000000000029,response,ISIC_0013997.JPG,7,ISIC_1658623.JPG,ISIC_0013997.JPG,false,1,keypress(m),500,231224.00000000003,231224.00000000003,228236,228231,228270,231269,8,400,49,,ISIC_1658623.JPG
break,html.Screen,4_48_1,2023-11-06T17:27:28.915Z,,0,,,NaN,,,,,,false,,,,231226,231225,,231225,,231269,8,400,,,
break_continue,html.Screen,4_48_2,2023-11-06T17:27:28.915Z,,0,,,NaN,,,,,,false,,,,231226,231226,,231226,,231269,8,400,,,
sequence,flow.Sequence,4_48,2023-11-06T17:27:28.915Z,,0,,,2956,completion,,,,,false,,,,231226,231226,228236,228231,228270,231269,8,400,,,
trial,html.Screen,4_49_0,2023-11-06T17:27:32.606Z,,0,1,,3679,response,ISIC_0068727.JPG,11,ISIC_0059264.JPG,ISIC_0068727.JPG,false,1,keypress(m),500,234917,234916,231237,231226,231269,234970,8,400,50,,ISIC_0059264.JPG
break,html.Screen,4_49_1,2023-11-06T17:27:42.626Z,,0,,,10000,timeout,,,,,false,,,,244937,244937,234937,234917,234970,244970,8,400,,,
break_continue,html.Screen,4_49_2,2023-11-06T17:27:43.731Z,,0,,,1106,response,,,,,false,continue,keypress(Space),,246042,246043,244937,244938.00000000003,244970,246087,8,400,,,
sequence,flow.Sequence,4_49,2023-11-06T17:27:43.731Z,,0,,,14774,completion,,,,,false,,,,246042,246043,231237,231226,231269,246087,8,400,,,
trial,html.Screen,4_50_0,2023-11-06T17:27:47.282Z,,0,2,,3538,response,ISIC_0015291.JPG,12,ISIC_3824206.JPG,ISIC_3824206.JPG,false,0,keypress(z),500,249593.00000000003,249592,246054,246042,246087,249636,8,400,1,,ISIC_0015291.JPG
break,html.Screen,4_50_1,2023-11-06T17:27:47.283Z,,0,,,NaN,,,,,,false,,,,249594,249594,,249593.00000000003,,249636,8,400,,,
break_continue,html.Screen,4_50_2,2023-11-06T17:27:47.283Z,,0,,,NaN,,,,,,false,,,,249595,249595,,249594,,249636,8,400,,,
sequence,flow.Sequence,4_50,2023-11-06T17:27:47.284Z,,0,,,3508,completion,,,,,false,,,,249595,249595,246054,246042,246087,249636,8,400,,,
trial,html.Screen,4_51_0,2023-11-06T17:27:49.735Z,,0,2,,2443,response,ISIC_0061803.JPG,7,ISIC_4139260.JPG,ISIC_0061803.JPG,false,1,keypress(m),500,252047,252046,249603,249595,249636,252087,8,400,2,,ISIC_4139260.JPG
break,html.Screen,4_51_1,2023-11-06T17:27:49.737Z,,0,,,NaN,,,,,,false,,,,252048,252048,,252047,,252087,8,400,,,
break_continue,html.Screen,4_51_2,2023-11-06T17:27:49.737Z,,0,,,NaN,,,,,,false,,,,252048,252048,,252048,,252087,8,400,,,
sequence,flow.Sequence,4_51,2023-11-06T17:27:49.737Z,,0,,,2412,completion,,,,,false,,,,252049,252048,249603,249595,249636,252087,8,400,,,
trial,html.Screen,4_52_0,2023-11-06T17:27:52.364Z,,0,2,,2622,response,ISIC_0067008.JPG,8,ISIC_4923095.JPG,ISIC_4923095.JPG,false,0,keypress(z),500,254676.00000000003,254675,252053,252049,252087,254721,8,400,3,,ISIC_0067008.JPG
break,html.Screen,4_52_1,2023-11-06T17:27:52.365Z,,0,,,NaN,,,,,,false,,,,254677,254677,,254676.00000000003,,254721,8,400,,,
break_continue,html.Screen,4_52_2,2023-11-06T17:27:52.366Z,,0,,,NaN,,,,,,false,,,,254677,254677,,254677,,254721,8,400,,,
sequence,flow.Sequence,4_52,2023-11-06T17:27:52.366Z,,0,,,2590,completion,,,,,false,,,,254677,254677,252053,252049,252087,254721,8,400,,,
trial,html.Screen,4_53_0,2023-11-06T17:27:54.664Z,,0,2,,2289.000000000029,response,ISIC_0059349.JPG,6,ISIC_0014189.JPG,ISIC_0014189.JPG,false,0,keypress(z),500,256976,256975.00000000003,254686,254678,254721,257021,8,400,4,,ISIC_0059349.JPG
break,html.Screen,4_53_1,2023-11-06T17:27:54.665Z,,0,,,NaN,,,,,,false,,,,256977.00000000003,256977.00000000003,,256976,,257021,8,400,,,
break_continue,html.Screen,4_53_2,2023-11-06T17:27:54.666Z,,0,,,NaN,,,,,,false,,,,256977.00000000003,256977.00000000003,,256977.00000000003,,257021,8,400,,,
sequence,flow.Sequence,4_53,2023-11-06T17:27:54.666Z,,0,,,2256.000000000029,completion,,,,,false,,,,256978,256977.00000000003,254686,254678,254721,257021,8,400,,,
trial,html.Screen,4_54_0,2023-11-06T17:27:56.953Z,,0,2,,2277,response,ISIC_0028420.JPG,7,ISIC_0034101.JPG,ISIC_0034101.JPG,false,0,keypress(z),500,259265,259264,256987,256978,257021,259304,8,400,5,,ISIC_0028420.JPG
break,html.Screen,4_54_1,2023-11-06T17:27:56.954Z,,0,,,NaN,,,,,,false,,,,259266.00000000003,259266.00000000003,,259265,,259304,8,400,,,
break_continue,html.Screen,4_54_2,2023-11-06T17:27:56.955Z,,0,,,NaN,,,,,,false,,,,259266.00000000003,259266.00000000003,,259266.00000000003,,259304,8,400,,,
sequence,flow.Sequence,4_54,2023-11-06T17:27:56.955Z,,0,,,2245.000000000029,completion,,,,,false,,,,259266.00000000003,259266.00000000003,256987,256978,257021,259304,8,400,,,
trial,html.Screen,4_55_0,2023-11-06T17:28:00.390Z,,0,2,,3431,response,ISIC_0026595.JPG,7,ISIC_4826449.JPG,ISIC_0026595.JPG,false,1,keypress(m),500,262702,262701,259270,259267,259304,262754,8,400,6,,ISIC_4826449.JPG
break,html.Screen,4_55_1,2023-11-06T17:28:00.391Z,,0,,,NaN,,,,,,false,,,,262703.00000000006,262703.00000000006,,262702,,262754,8,400,,,
break_continue,html.Screen,4_55_2,2023-11-06T17:28:00.392Z,,0,,,NaN,,,,,,false,,,,262704,262703.00000000006,,262703.00000000006,,262754,8,400,,,
sequence,flow.Sequence,4_55,2023-11-06T17:28:00.392Z,,0,,,3399.000000000058,completion,,,,,false,,,,262704,262703.00000000006,259270,259266.00000000003,259304,262754,8,400,,,
trial,html.Screen,4_56_0,2023-11-06T17:28:03.214Z,,0,2,,2804,response,ISIC_0032549.JPG,15,ISIC_0011530.JPG,ISIC_0011530.JPG,false,0,keypress(z),500,265526,265525,262721,262704,262754,265571,8,400,7,,ISIC_0032549.JPG
break,html.Screen,4_56_1,2023-11-06T17:28:03.215Z,,0,,,NaN,,,,,,false,,,,265527,265527,,265526,,265571,8,400,,,
break_continue,html.Screen,4_56_2,2023-11-06T17:28:03.216Z,,0,,,NaN,,,,,,false,,,,265528,265527,,265527,,265571,8,400,,,
sequence,flow.Sequence,4_56,2023-11-06T17:28:03.216Z,,0,,,2773,completion,,,,,false,,,,265528,265527,262721,262704,262754,265571,8,400,,,
trial,html.Screen,4_57_0,2023-11-06T17:28:06.488Z,,0,2,,3262,response,ISIC_7693611.JPG,6,ISIC_0011747.JPG,ISIC_0011747.JPG,false,0,keypress(z),500,268800,268799,265537,265528,265571,268854,8,400,8,,ISIC_7693611.JPG
break,html.Screen,4_57_1,2023-11-06T17:28:06.489Z,,0,,,NaN,,,,,,false,,,,268801,268801,,268800,,268854,8,400,,,
break_continue,html.Screen,4_57_2,2023-11-06T17:28:06.490Z,,0,,,NaN,,,,,,false,,,,268802,268801,,268801,,268854,8,400,,,
sequence,flow.Sequence,4_57,2023-11-06T17:28:06.490Z,,0,,,3230,completion,,,,,false,,,,268802,268801,265537,265528,265571,268854,8,400,,,
trial,html.Screen,4_58_0,2023-11-06T17:28:09.462Z,,0,2,,2952,response,ISIC_0013874.JPG,6,ISIC_2126575.JPG,ISIC_0013874.JPG,false,1,keypress(m),500,271774,271773,268821,268802,268854,271820,8,400,9,,ISIC_2126575.JPG
break,html.Screen,4_58_1,2023-11-06T17:28:09.463Z,,0,,,NaN,,,,,,false,,,,271775,271775,,271774,,271820,8,400,,,
break_continue,html.Screen,4_58_2,2023-11-06T17:28:09.463Z,,0,,,NaN,,,,,,false,,,,271775,271775,,271775,,271820,8,400,,,
sequence,flow.Sequence,4_58,2023-11-06T17:28:09.465Z,,0,,,2921,completion,,,,,false,,,,271777,271775,268821,268802,268854,271820,8,400,,,
trial,html.Screen,4_59_0,2023-11-06T17:28:12.447Z,,0,2,,2971,response,ISIC_0055820.JPG,4,ISIC_2311665.JPG,ISIC_2311665.JPG,false,0,keypress(z),500,274759,274758,271787,271777,271820,274804,8,400,10,,ISIC_0055820.JPG
break,html.Screen,4_59_1,2023-11-06T17:28:12.448Z,,0,,,NaN,,,,,,false,,,,274760,274760,,274759,,274804,8,400,,,
break_continue,html.Screen,4_59_2,2023-11-06T17:28:12.449Z,,0,,,NaN,,,,,,false,,,,274761,274761,,274761,,274804,8,400,,,
sequence,flow.Sequence,4_59,2023-11-06T17:28:12.449Z,,0,,,2941,completion,,,,,false,,,,274761,274761,271787,271777,271820,274804,8,400,,,
trial,html.Screen,4_60_0,2023-11-06T17:28:15.072Z,,0,2,,2613,response,ISIC_0054673.JPG,4,ISIC_4907595.JPG,ISIC_0054673.JPG,false,1,keypress(m),500,277384,277384,274771,274761,274804,277438,8,400,11,,ISIC_4907595.JPG
break,html.Screen,4_60_1,2023-11-06T17:28:15.074Z,,0,,,NaN,,,,,,false,,,,277386,277385,,277385,,277438,8,400,,,
break_continue,html.Screen,4_60_2,2023-11-06T17:28:15.074Z,,0,,,NaN,,,,,,false,,,,277386,277386,,277386,,277438,8,400,,,
sequence,flow.Sequence,4_60,2023-11-06T17:28:15.074Z,,0,,,2582,completion,,,,,false,,,,277387,277386,274771,274761,274804,277438,8,400,,,
trial,html.Screen,4_61_0,2023-11-06T17:28:18.642Z,,0,2,,3549.000000000058,response,ISIC_9688119.JPG,11,ISIC_0026910.JPG,ISIC_9688119.JPG,false,1,keypress(m),500,280954,280953.00000000006,277404,277387,277438,281004,8,400,12,,ISIC_0026910.JPG
break,html.Screen,4_61_1,2023-11-06T17:28:18.643Z,,0,,,NaN,,,,,,false,,,,280955,280955,,280954,,281004,8,400,,,
break_continue,html.Screen,4_61_2,2023-11-06T17:28:18.643Z,,0,,,NaN,,,,,,false,,,,280956,280956,,280955,,281004,8,400,,,
sequence,flow.Sequence,4_61,2023-11-06T17:28:18.644Z,,0,,,3518,completion,,,,,false,,,,280956,280956,277404,277387,277438,281004,8,400,,,
trial,html.Screen,4_62_0,2023-11-06T17:28:21.347Z,,0,2,,2688,response,ISIC_0065728.JPG,10,ISIC_0014422.JPG,ISIC_0065728.JPG,false,1,keypress(m),500,283659,283659,280971,280956,281004,283704,8,400,13,,ISIC_0014422.JPG
break,html.Screen,4_62_1,2023-11-06T17:28:21.348Z,,0,,,NaN,,,,,,false,,,,283661,283660,,283660,,283704,8,400,,,
break_continue,html.Screen,4_62_2,2023-11-06T17:28:21.349Z,,0,,,NaN,,,,,,false,,,,283661,283661,,283661,,283704,8,400,,,
sequence,flow.Sequence,4_62,2023-11-06T17:28:21.349Z,,0,,,2657,completion,,,,,false,,,,283661,283661,280971,280956,281004,283704,8,400,,,
trial,html.Screen,4_63_0,2023-11-06T17:28:24.003Z,,0,2,,2644,response,ISIC_7663476.JPG,4,ISIC_8423248.JPG,ISIC_8423248.JPG,false,0,keypress(z),500,286315,286315,283671,283661,283704,286354,8,400,14,,ISIC_7663476.JPG
break,html.Screen,4_63_1,2023-11-06T17:28:24.004Z,,0,,,NaN,,,,,,false,,,,286317,286316.00000000006,,286316.00000000006,,286354,8,400,,,
break_continue,html.Screen,4_63_2,2023-11-06T17:28:24.005Z,,0,,,NaN,,,,,,false,,,,286317,286317,,286317,,286354,8,400,,,
sequence,flow.Sequence,4_63,2023-11-06T17:28:24.005Z,,0,,,2613,completion,,,,,false,,,,286317,286317,283671,283661,283704,286354,8,400,,,
trial,html.Screen,4_64_0,2023-11-06T17:28:26.993Z,,0,2,,2984,response,ISIC_0068168.JPG,6,ISIC_0011528.JPG,ISIC_0011528.JPG,false,0,keypress(z),500,289305,289305,286321,286318,286354,289355,8,400,15,,ISIC_0068168.JPG
break,html.Screen,4_64_1,2023-11-06T17:28:26.994Z,,0,,,NaN,,,,,,false,,,,289307,289306,,289306,,289355,8,400,,,
break_continue,html.Screen,4_64_2,2023-11-06T17:28:26.995Z,,0,,,NaN,,,,,,false,,,,289307,289307,,289307,,289355,8,400,,,
sequence,flow.Sequence,4_64,2023-11-06T17:28:26.995Z,,0,,,2953,completion,,,,,false,,,,289307,289307,286321,286318,286354,289355,8,400,,,
trial,html.Screen,4_65_0,2023-11-06T17:28:29.601Z,,0,2,,2592,response,ISIC_5807608.JPG,8,ISIC_8693637.JPG,ISIC_8693637.JPG,false,0,keypress(z),500,291914,291913,289321,289308,289355,291955,8,400,16,,ISIC_5807608.JPG
break,html.Screen,4_65_1,2023-11-06T17:28:29.603Z,,0,,,NaN,,,,,,false,,,,291915,291915,,291914,,291955,8,400,,,
break_continue,html.Screen,4_65_2,2023-11-06T17:28:29.603Z,,0,,,NaN,,,,,,false,,,,291916,291916,,291915,,291955,8,400,,,
sequence,flow.Sequence,4_65,2023-11-06T17:28:29.603Z,,0,,,2561,completion,,,,,false,,,,291916,291916,289321,289307,289355,291955,8,400,,,
trial,html.Screen,4_66_0,2023-11-06T17:28:32.708Z,,0,2,,3099,response,ISIC_1819071.JPG,11,ISIC_5194705.JPG,ISIC_5194705.JPG,false,0,keypress(z),500,295021,295020,291921,291916,291955,295071,8,400,17,,ISIC_1819071.JPG
break,html.Screen,4_66_1,2023-11-06T17:28:32.709Z,,0,,,NaN,,,,,,false,,,,295022,295022,,295021,,295071,8,400,,,
break_continue,html.Screen,4_66_2,2023-11-06T17:28:32.710Z,,0,,,NaN,,,,,,false,,,,295022,295022,,295022,,295071,8,400,,,
sequence,flow.Sequence,4_66,2023-11-06T17:28:32.710Z,,0,,,3067,completion,,,,,false,,,,295023,295022,291921,291916,291955,295071,8,400,,,
trial,html.Screen,4_67_0,2023-11-06T17:28:35.584Z,,0,2,,2858,response,ISIC_2076902.JPG,7,ISIC_0025941.JPG,ISIC_2076902.JPG,false,1,keypress(m),500,297896,297896,295038,295023,295071,297938,8,400,18,,ISIC_0025941.JPG
break,html.Screen,4_67_1,2023-11-06T17:28:35.585Z,,0,,,NaN,,,,,,false,,,,297898,297897,,297897,,297938,8,400,,,
break_continue,html.Screen,4_67_2,2023-11-06T17:28:35.585Z,,0,,,NaN,,,,,,false,,,,297898,297898,,297898,,297938,8,400,,,
sequence,flow.Sequence,4_67,2023-11-06T17:28:35.586Z,,0,,,2827,completion,,,,,false,,,,297898,297898,295038,295023,295071,297938,8,400,,,
trial,html.Screen,4_68_0,2023-11-06T17:28:38.548Z,,0,2,,2956,response,ISIC_2724529.JPG,8,ISIC_6561111.JPG,ISIC_6561111.JPG,false,0,keypress(z),500,300861,300860,297904,297898,297938,300905,8,400,19,,ISIC_2724529.JPG
break,html.Screen,4_68_1,2023-11-06T17:28:38.549Z,,0,,,NaN,,,,,,false,,,,300862,300862,,300861,,300905,8,400,,,
break_continue,html.Screen,4_68_2,2023-11-06T17:28:38.550Z,,0,,,NaN,,,,,,false,,,,300863,300863,,300862,,300905,8,400,,,
sequence,flow.Sequence,4_68,2023-11-06T17:28:38.550Z,,0,,,2925,completion,,,,,false,,,,300863,300863,297904,297898,297938,300905,8,400,,,
trial,html.Screen,4_69_0,2023-11-06T17:28:41.897Z,,0,2,,3338,response,ISIC_0002162.JPG,11,ISIC_7128007.JPG,ISIC_7128007.JPG,false,0,keypress(z),500,304210,304209,300871,300863,300905,304254,8,400,20,,ISIC_0002162.JPG
break,html.Screen,4_69_1,2023-11-06T17:28:41.898Z,,0,,,NaN,,,,,,false,,,,304211,304211,,304210,,304254,8,400,,,
break_continue,html.Screen,4_69_2,2023-11-06T17:28:41.899Z,,0,,,NaN,,,,,,false,,,,304212,304211,,304211,,304254,8,400,,,
sequence,flow.Sequence,4_69,2023-11-06T17:28:41.899Z,,0,,,3306,completion,,,,,false,,,,304212,304211,300871,300863,300905,304254,8,400,,,
trial,html.Screen,4_70_0,2023-11-06T17:28:44.511Z,,0,2,,2602,response,ISIC_1330008.JPG,3,ISIC_7075474.JPG,ISIC_1330008.JPG,false,1,keypress(m),500,306824,306823,304221,304212,304254,306872,8,400,21,,ISIC_7075474.JPG
break,html.Screen,4_70_1,2023-11-06T17:28:44.512Z,,0,,,NaN,,,,,,false,,,,306825,306825,,306824,,306872,8,400,,,
break_continue,html.Screen,4_70_2,2023-11-06T17:28:44.513Z,,0,,,NaN,,,,,,false,,,,306826,306826,,306825,,306872,8,400,,,
sequence,flow.Sequence,4_70,2023-11-06T17:28:44.513Z,,0,,,2572,completion,,,,,false,,,,306826,306826,304221,304212,304254,306872,8,400,,,
trial,html.Screen,4_71_0,2023-11-06T17:28:47.096Z,,0,2,,2571,response,ISIC_0010421.JPG,4,ISIC_4032636.JPG,ISIC_0010421.JPG,false,1,keypress(m),500,309409,309409,306838,306826,306872,309455,8,400,22,,ISIC_4032636.JPG
break,html.Screen,4_71_1,2023-11-06T17:28:47.097Z,,0,,,NaN,,,,,,false,,,,309411,309410,,309410,,309455,8,400,,,
break_continue,html.Screen,4_71_2,2023-11-06T17:28:47.098Z,,0,,,NaN,,,,,,false,,,,309411,309411,,309411,,309455,8,400,,,
sequence,flow.Sequence,4_71,2023-11-06T17:28:47.098Z,,0,,,2539,completion,,,,,false,,,,309411,309411,306838,306826,306872,309455,8,400,,,
trial,html.Screen,4_72_0,2023-11-06T17:28:50.240Z,,0,2,,3131,response,ISIC_5777181.JPG,5,ISIC_0053841.JPG,ISIC_5777181.JPG,false,1,keypress(m),500,312553,312552,309421,309411,309455,312604,8,400,23,,ISIC_0053841.JPG
break,html.Screen,4_72_1,2023-11-06T17:28:50.241Z,,0,,,NaN,,,,,,false,,,,312554.00000000006,312554.00000000006,,312553,,312604,8,400,,,
break_continue,html.Screen,4_72_2,2023-11-06T17:28:50.241Z,,0,,,NaN,,,,,,false,,,,312554.00000000006,312554.00000000006,,312554.00000000006,,312604,8,400,,,
sequence,flow.Sequence,4_72,2023-11-06T17:28:50.242Z,,0,,,3099.000000000058,completion,,,,,false,,,,312555,312554.00000000006,309421,309411,309455,312604,8,400,,,
trial,html.Screen,4_73_0,2023-11-06T17:28:53.107Z,,0,2,,2849,response,ISIC_1788979.JPG,11,ISIC_3596927.JPG,ISIC_1788979.JPG,false,1,keypress(m),500,315420,315420,312571,312555,312604,315472,8,400,24,,ISIC_3596927.JPG
break,html.Screen,4_73_1,2023-11-06T17:28:53.108Z,,0,,,NaN,,,,,,false,,,,315422,315421,,315421,,315472,8,400,,,
break_continue,html.Screen,4_73_2,2023-11-06T17:28:53.109Z,,0,,,NaN,,,,,,false,,,,315422,315422,,315422,,315472,8,400,,,
sequence,flow.Sequence,4_73,2023-11-06T17:28:53.109Z,,0,,,2818,completion,,,,,false,,,,315422,315422,312571,312555,312604,315472,8,400,,,
trial,html.Screen,4_74_0,2023-11-06T17:28:56.129Z,,0,2,,3004,response,ISIC_3169133.JPG,11,ISIC_0032812.JPG,ISIC_3169133.JPG,false,1,keypress(m),500,318443,318442,315438,315422,315472,318488,8,400,25,,ISIC_0032812.JPG
break,html.Screen,4_74_1,2023-11-06T17:28:56.131Z,,0,,,NaN,,,,,,false,,,,318444,318444,,318443,,318488,8,400,,,
break_continue,html.Screen,4_74_2,2023-11-06T17:28:56.131Z,,0,,,NaN,,,,,,false,,,,318444,318444,,318444,,318488,8,400,,,
sequence,flow.Sequence,4_74,2023-11-06T17:28:56.131Z,,0,,,2972,completion,,,,,false,,,,318445,318444,315438,315422,315472,318488,8,400,,,
trial,html.Screen,4_75_0,2023-11-06T17:28:58.826Z,,0,2,,2683.000000000058,response,ISIC_2987677.JPG,5,ISIC_0193456.JPG,ISIC_2987677.JPG,false,1,keypress(m),500,321139,321138.00000000006,318455,318445,318488,321188,8,400,26,,ISIC_0193456.JPG
break,html.Screen,4_75_1,2023-11-06T17:28:58.827Z,,0,,,NaN,,,,,,false,,,,321140,321140,,321139,,321188,8,400,,,
break_continue,html.Screen,4_75_2,2023-11-06T17:28:58.827Z,,0,,,NaN,,,,,,false,,,,321141,321140,,321140,,321188,8,400,,,
sequence,flow.Sequence,4_75,2023-11-06T17:28:58.827Z,,0,,,2652,completion,,,,,false,,,,321141,321140,318455,318445,318488,321188,8,400,,,
trial,html.Screen,4_76_0,2023-11-06T17:29:01.603Z,,0,2,,2761,response,ISIC_6208708.JPG,7,ISIC_5021861.JPG,ISIC_5021861.JPG,false,0,keypress(z),500,323916,323916,321155,321141,321188,323955,8,400,27,,ISIC_6208708.JPG
break,html.Screen,4_76_1,2023-11-06T17:29:01.604Z,,0,,,NaN,,,,,,false,,,,323918,323917.00000000006,,323917.00000000006,,323955,8,400,,,
break_continue,html.Screen,4_76_2,2023-11-06T17:29:01.605Z,,0,,,NaN,,,,,,false,,,,323918,323918,,323918,,323955,8,400,,,
sequence,flow.Sequence,4_76,2023-11-06T17:29:01.605Z,,0,,,2730,completion,,,,,false,,,,323918,323918,321155,321141,321188,323955,8,400,,,
trial,html.Screen,4_77_0,2023-11-06T17:29:04.330Z,,0,2,,2722,response,ISIC_0027836.JPG,4,ISIC_8527092.JPG,ISIC_8527092.JPG,false,0,keypress(z),500,326643,326643,323921,323918,323955,326689,8,400,28,,ISIC_0027836.JPG
break,html.Screen,4_77_1,2023-11-06T17:29:04.331Z,,0,,,NaN,,,,,,false,,,,326645,326645,,326644,,326689,8,400,,,
break_continue,html.Screen,4_77_2,2023-11-06T17:29:04.331Z,,0,,,NaN,,,,,,false,,,,326645,326645,,326645,,326689,8,400,,,
sequence,flow.Sequence,4_77,2023-11-06T17:29:04.332Z,,0,,,2690,completion,,,,,false,,,,326645,326645,323921,323918,323955,326689,8,400,,,
trial,html.Screen,4_78_0,2023-11-06T17:29:07.323Z,,0,2,,2981,response,ISIC_0011507.JPG,10,ISIC_3009564.JPG,ISIC_0011507.JPG,false,1,keypress(m),500,329637,329636,326655,326645,326689,329689,8,400,29,,ISIC_3009564.JPG
break,html.Screen,4_78_1,2023-11-06T17:29:07.324Z,,0,,,NaN,,,,,,false,,,,329638.00000000006,329638.00000000006,,329637,,329689,8,400,,,
break_continue,html.Screen,4_78_2,2023-11-06T17:29:07.325Z,,0,,,NaN,,,,,,false,,,,329639,329638.00000000006,,329638.00000000006,,329689,8,400,,,
sequence,flow.Sequence,4_78,2023-11-06T17:29:07.325Z,,0,,,2949.000000000058,completion,,,,,false,,,,329639,329638.00000000006,326655,326645,326689,329689,8,400,,,
trial,html.Screen,4_79_0,2023-11-06T17:29:10.343Z,,0,2,,3001,response,ISIC_2861793.JPG,12,ISIC_9304022.JPG,ISIC_9304022.JPG,false,0,keypress(z),500,332657,332656,329655,329639,329689,332705,8,400,30,,ISIC_2861793.JPG
break,html.Screen,4_79_1,2023-11-06T17:29:10.344Z,,0,,,NaN,,,,,,false,,,,332658,332658,,332657,,332705,8,400,,,
break_continue,html.Screen,4_79_2,2023-11-06T17:29:10.344Z,,0,,,NaN,,,,,,false,,,,332658,332658,,332658,,332705,8,400,,,
sequence,flow.Sequence,4_79,2023-11-06T17:29:10.345Z,,0,,,2969,completion,,,,,false,,,,332658,332658,329655,329639,329689,332705,8,400,,,
trial,html.Screen,4_80_0,2023-11-06T17:29:13.968Z,,0,2,,3610,response,ISIC_0024459.JPG,6,ISIC_0011344.JPG,ISIC_0024459.JPG,false,1,keypress(m),500,336282,336282,332672,332659,332705,336322,8,400,31,,ISIC_0011344.JPG
break,html.Screen,4_80_1,2023-11-06T17:29:13.970Z,,0,,,NaN,,,,,,false,,,,336283,336283,,336283,,336322,8,400,,,
break_continue,html.Screen,4_80_2,2023-11-06T17:29:13.970Z,,0,,,NaN,,,,,,false,,,,336284,336284,,336284,,336322,8,400,,,
sequence,flow.Sequence,4_80,2023-11-06T17:29:13.970Z,,0,,,3579,completion,,,,,false,,,,336284,336284,332672,332659,332705,336322,8,400,,,
trial,html.Screen,4_81_0,2023-11-06T17:29:16.947Z,,0,2,,2972,response,ISIC_4789784.JPG,8,ISIC_0025550.JPG,ISIC_0025550.JPG,false,0,keypress(z),500,339261,339260,336288,336284,336322,339306,8,400,32,,ISIC_4789784.JPG
break,html.Screen,4_81_1,2023-11-06T17:29:16.948Z,,0,,,NaN,,,,,,false,,,,339262,339262,,339261,,339306,8,400,,,
break_continue,html.Screen,4_81_2,2023-11-06T17:29:16.948Z,,0,,,NaN,,,,,,false,,,,339262,339262,,339262,,339306,8,400,,,
sequence,flow.Sequence,4_81,2023-11-06T17:29:16.949Z,,0,,,2940,completion,,,,,false,,,,339263.00000000006,339262,336288,336284,336322,339306,8,400,,,
trial,html.Screen,4_82_0,2023-11-06T17:29:20.650Z,,0,2,,3691,response,ISIC_0015390.JPG,8,ISIC_0012066.JPG,ISIC_0015390.JPG,false,1,keypress(m),500,342964,342963,339272,339263.00000000006,339306,343006,8,400,33,,ISIC_0012066.JPG
break,html.Screen,4_82_1,2023-11-06T17:29:20.651Z,,0,,,NaN,,,,,,false,,,,342965.00000000006,342965.00000000006,,342964,,343006,8,400,,,
break_continue,html.Screen,4_82_2,2023-11-06T17:29:20.652Z,,0,,,NaN,,,,,,false,,,,342966,342966,,342965.00000000006,,343006,8,400,,,
sequence,flow.Sequence,4_82,2023-11-06T17:29:20.652Z,,0,,,3660,completion,,,,,false,,,,342966,342966,339272,339263.00000000006,339306,343006,8,400,,,
trial,html.Screen,4_83_0,2023-11-06T17:29:24.031Z,,0,2,,3373,response,ISIC_0067653.JPG,9,ISIC_0010442.JPG,ISIC_0067653.JPG,false,1,keypress(m),500,346346,346345,342972,342966,343006,346389,8,400,34,,ISIC_0010442.JPG
break,html.Screen,4_83_1,2023-11-06T17:29:24.033Z,,0,,,NaN,,,,,,false,,,,346347,346347,,346346,,346389,8,400,,,
break_continue,html.Screen,4_83_2,2023-11-06T17:29:24.033Z,,0,,,NaN,,,,,,false,,,,346347,346347,,346347,,346389,8,400,,,
sequence,flow.Sequence,4_83,2023-11-06T17:29:24.033Z,,0,,,3341,completion,,,,,false,,,,346347,346347,342972,342966,343006,346389,8,400,,,
trial,html.Screen,4_84_0,2023-11-06T17:29:27.759Z,,0,2,,3717,response,ISIC_5942564.JPG,9,ISIC_3166535.JPG,ISIC_3166535.JPG,false,0,keypress(z),500,350073,350073,346356,346348,346389,350123,8,400,35,,ISIC_5942564.JPG
break,html.Screen,4_84_1,2023-11-06T17:29:27.760Z,,0,,,NaN,,,,,,false,,,,350075,350074,,350074,,350123,8,400,,,
break_continue,html.Screen,4_84_2,2023-11-06T17:29:27.761Z,,0,,,NaN,,,,,,false,,,,350075,350075,,350075,,350123,8,400,,,
sequence,flow.Sequence,4_84,2023-11-06T17:29:27.761Z,,0,,,3686,completion,,,,,false,,,,350075,350075,346356,346348,346389,350123,8,400,,,
trial,html.Screen,4_85_0,2023-11-06T17:29:30.857Z,,0,2,,3082,response,ISIC_2246150.JPG,9,ISIC_0054528.JPG,ISIC_0054528.JPG,false,0,keypress(z),500,353172,353171,350089,350075,350123,353223,8,400,36,,ISIC_2246150.JPG
break,html.Screen,4_85_1,2023-11-06T17:29:30.858Z,,0,,,NaN,,,,,,false,,,,353173,353173,,353172,,353223,8,400,,,
break_continue,html.Screen,4_85_2,2023-11-06T17:29:30.859Z,,0,,,NaN,,,,,,false,,,,353173,353173,,353173,,353223,8,400,,,
sequence,flow.Sequence,4_85,2023-11-06T17:29:30.859Z,,0,,,3050,completion,,,,,false,,,,353173,353173,350089,350075,350123,353223,8,400,,,
trial,html.Screen,4_86_0,2023-11-06T17:29:33.948Z,,0,2,,3073,response,ISIC_0060962.JPG,14,ISIC_1929937.JPG,ISIC_0060962.JPG,false,1,keypress(m),500,356263.00000000006,356262,353189,353173,353223,356323,8,400,37,,ISIC_1929937.JPG
break,html.Screen,4_86_1,2023-11-06T17:29:33.949Z,,0,,,NaN,,,,,,false,,,,356264,356264,,356263.00000000006,,356323,8,400,,,
break_continue,html.Screen,4_86_2,2023-11-06T17:29:33.950Z,,0,,,NaN,,,,,,false,,,,356264,356264,,356264,,356323,8,400,,,
sequence,flow.Sequence,4_86,2023-11-06T17:29:33.950Z,,0,,,3041,completion,,,,,false,,,,356264,356264,353189,353173,353223,356323,8,400,,,
trial,html.Screen,4_87_0,2023-11-06T17:29:36.846Z,,0,2,,2871,response,ISIC_0032840.JPG,9,ISIC_0009918.JPG,ISIC_0009918.JPG,false,0,keypress(z),500,359160,359160,356289,356264,356323,359206,8,400,38,,ISIC_0032840.JPG
break,html.Screen,4_87_1,2023-11-06T17:29:36.847Z,,0,,,NaN,,,,,,false,,,,359162.00000000006,359161,,359161,,359206,8,400,,,
break_continue,html.Screen,4_87_2,2023-11-06T17:29:36.847Z,,0,,,NaN,,,,,,false,,,,359162.00000000006,359162.00000000006,,359162.00000000006,,359206,8,400,,,
sequence,flow.Sequence,4_87,2023-11-06T17:29:36.848Z,,0,,,2839.000000000058,completion,,,,,false,,,,359162.00000000006,359162.00000000006,356289,356264,356323,359206,8,400,,,
trial,html.Screen,4_88_0,2023-11-06T17:29:39.944Z,,0,2,,3086,response,ISIC_0065714.JPG,5,ISIC_0065283.JPG,ISIC_0065714.JPG,false,1,keypress(m),500,362259,362258,359172,359162.00000000006,359206,362306,8,400,39,,ISIC_0065283.JPG
break,html.Screen,4_88_1,2023-11-06T17:29:39.945Z,,0,,,NaN,,,,,,false,,,,362260,362260,,362259,,362306,8,400,,,
break_continue,html.Screen,4_88_2,2023-11-06T17:29:39.946Z,,0,,,NaN,,,,,,false,,,,362260,362260,,362260,,362306,8,400,,,
sequence,flow.Sequence,4_88,2023-11-06T17:29:39.946Z,,0,,,3054,completion,,,,,false,,,,362260,362260,359172,359162.00000000006,359206,362306,8,400,,,
trial,html.Screen,4_89_0,2023-11-06T17:29:43.010Z,,0,2,,3051,response,ISIC_7266462.JPG,5,ISIC_1560455.JPG,ISIC_7266462.JPG,false,1,keypress(m),500,365325,365324,362273,362261,362306,365373,8,400,40,,ISIC_1560455.JPG
break,html.Screen,4_89_1,2023-11-06T17:29:43.011Z,,0,,,NaN,,,,,,false,,,,365326,365326,,365325,,365373,8,400,,,
break_continue,html.Screen,4_89_2,2023-11-06T17:29:43.012Z,,0,,,NaN,,,,,,false,,,,365326,365326,,365326,,365373,8,400,,,
sequence,flow.Sequence,4_89,2023-11-06T17:29:43.012Z,,0,,,3020,completion,,,,,false,,,,365326,365326,362273,362261,362306,365373,8,400,,,
trial,html.Screen,4_90_0,2023-11-06T17:29:47.893Z,,0,2,,4869,response,ISIC_4890201.JPG,4,ISIC_0013472.JPG,ISIC_4890201.JPG,false,1,keypress(m),500,370208,370208,365339,365327,365373,370256,8,400,41,,ISIC_0013472.JPG
break,html.Screen,4_90_1,2023-11-06T17:29:47.894Z,,0,,,NaN,,,,,,false,,,,370209,370209,,370208,,370256,8,400,,,
break_continue,html.Screen,4_90_2,2023-11-06T17:29:47.895Z,,0,,,NaN,,,,,,false,,,,370210,370210,,370210,,370256,8,400,,,
sequence,flow.Sequence,4_90,2023-11-06T17:29:47.895Z,,0,,,4837,completion,,,,,false,,,,370210,370210,365339,365327,365373,370256,8,400,,,
trial,html.Screen,4_91_0,2023-11-06T17:29:50.960Z,,0,2,,3051,response,ISIC_0000555.JPG,5,ISIC_0067205.JPG,ISIC_0067205.JPG,false,0,keypress(z),500,373275.00000000006,373274,370223,370210,370256,373323,8,400,42,,ISIC_0000555.JPG
break,html.Screen,4_91_1,2023-11-06T17:29:50.961Z,,0,,,NaN,,,,,,false,,,,373276,373275.00000000006,,373275.00000000006,,373323,8,400,,,
break_continue,html.Screen,4_91_2,2023-11-06T17:29:50.961Z,,0,,,NaN,,,,,,false,,,,373276,373276,,373276,,373323,8,400,,,
sequence,flow.Sequence,4_91,2023-11-06T17:29:50.961Z,,0,,,3020,completion,,,,,false,,,,373276,373276,370223,370210,370256,373323,8,400,,,
trial,html.Screen,4_92_0,2023-11-06T17:29:54.115Z,,0,2,,3140,response,ISIC_0058199.JPG,7,ISIC_0057495.JPG,ISIC_0058199.JPG,false,1,keypress(m),500,376430,376430,373290,373277,373323,376473,8,400,43,,ISIC_0057495.JPG
break,html.Screen,4_92_1,2023-11-06T17:29:54.116Z,,0,,,NaN,,,,,,false,,,,376431,376431,,376431,,376473,8,400,,,
break_continue,html.Screen,4_92_2,2023-11-06T17:29:54.117Z,,0,,,NaN,,,,,,false,,,,376432,376432,,376432,,376473,8,400,,,
sequence,flow.Sequence,4_92,2023-11-06T17:29:54.117Z,,0,,,3109,completion,,,,,false,,,,376432,376432,373290,373277,373323,376473,8,400,,,
trial,html.Screen,4_93_0,2023-11-06T17:29:57.031Z,,0,2,,2906,response,ISIC_0058303.JPG,9,ISIC_0061936.JPG,ISIC_0058303.JPG,false,1,keypress(m),500,379346,379346,376440,376432,376473,379390,8,400,44,,ISIC_0061936.JPG
break,html.Screen,4_93_1,2023-11-06T17:29:57.032Z,,0,,,NaN,,,,,,false,,,,379347,379347,,379347,,379390,8,400,,,
break_continue,html.Screen,4_93_2,2023-11-06T17:29:57.033Z,,0,,,NaN,,,,,,false,,,,379348,379348,,379348,,379390,8,400,,,
sequence,flow.Sequence,4_93,2023-11-06T17:29:57.033Z,,0,,,2875,completion,,,,,false,,,,379348,379348,376440,376432,376473,379390,8,400,,,
trial,html.Screen,4_94_0,2023-11-06T17:30:00.579Z,,0,2,,3538,response,ISIC_1048077.JPG,6,ISIC_9978498.JPG,ISIC_9978498.JPG,false,0,keypress(z),500,382895,382894,379356,379348,379390,382940,8,400,45,,ISIC_1048077.JPG
break,html.Screen,4_94_1,2023-11-06T17:30:00.581Z,,0,,,NaN,,,,,,false,,,,382896,382896,,382895,,382940,8,400,,,
break_continue,html.Screen,4_94_2,2023-11-06T17:30:00.581Z,,0,,,NaN,,,,,,false,,,,382896,382896,,382896,,382940,8,400,,,
sequence,flow.Sequence,4_94,2023-11-06T17:30:00.581Z,,0,,,3506,completion,,,,,false,,,,382897,382896,379356,379348,379390,382940,8,400,,,
trial,html.Screen,4_95_0,2023-11-06T17:30:03.425Z,,0,2,,2834,response,ISIC_0247197.JPG,4,ISIC_9217340.JPG,ISIC_9217340.JPG,false,0,keypress(z),500,385741,385740,382906,382897,382940,385790,8,400,46,,ISIC_0247197.JPG
break,html.Screen,4_95_1,2023-11-06T17:30:03.427Z,,0,,,NaN,,,,,,false,,,,385742,385742,,385741,,385790,8,400,,,
break_continue,html.Screen,4_95_2,2023-11-06T17:30:03.427Z,,0,,,NaN,,,,,,false,,,,385742,385742,,385742,,385790,8,400,,,
sequence,flow.Sequence,4_95,2023-11-06T17:30:03.427Z,,0,,,2802,completion,,,,,false,,,,385743,385742,382906,382897,382940,385790,8,400,,,
trial,html.Screen,4_96_0,2023-11-06T17:30:07.739Z,,0,2,,4297.000000000058,response,ISIC_0029606.JPG,9,ISIC_0030119.JPG,ISIC_0030119.JPG,false,0,keypress(z),500,390054.00000000006,390054.00000000006,385757,385743,385790,390107,8,400,47,,ISIC_0029606.JPG
break,html.Screen,4_96_1,2023-11-06T17:30:07.740Z,,0,,,NaN,,,,,,false,,,,390056,390055,,390055,,390107,8,400,,,
break_continue,html.Screen,4_96_2,2023-11-06T17:30:07.741Z,,0,,,NaN,,,,,,false,,,,390056,390056,,390056,,390107,8,400,,,
sequence,flow.Sequence,4_96,2023-11-06T17:30:07.741Z,,0,,,4266,completion,,,,,false,,,,390056,390056,385757,385743,385790,390107,8,400,,,
trial,html.Screen,4_97_0,2023-11-06T17:30:11.248Z,,0,2,,3490,response,ISIC_0032918.JPG,11,ISIC_2707664.JPG,ISIC_0032918.JPG,false,1,keypress(m),500,393564,393563,390073,390057,390107,393607,8,400,48,,ISIC_2707664.JPG
break,html.Screen,4_97_1,2023-11-06T17:30:11.250Z,,0,,,NaN,,,,,,false,,,,393565,393565,,393564,,393607,8,400,,,
break_continue,html.Screen,4_97_2,2023-11-06T17:30:11.250Z,,0,,,NaN,,,,,,false,,,,393566.00000000006,393565,,393565,,393607,8,400,,,
sequence,flow.Sequence,4_97,2023-11-06T17:30:11.250Z,,0,,,3458,completion,,,,,false,,,,393566.00000000006,393565,390073,390056,390107,393607,8,400,,,
trial,html.Screen,4_98_0,2023-11-06T17:30:14.297Z,,0,2,,3039,response,ISIC_8325226.JPG,8,ISIC_9767255.JPG,ISIC_8325226.JPG,false,1,keypress(m),500,396613,396612,393573,393566.00000000006,393607,396657,8,400,49,,ISIC_9767255.JPG
break,html.Screen,4_98_1,2023-11-06T17:30:14.299Z,,0,,,NaN,,,,,,false,,,,396614.00000000006,396614.00000000006,,396613,,396657,8,400,,,
break_continue,html.Screen,4_98_2,2023-11-06T17:30:14.299Z,,0,,,NaN,,,,,,false,,,,396615,396615,,396615,,396657,8,400,,,
sequence,flow.Sequence,4_98,2023-11-06T17:30:14.299Z,,0,,,3008,completion,,,,,false,,,,396615,396615,393573,393566.00000000006,393607,396657,8,400,,,
trial,html.Screen,4_99_0,2023-11-06T17:30:17.651Z,,0,2,,3344,response,ISIC_5518557.JPG,11,ISIC_2967024.JPG,ISIC_5518557.JPG,false,1,keypress(m),500,399967,399967,396623,396615,396657,400007,8,400,50,,ISIC_2967024.JPG
break,html.Screen,4_99_1,2023-11-06T17:30:27.658Z,,0,,,10000,timeout,,,,,false,,,,409974,409974,399973,399967,400007,410007,8,400,,,
break_continue,html.Screen,4_99_2,2023-11-06T17:30:28.833Z,,0,,,1180,response,,,,,false,continue,keypress(Space),,411149,411154,409974,409975,410007,411190,8,400,,,
sequence,flow.Sequence,4_99,2023-11-06T17:30:28.833Z,,0,,,14497,completion,,,,,false,,,,411149,411154,396623,396615,396657,411190,8,400,,,
trial,html.Screen,4_100_0,2023-11-06T17:30:31.465Z,,0,3,,2624,response,ISIC_7145788.JPG,9,ISIC_0463755.JPG,ISIC_0463755.JPG,false,0,keypress(z),500,413782,413781,411157,411150.00000000006,411190,413824,8,400,1,,ISIC_7145788.JPG
break,html.Screen,4_100_1,2023-11-06T17:30:31.467Z,,0,,,NaN,,,,,,false,,,,413783,413783,,413782,,413824,8,400,,,
break_continue,html.Screen,4_100_2,2023-11-06T17:30:31.467Z,,0,,,NaN,,,,,,false,,,,413783,413783,,413783,,413824,8,400,,,
sequence,flow.Sequence,4_100,2023-11-06T17:30:31.467Z,,0,,,2593,completion,,,,,false,,,,413784,413783,411157,411150.00000000006,411190,413824,8,400,,,
trial,html.Screen,4_101_0,2023-11-06T17:30:34.297Z,,0,3,,2822,response,ISIC_1929937.JPG,8,ISIC_0053765.JPG,ISIC_0053765.JPG,false,0,keypress(z),500,416613,416612,413790,413784,413824,416657,8,400,2,,ISIC_1929937.JPG
break,html.Screen,4_101_1,2023-11-06T17:30:34.298Z,,0,,,NaN,,,,,,false,,,,416614.00000000006,416614.00000000006,,416613,,416657,8,400,,,
break_continue,html.Screen,4_101_2,2023-11-06T17:30:34.298Z,,0,,,NaN,,,,,,false,,,,416615,416614.00000000006,,416614.00000000006,,416657,8,400,,,
sequence,flow.Sequence,4_101,2023-11-06T17:30:34.299Z,,0,,,2790.000000000058,completion,,,,,false,,,,416615,416614.00000000006,413790,413784,413824,416657,8,400,,,
trial,html.Screen,4_102_0,2023-11-06T17:30:37.387Z,,0,3,,3079.000000000058,response,ISIC_5416978.JPG,10,ISIC_0000860.JPG,ISIC_5416978.JPG,false,1,keypress(m),500,419704,419703.00000000006,416624,416615,416657,419757,8,400,3,,ISIC_0000860.JPG
break,html.Screen,4_102_1,2023-11-06T17:30:37.389Z,,0,,,NaN,,,,,,false,,,,419705,419705,,419704,,419757,8,400,,,
break_continue,html.Screen,4_102_2,2023-11-06T17:30:37.389Z,,0,,,NaN,,,,,,false,,,,419705,419705,,419705,,419757,8,400,,,
sequence,flow.Sequence,4_102,2023-11-06T17:30:37.389Z,,0,,,3048,completion,,,,,false,,,,419706,419705,416624,416615,416657,419757,8,400,,,
trial,html.Screen,4_103_0,2023-11-06T17:30:40.318Z,,0,3,,2910,response,ISIC_0011789.JPG,13,ISIC_0029626.JPG,ISIC_0011789.JPG,false,1,keypress(m),500,422635,422634,419724,419706,419757,422674,8,400,4,,ISIC_0029626.JPG
break,html.Screen,4_103_1,2023-11-06T17:30:40.320Z,,0,,,NaN,,,,,,false,,,,422636,422636,,422635,,422674,8,400,,,
break_continue,html.Screen,4_103_2,2023-11-06T17:30:40.320Z,,0,,,NaN,,,,,,false,,,,422636,422636,,422636,,422674,8,400,,,
sequence,flow.Sequence,4_103,2023-11-06T17:30:40.320Z,,0,,,2879,completion,,,,,false,,,,422637,422636,419724,419706,419757,422674,8,400,,,
trial,html.Screen,4_104_0,2023-11-06T17:30:43.035Z,,0,3,,2711,response,ISIC_4921413.JPG,2,ISIC_6868089.JPG,ISIC_4921413.JPG,false,1,keypress(m),500,425352.00000000006,425351,422640,422637,422674,425391,8,400,5,,ISIC_6868089.JPG
break,html.Screen,4_104_1,2023-11-06T17:30:43.036Z,,0,,,NaN,,,,,,false,,,,425353,425353,,425352.00000000006,,425391,8,400,,,
break_continue,html.Screen,4_104_2,2023-11-06T17:30:43.037Z,,0,,,NaN,,,,,,false,,,,425353,425353,,425353,,425391,8,400,,,
sequence,flow.Sequence,4_104,2023-11-06T17:30:43.037Z,,0,,,2679,completion,,,,,false,,,,425353,425353,422640,422637,422674,425391,8,400,,,
trial,html.Screen,4_105_0,2023-11-06T17:30:45.854Z,,0,3,,2813,response,ISIC_3374533.JPG,4,ISIC_0058432.JPG,ISIC_0058432.JPG,false,0,keypress(z),500,428171,428170,425357,425353,425391,428224,8,400,6,,ISIC_3374533.JPG
break,html.Screen,4_105_1,2023-11-06T17:30:45.855Z,,0,,,NaN,,,,,,false,,,,428172,428172,,428171,,428224,8,400,,,
break_continue,html.Screen,4_105_2,2023-11-06T17:30:45.856Z,,0,,,NaN,,,,,,false,,,,428172,428172,,428172,,428224,8,400,,,
sequence,flow.Sequence,4_105,2023-11-06T17:30:45.856Z,,0,,,2781,completion,,,,,false,,,,428173,428172,425357,425353,425391,428224,8,400,,,
trial,html.Screen,4_106_0,2023-11-06T17:30:48.384Z,,0,3,,2509,response,ISIC_0064318.JPG,8,ISIC_0030963.JPG,ISIC_0064318.JPG,false,1,keypress(m),500,430701,430700,428191,428173,428224,430741,8,400,7,,ISIC_0030963.JPG
break,html.Screen,4_106_1,2023-11-06T17:30:48.385Z,,0,,,NaN,,,,,,false,,,,430702,430702,,430701,,430741,8,400,,,
break_continue,html.Screen,4_106_2,2023-11-06T17:30:48.386Z,,0,,,NaN,,,,,,false,,,,430702,430702,,430702,,430741,8,400,,,
sequence,flow.Sequence,4_106,2023-11-06T17:30:48.386Z,,0,,,2478,completion,,,,,false,,,,430702,430702,428191,428173,428224,430741,8,400,,,
trial,html.Screen,4_107_0,2023-11-06T17:30:51.138Z,,0,3,,2747,response,ISIC_0030824.JPG,8,ISIC_0674746.JPG,ISIC_0030824.JPG,false,1,keypress(m),500,433455,433454,430707,430703.00000000006,430741,433508,8,400,8,,ISIC_0674746.JPG
break,html.Screen,4_107_1,2023-11-06T17:30:51.139Z,,0,,,NaN,,,,,,false,,,,433456,433456,,433455,,433508,8,400,,,
break_continue,html.Screen,4_107_2,2023-11-06T17:30:51.140Z,,0,,,NaN,,,,,,false,,,,433457,433457,,433456,,433508,8,400,,,
sequence,flow.Sequence,4_107,2023-11-06T17:30:51.140Z,,0,,,2716,completion,,,,,false,,,,433457,433457,430707,430703.00000000006,430741,433508,8,400,,,
trial,html.Screen,4_108_0,2023-11-06T17:30:54.244Z,,0,3,,3086,response,ISIC_0028031.JPG,9,ISIC_8523262.JPG,ISIC_0028031.JPG,false,1,keypress(m),500,436561.00000000006,436560,433474,433457,433508,436608,8,400,9,,ISIC_8523262.JPG
break,html.Screen,4_108_1,2023-11-06T17:30:54.245Z,,0,,,NaN,,,,,,false,,,,436562,436562,,436561.00000000006,,436608,8,400,,,
break_continue,html.Screen,4_108_2,2023-11-06T17:30:54.245Z,,0,,,NaN,,,,,,false,,,,436562,436562,,436562,,436608,8,400,,,
sequence,flow.Sequence,4_108,2023-11-06T17:30:54.245Z,,0,,,3054,completion,,,,,false,,,,436562,436562,433474,433457,433508,436608,8,400,,,
trial,html.Screen,4_109_0,2023-11-06T17:30:57.021Z,,0,3,,2763,response,ISIC_4070687.JPG,5,ISIC_0175530.JPG,ISIC_0175530.JPG,false,0,keypress(z),500,439338,439337,436574,436562,436608,439391,8,400,10,,ISIC_4070687.JPG
break,html.Screen,4_109_1,2023-11-06T17:30:57.022Z,,0,,,NaN,,,,,,false,,,,439339,439339,,439338,,439391,8,400,,,
break_continue,html.Screen,4_109_2,2023-11-06T17:30:57.022Z,,0,,,NaN,,,,,,false,,,,439339,439339,,439339,,439391,8,400,,,
sequence,flow.Sequence,4_109,2023-11-06T17:30:57.022Z,,0,,,2731,completion,,,,,false,,,,439339,439339,436574,436562,436608,439391,8,400,,,
trial,html.Screen,4_110_0,2023-11-06T17:31:00.974Z,,0,3,,3933,response,ISIC_0006772.JPG,7,ISIC_0009230.JPG,ISIC_0009230.JPG,false,0,keypress(z),500,443292.00000000006,443291,439358,439339,439391,443341,8,400,11,,ISIC_0006772.JPG
break,html.Screen,4_110_1,2023-11-06T17:31:00.976Z,,0,,,NaN,,,,,,false,,,,443293,443293,,443292.00000000006,,443341,8,400,,,
break_continue,html.Screen,4_110_2,2023-11-06T17:31:00.976Z,,0,,,NaN,,,,,,false,,,,443293,443293,,443293,,443341,8,400,,,
sequence,flow.Sequence,4_110,2023-11-06T17:31:00.976Z,,0,,,3902,completion,,,,,false,,,,443294,443293,439358,439339,439391,443341,8,400,,,
trial,html.Screen,4_111_0,2023-11-06T17:31:04.443Z,,0,3,,3452,response,ISIC_9696502.JPG,8,ISIC_7579316.JPG,ISIC_9696502.JPG,false,1,keypress(m),500,446760,446760,443308,443294,443341,446808,8,400,12,,ISIC_7579316.JPG
break,html.Screen,4_111_1,2023-11-06T17:31:04.444Z,,0,,,NaN,,,,,,false,,,,446762,446761,,446761,,446808,8,400,,,
break_continue,html.Screen,4_111_2,2023-11-06T17:31:04.445Z,,0,,,NaN,,,,,,false,,,,446762,446762,,446762,,446808,8,400,,,
sequence,flow.Sequence,4_111,2023-11-06T17:31:04.445Z,,0,,,3421,completion,,,,,false,,,,446762,446762,443308,443294,443341,446808,8,400,,,
trial,html.Screen,4_112_0,2023-11-06T17:31:07.684Z,,0,3,,3227.000000000058,response,ISIC_7059794.JPG,7,ISIC_0000444.JPG,ISIC_0000444.JPG,false,0,keypress(z),500,450001.00000000006,450001.00000000006,446774,446762,446808,450041,8,400,13,,ISIC_7059794.JPG
break,html.Screen,4_112_1,2023-11-06T17:31:07.685Z,,0,,,NaN,,,,,,false,,,,450003,450002,,450002,,450041,8,400,,,
break_continue,html.Screen,4_112_2,2023-11-06T17:31:07.686Z,,0,,,NaN,,,,,,false,,,,450003,450003,,450003,,450041,8,400,,,
sequence,flow.Sequence,4_112,2023-11-06T17:31:07.686Z,,0,,,3195,completion,,,,,false,,,,450003,450003,446774,446762,446808,450041,8,400,,,
trial,html.Screen,4_113_0,2023-11-06T17:31:11.157Z,,0,3,,3467,response,ISIC_9199158.JPG,9,ISIC_8615491.JPG,ISIC_8615491.JPG,false,0,keypress(z),500,453474,453474,450007,450003,450041,453525,8,400,14,,ISIC_9199158.JPG
break,html.Screen,4_113_1,2023-11-06T17:31:11.158Z,,0,,,NaN,,,,,,false,,,,453475,453475,,453475,,453525,8,400,,,
break_continue,html.Screen,4_113_2,2023-11-06T17:31:11.158Z,,0,,,NaN,,,,,,false,,,,453476,453476,,453476,,453525,8,400,,,
sequence,flow.Sequence,4_113,2023-11-06T17:31:11.159Z,,0,,,3435,completion,,,,,false,,,,453476,453476,450007,450003,450041,453525,8,400,,,
trial,html.Screen,4_114_0,2023-11-06T17:31:14.132Z,,0,3,,2958,response,ISIC_7242312.JPG,10,ISIC_7185913.JPG,ISIC_7242312.JPG,false,1,keypress(m),500,456449,456449,453491,453476,453525,456490,8,400,15,,ISIC_7185913.JPG
break,html.Screen,4_114_1,2023-11-06T17:31:14.133Z,,0,,,NaN,,,,,,false,,,,456450,456450,,456449,,456490,8,400,,,
break_continue,html.Screen,4_114_2,2023-11-06T17:31:14.133Z,,0,,,NaN,,,,,,false,,,,456451,456451,,456451,,456490,8,400,,,
sequence,flow.Sequence,4_114,2023-11-06T17:31:14.133Z,,0,,,2926,completion,,,,,false,,,,456451,456451,453491,453476,453525,456490,8,400,,,
trial,html.Screen,4_115_0,2023-11-06T17:31:17.474Z,,0,3,,3333,response,ISIC_5714285.JPG,6,ISIC_0033518.JPG,ISIC_0033518.JPG,false,0,keypress(z),500,459792.00000000006,459791,456458,456451,456490,459841,8,400,16,,ISIC_5714285.JPG
break,html.Screen,4_115_1,2023-11-06T17:31:17.475Z,,0,,,NaN,,,,,,false,,,,459793,459793,,459792.00000000006,,459841,8,400,,,
break_continue,html.Screen,4_115_2,2023-11-06T17:31:17.476Z,,0,,,NaN,,,,,,false,,,,459793,459793,,459793,,459841,8,400,,,
sequence,flow.Sequence,4_115,2023-11-06T17:31:17.476Z,,0,,,3303,completion,,,,,false,,,,459793,459793,456458,456451,456490,459841,8,400,,,
trial,html.Screen,4_116_0,2023-11-06T17:31:20.873Z,,0,3,,3382,response,ISIC_0033275.JPG,9,ISIC_7484618.JPG,ISIC_0033275.JPG,false,1,keypress(m),500,463191.00000000006,463190,459808,459794,459841,463242,8,400,17,,ISIC_7484618.JPG
break,html.Screen,4_116_1,2023-11-06T17:31:20.874Z,,0,,,NaN,,,,,,false,,,,463192,463192,,463191.00000000006,,463242,8,400,,,
break_continue,html.Screen,4_116_2,2023-11-06T17:31:20.875Z,,0,,,NaN,,,,,,false,,,,463192,463192,,463192,,463242,8,400,,,
sequence,flow.Sequence,4_116,2023-11-06T17:31:20.875Z,,0,,,3351,completion,,,,,false,,,,463193,463192,459808,459794,459841,463242,8,400,,,
trial,html.Screen,4_117_0,2023-11-06T17:31:23.752Z,,0,3,,2861,response,ISIC_2166661.JPG,10,ISIC_0000022.JPG,ISIC_0000022.JPG,false,0,keypress(z),500,466070,466069,463208,463193,463242,466108,8,400,18,,ISIC_2166661.JPG
break,html.Screen,4_117_1,2023-11-06T17:31:23.753Z,,0,,,NaN,,,,,,false,,,,466071,466070,,466070,,466108,8,400,,,
break_continue,html.Screen,4_117_2,2023-11-06T17:31:23.753Z,,0,,,NaN,,,,,,false,,,,466071,466071,,466071,,466108,8,400,,,
sequence,flow.Sequence,4_117,2023-11-06T17:31:23.754Z,,0,,,2829,completion,,,,,false,,,,466071,466071,463208,463193,463242,466108,8,400,,,
trial,html.Screen,4_118_0,2023-11-06T17:31:27.450Z,,0,3,,3693,response,ISIC_7714981.JPG,5,ISIC_9572152.JPG,ISIC_7714981.JPG,false,1,keypress(m),500,469768,469767,466074,466072,466108,469808,8,400,19,,ISIC_9572152.JPG
break,html.Screen,4_118_1,2023-11-06T17:31:27.451Z,,0,,,NaN,,,,,,false,,,,469769,469769,,469768,,469808,8,400,,,
break_continue,html.Screen,4_118_2,2023-11-06T17:31:27.451Z,,0,,,NaN,,,,,,false,,,,469769,469769,,469769,,469808,8,400,,,
sequence,flow.Sequence,4_118,2023-11-06T17:31:27.452Z,,0,,,3661,completion,,,,,false,,,,469769,469769,466074,466071,466108,469808,8,400,,,
trial,html.Screen,4_119_0,2023-11-06T17:31:30.148Z,,0,3,,2690.000000000058,response,ISIC_2366727.JPG,6,ISIC_0063872.JPG,ISIC_0063872.JPG,false,0,keypress(z),500,472466,472465.00000000006,469775,469770,469808,472508,8,400,20,,ISIC_2366727.JPG
break,html.Screen,4_119_1,2023-11-06T17:31:30.149Z,,0,,,NaN,,,,,,false,,,,472467,472467,,472466,,472508,8,400,,,
break_continue,html.Screen,4_119_2,2023-11-06T17:31:30.149Z,,0,,,NaN,,,,,,false,,,,472467,472467,,472467,,472508,8,400,,,
sequence,flow.Sequence,4_119,2023-11-06T17:31:30.149Z,,0,,,2659,completion,,,,,false,,,,472467,472467,469775,469770,469808,472508,8,400,,,
trial,html.Screen,4_120_0,2023-11-06T17:31:33.261Z,,0,3,,3103.000000000058,response,ISIC_2333274.JPG,2,ISIC_0315631.JPG,ISIC_2333274.JPG,false,1,keypress(m),500,475579,475578.00000000006,472475,472468,472508,475625,8,400,21,,ISIC_0315631.JPG
break,html.Screen,4_120_1,2023-11-06T17:31:33.262Z,,0,,,NaN,,,,,,false,,,,475580,475580,,475579,,475625,8,400,,,
break_continue,html.Screen,4_120_2,2023-11-06T17:31:33.262Z,,0,,,NaN,,,,,,false,,,,475580,475580,,475580,,475625,8,400,,,
sequence,flow.Sequence,4_120,2023-11-06T17:31:33.263Z,,0,,,3072,completion,,,,,false,,,,475581,475580,472475,472468,472508,475625,8,400,,,
trial,html.Screen,4_121_0,2023-11-06T17:31:37.030Z,,0,3,,3755,response,ISIC_0032133.JPG,5,ISIC_0028489.JPG,ISIC_0032133.JPG,false,1,keypress(m),500,479348,479348,475593,475581,475625,479392,8,400,22,,ISIC_0028489.JPG
break,html.Screen,4_121_1,2023-11-06T17:31:37.032Z,,0,,,NaN,,,,,,false,,,,479350,479350,,479349,,479392,8,400,,,
break_continue,html.Screen,4_121_2,2023-11-06T17:31:37.032Z,,0,,,NaN,,,,,,false,,,,479350,479350,,479350,,479392,8,400,,,
sequence,flow.Sequence,4_121,2023-11-06T17:31:37.032Z,,0,,,3725,completion,,,,,false,,,,479351,479350,475593,475581,475625,479392,8,400,,,
trial,html.Screen,4_122_0,2023-11-06T17:31:39.760Z,,0,3,,2719,response,ISIC_0033879.JPG,7,ISIC_0438136.JPG,ISIC_0033879.JPG,false,1,keypress(m),500,482078.00000000006,482077,479358,479351,479392,482125,8,400,23,,ISIC_0438136.JPG
break,html.Screen,4_122_1,2023-11-06T17:31:39.761Z,,0,,,NaN,,,,,,false,,,,482079,482079,,482078.00000000006,,482125,8,400,,,
break_continue,html.Screen,4_122_2,2023-11-06T17:31:39.761Z,,0,,,NaN,,,,,,false,,,,482080,482080,,482080,,482125,8,400,,,
sequence,flow.Sequence,4_122,2023-11-06T17:31:39.762Z,,0,,,2688,completion,,,,,false,,,,482080,482080,479358,479351,479392,482125,8,400,,,
trial,html.Screen,4_123_0,2023-11-06T17:31:42.378Z,,0,3,,2604,response,ISIC_2863397.JPG,6,ISIC_0034046.JPG,ISIC_0034046.JPG,false,0,keypress(z),500,484696,484696,482092,482080,482125,484742,8,400,24,,ISIC_2863397.JPG
break,html.Screen,4_123_1,2023-11-06T17:31:42.379Z,,0,,,NaN,,,,,,false,,,,484697,484697,,484696,,484742,8,400,,,
break_continue,html.Screen,4_123_2,2023-11-06T17:31:42.380Z,,0,,,NaN,,,,,,false,,,,484698.00000000006,484698.00000000006,,484698.00000000006,,484742,8,400,,,
sequence,flow.Sequence,4_123,2023-11-06T17:31:42.380Z,,0,,,2573.000000000058,completion,,,,,false,,,,484698.00000000006,484698.00000000006,482092,482080,482125,484742,8,400,,,
trial,html.Screen,4_124_0,2023-11-06T17:31:45.653Z,,0,3,,3262,response,ISIC_0062204.JPG,4,ISIC_6336926.JPG,ISIC_0062204.JPG,false,1,keypress(m),500,487972.00000000006,487971,484709,484698.00000000006,484742,488025,8,400,25,,ISIC_6336926.JPG
break,html.Screen,4_124_1,2023-11-06T17:31:45.654Z,,0,,,NaN,,,,,,false,,,,487973,487973,,487972.00000000006,,488025,8,400,,,
break_continue,html.Screen,4_124_2,2023-11-06T17:31:45.655Z,,0,,,NaN,,,,,,false,,,,487973,487973,,487973,,488025,8,400,,,
sequence,flow.Sequence,4_124,2023-11-06T17:31:45.655Z,,0,,,3231,completion,,,,,false,,,,487973,487973,484709,484698.00000000006,484742,488025,8,400,,,
trial,html.Screen,4_125_0,2023-11-06T17:31:50.252Z,,0,3,,4578,response,ISIC_0959863.JPG,4,ISIC_0062364.JPG,ISIC_0062364.JPG,false,0,keypress(z),500,492571,492570,487992,487974,488025,492608,8,400,26,,ISIC_0959863.JPG
break,html.Screen,4_125_1,2023-11-06T17:31:50.253Z,,0,,,NaN,,,,,,false,,,,492572,492572,,492571,,492608,8,400,,,
break_continue,html.Screen,4_125_2,2023-11-06T17:31:50.254Z,,0,,,NaN,,,,,,false,,,,492572,492572,,492572,,492608,8,400,,,
sequence,flow.Sequence,4_125,2023-11-06T17:31:50.254Z,,0,,,4547,completion,,,,,false,,,,492573.00000000006,492572,487992,487973,488025,492608,8,400,,,
trial,html.Screen,4_126_0,2023-11-06T17:31:53.127Z,,0,3,,2870,response,ISIC_7636321.JPG,7,ISIC_4756979.JPG,ISIC_7636321.JPG,false,1,keypress(m),500,495446,495445,492575,492573.00000000006,492608,495492,8,400,27,,ISIC_4756979.JPG
break,html.Screen,4_126_1,2023-11-06T17:31:53.128Z,,0,,,NaN,,,,,,false,,,,495447,495447,,495446,,495492,8,400,,,
break_continue,html.Screen,4_126_2,2023-11-06T17:31:53.129Z,,0,,,NaN,,,,,,false,,,,495447,495447,,495447,,495492,8,400,,,
sequence,flow.Sequence,4_126,2023-11-06T17:31:53.129Z,,0,,,2839,completion,,,,,false,,,,495447,495447,492575,492573.00000000006,492608,495492,8,400,,,
trial,html.Screen,4_127_0,2023-11-06T17:31:55.971Z,,0,3,,2830,response,ISIC_0031543.JPG,7,ISIC_7809510.JPG,ISIC_0031543.JPG,false,1,keypress(m),500,498290,498289,495459,495448.00000000006,495492,498341,8,400,28,,ISIC_7809510.JPG
break,html.Screen,4_127_1,2023-11-06T17:31:55.972Z,,0,,,NaN,,,,,,false,,,,498291,498291,,498290,,498341,8,400,,,
break_continue,html.Screen,4_127_2,2023-11-06T17:31:55.973Z,,0,,,NaN,,,,,,false,,,,498292.00000000006,498291,,498291,,498341,8,400,,,
sequence,flow.Sequence,4_127,2023-11-06T17:31:55.973Z,,0,,,2799,completion,,,,,false,,,,498292.00000000006,498291,495459,495448.00000000006,495492,498341,8,400,,,
trial,html.Screen,4_128_0,2023-11-06T17:31:58.644Z,,0,3,,2654,response,ISIC_0024537.JPG,4,ISIC_0000414.JPG,ISIC_0000414.JPG,false,0,keypress(z),500,500963,500963,498309,498292.00000000006,498341,501009,8,400,29,,ISIC_0024537.JPG
break,html.Screen,4_128_1,2023-11-06T17:31:58.645Z,,0,,,NaN,,,,,,false,,,,500964,500964,,500963,,501009,8,400,,,
break_continue,html.Screen,4_128_2,2023-11-06T17:31:58.646Z,,0,,,NaN,,,,,,false,,,,500965.00000000006,500964,,500964,,501009,8,400,,,
sequence,flow.Sequence,4_128,2023-11-06T17:31:58.646Z,,0,,,2623,completion,,,,,false,,,,500965.00000000006,500964,498309,498292.00000000006,498341,501009,8,400,,,
trial,html.Screen,4_129_0,2023-11-06T17:32:01.310Z,,0,3,,2653,response,ISIC_0064660.JPG,1,ISIC_0024656.JPG,ISIC_0024656.JPG,false,0,keypress(z),500,503629,503629,500976,500965.00000000006,501009,503676,8,400,30,,ISIC_0064660.JPG
break,html.Screen,4_129_1,2023-11-06T17:32:01.312Z,,0,,,NaN,,,,,,false,,,,503630,503630,,503629,,503676,8,400,,,
break_continue,html.Screen,4_129_2,2023-11-06T17:32:01.312Z,,0,,,NaN,,,,,,false,,,,503631,503631,,503631,,503676,8,400,,,
sequence,flow.Sequence,4_129,2023-11-06T17:32:01.312Z,,0,,,2622,completion,,,,,false,,,,503631,503631,500976,500965.00000000006,501009,503676,8,400,,,
trial,html.Screen,4_130_0,2023-11-06T17:32:04.266Z,,0,3,,2942,response,ISIC_7331345.JPG,4,ISIC_0029591.JPG,ISIC_0029591.JPG,false,0,keypress(z),500,506585.00000000006,506584,503642,503631,503676,506626,8,400,31,,ISIC_7331345.JPG
break,html.Screen,4_130_1,2023-11-06T17:32:04.267Z,,0,,,NaN,,,,,,false,,,,506586,506586,,506585.00000000006,,506626,8,400,,,
break_continue,html.Screen,4_130_2,2023-11-06T17:32:04.267Z,,0,,,NaN,,,,,,false,,,,506586,506586,,506586,,506626,8,400,,,
sequence,flow.Sequence,4_130,2023-11-06T17:32:04.268Z,,0,,,2910,completion,,,,,false,,,,506587,506586,503642,503631,503676,506626,8,400,,,
trial,html.Screen,4_131_0,2023-11-06T17:32:07.779Z,,0,3,,3506,response,ISIC_0064964.JPG,5,ISIC_4629662.JPG,ISIC_4629662.JPG,false,0,keypress(z),500,510098,510098,506592,506587,506626,510142,8,400,32,,ISIC_0064964.JPG
break,html.Screen,4_131_1,2023-11-06T17:32:07.780Z,,0,,,NaN,,,,,,false,,,,510099,510099,,510098,,510142,8,400,,,
break_continue,html.Screen,4_131_2,2023-11-06T17:32:07.781Z,,0,,,NaN,,,,,,false,,,,510100,510100,,510100,,510142,8,400,,,
sequence,flow.Sequence,4_131,2023-11-06T17:32:07.781Z,,0,,,3474,completion,,,,,false,,,,510100,510100,506592,506587,506626,510142,8,400,,,
trial,html.Screen,4_132_0,2023-11-06T17:32:10.647Z,,0,3,,2857,response,ISIC_0056710.JPG,8,ISIC_1260545.JPG,ISIC_0056710.JPG,false,1,keypress(m),500,512966,512966,510109,510100,510142,513009,8,400,33,,ISIC_1260545.JPG
break,html.Screen,4_132_1,2023-11-06T17:32:10.648Z,,0,,,NaN,,,,,,false,,,,512967,512967,,512966,,513009,8,400,,,
break_continue,html.Screen,4_132_2,2023-11-06T17:32:10.649Z,,0,,,NaN,,,,,,false,,,,512967.99999999994,512967.99999999994,,512967.99999999994,,513009,8,400,,,
sequence,flow.Sequence,4_132,2023-11-06T17:32:10.649Z,,0,,,2825.999999999942,completion,,,,,false,,,,512967.99999999994,512967.99999999994,510109,510100,510142,513009,8,400,,,
trial,html.Screen,4_133_0,2023-11-06T17:32:13.323Z,,0,3,,2666.000000000058,response,ISIC_5312584.JPG,6,ISIC_2784664.JPG,ISIC_2784664.JPG,false,0,keypress(z),500,515642.00000000006,515642.00000000006,512976,512967.99999999994,513009,515693,8,400,34,,ISIC_5312584.JPG
break,html.Screen,4_133_1,2023-11-06T17:32:13.324Z,,0,,,NaN,,,,,,false,,,,515644,515643,,515643,,515693,8,400,,,
break_continue,html.Screen,4_133_2,2023-11-06T17:32:13.325Z,,0,,,NaN,,,,,,false,,,,515644,515644,,515644,,515693,8,400,,,
sequence,flow.Sequence,4_133,2023-11-06T17:32:13.325Z,,0,,,2635,completion,,,,,false,,,,515644,515644,512976,512967.99999999994,513009,515693,8,400,,,
trial,html.Screen,4_134_0,2023-11-06T17:32:16.076Z,,0,3,,2736,response,ISIC_0065746.JPG,8,ISIC_3180213.JPG,ISIC_0065746.JPG,false,1,keypress(m),500,518395,518395,515659,515644,515693,518443,8,400,35,,ISIC_3180213.JPG
break,html.Screen,4_134_1,2023-11-06T17:32:16.077Z,,0,,,NaN,,,,,,false,,,,518397.00000000006,518395.99999999994,,518395.99999999994,,518443,8,400,,,
break_continue,html.Screen,4_134_2,2023-11-06T17:32:16.078Z,,0,,,NaN,,,,,,false,,,,518397.00000000006,518397.00000000006,,518397.00000000006,,518443,8,400,,,
sequence,flow.Sequence,4_134,2023-11-06T17:32:16.078Z,,0,,,2704.000000000058,completion,,,,,false,,,,518397.00000000006,518397.00000000006,515659,515644,515693,518443,8,400,,,
trial,html.Screen,4_135_0,2023-11-06T17:32:18.734Z,,0,3,,2644,response,ISIC_8374889.JPG,5,ISIC_0030695.JPG,ISIC_0030695.JPG,false,0,keypress(z),500,521053,521053,518409,518397.00000000006,518443,521093,8,400,36,,ISIC_8374889.JPG
break,html.Screen,4_135_1,2023-11-06T17:32:18.735Z,,0,,,NaN,,,,,,false,,,,521055.00000000006,521054,,521054,,521093,8,400,,,
break_continue,html.Screen,4_135_2,2023-11-06T17:32:18.736Z,,0,,,NaN,,,,,,false,,,,521055.00000000006,521055.00000000006,,521055.00000000006,,521093,8,400,,,
sequence,flow.Sequence,4_135,2023-11-06T17:32:18.736Z,,0,,,2612.000000000058,completion,,,,,false,,,,521055.00000000006,521055.00000000006,518409,518397.00000000006,518443,521093,8,400,,,
trial,html.Screen,4_136_0,2023-11-06T17:32:21.575Z,,0,3,,2835,response,ISIC_1177505.JPG,9,ISIC_0027971.JPG,ISIC_0027971.JPG,false,0,keypress(z),500,523894,523894,521059,521055.00000000006,521093,523942,8,400,37,,ISIC_1177505.JPG
break,html.Screen,4_136_1,2023-11-06T17:32:21.576Z,,0,,,NaN,,,,,,false,,,,523895,523895,,523894,,523942,8,400,,,
break_continue,html.Screen,4_136_2,2023-11-06T17:32:21.576Z,,0,,,NaN,,,,,,false,,,,523895.99999999994,523895.99999999994,,523895,,523942,8,400,,,
sequence,flow.Sequence,4_136,2023-11-06T17:32:21.577Z,,0,,,2802.999999999942,completion,,,,,false,,,,523895.99999999994,523895.99999999994,521059,521055.00000000006,521093,523942,8,400,,,
trial,html.Screen,4_137_0,2023-11-06T17:32:25.010Z,,0,3,,3420.0000000001164,response,ISIC_6378169.JPG,9,ISIC_9141817.JPG,ISIC_9141817.JPG,false,0,keypress(z),500,527330,527329.0000000001,523909,523895.99999999994,523942,527376,8,400,38,,ISIC_6378169.JPG
break,html.Screen,4_137_1,2023-11-06T17:32:25.011Z,,0,,,NaN,,,,,,false,,,,527331,527331,,527330,,527376,8,400,,,
break_continue,html.Screen,4_137_2,2023-11-06T17:32:25.012Z,,0,,,NaN,,,,,,false,,,,527331,527331,,527331,,527376,8,400,,,
sequence,flow.Sequence,4_137,2023-11-06T17:32:25.012Z,,0,,,3389,completion,,,,,false,,,,527331,527331,523909,523895.99999999994,523942,527376,8,400,,,
trial,html.Screen,4_138_0,2023-11-06T17:32:28.231Z,,0,3,,3208,response,ISIC_2693412.JPG,4,ISIC_6119202.JPG,ISIC_6119202.JPG,false,0,keypress(z),500,530551,530551,527343,527331,527376,530593,8,400,39,,ISIC_2693412.JPG
break,html.Screen,4_138_1,2023-11-06T17:32:28.233Z,,0,,,NaN,,,,,,false,,,,530552,530552,,530551,,530593,8,400,,,
break_continue,html.Screen,4_138_2,2023-11-06T17:32:28.233Z,,0,,,NaN,,,,,,false,,,,530553,530552,,530552,,530593,8,400,,,
sequence,flow.Sequence,4_138,2023-11-06T17:32:28.233Z,,0,,,3176,completion,,,,,false,,,,530553,530552,527343,527331,527376,530593,8,400,,,
trial,html.Screen,4_139_0,2023-11-06T17:32:31.156Z,,0,3,,2916,response,ISIC_0030860.JPG,8,ISIC_6606767.JPG,ISIC_0030860.JPG,false,1,keypress(m),500,533476,533475,530559,530553,530593,533526,8,400,40,,ISIC_6606767.JPG
break,html.Screen,4_139_1,2023-11-06T17:32:31.157Z,,0,,,NaN,,,,,,false,,,,533477,533477,,533476,,533526,8,400,,,
break_continue,html.Screen,4_139_2,2023-11-06T17:32:31.157Z,,0,,,NaN,,,,,,false,,,,533477,533477,,533477,,533526,8,400,,,
sequence,flow.Sequence,4_139,2023-11-06T17:32:31.158Z,,0,,,2884,completion,,,,,false,,,,533477,533477,530559,530553,530593,533526,8,400,,,
trial,html.Screen,4_140_0,2023-11-06T17:32:34.037Z,,0,3,,2865,response,ISIC_0787229.JPG,11,ISIC_7612992.JPG,ISIC_7612992.JPG,false,0,keypress(Z),500,536357,536357,533492,533478.0000000001,533526,536410,8,400,41,,ISIC_0787229.JPG
break,html.Screen,4_140_1,2023-11-06T17:32:34.039Z,,0,,,NaN,,,,,,false,,,,536358.0000000001,536358.0000000001,,536357,,536410,8,400,,,
break_continue,html.Screen,4_140_2,2023-11-06T17:32:34.039Z,,0,,,NaN,,,,,,false,,,,536359,536359,,536359,,536410,8,400,,,
sequence,flow.Sequence,4_140,2023-11-06T17:32:34.039Z,,0,,,2833,completion,,,,,false,,,,536359,536359,533492,533478.0000000001,533526,536410,8,400,,,
trial,html.Screen,4_141_0,2023-11-06T17:32:41.278Z,,0,3,,7222,response,ISIC_0034100.JPG,13,ISIC_3576000.JPG,ISIC_3576000.JPG,false,0,keypress(Z),500,543598,543598,536376,536359,536410,543643,8,400,42,,ISIC_0034100.JPG
break,html.Screen,4_141_1,2023-11-06T17:32:41.280Z,,0,,,NaN,,,,,,false,,,,543600,543599,,543599,,543643,8,400,,,
break_continue,html.Screen,4_141_2,2023-11-06T17:32:41.280Z,,0,,,NaN,,,,,,false,,,,543600,543600,,543600,,543643,8,400,,,
sequence,flow.Sequence,4_141,2023-11-06T17:32:41.280Z,,0,,,7190,completion,,,,,false,,,,543600,543600,536376,536359,536410,543643,8,400,,,
trial,html.Screen,4_142_0,2023-11-06T17:32:44.321Z,,0,3,,3032,response,ISIC_9465061.JPG,10,ISIC_0030060.JPG,ISIC_0030060.JPG,false,0,keypress(Z),500,546641,546641,543609,543600,543643,546693,8,400,43,,ISIC_9465061.JPG
break,html.Screen,4_142_1,2023-11-06T17:32:44.323Z,,0,,,NaN,,,,,,false,,,,546643,546643,,546642,,546693,8,400,,,
break_continue,html.Screen,4_142_2,2023-11-06T17:32:44.323Z,,0,,,NaN,,,,,,false,,,,546643,546643,,546643,,546693,8,400,,,
sequence,flow.Sequence,4_142,2023-11-06T17:32:44.323Z,,0,,,3000,completion,,,,,false,,,,546643,546643,543609,543600,543643,546693,8,400,,,
trial,html.Screen,4_143_0,2023-11-06T17:32:51.280Z,,0,3,,6940,response,ISIC_0005854.JPG,13,ISIC_0004075.JPG,ISIC_0004075.JPG,false,0,keypress(Z),500,553600,553600,546660,546643,546693,553643,8,400,44,,ISIC_0005854.JPG
break,html.Screen,4_143_1,2023-11-06T17:32:51.281Z,,0,,,NaN,,,,,,false,,,,553601,553601,,553600,,553643,8,400,,,
break_continue,html.Screen,4_143_2,2023-11-06T17:32:51.281Z,,0,,,NaN,,,,,,false,,,,553602,553602,,553601,,553643,8,400,,,
sequence,flow.Sequence,4_143,2023-11-06T17:32:51.282Z,,0,,,6909,completion,,,,,false,,,,553602,553602,546660,546643,546693,553643,8,400,,,
trial,html.Screen,4_144_0,2023-11-06T17:32:54.472Z,,0,3,,3182,response,ISIC_5758316.JPG,9,ISIC_0073075.JPG,ISIC_0073075.JPG,false,0,keypress(Z),500,556793,556792,553610,553602,553643,556843,8,400,45,,ISIC_5758316.JPG
break,html.Screen,4_144_1,2023-11-06T17:32:54.474Z,,0,,,NaN,,,,,,false,,,,556794,556794,,556793,,556843,8,400,,,
break_continue,html.Screen,4_144_2,2023-11-06T17:32:54.474Z,,0,,,NaN,,,,,,false,,,,556794,556794,,556794,,556843,8,400,,,
sequence,flow.Sequence,4_144,2023-11-06T17:32:54.474Z,,0,,,3151,completion,,,,,false,,,,556795,556794,553610,553602,553643,556843,8,400,,,
trial,html.Screen,4_145_0,2023-11-06T17:32:57.842Z,,0,3,,3352,response,ISIC_9278685.JPG,10,ISIC_2807121.JPG,ISIC_2807121.JPG,false,0,keypress(Z),500,560163,560162,556810,556795,556843,560210,8,400,46,,ISIC_9278685.JPG
break,html.Screen,4_145_1,2023-11-06T17:32:57.844Z,,0,,,NaN,,,,,,false,,,,560164,560164,,560163,,560210,8,400,,,
break_continue,html.Screen,4_145_2,2023-11-06T17:32:57.844Z,,0,,,NaN,,,,,,false,,,,560164,560164,,560164,,560210,8,400,,,
sequence,flow.Sequence,4_145,2023-11-06T17:32:57.844Z,,0,,,3321,completion,,,,,false,,,,560165,560164,556810,556795,556843,560210,8,400,,,
trial,html.Screen,4_146_0,2023-11-06T17:33:01.320Z,,0,3,,3463,response,ISIC_0013096.JPG,7,ISIC_2839431.JPG,ISIC_2839431.JPG,false,0,keypress(Z),500,563641,563640,560177,560165,560210,563694,8,400,47,,ISIC_0013096.JPG
break,html.Screen,4_146_1,2023-11-06T17:33:01.321Z,,0,,,NaN,,,,,,false,,,,563642,563641,,563641,,563694,8,400,,,
break_continue,html.Screen,4_146_2,2023-11-06T17:33:01.321Z,,0,,,NaN,,,,,,false,,,,563642,563642,,563642,,563694,8,400,,,
sequence,flow.Sequence,4_146,2023-11-06T17:33:01.322Z,,0,,,3432,completion,,,,,false,,,,563642,563642,560177,560165,560210,563694,8,400,,,
trial,html.Screen,4_147_0,2023-11-06T17:33:09.518Z,,0,3,,8179,response,ISIC_0010094.JPG,11,ISIC_9741917.JPG,ISIC_9741917.JPG,false,0,keypress(Z),500,571839,571838,563659,563642,563694,571877,8,400,48,,ISIC_0010094.JPG
break,html.Screen,4_147_1,2023-11-06T17:33:09.519Z,,0,,,NaN,,,,,,false,,,,571840,571839,,571839,,571877,8,400,,,
break_continue,html.Screen,4_147_2,2023-11-06T17:33:09.519Z,,0,,,NaN,,,,,,false,,,,571840,571840,,571840,,571877,8,400,,,
sequence,flow.Sequence,4_147,2023-11-06T17:33:09.519Z,,0,,,8146,completion,,,,,false,,,,571840,571840,563659,563642,563694,571877,8,400,,,
trial,html.Screen,4_148_0,2023-11-06T17:33:12.621Z,,0,3,,3099,response,ISIC_0026627.JPG,5,ISIC_0059350.JPG,ISIC_0059350.JPG,false,0,keypress(Z),500,574942,574942,571843,571840,571877,574993,8,400,49,,ISIC_0026627.JPG
break,html.Screen,4_148_1,2023-11-06T17:33:12.622Z,,0,,,NaN,,,,,,false,,,,574943,574943,,574942,,574993,8,400,,,
break_continue,html.Screen,4_148_2,2023-11-06T17:33:12.623Z,,0,,,NaN,,,,,,false,,,,574944,574944,,574944,,574993,8,400,,,
sequence,flow.Sequence,4_148,2023-11-06T17:33:12.623Z,,0,,,3067,completion,,,,,false,,,,574944,574944,571843,571840,571877,574993,8,400,,,
trial,html.Screen,4_149_0,2023-11-06T17:33:15.340Z,,0,3,,2699,response,ISIC_0024351.JPG,13,ISIC_2518896.JPG,ISIC_2518896.JPG,false,0,keypress(Z),500,577661,577660,574961,574944,574993,577711,8,400,50,,ISIC_0024351.JPG
break,html.Screen,4_149_1,2023-11-06T17:33:25.357Z,,0,,,10000,timeout,,,,,false,,,,587678,587677,577677,577661,577711,587711,8,400,,,
break_continue,html.Screen,4_149_2,2023-11-06T17:33:26.231Z,,0,,,885,response,,,,,false,continue,keypress(Space),,588552,588562,587677,587678,587711,588594,8,400,,,
sequence,flow.Sequence,4_149,2023-11-06T17:33:26.231Z,,0,,,13569,completion,,,,,false,,,,588552,588562,574961,574944,574993,588594,8,400,,,
trial,html.Screen,4_150_0,2023-11-06T17:33:31.443Z,,0,4,,5204,response,ISIC_9008026.JPG,7,ISIC_5150200.JPG,ISIC_5150200.JPG,false,0,keypress(Z),500,593764,593764,588560,588553,588594,593811,8,400,1,,ISIC_9008026.JPG
break,html.Screen,4_150_1,2023-11-06T17:33:31.443Z,,0,,,NaN,,,,,,false,,,,593765,593765,,593764,,593811,8,400,,,
break_continue,html.Screen,4_150_2,2023-11-06T17:33:31.443Z,,0,,,NaN,,,,,,false,,,,593765,593765,,593765,,593811,8,400,,,
sequence,flow.Sequence,4_150,2023-11-06T17:33:31.444Z,,0,,,5171,completion,,,,,false,,,,593765,593765,588560,588553,588594,593811,8,400,,,
trial,html.Screen,4_151_0,2023-11-06T17:33:34.282Z,,0,4,,2825.0000000001164,response,ISIC_0070403.JPG,5,ISIC_6293107.JPG,ISIC_6293107.JPG,false,0,keypress(Z),500,596604,596603.0000000001,593778,593765,593811,596644,8,400,2,,ISIC_0070403.JPG
break,html.Screen,4_151_1,2023-11-06T17:33:34.284Z,,0,,,NaN,,,,,,false,,,,596605,596605,,596604,,596644,8,400,,,
break_continue,html.Screen,4_151_2,2023-11-06T17:33:34.284Z,,0,,,NaN,,,,,,false,,,,596606,596605,,596605,,596644,8,400,,,
sequence,flow.Sequence,4_151,2023-11-06T17:33:34.284Z,,0,,,2794,completion,,,,,false,,,,596606,596605,593778,593765,593811,596644,8,400,,,
trial,html.Screen,4_152_0,2023-11-06T17:33:36.844Z,,0,4,,2555,response,ISIC_2321671.JPG,9,ISIC_0030083.JPG,ISIC_0030083.JPG,false,0,keypress(Z),500,599165,599165,596610,596606,596644,599211,8,400,3,,ISIC_2321671.JPG
break,html.Screen,4_152_1,2023-11-06T17:33:36.845Z,,0,,,NaN,,,,,,false,,,,599167,599166,,599166,,599211,8,400,,,
break_continue,html.Screen,4_152_2,2023-11-06T17:33:36.845Z,,0,,,NaN,,,,,,false,,,,599167,599167,,599167,,599211,8,400,,,
sequence,flow.Sequence,4_152,2023-11-06T17:33:36.846Z,,0,,,2523,completion,,,,,false,,,,599167,599167,596610,596606,596644,599211,8,400,,,
trial,html.Screen,4_153_0,2023-11-06T17:33:45.973Z,,0,4,,9116,response,ISIC_0033876.JPG,8,ISIC_6370977.JPG,ISIC_6370977.JPG,false,0,keypress(Z),500,608295,608294,599178,599167,599211,608344,8,400,4,,ISIC_0033876.JPG
break,html.Screen,4_153_1,2023-11-06T17:33:45.974Z,,0,,,NaN,,,,,,false,,,,608296,608296,,608295,,608344,8,400,,,
break_continue,html.Screen,4_153_2,2023-11-06T17:33:45.974Z,,0,,,NaN,,,,,,false,,,,608296,608296,,608296,,608344,8,400,,,
sequence,flow.Sequence,4_153,2023-11-06T17:33:45.975Z,,0,,,9085,completion,,,,,false,,,,608297,608296,599178,599167,599211,608344,8,400,,,
trial,html.Screen,4_154_0,2023-11-06T17:33:53.029Z,,0,4,,7039,response,ISIC_0072030.JPG,10,ISIC_0013921.JPG,ISIC_0013921.JPG,false,0,keypress(Z),500,615351,615350,608311,608297,608344,615395,8,400,5,,ISIC_0072030.JPG
break,html.Screen,4_154_1,2023-11-06T17:33:53.030Z,,0,,,NaN,,,,,,false,,,,615352,615352,,615351,,615395,8,400,,,
break_continue,html.Screen,4_154_2,2023-11-06T17:33:53.030Z,,0,,,NaN,,,,,,false,,,,615352,615352,,615352,,615395,8,400,,,
sequence,flow.Sequence,4_154,2023-11-06T17:33:53.031Z,,0,,,7008,completion,,,,,false,,,,615353.0000000001,615352,608311,608297,608344,615395,8,400,,,
trial,html.Screen,4_155_0,2023-11-06T17:33:56.279Z,,0,4,,3239,response,ISIC_1885174.JPG,8,ISIC_0025265.JPG,ISIC_0025265.JPG,false,0,keypress(Z),500,618601,618600,615361,615353.0000000001,615395,618645,8,400,6,,ISIC_1885174.JPG
break,html.Screen,4_155_1,2023-11-06T17:33:56.280Z,,0,,,NaN,,,,,,false,,,,618602,618602,,618601,,618645,8,400,,,
break_continue,html.Screen,4_155_2,2023-11-06T17:33:56.280Z,,0,,,NaN,,,,,,false,,,,618603.0000000001,618603.0000000001,,618602,,618645,8,400,,,
sequence,flow.Sequence,4_155,2023-11-06T17:33:56.281Z,,0,,,3208.0000000001164,completion,,,,,false,,,,618603.0000000001,618603.0000000001,615361,615353.0000000001,615395,618645,8,400,,,
trial,html.Screen,4_156_0,2023-11-06T17:33:59.065Z,,0,4,,2776,response,ISIC_6362735.JPG,29,ISIC_6475049.JPG,ISIC_6475049.JPG,false,0,keypress(Z),500,621388,621387,618611,618603.0000000001,618645,621428,8,400,7,,ISIC_6362735.JPG
break,html.Screen,4_156_1,2023-11-06T17:33:59.066Z,,0,,,NaN,,,,,,false,,,,621389,621388,,621388,,621428,8,400,,,
break_continue,html.Screen,4_156_2,2023-11-06T17:33:59.067Z,,0,,,NaN,,,,,,false,,,,621389,621389,,621389,,621428,8,400,,,
sequence,flow.Sequence,4_156,2023-11-06T17:33:59.067Z,,0,,,2744,completion,,,,,false,,,,621389,621389,618611,618603.0000000001,618645,621428,8,400,,,
trial,html.Screen,4_157_0,2023-11-06T17:34:04.016Z,,0,4,,4944,response,ISIC_2445765.JPG,3,ISIC_5502342.JPG,ISIC_5502342.JPG,false,0,keypress(Z),500,626338,626338,621394,621389,621428,626378,8,400,8,,ISIC_2445765.JPG
break,html.Screen,4_157_1,2023-11-06T17:34:04.017Z,,0,,,NaN,,,,,,false,,,,626340,626339,,626339,,626378,8,400,,,
break_continue,html.Screen,4_157_2,2023-11-06T17:34:04.017Z,,0,,,NaN,,,,,,false,,,,626340,626340,,626340,,626378,8,400,,,
sequence,flow.Sequence,4_157,2023-11-06T17:34:04.018Z,,0,,,4912,completion,,,,,false,,,,626340,626340,621394,621389,621428,626378,8,400,,,
