sender,sender_type,sender_id,timestamp,meta,,blockNo,condition,duration,ended_on,img_left,img_reveal,img_right,loser,practice,response,response_action,selection_duration,time_commit,time_end,time_render,time_run,time_show,time_switch,total_blocks,total_trials,trialNo,url,winner
informed_consent,html.Screen,0,2023-11-01T16:54:59.361Z,"{""labjs_version"":""20.2.4"",""labjs_build"":{""flavor"":""production"",""commit"":""f5b4a49f956347addd546a832a3327688c2c0fef""},""location"":""https://run.pavlovia.org/MurrayBennett/melanoma-2afc/?participant=66394&platform=sona"",""userAgent"":""Mozilla/5.0 (Macintosh; Intel Mac OS X 10_15_7) AppleWebKit/605.1.15 (KHTML, like Gecko) Version/16.6 Safari/605.1.15"",""platform"":""MacIntel"",""language"":""en-US"",""locale"":""en-US"",""timeZone"":""America/Chicago"",""timezoneOffset"":300,""screen_width"":1440,""screen_height"":900,""scroll_width"":1343,""scroll_height"":654,""window_innerWidth"":1343,""window_innerHeight"":702,""devicePixelRatio"":2}",,,,11650,response,,,,,,consent,click button,,14591.000000000002,14593,2943,2939,2960,14620,,,,"{""participant"":""66394"",""platform"":""sona""}",
Welcome,html.Screen,1,2023-11-01T16:55:30.179Z,,,,asymmetry,30810.000000000007,response,,,,,,continue,click button,,45410.00000000001,45413.00000000001,14603,14591.000000000002,14620,45437,,,,,
trial,html.Screen,2_0_0,2023-11-01T16:55:36.616Z,,0,0,,6426,response,ISIC_0069348.JPG,,ISIC_6997061.JPG,ISIC_6997061.JPG,true,0,keypress(z),500,51848,51847,45421,45411,45437,51871,1,6,1,,ISIC_0069348.JPG
sequence,flow.Sequence,2_0,2023-11-01T16:55:36.617Z,,0,,,6410,completion,,,,,true,,,,51849.00000000001,51847,45421,45411,45437,51871,1,6,,,
trial,html.Screen,2_1_0,2023-11-01T16:55:43.360Z,,0,0,,6738,response,ISIC_0009529.JPG,,ISIC_0057368.JPG,ISIC_0009529.JPG,true,1,keypress(m),500,58592,58591,51853,51849.00000000001,51871,58621,1,6,2,,ISIC_0057368.JPG
sequence,flow.Sequence,2_1,2023-11-01T16:55:43.360Z,,0,,,6720,completion,,,,,true,,,,58592,58591,51853,51849.00000000001,51871,58621,1,6,,,
trial,html.Screen,2_2_0,2023-11-01T16:55:49.683Z,,0,0,,6310.000000000007,response,ISIC_9758671.JPG,,ISIC_0064954.JPG,ISIC_0064954.JPG,true,0,keypress(z),500,64915.00000000001,64915.00000000001,58605,58593,58621,64937,1,6,3,,ISIC_9758671.JPG
sequence,flow.Sequence,2_2,2023-11-01T16:55:49.684Z,,0,,,6294.000000000007,completion,,,,,true,,,,64916,64915.00000000001,58605,58593,58621,64937,1,6,,,
trial,html.Screen,2_3_0,2023-11-01T16:55:55.680Z,,0,0,,5991,response,ISIC_0005785.JPG,,ISIC_0000080.JPG,ISIC_0000080.JPG,true,0,keypress(z),500,70912,70912,64921,64916,64937,70938,1,6,4,,ISIC_0005785.JPG
sequence,flow.Sequence,2_3,2023-11-01T16:55:55.681Z,,0,,,5975,completion,,,,,true,,,,70913,70912,64921,64916,64937,70938,1,6,,,
trial,html.Screen,2_4_0,2023-11-01T16:55:59.823Z,,0,0,,4132,response,ISIC_7944028.JPG,,ISIC_5390060.JPG,ISIC_7944028.JPG,true,1,keypress(m),500,75055,75054,70922,70914,70938,75088,1,6,5,,ISIC_5390060.JPG
sequence,flow.Sequence,2_4,2023-11-01T16:55:59.823Z,,0,,,4116,completion,,,,,true,,,,75056,75054,70922,70913,70938,75088,1,6,,,
trial,html.Screen,2_5_0,2023-11-01T16:56:04.148Z,,0,0,,4308,response,ISIC_0010188.JPG,,ISIC_0794216.JPG,ISIC_0794216.JPG,true,0,keypress(z),500,79381,79380,75072,75056,75088,79406,1,6,6,,ISIC_0010188.JPG
sequence,flow.Sequence,2_5,2023-11-01T16:56:04.148Z,,0,,,4292,completion,,,,,true,,,,79381,79380,75072,75056,75088,79406,1,6,,,
loop,flow.Loop,2,2023-11-01T16:56:04.149Z,,,,,33943,completion,,,,,true,,,,79381,79380,45421,45411,45437,79406,1,6,,,
exp_instructions,html.Screen,3,2023-11-01T16:56:11.807Z,,,,,7656,response,,,,,,continue,keypress(Space),,87040,87044,79388,79381,79406,87072,,,,,
trial,html.Screen,4_0_0,2023-11-01T16:56:18.167Z,,0,1,,6343,response,ISIC_6507492.JPG,8,ISIC_0025648.JPG,ISIC_6507492.JPG,false,1,keypress(m),500,93400,93399,87056,87041,87072,93422,8,400,1,,ISIC_0025648.JPG
break,html.Screen,4_0_1,2023-11-01T16:56:18.169Z,,0,,,NaN,,,,,,false,,,,93402,93401,,93400,,93422,8,400,,,
break_continue,html.Screen,4_0_2,2023-11-01T16:56:18.169Z,,0,,,NaN,,,,,,false,,,,93402,93402,,93402,,93422,8,400,,,
sequence,flow.Sequence,4_0,2023-11-01T16:56:18.170Z,,0,,,6330,completion,,,,,false,,,,93403,93402,87056,87041,87072,93422,8,400,,,
trial,html.Screen,4_1_0,2023-11-01T16:56:21.898Z,,0,1,,3725,response,ISIC_0065219.JPG,8,ISIC_9355535.JPG,ISIC_0065219.JPG,false,1,keypress(m),500,97132,97131,93406,93403,93422,97156,8,400,2,,ISIC_9355535.JPG
break,html.Screen,4_1_1,2023-11-01T16:56:21.900Z,,0,,,NaN,,,,,,false,,,,97133,97133,,97132,,97156,8,400,,,
break_continue,html.Screen,4_1_2,2023-11-01T16:56:21.901Z,,0,,,NaN,,,,,,false,,,,97134,97134,,97134,,97156,8,400,,,
sequence,flow.Sequence,4_1,2023-11-01T16:56:21.901Z,,0,,,3712,completion,,,,,false,,,,97135,97134,93406,93403,93422,97156,8,400,,,
trial,html.Screen,4_2_0,2023-11-01T16:56:25.907Z,,0,1,,4000,response,ISIC_4034244.JPG,7,ISIC_0069486.JPG,ISIC_0069486.JPG,false,0,keypress(z),500,101140,101139,97139,97135,97156,101173,8,400,3,,ISIC_4034244.JPG
break,html.Screen,4_2_1,2023-11-01T16:56:25.908Z,,0,,,NaN,,,,,,false,,,,101142,101141,,101141,,101173,8,400,,,
break_continue,html.Screen,4_2_2,2023-11-01T16:56:25.909Z,,0,,,NaN,,,,,,false,,,,101142,101142,,101142,,101173,8,400,,,
sequence,flow.Sequence,4_2,2023-11-01T16:56:25.909Z,,0,,,3986,completion,,,,,false,,,,101142,101142,97139,97135,97156,101173,8,400,,,
trial,html.Screen,4_3_0,2023-11-01T16:56:29.671Z,,0,1,,3748,response,ISIC_3292151.JPG,14,ISIC_0029189.JPG,ISIC_0029189.JPG,false,0,keypress(z),500,104905,104904,101156,101143,101173,104940,8,400,4,,ISIC_3292151.JPG
break,html.Screen,4_3_1,2023-11-01T16:56:29.672Z,,0,,,NaN,,,,,,false,,,,104906,104906,,104905,,104940,8,400,,,
break_continue,html.Screen,4_3_2,2023-11-01T16:56:29.673Z,,0,,,NaN,,,,,,false,,,,104907,104907,,104906,,104940,8,400,,,
sequence,flow.Sequence,4_3,2023-11-01T16:56:29.674Z,,0,,,3734,completion,,,,,false,,,,104907,104907,101156,101143,101173,104940,8,400,,,
trial,html.Screen,4_4_0,2023-11-01T16:56:33.640Z,,0,1,,3950,response,ISIC_5518595.JPG,8,ISIC_2467623.JPG,ISIC_2467623.JPG,false,0,keypress(z),500,108874,108873,104923,104907,104940,108906,8,400,5,,ISIC_5518595.JPG
break,html.Screen,4_4_1,2023-11-01T16:56:33.641Z,,0,,,NaN,,,,,,false,,,,108875,108875,,108874,,108906,8,400,,,
break_continue,html.Screen,4_4_2,2023-11-01T16:56:33.642Z,,0,,,NaN,,,,,,false,,,,108876,108876,,108875,,108906,8,400,,,
sequence,flow.Sequence,4_4,2023-11-01T16:56:33.642Z,,0,,,3936,completion,,,,,false,,,,108876,108876,104923,104907,104940,108906,8,400,,,
trial,html.Screen,4_5_0,2023-11-01T16:56:39.332Z,,0,1,,5676,response,ISIC_2266715.JPG,8,ISIC_0072569.JPG,ISIC_2266715.JPG,false,1,keypress(m),500,114566,114565,108889,108876,108906,114589,8,400,6,,ISIC_0072569.JPG
break,html.Screen,4_5_1,2023-11-01T16:56:39.333Z,,0,,,NaN,,,,,,false,,,,114567,114567,,114566,,114589,8,400,,,
break_continue,html.Screen,4_5_2,2023-11-01T16:56:39.334Z,,0,,,NaN,,,,,,false,,,,114567,114567,,114567,,114589,8,400,,,
sequence,flow.Sequence,4_5,2023-11-01T16:56:39.334Z,,0,,,5661,completion,,,,,false,,,,114568,114567,108889,108876,108906,114589,8,400,,,
trial,html.Screen,4_6_0,2023-11-01T16:56:45.620Z,,0,1,,6281,response,ISIC_0067609.JPG,9,ISIC_0032544.JPG,ISIC_0067609.JPG,false,1,keypress(m),500,120854,120854,114573,114568,114589,120890,8,400,7,,ISIC_0032544.JPG
break,html.Screen,4_6_1,2023-11-01T16:56:45.621Z,,0,,,NaN,,,,,,false,,,,120856.00000000001,120855,,120855,,120890,8,400,,,
break_continue,html.Screen,4_6_2,2023-11-01T16:56:45.622Z,,0,,,NaN,,,,,,false,,,,120856.00000000001,120856.00000000001,,120856.00000000001,,120890,8,400,,,
sequence,flow.Sequence,4_6,2023-11-01T16:56:45.622Z,,0,,,6267.000000000015,completion,,,,,false,,,,120857,120856.00000000001,114573,114568,114589,120890,8,400,,,
trial,html.Screen,4_7_0,2023-11-01T16:56:52.608Z,,0,1,,6968.000000000015,response,ISIC_5336548.JPG,11,ISIC_4770073.JPG,ISIC_4770073.JPG,false,0,keypress(z),500,127842,127841.00000000001,120873,120857,120890,127874,8,400,8,,ISIC_5336548.JPG
break,html.Screen,4_7_1,2023-11-01T16:56:52.609Z,,0,,,NaN,,,,,,false,,,,127844.00000000001,127843,,127843,,127874,8,400,,,
break_continue,html.Screen,4_7_2,2023-11-01T16:56:52.610Z,,0,,,NaN,,,,,,false,,,,127844.00000000001,127844.00000000001,,127844.00000000001,,127874,8,400,,,
sequence,flow.Sequence,4_7,2023-11-01T16:56:52.610Z,,0,,,6954.000000000015,completion,,,,,false,,,,127844.00000000001,127844.00000000001,120873,120857,120890,127874,8,400,,,
trial,html.Screen,4_8_0,2023-11-01T16:56:56.043Z,,0,1,,3420.000000000029,response,ISIC_9521776.JPG,7,ISIC_0071707.JPG,ISIC_9521776.JPG,false,1,keypress(m),500,131278,131277.00000000003,127857,127845,127874,131307,8,400,9,,ISIC_0071707.JPG
break,html.Screen,4_8_1,2023-11-01T16:56:56.045Z,,0,,,NaN,,,,,,false,,,,131279,131279,,131278,,131307,8,400,,,
break_continue,html.Screen,4_8_2,2023-11-01T16:56:56.045Z,,0,,,NaN,,,,,,false,,,,131279,131279,,131279,,131307,8,400,,,
sequence,flow.Sequence,4_8,2023-11-01T16:56:56.045Z,,0,,,3405,completion,,,,,false,,,,131280,131279,127857,127845,127874,131307,8,400,,,
trial,html.Screen,4_9_0,2023-11-01T16:57:00.230Z,,0,1,,4174,response,ISIC_0011721.JPG,15,ISIC_6717452.JPG,ISIC_0011721.JPG,false,1,keypress(m),500,135465,135464,131290,131280,131307,135490,8,400,10,,ISIC_6717452.JPG
break,html.Screen,4_9_1,2023-11-01T16:57:00.232Z,,0,,,NaN,,,,,,false,,,,135466,135466,,135465,,135490,8,400,,,
break_continue,html.Screen,4_9_2,2023-11-01T16:57:00.232Z,,0,,,NaN,,,,,,false,,,,135467,135467,,135467,,135490,8,400,,,
sequence,flow.Sequence,4_9,2023-11-01T16:57:00.232Z,,0,,,4160,completion,,,,,false,,,,135467,135467,131290,131280,131307,135490,8,400,,,
trial,html.Screen,4_10_0,2023-11-01T16:57:03.820Z,,0,1,,3580,response,ISIC_1923467.JPG,11,ISIC_0004334.JPG,ISIC_0004334.JPG,false,0,keypress(z),500,139055,139054,135474,135467,135490,139091,8,400,11,,ISIC_1923467.JPG
break,html.Screen,4_10_1,2023-11-01T16:57:03.821Z,,0,,,NaN,,,,,,false,,,,139056,139056,,139055,,139091,8,400,,,
break_continue,html.Screen,4_10_2,2023-11-01T16:57:03.822Z,,0,,,NaN,,,,,,false,,,,139057.00000000003,139056,,139056,,139091,8,400,,,
sequence,flow.Sequence,4_10,2023-11-01T16:57:03.822Z,,0,,,3566,completion,,,,,false,,,,139057.00000000003,139056,135474,135467,135490,139091,8,400,,,
trial,html.Screen,4_11_0,2023-11-01T16:57:10.264Z,,0,1,,6424,response,ISIC_0059808.JPG,10,ISIC_0003201.JPG,ISIC_0059808.JPG,false,1,keypress(m),500,145499,145498,139074,139057.00000000003,139091,145524,8,400,12,,ISIC_0003201.JPG
break,html.Screen,4_11_1,2023-11-01T16:57:10.265Z,,0,,,NaN,,,,,,false,,,,145500,145500,,145499,,145524,8,400,,,
break_continue,html.Screen,4_11_2,2023-11-01T16:57:10.266Z,,0,,,NaN,,,,,,false,,,,145501,145501,,145500,,145524,8,400,,,
sequence,flow.Sequence,4_11,2023-11-01T16:57:10.266Z,,0,,,6410,completion,,,,,false,,,,145501,145501,139074,139057.00000000003,139091,145524,8,400,,,
trial,html.Screen,4_12_0,2023-11-01T16:57:14.131Z,,0,1,,3859,response,ISIC_1809444.JPG,9,ISIC_0059411.JPG,ISIC_1809444.JPG,false,1,keypress(m),500,149367,149366,145507,145501,145524,149391,8,400,13,,ISIC_0059411.JPG
break,html.Screen,4_12_1,2023-11-01T16:57:14.133Z,,0,,,NaN,,,,,,false,,,,149368,149368,,149367,,149391,8,400,,,
break_continue,html.Screen,4_12_2,2023-11-01T16:57:14.133Z,,0,,,NaN,,,,,,false,,,,149368,149368,,149368,,149391,8,400,,,
sequence,flow.Sequence,4_12,2023-11-01T16:57:14.133Z,,0,,,3844,completion,,,,,false,,,,149369,149368,145507,145501,145524,149391,8,400,,,
trial,html.Screen,4_13_0,2023-11-01T16:57:18.457Z,,0,1,,4318,response,ISIC_0072977.JPG,8,ISIC_0946787.JPG,ISIC_0946787.JPG,false,0,keypress(z),500,153693,153692,149374,149369,149391,153725,8,400,14,,ISIC_0072977.JPG
break,html.Screen,4_13_1,2023-11-01T16:57:18.458Z,,0,,,NaN,,,,,,false,,,,153694.00000000003,153694.00000000003,,153693,,153725,8,400,,,
break_continue,html.Screen,4_13_2,2023-11-01T16:57:18.459Z,,0,,,NaN,,,,,,false,,,,153694.00000000003,153694.00000000003,,153694.00000000003,,153725,8,400,,,
sequence,flow.Sequence,4_13,2023-11-01T16:57:18.459Z,,0,,,4303.000000000029,completion,,,,,false,,,,153695,153694.00000000003,149374,149369,149391,153725,8,400,,,
trial,html.Screen,4_14_0,2023-11-01T16:57:22.796Z,,0,1,,4323,response,ISIC_0000135.JPG,6,ISIC_3376976.JPG,ISIC_0000135.JPG,false,1,keypress(m),500,158032,158031,153708,153695,153725,158058,8,400,15,,ISIC_3376976.JPG
break,html.Screen,4_14_1,2023-11-01T16:57:22.798Z,,0,,,NaN,,,,,,false,,,,158033.00000000003,158033.00000000003,,158032,,158058,8,400,,,
break_continue,html.Screen,4_14_2,2023-11-01T16:57:22.798Z,,0,,,NaN,,,,,,false,,,,158034,158033.00000000003,,158033.00000000003,,158058,8,400,,,
sequence,flow.Sequence,4_14,2023-11-01T16:57:22.798Z,,0,,,4308.000000000029,completion,,,,,false,,,,158034,158033.00000000003,153708,153695,153725,158058,8,400,,,
trial,html.Screen,4_15_0,2023-11-01T16:57:26.032Z,,0,1,,3226,response,ISIC_0032094.JPG,4,ISIC_0013984.JPG,ISIC_0013984.JPG,false,0,keypress(z),500,161267,161267,158041,158034,158058,161292,8,400,16,,ISIC_0032094.JPG
break,html.Screen,4_15_1,2023-11-01T16:57:26.033Z,,0,,,NaN,,,,,,false,,,,161269,161268,,161268,,161292,8,400,,,
break_continue,html.Screen,4_15_2,2023-11-01T16:57:26.033Z,,0,,,NaN,,,,,,false,,,,161269,161269,,161269,,161292,8,400,,,
sequence,flow.Sequence,4_15,2023-11-01T16:57:26.034Z,,0,,,3211,completion,,,,,false,,,,161269,161269,158041,158034,158058,161292,8,400,,,
trial,html.Screen,4_16_0,2023-11-01T16:57:29.456Z,,0,1,,3416,response,ISIC_6707990.JPG,7,ISIC_0000401.JPG,ISIC_6707990.JPG,false,1,keypress(m),500,164692,164691,161275,161269,161292,164725,8,400,17,,ISIC_0000401.JPG
break,html.Screen,4_16_1,2023-11-01T16:57:29.457Z,,0,,,NaN,,,,,,false,,,,164693,164693,,164692,,164725,8,400,,,
break_continue,html.Screen,4_16_2,2023-11-01T16:57:29.458Z,,0,,,NaN,,,,,,false,,,,164694.00000000003,164693,,164693,,164725,8,400,,,
sequence,flow.Sequence,4_16,2023-11-01T16:57:29.458Z,,0,,,3401,completion,,,,,false,,,,164694.00000000003,164693,161275,161269,161292,164725,8,400,,,
trial,html.Screen,4_17_0,2023-11-01T16:57:32.445Z,,0,1,,2972,response,ISIC_6299036.JPG,11,ISIC_9950866.JPG,ISIC_9950866.JPG,false,0,keypress(z),500,167681,167680,164708,164694.00000000003,164725,167709,8,400,18,,ISIC_6299036.JPG
break,html.Screen,4_17_1,2023-11-01T16:57:32.446Z,,0,,,NaN,,,,,,false,,,,167682.00000000003,167682.00000000003,,167681,,167709,8,400,,,
break_continue,html.Screen,4_17_2,2023-11-01T16:57:32.446Z,,0,,,NaN,,,,,,false,,,,167682.00000000003,167682.00000000003,,167682.00000000003,,167709,8,400,,,
sequence,flow.Sequence,4_17,2023-11-01T16:57:32.447Z,,0,,,2957.000000000029,completion,,,,,false,,,,167682.00000000003,167682.00000000003,164708,164694.00000000003,164725,167709,8,400,,,
trial,html.Screen,4_18_0,2023-11-01T16:57:37.602Z,,0,1,,5147,response,ISIC_1674754.JPG,10,ISIC_0027764.JPG,ISIC_0027764.JPG,false,0,keypress(z),500,172839,172838,167691,167683,167709,172876,8,400,19,,ISIC_1674754.JPG
break,html.Screen,4_18_1,2023-11-01T16:57:37.604Z,,0,,,NaN,,,,,,false,,,,172840,172840,,172839,,172876,8,400,,,
break_continue,html.Screen,4_18_2,2023-11-01T16:57:37.604Z,,0,,,NaN,,,,,,false,,,,172841,172840,,172840,,172876,8,400,,,
sequence,flow.Sequence,4_18,2023-11-01T16:57:37.605Z,,0,,,5131,completion,,,,,false,,,,172841,172840,167691,167683,167709,172876,8,400,,,
trial,html.Screen,4_19_0,2023-11-01T16:57:41.002Z,,0,1,,3378,response,ISIC_4099428.JPG,11,ISIC_9049170.JPG,ISIC_9049170.JPG,false,0,keypress(z),500,176238,176237,172859,172841,172876,176276,8,400,20,,ISIC_4099428.JPG
break,html.Screen,4_19_1,2023-11-01T16:57:41.003Z,,0,,,NaN,,,,,,false,,,,176239,176239,,176238,,176276,8,400,,,
break_continue,html.Screen,4_19_2,2023-11-01T16:57:41.004Z,,0,,,NaN,,,,,,false,,,,176240,176239,,176239,,176276,8,400,,,
sequence,flow.Sequence,4_19,2023-11-01T16:57:41.004Z,,0,,,3363,completion,,,,,false,,,,176240,176239,172859,172841,172876,176276,8,400,,,
trial,html.Screen,4_20_0,2023-11-01T16:57:49.116Z,,0,1,,8093,response,ISIC_1603834.JPG,2,ISIC_0064318.JPG,ISIC_1603834.JPG,false,1,keypress(m),500,184353,184352,176259,176240,176276,184376,8,400,21,,ISIC_0064318.JPG
break,html.Screen,4_20_1,2023-11-01T16:57:49.118Z,,0,,,NaN,,,,,,false,,,,184354,184354,,184353,,184376,8,400,,,
break_continue,html.Screen,4_20_2,2023-11-01T16:57:49.118Z,,0,,,NaN,,,,,,false,,,,184355,184355,,184355,,184376,8,400,,,
sequence,flow.Sequence,4_20,2023-11-01T16:57:49.119Z,,0,,,8079,completion,,,,,false,,,,184355,184355,176259,176240,176276,184376,8,400,,,
trial,html.Screen,4_21_0,2023-11-01T16:57:54.262Z,,0,1,,5139,response,ISIC_0014657.JPG,15,ISIC_5476463.JPG,ISIC_5476463.JPG,false,0,keypress(z),500,189499,189498,184359,184355,184376,189526,8,400,22,,ISIC_0014657.JPG
break,html.Screen,4_21_1,2023-11-01T16:57:54.263Z,,0,,,NaN,,,,,,false,,,,189500,189500,,189499,,189526,8,400,,,
break_continue,html.Screen,4_21_2,2023-11-01T16:57:54.263Z,,0,,,NaN,,,,,,false,,,,189500,189500,,189500,,189526,8,400,,,
sequence,flow.Sequence,4_21,2023-11-01T16:57:54.264Z,,0,,,5124,completion,,,,,false,,,,189500,189500,184359,184355,184376,189526,8,400,,,
trial,html.Screen,4_22_0,2023-11-01T16:57:58.745Z,,0,1,,4472,response,ISIC_7583134.JPG,12,ISIC_0002295.JPG,ISIC_7583134.JPG,false,1,keypress(m),500,193982,193981,189509,189500,189526,194009,8,400,23,,ISIC_0002295.JPG
break,html.Screen,4_22_1,2023-11-01T16:57:58.746Z,,0,,,NaN,,,,,,false,,,,193983,193983,,193982,,194009,8,400,,,
break_continue,html.Screen,4_22_2,2023-11-01T16:57:58.747Z,,0,,,NaN,,,,,,false,,,,193984,193983,,193983,,194009,8,400,,,
sequence,flow.Sequence,4_22,2023-11-01T16:57:58.747Z,,0,,,4457,completion,,,,,false,,,,193984,193983,189509,189500,189526,194009,8,400,,,
trial,html.Screen,4_23_0,2023-11-01T16:58:03.153Z,,0,1,,4396,response,ISIC_1195689.JPG,7,ISIC_6289346.JPG,ISIC_1195689.JPG,false,1,keypress(m),500,198390.00000000003,198389,193993,193984,194009,198426,8,400,24,,ISIC_6289346.JPG
break,html.Screen,4_23_1,2023-11-01T16:58:03.154Z,,0,,,NaN,,,,,,false,,,,198391,198391,,198390.00000000003,,198426,8,400,,,
break_continue,html.Screen,4_23_2,2023-11-01T16:58:03.155Z,,0,,,NaN,,,,,,false,,,,198392,198392,,198392,,198426,8,400,,,
sequence,flow.Sequence,4_23,2023-11-01T16:58:03.155Z,,0,,,4383,completion,,,,,false,,,,198392,198392,193993,193984,194009,198426,8,400,,,
trial,html.Screen,4_24_0,2023-11-01T16:58:12.697Z,,0,1,,9525,response,ISIC_5367118.JPG,9,ISIC_4980656.JPG,ISIC_5367118.JPG,false,1,keypress(m),500,207935,207934,198409,198392,198426,207960,8,400,25,,ISIC_4980656.JPG
break,html.Screen,4_24_1,2023-11-01T16:58:12.699Z,,0,,,NaN,,,,,,false,,,,207936,207936,,207935,,207960,8,400,,,
break_continue,html.Screen,4_24_2,2023-11-01T16:58:12.699Z,,0,,,NaN,,,,,,false,,,,207936,207936,,207936,,207960,8,400,,,
sequence,flow.Sequence,4_24,2023-11-01T16:58:12.699Z,,0,,,9510,completion,,,,,false,,,,207936,207936,198409,198392,198426,207960,8,400,,,
trial,html.Screen,4_25_0,2023-11-01T16:58:20.330Z,,0,1,,7624,response,ISIC_2797576.JPG,9,ISIC_9142818.JPG,ISIC_2797576.JPG,false,1,keypress(m),500,215567,215567,207943,207937,207960,215593,8,400,26,,ISIC_9142818.JPG
break,html.Screen,4_25_1,2023-11-01T16:58:20.331Z,,0,,,NaN,,,,,,false,,,,215568,215568,,215568,,215593,8,400,,,
break_continue,html.Screen,4_25_2,2023-11-01T16:58:20.331Z,,0,,,NaN,,,,,,false,,,,215569.00000000003,215569.00000000003,,215569.00000000003,,215593,8,400,,,
sequence,flow.Sequence,4_25,2023-11-01T16:58:20.331Z,,0,,,7609.000000000029,completion,,,,,false,,,,215569.00000000003,215569.00000000003,207943,207937,207960,215593,8,400,,,
trial,html.Screen,4_26_0,2023-11-01T16:58:25.292Z,,0,1,,4953,response,ISIC_2728024.JPG,8,ISIC_0054568.JPG,ISIC_0054568.JPG,false,0,keypress(z),500,220530,220530,215577,215569.00000000003,215593,220561,8,400,27,,ISIC_2728024.JPG
break,html.Screen,4_26_1,2023-11-01T16:58:25.294Z,,0,,,NaN,,,,,,false,,,,220531,220531,,220531,,220561,8,400,,,
break_continue,html.Screen,4_26_2,2023-11-01T16:58:25.294Z,,0,,,NaN,,,,,,false,,,,220532,220532,,220532,,220561,8,400,,,
sequence,flow.Sequence,4_26,2023-11-01T16:58:25.294Z,,0,,,4939,completion,,,,,false,,,,220532,220532,215577,215569.00000000003,215593,220561,8,400,,,
trial,html.Screen,4_27_0,2023-11-01T16:58:30.662Z,,0,1,,5355,response,ISIC_0031517.JPG,6,ISIC_0010397.JPG,ISIC_0010397.JPG,false,0,keypress(z),500,225900,225899,220544,220532,220561,225927,8,400,28,,ISIC_0031517.JPG
break,html.Screen,4_27_1,2023-11-01T16:58:30.663Z,,0,,,NaN,,,,,,false,,,,225901,225901,,225900,,225927,8,400,,,
break_continue,html.Screen,4_27_2,2023-11-01T16:58:30.663Z,,0,,,NaN,,,,,,false,,,,225901,225901,,225901,,225927,8,400,,,
sequence,flow.Sequence,4_27,2023-11-01T16:58:30.664Z,,0,,,5340,completion,,,,,false,,,,225902.00000000003,225901,220544,220532,220561,225927,8,400,,,
trial,html.Screen,4_28_0,2023-11-01T16:58:36.673Z,,0,1,,6001,response,ISIC_3389704.JPG,12,ISIC_0012450.JPG,ISIC_0012450.JPG,false,0,keypress(z),500,231911,231911,225910,225902.00000000003,225927,231944,8,400,29,,ISIC_3389704.JPG
break,html.Screen,4_28_1,2023-11-01T16:58:36.674Z,,0,,,NaN,,,,,,false,,,,231913,231912,,231912,,231944,8,400,,,
break_continue,html.Screen,4_28_2,2023-11-01T16:58:36.675Z,,0,,,NaN,,,,,,false,,,,231913,231913,,231913,,231944,8,400,,,
sequence,flow.Sequence,4_28,2023-11-01T16:58:36.675Z,,0,,,5986,completion,,,,,false,,,,231913,231913,225910,225902.00000000003,225927,231944,8,400,,,
trial,html.Screen,4_29_0,2023-11-01T16:58:43.276Z,,0,1,,6587,response,ISIC_0001101.JPG,9,ISIC_0067808.JPG,ISIC_0067808.JPG,false,0,keypress(z),500,238514,238514,231927,231914.00000000003,231944,238544,8,400,30,,ISIC_0001101.JPG
break,html.Screen,4_29_1,2023-11-01T16:58:43.277Z,,0,,,NaN,,,,,,false,,,,238516,238515.00000000003,,238515.00000000003,,238544,8,400,,,
break_continue,html.Screen,4_29_2,2023-11-01T16:58:43.277Z,,0,,,NaN,,,,,,false,,,,238516,238516,,238516,,238544,8,400,,,
sequence,flow.Sequence,4_29,2023-11-01T16:58:43.278Z,,0,,,6572,completion,,,,,false,,,,238516,238516,231927,231913,231944,238544,8,400,,,
trial,html.Screen,4_30_0,2023-11-01T16:58:49.427Z,,0,1,,6138,response,ISIC_0071901.JPG,9,ISIC_2946577.JPG,ISIC_0071901.JPG,false,1,keypress(m),500,244666,244665,238527,238516,238544,244695,8,400,31,,ISIC_2946577.JPG
break,html.Screen,4_30_1,2023-11-01T16:58:49.428Z,,0,,,NaN,,,,,,false,,,,244667,244667,,244666,,244695,8,400,,,
break_continue,html.Screen,4_30_2,2023-11-01T16:58:49.428Z,,0,,,NaN,,,,,,false,,,,244667,244667,,244667,,244695,8,400,,,
sequence,flow.Sequence,4_30,2023-11-01T16:58:49.429Z,,0,,,6123,completion,,,,,false,,,,244667,244667,238527,238516,238544,244695,8,400,,,
trial,html.Screen,4_31_0,2023-11-01T16:58:54.111Z,,0,1,,4672,response,ISIC_0030845.JPG,11,ISIC_0057059.JPG,ISIC_0057059.JPG,false,0,keypress(z),500,249350,249350,244678,244667,244695,249378,8,400,32,,ISIC_0030845.JPG
break,html.Screen,4_31_1,2023-11-01T16:58:54.112Z,,0,,,NaN,,,,,,false,,,,249351,249351,,249350,,249378,8,400,,,
break_continue,html.Screen,4_31_2,2023-11-01T16:58:54.113Z,,0,,,NaN,,,,,,false,,,,249352,249352,,249352,,249378,8,400,,,
sequence,flow.Sequence,4_31,2023-11-01T16:58:54.113Z,,0,,,4657,completion,,,,,false,,,,249352,249352,244678,244667,244695,249378,8,400,,,
trial,html.Screen,4_32_0,2023-11-01T16:58:58.295Z,,0,1,,4172,response,ISIC_2482061.JPG,8,ISIC_0068905.JPG,ISIC_2482061.JPG,false,1,keypress(m),500,253534,253534,249362,249352,249378,253561,8,400,33,,ISIC_0068905.JPG
break,html.Screen,4_32_1,2023-11-01T16:58:58.296Z,,0,,,NaN,,,,,,false,,,,253535,253535,,253535,,253561,8,400,,,
break_continue,html.Screen,4_32_2,2023-11-01T16:58:58.297Z,,0,,,NaN,,,,,,false,,,,253536,253536,,253536,,253561,8,400,,,
sequence,flow.Sequence,4_32,2023-11-01T16:58:58.297Z,,0,,,4158,completion,,,,,false,,,,253536,253536,249362,249352,249378,253561,8,400,,,
trial,html.Screen,4_33_0,2023-11-01T16:59:02.799Z,,0,1,,4493,response,ISIC_3585381.JPG,6,ISIC_8588957.JPG,ISIC_8588957.JPG,false,0,keypress(z),500,258038,258038,253545,253536,253561,258062,8,400,34,,ISIC_3585381.JPG
break,html.Screen,4_33_1,2023-11-01T16:59:02.800Z,,0,,,NaN,,,,,,false,,,,258040.00000000003,258039,,258039,,258062,8,400,,,
break_continue,html.Screen,4_33_2,2023-11-01T16:59:02.801Z,,0,,,NaN,,,,,,false,,,,258040.00000000003,258040.00000000003,,258040.00000000003,,258062,8,400,,,
sequence,flow.Sequence,4_33,2023-11-01T16:59:02.801Z,,0,,,4479.000000000029,completion,,,,,false,,,,258040.00000000003,258040.00000000003,253545,253536,253561,258062,8,400,,,
trial,html.Screen,4_34_0,2023-11-01T16:59:07.687Z,,0,1,,4882,response,ISIC_0029863.JPG,7,ISIC_0071869.JPG,ISIC_0029863.JPG,false,1,keypress(m),500,262926,262926,258044,258041,258062,262962,8,400,35,,ISIC_0071869.JPG
break,html.Screen,4_34_1,2023-11-01T16:59:07.688Z,,0,,,NaN,,,,,,false,,,,262927,262927,,262926,,262962,8,400,,,
break_continue,html.Screen,4_34_2,2023-11-01T16:59:07.689Z,,0,,,NaN,,,,,,false,,,,262928,262928,,262928,,262962,8,400,,,
sequence,flow.Sequence,4_34,2023-11-01T16:59:07.689Z,,0,,,4866,completion,,,,,false,,,,262928,262928,258044,258041,258062,262962,8,400,,,
trial,html.Screen,4_35_0,2023-11-01T16:59:11.349Z,,0,1,,3643,response,ISIC_7448231.JPG,0,ISIC_1922084.JPG,ISIC_7448231.JPG,false,1,keypress(m),500,266589,266588,262945,262928,262962,266612,8,400,36,,ISIC_1922084.JPG
break,html.Screen,4_35_1,2023-11-01T16:59:11.351Z,,0,,,NaN,,,,,,false,,,,266590.00000000006,266590.00000000006,,266589,,266612,8,400,,,
break_continue,html.Screen,4_35_2,2023-11-01T16:59:11.351Z,,0,,,NaN,,,,,,false,,,,266591,266590.00000000006,,266590.00000000006,,266612,8,400,,,
sequence,flow.Sequence,4_35,2023-11-01T16:59:11.351Z,,0,,,3628.000000000058,completion,,,,,false,,,,266591,266590.00000000006,262945,262928,262962,266612,8,400,,,
trial,html.Screen,4_36_0,2023-11-01T16:59:15.046Z,,0,1,,3690,response,ISIC_7164403.JPG,6,ISIC_8796968.JPG,ISIC_7164403.JPG,false,1,keypress(m),500,270286,270285,266595,266591,266612,270312,8,400,37,,ISIC_8796968.JPG
break,html.Screen,4_36_1,2023-11-01T16:59:15.047Z,,0,,,NaN,,,,,,false,,,,270287,270287,,270286,,270312,8,400,,,
break_continue,html.Screen,4_36_2,2023-11-01T16:59:15.047Z,,0,,,NaN,,,,,,false,,,,270287,270287,,270287,,270312,8,400,,,
sequence,flow.Sequence,4_36,2023-11-01T16:59:15.048Z,,0,,,3675,completion,,,,,false,,,,270287,270287,266595,266591,266612,270312,8,400,,,
trial,html.Screen,4_37_0,2023-11-01T16:59:18.534Z,,0,1,,3477,response,ISIC_0000022.JPG,7,ISIC_9232153.JPG,ISIC_9232153.JPG,false,0,keypress(z),500,273773,273773,270296,270288,270312,273797,8,400,38,,ISIC_0000022.JPG
break,html.Screen,4_37_1,2023-11-01T16:59:18.535Z,,0,,,NaN,,,,,,false,,,,273775.00000000006,273774,,273774,,273797,8,400,,,
break_continue,html.Screen,4_37_2,2023-11-01T16:59:18.535Z,,0,,,NaN,,,,,,false,,,,273775.00000000006,273775.00000000006,,273775.00000000006,,273797,8,400,,,
sequence,flow.Sequence,4_37,2023-11-01T16:59:18.536Z,,0,,,3463.000000000058,completion,,,,,false,,,,273775.00000000006,273775.00000000006,270296,270287,270312,273797,8,400,,,
trial,html.Screen,4_38_0,2023-11-01T16:59:21.633Z,,0,1,,3094,response,ISIC_0010350.JPG,2,ISIC_4856536.JPG,ISIC_0010350.JPG,false,1,keypress(m),500,276873,276873,273779,273776,273797,276896,8,400,39,,ISIC_4856536.JPG
break,html.Screen,4_38_1,2023-11-01T16:59:21.634Z,,0,,,NaN,,,,,,false,,,,276874,276874,,276874,,276896,8,400,,,
break_continue,html.Screen,4_38_2,2023-11-01T16:59:21.635Z,,0,,,NaN,,,,,,false,,,,276875,276875,,276875,,276896,8,400,,,
sequence,flow.Sequence,4_38,2023-11-01T16:59:21.635Z,,0,,,3078,completion,,,,,false,,,,276875,276875,273779,273776,273797,276896,8,400,,,
trial,html.Screen,4_39_0,2023-11-01T16:59:25.699Z,,0,1,,4060,response,ISIC_1490986.JPG,8,ISIC_0026236.JPG,ISIC_1490986.JPG,false,1,keypress(m),500,280939,280939,276879,276875,276896,280963,8,400,40,,ISIC_0026236.JPG
break,html.Screen,4_39_1,2023-11-01T16:59:25.701Z,,0,,,NaN,,,,,,false,,,,280941.00000000006,280940,,280940,,280963,8,400,,,
break_continue,html.Screen,4_39_2,2023-11-01T16:59:25.701Z,,0,,,NaN,,,,,,false,,,,280941.00000000006,280941.00000000006,,280941.00000000006,,280963,8,400,,,
sequence,flow.Sequence,4_39,2023-11-01T16:59:25.701Z,,0,,,4045.000000000058,completion,,,,,false,,,,280941.00000000006,280941.00000000006,276879,276875,276896,280963,8,400,,,
trial,html.Screen,4_40_0,2023-11-01T16:59:29.029Z,,0,1,,3322,response,ISIC_0031517.JPG,5,ISIC_0033024.JPG,ISIC_0031517.JPG,false,1,keypress(m),500,284269,284268,280946,280941.00000000006,280963,284296,8,400,41,,ISIC_0033024.JPG
break,html.Screen,4_40_1,2023-11-01T16:59:29.029Z,,0,,,NaN,,,,,,false,,,,284270,284270,,284269,,284296,8,400,,,
break_continue,html.Screen,4_40_2,2023-11-01T16:59:29.030Z,,0,,,NaN,,,,,,false,,,,284270,284270,,284270,,284296,8,400,,,
sequence,flow.Sequence,4_40,2023-11-01T16:59:29.030Z,,0,,,3307,completion,,,,,false,,,,284270,284270,280946,280941.00000000006,280963,284296,8,400,,,
trial,html.Screen,4_41_0,2023-11-01T16:59:32.777Z,,0,1,,3736,response,ISIC_2337650.JPG,4,ISIC_0011114.JPG,ISIC_2337650.JPG,false,1,keypress(m),500,288017,288016,284280,284270,284296,288046,8,400,42,,ISIC_0011114.JPG
break,html.Screen,4_41_1,2023-11-01T16:59:32.778Z,,0,,,NaN,,,,,,false,,,,288018,288018,,288017,,288046,8,400,,,
break_continue,html.Screen,4_41_2,2023-11-01T16:59:32.778Z,,0,,,NaN,,,,,,false,,,,288018,288018,,288018,,288046,8,400,,,
sequence,flow.Sequence,4_41,2023-11-01T16:59:32.778Z,,0,,,3722,completion,,,,,false,,,,288019,288018,284280,284270,284296,288046,8,400,,,
trial,html.Screen,4_42_0,2023-11-01T16:59:37.092Z,,0,1,,4302,response,ISIC_3826001.JPG,6,ISIC_0009791.JPG,ISIC_0009791.JPG,false,0,keypress(z),500,292332,292332,288030,288019,288046,292363,8,400,43,,ISIC_3826001.JPG
break,html.Screen,4_42_1,2023-11-01T16:59:37.093Z,,0,,,NaN,,,,,,false,,,,292333,292333,,292332,,292363,8,400,,,
break_continue,html.Screen,4_42_2,2023-11-01T16:59:37.093Z,,0,,,NaN,,,,,,false,,,,292334,292334,,292333,,292363,8,400,,,
sequence,flow.Sequence,4_42,2023-11-01T16:59:37.093Z,,0,,,4288,completion,,,,,false,,,,292334,292334,288030,288019,288046,292363,8,400,,,
trial,html.Screen,4_43_0,2023-11-01T16:59:41.026Z,,0,1,,3920,response,ISIC_6771810.JPG,4,ISIC_0026699.JPG,ISIC_6771810.JPG,false,1,keypress(m),500,296266,296266,292346,292334,292363,296297,8,400,44,,ISIC_0026699.JPG
break,html.Screen,4_43_1,2023-11-01T16:59:41.027Z,,0,,,NaN,,,,,,false,,,,296268,296267,,296266,,296297,8,400,,,
break_continue,html.Screen,4_43_2,2023-11-01T16:59:41.027Z,,0,,,NaN,,,,,,false,,,,296268,296268,,296268,,296297,8,400,,,
sequence,flow.Sequence,4_43,2023-11-01T16:59:41.028Z,,0,,,3905,completion,,,,,false,,,,296268,296268,292346,292334,292363,296297,8,400,,,
trial,html.Screen,4_44_0,2023-11-01T16:59:44.823Z,,0,1,,3784,response,ISIC_9048840.JPG,6,ISIC_3188062.JPG,ISIC_9048840.JPG,false,1,keypress(m),500,300064,300064,296280,296268,296297,300097,8,400,45,,ISIC_3188062.JPG
break,html.Screen,4_44_1,2023-11-01T16:59:44.825Z,,0,,,NaN,,,,,,false,,,,300065,300065,,300064,,300097,8,400,,,
break_continue,html.Screen,4_44_2,2023-11-01T16:59:44.825Z,,0,,,NaN,,,,,,false,,,,300066.00000000006,300066.00000000006,,300065,,300097,8,400,,,
sequence,flow.Sequence,4_44,2023-11-01T16:59:44.825Z,,0,,,3769.000000000058,completion,,,,,false,,,,300066.00000000006,300066.00000000006,296280,296268,296297,300097,8,400,,,
trial,html.Screen,4_45_0,2023-11-01T16:59:48.849Z,,0,1,,4010.000000000058,response,ISIC_0011097.JPG,7,ISIC_0028366.JPG,ISIC_0011097.JPG,false,1,keypress(m),500,304090.00000000006,304090.00000000006,300080,300066.00000000006,300097,304113,8,400,46,,ISIC_0028366.JPG
break,html.Screen,4_45_1,2023-11-01T16:59:48.851Z,,0,,,NaN,,,,,,false,,,,304092,304091,,304091,,304113,8,400,,,
break_continue,html.Screen,4_45_2,2023-11-01T16:59:48.851Z,,0,,,NaN,,,,,,false,,,,304092,304092,,304092,,304113,8,400,,,
sequence,flow.Sequence,4_45,2023-11-01T16:59:48.851Z,,0,,,3995,completion,,,,,false,,,,304092,304092,300080,300066.00000000006,300097,304113,8,400,,,
trial,html.Screen,4_46_0,2023-11-01T16:59:55.350Z,,0,1,,6494.000000000058,response,ISIC_0012810.JPG,7,ISIC_0033027.JPG,ISIC_0012810.JPG,false,1,keypress(m),500,310591,310590.00000000006,304096,304092,304113,310614,8,400,47,,ISIC_0033027.JPG
break,html.Screen,4_46_1,2023-11-01T16:59:55.351Z,,0,,,NaN,,,,,,false,,,,310592,310592,,310591,,310614,8,400,,,
break_continue,html.Screen,4_46_2,2023-11-01T16:59:55.351Z,,0,,,NaN,,,,,,false,,,,310592,310592,,310592,,310614,8,400,,,
sequence,flow.Sequence,4_46,2023-11-01T16:59:55.351Z,,0,,,6479,completion,,,,,false,,,,310593,310592,304096,304092,304113,310614,8,400,,,
trial,html.Screen,4_47_0,2023-11-01T17:00:00.272Z,,0,1,,4915,response,ISIC_6089318.JPG,7,ISIC_0058837.JPG,ISIC_0058837.JPG,false,0,keypress(z),500,315513.00000000006,315512,310597,310593,310614,315547,8,400,48,,ISIC_6089318.JPG
break,html.Screen,4_47_1,2023-11-01T17:00:00.273Z,,0,,,NaN,,,,,,false,,,,315514,315514,,315513.00000000006,,315547,8,400,,,
break_continue,html.Screen,4_47_2,2023-11-01T17:00:00.273Z,,0,,,NaN,,,,,,false,,,,315514,315514,,315514,,315547,8,400,,,
sequence,flow.Sequence,4_47,2023-11-01T17:00:00.273Z,,0,,,4900,completion,,,,,false,,,,315515,315514,310597,310593,310614,315547,8,400,,,
trial,html.Screen,4_48_0,2023-11-01T17:00:04.455Z,,0,1,,4165,response,ISIC_0010778.JPG,11,ISIC_1193108.JPG,ISIC_1193108.JPG,false,0,keypress(z),500,319696,319696,315531,315515,315547,319730,8,400,49,,ISIC_0010778.JPG
break,html.Screen,4_48_1,2023-11-01T17:00:04.456Z,,0,,,NaN,,,,,,false,,,,319698,319697,,319697,,319730,8,400,,,
break_continue,html.Screen,4_48_2,2023-11-01T17:00:04.456Z,,0,,,NaN,,,,,,false,,,,319698,319698,,319698,,319730,8,400,,,
sequence,flow.Sequence,4_48,2023-11-01T17:00:04.457Z,,0,,,4151,completion,,,,,false,,,,319698,319698,315531,315515,315547,319730,8,400,,,
trial,html.Screen,4_49_0,2023-11-01T17:00:09.477Z,,0,1,,5004,response,ISIC_0025015.JPG,11,ISIC_0053686.JPG,ISIC_0025015.JPG,false,1,keypress(m),500,324719,324718,319714,319698,319730,324747,8,400,50,,ISIC_0053686.JPG
break,html.Screen,4_49_1,2023-11-01T17:00:19.490Z,,0,,,10000,timeout,,,,,false,,,,334732,334731,324731,324719,324747,334747,8,400,,,
break_continue,html.Screen,4_49_2,2023-11-01T17:00:55.042Z,,0,,,35564,response,,,,,false,continue,keypress(Space),,370285,370295,334731,334732,334747,370316,8,400,,,
sequence,flow.Sequence,4_49,2023-11-01T17:00:55.042Z,,0,,,50565,completion,,,,,false,,,,370285,370295,319714,319698,319730,370316,8,400,,,
trial,html.Screen,4_50_0,2023-11-01T17:00:59.973Z,,0,2,,4917,response,ISIC_0012055.JPG,3,ISIC_0070032.JPG,ISIC_0070032.JPG,false,0,keypress(z),500,375216,375216,370299,370286,370316,375249,8,400,1,,ISIC_0012055.JPG
break,html.Screen,4_50_1,2023-11-01T17:00:59.974Z,,0,,,NaN,,,,,,false,,,,375218,375217,,375217,,375249,8,400,,,
break_continue,html.Screen,4_50_2,2023-11-01T17:00:59.975Z,,0,,,NaN,,,,,,false,,,,375218,375218,,375218,,375249,8,400,,,
sequence,flow.Sequence,4_50,2023-11-01T17:00:59.975Z,,0,,,4902,completion,,,,,false,,,,375218,375218,370299,370285,370316,375249,8,400,,,
trial,html.Screen,4_51_0,2023-11-01T17:01:04.185Z,,0,2,,4195,response,ISIC_9101055.JPG,6,ISIC_0010241.JPG,ISIC_9101055.JPG,false,1,keypress(m),500,379429.00000000006,379428,375233,375219,375249,379465,8,400,2,,ISIC_0010241.JPG
break,html.Screen,4_51_1,2023-11-01T17:01:04.187Z,,0,,,NaN,,,,,,false,,,,379430,379430,,379429.00000000006,,379465,8,400,,,
break_continue,html.Screen,4_51_2,2023-11-01T17:01:04.187Z,,0,,,NaN,,,,,,false,,,,379431,379431,,379430,,379465,8,400,,,
sequence,flow.Sequence,4_51,2023-11-01T17:01:04.187Z,,0,,,4182,completion,,,,,false,,,,379431,379431,375233,375218,375249,379465,8,400,,,
trial,html.Screen,4_52_0,2023-11-01T17:01:07.712Z,,0,2,,3506,response,ISIC_0028906.JPG,10,ISIC_6731470.JPG,ISIC_0028906.JPG,false,1,keypress(m),500,382956,382956,379450,379431,379465,382983,8,400,3,,ISIC_6731470.JPG
break,html.Screen,4_52_1,2023-11-01T17:01:07.714Z,,0,,,NaN,,,,,,false,,,,382958,382957,,382956,,382983,8,400,,,
break_continue,html.Screen,4_52_2,2023-11-01T17:01:07.714Z,,0,,,NaN,,,,,,false,,,,382958,382958,,382958,,382983,8,400,,,
sequence,flow.Sequence,4_52,2023-11-01T17:01:07.715Z,,0,,,3493,completion,,,,,false,,,,382958,382958,379450,379431,379465,382983,8,400,,,
trial,html.Screen,4_53_0,2023-11-01T17:01:11.676Z,,0,2,,3954,response,ISIC_0056784.JPG,10,ISIC_2987613.JPG,ISIC_0056784.JPG,false,1,keypress(m),500,386920,386920,382966,382959,382983,386950,8,400,4,,ISIC_2987613.JPG
break,html.Screen,4_53_1,2023-11-01T17:01:11.678Z,,0,,,NaN,,,,,,false,,,,386922,386921,,386921,,386950,8,400,,,
break_continue,html.Screen,4_53_2,2023-11-01T17:01:11.678Z,,0,,,NaN,,,,,,false,,,,386922,386922,,386922,,386950,8,400,,,
sequence,flow.Sequence,4_53,2023-11-01T17:01:11.678Z,,0,,,3939,completion,,,,,false,,,,386922,386922,382966,382959,382983,386950,8,400,,,
trial,html.Screen,4_54_0,2023-11-01T17:01:15.617Z,,0,2,,3927,response,ISIC_0014423.JPG,6,ISIC_5821131.JPG,ISIC_5821131.JPG,false,0,keypress(z),500,390861,390860,386933,386923,386950,390883,8,400,5,,ISIC_0014423.JPG
break,html.Screen,4_54_1,2023-11-01T17:01:15.618Z,,0,,,NaN,,,,,,false,,,,390862,390862,,390861,,390883,8,400,,,
break_continue,html.Screen,4_54_2,2023-11-01T17:01:15.618Z,,0,,,NaN,,,,,,false,,,,390862,390862,,390862,,390883,8,400,,,
sequence,flow.Sequence,4_54,2023-11-01T17:01:15.619Z,,0,,,3912,completion,,,,,false,,,,390863,390862,386933,386922,386950,390883,8,400,,,
trial,html.Screen,4_55_0,2023-11-01T17:01:19.345Z,,0,2,,3723,response,ISIC_0031304.JPG,5,ISIC_8618835.JPG,ISIC_0031304.JPG,false,1,keypress(m),500,394590.00000000006,394589,390866,390863,390883,394617,8,400,6,,ISIC_8618835.JPG
break,html.Screen,4_55_1,2023-11-01T17:01:19.347Z,,0,,,NaN,,,,,,false,,,,394591,394591,,394590.00000000006,,394617,8,400,,,
break_continue,html.Screen,4_55_2,2023-11-01T17:01:19.347Z,,0,,,NaN,,,,,,false,,,,394591,394591,,394591,,394617,8,400,,,
sequence,flow.Sequence,4_55,2023-11-01T17:01:19.347Z,,0,,,3708,completion,,,,,false,,,,394592,394591,390866,390863,390883,394617,8,400,,,
trial,html.Screen,4_56_0,2023-11-01T17:01:24.184Z,,0,2,,4828,response,ISIC_0595080.JPG,11,ISIC_0011507.JPG,ISIC_0595080.JPG,false,1,keypress(m),500,399429.00000000006,399428,394600,394592,394617,399466,8,400,7,,ISIC_0011507.JPG
break,html.Screen,4_56_1,2023-11-01T17:01:24.186Z,,0,,,NaN,,,,,,false,,,,399430,399430,,399429.00000000006,,399466,8,400,,,
break_continue,html.Screen,4_56_2,2023-11-01T17:01:24.186Z,,0,,,NaN,,,,,,false,,,,399431,399430,,399430,,399466,8,400,,,
sequence,flow.Sequence,4_56,2023-11-01T17:01:24.186Z,,0,,,4813,completion,,,,,false,,,,399431,399430,394600,394592,394617,399466,8,400,,,
trial,html.Screen,4_57_0,2023-11-01T17:01:29.130Z,,0,2,,4923,response,ISIC_7789452.JPG,4,ISIC_8287726.JPG,ISIC_8287726.JPG,false,0,keypress(z),500,404374,404373,399450,399431,399466,404401,8,400,8,,ISIC_7789452.JPG
break,html.Screen,4_57_1,2023-11-01T17:01:29.131Z,,0,,,NaN,,,,,,false,,,,404375,404375,,404374,,404401,8,400,,,
break_continue,html.Screen,4_57_2,2023-11-01T17:01:29.131Z,,0,,,NaN,,,,,,false,,,,404376.00000000006,404376.00000000006,,404375,,404401,8,400,,,
sequence,flow.Sequence,4_57,2023-11-01T17:01:29.131Z,,0,,,4910.000000000058,completion,,,,,false,,,,404376.00000000006,404376.00000000006,399450,399431,399466,404401,8,400,,,
trial,html.Screen,4_58_0,2023-11-01T17:01:32.732Z,,0,2,,3593.000000000058,response,ISIC_3651451.JPG,7,ISIC_0024701.JPG,ISIC_3651451.JPG,false,1,keypress(m),500,407977.00000000006,407977.00000000006,404384,404376.00000000006,404401,408001,8,400,9,,ISIC_0024701.JPG
break,html.Screen,4_58_1,2023-11-01T17:01:32.734Z,,0,,,NaN,,,,,,false,,,,407978,407978,,407977.00000000006,,408001,8,400,,,
break_continue,html.Screen,4_58_2,2023-11-01T17:01:32.734Z,,0,,,NaN,,,,,,false,,,,407979,407979,,407978,,408001,8,400,,,
sequence,flow.Sequence,4_58,2023-11-01T17:01:32.734Z,,0,,,3578,completion,,,,,false,,,,407979,407979,404384,404376.00000000006,404401,408001,8,400,,,
trial,html.Screen,4_59_0,2023-11-01T17:01:36.426Z,,0,2,,3687,response,ISIC_0027350.JPG,5,ISIC_0005062.JPG,ISIC_0005062.JPG,false,0,keypress(z),500,411671,411670,407983,407979,408001,411701,8,400,10,,ISIC_0027350.JPG
break,html.Screen,4_59_1,2023-11-01T17:01:36.427Z,,0,,,NaN,,,,,,false,,,,411672,411672,,411671,,411701,8,400,,,
break_continue,html.Screen,4_59_2,2023-11-01T17:01:36.427Z,,0,,,NaN,,,,,,false,,,,411672,411672,,411672,,411701,8,400,,,
sequence,flow.Sequence,4_59,2023-11-01T17:01:36.428Z,,0,,,3671,completion,,,,,false,,,,411673,411672,407983,407979,408001,411701,8,400,,,
trial,html.Screen,4_60_0,2023-11-01T17:01:40.997Z,,0,2,,4557,response,ISIC_6931712.JPG,7,ISIC_0053801.JPG,ISIC_0053801.JPG,false,0,keypress(z),500,416242,416241,411684,411673,411701,416267,8,400,11,,ISIC_6931712.JPG
break,html.Screen,4_60_1,2023-11-01T17:01:40.998Z,,0,,,NaN,,,,,,false,,,,416243,416243,,416242,,416267,8,400,,,
break_continue,html.Screen,4_60_2,2023-11-01T17:01:40.999Z,,0,,,NaN,,,,,,false,,,,416244,416243,,416243,,416267,8,400,,,
sequence,flow.Sequence,4_60,2023-11-01T17:01:40.999Z,,0,,,4542,completion,,,,,false,,,,416244,416243,411684,411673,411701,416267,8,400,,,
trial,html.Screen,4_61_0,2023-11-01T17:01:44.767Z,,0,2,,3761,response,ISIC_0055311.JPG,8,ISIC_0024752.JPG,ISIC_0055311.JPG,false,1,keypress(m),500,420013.00000000006,420012,416251,416244,416267,420034,8,400,12,,ISIC_0024752.JPG
break,html.Screen,4_61_1,2023-11-01T17:01:44.769Z,,0,,,NaN,,,,,,false,,,,420014,420014,,420013.00000000006,,420034,8,400,,,
break_continue,html.Screen,4_61_2,2023-11-01T17:01:44.769Z,,0,,,NaN,,,,,,false,,,,420014,420014,,420014,,420034,8,400,,,
sequence,flow.Sequence,4_61,2023-11-01T17:01:44.769Z,,0,,,3747,completion,,,,,false,,,,420014,420014,416251,416244,416267,420034,8,400,,,
trial,html.Screen,4_62_0,2023-11-01T17:01:51.590Z,,0,2,,6817,response,ISIC_0024261.JPG,6,ISIC_0008636.JPG,ISIC_0008636.JPG,false,0,keypress(z),500,426835.00000000006,426834,420017,420015,420034,426868,8,400,13,,ISIC_0024261.JPG
break,html.Screen,4_62_1,2023-11-01T17:01:51.591Z,,0,,,NaN,,,,,,false,,,,426836,426836,,426835.00000000006,,426868,8,400,,,
break_continue,html.Screen,4_62_2,2023-11-01T17:01:51.591Z,,0,,,NaN,,,,,,false,,,,426837,426836,,426836,,426868,8,400,,,
sequence,flow.Sequence,4_62,2023-11-01T17:01:51.591Z,,0,,,6802,completion,,,,,false,,,,426837,426836,420017,420014,420034,426868,8,400,,,
trial,html.Screen,4_63_0,2023-11-01T17:01:55.405Z,,0,2,,3799.000000000058,response,ISIC_0026901.JPG,10,ISIC_7748144.JPG,ISIC_0026901.JPG,false,1,keypress(m),500,430650.00000000006,430650.00000000006,426851,426837,426868,430685,8,400,14,,ISIC_7748144.JPG
break,html.Screen,4_63_1,2023-11-01T17:01:55.406Z,,0,,,NaN,,,,,,false,,,,430651,430651,,430651,,430685,8,400,,,
break_continue,html.Screen,4_63_2,2023-11-01T17:01:55.406Z,,0,,,NaN,,,,,,false,,,,430652,430652,,430652,,430685,8,400,,,
sequence,flow.Sequence,4_63,2023-11-01T17:01:55.406Z,,0,,,3784,completion,,,,,false,,,,430652,430652,426851,426837,426868,430685,8,400,,,
trial,html.Screen,4_64_0,2023-11-01T17:01:59.729Z,,0,2,,4306,response,ISIC_4874581.JPG,10,ISIC_0034104.JPG,ISIC_4874581.JPG,false,1,keypress(m),500,434975,434974,430668,430652,430685,435001,8,400,15,,ISIC_0034104.JPG
break,html.Screen,4_64_1,2023-11-01T17:01:59.730Z,,0,,,NaN,,,,,,false,,,,434976,434976,,434975,,435001,8,400,,,
break_continue,html.Screen,4_64_2,2023-11-01T17:01:59.731Z,,0,,,NaN,,,,,,false,,,,434977.00000000006,434976,,434976,,435001,8,400,,,
sequence,flow.Sequence,4_64,2023-11-01T17:01:59.731Z,,0,,,4291,completion,,,,,false,,,,434977.00000000006,434976,430668,430652,430685,435001,8,400,,,
trial,html.Screen,4_65_0,2023-11-01T17:02:03.212Z,,0,2,,3472,response,ISIC_4468129.JPG,1,ISIC_0068477.JPG,ISIC_4468129.JPG,false,1,keypress(m),500,438458,438457,434985,434977.00000000006,435001,438485,8,400,16,,ISIC_0068477.JPG
break,html.Screen,4_65_1,2023-11-01T17:02:03.213Z,,0,,,NaN,,,,,,false,,,,438459,438459,,438458,,438485,8,400,,,
break_continue,html.Screen,4_65_2,2023-11-01T17:02:03.214Z,,0,,,NaN,,,,,,false,,,,438460.00000000006,438460.00000000006,,438459,,438485,8,400,,,
sequence,flow.Sequence,4_65,2023-11-01T17:02:03.214Z,,0,,,3459.000000000058,completion,,,,,false,,,,438460.00000000006,438460.00000000006,434985,434977.00000000006,435001,438485,8,400,,,
trial,html.Screen,4_66_0,2023-11-01T17:02:11.609Z,,0,2,,8387,response,ISIC_8359258.JPG,7,ISIC_0420777.JPG,ISIC_0420777.JPG,false,0,keypress(z),500,446855,446855,438468,438460.00000000006,438485,446885,8,400,17,,ISIC_8359258.JPG
break,html.Screen,4_66_1,2023-11-01T17:02:11.611Z,,0,,,NaN,,,,,,false,,,,446857,446857,,446856,,446885,8,400,,,
break_continue,html.Screen,4_66_2,2023-11-01T17:02:11.611Z,,0,,,NaN,,,,,,false,,,,446857,446857,,446857,,446885,8,400,,,
sequence,flow.Sequence,4_66,2023-11-01T17:02:11.611Z,,0,,,8372,completion,,,,,false,,,,446857,446857,438468,438460.00000000006,438485,446885,8,400,,,
trial,html.Screen,4_67_0,2023-11-01T17:02:26.915Z,,0,2,,15318,timeout,ISIC_9685928.JPG,10,ISIC_0033799.JPG,,false,,,500,462162.00000000006,462161,446869,446857,446885,462203,8,400,18,,
break,html.Screen,4_67_1,2023-11-01T17:02:26.916Z,,0,,,NaN,,,,,,false,,,,462162.00000000006,462162.00000000006,,462162.00000000006,,462203,8,400,,,
break_continue,html.Screen,4_67_2,2023-11-01T17:02:26.916Z,,0,,,NaN,,,,,,false,,,,462162.00000000006,462162.00000000006,,462162.00000000006,,462203,8,400,,,
sequence,flow.Sequence,4_67,2023-11-01T17:02:26.916Z,,0,,,15277.000000000058,completion,,,,,false,,,,462163,462162.00000000006,446869,446857,446885,462203,8,400,,,
trial,html.Screen,4_68_0,2023-11-01T17:02:30.385Z,,0,2,,3446,response,ISIC_0024759.JPG,2,ISIC_1387456.JPG,ISIC_1387456.JPG,false,0,keypress(z),500,465632,465632,462186,462163,462203,465669,8,400,19,,ISIC_0024759.JPG
break,html.Screen,4_68_1,2023-11-01T17:02:30.386Z,,0,,,NaN,,,,,,false,,,,465633,465633,,465632,,465669,8,400,,,
break_continue,html.Screen,4_68_2,2023-11-01T17:02:30.387Z,,0,,,NaN,,,,,,false,,,,465633,465633,,465633,,465669,8,400,,,
sequence,flow.Sequence,4_68,2023-11-01T17:02:30.387Z,,0,,,3430,completion,,,,,false,,,,465634,465633,462186,462163,462203,465669,8,400,,,
trial,html.Screen,4_69_0,2023-11-01T17:02:45.054Z,,0,2,,14668,timeout,ISIC_4182801.JPG,439,ISIC_0027408.JPG,,false,,,500,480302,480301,465653,465634,465669,480337,8,400,20,,
break,html.Screen,4_69_1,2023-11-01T17:02:45.054Z,,0,,,NaN,,,,,,false,,,,480302,480302,,480302,,480337,8,400,,,
break_continue,html.Screen,4_69_2,2023-11-01T17:02:45.055Z,,0,,,NaN,,,,,,false,,,,480302,480302,,480302,,480337,8,400,,,
sequence,flow.Sequence,4_69,2023-11-01T17:02:45.055Z,,0,,,14633,completion,,,,,false,,,,480302,480302,465653,465634,465669,480337,8,400,,,
trial,html.Screen,4_70_0,2023-11-01T17:02:48.228Z,,0,2,,3156,response,ISIC_6326803.JPG,10,ISIC_0025897.JPG,ISIC_6326803.JPG,false,1,keypress(m),500,483475,483475,480319,480302,480337,483503,8,400,21,,ISIC_0025897.JPG
break,html.Screen,4_70_1,2023-11-01T17:02:48.229Z,,0,,,NaN,,,,,,false,,,,483477.00000000006,483477.00000000006,,483476,,483503,8,400,,,
break_continue,html.Screen,4_70_2,2023-11-01T17:02:48.230Z,,0,,,NaN,,,,,,false,,,,483477.00000000006,483477.00000000006,,483477.00000000006,,483503,8,400,,,
sequence,flow.Sequence,4_70,2023-11-01T17:02:48.230Z,,0,,,3140.000000000058,completion,,,,,false,,,,483478,483477.00000000006,480319,480302,480337,483503,8,400,,,
trial,html.Screen,4_71_0,2023-11-01T17:02:51.725Z,,0,2,,3485.000000000058,response,ISIC_7466678.JPG,10,ISIC_5230371.JPG,ISIC_5230371.JPG,false,0,keypress(z),500,486972.00000000006,486972.00000000006,483487,483478,483503,487004,8,400,22,,ISIC_7466678.JPG
break,html.Screen,4_71_1,2023-11-01T17:02:51.726Z,,0,,,NaN,,,,,,false,,,,486973,486973,,486973,,487004,8,400,,,
break_continue,html.Screen,4_71_2,2023-11-01T17:02:51.726Z,,0,,,NaN,,,,,,false,,,,486974,486974,,486974,,487004,8,400,,,
sequence,flow.Sequence,4_71,2023-11-01T17:02:51.726Z,,0,,,3471,completion,,,,,false,,,,486974,486974,483487,483478,483503,487004,8,400,,,
trial,html.Screen,4_72_0,2023-11-01T17:02:55.985Z,,0,2,,4245,response,ISIC_4043580.JPG,6,ISIC_0305800.JPG,ISIC_4043580.JPG,false,1,keypress(m),500,491233,491232,486987,486974,487004,491270,8,400,23,,ISIC_0305800.JPG
break,html.Screen,4_72_1,2023-11-01T17:02:55.986Z,,0,,,NaN,,,,,,false,,,,491234.00000000006,491234.00000000006,,491233,,491270,8,400,,,
break_continue,html.Screen,4_72_2,2023-11-01T17:02:55.987Z,,0,,,NaN,,,,,,false,,,,491234.00000000006,491234.00000000006,,491234.00000000006,,491270,8,400,,,
sequence,flow.Sequence,4_72,2023-11-01T17:02:55.987Z,,0,,,4230.000000000058,completion,,,,,false,,,,491235,491234.00000000006,486987,486974,487004,491270,8,400,,,
trial,html.Screen,4_73_0,2023-11-01T17:02:59.687Z,,0,2,,3680,response,ISIC_0000152.JPG,7,ISIC_2221217.JPG,ISIC_0000152.JPG,false,1,keypress(m),500,494935,494934,491254,491235,491270,494970,8,400,24,,ISIC_2221217.JPG
break,html.Screen,4_73_1,2023-11-01T17:02:59.688Z,,0,,,NaN,,,,,,false,,,,494936.00000000006,494936.00000000006,,494935,,494970,8,400,,,
break_continue,html.Screen,4_73_2,2023-11-01T17:02:59.689Z,,0,,,NaN,,,,,,false,,,,494937,494937,,494936.00000000006,,494970,8,400,,,
sequence,flow.Sequence,4_73,2023-11-01T17:02:59.689Z,,0,,,3667,completion,,,,,false,,,,494937,494937,491254,491235,491270,494970,8,400,,,
trial,html.Screen,4_74_0,2023-11-01T17:03:04.785Z,,0,2,,5078,response,ISIC_0032774.JPG,11,ISIC_0059219.JPG,ISIC_0032774.JPG,false,1,keypress(m),500,500033,500032,494954,494937,494970,500070,8,400,25,,ISIC_0059219.JPG
break,html.Screen,4_74_1,2023-11-01T17:03:04.786Z,,0,,,NaN,,,,,,false,,,,500034,500034,,500033,,500070,8,400,,,
break_continue,html.Screen,4_74_2,2023-11-01T17:03:04.786Z,,0,,,NaN,,,,,,false,,,,500035,500034,,500034,,500070,8,400,,,
sequence,flow.Sequence,4_74,2023-11-01T17:03:04.787Z,,0,,,5064,completion,,,,,false,,,,500035,500034,494954,494937,494970,500070,8,400,,,
trial,html.Screen,4_75_0,2023-11-01T17:03:08.064Z,,0,2,,3258,response,ISIC_0015071.JPG,5,ISIC_0029993.JPG,ISIC_0029993.JPG,false,0,keypress(z),500,503312,503312,500054,500035,500070,503337,8,400,26,,ISIC_0015071.JPG
break,html.Screen,4_75_1,2023-11-01T17:03:08.064Z,,0,,,NaN,,,,,,false,,,,503313,503313,,503312,,503337,8,400,,,
break_continue,html.Screen,4_75_2,2023-11-01T17:03:08.065Z,,0,,,NaN,,,,,,false,,,,503313,503313,,503313,,503337,8,400,,,
sequence,flow.Sequence,4_75,2023-11-01T17:03:08.065Z,,0,,,3243,completion,,,,,false,,,,503313,503313,500054,500035,500070,503337,8,400,,,
trial,html.Screen,4_76_0,2023-11-01T17:03:11.892Z,,0,2,,3819,response,ISIC_0033782.JPG,6,ISIC_5491641.JPG,ISIC_5491641.JPG,false,0,keypress(z),500,507140,507140,503321,503313,503337,507171,8,400,27,,ISIC_0033782.JPG
break,html.Screen,4_76_1,2023-11-01T17:03:11.893Z,,0,,,NaN,,,,,,false,,,,507141,507141,,507140,,507171,8,400,,,
break_continue,html.Screen,4_76_2,2023-11-01T17:03:11.893Z,,0,,,NaN,,,,,,false,,,,507142,507142,,507142,,507171,8,400,,,
sequence,flow.Sequence,4_76,2023-11-01T17:03:11.894Z,,0,,,3805,completion,,,,,false,,,,507142,507142,503321,503313,503337,507171,8,400,,,
trial,html.Screen,4_77_0,2023-11-01T17:03:15.995Z,,0,2,,4089,response,ISIC_0070046.JPG,5,ISIC_4425766.JPG,ISIC_0070046.JPG,false,1,keypress(m),500,511244,511243,507154,507142,507171,511271,8,400,28,,ISIC_4425766.JPG
break,html.Screen,4_77_1,2023-11-01T17:03:15.997Z,,0,,,NaN,,,,,,false,,,,511245,511245,,511244,,511271,8,400,,,
break_continue,html.Screen,4_77_2,2023-11-01T17:03:15.997Z,,0,,,NaN,,,,,,false,,,,511246.00000000006,511246.00000000006,,511246.00000000006,,511271,8,400,,,
sequence,flow.Sequence,4_77,2023-11-01T17:03:15.997Z,,0,,,4075.000000000058,completion,,,,,false,,,,511246.00000000006,511246.00000000006,507154,507142,507171,511271,8,400,,,
trial,html.Screen,4_78_0,2023-11-01T17:03:19.719Z,,0,2,,3713.999999999942,response,ISIC_1343302.JPG,10,ISIC_9067033.JPG,ISIC_9067033.JPG,false,0,keypress(z),500,514967.99999999994,514967.99999999994,511254,511246.00000000006,511271,515005,8,400,29,,ISIC_1343302.JPG
break,html.Screen,4_78_1,2023-11-01T17:03:19.721Z,,0,,,NaN,,,,,,false,,,,514969.00000000006,514969.00000000006,,514967.99999999994,,515005,8,400,,,
break_continue,html.Screen,4_78_2,2023-11-01T17:03:19.721Z,,0,,,NaN,,,,,,false,,,,514970,514970,,514969.00000000006,,515005,8,400,,,
sequence,flow.Sequence,4_78,2023-11-01T17:03:19.721Z,,0,,,3699,completion,,,,,false,,,,514970,514970,511254,511246.00000000006,511271,515005,8,400,,,
trial,html.Screen,4_79_0,2023-11-01T17:03:24.846Z,,0,2,,5106.000000000058,response,ISIC_8769415.JPG,10,ISIC_5442834.JPG,ISIC_8769415.JPG,false,1,keypress(m),500,520095,520094.00000000006,514988,514970,515005,520121,8,400,30,,ISIC_5442834.JPG
break,html.Screen,4_79_1,2023-11-01T17:03:24.847Z,,0,,,NaN,,,,,,false,,,,520096,520096,,520095,,520121,8,400,,,
break_continue,html.Screen,4_79_2,2023-11-01T17:03:24.848Z,,0,,,NaN,,,,,,false,,,,520097,520096,,520096,,520121,8,400,,,
sequence,flow.Sequence,4_79,2023-11-01T17:03:24.848Z,,0,,,5091,completion,,,,,false,,,,520097,520096,514988,514970,515005,520121,8,400,,,
trial,html.Screen,4_80_0,2023-11-01T17:03:28.106Z,,0,2,,3251,response,ISIC_0025139.JPG,9,ISIC_0067601.JPG,ISIC_0025139.JPG,false,1,keypress(m),500,523355,523355,520104,520097,520121,523388,8,400,31,,ISIC_0067601.JPG
break,html.Screen,4_80_1,2023-11-01T17:03:28.108Z,,0,,,NaN,,,,,,false,,,,523357,523356,,523356,,523388,8,400,,,
break_continue,html.Screen,4_80_2,2023-11-01T17:03:28.108Z,,0,,,NaN,,,,,,false,,,,523357,523357,,523357,,523388,8,400,,,
sequence,flow.Sequence,4_80,2023-11-01T17:03:28.108Z,,0,,,3236,completion,,,,,false,,,,523357,523357,520104,520097,520121,523388,8,400,,,
trial,html.Screen,4_81_0,2023-11-01T17:03:32.100Z,,0,2,,3977,response,ISIC_8389361.JPG,14,ISIC_0059707.JPG,ISIC_8389361.JPG,false,1,keypress(m),500,527349,527349,523372,523357,523388,527372,8,400,32,,ISIC_0059707.JPG
break,html.Screen,4_81_1,2023-11-01T17:03:32.101Z,,0,,,NaN,,,,,,false,,,,527350,527350,,527350,,527372,8,400,,,
break_continue,html.Screen,4_81_2,2023-11-01T17:03:32.102Z,,0,,,NaN,,,,,,false,,,,527351,527351,,527351,,527372,8,400,,,
sequence,flow.Sequence,4_81,2023-11-01T17:03:32.102Z,,0,,,3963,completion,,,,,false,,,,527351,527351,523372,523357,523388,527372,8,400,,,
trial,html.Screen,4_82_0,2023-11-01T17:03:36.751Z,,0,2,,4645,response,ISIC_8145260.JPG,5,ISIC_1135213.JPG,ISIC_8145260.JPG,false,1,keypress(m),500,532000,531999,527354,527351,527372,532022,8,400,33,,ISIC_1135213.JPG
break,html.Screen,4_82_1,2023-11-01T17:03:36.752Z,,0,,,NaN,,,,,,false,,,,532001,532001,,532000,,532022,8,400,,,
break_continue,html.Screen,4_82_2,2023-11-01T17:03:36.753Z,,0,,,NaN,,,,,,false,,,,532002.0000000001,532002.0000000001,,532002.0000000001,,532022,8,400,,,
sequence,flow.Sequence,4_82,2023-11-01T17:03:36.753Z,,0,,,4630.000000000116,completion,,,,,false,,,,532002.0000000001,532002.0000000001,527354,527351,527372,532022,8,400,,,
trial,html.Screen,4_83_0,2023-11-01T17:03:39.675Z,,0,2,,2920,response,ISIC_2008230.JPG,3,ISIC_0033333.JPG,ISIC_0033333.JPG,false,0,keypress(z),500,534925,534924,532004,532002.0000000001,532022,534955,8,400,34,,ISIC_2008230.JPG
break,html.Screen,4_83_1,2023-11-01T17:03:39.677Z,,0,,,NaN,,,,,,false,,,,534926,534926,,534925,,534955,8,400,,,
break_continue,html.Screen,4_83_2,2023-11-01T17:03:39.677Z,,0,,,NaN,,,,,,false,,,,534927,534926,,534926,,534955,8,400,,,
sequence,flow.Sequence,4_83,2023-11-01T17:03:39.677Z,,0,,,2904,completion,,,,,false,,,,534927,534926,532004,532002.0000000001,532022,534955,8,400,,,
trial,html.Screen,4_84_0,2023-11-01T17:03:43.668Z,,0,2,,3978,response,ISIC_0033405.JPG,7,ISIC_6959281.JPG,ISIC_0033405.JPG,false,1,keypress(m),500,538917,538917,534939,534927,534955,538955,8,400,35,,ISIC_6959281.JPG
break,html.Screen,4_84_1,2023-11-01T17:03:43.669Z,,0,,,NaN,,,,,,false,,,,538919,538918,,538918,,538955,8,400,,,
break_continue,html.Screen,4_84_2,2023-11-01T17:03:43.670Z,,0,,,NaN,,,,,,false,,,,538919,538919,,538919,,538955,8,400,,,
sequence,flow.Sequence,4_84,2023-11-01T17:03:43.670Z,,0,,,3964,completion,,,,,false,,,,538920,538919,534939,534927,534955,538955,8,400,,,
trial,html.Screen,4_85_0,2023-11-01T17:03:49.190Z,,0,2,,5500,response,ISIC_0013733.JPG,13,ISIC_0028859.JPG,ISIC_0013733.JPG,false,1,keypress(m),500,544440,544439,538939,538920,538955,544472,8,400,36,,ISIC_0028859.JPG
break,html.Screen,4_85_1,2023-11-01T17:03:49.191Z,,0,,,NaN,,,,,,false,,,,544441,544441,,544440,,544472,8,400,,,
break_continue,html.Screen,4_85_2,2023-11-01T17:03:49.192Z,,0,,,NaN,,,,,,false,,,,544442,544441,,544441,,544472,8,400,,,
sequence,flow.Sequence,4_85,2023-11-01T17:03:49.192Z,,0,,,5486,completion,,,,,false,,,,544442,544441,538939,538920,538955,544472,8,400,,,
trial,html.Screen,4_86_0,2023-11-01T17:03:54.254Z,,0,2,,5048,response,ISIC_0026188.JPG,10,ISIC_2163734.JPG,ISIC_2163734.JPG,false,0,keypress(z),500,549504,549503,544455,544442,544472,549539,8,400,37,,ISIC_0026188.JPG
break,html.Screen,4_86_1,2023-11-01T17:03:54.255Z,,0,,,NaN,,,,,,false,,,,549505,549504,,549504,,549539,8,400,,,
break_continue,html.Screen,4_86_2,2023-11-01T17:03:54.255Z,,0,,,NaN,,,,,,false,,,,549505,549505,,549505,,549539,8,400,,,
sequence,flow.Sequence,4_86,2023-11-01T17:03:54.255Z,,0,,,5033,completion,,,,,false,,,,549505,549505,544455,544442,544472,549539,8,400,,,
trial,html.Screen,4_87_0,2023-11-01T17:03:57.346Z,,0,2,,3073,response,ISIC_5307210.JPG,14,ISIC_7180438.JPG,ISIC_7180438.JPG,false,0,keypress(z),500,552596,552596,549523,549505,549539,552623,8,400,38,,ISIC_5307210.JPG
break,html.Screen,4_87_1,2023-11-01T17:03:57.347Z,,0,,,NaN,,,,,,false,,,,552597,552597,,552597,,552623,8,400,,,
break_continue,html.Screen,4_87_2,2023-11-01T17:03:57.348Z,,0,,,NaN,,,,,,false,,,,552598,552598,,552598,,552623,8,400,,,
sequence,flow.Sequence,4_87,2023-11-01T17:03:57.348Z,,0,,,3059,completion,,,,,false,,,,552598,552598,549523,549505,549539,552623,8,400,,,
trial,html.Screen,4_88_0,2023-11-01T17:04:01.120Z,,0,2,,3764,response,ISIC_9896801.JPG,9,ISIC_0071303.JPG,ISIC_9896801.JPG,false,1,keypress(m),500,556371,556370,552606,552598,552623,556405,8,400,39,,ISIC_0071303.JPG
break,html.Screen,4_88_1,2023-11-01T17:04:01.122Z,,0,,,NaN,,,,,,false,,,,556372,556372,,556371,,556405,8,400,,,
break_continue,html.Screen,4_88_2,2023-11-01T17:04:01.122Z,,0,,,NaN,,,,,,false,,,,556372,556372,,556372,,556405,8,400,,,
sequence,flow.Sequence,4_88,2023-11-01T17:04:01.122Z,,0,,,3749,completion,,,,,false,,,,556372,556372,552606,552598,552623,556405,8,400,,,
trial,html.Screen,4_89_0,2023-11-01T17:04:05.087Z,,0,2,,3946,response,ISIC_1718403.JPG,11,ISIC_7186677.JPG,ISIC_7186677.JPG,false,0,keypress(z),500,560337,560336,556390,556373,556405,560372,8,400,40,,ISIC_1718403.JPG
break,html.Screen,4_89_1,2023-11-01T17:04:05.088Z,,0,,,NaN,,,,,,false,,,,560338,560338,,560337,,560372,8,400,,,
break_continue,html.Screen,4_89_2,2023-11-01T17:04:05.088Z,,0,,,NaN,,,,,,false,,,,560338,560338,,560338,,560372,8,400,,,
sequence,flow.Sequence,4_89,2023-11-01T17:04:05.088Z,,0,,,3933,completion,,,,,false,,,,560339,560338,556390,556373,556405,560372,8,400,,,
trial,html.Screen,4_90_0,2023-11-01T17:04:08.546Z,,0,2,,3441,response,ISIC_9765024.JPG,9,ISIC_0805941.JPG,ISIC_0805941.JPG,false,0,keypress(z),500,563796,563796,560355,560339,560372,563823,8,400,41,,ISIC_9765024.JPG
break,html.Screen,4_90_1,2023-11-01T17:04:08.547Z,,0,,,NaN,,,,,,false,,,,563798,563797,,563797,,563823,8,400,,,
break_continue,html.Screen,4_90_2,2023-11-01T17:04:08.547Z,,0,,,NaN,,,,,,false,,,,563798,563798,,563798,,563823,8,400,,,
sequence,flow.Sequence,4_90,2023-11-01T17:04:08.548Z,,0,,,3426,completion,,,,,false,,,,563798,563798,560355,560339,560372,563823,8,400,,,
trial,html.Screen,4_91_0,2023-11-01T17:04:13.303Z,,0,2,,4747,response,ISIC_8436194.JPG,6,ISIC_7973598.JPG,ISIC_7973598.JPG,false,0,keypress(z),500,568554,568553,563806,563798,563823,568590,8,400,42,,ISIC_8436194.JPG
break,html.Screen,4_91_1,2023-11-01T17:04:13.305Z,,0,,,NaN,,,,,,false,,,,568555.0000000001,568555.0000000001,,568554,,568590,8,400,,,
break_continue,html.Screen,4_91_2,2023-11-01T17:04:13.305Z,,0,,,NaN,,,,,,false,,,,568556,568555.0000000001,,568555.0000000001,,568590,8,400,,,
sequence,flow.Sequence,4_91,2023-11-01T17:04:13.305Z,,0,,,4732.000000000116,completion,,,,,false,,,,568556,568555.0000000001,563806,563798,563823,568590,8,400,,,
trial,html.Screen,4_92_0,2023-11-01T17:04:16.315Z,,0,2,,2992,response,ISIC_2948896.JPG,6,ISIC_0014217.JPG,ISIC_2948896.JPG,false,1,keypress(m),500,571566,571565,568573,568556,568590,571590,8,400,43,,ISIC_0014217.JPG
break,html.Screen,4_92_1,2023-11-01T17:04:16.316Z,,0,,,NaN,,,,,,false,,,,571567,571567,,571566,,571590,8,400,,,
break_continue,html.Screen,4_92_2,2023-11-01T17:04:16.317Z,,0,,,NaN,,,,,,false,,,,571568,571567,,571567,,571590,8,400,,,
sequence,flow.Sequence,4_92,2023-11-01T17:04:16.317Z,,0,,,2977,completion,,,,,false,,,,571568,571567,568573,568556,568590,571590,8,400,,,
trial,html.Screen,4_93_0,2023-11-01T17:04:19.636Z,,0,2,,3313,response,ISIC_3950753.JPG,5,ISIC_3833013.JPG,ISIC_3833013.JPG,false,0,keypress(z),500,574887,574886,571573,571568,571590,574923,8,400,44,,ISIC_3950753.JPG
break,html.Screen,4_93_1,2023-11-01T17:04:19.637Z,,0,,,NaN,,,,,,false,,,,574888,574888,,574887,,574923,8,400,,,
break_continue,html.Screen,4_93_2,2023-11-01T17:04:19.638Z,,0,,,NaN,,,,,,false,,,,574888,574888,,574888,,574923,8,400,,,
sequence,flow.Sequence,4_93,2023-11-01T17:04:19.638Z,,0,,,3298,completion,,,,,false,,,,574889,574888,571573,571568,571590,574923,8,400,,,
trial,html.Screen,4_94_0,2023-11-01T17:04:24.758Z,,0,2,,5102,response,ISIC_0005879.JPG,12,ISIC_5771106.JPG,ISIC_0005879.JPG,false,1,keypress(m),500,580009,580009,574907,574889,574923,580040,8,400,45,,ISIC_5771106.JPG
break,html.Screen,4_94_1,2023-11-01T17:04:24.760Z,,0,,,NaN,,,,,,false,,,,580011,580011,,580010,,580040,8,400,,,
break_continue,html.Screen,4_94_2,2023-11-01T17:04:24.760Z,,0,,,NaN,,,,,,false,,,,580011,580011,,580011,,580040,8,400,,,
sequence,flow.Sequence,4_94,2023-11-01T17:04:24.760Z,,0,,,5088,completion,,,,,false,,,,580012,580011,574907,574889,574923,580040,8,400,,,
trial,html.Screen,4_95_0,2023-11-01T17:04:30.184Z,,0,2,,5410,response,ISIC_9122215.JPG,4,ISIC_0011035.JPG,ISIC_9122215.JPG,false,1,keypress(m),500,585435.0000000001,585434,580024,580012,580040,585457,8,400,46,,ISIC_0011035.JPG
break,html.Screen,4_95_1,2023-11-01T17:04:30.185Z,,0,,,NaN,,,,,,false,,,,585436,585436,,585435.0000000001,,585457,8,400,,,
break_continue,html.Screen,4_95_2,2023-11-01T17:04:30.185Z,,0,,,NaN,,,,,,false,,,,585437,585437,,585437,,585457,8,400,,,
sequence,flow.Sequence,4_95,2023-11-01T17:04:30.186Z,,0,,,5397,completion,,,,,false,,,,585437,585437,580024,580012,580040,585457,8,400,,,
trial,html.Screen,4_96_0,2023-11-01T17:04:33.362Z,,0,2,,3172,response,ISIC_2324728.JPG,12,ISIC_3558747.JPG,ISIC_2324728.JPG,false,1,keypress(m),500,588613,588612,585440,585437,585457,588640,8,400,47,,ISIC_3558747.JPG
break,html.Screen,4_96_1,2023-11-01T17:04:33.363Z,,0,,,NaN,,,,,,false,,,,588614,588614,,588613,,588640,8,400,,,
break_continue,html.Screen,4_96_2,2023-11-01T17:04:33.363Z,,0,,,NaN,,,,,,false,,,,588615,588615,,588614,,588640,8,400,,,
sequence,flow.Sequence,4_96,2023-11-01T17:04:33.363Z,,0,,,3158,completion,,,,,false,,,,588615,588615,585440,585437,585457,588640,8,400,,,
trial,html.Screen,4_97_0,2023-11-01T17:04:36.822Z,,0,2,,3450,response,ISIC_0028462.JPG,11,ISIC_7833008.JPG,ISIC_0028462.JPG,false,1,keypress(m),500,592074.0000000001,592073,588623,588615,588640,592107,8,400,48,,ISIC_7833008.JPG
break,html.Screen,4_97_1,2023-11-01T17:04:36.823Z,,0,,,NaN,,,,,,false,,,,592075,592075,,592074.0000000001,,592107,8,400,,,
break_continue,html.Screen,4_97_2,2023-11-01T17:04:36.824Z,,0,,,NaN,,,,,,false,,,,592075,592075,,592075,,592107,8,400,,,
sequence,flow.Sequence,4_97,2023-11-01T17:04:36.824Z,,0,,,3435,completion,,,,,false,,,,592075,592075,588623,588615,588640,592107,8,400,,,
trial,html.Screen,4_98_0,2023-11-01T17:04:40.505Z,,0,2,,3666,response,ISIC_0062712.JPG,10,ISIC_0064784.JPG,ISIC_0062712.JPG,false,1,keypress(m),500,595757.0000000001,595756,592090,592076,592107,595791,8,400,49,,ISIC_0064784.JPG
break,html.Screen,4_98_1,2023-11-01T17:04:40.506Z,,0,,,NaN,,,,,,false,,,,595758,595758,,595757.0000000001,,595791,8,400,,,
break_continue,html.Screen,4_98_2,2023-11-01T17:04:40.507Z,,0,,,NaN,,,,,,false,,,,595758,595758,,595758,,595791,8,400,,,
sequence,flow.Sequence,4_98,2023-11-01T17:04:40.507Z,,0,,,3651,completion,,,,,false,,,,595759,595758,592090,592076,592107,595791,8,400,,,
trial,html.Screen,4_99_0,2023-11-01T17:04:44.105Z,,0,2,,3582,response,ISIC_5367118.JPG,11,ISIC_0062318.JPG,ISIC_0062318.JPG,false,0,keypress(z),500,599357,599356,595774,595759,595791,599391,8,400,50,,ISIC_5367118.JPG
break,html.Screen,4_99_1,2023-11-01T17:04:54.124Z,,0,,,10000,timeout,,,,,false,,,,609376,609375,599375,599357,599391,609391,8,400,,,
break_continue,html.Screen,4_99_2,2023-11-01T19:08:34.051Z,,0,,,6218405,response,,,,,false,continue,keypress(Space),,6827711,6827780,609375,609376,609391,6827741,8,400,,,
sequence,flow.Sequence,4_99,2023-11-01T19:08:34.052Z,,0,,,6231989,completion,,,,,false,,,,6827712,6827780,595774,595759,595791,6827741,8,400,,,
trial,html.Screen,4_100_0,2023-11-01T19:08:38.052Z,,0,3,,3987,response,ISIC_0004986.JPG,7,ISIC_0011857.JPG,ISIC_0004986.JPG,false,1,keypress(m),500,6831712,6831711,6827724,6827712,6827741,6831740,8,400,1,,ISIC_0011857.JPG
break,html.Screen,4_100_1,2023-11-01T19:08:38.054Z,,0,,,NaN,,,,,,false,,,,6831714,6831714,,6831713,,6831740,8,400,,,
break_continue,html.Screen,4_100_2,2023-11-01T19:08:38.055Z,,0,,,NaN,,,,,,false,,,,6831715,6831715,,6831715,,6831740,8,400,,,
sequence,flow.Sequence,4_100,2023-11-01T19:08:38.056Z,,0,,,3974,completion,,,,,false,,,,6831716,6831715,6827724,6827712,6827741,6831740,8,400,,,
trial,html.Screen,4_101_0,2023-11-01T19:08:44.846Z,,0,3,,6780,response,ISIC_0026685.JPG,9,ISIC_2742786.JPG,ISIC_0026685.JPG,false,1,keypress(m),500,6838506,6838505,6831725,6831716,6831740,6838542,8,400,2,,ISIC_2742786.JPG
break,html.Screen,4_101_1,2023-11-01T19:08:44.848Z,,0,,,NaN,,,,,,false,,,,6838508,6838508,,6838507.000000001,,6838542,8,400,,,
break_continue,html.Screen,4_101_2,2023-11-01T19:08:44.849Z,,0,,,NaN,,,,,,false,,,,6838509,6838509,,6838509,,6838542,8,400,,,
sequence,flow.Sequence,4_101,2023-11-01T19:08:44.849Z,,0,,,6769,completion,,,,,false,,,,6838510,6838509,6831725,6831716,6831740,6838542,8,400,,,
trial,html.Screen,4_102_0,2023-11-01T19:08:53.535Z,,0,3,,8670,response,ISIC_9947369.JPG,1,ISIC_1693572.JPG,ISIC_9947369.JPG,false,1,keypress(m),500,6847196,6847195,6838525,6838510,6838542,6847225,8,400,3,,ISIC_1693572.JPG
break,html.Screen,4_102_1,2023-11-01T19:08:53.537Z,,0,,,NaN,,,,,,false,,,,6847198,6847197,,6847197,,6847225,8,400,,,
break_continue,html.Screen,4_102_2,2023-11-01T19:08:53.538Z,,0,,,NaN,,,,,,false,,,,6847199.000000001,6847198,,6847198,,6847225,8,400,,,
sequence,flow.Sequence,4_102,2023-11-01T19:08:53.538Z,,0,,,8656,completion,,,,,false,,,,6847199.000000001,6847198,6838525,6838510,6838542,6847225,8,400,,,
trial,html.Screen,4_103_0,2023-11-01T19:08:58.485Z,,0,3,,4936,response,ISIC_0032717.JPG,4,ISIC_0067614.JPG,ISIC_0032717.JPG,false,1,keypress(m),500,6852146,6852145,6847209,6847200,6847225,6852174,8,400,4,,ISIC_0067614.JPG
break,html.Screen,4_103_1,2023-11-01T19:08:58.486Z,,0,,,NaN,,,,,,false,,,,6852147,6852147,,6852146,,6852174,8,400,,,
break_continue,html.Screen,4_103_2,2023-11-01T19:08:58.487Z,,0,,,NaN,,,,,,false,,,,6852148,6852148,,6852148,,6852174,8,400,,,
sequence,flow.Sequence,4_103,2023-11-01T19:08:58.488Z,,0,,,4923,completion,,,,,false,,,,6852149,6852148,6847209,6847199.000000001,6847225,6852174,8,400,,,
trial,html.Screen,4_104_0,2023-11-01T19:09:03.736Z,,0,3,,5237,response,ISIC_0028746.JPG,3,ISIC_0055680.JPG,ISIC_0055680.JPG,false,0,keypress(z),500,6857397,6857396,6852159,6852149,6852174,6857426,8,400,5,,ISIC_0028746.JPG
break,html.Screen,4_104_1,2023-11-01T19:09:03.737Z,,0,,,NaN,,,,,,false,,,,6857399,6857398,,6857397,,6857426,8,400,,,
break_continue,html.Screen,4_104_2,2023-11-01T19:09:03.738Z,,0,,,NaN,,,,,,false,,,,6857399,6857399,,6857399,,6857426,8,400,,,
sequence,flow.Sequence,4_104,2023-11-01T19:09:03.738Z,,0,,,5225,completion,,,,,false,,,,6857400.000000001,6857399,6852159,6852149,6852174,6857426,8,400,,,
trial,html.Screen,4_105_0,2023-11-01T19:09:09.788Z,,0,3,,6039,response,ISIC_0028131.JPG,10,ISIC_1720840.JPG,ISIC_1720840.JPG,false,0,keypress(z),500,6863449.000000001,6863448,6857409,6857400.000000001,6857426,6863475,8,400,6,,ISIC_0028131.JPG
break,html.Screen,4_105_1,2023-11-01T19:09:09.790Z,,0,,,NaN,,,,,,false,,,,6863451,6863451,,6863450,,6863475,8,400,,,
break_continue,html.Screen,4_105_2,2023-11-01T19:09:09.790Z,,0,,,NaN,,,,,,false,,,,6863452,6863452,,6863451,,6863475,8,400,,,
sequence,flow.Sequence,4_105,2023-11-01T19:09:09.791Z,,0,,,6026,completion,,,,,false,,,,6863452,6863452,6857409,6857400.000000001,6857426,6863475,8,400,,,
trial,html.Screen,4_106_0,2023-11-01T19:09:14.878Z,,0,3,,5080,response,ISIC_5807608.JPG,5,ISIC_2400177.JPG,ISIC_5807608.JPG,false,1,keypress(m),500,6868540,6868539,6863459,6863453,6863475,6868576,8,400,7,,ISIC_2400177.JPG
break,html.Screen,4_106_1,2023-11-01T19:09:14.880Z,,0,,,NaN,,,,,,false,,,,6868542,6868541,,6868541,,6868576,8,400,,,
break_continue,html.Screen,4_106_2,2023-11-01T19:09:14.881Z,,0,,,NaN,,,,,,false,,,,6868542,6868542,,6868542,,6868576,8,400,,,
sequence,flow.Sequence,4_106,2023-11-01T19:09:14.881Z,,0,,,5067,completion,,,,,false,,,,6868543.000000001,6868542,6863459,6863453,6863475,6868576,8,400,,,
trial,html.Screen,4_107_0,2023-11-01T19:09:19.331Z,,0,3,,4433,response,ISIC_3269018.JPG,3,ISIC_6006795.JPG,ISIC_6006795.JPG,false,0,keypress(z),500,6872993,6872992,6868559,6868543.000000001,6868576,6873026,8,400,8,,ISIC_3269018.JPG
break,html.Screen,4_107_1,2023-11-01T19:09:19.333Z,,0,,,NaN,,,,,,false,,,,6872995,6872994.000000001,,6872994.000000001,,6873026,8,400,,,
break_continue,html.Screen,4_107_2,2023-11-01T19:09:19.334Z,,0,,,NaN,,,,,,false,,,,6872996,6872995,,6872995,,6873026,8,400,,,
sequence,flow.Sequence,4_107,2023-11-01T19:09:19.334Z,,0,,,4419,completion,,,,,false,,,,6872996,6872995,6868559,6868543.000000001,6868576,6873026,8,400,,,
trial,html.Screen,4_108_0,2023-11-01T19:09:24.702Z,,0,3,,5353,response,ISIC_0033393.JPG,8,ISIC_9917640.JPG,ISIC_9917640.JPG,false,0,keypress(z),500,6878364.000000001,6878363,6873010,6872997,6873026,6878393,8,400,9,,ISIC_0033393.JPG
break,html.Screen,4_108_1,2023-11-01T19:09:24.703Z,,0,,,NaN,,,,,,false,,,,6878365,6878365,,6878364.000000001,,6878393,8,400,,,
break_continue,html.Screen,4_108_2,2023-11-01T19:09:24.704Z,,0,,,NaN,,,,,,false,,,,6878366,6878366,,6878366,,6878393,8,400,,,
sequence,flow.Sequence,4_108,2023-11-01T19:09:24.704Z,,0,,,5340,completion,,,,,false,,,,6878366,6878366,6873010,6872997,6873026,6878393,8,400,,,
trial,html.Screen,4_109_0,2023-11-01T19:09:28.185Z,,0,3,,3470,response,ISIC_0061624.JPG,14,ISIC_0002041.JPG,ISIC_0002041.JPG,false,0,keypress(z),500,6881847,6881846,6878376,6878367,6878393,6881877,8,400,10,,ISIC_0061624.JPG
break,html.Screen,4_109_1,2023-11-01T19:09:28.186Z,,0,,,NaN,,,,,,false,,,,6881849,6881848,,6881848,,6881877,8,400,,,
break_continue,html.Screen,4_109_2,2023-11-01T19:09:28.187Z,,0,,,NaN,,,,,,false,,,,6881849,6881849,,6881849,,6881877,8,400,,,
sequence,flow.Sequence,4_109,2023-11-01T19:09:28.187Z,,0,,,3456,completion,,,,,false,,,,6881850,6881849,6878376,6878366,6878393,6881877,8,400,,,
trial,html.Screen,4_110_0,2023-11-01T19:09:31.548Z,,0,3,,3349,response,ISIC_0063081.JPG,6,ISIC_0032278.JPG,ISIC_0063081.JPG,false,1,keypress(m),500,6885210,6885209,6881860,6881850,6881877,6885243,8,400,11,,ISIC_0032278.JPG
break,html.Screen,4_110_1,2023-11-01T19:09:31.549Z,,0,,,NaN,,,,,,false,,,,6885212,6885211,,6885210,,6885243,8,400,,,
break_continue,html.Screen,4_110_2,2023-11-01T19:09:31.550Z,,0,,,NaN,,,,,,false,,,,6885213,6885212,,6885212,,6885243,8,400,,,
sequence,flow.Sequence,4_110,2023-11-01T19:09:31.551Z,,0,,,3335,completion,,,,,false,,,,6885213,6885212,6881860,6881850,6881877,6885243,8,400,,,
trial,html.Screen,4_111_0,2023-11-01T19:09:35.631Z,,0,3,,4066,response,ISIC_4136591.JPG,15,ISIC_8624049.JPG,ISIC_4136591.JPG,false,1,keypress(m),500,6889293.000000001,6889292,6885226,6885213,6885243,6889327,8,400,12,,ISIC_8624049.JPG
break,html.Screen,4_111_1,2023-11-01T19:09:35.632Z,,0,,,NaN,,,,,,false,,,,6889295,6889294,,6889294,,6889327,8,400,,,
break_continue,html.Screen,4_111_2,2023-11-01T19:09:35.633Z,,0,,,NaN,,,,,,false,,,,6889295,6889295,,6889295,,6889327,8,400,,,
sequence,flow.Sequence,4_111,2023-11-01T19:09:35.633Z,,0,,,4052,completion,,,,,false,,,,6889296,6889295,6885226,6885213,6885243,6889327,8,400,,,
trial,html.Screen,4_112_0,2023-11-01T19:09:39.190Z,,0,3,,3541.0000000009313,response,ISIC_0056246.JPG,7,ISIC_0009958.JPG,ISIC_0009958.JPG,false,0,keypress(z),500,6892852,6892851.000000001,6889310,6889296,6889327,6892877,8,400,13,,ISIC_0056246.JPG
break,html.Screen,4_112_1,2023-11-01T19:09:39.191Z,,0,,,NaN,,,,,,false,,,,6892854,6892854,,6892853,,6892877,8,400,,,
break_continue,html.Screen,4_112_2,2023-11-01T19:09:39.191Z,,0,,,NaN,,,,,,false,,,,6892854,6892854,,6892854,,6892877,8,400,,,
sequence,flow.Sequence,4_112,2023-11-01T19:09:39.192Z,,0,,,3527,completion,,,,,false,,,,6892854,6892854,6889310,6889296,6889327,6892877,8,400,,,
trial,html.Screen,4_113_0,2023-11-01T19:09:47.029Z,,0,3,,7831,response,ISIC_7137995.JPG,7,ISIC_2805634.JPG,ISIC_7137995.JPG,false,1,keypress(m),500,6900692,6900691,6892860,6892855.000000001,6892877,6900727,8,400,14,,ISIC_2805634.JPG
break,html.Screen,4_113_1,2023-11-01T19:09:47.030Z,,0,,,NaN,,,,,,false,,,,6900693,6900693,,6900692,,6900727,8,400,,,
break_continue,html.Screen,4_113_2,2023-11-01T19:09:47.031Z,,0,,,NaN,,,,,,false,,,,6900694,6900694,,6900694,,6900727,8,400,,,
sequence,flow.Sequence,4_113,2023-11-01T19:09:47.031Z,,0,,,7817,completion,,,,,false,,,,6900694,6900694,6892860,6892855.000000001,6892877,6900727,8,400,,,
trial,html.Screen,4_114_0,2023-11-01T19:09:56.279Z,,0,3,,9231,response,ISIC_0030732.JPG,11,ISIC_0054640.JPG,ISIC_0030732.JPG,false,1,keypress(m),500,6909943,6909942,6900711,6900694,6900727,6909977,8,400,15,,ISIC_0054640.JPG
break,html.Screen,4_114_1,2023-11-01T19:09:56.281Z,,0,,,NaN,,,,,,false,,,,6909945,6909944,,6909943,,6909977,8,400,,,
break_continue,html.Screen,4_114_2,2023-11-01T19:09:56.282Z,,0,,,NaN,,,,,,false,,,,6909945,6909945,,6909945,,6909977,8,400,,,
sequence,flow.Sequence,4_114,2023-11-01T19:09:56.282Z,,0,,,9218,completion,,,,,false,,,,6909945,6909945,6900711,6900694,6900727,6909977,8,400,,,
trial,html.Screen,4_115_0,2023-11-01T19:09:59.502Z,,0,3,,3204,response,ISIC_7466678.JPG,8,ISIC_4079108.JPG,ISIC_4079108.JPG,false,0,keypress(z),500,6913166,6913165,6909961,6909946,6909977,6913194,8,400,16,,ISIC_7466678.JPG
break,html.Screen,4_115_1,2023-11-01T19:09:59.504Z,,0,,,NaN,,,,,,false,,,,6913167,6913167,,6913166,,6913194,8,400,,,
break_continue,html.Screen,4_115_2,2023-11-01T19:09:59.504Z,,0,,,NaN,,,,,,false,,,,6913168.000000001,6913168.000000001,,6913167,,6913194,8,400,,,
sequence,flow.Sequence,4_115,2023-11-01T19:09:59.504Z,,0,,,3191.0000000009313,completion,,,,,false,,,,6913168.000000001,6913168.000000001,6909961,6909946,6909977,6913194,8,400,,,
trial,html.Screen,4_116_0,2023-11-01T19:10:06.213Z,,0,3,,6699,response,ISIC_5942564.JPG,9,ISIC_0000164.JPG,ISIC_5942564.JPG,false,1,keypress(m),500,6919877,6919877,6913178,6913169,6913194,6919894,8,400,17,,ISIC_0000164.JPG
break,html.Screen,4_116_1,2023-11-01T19:10:06.215Z,,0,,,NaN,,,,,,false,,,,6919879,6919879,,6919878,,6919894,8,400,,,
break_continue,html.Screen,4_116_2,2023-11-01T19:10:06.215Z,,0,,,NaN,,,,,,false,,,,6919879,6919879,,6919879,,6919894,8,400,,,
sequence,flow.Sequence,4_116,2023-11-01T19:10:06.215Z,,0,,,6685,completion,,,,,false,,,,6919879,6919879,6913178,6913168.000000001,6913194,6919894,8,400,,,
trial,html.Screen,4_117_0,2023-11-01T19:10:10.164Z,,0,3,,3945,response,ISIC_0069986.JPG,5,ISIC_0000507.JPG,ISIC_0000507.JPG,false,0,keypress(z),500,6923828,6923827,6919882,6919880,6919894,6923861,8,400,18,,ISIC_0069986.JPG
break,html.Screen,4_117_1,2023-11-01T19:10:10.165Z,,0,,,NaN,,,,,,false,,,,6923829,6923829,,6923828,,6923861,8,400,,,
break_continue,html.Screen,4_117_2,2023-11-01T19:10:10.166Z,,0,,,NaN,,,,,,false,,,,6923830,6923830,,6923830,,6923861,8,400,,,
sequence,flow.Sequence,4_117,2023-11-01T19:10:10.166Z,,0,,,3936,completion,,,,,false,,,,6923831,6923830,6919882,6919879,6919894,6923861,8,400,,,
trial,html.Screen,4_118_0,2023-11-01T19:10:13.815Z,,0,3,,3634,response,ISIC_2798803.JPG,14,ISIC_5707761.JPG,ISIC_5707761.JPG,false,0,keypress(z),500,6927479,6927479,6923845,6923831,6923861,6927511,8,400,19,,ISIC_2798803.JPG
break,html.Screen,4_118_1,2023-11-01T19:10:13.816Z,,0,,,NaN,,,,,,false,,,,6927480.000000001,6927480.000000001,,6927480.000000001,,6927511,8,400,,,
break_continue,html.Screen,4_118_2,2023-11-01T19:10:13.817Z,,0,,,NaN,,,,,,false,,,,6927481,6927481,,6927481,,6927511,8,400,,,
sequence,flow.Sequence,4_118,2023-11-01T19:10:13.817Z,,0,,,3620,completion,,,,,false,,,,6927481,6927481,6923845,6923831,6923861,6927511,8,400,,,
trial,html.Screen,4_119_0,2023-11-01T19:10:17.276Z,,0,3,,3445.0000000009313,response,ISIC_9270367.JPG,9,ISIC_8822738.JPG,ISIC_9270367.JPG,false,1,keypress(m),500,6930941,6930940.000000001,6927495,6927481,6927511,6930978,8,400,20,,ISIC_8822738.JPG
break,html.Screen,4_119_1,2023-11-01T19:10:17.278Z,,0,,,NaN,,,,,,false,,,,6930942,6930942,,6930941,,6930978,8,400,,,
break_continue,html.Screen,4_119_2,2023-11-01T19:10:17.278Z,,0,,,NaN,,,,,,false,,,,6930943,6930942,,6930942,,6930978,8,400,,,
sequence,flow.Sequence,4_119,2023-11-01T19:10:17.279Z,,0,,,3431,completion,,,,,false,,,,6930943,6930942,6927495,6927481,6927511,6930978,8,400,,,
trial,html.Screen,4_120_0,2023-11-01T19:10:26.272Z,,0,3,,8975,response,ISIC_0006754.JPG,15,ISIC_4985027.JPG,ISIC_4985027.JPG,false,0,keypress(z),500,6939937,6939936,6930961,6930943,6930978,6939962,8,400,21,,ISIC_0006754.JPG
break,html.Screen,4_120_1,2023-11-01T19:10:26.274Z,,0,,,NaN,,,,,,false,,,,6939938,6939938,,6939938,,6939962,8,400,,,
break_continue,html.Screen,4_120_2,2023-11-01T19:10:26.274Z,,0,,,NaN,,,,,,false,,,,6939939,6939939,,6939939,,6939962,8,400,,,
sequence,flow.Sequence,4_120,2023-11-01T19:10:26.274Z,,0,,,8961,completion,,,,,false,,,,6939939,6939939,6930961,6930943,6930978,6939962,8,400,,,
trial,html.Screen,4_121_0,2023-11-01T19:10:32.547Z,,0,3,,6266,response,ISIC_0069264.JPG,10,ISIC_3493866.JPG,ISIC_3493866.JPG,false,0,keypress(z),500,6946212,6946211,6939945,6939939,6939962,6946245,8,400,22,,ISIC_0069264.JPG
break,html.Screen,4_121_1,2023-11-01T19:10:32.548Z,,0,,,NaN,,,,,,false,,,,6946213,6946213,,6946212,,6946245,8,400,,,
break_continue,html.Screen,4_121_2,2023-11-01T19:10:32.549Z,,0,,,NaN,,,,,,false,,,,6946214,6946214,,6946213,,6946245,8,400,,,
sequence,flow.Sequence,4_121,2023-11-01T19:10:32.549Z,,0,,,6252,completion,,,,,false,,,,6946214,6946214,6939945,6939939,6939962,6946245,8,400,,,
trial,html.Screen,4_122_0,2023-11-01T19:10:35.489Z,,0,3,,2924,response,ISIC_2843983.JPG,14,ISIC_0066678.JPG,ISIC_2843983.JPG,false,1,keypress(m),500,6949154,6949153,6946229,6946214,6946245,6949179,8,400,23,,ISIC_0066678.JPG
break,html.Screen,4_122_1,2023-11-01T19:10:35.490Z,,0,,,NaN,,,,,,false,,,,6949155,6949155,,6949154,,6949179,8,400,,,
break_continue,html.Screen,4_122_2,2023-11-01T19:10:35.491Z,,0,,,NaN,,,,,,false,,,,6949156,6949156,,6949155,,6949179,8,400,,,
sequence,flow.Sequence,4_122,2023-11-01T19:10:35.491Z,,0,,,2911,completion,,,,,false,,,,6949156,6949156,6946229,6946214,6946245,6949179,8,400,,,
trial,html.Screen,4_123_0,2023-11-01T19:10:40.602Z,,0,3,,5105,response,ISIC_4393521.JPG,8,ISIC_0046458.JPG,ISIC_0046458.JPG,false,0,keypress(z),500,6954267,6954267,6949162,6949156,6949179,6954296,8,400,24,,ISIC_4393521.JPG
break,html.Screen,4_123_1,2023-11-01T19:10:40.603Z,,0,,,NaN,,,,,,false,,,,6954269,6954268,,6954268,,6954296,8,400,,,
break_continue,html.Screen,4_123_2,2023-11-01T19:10:40.604Z,,0,,,NaN,,,,,,false,,,,6954269,6954269,,6954269,,6954296,8,400,,,
sequence,flow.Sequence,4_123,2023-11-01T19:10:40.604Z,,0,,,5090,completion,,,,,false,,,,6954269,6954269,6949162,6949156,6949179,6954296,8,400,,,
trial,html.Screen,4_124_0,2023-11-01T19:10:46.621Z,,0,3,,6008,response,ISIC_0066659.JPG,10,ISIC_4819371.JPG,ISIC_4819371.JPG,false,0,keypress(z),500,6960287,6960287,6954279,6954270,6954296,6960313,8,400,25,,ISIC_0066659.JPG
break,html.Screen,4_124_1,2023-11-01T19:10:46.623Z,,0,,,NaN,,,,,,false,,,,6960289,6960288,,6960288,,6960313,8,400,,,
break_continue,html.Screen,4_124_2,2023-11-01T19:10:46.623Z,,0,,,NaN,,,,,,false,,,,6960289,6960289,,6960289,,6960313,8,400,,,
sequence,flow.Sequence,4_124,2023-11-01T19:10:46.624Z,,0,,,5993,completion,,,,,false,,,,6960289,6960289,6954279,6954270,6954296,6960313,8,400,,,
trial,html.Screen,4_125_0,2023-11-01T19:10:52.657Z,,0,3,,6027,response,ISIC_9940466.JPG,6,ISIC_4348994.JPG,ISIC_4348994.JPG,false,0,keypress(z),500,6966323,6966323,6960296,6960290,6960313,6966346,8,400,26,,ISIC_9940466.JPG
break,html.Screen,4_125_1,2023-11-01T19:10:52.659Z,,0,,,NaN,,,,,,false,,,,6966325,6966325,,6966324.000000001,,6966346,8,400,,,
break_continue,html.Screen,4_125_2,2023-11-01T19:10:52.660Z,,0,,,NaN,,,,,,false,,,,6966326,6966325,,6966325,,6966346,8,400,,,
sequence,flow.Sequence,4_125,2023-11-01T19:10:52.660Z,,0,,,6012,completion,,,,,false,,,,6966326,6966325,6960296,6960290,6960313,6966346,8,400,,,
trial,html.Screen,4_126_0,2023-11-01T19:10:56.115Z,,0,3,,3451,response,ISIC_0011862.JPG,9,ISIC_0004558.JPG,ISIC_0004558.JPG,false,0,keypress(z),500,6969781,6969780,6966329,6966326,6966346,6969813,8,400,27,,ISIC_0011862.JPG
break,html.Screen,4_126_1,2023-11-01T19:10:56.116Z,,0,,,NaN,,,,,,false,,,,6969782,6969782,,6969781,,6969813,8,400,,,
break_continue,html.Screen,4_126_2,2023-11-01T19:10:56.116Z,,0,,,NaN,,,,,,false,,,,6969783,6969782,,6969782,,6969813,8,400,,,
sequence,flow.Sequence,4_126,2023-11-01T19:10:56.117Z,,0,,,3436,completion,,,,,false,,,,6969783,6969782,6966329,6966326,6966346,6969813,8,400,,,
trial,html.Screen,4_127_0,2023-11-01T19:10:59.883Z,,0,3,,3753,response,ISIC_8621568.JPG,8,ISIC_5242216.JPG,ISIC_5242216.JPG,false,0,keypress(z),500,6973550,6973549,6969796,6969783,6969813,6973580,8,400,28,,ISIC_8621568.JPG
break,html.Screen,4_127_1,2023-11-01T19:10:59.884Z,,0,,,NaN,,,,,,false,,,,6973551,6973550,,6973550,,6973580,8,400,,,
break_continue,html.Screen,4_127_2,2023-11-01T19:10:59.885Z,,0,,,NaN,,,,,,false,,,,6973551,6973551,,6973551,,6973580,8,400,,,
sequence,flow.Sequence,4_127,2023-11-01T19:10:59.885Z,,0,,,3738,completion,,,,,false,,,,6973551,6973551,6969796,6969783,6969813,6973580,8,400,,,
trial,html.Screen,4_128_0,2023-11-01T19:11:04.998Z,,0,3,,5101,response,ISIC_0519719.JPG,6,ISIC_2481044.JPG,ISIC_2481044.JPG,false,0,keypress(z),500,6978665,6978664,6973563,6973551,6973580,6978697,8,400,29,,ISIC_0519719.JPG
break,html.Screen,4_128_1,2023-11-01T19:11:04.999Z,,0,,,NaN,,,,,,false,,,,6978666,6978666,,6978665,,6978697,8,400,,,
break_continue,html.Screen,4_128_2,2023-11-01T19:11:05.000Z,,0,,,NaN,,,,,,false,,,,6978666,6978666,,6978666,,6978697,8,400,,,
sequence,flow.Sequence,4_128,2023-11-01T19:11:05.000Z,,0,,,5086,completion,,,,,false,,,,6978666,6978666,6973563,6973551,6973580,6978697,8,400,,,
trial,html.Screen,4_129_0,2023-11-01T19:11:09.307Z,,0,3,,4293,response,ISIC_8684147.JPG,6,ISIC_0060832.JPG,ISIC_8684147.JPG,false,1,keypress(m),500,6982974,6982973,6978680,6978667,6978697,6982997,8,400,30,,ISIC_0060832.JPG
break,html.Screen,4_129_1,2023-11-01T19:11:09.308Z,,0,,,NaN,,,,,,false,,,,6982975,6982975,,6982974,,6982997,8,400,,,
break_continue,html.Screen,4_129_2,2023-11-01T19:11:09.309Z,,0,,,NaN,,,,,,false,,,,6982976.000000001,6982975,,6982975,,6982997,8,400,,,
sequence,flow.Sequence,4_129,2023-11-01T19:11:09.309Z,,0,,,4278,completion,,,,,false,,,,6982976.000000001,6982975,6978680,6978667,6978697,6982997,8,400,,,
trial,html.Screen,4_130_0,2023-11-01T19:11:12.723Z,,0,3,,3409,response,ISIC_0010034.JPG,3,ISIC_0070814.JPG,ISIC_0070814.JPG,false,0,keypress(z),500,6986390,6986389,6982980,6982976.000000001,6982997,6986414,8,400,31,,ISIC_0010034.JPG
break,html.Screen,4_130_1,2023-11-01T19:11:12.724Z,,0,,,NaN,,,,,,false,,,,6986391.000000001,6986391.000000001,,6986390,,6986414,8,400,,,
break_continue,html.Screen,4_130_2,2023-11-01T19:11:12.725Z,,0,,,NaN,,,,,,false,,,,6986392,6986391.000000001,,6986391.000000001,,6986414,8,400,,,
sequence,flow.Sequence,4_130,2023-11-01T19:11:12.725Z,,0,,,3394.0000000009313,completion,,,,,false,,,,6986392,6986391.000000001,6982980,6982976.000000001,6982997,6986414,8,400,,,
trial,html.Screen,4_131_0,2023-11-01T19:11:16.300Z,,0,3,,3568,response,ISIC_4619903.JPG,1,ISIC_7973601.JPG,ISIC_7973601.JPG,false,0,keypress(z),500,6989967.000000001,6989966,6986398,6986392,6986414,6989997,8,400,32,,ISIC_4619903.JPG
break,html.Screen,4_131_1,2023-11-01T19:11:16.301Z,,0,,,NaN,,,,,,false,,,,6989968,6989968,,6989967.000000001,,6989997,8,400,,,
break_continue,html.Screen,4_131_2,2023-11-01T19:11:16.302Z,,0,,,NaN,,,,,,false,,,,6989969,6989969,,6989969,,6989997,8,400,,,
sequence,flow.Sequence,4_131,2023-11-01T19:11:16.302Z,,0,,,3555,completion,,,,,false,,,,6989969,6989969,6986398,6986392,6986414,6989997,8,400,,,
trial,html.Screen,4_132_0,2023-11-01T19:11:20.339Z,,0,3,,4026,response,ISIC_3814807.JPG,11,ISIC_0069385.JPG,ISIC_3814807.JPG,false,1,keypress(m),500,6994007.000000001,6994006,6989980,6989969,6989997,6994030,8,400,33,,ISIC_0069385.JPG
break,html.Screen,4_132_1,2023-11-01T19:11:20.341Z,,0,,,NaN,,,,,,false,,,,6994008,6994008,,6994007.000000001,,6994030,8,400,,,
break_continue,html.Screen,4_132_2,2023-11-01T19:11:20.341Z,,0,,,NaN,,,,,,false,,,,6994008,6994008,,6994008,,6994030,8,400,,,
sequence,flow.Sequence,4_132,2023-11-01T19:11:20.342Z,,0,,,4011,completion,,,,,false,,,,6994009,6994008,6989980,6989969,6989997,6994030,8,400,,,
trial,html.Screen,4_133_0,2023-11-01T19:11:24.312Z,,0,3,,3965,response,ISIC_5563553.JPG,6,ISIC_1605629.JPG,ISIC_5563553.JPG,false,1,keypress(m),500,6997979,6997978,6994013,6994009,6994030,6998014,8,400,34,,ISIC_1605629.JPG
break,html.Screen,4_133_1,2023-11-01T19:11:24.313Z,,0,,,NaN,,,,,,false,,,,6997981,6997980.000000001,,6997979,,6998014,8,400,,,
break_continue,html.Screen,4_133_2,2023-11-01T19:11:24.314Z,,0,,,NaN,,,,,,false,,,,6997981,6997981,,6997981,,6998014,8,400,,,
sequence,flow.Sequence,4_133,2023-11-01T19:11:24.314Z,,0,,,3951,completion,,,,,false,,,,6997982,6997981,6994013,6994009,6994030,6998014,8,400,,,
trial,html.Screen,4_134_0,2023-11-01T19:11:32.383Z,,0,3,,8054,response,ISIC_0063493.JPG,10,ISIC_0024321.JPG,ISIC_0024321.JPG,false,0,keypress(z),500,7006051,7006051,6997997,6997982,6998014,7006081,8,400,35,,ISIC_0063493.JPG
break,html.Screen,4_134_1,2023-11-01T19:11:32.385Z,,0,,,NaN,,,,,,false,,,,7006053,7006052.000000001,,7006051,,7006081,8,400,,,
break_continue,html.Screen,4_134_2,2023-11-01T19:11:32.385Z,,0,,,NaN,,,,,,false,,,,7006053,7006053,,7006053,,7006081,8,400,,,
sequence,flow.Sequence,4_134,2023-11-01T19:11:32.386Z,,0,,,8039,completion,,,,,false,,,,7006053,7006053,6997997,6997982,6998014,7006081,8,400,,,
trial,html.Screen,4_135_0,2023-11-01T19:11:36.341Z,,0,3,,3944,response,ISIC_3590997.JPG,7,ISIC_0062325.JPG,ISIC_3590997.JPG,false,1,keypress(m),500,7010009,7010008,7006064,7006054,7006081,7010031,8,400,36,,ISIC_0062325.JPG
break,html.Screen,4_135_1,2023-11-01T19:11:36.342Z,,0,,,NaN,,,,,,false,,,,7010010,7010010,,7010009,,7010031,8,400,,,
break_continue,html.Screen,4_135_2,2023-11-01T19:11:36.343Z,,0,,,NaN,,,,,,false,,,,7010011,7010011,,7010010,,7010031,8,400,,,
sequence,flow.Sequence,4_135,2023-11-01T19:11:36.343Z,,0,,,3930,completion,,,,,false,,,,7010011,7010011,7006064,7006054,7006081,7010031,8,400,,,
trial,html.Screen,4_136_0,2023-11-01T19:11:39.803Z,,0,3,,3457,response,ISIC_0031184.JPG,9,ISIC_6207688.JPG,ISIC_6207688.JPG,false,0,keypress(z),500,7013471,7013471,7010014,7010011,7010031,7013498,8,400,37,,ISIC_0031184.JPG
break,html.Screen,4_136_1,2023-11-01T19:11:39.804Z,,0,,,NaN,,,,,,false,,,,7013473,7013472,,7013472,,7013498,8,400,,,
break_continue,html.Screen,4_136_2,2023-11-01T19:11:39.805Z,,0,,,NaN,,,,,,false,,,,7013473,7013473,,7013473,,7013498,8,400,,,
sequence,flow.Sequence,4_136,2023-11-01T19:11:39.805Z,,0,,,3442,completion,,,,,false,,,,7013473,7013473,7010014,7010011,7010031,7013498,8,400,,,
trial,html.Screen,4_137_0,2023-11-01T19:11:45.412Z,,0,3,,5600,response,ISIC_2287151.JPG,8,ISIC_3372750.JPG,ISIC_2287151.JPG,false,1,keypress(m),500,7019080,7019080,7013480,7013474,7013498,7019115,8,400,38,,ISIC_3372750.JPG
break,html.Screen,4_137_1,2023-11-01T19:11:45.413Z,,0,,,NaN,,,,,,false,,,,7019082,7019081,,7019081,,7019115,8,400,,,
break_continue,html.Screen,4_137_2,2023-11-01T19:11:45.414Z,,0,,,NaN,,,,,,false,,,,7019082,7019082,,7019082,,7019115,8,400,,,
sequence,flow.Sequence,4_137,2023-11-01T19:11:45.414Z,,0,,,5584,completion,,,,,false,,,,7019082,7019082,7013480,7013474,7013498,7019115,8,400,,,
trial,html.Screen,4_138_0,2023-11-01T19:11:50.826Z,,0,3,,5396.000000000931,response,ISIC_7129901.JPG,10,ISIC_9412963.JPG,ISIC_7129901.JPG,false,1,keypress(m),500,7024495,7024494.000000001,7019098,7019082,7019115,7024531,8,400,39,,ISIC_9412963.JPG
break,html.Screen,4_138_1,2023-11-01T19:11:50.827Z,,0,,,NaN,,,,,,false,,,,7024496,7024496,,7024495,,7024531,8,400,,,
break_continue,html.Screen,4_138_2,2023-11-01T19:11:50.828Z,,0,,,NaN,,,,,,false,,,,7024496,7024496,,7024496,,7024531,8,400,,,
sequence,flow.Sequence,4_138,2023-11-01T19:11:50.828Z,,0,,,5381,completion,,,,,false,,,,7024497,7024496,7019098,7019082,7019115,7024531,8,400,,,
trial,html.Screen,4_139_0,2023-11-01T19:11:55.629Z,,0,3,,4782.000000000931,response,ISIC_9174306.JPG,5,ISIC_9088774.JPG,ISIC_9174306.JPG,false,1,keypress(m),500,7029297.000000001,7029297.000000001,7024515,7024497,7024531,7029332,8,400,40,,ISIC_9088774.JPG
break,html.Screen,4_139_1,2023-11-01T19:11:55.630Z,,0,,,NaN,,,,,,false,,,,7029299,7029299,,7029298,,7029332,8,400,,,
break_continue,html.Screen,4_139_2,2023-11-01T19:11:55.631Z,,0,,,NaN,,,,,,false,,,,7029300,7029299,,7029299,,7029332,8,400,,,
sequence,flow.Sequence,4_139,2023-11-01T19:11:55.631Z,,0,,,4768,completion,,,,,false,,,,7029300,7029299,7024515,7024497,7024531,7029332,8,400,,,
trial,html.Screen,4_140_0,2023-11-01T19:11:59.594Z,,0,3,,3948,response,ISIC_3945116.JPG,10,ISIC_0005686.JPG,ISIC_3945116.JPG,false,1,keypress(m),500,7033263,7033263,7029315,7029300,7029332,7033299,8,400,41,,ISIC_0005686.JPG
break,html.Screen,4_140_1,2023-11-01T19:11:59.596Z,,0,,,NaN,,,,,,false,,,,7033265,7033264,,7033264,,7033299,8,400,,,
break_continue,html.Screen,4_140_2,2023-11-01T19:11:59.596Z,,0,,,NaN,,,,,,false,,,,7033265,7033265,,7033265,,7033299,8,400,,,
sequence,flow.Sequence,4_140,2023-11-01T19:11:59.596Z,,0,,,3933,completion,,,,,false,,,,7033265,7033265,7029315,7029300,7029332,7033299,8,400,,,
trial,html.Screen,4_141_0,2023-11-01T19:12:02.522Z,,0,3,,2909,response,ISIC_0012512.JPG,6,ISIC_1217314.JPG,ISIC_1217314.JPG,false,0,keypress(z),500,7036191,7036191,7033282,7033266.000000001,7033299,7036215,8,400,42,,ISIC_0012512.JPG
break,html.Screen,4_141_1,2023-11-01T19:12:02.524Z,,0,,,NaN,,,,,,false,,,,7036193,7036193,,7036192,,7036215,8,400,,,
break_continue,html.Screen,4_141_2,2023-11-01T19:12:02.524Z,,0,,,NaN,,,,,,false,,,,7036194,7036193,,7036193,,7036215,8,400,,,
sequence,flow.Sequence,4_141,2023-11-01T19:12:02.525Z,,0,,,2894,completion,,,,,false,,,,7036194,7036193,7033282,7033265,7033299,7036215,8,400,,,
trial,html.Screen,4_142_0,2023-11-01T19:12:08.367Z,,0,3,,5838,response,ISIC_7694069.JPG,9,ISIC_0057753.JPG,ISIC_0057753.JPG,false,0,keypress(z),500,7042036,7042036,7036198,7036194,7036215,7042065,8,400,43,,ISIC_7694069.JPG
break,html.Screen,4_142_1,2023-11-01T19:12:08.368Z,,0,,,NaN,,,,,,false,,,,7042038,7042037,,7042037,,7042065,8,400,,,
break_continue,html.Screen,4_142_2,2023-11-01T19:12:08.369Z,,0,,,NaN,,,,,,false,,,,7042038,7042038,,7042038,,7042065,8,400,,,
sequence,flow.Sequence,4_142,2023-11-01T19:12:08.369Z,,0,,,5823,completion,,,,,false,,,,7042038,7042038,7036198,7036194,7036215,7042065,8,400,,,
trial,html.Screen,4_143_0,2023-11-01T19:12:13.285Z,,0,3,,4905,response,ISIC_0065022.JPG,9,ISIC_0004996.JPG,ISIC_0004996.JPG,false,0,keypress(z),500,7046955,7046954,7042049,7042039,7042065,7046982,8,400,44,,ISIC_0065022.JPG
break,html.Screen,4_143_1,2023-11-01T19:12:13.287Z,,0,,,NaN,,,,,,false,,,,7046956,7046956,,7046955,,7046982,8,400,,,
break_continue,html.Screen,4_143_2,2023-11-01T19:12:13.287Z,,0,,,NaN,,,,,,false,,,,7046957,7046956,,7046956,,7046982,8,400,,,
sequence,flow.Sequence,4_143,2023-11-01T19:12:13.287Z,,0,,,4891,completion,,,,,false,,,,7046957,7046956,7042049,7042038,7042065,7046982,8,400,,,
trial,html.Screen,4_144_0,2023-11-01T19:12:24.763Z,,0,3,,11468,response,ISIC_6385074.JPG,8,ISIC_3948754.JPG,ISIC_6385074.JPG,false,1,keypress(m),500,7058433,7058433,7046965,7046957,7046982,7058449,8,400,45,,ISIC_3948754.JPG
break,html.Screen,4_144_1,2023-11-01T19:12:24.764Z,,0,,,NaN,,,,,,false,,,,7058435,7058434,,7058434,,7058449,8,400,,,
break_continue,html.Screen,4_144_2,2023-11-01T19:12:24.765Z,,0,,,NaN,,,,,,false,,,,7058435,7058435,,7058435,,7058449,8,400,,,
sequence,flow.Sequence,4_144,2023-11-01T19:12:24.765Z,,0,,,11453,completion,,,,,false,,,,7058435,7058435,7046965,7046957,7046982,7058449,8,400,,,
trial,html.Screen,4_145_0,2023-11-01T19:12:27.815Z,,0,3,,3046,response,ISIC_0064393.JPG,10,ISIC_0027061.JPG,ISIC_0027061.JPG,false,0,keypress(z),500,7061485.000000001,7061484,7058438,7058436,7058449,7061516,8,400,46,,ISIC_0064393.JPG
break,html.Screen,4_145_1,2023-11-01T19:12:27.816Z,,0,,,NaN,,,,,,false,,,,7061486,7061486,,7061485.000000001,,7061516,8,400,,,
break_continue,html.Screen,4_145_2,2023-11-01T19:12:27.816Z,,0,,,NaN,,,,,,false,,,,7061487,7061486,,7061486,,7061516,8,400,,,
sequence,flow.Sequence,4_145,2023-11-01T19:12:27.817Z,,0,,,3037,completion,,,,,false,,,,7061487,7061486,7058438,7058435,7058449,7061516,8,400,,,
trial,html.Screen,4_146_0,2023-11-01T19:12:31.275Z,,0,3,,3445,response,ISIC_4187485.JPG,8,ISIC_3019509.JPG,ISIC_4187485.JPG,false,1,keypress(m),500,7064946,7064945,7061500,7061487,7061516,7064983,8,400,47,,ISIC_3019509.JPG
break,html.Screen,4_146_1,2023-11-01T19:12:31.277Z,,0,,,NaN,,,,,,false,,,,7064947,7064947,,7064946,,7064983,8,400,,,
break_continue,html.Screen,4_146_2,2023-11-01T19:12:31.277Z,,0,,,NaN,,,,,,false,,,,7064947,7064947,,7064947,,7064983,8,400,,,
sequence,flow.Sequence,4_146,2023-11-01T19:12:31.277Z,,0,,,3431,completion,,,,,false,,,,7064948,7064947,7061500,7061487,7061516,7064983,8,400,,,
trial,html.Screen,4_147_0,2023-11-01T19:12:34.213Z,,0,3,,2917,response,ISIC_0033893.JPG,4,ISIC_0068299.JPG,ISIC_0068299.JPG,false,0,keypress(z),500,7067884,7067883,7064966,7064948,7064983,7067916,8,400,48,,ISIC_0033893.JPG
break,html.Screen,4_147_1,2023-11-01T19:12:34.214Z,,0,,,NaN,,,,,,false,,,,7067885,7067885,,7067884,,7067916,8,400,,,
break_continue,html.Screen,4_147_2,2023-11-01T19:12:34.215Z,,0,,,NaN,,,,,,false,,,,7067885,7067885,,7067885,,7067916,8,400,,,
sequence,flow.Sequence,4_147,2023-11-01T19:12:34.215Z,,0,,,2902,completion,,,,,false,,,,7067885,7067885,7064966,7064948,7064983,7067916,8,400,,,
trial,html.Screen,4_148_0,2023-11-01T19:12:37.113Z,,0,3,,2883,response,ISIC_0026545.JPG,8,ISIC_1287370.JPG,ISIC_0026545.JPG,false,1,keypress(m),500,7070784.000000001,7070783,7067900,7067885,7067916,7070817,8,400,49,,ISIC_1287370.JPG
break,html.Screen,4_148_1,2023-11-01T19:12:37.114Z,,0,,,NaN,,,,,,false,,,,7070785,7070785,,7070784.000000001,,7070817,8,400,,,
break_continue,html.Screen,4_148_2,2023-11-01T19:12:37.115Z,,0,,,NaN,,,,,,false,,,,7070786,7070785,,7070785,,7070817,8,400,,,
sequence,flow.Sequence,4_148,2023-11-01T19:12:37.115Z,,0,,,2869,completion,,,,,false,,,,7070786,7070785,7067900,7067885,7067916,7070817,8,400,,,
trial,html.Screen,4_149_0,2023-11-01T19:12:40.224Z,,0,3,,3094,response,ISIC_1043267.JPG,8,ISIC_8452205.JPG,ISIC_8452205.JPG,false,0,keypress(z),500,7073895,7073894,7070800,7070786,7070817,7073917,8,400,50,,ISIC_1043267.JPG
break,html.Screen,4_149_1,2023-11-01T19:12:50.230Z,,0,,,10000,timeout,,,,,false,,,,7083901,7083900,7073899,7073895,7073917,7083917,8,400,,,
break_continue,html.Screen,4_149_2,2023-11-01T19:12:51.990Z,,0,,,1854,response,,,,,false,continue,keypress(Space),,7085662,7085754,7083900,7083902,7083917,7085684,8,400,,,
sequence,flow.Sequence,4_149,2023-11-01T19:12:51.990Z,,0,,,14937,completion,,,,,false,,,,7085662,7085754,7070800,7070786,7070817,7085684,8,400,,,
trial,html.Screen,4_150_0,2023-11-01T19:12:55.197Z,,0,4,,3202,response,ISIC_5578611.JPG,16,ISIC_0064563.JPG,ISIC_5578611.JPG,false,1,keypress(m),500,7088869.000000001,7088868,7085666,7085662,7085684,7088901,8,400,1,,ISIC_0064563.JPG
break,html.Screen,4_150_1,2023-11-01T19:12:55.199Z,,0,,,NaN,,,,,,false,,,,7088870,7088870,,7088869.000000001,,7088901,8,400,,,
break_continue,html.Screen,4_150_2,2023-11-01T19:12:55.199Z,,0,,,NaN,,,,,,false,,,,7088871,7088870,,7088870,,7088901,8,400,,,
sequence,flow.Sequence,4_150,2023-11-01T19:12:55.200Z,,0,,,3186,completion,,,,,false,,,,7088871,7088870,7085666,7085662,7085684,7088901,8,400,,,
trial,html.Screen,4_151_0,2023-11-01T19:12:58.818Z,,0,4,,3605.0000000009313,response,ISIC_0062463.JPG,9,ISIC_0034173.JPG,ISIC_0034173.JPG,false,0,keypress(z),500,7092490,7092489.000000001,7088884,7088871,7088901,7092518,8,400,2,,ISIC_0062463.JPG
break,html.Screen,4_151_1,2023-11-01T19:12:58.819Z,,0,,,NaN,,,,,,false,,,,7092491,7092491,,7092490,,7092518,8,400,,,
break_continue,html.Screen,4_151_2,2023-11-01T19:12:58.820Z,,0,,,NaN,,,,,,false,,,,7092491,7092491,,7092491,,7092518,8,400,,,
sequence,flow.Sequence,4_151,2023-11-01T19:12:58.820Z,,0,,,3590,completion,,,,,false,,,,7092492,7092491,7088884,7088871,7088901,7092518,8,400,,,
trial,html.Screen,4_152_0,2023-11-01T19:13:02.342Z,,0,4,,3512,response,ISIC_0011077.JPG,8,ISIC_7168122.JPG,ISIC_7168122.JPG,false,0,keypress(z),500,7096014,7096013,7092501,7092492,7092518,7096051,8,400,3,,ISIC_0011077.JPG
break,html.Screen,4_152_1,2023-11-01T19:13:02.343Z,,0,,,NaN,,,,,,false,,,,7096015,7096015,,7096014,,7096051,8,400,,,
break_continue,html.Screen,4_152_2,2023-11-01T19:13:02.344Z,,0,,,NaN,,,,,,false,,,,7096015,7096015,,7096015,,7096051,8,400,,,
sequence,flow.Sequence,4_152,2023-11-01T19:13:02.344Z,,0,,,3497,completion,,,,,false,,,,7096016.000000001,7096015,7092501,7092492,7092518,7096051,8,400,,,
trial,html.Screen,4_153_0,2023-11-01T19:13:05.536Z,,0,4,,3173,response,ISIC_0027585.JPG,10,ISIC_0316668.JPG,ISIC_0316668.JPG,false,0,keypress(z),500,7099208.000000001,7099207,7096034,7096016.000000001,7096051,7099234,8,400,4,,ISIC_0027585.JPG
break,html.Screen,4_153_1,2023-11-01T19:13:05.537Z,,0,,,NaN,,,,,,false,,,,7099209,7099209,,7099208.000000001,,7099234,8,400,,,
break_continue,html.Screen,4_153_2,2023-11-01T19:13:05.537Z,,0,,,NaN,,,,,,false,,,,7099209,7099209,,7099209,,7099234,8,400,,,
sequence,flow.Sequence,4_153,2023-11-01T19:13:05.538Z,,0,,,3158,completion,,,,,false,,,,7099210,7099209,7096034,7096016.000000001,7096051,7099234,8,400,,,
trial,html.Screen,4_154_0,2023-11-01T19:13:09.050Z,,0,4,,3503,response,ISIC_7185036.JPG,10,ISIC_8626941.JPG,ISIC_7185036.JPG,false,1,keypress(m),500,7102722,7102721,7099218,7099210,7099234,7102751,8,400,5,,ISIC_8626941.JPG
break,html.Screen,4_154_1,2023-11-01T19:13:09.051Z,,0,,,NaN,,,,,,false,,,,7102723,7102723,,7102722,,7102751,8,400,,,
break_continue,html.Screen,4_154_2,2023-11-01T19:13:09.051Z,,0,,,NaN,,,,,,false,,,,7102723,7102723,,7102723,,7102751,8,400,,,
sequence,flow.Sequence,4_154,2023-11-01T19:13:09.052Z,,0,,,3489,completion,,,,,false,,,,7102724,7102723,7099218,7099210,7099234,7102751,8,400,,,
trial,html.Screen,4_155_0,2023-11-01T19:13:12.143Z,,0,4,,3079,response,ISIC_0056316.JPG,4,ISIC_0003550.JPG,ISIC_0003550.JPG,false,0,keypress(z),500,7105815.000000001,7105814,7102735,7102724,7102751,7105851,8,400,6,,ISIC_0056316.JPG
break,html.Screen,4_155_1,2023-11-01T19:13:12.144Z,,0,,,NaN,,,,,,false,,,,7105817,7105816,,7105815.000000001,,7105851,8,400,,,
break_continue,html.Screen,4_155_2,2023-11-01T19:13:12.145Z,,0,,,NaN,,,,,,false,,,,7105817,7105817,,7105817,,7105851,8,400,,,
sequence,flow.Sequence,4_155,2023-11-01T19:13:12.145Z,,0,,,3066,completion,,,,,false,,,,7105817,7105817,7102735,7102724,7102751,7105851,8,400,,,
