sender,sender_type,sender_id,timestamp,meta,,blockNo,condition,duration,ended_on,img_left,img_reveal,img_right,loser,practice,response,response_action,selection_duration,time_commit,time_end,time_render,time_run,time_show,time_switch,total_blocks,total_trials,trialNo,url,winner
informed_consent,html.Screen,0,2023-09-08T19:59:03.166Z,"{""labjs_version"":""20.2.4"",""labjs_build"":{""flavor"":""production"",""commit"":""f5b4a49f956347addd546a832a3327688c2c0fef""},""location"":""https://run.pavlovia.org/MurrayBennett/melanoma-2afc/?participant=5dc592c6aa431440aa755d5b&STUDY_ID=64f8c92207ba404bcb356c90&SESSION_ID=64fb7cfcc3fa37bfcf03fd70&platform=prolific"",""userAgent"":""Mozilla/5.0 (Macintosh; Intel Mac OS X 10_15_7) AppleWebKit/605.1.15 (KHTML, like Gecko) Version/16.6 Safari/605.1.15"",""platform"":""MacIntel"",""language"":""en-US"",""locale"":""en-US"",""timeZone"":""America/Chicago"",""timezoneOffset"":300,""screen_width"":1280,""screen_height"":800,""scroll_width"":1113,""scroll_height"":579,""window_innerWidth"":1113,""window_innerHeight"":626,""devicePixelRatio"":2}",,,,2686,response,,,,,,consent,click button,,5149,5119,2433,2420,2440,5189,,,,"{""participant"":""5dc592c6aa431440aa755d5b"",""STUDY_ID"":""64f8c92207ba404bcb356c90"",""SESSION_ID"":""64fb7cfcc3fa37bfcf03fd70"",""platform"":""prolific""}",
Welcome,html.Screen,1,2023-09-08T19:59:08.394Z,,,,irregular,5229.000000000002,response,,,,,,continue,click button,,10378,10386.000000000002,5157,5149,5189,10423,,,,,
trial,html.Screen,2_0_0,2023-09-08T19:59:14.582Z,,0,0,,6174,response,ISIC_0061792.JPG,,ISIC_4679428.JPG,ISIC_0061792.JPG,true,1,keypress(m),500,16565,16565,10391,10378,10423,16606,1,6,1,,ISIC_4679428.JPG
sequence,flow.Sequence,2_0,2023-09-08T19:59:14.582Z,,0,,,6142,completion,,,,,true,,,,16566,16565,10391,10378,10423,16606,1,6,,,
trial,html.Screen,2_1_0,2023-09-08T19:59:19.618Z,,0,0,,5028,response,ISIC_0776486.JPG,,ISIC_5199497.JPG,ISIC_5199497.JPG,true,0,keypress(z),500,21602,21601,16573,16566,16606,21656,1,6,2,,ISIC_0776486.JPG
sequence,flow.Sequence,2_1,2023-09-08T19:59:19.618Z,,0,,,4995,completion,,,,,true,,,,21602,21601,16573,16566,16606,21656,1,6,,,
trial,html.Screen,2_2_0,2023-09-08T19:59:23.265Z,,0,0,,3618,response,ISIC_8575776.JPG,,ISIC_2556187.JPG,ISIC_8575776.JPG,true,1,keypress(m),500,25249,25248,21630,21602,21656,25289,1,6,3,,ISIC_2556187.JPG
sequence,flow.Sequence,2_2,2023-09-08T19:59:23.266Z,,0,,,3592,completion,,,,,true,,,,25250,25248,21630,21602,21656,25289,1,6,,,
trial,html.Screen,2_3_0,2023-09-08T19:59:26.514Z,,0,0,,3241,response,ISIC_8141769.JPG,,ISIC_9238366.JPG,ISIC_9238366.JPG,true,0,keypress(z),500,28498,28497,25256,25250,25289,28539,1,6,4,,ISIC_8141769.JPG
sequence,flow.Sequence,2_3,2023-09-08T19:59:26.514Z,,0,,,3208,completion,,,,,true,,,,28498,28497,25256,25250,25289,28539,1,6,,,
trial,html.Screen,2_4_0,2023-09-08T19:59:29.545Z,,0,0,,3024,response,ISIC_8949026.JPG,,ISIC_9959593.JPG,ISIC_8949026.JPG,true,1,keypress(m),500,31529,31529,28505,28499.000000000004,28539,31573,1,6,5,,ISIC_9959593.JPG
sequence,flow.Sequence,2_4,2023-09-08T19:59:29.546Z,,0,,,2990,completion,,,,,true,,,,31530,31529,28505,28499.000000000004,28539,31573,1,6,,,
trial,html.Screen,2_5_0,2023-09-08T19:59:32.435Z,,0,0,,2879.0000000000073,response,ISIC_0010479.JPG,,ISIC_0460240.JPG,ISIC_0460240.JPG,true,0,keypress(z),500,34419.00000000001,34419.00000000001,31540,31530,31573,34473,1,6,6,,ISIC_0010479.JPG
sequence,flow.Sequence,2_5,2023-09-08T19:59:32.436Z,,0,,,2846.0000000000073,completion,,,,,true,,,,34420,34419.00000000001,31540,31530,31573,34473,1,6,,,
loop,flow.Loop,2,2023-09-08T19:59:32.436Z,,,,,23996.000000000007,completion,,,,,true,,,,34420,34419.00000000001,10391,10378,10423,34473,1,6,,,
exp_instructions,html.Screen,3,2023-09-08T19:59:38.485Z,,,,,6038,response,,,,,,continue,keypress(Space),,40469,40478,34440,34420,34473,40523,,,,,
trial,html.Screen,4_0_0,2023-09-08T19:59:41.585Z,,0,1,,3069,response,ISIC_3805025.JPG,26,ISIC_6523459.JPG,ISIC_3805025.JPG,false,1,keypress(m),500,43569,43569,40500,40469,40523,43623,8,400,1,,ISIC_6523459.JPG
break,html.Screen,4_0_1,2023-09-08T19:59:41.587Z,,0,,,NaN,,,,,,false,,,,43571,43571,,43570,,43623,8,400,,,
break_continue,html.Screen,4_0_2,2023-09-08T19:59:41.587Z,,0,,,NaN,,,,,,false,,,,43571,43571,,43571,,43623,8,400,,,
sequence,flow.Sequence,4_0,2023-09-08T19:59:41.588Z,,0,,,3048,completion,,,,,false,,,,43572,43571,40500,40469,40523,43623,8,400,,,
trial,html.Screen,4_1_0,2023-09-08T19:59:44.814Z,,0,1,,3198,response,ISIC_5226353.JPG,15,ISIC_0012037.JPG,ISIC_5226353.JPG,false,1,keypress(m),500,46798,46798,43600,43572,43623,46840,8,400,2,,ISIC_0012037.JPG
break,html.Screen,4_1_1,2023-09-08T19:59:44.815Z,,0,,,NaN,,,,,,false,,,,46799,46799,,46798,,46840,8,400,,,
break_continue,html.Screen,4_1_2,2023-09-08T19:59:44.816Z,,0,,,NaN,,,,,,false,,,,46800.00000000001,46800.00000000001,,46799,,46840,8,400,,,
sequence,flow.Sequence,4_1,2023-09-08T19:59:44.816Z,,0,,,3177.0000000000073,completion,,,,,false,,,,46800.00000000001,46800.00000000001,43600,43572,43623,46840,8,400,,,
trial,html.Screen,4_2_0,2023-09-08T19:59:47.508Z,,0,1,,2686.0000000000073,response,ISIC_3292151.JPG,26,ISIC_1185006.JPG,ISIC_3292151.JPG,false,1,keypress(m),500,49492.00000000001,49492.00000000001,46806,46800.00000000001,46840,49540,8,400,3,,ISIC_1185006.JPG
break,html.Screen,4_2_1,2023-09-08T19:59:47.509Z,,0,,,NaN,,,,,,false,,,,49493,49493,,49492.00000000001,,49540,8,400,,,
break_continue,html.Screen,4_2_2,2023-09-08T19:59:47.509Z,,0,,,NaN,,,,,,false,,,,49493,49493,,49493,,49540,8,400,,,
sequence,flow.Sequence,4_2,2023-09-08T19:59:47.509Z,,0,,,2653,completion,,,,,false,,,,49493,49493,46806,46800.00000000001,46840,49540,8,400,,,
trial,html.Screen,4_3_0,2023-09-08T19:59:50.248Z,,0,1,,2724,response,ISIC_0063295.JPG,4,ISIC_0065128.JPG,ISIC_0063295.JPG,false,1,keypress(m),500,52232,52231,49507,49493,49540,52273,8,400,4,,ISIC_0065128.JPG
break,html.Screen,4_3_1,2023-09-08T19:59:50.250Z,,0,,,NaN,,,,,,false,,,,52234,52233.00000000001,,52233.00000000001,,52273,8,400,,,
break_continue,html.Screen,4_3_2,2023-09-08T19:59:50.250Z,,0,,,NaN,,,,,,false,,,,52234,52234,,52234,,52273,8,400,,,
sequence,flow.Sequence,4_3,2023-09-08T19:59:50.250Z,,0,,,2694,completion,,,,,false,,,,52235,52234,49507,49493,49540,52273,8,400,,,
trial,html.Screen,4_4_0,2023-09-08T19:59:53.445Z,,0,1,,3188.0000000000073,response,ISIC_7354733.JPG,22,ISIC_0033273.JPG,ISIC_0033273.JPG,false,0,keypress(z),500,55429,55428.00000000001,52240,52235,52273,55473,8,400,5,,ISIC_7354733.JPG
break,html.Screen,4_4_1,2023-09-08T19:59:53.446Z,,0,,,NaN,,,,,,false,,,,55430,55430,,55429,,55473,8,400,,,
break_continue,html.Screen,4_4_2,2023-09-08T19:59:53.447Z,,0,,,NaN,,,,,,false,,,,55431.00000000001,55430,,55430,,55473,8,400,,,
sequence,flow.Sequence,4_4,2023-09-08T19:59:53.447Z,,0,,,3157,completion,,,,,false,,,,55431.00000000001,55430,52240,52235,52273,55473,8,400,,,
trial,html.Screen,4_5_0,2023-09-08T19:59:56.171Z,,0,1,,2715,response,ISIC_2421696.JPG,5,ISIC_0046450.JPG,ISIC_2421696.JPG,false,1,keypress(m),500,58156,58155,55440,55431.00000000001,55473,58207,8,400,6,,ISIC_0046450.JPG
break,html.Screen,4_5_1,2023-09-08T19:59:56.173Z,,0,,,NaN,,,,,,false,,,,58157,58156,,58156,,58207,8,400,,,
break_continue,html.Screen,4_5_2,2023-09-08T19:59:56.173Z,,0,,,NaN,,,,,,false,,,,58157,58157,,58157,,58207,8,400,,,
sequence,flow.Sequence,4_5,2023-09-08T19:59:56.173Z,,0,,,2684,completion,,,,,false,,,,58157,58157,55440,55431.00000000001,55473,58207,8,400,,,
trial,html.Screen,4_6_0,2023-09-08T19:59:59.191Z,,0,1,,3000,response,ISIC_4462476.JPG,10,ISIC_0025152.JPG,ISIC_0025152.JPG,false,0,keypress(z),500,61175.00000000001,61174,58174,58157,58207,61223,8,400,7,,ISIC_4462476.JPG
break,html.Screen,4_6_1,2023-09-08T19:59:59.192Z,,0,,,NaN,,,,,,false,,,,61176,61176,,61175.00000000001,,61223,8,400,,,
break_continue,html.Screen,4_6_2,2023-09-08T19:59:59.192Z,,0,,,NaN,,,,,,false,,,,61176,61176,,61176,,61223,8,400,,,
sequence,flow.Sequence,4_6,2023-09-08T19:59:59.192Z,,0,,,2969,completion,,,,,false,,,,61176,61176,58174,58157,58207,61223,8,400,,,
trial,html.Screen,4_7_0,2023-09-08T20:00:02.277Z,,0,1,,3070.0000000000073,response,ISIC_0027171.JPG,21,ISIC_2051564.JPG,ISIC_2051564.JPG,false,0,keypress(z),500,64260.99999999999,64260.00000000001,61190,61177,61223,64307,8,400,8,,ISIC_0027171.JPG
break,html.Screen,4_7_1,2023-09-08T20:00:02.278Z,,0,,,NaN,,,,,,false,,,,64262,64262,,64260.99999999999,,64307,8,400,,,
break_continue,html.Screen,4_7_2,2023-09-08T20:00:02.279Z,,0,,,NaN,,,,,,false,,,,64263.00000000001,64263.00000000001,,64263.00000000001,,64307,8,400,,,
sequence,flow.Sequence,4_7,2023-09-08T20:00:02.279Z,,0,,,3040.0000000000073,completion,,,,,false,,,,64263.00000000001,64263.00000000001,61190,61177,61223,64307,8,400,,,
trial,html.Screen,4_8_0,2023-09-08T20:00:05.220Z,,0,1,,2930.0000000000146,response,ISIC_0061188.JPG,24,ISIC_8798059.JPG,ISIC_8798059.JPG,false,0,keypress(z),500,67204.00000000001,67204.00000000001,64274,64263.00000000001,64307,67257,8,400,9,,ISIC_0061188.JPG
break,html.Screen,4_8_1,2023-09-08T20:00:05.221Z,,0,,,NaN,,,,,,false,,,,67205,67205,,67205,,67257,8,400,,,
break_continue,html.Screen,4_8_2,2023-09-08T20:00:05.221Z,,0,,,NaN,,,,,,false,,,,67206,67205,,67205,,67257,8,400,,,
sequence,flow.Sequence,4_8,2023-09-08T20:00:05.222Z,,0,,,2898,completion,,,,,false,,,,67206,67205,64274,64263.00000000001,64307,67257,8,400,,,
trial,html.Screen,4_9_0,2023-09-08T20:00:08.063Z,,0,1,,2822,response,ISIC_4782878.JPG,21,ISIC_0010049.JPG,ISIC_4782878.JPG,false,1,keypress(m),500,70047,70046,67224,67206,67257,70090,8,400,10,,ISIC_0010049.JPG
break,html.Screen,4_9_1,2023-09-08T20:00:08.064Z,,0,,,NaN,,,,,,false,,,,70048,70047,,70047,,70090,8,400,,,
break_continue,html.Screen,4_9_2,2023-09-08T20:00:08.064Z,,0,,,NaN,,,,,,false,,,,70048,70048,,70048,,70090,8,400,,,
sequence,flow.Sequence,4_9,2023-09-08T20:00:08.064Z,,0,,,2791,completion,,,,,false,,,,70048,70048,67224,67206,67257,70090,8,400,,,
trial,html.Screen,4_10_0,2023-09-08T20:00:10.781Z,,0,1,,2707,response,ISIC_0033229.JPG,29,ISIC_8249854.JPG,ISIC_0033229.JPG,false,1,keypress(m),500,72766,72765,70058,70048,70090,72807,8,400,11,,ISIC_8249854.JPG
break,html.Screen,4_10_1,2023-09-08T20:00:10.782Z,,0,,,NaN,,,,,,false,,,,72766,72766,,72766,,72807,8,400,,,
break_continue,html.Screen,4_10_2,2023-09-08T20:00:10.783Z,,0,,,NaN,,,,,,false,,,,72767,72767,,72766,,72807,8,400,,,
sequence,flow.Sequence,4_10,2023-09-08T20:00:10.783Z,,0,,,2677,completion,,,,,false,,,,72767,72767,70058,70048,70090,72807,8,400,,,
trial,html.Screen,4_11_0,2023-09-08T20:00:13.484Z,,0,1,,2694,response,ISIC_8357679.JPG,9,ISIC_0067159.JPG,ISIC_8357679.JPG,false,1,keypress(m),500,75468,75467,72773,72767,72807,75507,8,400,12,,ISIC_0067159.JPG
break,html.Screen,4_11_1,2023-09-08T20:00:13.484Z,,0,,,NaN,,,,,,false,,,,75468,75468,,75468,,75507,8,400,,,
break_continue,html.Screen,4_11_2,2023-09-08T20:00:13.485Z,,0,,,NaN,,,,,,false,,,,75469.00000000001,75469.00000000001,,75469.00000000001,,75507,8,400,,,
sequence,flow.Sequence,4_11,2023-09-08T20:00:13.485Z,,0,,,2662.0000000000146,completion,,,,,false,,,,75469.00000000001,75469.00000000001,72773,72767,72807,75507,8,400,,,
trial,html.Screen,4_12_0,2023-09-08T20:00:16.201Z,,0,1,,2712,response,ISIC_0071740.JPG,9,ISIC_1805921.JPG,ISIC_1805921.JPG,false,0,keypress(z),500,78185,78185,75473,75469.00000000001,75507,78224,8,400,13,,ISIC_0071740.JPG
break,html.Screen,4_12_1,2023-09-08T20:00:16.202Z,,0,,,NaN,,,,,,false,,,,78186,78186,,78185,,78224,8,400,,,
break_continue,html.Screen,4_12_2,2023-09-08T20:00:16.202Z,,0,,,NaN,,,,,,false,,,,78186,78186,,78186,,78224,8,400,,,
sequence,flow.Sequence,4_12,2023-09-08T20:00:16.202Z,,0,,,2679,completion,,,,,false,,,,78186,78186,75473,75469.00000000001,75507,78224,8,400,,,
trial,html.Screen,4_13_0,2023-09-08T20:00:20.292Z,,0,1,,4086,response,ISIC_0011336.JPG,21,ISIC_2945324.JPG,ISIC_0011336.JPG,false,1,keypress(m),500,82277,82276,78190,78186,78224,82324,8,400,14,,ISIC_2945324.JPG
break,html.Screen,4_13_1,2023-09-08T20:00:20.293Z,,0,,,NaN,,,,,,false,,,,82278,82277,,82277,,82324,8,400,,,
break_continue,html.Screen,4_13_2,2023-09-08T20:00:20.294Z,,0,,,NaN,,,,,,false,,,,82278,82278,,82278,,82324,8,400,,,
sequence,flow.Sequence,4_13,2023-09-08T20:00:20.294Z,,0,,,4054,completion,,,,,false,,,,82278,82278,78190,78186,78224,82324,8,400,,,
trial,html.Screen,4_14_0,2023-09-08T20:00:23.115Z,,0,1,,2808,response,ISIC_2605120.JPG,8,ISIC_5409902.JPG,ISIC_5409902.JPG,false,0,keypress(z),500,85099,85098,82290,82278,82324,85140,8,400,15,,ISIC_2605120.JPG
break,html.Screen,4_14_1,2023-09-08T20:00:23.116Z,,0,,,NaN,,,,,,false,,,,85100.00000000001,85100.00000000001,,85099,,85140,8,400,,,
break_continue,html.Screen,4_14_2,2023-09-08T20:00:23.116Z,,0,,,NaN,,,,,,false,,,,85100.00000000001,85100.00000000001,,85100.00000000001,,85140,8,400,,,
sequence,flow.Sequence,4_14,2023-09-08T20:00:23.117Z,,0,,,2776.0000000000146,completion,,,,,false,,,,85101,85100.00000000001,82290,82278,82324,85140,8,400,,,
trial,html.Screen,4_15_0,2023-09-08T20:00:26.090Z,,0,1,,2967,response,ISIC_0030087.JPG,7,ISIC_0025324.JPG,ISIC_0030087.JPG,false,1,keypress(m),500,88075,88074,85107,85101,85140,88124,8,400,16,,ISIC_0025324.JPG
break,html.Screen,4_15_1,2023-09-08T20:00:26.092Z,,0,,,NaN,,,,,,false,,,,88076.00000000001,88075,,88075,,88124,8,400,,,
break_continue,html.Screen,4_15_2,2023-09-08T20:00:26.092Z,,0,,,NaN,,,,,,false,,,,88076.00000000001,88076.00000000001,,88076.00000000001,,88124,8,400,,,
sequence,flow.Sequence,4_15,2023-09-08T20:00:26.092Z,,0,,,2936.0000000000146,completion,,,,,false,,,,88076.00000000001,88076.00000000001,85107,85101,85140,88124,8,400,,,
trial,html.Screen,4_16_0,2023-09-08T20:00:28.859Z,,0,1,,2751,response,ISIC_0028328.JPG,0,ISIC_0032413.JPG,ISIC_0028328.JPG,false,1,keypress(m),500,90843,90842,88091,88076.00000000001,88124,90890,8,400,17,,ISIC_0032413.JPG
break,html.Screen,4_16_1,2023-09-08T20:00:28.860Z,,0,,,NaN,,,,,,false,,,,90844.00000000001,90844.00000000001,,90843,,90890,8,400,,,
break_continue,html.Screen,4_16_2,2023-09-08T20:00:28.860Z,,0,,,NaN,,,,,,false,,,,90844.00000000001,90844.00000000001,,90844.00000000001,,90890,8,400,,,
sequence,flow.Sequence,4_16,2023-09-08T20:00:28.860Z,,0,,,2720.0000000000146,completion,,,,,false,,,,90845,90844.00000000001,88091,88076.00000000001,88124,90890,8,400,,,
trial,html.Screen,4_17_0,2023-09-08T20:00:31.878Z,,0,1,,3005.0000000000146,response,ISIC_0005655.JPG,23,ISIC_8366864.JPG,ISIC_0005655.JPG,false,1,keypress(m),500,93862.00000000001,93862.00000000001,90857,90845,90890,93907,8,400,18,,ISIC_8366864.JPG
break,html.Screen,4_17_1,2023-09-08T20:00:31.879Z,,0,,,NaN,,,,,,false,,,,93863,93863,,93862.00000000001,,93907,8,400,,,
break_continue,html.Screen,4_17_2,2023-09-08T20:00:31.879Z,,0,,,NaN,,,,,,false,,,,93863,93863,,93863,,93907,8,400,,,
sequence,flow.Sequence,4_17,2023-09-08T20:00:31.879Z,,0,,,2973,completion,,,,,false,,,,93864,93863,90857,90845,90890,93907,8,400,,,
trial,html.Screen,4_18_0,2023-09-08T20:00:35.859Z,,0,1,,3970,response,ISIC_0028751.JPG,4,ISIC_0027359.JPG,ISIC_0028751.JPG,false,1,keypress(m),500,97843,97843,93873,93864,93907,97891,8,400,19,,ISIC_0027359.JPG
break,html.Screen,4_18_1,2023-09-08T20:00:35.860Z,,0,,,NaN,,,,,,false,,,,97845,97844.00000000001,,97844.00000000001,,97891,8,400,,,
break_continue,html.Screen,4_18_2,2023-09-08T20:00:35.861Z,,0,,,NaN,,,,,,false,,,,97845,97845,,97845,,97891,8,400,,,
sequence,flow.Sequence,4_18,2023-09-08T20:00:35.861Z,,0,,,3938,completion,,,,,false,,,,97845,97845,93873,93864,93907,97891,8,400,,,
trial,html.Screen,4_19_0,2023-09-08T20:00:38.956Z,,0,1,,3083,response,ISIC_1264725.JPG,12,ISIC_9574191.JPG,ISIC_1264725.JPG,false,1,keypress(m),500,100941,100940,97857,97845,97891,100991,8,400,20,,ISIC_9574191.JPG
break,html.Screen,4_19_1,2023-09-08T20:00:38.957Z,,0,,,NaN,,,,,,false,,,,100942,100941,,100941,,100991,8,400,,,
break_continue,html.Screen,4_19_2,2023-09-08T20:00:38.958Z,,0,,,NaN,,,,,,false,,,,100942,100942,,100942,,100991,8,400,,,
sequence,flow.Sequence,4_19,2023-09-08T20:00:38.958Z,,0,,,3051,completion,,,,,false,,,,100942,100942,97857,97845,97891,100991,8,400,,,
trial,html.Screen,4_20_0,2023-09-08T20:00:42.444Z,,0,1,,3470,response,ISIC_0027109.JPG,6,ISIC_6423964.JPG,ISIC_6423964.JPG,false,0,keypress(z),500,104428,104427,100957,100942,100991,104474,8,400,21,,ISIC_0027109.JPG
break,html.Screen,4_20_1,2023-09-08T20:00:42.445Z,,0,,,NaN,,,,,,false,,,,104429,104429,,104428,,104474,8,400,,,
break_continue,html.Screen,4_20_2,2023-09-08T20:00:42.445Z,,0,,,NaN,,,,,,false,,,,104429,104429,,104429,,104474,8,400,,,
sequence,flow.Sequence,4_20,2023-09-08T20:00:42.445Z,,0,,,3438,completion,,,,,false,,,,104430,104429,100957,100942,100991,104474,8,400,,,
trial,html.Screen,4_21_0,2023-09-08T20:00:45.504Z,,0,1,,3047,response,ISIC_0029303.JPG,27,ISIC_3959570.JPG,ISIC_3959570.JPG,false,0,keypress(z),500,107488,107488,104441,104430,104474,107540,8,400,22,,ISIC_0029303.JPG
break,html.Screen,4_21_1,2023-09-08T20:00:45.505Z,,0,,,NaN,,,,,,false,,,,107489,107489,,107488,,107540,8,400,,,
break_continue,html.Screen,4_21_2,2023-09-08T20:00:45.505Z,,0,,,NaN,,,,,,false,,,,107490.00000000001,107489,,107489,,107540,8,400,,,
sequence,flow.Sequence,4_21,2023-09-08T20:00:45.506Z,,0,,,3015,completion,,,,,false,,,,107490.00000000001,107489,104441,104430,104474,107540,8,400,,,
trial,html.Screen,4_22_0,2023-09-08T20:00:48.539Z,,0,1,,3016,response,ISIC_2394780.JPG,28,ISIC_0192893.JPG,ISIC_2394780.JPG,false,1,keypress(m),500,110523,110523,107507,107490.00000000001,107540,110574,8,400,23,,ISIC_0192893.JPG
break,html.Screen,4_22_1,2023-09-08T20:00:48.540Z,,0,,,NaN,,,,,,false,,,,110524,110524,,110524,,110574,8,400,,,
break_continue,html.Screen,4_22_2,2023-09-08T20:00:48.540Z,,0,,,NaN,,,,,,false,,,,110525,110525,,110524,,110574,8,400,,,
sequence,flow.Sequence,4_22,2023-09-08T20:00:48.540Z,,0,,,2985,completion,,,,,false,,,,110525,110525,107507,107490.00000000001,107540,110574,8,400,,,
trial,html.Screen,4_23_0,2023-09-08T20:00:51.431Z,,0,1,,2874,response,ISIC_8591425.JPG,23,ISIC_0026683.JPG,ISIC_8591425.JPG,false,1,keypress(m),500,113416,113415,110541,110525,110574,113457,8,400,24,,ISIC_0026683.JPG
break,html.Screen,4_23_1,2023-09-08T20:00:51.432Z,,0,,,NaN,,,,,,false,,,,113416,113416,,113416,,113457,8,400,,,
break_continue,html.Screen,4_23_2,2023-09-08T20:00:51.432Z,,0,,,NaN,,,,,,false,,,,113417,113417,,113417,,113457,8,400,,,
sequence,flow.Sequence,4_23,2023-09-08T20:00:51.433Z,,0,,,2843,completion,,,,,false,,,,113417,113417,110541,110525,110574,113457,8,400,,,
trial,html.Screen,4_24_0,2023-09-08T20:00:54.661Z,,0,1,,3221,response,ISIC_9802008.JPG,11,ISIC_3273370.JPG,ISIC_3273370.JPG,false,0,keypress(z),500,116645,116645,113424,113417,113457,116691,8,400,25,,ISIC_9802008.JPG
break,html.Screen,4_24_1,2023-09-08T20:00:54.662Z,,0,,,NaN,,,,,,false,,,,116646,116646,,116645,,116691,8,400,,,
break_continue,html.Screen,4_24_2,2023-09-08T20:00:54.662Z,,0,,,NaN,,,,,,false,,,,116646,116646,,116646,,116691,8,400,,,
sequence,flow.Sequence,4_24,2023-09-08T20:00:54.662Z,,0,,,3189,completion,,,,,false,,,,116646,116646,113424,113417,113457,116691,8,400,,,
trial,html.Screen,4_25_0,2023-09-08T20:00:57.544Z,,0,1,,2871,response,ISIC_0057199.JPG,21,ISIC_0054663.JPG,ISIC_0054663.JPG,false,0,keypress(z),500,119528,119528,116657,116647,116691,119574,8,400,26,,ISIC_0057199.JPG
break,html.Screen,4_25_1,2023-09-08T20:00:57.545Z,,0,,,NaN,,,,,,false,,,,119529,119529,,119528,,119574,8,400,,,
break_continue,html.Screen,4_25_2,2023-09-08T20:00:57.545Z,,0,,,NaN,,,,,,false,,,,119529,119529,,119529,,119574,8,400,,,
sequence,flow.Sequence,4_25,2023-09-08T20:00:57.545Z,,0,,,2838,completion,,,,,false,,,,119529,119529,116657,116647,116691,119574,8,400,,,
trial,html.Screen,4_26_0,2023-09-08T20:01:00.709Z,,0,1,,3152,response,ISIC_0025215.JPG,18,ISIC_8847321.JPG,ISIC_0025215.JPG,false,1,keypress(m),500,122693,122693,119541,119529,119574,122741,8,400,27,,ISIC_8847321.JPG
break,html.Screen,4_26_1,2023-09-08T20:01:00.710Z,,0,,,NaN,,,,,,false,,,,122694,122694,,122693,,122741,8,400,,,
break_continue,html.Screen,4_26_2,2023-09-08T20:01:00.710Z,,0,,,NaN,,,,,,false,,,,122694,122694,,122694,,122741,8,400,,,
sequence,flow.Sequence,4_26,2023-09-08T20:01:00.710Z,,0,,,3120,completion,,,,,false,,,,122694,122694,119541,119529,119574,122741,8,400,,,
trial,html.Screen,4_27_0,2023-09-08T20:01:03.550Z,,0,1,,2825,response,ISIC_0033640.JPG,3,ISIC_0032762.JPG,ISIC_0033640.JPG,false,1,keypress(m),500,125534,125533,122708,122694,122741,125574,8,400,28,,ISIC_0032762.JPG
break,html.Screen,4_27_1,2023-09-08T20:01:03.550Z,,0,,,NaN,,,,,,false,,,,125535,125534,,125534,,125574,8,400,,,
break_continue,html.Screen,4_27_2,2023-09-08T20:01:03.551Z,,0,,,NaN,,,,,,false,,,,125535,125535,,125535,,125574,8,400,,,
sequence,flow.Sequence,4_27,2023-09-08T20:01:03.551Z,,0,,,2794,completion,,,,,false,,,,125535,125535,122708,122694,122741,125574,8,400,,,
trial,html.Screen,4_28_0,2023-09-08T20:01:06.356Z,,0,1,,2799,response,ISIC_0899961.JPG,13,ISIC_6705966.JPG,ISIC_6705966.JPG,false,0,keypress(z),500,128340,128340,125541,125535,125574,128391,8,400,29,,ISIC_0899961.JPG
break,html.Screen,4_28_1,2023-09-08T20:01:06.357Z,,0,,,NaN,,,,,,false,,,,128341.00000000001,128341.00000000001,,128341.00000000001,,128391,8,400,,,
break_continue,html.Screen,4_28_2,2023-09-08T20:01:06.357Z,,0,,,NaN,,,,,,false,,,,128341.00000000001,128341.00000000001,,128341.00000000001,,128391,8,400,,,
sequence,flow.Sequence,4_28,2023-09-08T20:01:06.357Z,,0,,,2767.0000000000146,completion,,,,,false,,,,128341.00000000001,128341.00000000001,125541,125535,125574,128391,8,400,,,
trial,html.Screen,4_29_0,2023-09-08T20:01:09.700Z,,0,1,,3326,response,ISIC_0054364.JPG,26,ISIC_3463156.JPG,ISIC_3463156.JPG,false,0,keypress(z),500,131684,131684,128358,128341.00000000001,128391,131724,8,400,30,,ISIC_0054364.JPG
break,html.Screen,4_29_1,2023-09-08T20:01:09.701Z,,0,,,NaN,,,,,,false,,,,131685,131685,,131685,,131724,8,400,,,
break_continue,html.Screen,4_29_2,2023-09-08T20:01:09.701Z,,0,,,NaN,,,,,,false,,,,131686,131685,,131685,,131724,8,400,,,
sequence,flow.Sequence,4_29,2023-09-08T20:01:09.701Z,,0,,,3294,completion,,,,,false,,,,131686,131685,128358,128341.00000000001,128391,131724,8,400,,,
trial,html.Screen,4_30_0,2023-09-08T20:01:14.043Z,,0,1,,4336.000000000029,response,ISIC_9604922.JPG,12,ISIC_1985763.JPG,ISIC_1985763.JPG,false,0,keypress(z),500,136027.00000000003,136027.00000000003,131691,131686,131724,136074,8,400,31,,ISIC_9604922.JPG
break,html.Screen,4_30_1,2023-09-08T20:01:14.044Z,,0,,,NaN,,,,,,false,,,,136029,136028,,136028,,136074,8,400,,,
break_continue,html.Screen,4_30_2,2023-09-08T20:01:14.045Z,,0,,,NaN,,,,,,false,,,,136029,136029,,136029,,136074,8,400,,,
sequence,flow.Sequence,4_30,2023-09-08T20:01:14.045Z,,0,,,4305,completion,,,,,false,,,,136029,136029,131691,131686,131724,136074,8,400,,,
trial,html.Screen,4_31_0,2023-09-08T20:01:18.763Z,,0,1,,4705,response,ISIC_0008424.JPG,18,ISIC_3478473.JPG,ISIC_0008424.JPG,false,1,keypress(m),500,140747,140746,136041,136029,136074,140791,8,400,32,,ISIC_3478473.JPG
break,html.Screen,4_31_1,2023-09-08T20:01:18.763Z,,0,,,NaN,,,,,,false,,,,140748,140747,,140747,,140791,8,400,,,
break_continue,html.Screen,4_31_2,2023-09-08T20:01:18.764Z,,0,,,NaN,,,,,,false,,,,140748,140748,,140748,,140791,8,400,,,
sequence,flow.Sequence,4_31,2023-09-08T20:01:18.764Z,,0,,,4674,completion,,,,,false,,,,140748,140748,136041,136029,136074,140791,8,400,,,
trial,html.Screen,4_32_0,2023-09-08T20:01:22.219Z,,0,1,,3445,response,ISIC_0054936.JPG,10,ISIC_0031877.JPG,ISIC_0031877.JPG,false,0,keypress(z),500,144203,144203,140758,140748,140791,144240,8,400,33,,ISIC_0054936.JPG
break,html.Screen,4_32_1,2023-09-08T20:01:22.220Z,,0,,,NaN,,,,,,false,,,,144204,144204,,144203,,144240,8,400,,,
break_continue,html.Screen,4_32_2,2023-09-08T20:01:22.220Z,,0,,,NaN,,,,,,false,,,,144204,144204,,144204,,144240,8,400,,,
sequence,flow.Sequence,4_32,2023-09-08T20:01:22.220Z,,0,,,3413,completion,,,,,false,,,,144204,144204,140758,140748,140791,144240,8,400,,,
trial,html.Screen,4_33_0,2023-09-08T20:01:25.065Z,,0,1,,2842,response,ISIC_0904712.JPG,3,ISIC_8190708.JPG,ISIC_0904712.JPG,false,1,keypress(m),500,147050,147049,144207,144205,144240,147091,8,400,34,,ISIC_8190708.JPG
break,html.Screen,4_33_1,2023-09-08T20:01:25.066Z,,0,,,NaN,,,,,,false,,,,147051.00000000003,147050,,147050,,147091,8,400,,,
break_continue,html.Screen,4_33_2,2023-09-08T20:01:25.067Z,,0,,,NaN,,,,,,false,,,,147051.00000000003,147051.00000000003,,147051.00000000003,,147091,8,400,,,
sequence,flow.Sequence,4_33,2023-09-08T20:01:25.067Z,,0,,,2811.000000000029,completion,,,,,false,,,,147051.00000000003,147051.00000000003,144207,144205,144240,147091,8,400,,,
trial,html.Screen,4_34_0,2023-09-08T20:01:27.854Z,,0,1,,2780,response,ISIC_0025145.JPG,7,ISIC_0189694.JPG,ISIC_0189694.JPG,false,0,keypress(z),500,149838,149838,147058,147051.00000000003,147091,149891,8,400,35,,ISIC_0025145.JPG
break,html.Screen,4_34_1,2023-09-08T20:01:27.855Z,,0,,,NaN,,,,,,false,,,,149839,149839,,149838,,149891,8,400,,,
break_continue,html.Screen,4_34_2,2023-09-08T20:01:27.855Z,,0,,,NaN,,,,,,false,,,,149839,149839,,149839,,149891,8,400,,,
sequence,flow.Sequence,4_34,2023-09-08T20:01:27.855Z,,0,,,2748,completion,,,,,false,,,,149839,149839,147058,147051.00000000003,147091,149891,8,400,,,
trial,html.Screen,4_35_0,2023-09-08T20:01:30.640Z,,0,1,,2757,response,ISIC_0012150.JPG,8,ISIC_7672106.JPG,ISIC_0012150.JPG,false,1,keypress(m),500,152624,152623,149866,149840,149891,152675,8,400,36,,ISIC_7672106.JPG
break,html.Screen,4_35_1,2023-09-08T20:01:30.641Z,,0,,,NaN,,,,,,false,,,,152625,152625,,152624,,152675,8,400,,,
break_continue,html.Screen,4_35_2,2023-09-08T20:01:30.641Z,,0,,,NaN,,,,,,false,,,,152625,152625,,152625,,152675,8,400,,,
sequence,flow.Sequence,4_35,2023-09-08T20:01:30.641Z,,0,,,2734,completion,,,,,false,,,,152626,152625,149866,149839,149891,152675,8,400,,,
trial,html.Screen,4_36_0,2023-09-08T20:01:33.443Z,,0,1,,2786,response,ISIC_0014132.JPG,12,ISIC_8607090.JPG,ISIC_8607090.JPG,false,0,keypress(z),500,155427,155427,152641,152626,152675,155475,8,400,37,,ISIC_0014132.JPG
break,html.Screen,4_36_1,2023-09-08T20:01:33.444Z,,0,,,NaN,,,,,,false,,,,155428,155428,,155428,,155475,8,400,,,
break_continue,html.Screen,4_36_2,2023-09-08T20:01:33.444Z,,0,,,NaN,,,,,,false,,,,155428,155428,,155428,,155475,8,400,,,
sequence,flow.Sequence,4_36,2023-09-08T20:01:33.444Z,,0,,,2753,completion,,,,,false,,,,155428,155428,152641,152626,152675,155475,8,400,,,
trial,html.Screen,4_37_0,2023-09-08T20:01:36.158Z,,0,1,,2700,response,ISIC_4129321.JPG,29,ISIC_5393367.JPG,ISIC_5393367.JPG,false,0,keypress(z),500,158142,158141,155441,155429,155475,158191,8,400,38,,ISIC_4129321.JPG
break,html.Screen,4_37_1,2023-09-08T20:01:36.159Z,,0,,,NaN,,,,,,false,,,,158143,158143,,158142,,158191,8,400,,,
break_continue,html.Screen,4_37_2,2023-09-08T20:01:36.159Z,,0,,,NaN,,,,,,false,,,,158144,158143,,158143,,158191,8,400,,,
sequence,flow.Sequence,4_37,2023-09-08T20:01:36.159Z,,0,,,2668,completion,,,,,false,,,,158144,158143,155441,155429,155475,158191,8,400,,,
trial,html.Screen,4_38_0,2023-09-08T20:01:38.927Z,,0,1,,2753,response,ISIC_0030900.JPG,14,ISIC_8671662.JPG,ISIC_0030900.JPG,false,1,keypress(m),500,160911,160911,158158,158144,158191,160958,8,400,39,,ISIC_8671662.JPG
break,html.Screen,4_38_1,2023-09-08T20:01:38.927Z,,0,,,NaN,,,,,,false,,,,160911,160911,,160911,,160958,8,400,,,
break_continue,html.Screen,4_38_2,2023-09-08T20:01:38.927Z,,0,,,NaN,,,,,,false,,,,160912,160912,,160912,,160958,8,400,,,
sequence,flow.Sequence,4_38,2023-09-08T20:01:38.927Z,,0,,,2721,completion,,,,,false,,,,160912,160912,158158,158144,158191,160958,8,400,,,
trial,html.Screen,4_39_0,2023-09-08T20:01:41.725Z,,0,1,,2784,response,ISIC_0013213.JPG,6,ISIC_5441247.JPG,ISIC_0013213.JPG,false,1,keypress(m),500,163710,163709,160925,160912,160958,163758,8,400,40,,ISIC_5441247.JPG
break,html.Screen,4_39_1,2023-09-08T20:01:41.726Z,,0,,,NaN,,,,,,false,,,,163711,163710,,163710,,163758,8,400,,,
break_continue,html.Screen,4_39_2,2023-09-08T20:01:41.727Z,,0,,,NaN,,,,,,false,,,,163711,163711,,163711,,163758,8,400,,,
sequence,flow.Sequence,4_39,2023-09-08T20:01:41.727Z,,0,,,2753,completion,,,,,false,,,,163711,163711,160925,160912,160958,163758,8,400,,,
trial,html.Screen,4_40_0,2023-09-08T20:01:45.194Z,,0,1,,3453,response,ISIC_0071434.JPG,27,ISIC_5837098.JPG,ISIC_0071434.JPG,false,1,keypress(m),500,167178,167178,163725,163711,163758,167225,8,400,41,,ISIC_5837098.JPG
break,html.Screen,4_40_1,2023-09-08T20:01:45.195Z,,0,,,NaN,,,,,,false,,,,167179,167179,,167178,,167225,8,400,,,
break_continue,html.Screen,4_40_2,2023-09-08T20:01:45.195Z,,0,,,NaN,,,,,,false,,,,167179,167179,,167179,,167225,8,400,,,
sequence,flow.Sequence,4_40,2023-09-08T20:01:45.195Z,,0,,,3421,completion,,,,,false,,,,167179,167179,163725,163711,163758,167225,8,400,,,
trial,html.Screen,4_41_0,2023-09-08T20:01:47.921Z,,0,1,,2713,response,ISIC_0030107.JPG,9,ISIC_6704623.JPG,ISIC_6704623.JPG,false,0,keypress(z),500,169905,169904,167191,167179,167225,169958,8,400,42,,ISIC_0030107.JPG
break,html.Screen,4_41_1,2023-09-08T20:01:47.921Z,,0,,,NaN,,,,,,false,,,,169906,169906,,169905,,169958,8,400,,,
break_continue,html.Screen,4_41_2,2023-09-08T20:01:47.922Z,,0,,,NaN,,,,,,false,,,,169906,169906,,169906,,169958,8,400,,,
sequence,flow.Sequence,4_41,2023-09-08T20:01:47.922Z,,0,,,2681,completion,,,,,false,,,,169906,169906,167191,167179,167225,169958,8,400,,,
trial,html.Screen,4_42_0,2023-09-08T20:01:51.182Z,,0,1,,3233,response,ISIC_0063516.JPG,11,ISIC_0030404.JPG,ISIC_0030404.JPG,false,0,keypress(z),500,173166,173166,169933,169906,169958,173208,8,400,43,,ISIC_0063516.JPG
break,html.Screen,4_42_1,2023-09-08T20:01:51.183Z,,0,,,NaN,,,,,,false,,,,173168,173167,,173167,,173208,8,400,,,
break_continue,html.Screen,4_42_2,2023-09-08T20:01:51.184Z,,0,,,NaN,,,,,,false,,,,173168,173168,,173168,,173208,8,400,,,
sequence,flow.Sequence,4_42,2023-09-08T20:01:51.184Z,,0,,,3210,completion,,,,,false,,,,173168,173168,169933,169906,169958,173208,8,400,,,
trial,html.Screen,4_43_0,2023-09-08T20:01:53.862Z,,0,1,,2671,response,ISIC_0026910.JPG,19,ISIC_0011268.JPG,ISIC_0026910.JPG,false,1,keypress(m),500,175846,175846,173175,173168,173208,175892,8,400,44,,ISIC_0011268.JPG
break,html.Screen,4_43_1,2023-09-08T20:01:53.862Z,,0,,,NaN,,,,,,false,,,,175847,175847,,175846,,175892,8,400,,,
break_continue,html.Screen,4_43_2,2023-09-08T20:01:53.863Z,,0,,,NaN,,,,,,false,,,,175847,175847,,175847,,175892,8,400,,,
sequence,flow.Sequence,4_43,2023-09-08T20:01:53.863Z,,0,,,2639,completion,,,,,false,,,,175847,175847,173175,173168,173208,175892,8,400,,,
trial,html.Screen,4_44_0,2023-09-08T20:01:56.512Z,,0,1,,2637,response,ISIC_0256715.JPG,11,ISIC_0000305.JPG,ISIC_0256715.JPG,false,1,keypress(m),500,178496,178495,175858,175847,175892,178542,8,400,45,,ISIC_0000305.JPG
break,html.Screen,4_44_1,2023-09-08T20:01:56.513Z,,0,,,NaN,,,,,,false,,,,178497,178497,,178496,,178542,8,400,,,
break_continue,html.Screen,4_44_2,2023-09-08T20:01:56.513Z,,0,,,NaN,,,,,,false,,,,178497,178497,,178497,,178542,8,400,,,
sequence,flow.Sequence,4_44,2023-09-08T20:01:56.513Z,,0,,,2605,completion,,,,,false,,,,178497,178497,175858,175847,175892,178542,8,400,,,
trial,html.Screen,4_45_0,2023-09-08T20:01:59.088Z,,0,1,,2563,response,ISIC_0064033.JPG,0,ISIC_7860137.JPG,ISIC_7860137.JPG,false,0,keypress(z),500,181072,181071,178508,178498,178542,181124,8,400,46,,ISIC_0064033.JPG
break,html.Screen,4_45_1,2023-09-08T20:01:59.088Z,,0,,,NaN,,,,,,false,,,,181073,181073,,181072,,181124,8,400,,,
break_continue,html.Screen,4_45_2,2023-09-08T20:01:59.089Z,,0,,,NaN,,,,,,false,,,,181073,181073,,181073,,181124,8,400,,,
sequence,flow.Sequence,4_45,2023-09-08T20:01:59.089Z,,0,,,2531,completion,,,,,false,,,,181073,181073,178508,178498,178542,181124,8,400,,,
trial,html.Screen,4_46_0,2023-09-08T20:02:01.984Z,,0,1,,2866.000000000029,response,ISIC_8790198.JPG,4,ISIC_4038618.JPG,ISIC_4038618.JPG,false,0,keypress(z),500,183969,183968.00000000003,181102,181073,181124,184008,8,400,47,,ISIC_8790198.JPG
break,html.Screen,4_46_1,2023-09-08T20:02:01.985Z,,0,,,NaN,,,,,,false,,,,183970,183970,,183969,,184008,8,400,,,
break_continue,html.Screen,4_46_2,2023-09-08T20:02:01.986Z,,0,,,NaN,,,,,,false,,,,183970,183970,,183970,,184008,8,400,,,
sequence,flow.Sequence,4_46,2023-09-08T20:02:01.986Z,,0,,,2846,completion,,,,,false,,,,183970,183970,181102,181073,181124,184008,8,400,,,
trial,html.Screen,4_47_0,2023-09-08T20:02:04.688Z,,0,1,,2697,response,ISIC_0000173.JPG,17,ISIC_9462738.JPG,ISIC_9462738.JPG,false,0,keypress(z),500,186672,186672,183975,183970,184008,186725,8,400,48,,ISIC_0000173.JPG
break,html.Screen,4_47_1,2023-09-08T20:02:04.689Z,,0,,,NaN,,,,,,false,,,,186673,186673,,186672,,186725,8,400,,,
break_continue,html.Screen,4_47_2,2023-09-08T20:02:04.689Z,,0,,,NaN,,,,,,false,,,,186673,186673,,186673,,186725,8,400,,,
sequence,flow.Sequence,4_47,2023-09-08T20:02:04.689Z,,0,,,2665,completion,,,,,false,,,,186673,186673,183975,183970,184008,186725,8,400,,,
trial,html.Screen,4_48_0,2023-09-08T20:02:07.552Z,,0,1,,2836,response,ISIC_3159924.JPG,14,ISIC_5983500.JPG,ISIC_5983500.JPG,false,0,keypress(z),500,189536,189536,186700,186673,186725,189575,8,400,49,,ISIC_3159924.JPG
break,html.Screen,4_48_1,2023-09-08T20:02:07.553Z,,0,,,NaN,,,,,,false,,,,189538,189537,,189537,,189575,8,400,,,
break_continue,html.Screen,4_48_2,2023-09-08T20:02:07.553Z,,0,,,NaN,,,,,,false,,,,189538,189538,,189538,,189575,8,400,,,
sequence,flow.Sequence,4_48,2023-09-08T20:02:07.554Z,,0,,,2813,completion,,,,,false,,,,189538,189538,186700,186673,186725,189575,8,400,,,
trial,html.Screen,4_49_0,2023-09-08T20:02:10.510Z,,0,1,,2953,response,ISIC_9095975.JPG,0,ISIC_0010618.JPG,ISIC_0010618.JPG,false,0,keypress(z),500,192495,192494,189541,189538,189575,192542,8,400,50,,ISIC_9095975.JPG
break,html.Screen,4_49_1,2023-09-08T20:02:20.525Z,,0,,,10000,timeout,,,,,false,,,,202509,202509,192509,192495,192542,202542,8,400,,,
break_continue,html.Screen,4_49_2,2023-09-08T20:02:21.362Z,,0,,,847,response,,,,,false,continue,keypress(Space),,203347,203356,202509,202509,202542,203392,8,400,,,
sequence,flow.Sequence,4_49,2023-09-08T20:02:21.363Z,,0,,,13781,completion,,,,,false,,,,203347,203356,189541,189538,189575,203392,8,400,,,
trial,html.Screen,4_50_0,2023-09-08T20:02:24.282Z,,0,2,,2908,response,ISIC_3281565.JPG,20,ISIC_0060219.JPG,ISIC_0060219.JPG,false,0,keypress(z),500,206267,206267,203359,203347,203392,206309,8,400,1,,ISIC_3281565.JPG
break,html.Screen,4_50_1,2023-09-08T20:02:24.283Z,,0,,,NaN,,,,,,false,,,,206267,206267,,206267,,206309,8,400,,,
break_continue,html.Screen,4_50_2,2023-09-08T20:02:24.283Z,,0,,,NaN,,,,,,false,,,,206267,206267,,206267,,206309,8,400,,,
sequence,flow.Sequence,4_50,2023-09-08T20:02:24.283Z,,0,,,2875,completion,,,,,false,,,,206268,206267,203359,203347,203392,206309,8,400,,,
trial,html.Screen,4_51_0,2023-09-08T20:02:27.744Z,,0,2,,3453,response,ISIC_7904250.JPG,10,ISIC_4794052.JPG,ISIC_7904250.JPG,false,1,keypress(m),500,209728,209728,206275,206268,206309,209775,8,400,2,,ISIC_4794052.JPG
break,html.Screen,4_51_1,2023-09-08T20:02:27.745Z,,0,,,NaN,,,,,,false,,,,209729,209729,,209729,,209775,8,400,,,
break_continue,html.Screen,4_51_2,2023-09-08T20:02:27.745Z,,0,,,NaN,,,,,,false,,,,209730.00000000003,209729,,209729,,209775,8,400,,,
sequence,flow.Sequence,4_51,2023-09-08T20:02:27.745Z,,0,,,3420,completion,,,,,false,,,,209730.00000000003,209729,206275,206268,206309,209775,8,400,,,
trial,html.Screen,4_52_0,2023-09-08T20:02:30.629Z,,0,2,,2871,response,ISIC_0014190.JPG,27,ISIC_0013243.JPG,ISIC_0014190.JPG,false,1,keypress(m),500,212614,212613,209742,209730.00000000003,209775,212659,8,400,3,,ISIC_0013243.JPG
break,html.Screen,4_52_1,2023-09-08T20:02:30.630Z,,0,,,NaN,,,,,,false,,,,212614,212614,,212614,,212659,8,400,,,
break_continue,html.Screen,4_52_2,2023-09-08T20:02:30.630Z,,0,,,NaN,,,,,,false,,,,212615,212615,,212614,,212659,8,400,,,
sequence,flow.Sequence,4_52,2023-09-08T20:02:30.630Z,,0,,,2840,completion,,,,,false,,,,212615,212615,209742,209730.00000000003,209775,212659,8,400,,,
trial,html.Screen,4_53_0,2023-09-08T20:02:33.691Z,,0,2,,3049,response,ISIC_0030985.JPG,23,ISIC_0000558.JPG,ISIC_0000558.JPG,false,0,keypress(z),500,215676.00000000003,215675,212626,212615,212659,215725,8,400,4,,ISIC_0030985.JPG
break,html.Screen,4_53_1,2023-09-08T20:02:33.692Z,,0,,,NaN,,,,,,false,,,,215676.00000000003,215676.00000000003,,215676.00000000003,,215725,8,400,,,
break_continue,html.Screen,4_53_2,2023-09-08T20:02:33.692Z,,0,,,NaN,,,,,,false,,,,215677,215676.00000000003,,215676.00000000003,,215725,8,400,,,
sequence,flow.Sequence,4_53,2023-09-08T20:02:33.692Z,,0,,,3017.000000000029,completion,,,,,false,,,,215677,215676.00000000003,212626,212615,212659,215725,8,400,,,
trial,html.Screen,4_54_0,2023-09-08T20:02:36.977Z,,0,2,,3269,response,ISIC_0563533.JPG,21,ISIC_0011288.JPG,ISIC_0563533.JPG,false,1,keypress(m),500,218961,218961,215692,215677,215725,219009,8,400,5,,ISIC_0011288.JPG
break,html.Screen,4_54_1,2023-09-08T20:02:36.977Z,,0,,,NaN,,,,,,false,,,,218962.00000000003,218962.00000000003,,218961,,219009,8,400,,,
break_continue,html.Screen,4_54_2,2023-09-08T20:02:36.978Z,,0,,,NaN,,,,,,false,,,,218962.00000000003,218962.00000000003,,218962.00000000003,,219009,8,400,,,
sequence,flow.Sequence,4_54,2023-09-08T20:02:36.978Z,,0,,,3237.000000000029,completion,,,,,false,,,,218962.00000000003,218962.00000000003,215692,215677,215725,219009,8,400,,,
trial,html.Screen,4_55_0,2023-09-08T20:02:40.009Z,,0,2,,3017,response,ISIC_0073173.JPG,6,ISIC_0013141.JPG,ISIC_0013141.JPG,false,0,keypress(z),500,221993,221993,218976,218962.00000000003,219009,222041,8,400,6,,ISIC_0073173.JPG
break,html.Screen,4_55_1,2023-09-08T20:02:40.010Z,,0,,,NaN,,,,,,false,,,,221994,221994,,221993,,222041,8,400,,,
break_continue,html.Screen,4_55_2,2023-09-08T20:02:40.010Z,,0,,,NaN,,,,,,false,,,,221994,221994,,221994,,222041,8,400,,,
sequence,flow.Sequence,4_55,2023-09-08T20:02:40.010Z,,0,,,2985,completion,,,,,false,,,,221995,221994,218976,218962.00000000003,219009,222041,8,400,,,
trial,html.Screen,4_56_0,2023-09-08T20:02:42.703Z,,0,2,,2678,response,ISIC_0012025.JPG,3,ISIC_5400609.JPG,ISIC_5400609.JPG,false,0,keypress(z),500,224688.00000000003,224687,222009,221995,222041,224742,8,400,7,,ISIC_0012025.JPG
break,html.Screen,4_56_1,2023-09-08T20:02:42.704Z,,0,,,NaN,,,,,,false,,,,224689,224689,,224688.00000000003,,224742,8,400,,,
break_continue,html.Screen,4_56_2,2023-09-08T20:02:42.704Z,,0,,,NaN,,,,,,false,,,,224689,224689,,224689,,224742,8,400,,,
sequence,flow.Sequence,4_56,2023-09-08T20:02:42.705Z,,0,,,2648,completion,,,,,false,,,,224689,224689,222009,221995,222041,224742,8,400,,,
trial,html.Screen,4_57_0,2023-09-08T20:02:45.993Z,,0,2,,3260,response,ISIC_0011921.JPG,8,ISIC_0057892.JPG,ISIC_0057892.JPG,false,0,keypress(z),500,227977,227977,224717,224689,224742,228026,8,400,8,,ISIC_0011921.JPG
break,html.Screen,4_57_1,2023-09-08T20:02:45.993Z,,0,,,NaN,,,,,,false,,,,227978,227978,,227977,,228026,8,400,,,
break_continue,html.Screen,4_57_2,2023-09-08T20:02:45.993Z,,0,,,NaN,,,,,,false,,,,227978,227978,,227978,,228026,8,400,,,
sequence,flow.Sequence,4_57,2023-09-08T20:02:45.993Z,,0,,,3236,completion,,,,,false,,,,227978,227978,224717,224689,224742,228026,8,400,,,
trial,html.Screen,4_58_0,2023-09-08T20:02:49.292Z,,0,2,,3284,response,ISIC_0055438.JPG,20,ISIC_4108397.JPG,ISIC_4108397.JPG,false,0,keypress(z),500,231276,231276,227992,227978,228026,231326,8,400,9,,ISIC_0055438.JPG
break,html.Screen,4_58_1,2023-09-08T20:02:49.292Z,,0,,,NaN,,,,,,false,,,,231277.00000000003,231277.00000000003,,231276,,231326,8,400,,,
break_continue,html.Screen,4_58_2,2023-09-08T20:02:49.292Z,,0,,,NaN,,,,,,false,,,,231277.00000000003,231277.00000000003,,231277.00000000003,,231326,8,400,,,
sequence,flow.Sequence,4_58,2023-09-08T20:02:49.292Z,,0,,,3251.000000000029,completion,,,,,false,,,,231277.00000000003,231277.00000000003,227992,227978,228026,231326,8,400,,,
trial,html.Screen,4_59_0,2023-09-08T20:02:52.127Z,,0,2,,2820,response,ISIC_2399613.JPG,21,ISIC_0010807.JPG,ISIC_2399613.JPG,false,1,keypress(m),500,234112,234112,231292,231277.00000000003,231326,234159,8,400,10,,ISIC_0010807.JPG
break,html.Screen,4_59_1,2023-09-08T20:02:52.128Z,,0,,,NaN,,,,,,false,,,,234112,234112,,234112,,234159,8,400,,,
break_continue,html.Screen,4_59_2,2023-09-08T20:02:52.128Z,,0,,,NaN,,,,,,false,,,,234112,234112,,234112,,234159,8,400,,,
sequence,flow.Sequence,4_59,2023-09-08T20:02:52.128Z,,0,,,2786,completion,,,,,false,,,,234112,234112,231292,231277.00000000003,231326,234159,8,400,,,
trial,html.Screen,4_60_0,2023-09-08T20:02:56.601Z,,0,2,,4459,response,ISIC_6366417.JPG,5,ISIC_7127760.JPG,ISIC_7127760.JPG,false,0,keypress(z),500,238586,238585,234126,234112,234159,238625,8,400,11,,ISIC_6366417.JPG
break,html.Screen,4_60_1,2023-09-08T20:02:56.602Z,,0,,,NaN,,,,,,false,,,,238586,238586,,238586,,238625,8,400,,,
break_continue,html.Screen,4_60_2,2023-09-08T20:02:56.602Z,,0,,,NaN,,,,,,false,,,,238587.00000000003,238587.00000000003,,238587.00000000003,,238625,8,400,,,
sequence,flow.Sequence,4_60,2023-09-08T20:02:56.602Z,,0,,,4428.000000000029,completion,,,,,false,,,,238587.00000000003,238587.00000000003,234126,234112,234159,238625,8,400,,,
trial,html.Screen,4_61_0,2023-09-08T20:02:59.360Z,,0,2,,2752,response,ISIC_8378321.JPG,0,ISIC_0073136.JPG,ISIC_8378321.JPG,false,1,keypress(m),500,241344,241344,238592,238587.00000000003,238625,241393,8,400,12,,ISIC_0073136.JPG
break,html.Screen,4_61_1,2023-09-08T20:02:59.361Z,,0,,,NaN,,,,,,false,,,,241345,241345,,241345,,241393,8,400,,,
break_continue,html.Screen,4_61_2,2023-09-08T20:02:59.361Z,,0,,,NaN,,,,,,false,,,,241345,241345,,241345,,241393,8,400,,,
sequence,flow.Sequence,4_61,2023-09-08T20:02:59.361Z,,0,,,2720,completion,,,,,false,,,,241345,241345,238592,238587.00000000003,238625,241393,8,400,,,
trial,html.Screen,4_62_0,2023-09-08T20:03:02.888Z,,0,2,,3513,response,ISIC_9939963.JPG,3,ISIC_1722909.JPG,ISIC_1722909.JPG,false,0,keypress(z),500,244872,244872,241359,241345,241393,244926,8,400,13,,ISIC_9939963.JPG
break,html.Screen,4_62_1,2023-09-08T20:03:02.889Z,,0,,,NaN,,,,,,false,,,,244873.00000000003,244873.00000000003,,244872,,244926,8,400,,,
break_continue,html.Screen,4_62_2,2023-09-08T20:03:02.889Z,,0,,,NaN,,,,,,false,,,,244873.00000000003,244873.00000000003,,244873.00000000003,,244926,8,400,,,
sequence,flow.Sequence,4_62,2023-09-08T20:03:02.889Z,,0,,,3480.000000000029,completion,,,,,false,,,,244873.00000000003,244873.00000000003,241359,241345,241393,244926,8,400,,,
trial,html.Screen,4_63_0,2023-09-08T20:03:06.380Z,,0,2,,3463,response,ISIC_5204408.JPG,14,ISIC_0024256.JPG,ISIC_5204408.JPG,false,1,keypress(m),500,248365,248364,244901,244873.00000000003,244926,248409,8,400,14,,ISIC_0024256.JPG
break,html.Screen,4_63_1,2023-09-08T20:03:06.381Z,,0,,,NaN,,,,,,false,,,,248365,248365,,248365,,248409,8,400,,,
break_continue,html.Screen,4_63_2,2023-09-08T20:03:06.381Z,,0,,,NaN,,,,,,false,,,,248365,248365,,248365,,248409,8,400,,,
sequence,flow.Sequence,4_63,2023-09-08T20:03:06.381Z,,0,,,3439,completion,,,,,false,,,,248365,248365,244901,244873.00000000003,244926,248409,8,400,,,
trial,html.Screen,4_64_0,2023-09-08T20:03:09.329Z,,0,2,,2937.000000000029,response,ISIC_0057496.JPG,3,ISIC_5231145.JPG,ISIC_5231145.JPG,false,0,keypress(z),500,251314,251313.00000000003,248376,248366,248409,251359,8,400,15,,ISIC_0057496.JPG
break,html.Screen,4_64_1,2023-09-08T20:03:09.330Z,,0,,,NaN,,,,,,false,,,,251315,251315,,251314,,251359,8,400,,,
break_continue,html.Screen,4_64_2,2023-09-08T20:03:09.331Z,,0,,,NaN,,,,,,false,,,,251315,251315,,251315,,251359,8,400,,,
sequence,flow.Sequence,4_64,2023-09-08T20:03:09.331Z,,0,,,2906,completion,,,,,false,,,,251315,251315,248376,248365,248409,251359,8,400,,,
trial,html.Screen,4_65_0,2023-09-08T20:03:12.522Z,,0,2,,3180,response,ISIC_0014920.JPG,21,ISIC_0028484.JPG,ISIC_0028484.JPG,false,0,keypress(z),500,254507,254506,251326,251316,251359,254559,8,400,16,,ISIC_0014920.JPG
break,html.Screen,4_65_1,2023-09-08T20:03:12.523Z,,0,,,NaN,,,,,,false,,,,254508,254508,,254507,,254559,8,400,,,
break_continue,html.Screen,4_65_2,2023-09-08T20:03:12.524Z,,0,,,NaN,,,,,,false,,,,254508,254508,,254508,,254559,8,400,,,
sequence,flow.Sequence,4_65,2023-09-08T20:03:12.524Z,,0,,,3149,completion,,,,,false,,,,254508,254508,251326,251315,251359,254559,8,400,,,
trial,html.Screen,4_66_0,2023-09-08T20:03:15.344Z,,0,2,,2793.000000000029,response,ISIC_5625747.JPG,9,ISIC_5557025.JPG,ISIC_5557025.JPG,false,0,keypress(z),500,257329,257328.00000000003,254535,254508,254559,257376,8,400,17,,ISIC_5625747.JPG
break,html.Screen,4_66_1,2023-09-08T20:03:15.345Z,,0,,,NaN,,,,,,false,,,,257329.99999999997,257329.99999999997,,257329,,257376,8,400,,,
break_continue,html.Screen,4_66_2,2023-09-08T20:03:15.345Z,,0,,,NaN,,,,,,false,,,,257329.99999999997,257329.99999999997,,257329.99999999997,,257376,8,400,,,
sequence,flow.Sequence,4_66,2023-09-08T20:03:15.346Z,,0,,,2770.999999999971,completion,,,,,false,,,,257329.99999999997,257329.99999999997,254535,254508,254559,257376,8,400,,,
trial,html.Screen,4_67_0,2023-09-08T20:03:18.484Z,,0,2,,3123.999999999971,response,ISIC_0058315.JPG,7,ISIC_0030911.JPG,ISIC_0030911.JPG,false,0,keypress(z),500,260468.00000000003,260466.99999999997,257343,257329.99999999997,257376,260509,8,400,18,,ISIC_0058315.JPG
break,html.Screen,4_67_1,2023-09-08T20:03:18.485Z,,0,,,NaN,,,,,,false,,,,260469,260469,,260468.00000000003,,260509,8,400,,,
break_continue,html.Screen,4_67_2,2023-09-08T20:03:18.485Z,,0,,,NaN,,,,,,false,,,,260470.00000000003,260470.00000000003,,260470.00000000003,,260509,8,400,,,
sequence,flow.Sequence,4_67,2023-09-08T20:03:18.486Z,,0,,,3094.000000000029,completion,,,,,false,,,,260470.00000000003,260470.00000000003,257343,257329.99999999997,257376,260509,8,400,,,
trial,html.Screen,4_68_0,2023-09-08T20:03:21.475Z,,0,2,,2981,response,ISIC_0011627.JPG,16,ISIC_5785408.JPG,ISIC_5785408.JPG,false,0,keypress(z),500,263459,263458,260477,260470.00000000003,260509,263509,8,400,19,,ISIC_0011627.JPG
break,html.Screen,4_68_1,2023-09-08T20:03:21.476Z,,0,,,NaN,,,,,,false,,,,263460,263460,,263459,,263509,8,400,,,
break_continue,html.Screen,4_68_2,2023-09-08T20:03:21.476Z,,0,,,NaN,,,,,,false,,,,263461,263460,,263460,,263509,8,400,,,
sequence,flow.Sequence,4_68,2023-09-08T20:03:21.476Z,,0,,,2951,completion,,,,,false,,,,263461,263460,260477,260470.00000000003,260509,263509,8,400,,,
trial,html.Screen,4_69_0,2023-09-08T20:03:25.054Z,,0,2,,3562,response,ISIC_0071338.JPG,27,ISIC_0059294.JPG,ISIC_0071338.JPG,false,1,keypress(m),500,267039,267038,263476,263461,263509,267093,8,400,20,,ISIC_0059294.JPG
break,html.Screen,4_69_1,2023-09-08T20:03:25.055Z,,0,,,NaN,,,,,,false,,,,267040,267039,,267039,,267093,8,400,,,
break_continue,html.Screen,4_69_2,2023-09-08T20:03:25.056Z,,0,,,NaN,,,,,,false,,,,267040,267040,,267040,,267093,8,400,,,
sequence,flow.Sequence,4_69,2023-09-08T20:03:25.056Z,,0,,,3531,completion,,,,,false,,,,267040,267040,263476,263461,263509,267093,8,400,,,
trial,html.Screen,4_70_0,2023-09-08T20:03:28.101Z,,0,2,,3018,response,ISIC_0004217.JPG,18,ISIC_0001140.JPG,ISIC_0004217.JPG,false,1,keypress(m),500,270086,270085,267067,267040,267093,270126,8,400,21,,ISIC_0001140.JPG
break,html.Screen,4_70_1,2023-09-08T20:03:28.103Z,,0,,,NaN,,,,,,false,,,,270087,270087,,270086,,270126,8,400,,,
break_continue,html.Screen,4_70_2,2023-09-08T20:03:28.103Z,,0,,,NaN,,,,,,false,,,,270088,270087,,270087,,270126,8,400,,,
sequence,flow.Sequence,4_70,2023-09-08T20:03:28.103Z,,0,,,2994,completion,,,,,false,,,,270088,270087,267067,267040,267093,270126,8,400,,,
trial,html.Screen,4_71_0,2023-09-08T20:03:30.971Z,,0,2,,2861,response,ISIC_0065746.JPG,0,ISIC_0024284.JPG,ISIC_0065746.JPG,false,1,keypress(m),500,272955,272954,270093,270088,270126,273010,8,400,22,,ISIC_0024284.JPG
break,html.Screen,4_71_1,2023-09-08T20:03:30.971Z,,0,,,NaN,,,,,,false,,,,272956,272956,,272955,,273010,8,400,,,
break_continue,html.Screen,4_71_2,2023-09-08T20:03:30.972Z,,0,,,NaN,,,,,,false,,,,272956,272956,,272956,,273010,8,400,,,
sequence,flow.Sequence,4_71,2023-09-08T20:03:30.972Z,,0,,,2830,completion,,,,,false,,,,272956,272956,270093,270088,270126,273010,8,400,,,
trial,html.Screen,4_72_0,2023-09-08T20:03:33.813Z,,0,2,,2814,response,ISIC_0026730.JPG,11,ISIC_0030784.JPG,ISIC_0026730.JPG,false,1,keypress(m),500,275798,275798,272984,272957,273010,275843,8,400,23,,ISIC_0030784.JPG
break,html.Screen,4_72_1,2023-09-08T20:03:33.814Z,,0,,,NaN,,,,,,false,,,,275799,275799,,275798,,275843,8,400,,,
break_continue,html.Screen,4_72_2,2023-09-08T20:03:33.815Z,,0,,,NaN,,,,,,false,,,,275799,275799,,275799,,275843,8,400,,,
sequence,flow.Sequence,4_72,2023-09-08T20:03:33.815Z,,0,,,2789,completion,,,,,false,,,,275799,275799,272984,272956,273010,275843,8,400,,,
trial,html.Screen,4_73_0,2023-09-08T20:03:36.778Z,,0,2,,2952,response,ISIC_0067733.JPG,18,ISIC_7612992.JPG,ISIC_0067733.JPG,false,1,keypress(m),500,278763.00000000006,278762,275810,275800,275843,278809,8,400,24,,ISIC_7612992.JPG
break,html.Screen,4_73_1,2023-09-08T20:03:36.779Z,,0,,,NaN,,,,,,false,,,,278764,278764,,278763.00000000006,,278809,8,400,,,
break_continue,html.Screen,4_73_2,2023-09-08T20:03:36.780Z,,0,,,NaN,,,,,,false,,,,278764,278764,,278764,,278809,8,400,,,
sequence,flow.Sequence,4_73,2023-09-08T20:03:36.780Z,,0,,,2921,completion,,,,,false,,,,278764,278764,275810,275799,275843,278809,8,400,,,
trial,html.Screen,4_74_0,2023-09-08T20:03:39.766Z,,0,2,,2974,response,ISIC_0313507.JPG,23,ISIC_0072917.JPG,ISIC_0072917.JPG,false,0,keypress(z),500,281750,281750,278776,278764,278809,281793,8,400,25,,ISIC_0313507.JPG
break,html.Screen,4_74_1,2023-09-08T20:03:39.767Z,,0,,,NaN,,,,,,false,,,,281751.00000000006,281751.00000000006,,281751.00000000006,,281793,8,400,,,
break_continue,html.Screen,4_74_2,2023-09-08T20:03:39.767Z,,0,,,NaN,,,,,,false,,,,281752,281751.00000000006,,281751.00000000006,,281793,8,400,,,
sequence,flow.Sequence,4_74,2023-09-08T20:03:39.767Z,,0,,,2942.000000000058,completion,,,,,false,,,,281752,281751.00000000006,278776,278764,278809,281793,8,400,,,
trial,html.Screen,4_75_0,2023-09-08T20:03:42.438Z,,0,2,,2662,response,ISIC_0072976.JPG,6,ISIC_9948815.JPG,ISIC_9948815.JPG,false,0,keypress(z),500,284422,284422,281760,281752,281793,284478,8,400,26,,ISIC_0072976.JPG
break,html.Screen,4_75_1,2023-09-08T20:03:42.439Z,,0,,,NaN,,,,,,false,,,,284423,284423,,284422,,284478,8,400,,,
break_continue,html.Screen,4_75_2,2023-09-08T20:03:42.439Z,,0,,,NaN,,,,,,false,,,,284423,284423,,284423,,284478,8,400,,,
sequence,flow.Sequence,4_75,2023-09-08T20:03:42.439Z,,0,,,2630,completion,,,,,false,,,,284424,284423,281760,281752,281793,284478,8,400,,,
trial,html.Screen,4_76_0,2023-09-08T20:03:46.134Z,,0,2,,3667,response,ISIC_0033832.JPG,5,ISIC_4614129.JPG,ISIC_0033832.JPG,false,1,keypress(m),500,288118,288118,284451,284424,284478,288159,8,400,27,,ISIC_4614129.JPG
break,html.Screen,4_76_1,2023-09-08T20:03:46.135Z,,0,,,NaN,,,,,,false,,,,288119,288119,,288118,,288159,8,400,,,
break_continue,html.Screen,4_76_2,2023-09-08T20:03:46.135Z,,0,,,NaN,,,,,,false,,,,288120,288119,,288119,,288159,8,400,,,
sequence,flow.Sequence,4_76,2023-09-08T20:03:46.135Z,,0,,,3641,completion,,,,,false,,,,288120,288119,284451,284424,284478,288159,8,400,,,
trial,html.Screen,4_77_0,2023-09-08T20:03:48.825Z,,0,2,,2683,response,ISIC_2668481.JPG,27,ISIC_0010982.JPG,ISIC_0010982.JPG,false,0,keypress(z),500,290809,290809,288126,288120,288159,290860,8,400,28,,ISIC_2668481.JPG
break,html.Screen,4_77_1,2023-09-08T20:03:48.826Z,,0,,,NaN,,,,,,false,,,,290811,290810,,290810,,290860,8,400,,,
break_continue,html.Screen,4_77_2,2023-09-08T20:03:48.827Z,,0,,,NaN,,,,,,false,,,,290811,290811,,290811,,290860,8,400,,,
sequence,flow.Sequence,4_77,2023-09-08T20:03:48.827Z,,0,,,2652,completion,,,,,false,,,,290811,290811,288126,288120,288159,290860,8,400,,,
trial,html.Screen,4_78_0,2023-09-08T20:03:51.814Z,,0,2,,2971,response,ISIC_4288307.JPG,6,ISIC_0066411.JPG,ISIC_0066411.JPG,false,0,keypress(z),500,293798,293798,290827,290812,290860,293843,8,400,29,,ISIC_4288307.JPG
break,html.Screen,4_78_1,2023-09-08T20:03:51.814Z,,0,,,NaN,,,,,,false,,,,293799,293799,,293798,,293843,8,400,,,
break_continue,html.Screen,4_78_2,2023-09-08T20:03:51.814Z,,0,,,NaN,,,,,,false,,,,293799,293799,,293799,,293843,8,400,,,
sequence,flow.Sequence,4_78,2023-09-08T20:03:51.815Z,,0,,,2939,completion,,,,,false,,,,293799,293799,290827,290812,290860,293843,8,400,,,
trial,html.Screen,4_79_0,2023-09-08T20:03:55.071Z,,0,2,,3245,response,ISIC_1166522.JPG,18,ISIC_0030653.JPG,ISIC_1166522.JPG,false,1,keypress(m),500,297056,297055,293810,293799,293843,297110,8,400,30,,ISIC_0030653.JPG
break,html.Screen,4_79_1,2023-09-08T20:03:55.072Z,,0,,,NaN,,,,,,false,,,,297057,297057,,297056,,297110,8,400,,,
break_continue,html.Screen,4_79_2,2023-09-08T20:03:55.073Z,,0,,,NaN,,,,,,false,,,,297057,297057,,297057,,297110,8,400,,,
sequence,flow.Sequence,4_79,2023-09-08T20:03:55.073Z,,0,,,3214,completion,,,,,false,,,,297057,297057,293810,293799,293843,297110,8,400,,,
trial,html.Screen,4_80_0,2023-09-08T20:03:58.179Z,,0,2,,3077,response,ISIC_0483289.JPG,0,ISIC_1315123.JPG,ISIC_0483289.JPG,false,1,keypress(m),500,300163,300163,297086,297058,297110,300210,8,400,31,,ISIC_1315123.JPG
break,html.Screen,4_80_1,2023-09-08T20:03:58.180Z,,0,,,NaN,,,,,,false,,,,300164,300164,,300163,,300210,8,400,,,
break_continue,html.Screen,4_80_2,2023-09-08T20:03:58.180Z,,0,,,NaN,,,,,,false,,,,300164,300164,,300164,,300210,8,400,,,
sequence,flow.Sequence,4_80,2023-09-08T20:03:58.180Z,,0,,,3054,completion,,,,,false,,,,300165,300164,297086,297057,297110,300210,8,400,,,
trial,html.Screen,4_81_0,2023-09-08T20:04:01.164Z,,0,2,,2971,response,ISIC_3941123.JPG,14,ISIC_6131393.JPG,ISIC_6131393.JPG,false,0,keypress(z),500,303149,303148,300177,300165,300210,303193,8,400,32,,ISIC_3941123.JPG
break,html.Screen,4_81_1,2023-09-08T20:04:01.165Z,,0,,,NaN,,,,,,false,,,,303150.00000000006,303149,,303149,,303193,8,400,,,
break_continue,html.Screen,4_81_2,2023-09-08T20:04:01.165Z,,0,,,NaN,,,,,,false,,,,303150.00000000006,303150.00000000006,,303150.00000000006,,303193,8,400,,,
sequence,flow.Sequence,4_81,2023-09-08T20:04:01.165Z,,0,,,2940.000000000058,completion,,,,,false,,,,303150.00000000006,303150.00000000006,300177,300165,300210,303193,8,400,,,
trial,html.Screen,4_82_0,2023-09-08T20:04:04.524Z,,0,2,,3349,response,ISIC_0004352.JPG,27,ISIC_7180096.JPG,ISIC_0004352.JPG,false,1,keypress(m),500,306509,306508,303159,303150.00000000006,303193,306560,8,400,33,,ISIC_7180096.JPG
break,html.Screen,4_82_1,2023-09-08T20:04:04.525Z,,0,,,NaN,,,,,,false,,,,306510,306510,,306509,,306560,8,400,,,
break_continue,html.Screen,4_82_2,2023-09-08T20:04:04.526Z,,0,,,NaN,,,,,,false,,,,306510,306510,,306510,,306560,8,400,,,
sequence,flow.Sequence,4_82,2023-09-08T20:04:04.526Z,,0,,,3317,completion,,,,,false,,,,306510,306510,303159,303150.00000000006,303193,306560,8,400,,,
trial,html.Screen,4_83_0,2023-09-08T20:04:07.438Z,,0,2,,2895,response,ISIC_1640823.JPG,26,ISIC_6450034.JPG,ISIC_1640823.JPG,false,1,keypress(m),500,309423,309422,306527,306511,306560,309477,8,400,34,,ISIC_6450034.JPG
break,html.Screen,4_83_1,2023-09-08T20:04:07.439Z,,0,,,NaN,,,,,,false,,,,309424,309423,,309423,,309477,8,400,,,
break_continue,html.Screen,4_83_2,2023-09-08T20:04:07.439Z,,0,,,NaN,,,,,,false,,,,309424,309424,,309424,,309477,8,400,,,
sequence,flow.Sequence,4_83,2023-09-08T20:04:07.439Z,,0,,,2864,completion,,,,,false,,,,309424,309424,306527,306511,306560,309477,8,400,,,
trial,html.Screen,4_84_0,2023-09-08T20:04:11.712Z,,0,2,,4245,response,ISIC_0059248.JPG,23,ISIC_0030407.JPG,ISIC_0030407.JPG,false,0,keypress(z),500,313697,313696,309451,309424,309477,313743,8,400,35,,ISIC_0059248.JPG
break,html.Screen,4_84_1,2023-09-08T20:04:11.714Z,,0,,,NaN,,,,,,false,,,,313698,313698,,313697,,313743,8,400,,,
break_continue,html.Screen,4_84_2,2023-09-08T20:04:11.714Z,,0,,,NaN,,,,,,false,,,,313699,313699,,313698,,313743,8,400,,,
sequence,flow.Sequence,4_84,2023-09-08T20:04:11.714Z,,0,,,4222,completion,,,,,false,,,,313699,313699,309451,309424,309477,313743,8,400,,,
trial,html.Screen,4_85_0,2023-09-08T20:04:14.634Z,,0,2,,2908,response,ISIC_2805573.JPG,9,ISIC_0062025.JPG,ISIC_2805573.JPG,false,1,keypress(m),500,316618,316618,313710,313699,313743,316659,8,400,36,,ISIC_0062025.JPG
break,html.Screen,4_85_1,2023-09-08T20:04:14.635Z,,0,,,NaN,,,,,,false,,,,316619,316619,,316619,,316659,8,400,,,
break_continue,html.Screen,4_85_2,2023-09-08T20:04:14.635Z,,0,,,NaN,,,,,,false,,,,316620,316620,,316620,,316659,8,400,,,
sequence,flow.Sequence,4_85,2023-09-08T20:04:14.635Z,,0,,,2877,completion,,,,,false,,,,316620,316620,313710,313699,313743,316659,8,400,,,
trial,html.Screen,4_86_0,2023-09-08T20:04:17.847Z,,0,2,,3204,response,ISIC_0070137.JPG,27,ISIC_0032872.JPG,ISIC_0070137.JPG,false,1,keypress(m),500,319832,319831,316627,316620,316659,319877,8,400,37,,ISIC_0032872.JPG
break,html.Screen,4_86_1,2023-09-08T20:04:17.848Z,,0,,,NaN,,,,,,false,,,,319833,319832,,319832,,319877,8,400,,,
break_continue,html.Screen,4_86_2,2023-09-08T20:04:17.848Z,,0,,,NaN,,,,,,false,,,,319833,319833,,319833,,319877,8,400,,,
sequence,flow.Sequence,4_86,2023-09-08T20:04:17.848Z,,0,,,3174,completion,,,,,false,,,,319833,319833,316627,316620,316659,319877,8,400,,,
trial,html.Screen,4_87_0,2023-09-08T20:04:21.535Z,,0,2,,3674,response,ISIC_0013691.JPG,26,ISIC_0032522.JPG,ISIC_0013691.JPG,false,1,keypress(m),500,323520,323519,319845,319833,319877,323560,8,400,38,,ISIC_0032522.JPG
break,html.Screen,4_87_1,2023-09-08T20:04:21.537Z,,0,,,NaN,,,,,,false,,,,323521,323521,,323520,,323560,8,400,,,
break_continue,html.Screen,4_87_2,2023-09-08T20:04:21.537Z,,0,,,NaN,,,,,,false,,,,323522,323521,,323521,,323560,8,400,,,
sequence,flow.Sequence,4_87,2023-09-08T20:04:21.537Z,,0,,,3644,completion,,,,,false,,,,323522,323521,319845,319833,319877,323560,8,400,,,
trial,html.Screen,4_88_0,2023-09-08T20:04:24.487Z,,0,2,,2945,response,ISIC_2585066.JPG,24,ISIC_0066952.JPG,ISIC_2585066.JPG,false,1,keypress(m),500,326472,326471,323526,323522,323560,326510,8,400,39,,ISIC_0066952.JPG
break,html.Screen,4_88_1,2023-09-08T20:04:24.488Z,,0,,,NaN,,,,,,false,,,,326473,326473,,326472,,326510,8,400,,,
break_continue,html.Screen,4_88_2,2023-09-08T20:04:24.488Z,,0,,,NaN,,,,,,false,,,,326473,326473,,326473,,326510,8,400,,,
sequence,flow.Sequence,4_88,2023-09-08T20:04:24.488Z,,0,,,2913,completion,,,,,false,,,,326473,326473,323526,323522,323560,326510,8,400,,,
trial,html.Screen,4_89_0,2023-09-08T20:04:27.701Z,,0,2,,3208,response,ISIC_6918995.JPG,14,ISIC_5182148.JPG,ISIC_6918995.JPG,false,1,keypress(m),500,329685,329685,326477,326473,326510,329727,8,400,40,,ISIC_5182148.JPG
break,html.Screen,4_89_1,2023-09-08T20:04:27.701Z,,0,,,NaN,,,,,,false,,,,329686,329686,,329685,,329727,8,400,,,
break_continue,html.Screen,4_89_2,2023-09-08T20:04:27.702Z,,0,,,NaN,,,,,,false,,,,329686,329686,,329686,,329727,8,400,,,
sequence,flow.Sequence,4_89,2023-09-08T20:04:27.702Z,,0,,,3176,completion,,,,,false,,,,329686,329686,326477,326473,326510,329727,8,400,,,
trial,html.Screen,4_90_0,2023-09-08T20:04:31.499Z,,0,2,,3790,response,ISIC_1708591.JPG,11,ISIC_1178518.JPG,ISIC_1178518.JPG,false,0,keypress(z),500,333484,333484,329694,329687,329727,333527,8,400,41,,ISIC_1708591.JPG
break,html.Screen,4_90_1,2023-09-08T20:04:31.500Z,,0,,,NaN,,,,,,false,,,,333485,333485,,333484,,333527,8,400,,,
break_continue,html.Screen,4_90_2,2023-09-08T20:04:31.501Z,,0,,,NaN,,,,,,false,,,,333485,333485,,333485,,333527,8,400,,,
sequence,flow.Sequence,4_90,2023-09-08T20:04:31.501Z,,0,,,3758,completion,,,,,false,,,,333485,333485,329694,329686,329727,333527,8,400,,,
trial,html.Screen,4_91_0,2023-09-08T20:04:34.941Z,,0,2,,3431,response,ISIC_0028859.JPG,22,ISIC_0071594.JPG,ISIC_0071594.JPG,false,0,keypress(z),500,336926,336925,333494,333485,333527,336977,8,400,42,,ISIC_0028859.JPG
break,html.Screen,4_91_1,2023-09-08T20:04:34.942Z,,0,,,NaN,,,,,,false,,,,336927,336926,,336926,,336977,8,400,,,
break_continue,html.Screen,4_91_2,2023-09-08T20:04:34.942Z,,0,,,NaN,,,,,,false,,,,336927,336927,,336927,,336977,8,400,,,
sequence,flow.Sequence,4_91,2023-09-08T20:04:34.942Z,,0,,,3400,completion,,,,,false,,,,336927,336927,333494,333485,333527,336977,8,400,,,
trial,html.Screen,4_92_0,2023-09-08T20:04:38.283Z,,0,2,,3323,response,ISIC_0027552.JPG,0,ISIC_8389839.JPG,ISIC_0027552.JPG,false,1,keypress(m),500,340268,340267,336944,336927,336977,340310,8,400,43,,ISIC_8389839.JPG
break,html.Screen,4_92_1,2023-09-08T20:04:38.284Z,,0,,,NaN,,,,,,false,,,,340268,340268,,340268,,340310,8,400,,,
break_continue,html.Screen,4_92_2,2023-09-08T20:04:38.284Z,,0,,,NaN,,,,,,false,,,,340268,340268,,340268,,340310,8,400,,,
sequence,flow.Sequence,4_92,2023-09-08T20:04:38.284Z,,0,,,3291,completion,,,,,false,,,,340269,340268,336944,336927,336977,340310,8,400,,,
trial,html.Screen,4_93_0,2023-09-08T20:04:41.200Z,,0,2,,2907,response,ISIC_0056819.JPG,19,ISIC_3157046.JPG,ISIC_0056819.JPG,false,1,keypress(m),500,343185,343184,340277,340269,340310,343227,8,400,44,,ISIC_3157046.JPG
break,html.Screen,4_93_1,2023-09-08T20:04:41.201Z,,0,,,NaN,,,,,,false,,,,343186.00000000006,343186.00000000006,,343185,,343227,8,400,,,
break_continue,html.Screen,4_93_2,2023-09-08T20:04:41.201Z,,0,,,NaN,,,,,,false,,,,343186.00000000006,343186.00000000006,,343186.00000000006,,343227,8,400,,,
sequence,flow.Sequence,4_93,2023-09-08T20:04:41.201Z,,0,,,2876.000000000058,completion,,,,,false,,,,343186.00000000006,343186.00000000006,340277,340269,340310,343227,8,400,,,
trial,html.Screen,4_94_0,2023-09-08T20:04:44.456Z,,0,2,,3246,response,ISIC_2876073.JPG,11,ISIC_6785249.JPG,ISIC_2876073.JPG,false,1,keypress(m),500,346441.00000000006,346440,343194,343186.00000000006,343227,346494,8,400,45,,ISIC_6785249.JPG
break,html.Screen,4_94_1,2023-09-08T20:04:44.457Z,,0,,,NaN,,,,,,false,,,,346442,346442,,346441.00000000006,,346494,8,400,,,
break_continue,html.Screen,4_94_2,2023-09-08T20:04:44.457Z,,0,,,NaN,,,,,,false,,,,346442,346442,,346442,,346494,8,400,,,
sequence,flow.Sequence,4_94,2023-09-08T20:04:44.457Z,,0,,,3215,completion,,,,,false,,,,346442,346442,343194,343186.00000000006,343227,346494,8,400,,,
trial,html.Screen,4_95_0,2023-09-08T20:04:47.233Z,,0,2,,2749,response,ISIC_0870751.JPG,25,ISIC_0030554.JPG,ISIC_0870751.JPG,false,1,keypress(m),500,349218,349218,346469,346442,346494,349261,8,400,46,,ISIC_0030554.JPG
break,html.Screen,4_95_1,2023-09-08T20:04:47.234Z,,0,,,NaN,,,,,,false,,,,349219,349219,,349218,,349261,8,400,,,
break_continue,html.Screen,4_95_2,2023-09-08T20:04:47.235Z,,0,,,NaN,,,,,,false,,,,349219,349219,,349219,,349261,8,400,,,
sequence,flow.Sequence,4_95,2023-09-08T20:04:47.235Z,,0,,,2725,completion,,,,,false,,,,349220,349219,346469,346442,346494,349261,8,400,,,
trial,html.Screen,4_96_0,2023-09-08T20:04:49.939Z,,0,2,,2696,response,ISIC_0064606.JPG,8,ISIC_0030952.JPG,ISIC_0030952.JPG,false,0,keypress(z),500,351923,351923,349227,349220,349261,351977,8,400,47,,ISIC_0064606.JPG
break,html.Screen,4_96_1,2023-09-08T20:04:49.940Z,,0,,,NaN,,,,,,false,,,,351924.00000000006,351924.00000000006,,351924.00000000006,,351977,8,400,,,
break_continue,html.Screen,4_96_2,2023-09-08T20:04:49.940Z,,0,,,NaN,,,,,,false,,,,351925,351925,,351924.00000000006,,351977,8,400,,,
sequence,flow.Sequence,4_96,2023-09-08T20:04:49.940Z,,0,,,2664,completion,,,,,false,,,,351925,351925,349227,349220,349261,351977,8,400,,,
trial,html.Screen,4_97_0,2023-09-08T20:04:52.878Z,,0,2,,2911,response,ISIC_0026155.JPG,3,ISIC_9211072.JPG,ISIC_0026155.JPG,false,1,keypress(m),500,354863,354863,351952,351925,351977,354911,8,400,48,,ISIC_9211072.JPG
break,html.Screen,4_97_1,2023-09-08T20:04:52.879Z,,0,,,NaN,,,,,,false,,,,354864.00000000006,354864.00000000006,,354863,,354911,8,400,,,
break_continue,html.Screen,4_97_2,2023-09-08T20:04:52.879Z,,0,,,NaN,,,,,,false,,,,354864.00000000006,354864.00000000006,,354864.00000000006,,354911,8,400,,,
sequence,flow.Sequence,4_97,2023-09-08T20:04:52.879Z,,0,,,2887.000000000058,completion,,,,,false,,,,354864.00000000006,354864.00000000006,351952,351925,351977,354911,8,400,,,
trial,html.Screen,4_98_0,2023-09-08T20:04:55.550Z,,0,2,,2658,response,ISIC_0000040.JPG,2,ISIC_8843592.JPG,ISIC_8843592.JPG,false,0,keypress(z),500,357535,357535,354877,354864.00000000006,354911,357577,8,400,49,,ISIC_0000040.JPG
break,html.Screen,4_98_1,2023-09-08T20:04:55.551Z,,0,,,NaN,,,,,,false,,,,357536,357536,,357535,,357577,8,400,,,
break_continue,html.Screen,4_98_2,2023-09-08T20:04:55.551Z,,0,,,NaN,,,,,,false,,,,357536,357536,,357536,,357577,8,400,,,
sequence,flow.Sequence,4_98,2023-09-08T20:04:55.552Z,,0,,,2625,completion,,,,,false,,,,357536,357536,354877,354864.00000000006,354911,357577,8,400,,,
trial,html.Screen,4_99_0,2023-09-08T20:04:58.291Z,,0,2,,2732,response,ISIC_1831600.JPG,1,ISIC_1850196.JPG,ISIC_1850196.JPG,false,0,keypress(z),500,360276,360276,357544,357536,357577,360328,8,400,50,,ISIC_1831600.JPG
break,html.Screen,4_99_1,2023-09-08T20:05:08.310Z,,0,,,10000,timeout,,,,,false,,,,370295,370294,360294,360276,360328,370328,8,400,,,
break_continue,html.Screen,4_99_2,2023-09-08T20:05:08.847Z,,0,,,543,response,,,,,false,continue,keypress(Space),,370832,370837,370294,370295,370328,370877,8,400,,,
sequence,flow.Sequence,4_99,2023-09-08T20:05:08.847Z,,0,,,13260,completion,,,,,false,,,,370832,370837,357544,357536,357577,370877,8,400,,,
trial,html.Screen,4_100_0,2023-09-08T20:05:12.035Z,,0,3,,3175,response,ISIC_1290821.JPG,26,ISIC_0024990.JPG,ISIC_0024990.JPG,false,0,keypress(z),500,374019,374019,370844,370832,370877,374060,8,400,1,,ISIC_1290821.JPG
break,html.Screen,4_100_1,2023-09-08T20:05:12.035Z,,0,,,NaN,,,,,,false,,,,374020,374020,,374020,,374060,8,400,,,
break_continue,html.Screen,4_100_2,2023-09-08T20:05:12.036Z,,0,,,NaN,,,,,,false,,,,374021,374020,,374020,,374060,8,400,,,
sequence,flow.Sequence,4_100,2023-09-08T20:05:12.036Z,,0,,,3143,completion,,,,,false,,,,374021,374020,370844,370832,370877,374060,8,400,,,
trial,html.Screen,4_101_0,2023-09-08T20:05:15.157Z,,0,3,,3115,response,ISIC_2948896.JPG,17,ISIC_2214766.JPG,ISIC_2948896.JPG,false,1,keypress(m),500,377142,377142,374027,374021,374060,377194,8,400,2,,ISIC_2214766.JPG
break,html.Screen,4_101_1,2023-09-08T20:05:15.158Z,,0,,,NaN,,,,,,false,,,,377143,377143,,377142,,377194,8,400,,,
break_continue,html.Screen,4_101_2,2023-09-08T20:05:15.159Z,,0,,,NaN,,,,,,false,,,,377143,377143,,377143,,377194,8,400,,,
sequence,flow.Sequence,4_101,2023-09-08T20:05:15.159Z,,0,,,3083,completion,,,,,false,,,,377143,377143,374027,374021,374060,377194,8,400,,,
trial,html.Screen,4_102_0,2023-09-08T20:05:18.492Z,,0,3,,3306.000000000058,response,ISIC_6710082.JPG,14,ISIC_0033625.JPG,ISIC_0033625.JPG,false,0,keypress(z),500,380477.00000000006,380477.00000000006,377171,377144,377194,380528,8,400,3,,ISIC_6710082.JPG
break,html.Screen,4_102_1,2023-09-08T20:05:18.493Z,,0,,,NaN,,,,,,false,,,,380478,380478,,380477.00000000006,,380528,8,400,,,
break_continue,html.Screen,4_102_2,2023-09-08T20:05:18.493Z,,0,,,NaN,,,,,,false,,,,380478,380478,,380478,,380528,8,400,,,
sequence,flow.Sequence,4_102,2023-09-08T20:05:18.494Z,,0,,,3284,completion,,,,,false,,,,380478,380478,377171,377144,377194,380528,8,400,,,
trial,html.Screen,4_103_0,2023-09-08T20:05:21.531Z,,0,3,,3020,response,ISIC_1686556.JPG,9,ISIC_0067274.JPG,ISIC_1686556.JPG,false,1,keypress(m),500,383516,383515,380495,380479,380528,383561,8,400,4,,ISIC_0067274.JPG
break,html.Screen,4_103_1,2023-09-08T20:05:21.531Z,,0,,,NaN,,,,,,false,,,,383516,383516,,383516,,383561,8,400,,,
break_continue,html.Screen,4_103_2,2023-09-08T20:05:21.532Z,,0,,,NaN,,,,,,false,,,,383516,383516,,383516,,383561,8,400,,,
sequence,flow.Sequence,4_103,2023-09-08T20:05:21.532Z,,0,,,2988,completion,,,,,false,,,,383517,383516,380495,380479,380528,383561,8,400,,,
trial,html.Screen,4_104_0,2023-09-08T20:05:25.069Z,,0,3,,3526,response,ISIC_0032204.JPG,1,ISIC_5908780.JPG,ISIC_5908780.JPG,false,0,keypress(z),500,387054.00000000006,387053,383527,383517,383561,387094,8,400,5,,ISIC_0032204.JPG
break,html.Screen,4_104_1,2023-09-08T20:05:25.070Z,,0,,,NaN,,,,,,false,,,,387055,387055,,387054.00000000006,,387094,8,400,,,
break_continue,html.Screen,4_104_2,2023-09-08T20:05:25.070Z,,0,,,NaN,,,,,,false,,,,387055,387055,,387055,,387094,8,400,,,
sequence,flow.Sequence,4_104,2023-09-08T20:05:25.071Z,,0,,,3494,completion,,,,,false,,,,387055,387055,383527,383517,383561,387094,8,400,,,
trial,html.Screen,4_105_0,2023-09-08T20:05:28.398Z,,0,3,,3321,response,ISIC_0033589.JPG,2,ISIC_2916754.JPG,ISIC_0033589.JPG,false,1,keypress(m),500,390383,390382,387061,387056,387094,390428,8,400,6,,ISIC_2916754.JPG
break,html.Screen,4_105_1,2023-09-08T20:05:28.398Z,,0,,,NaN,,,,,,false,,,,390383,390383,,390383,,390428,8,400,,,
break_continue,html.Screen,4_105_2,2023-09-08T20:05:28.399Z,,0,,,NaN,,,,,,false,,,,390384,390384,,390383,,390428,8,400,,,
sequence,flow.Sequence,4_105,2023-09-08T20:05:28.399Z,,0,,,3290,completion,,,,,false,,,,390384,390384,387061,387055,387094,390428,8,400,,,
trial,html.Screen,4_106_0,2023-09-08T20:05:31.213Z,,0,3,,2802,response,ISIC_5008399.JPG,4,ISIC_0013501.JPG,ISIC_5008399.JPG,false,1,keypress(m),500,393197,393197,390395,390384,390428,393244,8,400,7,,ISIC_0013501.JPG
break,html.Screen,4_106_1,2023-09-08T20:05:31.214Z,,0,,,NaN,,,,,,false,,,,393198.00000000006,393198.00000000006,,393198.00000000006,,393244,8,400,,,
break_continue,html.Screen,4_106_2,2023-09-08T20:05:31.214Z,,0,,,NaN,,,,,,false,,,,393199,393199,,393199,,393244,8,400,,,
sequence,flow.Sequence,4_106,2023-09-08T20:05:31.214Z,,0,,,2771,completion,,,,,false,,,,393199,393199,390395,390384,390428,393244,8,400,,,
trial,html.Screen,4_107_0,2023-09-08T20:05:34.246Z,,0,3,,3019,response,ISIC_1077375.JPG,9,ISIC_6381785.JPG,ISIC_1077375.JPG,false,1,keypress(m),500,396230,396230,393211,393199,393244,396278,8,400,8,,ISIC_6381785.JPG
break,html.Screen,4_107_1,2023-09-08T20:05:34.247Z,,0,,,NaN,,,,,,false,,,,396231,396231,,396231,,396278,8,400,,,
break_continue,html.Screen,4_107_2,2023-09-08T20:05:34.247Z,,0,,,NaN,,,,,,false,,,,396232,396232,,396232,,396278,8,400,,,
sequence,flow.Sequence,4_107,2023-09-08T20:05:34.247Z,,0,,,2988,completion,,,,,false,,,,396232,396232,393211,393199,393244,396278,8,400,,,
trial,html.Screen,4_108_0,2023-09-08T20:05:37.445Z,,0,3,,3186,response,ISIC_0059768.JPG,4,ISIC_4184101.JPG,ISIC_0059768.JPG,false,1,keypress(m),500,399430,399430,396244,396232,396278,399478,8,400,9,,ISIC_4184101.JPG
break,html.Screen,4_108_1,2023-09-08T20:05:37.446Z,,0,,,NaN,,,,,,false,,,,399431,399431,,399430,,399478,8,400,,,
break_continue,html.Screen,4_108_2,2023-09-08T20:05:37.447Z,,0,,,NaN,,,,,,false,,,,399431,399431,,399431,,399478,8,400,,,
sequence,flow.Sequence,4_108,2023-09-08T20:05:37.447Z,,0,,,3153,completion,,,,,false,,,,399432,399431,396244,396232,396278,399478,8,400,,,
trial,html.Screen,4_109_0,2023-09-08T20:05:40.255Z,,0,3,,2795,response,ISIC_6595186.JPG,15,ISIC_0201767.JPG,ISIC_0201767.JPG,false,0,keypress(z),500,402240,402240,399445,399432,399478,402295,8,400,10,,ISIC_6595186.JPG
break,html.Screen,4_109_1,2023-09-08T20:05:40.256Z,,0,,,NaN,,,,,,false,,,,402241,402241,,402240,,402295,8,400,,,
break_continue,html.Screen,4_109_2,2023-09-08T20:05:40.256Z,,0,,,NaN,,,,,,false,,,,402241,402241,,402241,,402295,8,400,,,
sequence,flow.Sequence,4_109,2023-09-08T20:05:40.256Z,,0,,,2763,completion,,,,,false,,,,402241,402241,399445,399432,399478,402295,8,400,,,
trial,html.Screen,4_110_0,2023-09-08T20:05:44.569Z,,0,3,,4283,response,ISIC_5468164.JPG,26,ISIC_5361404.JPG,ISIC_5468164.JPG,false,1,keypress(m),500,406554.00000000006,406553,402270,402241,402295,406595,8,400,11,,ISIC_5361404.JPG
break,html.Screen,4_110_1,2023-09-08T20:05:44.570Z,,0,,,NaN,,,,,,false,,,,406555,406555,,406554.00000000006,,406595,8,400,,,
break_continue,html.Screen,4_110_2,2023-09-08T20:05:44.570Z,,0,,,NaN,,,,,,false,,,,406555,406555,,406555,,406595,8,400,,,
sequence,flow.Sequence,4_110,2023-09-08T20:05:44.570Z,,0,,,4260,completion,,,,,false,,,,406555,406555,402270,402241,402295,406595,8,400,,,
trial,html.Screen,4_111_0,2023-09-08T20:05:47.796Z,,0,3,,3219.000000000058,response,ISIC_0005494.JPG,2,ISIC_0062649.JPG,ISIC_0005494.JPG,false,1,keypress(m),500,409781,409780.00000000006,406561,406555,406595,409828,8,400,12,,ISIC_0062649.JPG
break,html.Screen,4_111_1,2023-09-08T20:05:47.797Z,,0,,,NaN,,,,,,false,,,,409782,409781,,409781,,409828,8,400,,,
break_continue,html.Screen,4_111_2,2023-09-08T20:05:47.797Z,,0,,,NaN,,,,,,false,,,,409782,409782,,409782,,409828,8,400,,,
sequence,flow.Sequence,4_111,2023-09-08T20:05:47.797Z,,0,,,3187,completion,,,,,false,,,,409782,409782,406561,406555,406595,409828,8,400,,,
trial,html.Screen,4_112_0,2023-09-08T20:05:51.580Z,,0,3,,3769,response,ISIC_0064589.JPG,15,ISIC_0046222.JPG,ISIC_0046222.JPG,false,0,keypress(z),500,413565,413564,409795,409782,409828,413612,8,400,13,,ISIC_0064589.JPG
break,html.Screen,4_112_1,2023-09-08T20:05:51.581Z,,0,,,NaN,,,,,,false,,,,413566.00000000006,413566.00000000006,,413565,,413612,8,400,,,
break_continue,html.Screen,4_112_2,2023-09-08T20:05:51.581Z,,0,,,NaN,,,,,,false,,,,413566.00000000006,413566.00000000006,,413566.00000000006,,413612,8,400,,,
sequence,flow.Sequence,4_112,2023-09-08T20:05:51.581Z,,0,,,3738.000000000058,completion,,,,,false,,,,413566.00000000006,413566.00000000006,409795,409782,409828,413612,8,400,,,
trial,html.Screen,4_113_0,2023-09-08T20:05:55.655Z,,0,3,,4062,response,ISIC_0028618.JPG,11,ISIC_9084751.JPG,ISIC_9084751.JPG,false,0,keypress(z),500,417640,417640,413578,413566.00000000006,413612,417695,8,400,14,,ISIC_0028618.JPG
break,html.Screen,4_113_1,2023-09-08T20:05:55.656Z,,0,,,NaN,,,,,,false,,,,417641,417641,,417640,,417695,8,400,,,
break_continue,html.Screen,4_113_2,2023-09-08T20:05:55.656Z,,0,,,NaN,,,,,,false,,,,417641,417641,,417641,,417695,8,400,,,
sequence,flow.Sequence,4_113,2023-09-08T20:05:55.657Z,,0,,,4029,completion,,,,,false,,,,417641,417641,413578,413566.00000000006,413612,417695,8,400,,,
trial,html.Screen,4_114_0,2023-09-08T20:05:59.496Z,,0,3,,3812,response,ISIC_0002566.JPG,16,ISIC_9019691.JPG,ISIC_0002566.JPG,false,1,keypress(m),500,421481,421481,417669,417642,417695,421528,8,400,15,,ISIC_9019691.JPG
break,html.Screen,4_114_1,2023-09-08T20:05:59.497Z,,0,,,NaN,,,,,,false,,,,421482,421482,,421481,,421528,8,400,,,
break_continue,html.Screen,4_114_2,2023-09-08T20:05:59.498Z,,0,,,NaN,,,,,,false,,,,421482,421482,,421482,,421528,8,400,,,
sequence,flow.Sequence,4_114,2023-09-08T20:05:59.498Z,,0,,,3787,completion,,,,,false,,,,421483,421482,417669,417642,417695,421528,8,400,,,
trial,html.Screen,4_115_0,2023-09-08T20:06:03.797Z,,0,3,,4287,response,ISIC_0027822.JPG,15,ISIC_0000754.JPG,ISIC_0000754.JPG,false,0,keypress(z),500,425782,425782,421495,421483,421528,425828,8,400,16,,ISIC_0027822.JPG
break,html.Screen,4_115_1,2023-09-08T20:06:03.798Z,,0,,,NaN,,,,,,false,,,,425783,425783,,425782,,425828,8,400,,,
break_continue,html.Screen,4_115_2,2023-09-08T20:06:03.798Z,,0,,,NaN,,,,,,false,,,,425783,425783,,425783,,425828,8,400,,,
sequence,flow.Sequence,4_115,2023-09-08T20:06:03.799Z,,0,,,4255,completion,,,,,false,,,,425783,425783,421495,421483,421528,425828,8,400,,,
trial,html.Screen,4_116_0,2023-09-08T20:06:07.165Z,,0,3,,3355.000000000058,response,ISIC_9386509.JPG,3,ISIC_0010321.JPG,ISIC_9386509.JPG,false,1,keypress(m),500,429150.00000000006,429150.00000000006,425795,425784,425828,429195,8,400,17,,ISIC_0010321.JPG
break,html.Screen,4_116_1,2023-09-08T20:06:07.166Z,,0,,,NaN,,,,,,false,,,,429151,429151,,429150.00000000006,,429195,8,400,,,
break_continue,html.Screen,4_116_2,2023-09-08T20:06:07.166Z,,0,,,NaN,,,,,,false,,,,429151,429151,,429151,,429195,8,400,,,
sequence,flow.Sequence,4_116,2023-09-08T20:06:07.166Z,,0,,,3323,completion,,,,,false,,,,429151,429151,425795,425784,425828,429195,8,400,,,
trial,html.Screen,4_117_0,2023-09-08T20:06:10.398Z,,0,3,,3221,response,ISIC_0067156.JPG,26,ISIC_0058149.JPG,ISIC_0067156.JPG,false,1,keypress(m),500,432383,432382,429161,429151,429195,432428,8,400,18,,ISIC_0058149.JPG
break,html.Screen,4_117_1,2023-09-08T20:06:10.399Z,,0,,,NaN,,,,,,false,,,,432384,432383,,432383,,432428,8,400,,,
break_continue,html.Screen,4_117_2,2023-09-08T20:06:10.399Z,,0,,,NaN,,,,,,false,,,,432384,432384,,432384,,432428,8,400,,,
sequence,flow.Sequence,4_117,2023-09-08T20:06:10.399Z,,0,,,3189,completion,,,,,false,,,,432384,432384,429161,429151,429195,432428,8,400,,,
trial,html.Screen,4_118_0,2023-09-08T20:06:13.484Z,,0,3,,3074,response,ISIC_7330564.JPG,3,ISIC_0011094.JPG,ISIC_7330564.JPG,false,1,keypress(m),500,435469,435469,432395,432384,432428,435511,8,400,19,,ISIC_0011094.JPG
break,html.Screen,4_118_1,2023-09-08T20:06:13.485Z,,0,,,NaN,,,,,,false,,,,435470,435470,,435469,,435511,8,400,,,
break_continue,html.Screen,4_118_2,2023-09-08T20:06:13.485Z,,0,,,NaN,,,,,,false,,,,435470,435470,,435470,,435511,8,400,,,
sequence,flow.Sequence,4_118,2023-09-08T20:06:13.485Z,,0,,,3042,completion,,,,,false,,,,435470,435470,432395,432384,432428,435511,8,400,,,
trial,html.Screen,4_119_0,2023-09-08T20:06:16.840Z,,0,3,,3345,response,ISIC_0489267.JPG,7,ISIC_0071892.JPG,ISIC_0489267.JPG,false,1,keypress(m),500,438825,438824,435479,435470,435511,438879,8,400,20,,ISIC_0071892.JPG
break,html.Screen,4_119_1,2023-09-08T20:06:16.841Z,,0,,,NaN,,,,,,false,,,,438826,438825,,438825,,438879,8,400,,,
break_continue,html.Screen,4_119_2,2023-09-08T20:06:16.841Z,,0,,,NaN,,,,,,false,,,,438826,438826,,438826,,438879,8,400,,,
sequence,flow.Sequence,4_119,2023-09-08T20:06:16.841Z,,0,,,3315,completion,,,,,false,,,,438826,438826,435479,435470,435511,438879,8,400,,,
trial,html.Screen,4_120_0,2023-09-08T20:06:19.762Z,,0,3,,2894,response,ISIC_7025487.JPG,12,ISIC_0010503.JPG,ISIC_7025487.JPG,false,1,keypress(m),500,441747,441747,438853,438826,438879,441795,8,400,21,,ISIC_0010503.JPG
break,html.Screen,4_120_1,2023-09-08T20:06:19.763Z,,0,,,NaN,,,,,,false,,,,441748,441748,,441747,,441795,8,400,,,
break_continue,html.Screen,4_120_2,2023-09-08T20:06:19.763Z,,0,,,NaN,,,,,,false,,,,441748,441748,,441748,,441795,8,400,,,
sequence,flow.Sequence,4_120,2023-09-08T20:06:19.763Z,,0,,,2869,completion,,,,,false,,,,441748,441748,438853,438826,438879,441795,8,400,,,
trial,html.Screen,4_121_0,2023-09-08T20:06:22.440Z,,0,3,,2663,response,ISIC_9732721.JPG,29,ISIC_0028366.JPG,ISIC_9732721.JPG,false,1,keypress(m),500,444425,444425,441762,441748,441795,444479,8,400,22,,ISIC_0028366.JPG
break,html.Screen,4_121_1,2023-09-08T20:06:22.441Z,,0,,,NaN,,,,,,false,,,,444426,444426,,444426,,444479,8,400,,,
break_continue,html.Screen,4_121_2,2023-09-08T20:06:22.442Z,,0,,,NaN,,,,,,false,,,,444427,444427,,444427,,444479,8,400,,,
sequence,flow.Sequence,4_121,2023-09-08T20:06:22.442Z,,0,,,2632,completion,,,,,false,,,,444427,444427,441762,441748,441795,444479,8,400,,,
trial,html.Screen,4_122_0,2023-09-08T20:06:25.520Z,,0,3,,3049,response,ISIC_0006116.JPG,21,ISIC_4475657.JPG,ISIC_0006116.JPG,false,1,keypress(m),500,447505,447504,444455,444427,444479,447545,8,400,23,,ISIC_4475657.JPG
break,html.Screen,4_122_1,2023-09-08T20:06:25.521Z,,0,,,NaN,,,,,,false,,,,447506,447506,,447505,,447545,8,400,,,
break_continue,html.Screen,4_122_2,2023-09-08T20:06:25.521Z,,0,,,NaN,,,,,,false,,,,447506,447506,,447506,,447545,8,400,,,
sequence,flow.Sequence,4_122,2023-09-08T20:06:25.521Z,,0,,,3027,completion,,,,,false,,,,447506,447506,444455,444427,444479,447545,8,400,,,
trial,html.Screen,4_123_0,2023-09-08T20:06:28.663Z,,0,3,,3135,response,ISIC_0010349.JPG,1,ISIC_0010734.JPG,ISIC_0010734.JPG,false,0,keypress(z),500,450648,450647,447512,447506,447545,450695,8,400,24,,ISIC_0010349.JPG
break,html.Screen,4_123_1,2023-09-08T20:06:28.664Z,,0,,,NaN,,,,,,false,,,,450649,450648,,450648,,450695,8,400,,,
break_continue,html.Screen,4_123_2,2023-09-08T20:06:28.664Z,,0,,,NaN,,,,,,false,,,,450649,450649,,450649,,450695,8,400,,,
sequence,flow.Sequence,4_123,2023-09-08T20:06:28.664Z,,0,,,3104,completion,,,,,false,,,,450649,450649,447512,447506,447545,450695,8,400,,,
trial,html.Screen,4_124_0,2023-09-08T20:06:32.424Z,,0,3,,3746,response,ISIC_7662993.JPG,8,ISIC_0025778.JPG,ISIC_7662993.JPG,false,1,keypress(m),500,454409,454408,450662,450649,450695,454462,8,400,25,,ISIC_0025778.JPG
break,html.Screen,4_124_1,2023-09-08T20:06:32.424Z,,0,,,NaN,,,,,,false,,,,454409,454409,,454409,,454462,8,400,,,
break_continue,html.Screen,4_124_2,2023-09-08T20:06:32.425Z,,0,,,NaN,,,,,,false,,,,454410,454410,,454410,,454462,8,400,,,
sequence,flow.Sequence,4_124,2023-09-08T20:06:32.425Z,,0,,,3715,completion,,,,,false,,,,454410,454410,450662,450649,450695,454462,8,400,,,
trial,html.Screen,4_125_0,2023-09-08T20:06:36.741Z,,0,3,,4287,response,ISIC_0057009.JPG,28,ISIC_1718403.JPG,ISIC_1718403.JPG,false,0,keypress(z),500,458726,458725,454438,454410,454462,458779,8,400,26,,ISIC_0057009.JPG
break,html.Screen,4_125_1,2023-09-08T20:06:36.741Z,,0,,,NaN,,,,,,false,,,,458727.00000000006,458726,,458726,,458779,8,400,,,
break_continue,html.Screen,4_125_2,2023-09-08T20:06:36.742Z,,0,,,NaN,,,,,,false,,,,458727.00000000006,458727.00000000006,,458727.00000000006,,458779,8,400,,,
sequence,flow.Sequence,4_125,2023-09-08T20:06:36.742Z,,0,,,4265.000000000058,completion,,,,,false,,,,458727.00000000006,458727.00000000006,454438,454410,454462,458779,8,400,,,
trial,html.Screen,4_126_0,2023-09-08T20:06:39.725Z,,0,3,,2956.000000000058,response,ISIC_9069800.JPG,1,ISIC_0024718.JPG,ISIC_9069800.JPG,false,1,keypress(m),500,461710.00000000006,461710.00000000006,458754,458727.00000000006,458779,461762,8,400,27,,ISIC_0024718.JPG
break,html.Screen,4_126_1,2023-09-08T20:06:39.726Z,,0,,,NaN,,,,,,false,,,,461711,461711,,461711,,461762,8,400,,,
break_continue,html.Screen,4_126_2,2023-09-08T20:06:39.726Z,,0,,,NaN,,,,,,false,,,,461711,461711,,461711,,461762,8,400,,,
sequence,flow.Sequence,4_126,2023-09-08T20:06:39.726Z,,0,,,2932,completion,,,,,false,,,,461711,461711,458754,458727.00000000006,458779,461762,8,400,,,
trial,html.Screen,4_127_0,2023-09-08T20:06:42.907Z,,0,3,,3152,response,ISIC_0032695.JPG,16,ISIC_0939648.JPG,ISIC_0032695.JPG,false,1,keypress(m),500,464892,464891,461739,461711,461762,464946,8,400,28,,ISIC_0939648.JPG
break,html.Screen,4_127_1,2023-09-08T20:06:42.908Z,,0,,,NaN,,,,,,false,,,,464893,464892,,464892,,464946,8,400,,,
break_continue,html.Screen,4_127_2,2023-09-08T20:06:42.908Z,,0,,,NaN,,,,,,false,,,,464893,464893,,464893,,464946,8,400,,,
sequence,flow.Sequence,4_127,2023-09-08T20:06:42.908Z,,0,,,3131,completion,,,,,false,,,,464893,464893,461739,461711,461762,464946,8,400,,,
trial,html.Screen,4_128_0,2023-09-08T20:06:46.382Z,,0,3,,3446,response,ISIC_0013277.JPG,14,ISIC_0027863.JPG,ISIC_0013277.JPG,false,1,keypress(m),500,468367,468366,464920,464893,464946,468412,8,400,29,,ISIC_0027863.JPG
break,html.Screen,4_128_1,2023-09-08T20:06:46.382Z,,0,,,NaN,,,,,,false,,,,468368,468367,,468367,,468412,8,400,,,
break_continue,html.Screen,4_128_2,2023-09-08T20:06:46.383Z,,0,,,NaN,,,,,,false,,,,468368,468368,,468368,,468412,8,400,,,
sequence,flow.Sequence,4_128,2023-09-08T20:06:46.383Z,,0,,,3422,completion,,,,,false,,,,468368,468368,464920,464893,464946,468412,8,400,,,
trial,html.Screen,4_129_0,2023-09-08T20:06:49.710Z,,0,3,,3316,response,ISIC_5484086.JPG,20,ISIC_0025531.JPG,ISIC_5484086.JPG,false,1,keypress(m),500,471695,471695,468379,468368,468412,471746,8,400,30,,ISIC_0025531.JPG
break,html.Screen,4_129_1,2023-09-08T20:06:49.711Z,,0,,,NaN,,,,,,false,,,,471696,471696,,471695,,471746,8,400,,,
break_continue,html.Screen,4_129_2,2023-09-08T20:06:49.711Z,,0,,,NaN,,,,,,false,,,,471696,471696,,471696,,471746,8,400,,,
sequence,flow.Sequence,4_129,2023-09-08T20:06:49.711Z,,0,,,3284,completion,,,,,false,,,,471696,471696,468379,468368,468412,471746,8,400,,,
trial,html.Screen,4_130_0,2023-09-08T20:06:52.644Z,,0,3,,2916,response,ISIC_0271408.JPG,21,ISIC_0067830.JPG,ISIC_0271408.JPG,false,1,keypress(m),500,474629,474628,471712,471696,471746,474679,8,400,31,,ISIC_0067830.JPG
break,html.Screen,4_130_1,2023-09-08T20:06:52.645Z,,0,,,NaN,,,,,,false,,,,474630,474629,,474629,,474679,8,400,,,
break_continue,html.Screen,4_130_2,2023-09-08T20:06:52.645Z,,0,,,NaN,,,,,,false,,,,474630,474630,,474630,,474679,8,400,,,
sequence,flow.Sequence,4_130,2023-09-08T20:06:52.645Z,,0,,,2884,completion,,,,,false,,,,474630,474630,471712,471696,471746,474679,8,400,,,
trial,html.Screen,4_131_0,2023-09-08T20:06:56.023Z,,0,3,,3363.000000000058,response,ISIC_0067601.JPG,28,ISIC_4794052.JPG,ISIC_4794052.JPG,false,0,keypress(z),500,478008.00000000006,478008.00000000006,474645,474630,474679,478063,8,400,32,,ISIC_0067601.JPG
break,html.Screen,4_131_1,2023-09-08T20:06:56.024Z,,0,,,NaN,,,,,,false,,,,478009,478009,,478008.00000000006,,478063,8,400,,,
break_continue,html.Screen,4_131_2,2023-09-08T20:06:56.024Z,,0,,,NaN,,,,,,false,,,,478009,478009,,478009,,478063,8,400,,,
sequence,flow.Sequence,4_131,2023-09-08T20:06:56.024Z,,0,,,3330,completion,,,,,false,,,,478009,478009,474645,474630,474679,478063,8,400,,,
trial,html.Screen,4_132_0,2023-09-08T20:06:59.028Z,,0,3,,2978.000000000058,response,ISIC_0065013.JPG,8,ISIC_0061315.JPG,ISIC_0061315.JPG,false,0,keypress(z),500,481014,481013.00000000006,478035,478009,478063,481062,8,400,33,,ISIC_0065013.JPG
break,html.Screen,4_132_1,2023-09-08T20:06:59.029Z,,0,,,NaN,,,,,,false,,,,481014,481014,,481014,,481062,8,400,,,
break_continue,html.Screen,4_132_2,2023-09-08T20:06:59.030Z,,0,,,NaN,,,,,,false,,,,481015,481015,,481015,,481062,8,400,,,
sequence,flow.Sequence,4_132,2023-09-08T20:06:59.030Z,,0,,,2952,completion,,,,,false,,,,481015,481015,478035,478009,478063,481062,8,400,,,
trial,html.Screen,4_133_0,2023-09-08T20:07:02.511Z,,0,3,,3467.000000000058,response,ISIC_0031365.JPG,3,ISIC_0012391.JPG,ISIC_0031365.JPG,false,1,keypress(m),500,484496.00000000006,484496.00000000006,481029,481015,481062,484546,8,400,34,,ISIC_0012391.JPG
break,html.Screen,4_133_1,2023-09-08T20:07:02.512Z,,0,,,NaN,,,,,,false,,,,484497,484497,,484497,,484546,8,400,,,
break_continue,html.Screen,4_133_2,2023-09-08T20:07:02.513Z,,0,,,NaN,,,,,,false,,,,484498,484498,,484498,,484546,8,400,,,
sequence,flow.Sequence,4_133,2023-09-08T20:07:02.513Z,,0,,,3436,completion,,,,,false,,,,484498,484498,481029,481015,481062,484546,8,400,,,
trial,html.Screen,4_134_0,2023-09-08T20:07:05.493Z,,0,3,,2965,response,ISIC_9241732.JPG,29,ISIC_0029998.JPG,ISIC_0029998.JPG,false,0,keypress(z),500,487478,487478,484513,484498,484546,487529,8,400,35,,ISIC_9241732.JPG
break,html.Screen,4_134_1,2023-09-08T20:07:05.494Z,,0,,,NaN,,,,,,false,,,,487479,487479,,487478,,487529,8,400,,,
break_continue,html.Screen,4_134_2,2023-09-08T20:07:05.494Z,,0,,,NaN,,,,,,false,,,,487479,487479,,487479,,487529,8,400,,,
sequence,flow.Sequence,4_134,2023-09-08T20:07:05.494Z,,0,,,2933,completion,,,,,false,,,,487479,487479,484513,484498,484546,487529,8,400,,,
trial,html.Screen,4_135_0,2023-09-08T20:07:08.466Z,,0,3,,2954,response,ISIC_8838753.JPG,18,ISIC_1352841.JPG,ISIC_1352841.JPG,false,0,keypress(z),500,490451,490450,487496,487480,487529,490496,8,400,36,,ISIC_8838753.JPG
break,html.Screen,4_135_1,2023-09-08T20:07:08.467Z,,0,,,NaN,,,,,,false,,,,490452,490452,,490451,,490496,8,400,,,
break_continue,html.Screen,4_135_2,2023-09-08T20:07:08.467Z,,0,,,NaN,,,,,,false,,,,490452,490452,,490452,,490496,8,400,,,
sequence,flow.Sequence,4_135,2023-09-08T20:07:08.467Z,,0,,,2923,completion,,,,,false,,,,490452,490452,487496,487480,487529,490496,8,400,,,
trial,html.Screen,4_136_0,2023-09-08T20:07:11.855Z,,0,3,,3377.000000000058,response,ISIC_0013565.JPG,15,ISIC_0011894.JPG,ISIC_0013565.JPG,false,1,keypress(m),500,493841,493840.00000000006,490463,490452,490496,493879,8,400,37,,ISIC_0011894.JPG
break,html.Screen,4_136_1,2023-09-08T20:07:11.856Z,,0,,,NaN,,,,,,false,,,,493841,493841,,493841,,493879,8,400,,,
break_continue,html.Screen,4_136_2,2023-09-08T20:07:11.857Z,,0,,,NaN,,,,,,false,,,,493842,493842,,493842,,493879,8,400,,,
sequence,flow.Sequence,4_136,2023-09-08T20:07:11.857Z,,0,,,3346,completion,,,,,false,,,,493842,493842,490463,490452,490496,493879,8,400,,,
trial,html.Screen,4_137_0,2023-09-08T20:07:14.964Z,,0,3,,3104,response,ISIC_0014129.JPG,16,ISIC_0000291.JPG,ISIC_0014129.JPG,false,1,keypress(m),500,496949,496949,493845,493842,493879,496996,8,400,38,,ISIC_0000291.JPG
break,html.Screen,4_137_1,2023-09-08T20:07:14.965Z,,0,,,NaN,,,,,,false,,,,496950,496950,,496949,,496996,8,400,,,
break_continue,html.Screen,4_137_2,2023-09-08T20:07:14.965Z,,0,,,NaN,,,,,,false,,,,496950,496950,,496950,,496996,8,400,,,
sequence,flow.Sequence,4_137,2023-09-08T20:07:14.965Z,,0,,,3071,completion,,,,,false,,,,496950,496950,493845,493842,493879,496996,8,400,,,
trial,html.Screen,4_138_0,2023-09-08T20:07:17.980Z,,0,3,,3001,response,ISIC_0805941.JPG,27,ISIC_0011870.JPG,ISIC_0805941.JPG,false,1,keypress(m),500,499965.00000000006,499964,496963,496951,496996,500013,8,400,39,,ISIC_0011870.JPG
break,html.Screen,4_138_1,2023-09-08T20:07:17.981Z,,0,,,NaN,,,,,,false,,,,499966,499966,,499965.00000000006,,500013,8,400,,,
break_continue,html.Screen,4_138_2,2023-09-08T20:07:17.982Z,,0,,,NaN,,,,,,false,,,,499967,499967,,499966,,500013,8,400,,,
sequence,flow.Sequence,4_138,2023-09-08T20:07:17.982Z,,0,,,2971,completion,,,,,false,,,,499967,499967,496963,496951,496996,500013,8,400,,,
trial,html.Screen,4_139_0,2023-09-08T20:07:20.958Z,,0,3,,2962,response,ISIC_7562175.JPG,10,ISIC_0058753.JPG,ISIC_7562175.JPG,false,1,keypress(m),500,502943,502942,499980,499967,500013,502996,8,400,40,,ISIC_0058753.JPG
break,html.Screen,4_139_1,2023-09-08T20:07:20.959Z,,0,,,NaN,,,,,,false,,,,502944,502944,,502943,,502996,8,400,,,
break_continue,html.Screen,4_139_2,2023-09-08T20:07:20.959Z,,0,,,NaN,,,,,,false,,,,502944,502944,,502944,,502996,8,400,,,
sequence,flow.Sequence,4_139,2023-09-08T20:07:20.959Z,,0,,,2931,completion,,,,,false,,,,502945,502944,499980,499967,500013,502996,8,400,,,
trial,html.Screen,4_140_0,2023-09-08T20:07:23.888Z,,0,3,,2901,response,ISIC_6548734.JPG,3,ISIC_5768749.JPG,ISIC_6548734.JPG,false,1,keypress(m),500,505873,505872,502971,502945,502996,505913,8,400,41,,ISIC_5768749.JPG
break,html.Screen,4_140_1,2023-09-08T20:07:23.889Z,,0,,,NaN,,,,,,false,,,,505874,505874,,505873,,505913,8,400,,,
break_continue,html.Screen,4_140_2,2023-09-08T20:07:23.889Z,,0,,,NaN,,,,,,false,,,,505875,505874,,505874,,505913,8,400,,,
sequence,flow.Sequence,4_140,2023-09-08T20:07:23.890Z,,0,,,2878,completion,,,,,false,,,,505875,505874,502971,502945,502996,505913,8,400,,,
trial,html.Screen,4_141_0,2023-09-08T20:07:26.652Z,,0,3,,2757,response,ISIC_0053846.JPG,13,ISIC_0058837.JPG,ISIC_0053846.JPG,false,1,keypress(m),500,508637,508636,505879,505875,505913,508679,8,400,42,,ISIC_0058837.JPG
break,html.Screen,4_141_1,2023-09-08T20:07:26.653Z,,0,,,NaN,,,,,,false,,,,508638.00000000006,508637,,508637,,508679,8,400,,,
break_continue,html.Screen,4_141_2,2023-09-08T20:07:26.653Z,,0,,,NaN,,,,,,false,,,,508638.00000000006,508638.00000000006,,508638.00000000006,,508679,8,400,,,
sequence,flow.Sequence,4_141,2023-09-08T20:07:26.653Z,,0,,,2725.000000000058,completion,,,,,false,,,,508638.00000000006,508638.00000000006,505879,505875,505913,508679,8,400,,,
trial,html.Screen,4_142_0,2023-09-08T20:07:29.917Z,,0,3,,3255,response,ISIC_0029182.JPG,10,ISIC_0033429.JPG,ISIC_0029182.JPG,false,1,keypress(m),500,511902,511901,508646,508638.00000000006,508679,511946,8,400,43,,ISIC_0033429.JPG
break,html.Screen,4_142_1,2023-09-08T20:07:29.918Z,,0,,,NaN,,,,,,false,,,,511903,511903,,511902,,511946,8,400,,,
break_continue,html.Screen,4_142_2,2023-09-08T20:07:29.918Z,,0,,,NaN,,,,,,false,,,,511903,511903,,511903,,511946,8,400,,,
sequence,flow.Sequence,4_142,2023-09-08T20:07:29.918Z,,0,,,3224,completion,,,,,false,,,,511903,511903,508646,508638.00000000006,508679,511946,8,400,,,
trial,html.Screen,4_143_0,2023-09-08T20:07:33.412Z,,0,3,,3482.999999999942,response,ISIC_2432848.JPG,13,ISIC_0000550.JPG,ISIC_0000550.JPG,false,0,keypress(z),500,515397.00000000006,515395.99999999994,511913,511903,511946,515446,8,400,44,,ISIC_2432848.JPG
break,html.Screen,4_143_1,2023-09-08T20:07:33.413Z,,0,,,NaN,,,,,,false,,,,515398,515398,,515397.00000000006,,515446,8,400,,,
break_continue,html.Screen,4_143_2,2023-09-08T20:07:33.413Z,,0,,,NaN,,,,,,false,,,,515398,515398,,515398,,515446,8,400,,,
sequence,flow.Sequence,4_143,2023-09-08T20:07:33.413Z,,0,,,3452,completion,,,,,false,,,,515398,515398,511913,511903,511946,515446,8,400,,,
trial,html.Screen,4_144_0,2023-09-08T20:07:36.137Z,,0,3,,2708.999999999942,response,ISIC_0029383.JPG,28,ISIC_0067054.JPG,ISIC_0029383.JPG,false,1,keypress(m),500,518123.00000000006,518121.99999999994,515413,515398,515446,518163,8,400,45,,ISIC_0067054.JPG
break,html.Screen,4_144_1,2023-09-08T20:07:36.139Z,,0,,,NaN,,,,,,false,,,,518124,518124,,518123.00000000006,,518163,8,400,,,
break_continue,html.Screen,4_144_2,2023-09-08T20:07:36.139Z,,0,,,NaN,,,,,,false,,,,518124,518124,,518124,,518163,8,400,,,
sequence,flow.Sequence,4_144,2023-09-08T20:07:36.139Z,,0,,,2678,completion,,,,,false,,,,518124,518124,515413,515398,515446,518163,8,400,,,
trial,html.Screen,4_145_0,2023-09-08T20:07:38.745Z,,0,3,,2601,response,ISIC_5850699.JPG,3,ISIC_5527447.JPG,ISIC_5850699.JPG,false,1,keypress(m),500,520730,520730,518129,518125,518163,520780,8,400,46,,ISIC_5527447.JPG
break,html.Screen,4_145_1,2023-09-08T20:07:38.746Z,,0,,,NaN,,,,,,false,,,,520731,520731,,520730,,520780,8,400,,,
break_continue,html.Screen,4_145_2,2023-09-08T20:07:38.746Z,,0,,,NaN,,,,,,false,,,,520731,520731,,520731,,520780,8,400,,,
sequence,flow.Sequence,4_145,2023-09-08T20:07:38.746Z,,0,,,2568,completion,,,,,false,,,,520731,520731,518129,518125,518163,520780,8,400,,,
trial,html.Screen,4_146_0,2023-09-08T20:07:41.556Z,,0,3,,2794.000000000058,response,ISIC_1441260.JPG,6,ISIC_0014707.JPG,ISIC_1441260.JPG,false,1,keypress(m),500,523541.00000000006,523541.00000000006,520747,520731,520780,523596,8,400,47,,ISIC_0014707.JPG
break,html.Screen,4_146_1,2023-09-08T20:07:41.557Z,,0,,,NaN,,,,,,false,,,,523542.00000000006,523542.00000000006,,523542.00000000006,,523596,8,400,,,
break_continue,html.Screen,4_146_2,2023-09-08T20:07:41.557Z,,0,,,NaN,,,,,,false,,,,523543,523542.00000000006,,523542.00000000006,,523596,8,400,,,
sequence,flow.Sequence,4_146,2023-09-08T20:07:41.557Z,,0,,,2762.000000000058,completion,,,,,false,,,,523543,523542.00000000006,520747,520731,520780,523596,8,400,,,
trial,html.Screen,4_147_0,2023-09-08T20:07:45.147Z,,0,3,,3562.0000000001164,response,ISIC_2858419.JPG,15,ISIC_0623284.JPG,ISIC_0623284.JPG,false,0,keypress(z),500,527132.0000000001,527132.0000000001,523570,523543,523596,527180,8,400,48,,ISIC_2858419.JPG
break,html.Screen,4_147_1,2023-09-08T20:07:45.148Z,,0,,,NaN,,,,,,false,,,,527133,527133,,527132.0000000001,,527180,8,400,,,
break_continue,html.Screen,4_147_2,2023-09-08T20:07:45.148Z,,0,,,NaN,,,,,,false,,,,527133,527133,,527133,,527180,8,400,,,
sequence,flow.Sequence,4_147,2023-09-08T20:07:45.148Z,,0,,,3537,completion,,,,,false,,,,527133,527133,523570,523543,523596,527180,8,400,,,
trial,html.Screen,4_148_0,2023-09-08T20:07:47.868Z,,0,3,,2707.0000000001164,response,ISIC_1383822.JPG,24,ISIC_0359307.JPG,ISIC_1383822.JPG,false,1,keypress(m),500,529854,529853.0000000001,527146,527133,527180,529896,8,400,49,,ISIC_0359307.JPG
break,html.Screen,4_148_1,2023-09-08T20:07:47.869Z,,0,,,NaN,,,,,,false,,,,529855,529854,,529854,,529896,8,400,,,
break_continue,html.Screen,4_148_2,2023-09-08T20:07:47.870Z,,0,,,NaN,,,,,,false,,,,529855,529855,,529855,,529896,8,400,,,
sequence,flow.Sequence,4_148,2023-09-08T20:07:47.870Z,,0,,,2675,completion,,,,,false,,,,529855,529855,527146,527133,527180,529896,8,400,,,
trial,html.Screen,4_149_0,2023-09-08T20:07:50.505Z,,0,3,,2627,response,ISIC_0057328.JPG,3,ISIC_5065360.JPG,ISIC_5065360.JPG,false,0,keypress(z),500,532490,532490,529863,529855,529896,532529,8,400,50,,ISIC_0057328.JPG
break,html.Screen,4_149_1,2023-09-08T20:08:00.512Z,,0,,,10001,timeout,,,,,false,,,,542498,542497,532496,532490,532529,542530,8,400,,,
break_continue,html.Screen,4_149_2,2023-09-08T20:08:01.282Z,,0,,,774,response,,,,,false,continue,keypress(Space),,543268,543271,542497,542498,542530,543313,8,400,,,
sequence,flow.Sequence,4_149,2023-09-08T20:08:01.283Z,,0,,,13375,completion,,,,,false,,,,543268,543271,529863,529855,529896,543313,8,400,,,
trial,html.Screen,4_150_0,2023-09-08T20:08:04.352Z,,0,4,,3057,response,ISIC_0067206.JPG,30,ISIC_1637536.JPG,ISIC_1637536.JPG,false,0,keypress(z),500,546337,546337,543280,543268,543313,546380,8,400,1,,ISIC_0067206.JPG
break,html.Screen,4_150_1,2023-09-08T20:08:04.353Z,,0,,,NaN,,,,,,false,,,,546338,546338,,546338,,546380,8,400,,,
break_continue,html.Screen,4_150_2,2023-09-08T20:08:04.353Z,,0,,,NaN,,,,,,false,,,,546339,546338,,546338,,546380,8,400,,,
sequence,flow.Sequence,4_150,2023-09-08T20:08:04.353Z,,0,,,3025,completion,,,,,false,,,,546339,546338,543280,543268,543313,546380,8,400,,,
trial,html.Screen,4_151_0,2023-09-08T20:08:07.391Z,,0,4,,3028,response,ISIC_0062812.JPG,19,ISIC_4375524.JPG,ISIC_4375524.JPG,false,0,keypress(z),500,549376,549375,546347,546339,546380,549430,8,400,2,,ISIC_0062812.JPG
break,html.Screen,4_151_1,2023-09-08T20:08:07.392Z,,0,,,NaN,,,,,,false,,,,549377.0000000001,549377.0000000001,,549376,,549430,8,400,,,
break_continue,html.Screen,4_151_2,2023-09-08T20:08:07.392Z,,0,,,NaN,,,,,,false,,,,549377.0000000001,549377.0000000001,,549377.0000000001,,549430,8,400,,,
sequence,flow.Sequence,4_151,2023-09-08T20:08:07.392Z,,0,,,2997.0000000001164,completion,,,,,false,,,,549377.0000000001,549377.0000000001,546347,546339,546380,549430,8,400,,,
trial,html.Screen,4_152_0,2023-09-08T20:08:10.408Z,,0,4,,2988,response,ISIC_9364740.JPG,11,ISIC_0065219.JPG,ISIC_9364740.JPG,false,1,keypress(m),500,552393,552393,549405,549377.0000000001,549430,552447,8,400,3,,ISIC_0065219.JPG
break,html.Screen,4_152_1,2023-09-08T20:08:10.409Z,,0,,,NaN,,,,,,false,,,,552394,552394,,552393,,552447,8,400,,,
break_continue,html.Screen,4_152_2,2023-09-08T20:08:10.409Z,,0,,,NaN,,,,,,false,,,,552394,552394,,552394,,552447,8,400,,,
sequence,flow.Sequence,4_152,2023-09-08T20:08:10.409Z,,0,,,2964,completion,,,,,false,,,,552394,552394,549405,549377.0000000001,549430,552447,8,400,,,
trial,html.Screen,4_153_0,2023-09-08T20:08:13.199Z,,0,4,,2762,response,ISIC_0011641.JPG,24,ISIC_0001875.JPG,ISIC_0001875.JPG,false,0,keypress(z),500,555184,555184,552422,552394,552447,555230,8,400,4,,ISIC_0011641.JPG
break,html.Screen,4_153_1,2023-09-08T20:08:13.200Z,,0,,,NaN,,,,,,false,,,,555186,555185.0000000001,,555185.0000000001,,555230,8,400,,,
break_continue,html.Screen,4_153_2,2023-09-08T20:08:13.201Z,,0,,,NaN,,,,,,false,,,,555186,555186,,555186,,555230,8,400,,,
sequence,flow.Sequence,4_153,2023-09-08T20:08:13.201Z,,0,,,2739,completion,,,,,false,,,,555186,555186,552422,552394,552447,555230,8,400,,,
trial,html.Screen,4_154_0,2023-09-08T20:08:16.247Z,,0,4,,3035,response,ISIC_2376758.JPG,22,ISIC_0069486.JPG,ISIC_2376758.JPG,false,1,keypress(m),500,558232,558232,555197,555186,555230,558280,8,400,5,,ISIC_0069486.JPG
break,html.Screen,4_154_1,2023-09-08T20:08:16.248Z,,0,,,NaN,,,,,,false,,,,558233.0000000001,558233.0000000001,,558232,,558280,8,400,,,
break_continue,html.Screen,4_154_2,2023-09-08T20:08:16.248Z,,0,,,NaN,,,,,,false,,,,558234,558233.0000000001,,558233.0000000001,,558280,8,400,,,
sequence,flow.Sequence,4_154,2023-09-08T20:08:16.248Z,,0,,,3003.0000000001164,completion,,,,,false,,,,558234,558233.0000000001,555197,555186,555230,558280,8,400,,,
trial,html.Screen,4_155_0,2023-09-08T20:08:18.958Z,,0,4,,2697,response,ISIC_6515546.JPG,4,ISIC_6180870.JPG,ISIC_6515546.JPG,false,1,keypress(m),500,560944,560943,558246,558234,558280,560996,8,400,6,,ISIC_6180870.JPG
break,html.Screen,4_155_1,2023-09-08T20:08:18.959Z,,0,,,NaN,,,,,,false,,,,560945,560944,,560944,,560996,8,400,,,
break_continue,html.Screen,4_155_2,2023-09-08T20:08:18.960Z,,0,,,NaN,,,,,,false,,,,560945,560945,,560945,,560996,8,400,,,
sequence,flow.Sequence,4_155,2023-09-08T20:08:18.960Z,,0,,,2665,completion,,,,,false,,,,560945,560945,558246,558234,558280,560996,8,400,,,
trial,html.Screen,4_156_0,2023-09-08T20:08:22.500Z,,0,4,,3513,response,ISIC_7306535.JPG,22,ISIC_4606646.JPG,ISIC_7306535.JPG,false,1,keypress(m),500,564485,564485,560972,560945,560996,564529,8,400,7,,ISIC_4606646.JPG
break,html.Screen,4_156_1,2023-09-08T20:08:22.501Z,,0,,,NaN,,,,,,false,,,,564486,564486,,564486,,564529,8,400,,,
break_continue,html.Screen,4_156_2,2023-09-08T20:08:22.501Z,,0,,,NaN,,,,,,false,,,,564487,564486,,564486,,564529,8,400,,,
