sender,sender_type,sender_id,timestamp,meta,,blockNo,condition,duration,ended_on,img_left,img_reveal,img_right,loser,practice,response,response_action,selection_duration,time_commit,time_end,time_render,time_run,time_show,time_switch,total_blocks,total_trials,trialNo,url,winner
informed_consent,html.Screen,0,2023-09-11T18:28:09.540Z,"{""labjs_version"":""20.2.4"",""labjs_build"":{""flavor"":""production"",""commit"":""f5b4a49f956347addd546a832a3327688c2c0fef""},""location"":""https://run.pavlovia.org/MurrayBennett/melanoma-2afc/?participant=66396&platform=sona"",""userAgent"":""Mozilla/5.0 (Macintosh; Intel Mac OS X 10_15_7) AppleWebKit/537.36 (KHTML, like Gecko) Chrome/116.0.0.0 Safari/537.36"",""platform"":""MacIntel"",""language"":""en-US"",""locale"":""en-US"",""timeZone"":""America/Chicago"",""timezoneOffset"":300,""screen_width"":1440,""screen_height"":900,""scroll_width"":1426,""scroll_height"":665,""window_innerWidth"":1426,""window_innerHeight"":713,""devicePixelRatio"":2}",,,,163611.256,response,,,,,,consent,click button,,168155.40000000596,168151,4523.078,4523.5999999940395,4539.744,168172.562,,,,"{""participant"":""66396"",""platform"":""sona""}",
Welcome,html.Screen,1,2023-09-11T18:29:40.194Z,,,,regular,90666.83800000596,response,,,,,,continue,click button,,258841.70000000298,258839.40000000596,168139.23,168155.79999999702,168172.562,258854.603,,,,,
trial,html.Screen,2_0_0,2023-09-11T18:29:51.499Z,,0,0,,11290.696999997017,response,ISIC_4679428.JPG,,ISIC_0061792.JPG,ISIC_0061792.JPG,true,0,keypress(z),500,270145.90000000596,270145.299999997,258837.937,258842.09999999404,258854.603,270155.321,1,6,1,,ISIC_4679428.JPG
sequence,flow.Sequence,2_0,2023-09-11T18:29:51.499Z,,0,,,11290.696999997017,completion,,,,,true,,,,270146.5,270145.299999997,258837.937,258842.09999999404,258854.603,270155.321,1,6,,,
trial,html.Screen,2_1_0,2023-09-11T18:29:57.784Z,,0,0,,6275.679000000004,response,ISIC_0776486.JPG,,ISIC_5199497.JPG,ISIC_5199497.JPG,true,0,keypress(z),500,276431.5,276431,270138.655,270146.700000003,270155.321,276438.403,1,6,2,,ISIC_0776486.JPG
sequence,flow.Sequence,2_1,2023-09-11T18:29:57.785Z,,0,,,6275.679000000004,completion,,,,,true,,,,276431.90000000596,276431,270138.655,270146.59999999404,270155.321,276438.403,1,6,,,
trial,html.Screen,2_2_0,2023-09-11T18:30:09.279Z,,0,0,,11516.872000000032,timeout,ISIC_8575776.JPG,,ISIC_2556187.JPG,,true,,,500,287926.40000000596,287926,276421.737,276432.09999999404,276438.403,287955.275,1,6,3,,
sequence,flow.Sequence,2_2,2023-09-11T18:30:09.279Z,,0,,,11487.597000000009,completion,,,,,true,,,,287926.799999997,287926,276421.737,276432,276438.403,287955.275,1,6,,,
trial,html.Screen,2_3_0,2023-09-11T18:30:15.973Z,,0,0,,6664.5249999969965,response,ISIC_9238366.JPG,,ISIC_8141769.JPG,ISIC_8141769.JPG,true,0,keypress(z),500,294620.200000003,294619.799999997,287938.609,287927.09999999404,287955.275,294638.341,1,6,4,,ISIC_9238366.JPG
sequence,flow.Sequence,2_3,2023-09-11T18:30:15.974Z,,0,,,6664.5249999969965,completion,,,,,true,,,,294620.90000000596,294619.799999997,287938.609,287926.90000000596,287955.275,294638.341,1,6,,,
trial,html.Screen,2_4_0,2023-09-11T18:30:21.466Z,,0,0,,5474.559000005946,response,ISIC_8949026.JPG,,ISIC_9959593.JPG,ISIC_8949026.JPG,true,1,keypress(m),500,300113.40000000596,300112.90000000596,294621.675,294621.09999999404,294638.341,300122.215,1,6,5,,ISIC_9959593.JPG
sequence,flow.Sequence,2_4,2023-09-11T18:30:21.467Z,,0,,,5474.559000005946,completion,,,,,true,,,,300113.799999997,300112.90000000596,294621.675,294621,294638.341,300122.215,1,6,,,
trial,html.Screen,2_5_0,2023-09-11T18:30:25.679Z,,0,0,,4203.384999994014,response,ISIC_0460240.JPG,,ISIC_0010479.JPG,ISIC_0010479.JPG,true,0,keypress(z),500,304326,304325.59999999404,300105.549,300114.09999999404,300122.215,304338.713,1,6,6,,ISIC_0460240.JPG
sequence,flow.Sequence,2_5,2023-09-11T18:30:25.679Z,,0,,,4203.384999994014,completion,,,,,true,,,,304326.5,304325.59999999404,300105.549,300114,300122.215,304338.713,1,6,,,
loop,flow.Loop,2,2023-09-11T18:30:25.679Z,,,,,45470.99699999404,completion,,,,,true,,,,304326.700000003,304325.59999999404,258837.937,258841.90000000596,258854.603,304338.713,1,6,,,
exp_instructions,html.Screen,3,2023-09-11T18:30:49.681Z,,,,,23983.68700000597,response,,,,,,continue,keypress(Space),,328328,328322.40000000596,304322.047,304326.90000000596,304338.713,328337.753,,,,,
trial,html.Screen,4_0_0,2023-09-11T18:30:55.206Z,,0,1,,5515.046999996994,response,ISIC_5221917.JPG,9,ISIC_1185006.JPG,ISIC_1185006.JPG,false,0,keypress(z),500,333853.200000003,333852.799999997,328321.087,328328.299999997,328337.753,333854.815,8,400,1,,ISIC_5221917.JPG
break,html.Screen,4_0_1,2023-09-11T18:30:55.208Z,,0,,,NaN,,,,,,false,,,,333854.90000000596,333854.59999999404,,333853.59999999404,,333854.815,8,400,,,
break_continue,html.Screen,4_0_2,2023-09-11T18:30:55.208Z,,0,,,NaN,,,,,,false,,,,333855.5,333855.40000000596,,333855.200000003,,333854.815,8,400,,,
sequence,flow.Sequence,4_0,2023-09-11T18:30:55.208Z,,0,,,5517.647000005934,completion,,,,,false,,,,333855.5,333855.40000000596,328321.087,328328.299999997,328337.753,333854.815,8,400,,,
trial,html.Screen,4_1_0,2023-09-11T18:31:00.363Z,,0,1,,5154.484999997017,response,ISIC_1150482.JPG,8,ISIC_8172822.JPG,ISIC_8172822.JPG,false,0,keypress(z),500,339009.700000003,339009.299999997,333838.149,333855.700000003,333854.815,339021.966,8,400,2,,ISIC_1150482.JPG
break,html.Screen,4_1_1,2023-09-11T18:31:00.364Z,,0,,,NaN,,,,,,false,,,,339011.200000003,339010.799999997,,339010.09999999404,,339021.966,8,400,,,
break_continue,html.Screen,4_1_2,2023-09-11T18:31:00.365Z,,0,,,NaN,,,,,,false,,,,339011.799999997,339011.59999999404,,339011.40000000596,,339021.966,8,400,,,
sequence,flow.Sequence,4_1,2023-09-11T18:31:00.365Z,,0,,,5156.784999994037,completion,,,,,false,,,,339011.90000000596,339011.59999999404,333838.149,333855.700000003,333854.815,339021.966,8,400,,,
trial,html.Screen,4_2_0,2023-09-11T18:31:06.025Z,,0,1,,5649.833999997005,response,ISIC_2162728.JPG,7,ISIC_9348399.JPG,ISIC_2162728.JPG,false,1,keypress(m),500,344672.200000003,344671.799999997,339005.3,339012.09999999404,339021.966,344688.406,8,400,3,,ISIC_9348399.JPG
break,html.Screen,4_2_1,2023-09-11T18:31:06.027Z,,0,,,NaN,,,,,,false,,,,344673.799999997,344673.40000000596,,344672.5,,344688.406,8,400,,,
break_continue,html.Screen,4_2_2,2023-09-11T18:31:06.027Z,,0,,,NaN,,,,,,false,,,,344674.299999997,344674.200000003,,344673.90000000596,,344688.406,8,400,,,
sequence,flow.Sequence,4_2,2023-09-11T18:31:06.027Z,,0,,,5652.234000002965,completion,,,,,false,,,,344674.5,344674.200000003,339005.3,339012.09999999404,339021.966,344688.406,8,400,,,
trial,html.Screen,4_3_0,2023-09-11T18:31:11.089Z,,0,1,,5046.994000005943,response,ISIC_7717907.JPG,8,ISIC_0031625.JPG,ISIC_7717907.JPG,false,1,keypress(m),500,349735.799999997,349735.40000000596,344671.74,344674.700000003,344688.406,349738.621,8,400,4,,ISIC_0031625.JPG
break,html.Screen,4_3_1,2023-09-11T18:31:11.090Z,,0,,,NaN,,,,,,false,,,,349737.09999999404,349736.799999997,,349736,,349738.621,8,400,,,
break_continue,html.Screen,4_3_2,2023-09-11T18:31:11.090Z,,0,,,NaN,,,,,,false,,,,349737.59999999404,349737.5,,349737.200000003,,349738.621,8,400,,,
sequence,flow.Sequence,4_3,2023-09-11T18:31:11.091Z,,0,,,5049.093999999983,completion,,,,,false,,,,349737.700000003,349737.5,344671.74,344674.59999999404,344688.406,349738.621,8,400,,,
trial,html.Screen,4_4_0,2023-09-11T18:31:17.232Z,,0,1,,6140.478999994055,response,ISIC_2159510.JPG,9,ISIC_6541615.JPG,ISIC_6541615.JPG,false,0,keypress(z),500,355879.5,355879.09999999404,349721.955,349737.90000000596,349738.621,355888.375,8,400,5,,ISIC_2159510.JPG
break,html.Screen,4_4_1,2023-09-11T18:31:17.234Z,,0,,,NaN,,,,,,false,,,,355880.799999997,355880.5,,355879.700000003,,355888.375,8,400,,,
break_continue,html.Screen,4_4_2,2023-09-11T18:31:17.234Z,,0,,,NaN,,,,,,false,,,,355881.299999997,355881.200000003,,355881,,355888.375,8,400,,,
sequence,flow.Sequence,4_4,2023-09-11T18:31:17.234Z,,0,,,6142.579000002996,completion,,,,,false,,,,355881.5,355881.200000003,349721.955,349737.90000000596,349738.621,355888.375,8,400,,,
trial,html.Screen,4_5_0,2023-09-11T18:31:23.865Z,,0,1,,6622.92499999702,response,ISIC_5992826.JPG,9,ISIC_7984569.JPG,ISIC_7984569.JPG,false,0,keypress(z),500,362511.700000003,362511.299999997,355871.709,355881.59999999404,355888.375,362521.828,8,400,6,,ISIC_5992826.JPG
break,html.Screen,4_5_1,2023-09-11T18:31:23.866Z,,0,,,NaN,,,,,,false,,,,362513.299999997,362512.90000000596,,362512.09999999404,,362521.828,8,400,,,
break_continue,html.Screen,4_5_2,2023-09-11T18:31:23.867Z,,0,,,NaN,,,,,,false,,,,362513.90000000596,362513.799999997,,362513.40000000596,,362521.828,8,400,,,
sequence,flow.Sequence,4_5,2023-09-11T18:31:23.867Z,,0,,,6625.42499999702,completion,,,,,false,,,,362514.09999999404,362513.799999997,355871.709,355881.5,355888.375,362521.828,8,400,,,
trial,html.Screen,4_6_0,2023-09-11T18:31:28.510Z,,0,1,,4635.1720000000205,response,ISIC_8813283.JPG,8,ISIC_0001152.JPG,ISIC_0001152.JPG,false,0,keypress(z),500,367157.5,367157,362505.162,362514.299999997,362521.828,367171.642,8,400,7,,ISIC_8813283.JPG
break,html.Screen,4_6_1,2023-09-11T18:31:28.512Z,,0,,,NaN,,,,,,false,,,,367158.90000000596,367158.59999999404,,367157.700000003,,367171.642,8,400,,,
break_continue,html.Screen,4_6_2,2023-09-11T18:31:28.512Z,,0,,,NaN,,,,,,false,,,,367159.299999997,367159.200000003,,367159.09999999404,,367171.642,8,400,,,
sequence,flow.Sequence,4_6,2023-09-11T18:31:28.512Z,,0,,,4637.372000003001,completion,,,,,false,,,,367159.40000000596,367159.200000003,362505.162,362514.200000003,362521.828,367171.642,8,400,,,
trial,html.Screen,4_7_0,2023-09-11T18:31:33.685Z,,0,1,,5159.858000000007,response,ISIC_0066429.JPG,7,ISIC_9779803.JPG,ISIC_0066429.JPG,false,1,keypress(m),500,372332,372331.5,367154.976,367159.5,367171.642,372338.624,8,400,8,,ISIC_9779803.JPG
break,html.Screen,4_7_1,2023-09-11T18:31:33.686Z,,0,,,NaN,,,,,,false,,,,372333.5,372333.200000003,,372332.299999997,,372338.624,8,400,,,
break_continue,html.Screen,4_7_2,2023-09-11T18:31:33.687Z,,0,,,NaN,,,,,,false,,,,372334,372333.90000000596,,372333.700000003,,372338.624,8,400,,,
sequence,flow.Sequence,4_7,2023-09-11T18:31:33.687Z,,0,,,5162.258000005968,completion,,,,,false,,,,372334.299999997,372333.90000000596,367154.976,367159.5,367171.642,372338.624,8,400,,,
trial,html.Screen,4_8_0,2023-09-11T18:31:39.021Z,,0,1,,5328.77600000595,response,ISIC_1753877.JPG,7,ISIC_0030995.JPG,ISIC_1753877.JPG,false,1,keypress(m),500,377667.799999997,377667.40000000596,372321.958,372335.5,372338.624,377671.744,8,400,9,,ISIC_0030995.JPG
break,html.Screen,4_8_1,2023-09-11T18:31:39.022Z,,0,,,NaN,,,,,,false,,,,377669.40000000596,377668.90000000596,,377668.09999999404,,377671.744,8,400,,,
break_continue,html.Screen,4_8_2,2023-09-11T18:31:39.023Z,,0,,,NaN,,,,,,false,,,,377669.90000000596,377669.799999997,,377669.5,,377671.744,8,400,,,
sequence,flow.Sequence,4_8,2023-09-11T18:31:39.023Z,,0,,,5331.175999997009,completion,,,,,false,,,,377670,377669.799999997,372321.958,372335.5,372338.624,377671.744,8,400,,,
trial,html.Screen,4_9_0,2023-09-11T18:31:43.602Z,,0,1,,4577.3559999940335,response,ISIC_0002213.JPG,7,ISIC_0064943.JPG,ISIC_0064943.JPG,false,0,keypress(z),500,382249.5,382249.09999999404,377655.078,377670.200000003,377671.744,382271.922,8,400,10,,ISIC_0002213.JPG
break,html.Screen,4_9_1,2023-09-11T18:31:43.604Z,,0,,,NaN,,,,,,false,,,,382251,382250.59999999404,,382249.799999997,,382271.922,8,400,,,
break_continue,html.Screen,4_9_2,2023-09-11T18:31:43.604Z,,0,,,NaN,,,,,,false,,,,382251.40000000596,382251.299999997,,382251,,382271.922,8,400,,,
sequence,flow.Sequence,4_9,2023-09-11T18:31:43.605Z,,0,,,4579.555999997014,completion,,,,,false,,,,382251.59999999404,382251.299999997,377655.078,377670.200000003,377671.744,382271.922,8,400,,,
trial,html.Screen,4_10_0,2023-09-11T18:31:48.376Z,,0,1,,4750.77800000296,response,ISIC_5320483.JPG,9,ISIC_9439034.JPG,ISIC_9439034.JPG,false,0,keypress(z),500,387023.09999999404,387022.700000003,382255.256,382251.799999997,382271.922,387038.398,8,400,11,,ISIC_5320483.JPG
break,html.Screen,4_10_1,2023-09-11T18:31:48.377Z,,0,,,NaN,,,,,,false,,,,387024.5,387024.200000003,,387023.5,,387038.398,8,400,,,
break_continue,html.Screen,4_10_2,2023-09-11T18:31:48.378Z,,0,,,NaN,,,,,,false,,,,387025,387024.90000000596,,387024.59999999404,,387038.398,8,400,,,
sequence,flow.Sequence,4_10,2023-09-11T18:31:48.378Z,,0,,,4752.97800000594,completion,,,,,false,,,,387025.200000003,387024.90000000596,382255.256,382251.700000003,382271.922,387038.398,8,400,,,
trial,html.Screen,4_11_0,2023-09-11T18:31:53.289Z,,0,1,,4897.002000005974,response,ISIC_0069058.JPG,9,ISIC_0061623.JPG,ISIC_0069058.JPG,false,1,keypress(m),500,391935.799999997,391935.40000000596,387021.732,387025.299999997,387038.398,391938.202,8,400,12,,ISIC_0061623.JPG
break,html.Screen,4_11_1,2023-09-11T18:31:53.290Z,,0,,,NaN,,,,,,false,,,,391937.200000003,391937,,391936.09999999404,,391938.202,8,400,,,
break_continue,html.Screen,4_11_2,2023-09-11T18:31:53.292Z,,0,,,NaN,,,,,,false,,,,391938.90000000596,391938.799999997,,391938.59999999404,,391938.202,8,400,,,
sequence,flow.Sequence,4_11,2023-09-11T18:31:53.292Z,,0,,,4900.401999997033,completion,,,,,false,,,,391939.09999999404,391938.799999997,387021.732,387025.200000003,387038.398,391938.202,8,400,,,
trial,html.Screen,4_12_0,2023-09-11T18:31:58.256Z,,0,1,,4964.59799999703,response,ISIC_1784613.JPG,7,ISIC_5768602.JPG,ISIC_1784613.JPG,false,1,keypress(m),500,396903.299999997,396902.799999997,391921.536,391939.200000003,391938.202,396921.71,8,400,13,,ISIC_5768602.JPG
break,html.Screen,4_12_1,2023-09-11T18:31:58.258Z,,0,,,NaN,,,,,,false,,,,396904.700000003,396904.5,,396903.59999999404,,396921.71,8,400,,,
break_continue,html.Screen,4_12_2,2023-09-11T18:31:58.258Z,,0,,,NaN,,,,,,false,,,,396905.09999999404,396905,,396904.799999997,,396921.71,8,400,,,
sequence,flow.Sequence,4_12,2023-09-11T18:31:58.258Z,,0,,,4966.79800000001,completion,,,,,false,,,,396905.200000003,396905,391921.536,391939.09999999404,391938.202,396921.71,8,400,,,
trial,html.Screen,4_13_0,2023-09-11T18:32:03.588Z,,0,1,,5313.1900000059395,response,ISIC_4331481.JPG,8,ISIC_7462953.JPG,ISIC_7462953.JPG,false,0,keypress(z),500,402235.5,402234.90000000596,396905.044,396905.200000003,396921.71,402238.164,8,400,14,,ISIC_4331481.JPG
break,html.Screen,4_13_1,2023-09-11T18:32:03.590Z,,0,,,NaN,,,,,,false,,,,402236.90000000596,402236.700000003,,402235.700000003,,402238.164,8,400,,,
break_continue,html.Screen,4_13_2,2023-09-11T18:32:03.590Z,,0,,,NaN,,,,,,false,,,,402237.40000000596,402237.299999997,,402237.09999999404,,402238.164,8,400,,,
sequence,flow.Sequence,4_13,2023-09-11T18:32:03.591Z,,0,,,5315.589999996999,completion,,,,,false,,,,402237.5,402237.299999997,396905.044,396905.200000003,396921.71,402238.164,8,400,,,
trial,html.Screen,4_14_0,2023-09-11T18:32:08.988Z,,0,1,,5395.83600000001,response,ISIC_6017985.JPG,7,ISIC_0014501.JPG,ISIC_6017985.JPG,false,1,keypress(m),500,407634.5,407634,402221.498,402237.700000003,402238.164,407638.324,8,400,15,,ISIC_0014501.JPG
break,html.Screen,4_14_1,2023-09-11T18:32:08.989Z,,0,,,NaN,,,,,,false,,,,407636,407635.700000003,,407634.799999997,,407638.324,8,400,,,
break_continue,html.Screen,4_14_2,2023-09-11T18:32:08.990Z,,0,,,NaN,,,,,,false,,,,407636.5,407636.40000000596,,407636.09999999404,,407638.324,8,400,,,
sequence,flow.Sequence,4_14,2023-09-11T18:32:08.990Z,,0,,,5398.236000005971,completion,,,,,false,,,,407636.700000003,407636.40000000596,402221.498,402237.59999999404,402238.164,407638.324,8,400,,,
trial,html.Screen,4_15_0,2023-09-11T18:32:14.529Z,,0,1,,5536.775999994017,response,ISIC_0010754.JPG,8,ISIC_5320483.JPG,ISIC_0010754.JPG,false,1,keypress(m),500,413175.5,413175.09999999404,407621.658,407636.799999997,407638.324,413188.353,8,400,16,,ISIC_5320483.JPG
break,html.Screen,4_15_1,2023-09-11T18:32:14.530Z,,0,,,NaN,,,,,,false,,,,413176.90000000596,413176.59999999404,,413175.799999997,,413188.353,8,400,,,
break_continue,html.Screen,4_15_2,2023-09-11T18:32:14.530Z,,0,,,NaN,,,,,,false,,,,413177.40000000596,413177.299999997,,413177,,413188.353,8,400,,,
sequence,flow.Sequence,4_15,2023-09-11T18:32:14.531Z,,0,,,5538.975999996997,completion,,,,,false,,,,413177.5,413177.299999997,407621.658,407636.700000003,407638.324,413188.353,8,400,,,
trial,html.Screen,4_16_0,2023-09-11T18:32:19.974Z,,0,1,,5432.146999999997,response,ISIC_4980079.JPG,8,ISIC_7775535.JPG,ISIC_4980079.JPG,false,1,keypress(m),500,418620.90000000596,418620.5,413171.687,413177.700000003,413188.353,418638.135,8,400,17,,ISIC_7775535.JPG
break,html.Screen,4_16_1,2023-09-11T18:32:19.976Z,,0,,,NaN,,,,,,false,,,,418622.40000000596,418622.200000003,,418621.299999997,,418638.135,8,400,,,
break_continue,html.Screen,4_16_2,2023-09-11T18:32:19.976Z,,0,,,NaN,,,,,,false,,,,418622.90000000596,418622.799999997,,418622.5,,418638.135,8,400,,,
sequence,flow.Sequence,4_16,2023-09-11T18:32:19.976Z,,0,,,5434.446999997017,completion,,,,,false,,,,418623.09999999404,418622.799999997,413171.687,413177.700000003,413188.353,418638.135,8,400,,,
trial,html.Screen,4_17_0,2023-09-11T18:32:25.449Z,,0,1,,5457.864999999991,response,ISIC_7017547.JPG,6,ISIC_0010533.JPG,ISIC_0010533.JPG,false,0,keypress(z),500,424096.40000000596,424096,418621.469,418623.299999997,418638.135,424105.051,8,400,18,,ISIC_7017547.JPG
break,html.Screen,4_17_1,2023-09-11T18:32:25.451Z,,0,,,NaN,,,,,,false,,,,424097.799999997,424097.5,,424096.700000003,,424105.051,8,400,,,
break_continue,html.Screen,4_17_2,2023-09-11T18:32:25.451Z,,0,,,NaN,,,,,,false,,,,424098.299999997,424098.200000003,,424098,,424105.051,8,400,,,
sequence,flow.Sequence,4_17,2023-09-11T18:32:25.452Z,,0,,,5460.065000002971,completion,,,,,false,,,,424098.5,424098.200000003,418621.469,418623.200000003,418638.135,424105.051,8,400,,,
trial,html.Screen,4_18_0,2023-09-11T18:32:31.496Z,,0,1,,6037.849000005983,response,ISIC_6654619.JPG,7,ISIC_6119202.JPG,ISIC_6119202.JPG,false,0,keypress(z),500,430143.40000000596,430142.90000000596,424088.385,424098.59999999404,424105.051,430154.809,8,400,19,,ISIC_6654619.JPG
break,html.Screen,4_18_1,2023-09-11T18:32:31.498Z,,0,,,NaN,,,,,,false,,,,430144.700000003,430144.40000000596,,430143.700000003,,430154.809,8,400,,,
break_continue,html.Screen,4_18_2,2023-09-11T18:32:31.498Z,,0,,,NaN,,,,,,false,,,,430145.09999999404,430145.09999999404,,430144.799999997,,430154.809,8,400,,,
sequence,flow.Sequence,4_18,2023-09-11T18:32:31.499Z,,0,,,6040.048999994062,completion,,,,,false,,,,430145.40000000596,430145.09999999404,424088.385,424098.5,424105.051,430154.809,8,400,,,
trial,html.Screen,4_19_0,2023-09-11T18:32:35.897Z,,0,1,,4388.990999997011,response,ISIC_0060707.JPG,8,ISIC_5312584.JPG,ISIC_0060707.JPG,false,1,keypress(m),500,434544.09999999404,434543.799999997,430138.143,430145.5,430154.809,434554.985,8,400,20,,ISIC_5312584.JPG
break,html.Screen,4_19_1,2023-09-11T18:32:35.899Z,,0,,,NaN,,,,,,false,,,,434545.5,434545.09999999404,,434544.40000000596,,434554.985,8,400,,,
break_continue,html.Screen,4_19_2,2023-09-11T18:32:35.899Z,,0,,,NaN,,,,,,false,,,,434546,434545.799999997,,434545.59999999404,,434554.985,8,400,,,
sequence,flow.Sequence,4_19,2023-09-11T18:32:35.899Z,,0,,,4390.990999997011,completion,,,,,false,,,,434546.09999999404,434545.799999997,430138.143,430145.40000000596,430154.809,434554.985,8,400,,,
trial,html.Screen,4_20_0,2023-09-11T18:32:40.894Z,,0,1,,4985.6149999940535,response,ISIC_2433965.JPG,8,ISIC_7545340.JPG,ISIC_2433965.JPG,false,1,keypress(m),500,439540.90000000596,439540.59999999404,434538.319,434546.200000003,434554.985,439554.785,8,400,21,,ISIC_7545340.JPG
break,html.Screen,4_20_1,2023-09-11T18:32:40.896Z,,0,,,NaN,,,,,,false,,,,439542.299999997,439542,,439541.200000003,,439554.785,8,400,,,
break_continue,html.Screen,4_20_2,2023-09-11T18:32:40.896Z,,0,,,NaN,,,,,,false,,,,439542.90000000596,439542.799999997,,439542.5,,439554.785,8,400,,,
sequence,flow.Sequence,4_20,2023-09-11T18:32:40.896Z,,0,,,4987.814999997034,completion,,,,,false,,,,439543.09999999404,439542.799999997,434538.319,434546.200000003,434554.985,439554.785,8,400,,,
trial,html.Screen,4_21_0,2023-09-11T18:32:45.909Z,,0,1,,5000.715000000026,response,ISIC_0054229.JPG,8,ISIC_0012070.JPG,ISIC_0012070.JPG,false,0,keypress(z),500,444555.799999997,444555.5,439538.119,439543.200000003,439554.785,444571.698,8,400,22,,ISIC_0054229.JPG
break,html.Screen,4_21_1,2023-09-11T18:32:45.910Z,,0,,,NaN,,,,,,false,,,,444557.09999999404,444556.90000000596,,444556,,444571.698,8,400,,,
break_continue,html.Screen,4_21_2,2023-09-11T18:32:45.911Z,,0,,,NaN,,,,,,false,,,,444557.59999999404,444557.5,,444557.299999997,,444571.698,8,400,,,
sequence,flow.Sequence,4_21,2023-09-11T18:32:45.911Z,,0,,,5002.715000000026,completion,,,,,false,,,,444557.799999997,444557.5,439538.119,439543.09999999404,439554.785,444571.698,8,400,,,
trial,html.Screen,4_22_0,2023-09-11T18:32:51.216Z,,0,1,,5291.101999997045,response,ISIC_0033856.JPG,8,ISIC_0057892.JPG,ISIC_0033856.JPG,false,1,keypress(m),500,449863.299999997,449862.799999997,444555.032,444557.90000000596,444571.698,449871.486,8,400,23,,ISIC_0057892.JPG
break,html.Screen,4_22_1,2023-09-11T18:32:51.218Z,,0,,,NaN,,,,,,false,,,,449864.59999999404,449864.299999997,,449863.5,,449871.486,8,400,,,
break_continue,html.Screen,4_22_2,2023-09-11T18:32:51.218Z,,0,,,NaN,,,,,,false,,,,449865,449865,,449864.700000003,,449871.486,8,400,,,
sequence,flow.Sequence,4_22,2023-09-11T18:32:51.218Z,,0,,,5293.302000000025,completion,,,,,false,,,,449865.299999997,449865,444555.032,444557.90000000596,444571.698,449871.486,8,400,,,
trial,html.Screen,4_23_0,2023-09-11T18:32:55.985Z,,0,1,,4759.714000003005,response,ISIC_0027742.JPG,7,ISIC_0010609.JPG,ISIC_0010609.JPG,false,0,keypress(z),500,454631.5,454631.200000003,449854.82,449865.40000000596,449871.486,454638.33,8,400,24,,ISIC_0027742.JPG
break,html.Screen,4_23_1,2023-09-11T18:32:55.986Z,,0,,,NaN,,,,,,false,,,,454632.799999997,454632.5,,454631.799999997,,454638.33,8,400,,,
break_continue,html.Screen,4_23_2,2023-09-11T18:32:55.987Z,,0,,,NaN,,,,,,false,,,,454633.200000003,454633.200000003,,454632.90000000596,,454638.33,8,400,,,
sequence,flow.Sequence,4_23,2023-09-11T18:32:55.987Z,,0,,,4761.714000003005,completion,,,,,false,,,,454633.40000000596,454633.200000003,449854.82,449865.299999997,449871.486,454638.33,8,400,,,
trial,html.Screen,4_24_0,2023-09-11T18:33:00.808Z,,0,1,,4815.9699999970035,response,ISIC_7171090.JPG,8,ISIC_0448195.JPG,ISIC_7171090.JPG,false,1,keypress(m),500,459454.799999997,459454.299999997,454621.664,454633.59999999404,454638.33,459471.47,8,400,25,,ISIC_0448195.JPG
break,html.Screen,4_24_1,2023-09-11T18:33:00.809Z,,0,,,NaN,,,,,,false,,,,459456.09999999404,459455.799999997,,459455.09999999404,,459471.47,8,400,,,
break_continue,html.Screen,4_24_2,2023-09-11T18:33:00.810Z,,0,,,NaN,,,,,,false,,,,459456.59999999404,459456.40000000596,,459456.200000003,,459471.47,8,400,,,
sequence,flow.Sequence,4_24,2023-09-11T18:33:00.810Z,,0,,,4818.070000005944,completion,,,,,false,,,,459456.799999997,459456.40000000596,454621.664,454633.5,454638.33,459471.47,8,400,,,
trial,html.Screen,4_25_0,2023-09-11T18:33:05.168Z,,0,1,,4342.530000000028,response,ISIC_0056364.JPG,7,ISIC_8733345.JPG,ISIC_0056364.JPG,false,1,keypress(m),500,463814.5,463814,459454.804,459456.90000000596,459471.47,463821.296,8,400,26,,ISIC_8733345.JPG
break,html.Screen,4_25_1,2023-09-11T18:33:05.169Z,,0,,,NaN,,,,,,false,,,,463815.799999997,463815.5,,463814.799999997,,463821.296,8,400,,,
break_continue,html.Screen,4_25_2,2023-09-11T18:33:05.170Z,,0,,,NaN,,,,,,false,,,,463816.40000000596,463816.200000003,,463816,,463821.296,8,400,,,
sequence,flow.Sequence,4_25,2023-09-11T18:33:05.170Z,,0,,,4344.730000003008,completion,,,,,false,,,,463816.5,463816.200000003,459454.804,459456.799999997,459471.47,463821.296,8,400,,,
trial,html.Screen,4_26_0,2023-09-11T18:33:09.762Z,,0,1,,4586.6040000059875,response,ISIC_3633306.JPG,7,ISIC_0024315.JPG,ISIC_0024315.JPG,false,0,keypress(z),500,468408.299999997,468407.90000000596,463804.63,463816.59999999404,463821.296,468421.468,8,400,27,,ISIC_3633306.JPG
break,html.Screen,4_26_1,2023-09-11T18:33:09.763Z,,0,,,NaN,,,,,,false,,,,468409.59999999404,468409.40000000596,,468408.59999999404,,468421.468,8,400,,,
break_continue,html.Screen,4_26_2,2023-09-11T18:33:09.763Z,,0,,,NaN,,,,,,false,,,,468410.09999999404,468410,,468409.700000003,,468421.468,8,400,,,
sequence,flow.Sequence,4_26,2023-09-11T18:33:09.764Z,,0,,,4588.704000000027,completion,,,,,false,,,,468410.299999997,468410,463804.63,463816.59999999404,463821.296,468421.468,8,400,,,
trial,html.Screen,4_27_0,2023-09-11T18:33:15.105Z,,0,1,,5329.732000002987,response,ISIC_2228511.JPG,6,ISIC_0653706.JPG,ISIC_0653706.JPG,false,0,keypress(z),500,473751.40000000596,473751.200000003,468404.802,468410.40000000596,468421.468,473771.254,8,400,28,,ISIC_2228511.JPG
break,html.Screen,4_27_1,2023-09-11T18:33:15.106Z,,0,,,NaN,,,,,,false,,,,473752.700000003,473752.40000000596,,473751.700000003,,473771.254,8,400,,,
break_continue,html.Screen,4_27_2,2023-09-11T18:33:15.107Z,,0,,,NaN,,,,,,false,,,,473753.200000003,473753.09999999404,,473752.90000000596,,473771.254,8,400,,,
sequence,flow.Sequence,4_27,2023-09-11T18:33:15.107Z,,0,,,5331.631999994046,completion,,,,,false,,,,473753.299999997,473753.09999999404,468404.802,468410.40000000596,468421.468,473771.254,8,400,,,
trial,html.Screen,4_28_0,2023-09-11T18:33:21.126Z,,0,1,,6001.345999994024,response,ISIC_0030795.JPG,8,ISIC_0007760.JPG,ISIC_0030795.JPG,false,1,keypress(m),500,479773.09999999404,479772.59999999404,473754.588,473753.5,473771.254,479788.042,8,400,29,,ISIC_0007760.JPG
break,html.Screen,4_28_1,2023-09-11T18:33:21.128Z,,0,,,NaN,,,,,,false,,,,479774.5,479774.200000003,,479773.299999997,,479788.042,8,400,,,
break_continue,html.Screen,4_28_2,2023-09-11T18:33:21.128Z,,0,,,NaN,,,,,,false,,,,479775,479774.90000000596,,479774.59999999404,,479788.042,8,400,,,
sequence,flow.Sequence,4_28,2023-09-11T18:33:21.129Z,,0,,,6003.646000005945,completion,,,,,false,,,,479775.200000003,479774.90000000596,473754.588,473753.40000000596,473771.254,479788.042,8,400,,,
trial,html.Screen,4_29_0,2023-09-11T18:33:26.656Z,,0,1,,5513.858000005945,response,ISIC_0069273.JPG,6,ISIC_0011137.JPG,ISIC_0069273.JPG,false,1,keypress(m),500,485302.200000003,485301.90000000596,479771.376,479775.299999997,479788.042,485304.872,8,400,30,,ISIC_0011137.JPG
break,html.Screen,4_29_1,2023-09-11T18:33:26.656Z,,0,,,NaN,,,,,,false,,,,485303.09999999404,485302.90000000596,,485302.299999997,,485304.872,8,400,,,
break_continue,html.Screen,4_29_2,2023-09-11T18:33:26.657Z,,0,,,NaN,,,,,,false,,,,485303.299999997,485303.200000003,,485303.200000003,,485304.872,8,400,,,
sequence,flow.Sequence,4_29,2023-09-11T18:33:26.657Z,,0,,,5515.158000002964,completion,,,,,false,,,,485303.40000000596,485303.200000003,479771.376,479775.299999997,479788.042,485304.872,8,400,,,
trial,html.Screen,4_30_0,2023-09-11T18:33:31.001Z,,0,1,,4342.128000000026,response,ISIC_5674396.JPG,5,ISIC_0030704.JPG,ISIC_0030704.JPG,false,0,keypress(z),500,489647.40000000596,489647,485288.206,485303.5,485304.872,489671.364,8,400,31,,ISIC_5674396.JPG
break,html.Screen,4_30_1,2023-09-11T18:33:31.002Z,,0,,,NaN,,,,,,false,,,,489649,489648.700000003,,489647.799999997,,489671.364,8,400,,,
break_continue,html.Screen,4_30_2,2023-09-11T18:33:31.003Z,,0,,,NaN,,,,,,false,,,,489649.40000000596,489649.299999997,,489649.09999999404,,489671.364,8,400,,,
sequence,flow.Sequence,4_30,2023-09-11T18:33:31.003Z,,0,,,4344.427999997046,completion,,,,,false,,,,489649.59999999404,489649.299999997,485288.206,485303.5,485304.872,489671.364,8,400,,,
trial,html.Screen,4_31_0,2023-09-11T18:33:36.319Z,,0,1,,5293.836000002979,response,ISIC_3566243.JPG,7,ISIC_0813423.JPG,ISIC_3566243.JPG,false,1,keypress(m),500,494965.5,494965.200000003,489654.698,489649.700000003,489671.364,494971.152,8,400,32,,ISIC_0813423.JPG
break,html.Screen,4_31_1,2023-09-11T18:33:36.320Z,,0,,,NaN,,,,,,false,,,,494966.90000000596,494966.59999999404,,494965.799999997,,494971.152,8,400,,,
break_continue,html.Screen,4_31_2,2023-09-11T18:33:36.321Z,,0,,,NaN,,,,,,false,,,,494967.299999997,494967.200000003,,494967,,494971.152,8,400,,,
sequence,flow.Sequence,4_31,2023-09-11T18:33:36.321Z,,0,,,5295.836000002979,completion,,,,,false,,,,494967.5,494967.200000003,489654.698,489649.700000003,489671.364,494971.152,8,400,,,
trial,html.Screen,4_32_0,2023-09-11T18:33:41.012Z,,0,1,,4687.048000002978,response,ISIC_4298624.JPG,8,ISIC_7515794.JPG,ISIC_7515794.JPG,false,0,keypress(z),500,499658.59999999404,499658.200000003,494954.486,494967.700000003,494971.152,499671.33,8,400,33,,ISIC_4298624.JPG
break,html.Screen,4_32_1,2023-09-11T18:33:41.013Z,,0,,,NaN,,,,,,false,,,,499660,499659.799999997,,499659,,499671.33,8,400,,,
break_continue,html.Screen,4_32_2,2023-09-11T18:33:41.014Z,,0,,,NaN,,,,,,false,,,,499660.40000000596,499660.40000000596,,499660.09999999404,,499671.33,8,400,,,
sequence,flow.Sequence,4_32,2023-09-11T18:33:41.014Z,,0,,,4689.248000005959,completion,,,,,false,,,,499660.5,499660.40000000596,494954.486,494967.59999999404,494971.152,499671.33,8,400,,,
trial,html.Screen,4_33_0,2023-09-11T18:33:45.290Z,,0,1,,4264.9699999970035,response,ISIC_0034187.JPG,8,ISIC_0010705.JPG,ISIC_0034187.JPG,false,1,keypress(m),500,503936.799999997,503936.299999997,499654.664,499660.59999999404,499671.33,503954.492,8,400,34,,ISIC_0010705.JPG
break,html.Screen,4_33_1,2023-09-11T18:33:45.292Z,,0,,,NaN,,,,,,false,,,,503938.299999997,503938,,503937.09999999404,,503954.492,8,400,,,
break_continue,html.Screen,4_33_2,2023-09-11T18:33:45.292Z,,0,,,NaN,,,,,,false,,,,503938.700000003,503938.59999999404,,503938.40000000596,,503954.492,8,400,,,
sequence,flow.Sequence,4_33,2023-09-11T18:33:45.292Z,,0,,,4267.269999994023,completion,,,,,false,,,,503938.799999997,503938.59999999404,499654.664,499660.59999999404,499671.33,503954.492,8,400,,,
trial,html.Screen,4_34_0,2023-09-11T18:33:51.065Z,,0,1,,5757.107999994012,response,ISIC_0068544.JPG,7,ISIC_0024265.JPG,ISIC_0024265.JPG,false,0,keypress(z),500,509712,509711.59999999404,503937.826,503938.90000000596,503954.492,509721.315,8,400,35,,ISIC_0068544.JPG
break,html.Screen,4_34_1,2023-09-11T18:33:51.067Z,,0,,,NaN,,,,,,false,,,,509713.40000000596,509713.09999999404,,509712.299999997,,509721.315,8,400,,,
break_continue,html.Screen,4_34_2,2023-09-11T18:33:51.067Z,,0,,,NaN,,,,,,false,,,,509713.90000000596,509713.799999997,,509713.59999999404,,509721.315,8,400,,,
sequence,flow.Sequence,4_34,2023-09-11T18:33:51.067Z,,0,,,5759.307999996992,completion,,,,,false,,,,509714,509713.799999997,503937.826,503938.90000000596,503954.492,509721.315,8,400,,,
trial,html.Screen,4_35_0,2023-09-11T18:33:55.566Z,,0,1,,4491.085000005958,response,ISIC_7102028.JPG,8,ISIC_0001596.JPG,ISIC_0001596.JPG,false,0,keypress(z),500,514212.799999997,514212.40000000596,509704.649,509714.09999999404,509721.315,514221.135,8,400,36,,ISIC_7102028.JPG
break,html.Screen,4_35_1,2023-09-11T18:33:55.568Z,,0,,,NaN,,,,,,false,,,,514214.200000003,514213.90000000596,,514213.09999999404,,514221.135,8,400,,,
break_continue,html.Screen,4_35_2,2023-09-11T18:33:55.568Z,,0,,,NaN,,,,,,false,,,,514214.700000003,514214.59999999404,,514214.40000000596,,514221.135,8,400,,,
sequence,flow.Sequence,4_35,2023-09-11T18:33:55.568Z,,0,,,4493.284999994037,completion,,,,,false,,,,514214.90000000596,514214.59999999404,509704.649,509714.09999999404,509721.315,514221.135,8,400,,,
trial,html.Screen,4_36_0,2023-09-11T18:33:59.811Z,,0,1,,4235.46499999403,response,ISIC_5323725.JPG,8,ISIC_1899683.JPG,ISIC_5323725.JPG,false,1,keypress(m),500,518457.09999999404,518456.59999999404,514204.469,514215.09999999404,514221.135,518471.338,8,400,37,,ISIC_1899683.JPG
break,html.Screen,4_36_1,2023-09-11T18:33:59.812Z,,0,,,NaN,,,,,,false,,,,518458.5,518458.200000003,,518457.40000000596,,518471.338,8,400,,,
break_continue,html.Screen,4_36_2,2023-09-11T18:33:59.812Z,,0,,,NaN,,,,,,false,,,,518459,518458.90000000596,,518458.59999999404,,518471.338,8,400,,,
sequence,flow.Sequence,4_36,2023-09-11T18:33:59.813Z,,0,,,4237.765000005951,completion,,,,,false,,,,518459.200000003,518458.90000000596,514204.469,514215,514221.135,518471.338,8,400,,,
trial,html.Screen,4_37_0,2023-09-11T18:34:04.073Z,,0,1,,4247.862000002991,response,ISIC_0072136.JPG,7,ISIC_1745182.JPG,ISIC_0072136.JPG,false,1,keypress(m),500,522719.59999999404,522719.200000003,518454.672,518459.40000000596,518471.338,522721.168,8,400,38,,ISIC_1745182.JPG
break,html.Screen,4_37_1,2023-09-11T18:34:04.074Z,,0,,,NaN,,,,,,false,,,,522721,522720.799999997,,522719.90000000596,,522721.168,8,400,,,
break_continue,html.Screen,4_37_2,2023-09-11T18:34:04.075Z,,0,,,NaN,,,,,,false,,,,522721.5,522721.40000000596,,522721.09999999404,,522721.168,8,400,,,
sequence,flow.Sequence,4_37,2023-09-11T18:34:04.075Z,,0,,,4250.062000005972,completion,,,,,false,,,,522721.59999999404,522721.40000000596,518454.672,518459.299999997,518471.338,522721.168,8,400,,,
trial,html.Screen,4_38_0,2023-09-11T18:34:08.896Z,,0,1,,4821.232000005955,response,ISIC_5476277.JPG,5,ISIC_0834745.JPG,ISIC_0834745.JPG,false,0,keypress(z),500,527542.900000006,527542.400000006,522704.502,522721.700000003,522721.168,527554.739,8,400,39,,ISIC_5476277.JPG
break,html.Screen,4_38_1,2023-09-11T18:34:08.898Z,,0,,,NaN,,,,,,false,,,,527544.200000003,527543.900000006,,527543.099999994,,527554.739,8,400,,,
break_continue,html.Screen,4_38_2,2023-09-11T18:34:08.898Z,,0,,,NaN,,,,,,false,,,,527544.799999997,527544.700000003,,527544.400000006,,527554.739,8,400,,,
sequence,flow.Sequence,4_38,2023-09-11T18:34:08.898Z,,0,,,4823.532000002975,completion,,,,,false,,,,527544.900000006,527544.700000003,522704.502,522721.700000003,522721.168,527554.739,8,400,,,
trial,html.Screen,4_39_0,2023-09-11T18:34:14.245Z,,0,1,,5336.761000000057,response,ISIC_0006744.JPG,7,ISIC_3060248.JPG,ISIC_3060248.JPG,false,0,keypress(z),500,532891.900000006,532891.5,527538.073,527545.099999994,527554.739,532904.525,8,400,40,,ISIC_0006744.JPG
break,html.Screen,4_39_1,2023-09-11T18:34:14.247Z,,0,,,NaN,,,,,,false,,,,532893.299999997,532892.900000006,,532892.099999994,,532904.525,8,400,,,
break_continue,html.Screen,4_39_2,2023-09-11T18:34:14.247Z,,0,,,NaN,,,,,,false,,,,532893.799999997,532893.700000003,,532893.400000006,,532904.525,8,400,,,
sequence,flow.Sequence,4_39,2023-09-11T18:34:14.248Z,,0,,,5338.961000003037,completion,,,,,false,,,,532894,532893.700000003,527538.073,527545,527554.739,532904.525,8,400,,,
trial,html.Screen,4_40_0,2023-09-11T18:34:18.283Z,,0,1,,4024.7749999969965,response,ISIC_5240648.JPG,7,ISIC_3352962.JPG,ISIC_5240648.JPG,false,1,keypress(m),500,536929.599999994,536929.299999997,532887.859,532894.099999994,532904.525,536937.697,8,400,41,,ISIC_3352962.JPG
break,html.Screen,4_40_1,2023-09-11T18:34:18.284Z,,0,,,NaN,,,,,,false,,,,536930.900000006,536930.599999994,,536929.900000006,,536937.697,8,400,,,
break_continue,html.Screen,4_40_2,2023-09-11T18:34:18.285Z,,0,,,NaN,,,,,,false,,,,536931.400000006,536931.299999997,,536931,,536937.697,8,400,,,
sequence,flow.Sequence,4_40,2023-09-11T18:34:18.285Z,,0,,,4026.7749999969965,completion,,,,,false,,,,536931.599999994,536931.299999997,532887.859,532894.099999994,532904.525,536937.697,8,400,,,
trial,html.Screen,4_41_0,2023-09-11T18:34:22.857Z,,0,1,,4565.0030000029365,response,ISIC_0054886.JPG,10,ISIC_8892236.JPG,ISIC_0054886.JPG,false,1,keypress(m),500,541503.200000003,541502.700000003,536921.031,536931.700000003,536937.697,541504.545,8,400,42,,ISIC_8892236.JPG
break,html.Screen,4_41_1,2023-09-11T18:34:22.858Z,,0,,,NaN,,,,,,false,,,,541504.5,541504.200000003,,541503.5,,541504.545,8,400,,,
break_continue,html.Screen,4_41_2,2023-09-11T18:34:22.859Z,,0,,,NaN,,,,,,false,,,,541505.099999994,541505,,541504.700000003,,541504.545,8,400,,,
sequence,flow.Sequence,4_41,2023-09-11T18:34:22.859Z,,0,,,4567.302999999956,completion,,,,,false,,,,541505.200000003,541505,536921.031,536931.599999994,536937.697,541504.545,8,400,,,
trial,html.Screen,4_42_0,2023-09-11T18:34:27.901Z,,0,1,,5042.554999993998,response,ISIC_0034006.JPG,8,ISIC_7400458.JPG,ISIC_0034006.JPG,false,1,keypress(m),500,546547.5,546547.099999994,541487.879,541505.299999997,541504.545,546554.343,8,400,43,,ISIC_7400458.JPG
break,html.Screen,4_42_1,2023-09-11T18:34:27.902Z,,0,,,NaN,,,,,,false,,,,546548.900000006,546548.599999994,,546547.799999997,,546554.343,8,400,,,
break_continue,html.Screen,4_42_2,2023-09-11T18:34:27.903Z,,0,,,NaN,,,,,,false,,,,546549.5,546549.299999997,,546549,,546554.343,8,400,,,
sequence,flow.Sequence,4_42,2023-09-11T18:34:27.903Z,,0,,,5044.754999996978,completion,,,,,false,,,,546549.700000003,546549.299999997,541487.879,541505.299999997,541504.545,546554.343,8,400,,,
trial,html.Screen,4_43_0,2023-09-11T18:34:33.381Z,,0,1,,5472.956999997026,response,ISIC_8344196.JPG,6,ISIC_0026690.JPG,ISIC_8344196.JPG,false,1,keypress(m),500,552027.700000003,552027.299999997,546537.677,546549.799999997,546554.343,552037.84,8,400,44,,ISIC_0026690.JPG
break,html.Screen,4_43_1,2023-09-11T18:34:33.383Z,,0,,,NaN,,,,,,false,,,,552029,552028.700000003,,552027.900000006,,552037.84,8,400,,,
break_continue,html.Screen,4_43_2,2023-09-11T18:34:33.383Z,,0,,,NaN,,,,,,false,,,,552029.400000006,552029.299999997,,552029.099999994,,552037.84,8,400,,,
sequence,flow.Sequence,4_43,2023-09-11T18:34:33.383Z,,0,,,5474.956999997026,completion,,,,,false,,,,552029.599999994,552029.299999997,546537.677,546549.799999997,546554.343,552037.84,8,400,,,
trial,html.Screen,4_44_0,2023-09-11T18:34:37.966Z,,0,1,,4573.959999997052,response,ISIC_8479913.JPG,5,ISIC_8995044.JPG,ISIC_8995044.JPG,false,0,keypress(z),500,556612.299999997,556611.799999997,552021.174,552030.900000006,552037.84,556620.99,8,400,45,,ISIC_8479913.JPG
break,html.Screen,4_44_1,2023-09-11T18:34:37.967Z,,0,,,NaN,,,,,,false,,,,556613.700000003,556613.400000006,,556612.599999994,,556620.99,8,400,,,
break_continue,html.Screen,4_44_2,2023-09-11T18:34:37.968Z,,0,,,NaN,,,,,,false,,,,556614.200000003,556614,,556613.900000006,,556620.99,8,400,,,
sequence,flow.Sequence,4_44,2023-09-11T18:34:37.968Z,,0,,,4576.160000000033,completion,,,,,false,,,,556614.400000006,556614,552021.174,552030.900000006,552037.84,556620.99,8,400,,,
trial,html.Screen,4_45_0,2023-09-11T18:34:42.998Z,,0,1,,5022.91000000597,response,ISIC_7227223.JPG,8,ISIC_2071966.JPG,ISIC_2071966.JPG,false,0,keypress(z),500,561644.200000003,561643.900000006,556604.324,556614.5,556620.99,561654.487,8,400,46,,ISIC_7227223.JPG
break,html.Screen,4_45_1,2023-09-11T18:34:42.999Z,,0,,,NaN,,,,,,false,,,,561645.700000003,561645.400000006,,561644.5,,561654.487,8,400,,,
break_continue,html.Screen,4_45_2,2023-09-11T18:34:43.000Z,,0,,,NaN,,,,,,false,,,,561646.099999994,561646,,561645.799999997,,561654.487,8,400,,,
sequence,flow.Sequence,4_45,2023-09-11T18:34:43.000Z,,0,,,5025.010000000009,completion,,,,,false,,,,561646.299999997,561646,556604.324,556614.5,556620.99,561654.487,8,400,,,
trial,html.Screen,4_46_0,2023-09-11T18:34:47.904Z,,0,1,,4895.812999997055,response,ISIC_0054988.JPG,6,ISIC_0030932.JPG,ISIC_0054988.JPG,false,1,keypress(m),500,566550.700000003,566550.299999997,561637.821,561646.5,561654.487,566570.957,8,400,47,,ISIC_0030932.JPG
break,html.Screen,4_46_1,2023-09-11T18:34:47.906Z,,0,,,NaN,,,,,,false,,,,566552.099999994,566551.799999997,,566550.900000006,,566570.957,8,400,,,
break_continue,html.Screen,4_46_2,2023-09-11T18:34:47.906Z,,0,,,NaN,,,,,,false,,,,566552.5,566552.299999997,,566552.200000003,,566570.957,8,400,,,
sequence,flow.Sequence,4_46,2023-09-11T18:34:47.906Z,,0,,,4897.812999997055,completion,,,,,false,,,,566552.599999994,566552.299999997,561637.821,561646.5,561654.487,566570.957,8,400,,,
trial,html.Screen,4_47_0,2023-09-11T18:34:52.498Z,,0,1,,4572.743000002927,response,ISIC_6616542.JPG,7,ISIC_0511526.JPG,ISIC_0511526.JPG,false,0,keypress(z),500,571144.200000003,571143.700000003,566554.291,566552.900000006,566570.957,571154.488,8,400,48,,ISIC_6616542.JPG
break,html.Screen,4_47_1,2023-09-11T18:34:52.499Z,,0,,,NaN,,,,,,false,,,,571145.599999994,571145.200000003,,571144.5,,571154.488,8,400,,,
break_continue,html.Screen,4_47_2,2023-09-11T18:34:52.500Z,,0,,,NaN,,,,,,false,,,,571146,571145.900000006,,571145.700000003,,571154.488,8,400,,,
sequence,flow.Sequence,4_47,2023-09-11T18:34:52.500Z,,0,,,4574.943000005907,completion,,,,,false,,,,571146.200000003,571145.900000006,566554.291,566552.799999997,566570.957,571154.488,8,400,,,
trial,html.Screen,4_48_0,2023-09-11T18:34:57.160Z,,0,1,,4651.811999997008,response,ISIC_0033192.JPG,5,ISIC_0027274.JPG,ISIC_0027274.JPG,false,0,keypress(z),500,575806.799999997,575806.299999997,571137.822,571146.400000006,571154.488,575820.968,8,400,49,,ISIC_0033192.JPG
break,html.Screen,4_48_1,2023-09-11T18:34:57.162Z,,0,,,NaN,,,,,,false,,,,575808.200000003,575807.799999997,,575807.099999994,,575820.968,8,400,,,
break_continue,html.Screen,4_48_2,2023-09-11T18:34:57.162Z,,0,,,NaN,,,,,,false,,,,575808.599999994,575808.5,,575808.299999997,,575820.968,8,400,,,
sequence,flow.Sequence,4_48,2023-09-11T18:34:57.162Z,,0,,,4654.011999999988,completion,,,,,false,,,,575808.700000003,575808.5,571137.822,571146.299999997,571154.488,575820.968,8,400,,,
trial,html.Screen,4_49_0,2023-09-11T18:35:02.143Z,,0,1,,4968.0320000000065,response,ISIC_9049170.JPG,6,ISIC_0057692.JPG,ISIC_9049170.JPG,false,1,keypress(m),500,580789.400000006,580789,575804.302,575808.799999997,575820.968,580804.486,8,400,50,,ISIC_0057692.JPG
break,html.Screen,4_49_1,2023-09-11T18:35:12.146Z,,0,,,10000.025999999954,timeout,,,,,false,,,,590792,590787.846,580787.82,580789.700000003,580804.486,590804.512,8,400,,,
break_continue,html.Screen,4_49_2,2023-09-11T18:36:07.307Z,,0,,,55133.88800000597,response,,,,,false,continue,keypress(Space),,645953,645938.400000006,590787.846,590792.200000003,590804.512,645968.972,8,400,,,
sequence,flow.Sequence,4_49,2023-09-11T18:36:07.307Z,,0,,,70117.43200000597,completion,,,,,false,,,,645953.200000003,645938.400000006,575804.302,575808.799999997,575820.968,645968.972,8,400,,,
trial,html.Screen,4_50_0,2023-09-11T18:36:12.193Z,,0,2,,4869.22800000303,response,ISIC_0033278.JPG,6,ISIC_0030373.JPG,ISIC_0030373.JPG,false,0,keypress(z),500,650838.700000003,650838.200000003,645952.306,645953.200000003,645968.972,650853.87,8,400,1,,ISIC_0033278.JPG
break,html.Screen,4_50_1,2023-09-11T18:36:12.194Z,,0,,,NaN,,,,,,false,,,,650840.200000003,650839.900000006,,650839,,650853.87,8,400,,,
break_continue,html.Screen,4_50_2,2023-09-11T18:36:12.195Z,,0,,,NaN,,,,,,false,,,,650840.799999997,650840.599999994,,650840.299999997,,650853.87,8,400,,,
sequence,flow.Sequence,4_50,2023-09-11T18:36:12.195Z,,0,,,4871.627999994089,completion,,,,,false,,,,650841,650840.599999994,645952.306,645953.200000003,645968.972,650853.87,8,400,,,
trial,html.Screen,4_51_0,2023-09-11T18:36:18.056Z,,0,2,,5848.130000000005,response,ISIC_0010734.JPG,6,ISIC_2545299.JPG,ISIC_2545299.JPG,false,0,keypress(z),500,656702.400000006,656702,650837.204,650841.099999994,650853.87,656704.26,8,400,2,,ISIC_0010734.JPG
break,html.Screen,4_51_1,2023-09-11T18:36:18.058Z,,0,,,NaN,,,,,,false,,,,656703.799999997,656703.400000006,,656702.700000003,,656704.26,8,400,,,
break_continue,html.Screen,4_51_2,2023-09-11T18:36:18.058Z,,0,,,NaN,,,,,,false,,,,656704.299999997,656704.099999994,,656703.900000006,,656704.26,8,400,,,
sequence,flow.Sequence,4_51,2023-09-11T18:36:18.058Z,,0,,,5850.229999994044,completion,,,,,false,,,,656704.400000006,656704.099999994,650837.204,650841,650853.87,656704.26,8,400,,,
trial,html.Screen,4_52_0,2023-09-11T18:36:23.600Z,,0,2,,5540.940000002971,response,ISIC_0726170.JPG,8,ISIC_0061300.JPG,ISIC_0726170.JPG,false,1,keypress(m),500,662245.599999994,662245.200000003,656687.594,656704.599999994,656704.26,662254.038,8,400,3,,ISIC_0061300.JPG
break,html.Screen,4_52_1,2023-09-11T18:36:23.601Z,,0,,,NaN,,,,,,false,,,,662246.900000006,662246.599999994,,662245.900000006,,662254.038,8,400,,,
break_continue,html.Screen,4_52_2,2023-09-11T18:36:23.601Z,,0,,,NaN,,,,,,false,,,,662247.400000006,662247.200000003,,662247,,662254.038,8,400,,,
sequence,flow.Sequence,4_52,2023-09-11T18:36:23.601Z,,0,,,5542.940000002971,completion,,,,,false,,,,662247.5,662247.200000003,656687.594,656704.5,656704.26,662254.038,8,400,,,
trial,html.Screen,4_53_0,2023-09-11T18:36:28.613Z,,0,2,,5004.561999994097,response,ISIC_0070160.JPG,8,ISIC_5484776.JPG,ISIC_5484776.JPG,false,0,keypress(z),500,667259,667258.599999994,662237.372,662247.5,662254.038,667270.795,8,400,4,,ISIC_0070160.JPG
break,html.Screen,4_53_1,2023-09-11T18:36:28.614Z,,0,,,NaN,,,,,,false,,,,667260.400000006,667260.099999994,,667259.299999997,,667270.795,8,400,,,
break_continue,html.Screen,4_53_2,2023-09-11T18:36:28.615Z,,0,,,NaN,,,,,,false,,,,667261,667260.799999997,,667260.599999994,,667270.795,8,400,,,
sequence,flow.Sequence,4_53,2023-09-11T18:36:28.615Z,,0,,,5006.7619999970775,completion,,,,,false,,,,667261.200000003,667260.799999997,662237.372,662247.5,662254.038,667270.795,8,400,,,
trial,html.Screen,4_54_0,2023-09-11T18:36:33.744Z,,0,2,,5119.105000005919,response,ISIC_7016261.JPG,6,ISIC_0025235.JPG,ISIC_7016261.JPG,false,1,keypress(m),500,672390.200000003,672389.900000006,667254.129,667261.299999997,667270.795,672403.923,8,400,5,,ISIC_0025235.JPG
break,html.Screen,4_54_1,2023-09-11T18:36:33.746Z,,0,,,NaN,,,,,,false,,,,672391.700000003,672391.400000006,,672390.599999994,,672403.923,8,400,,,
break_continue,html.Screen,4_54_2,2023-09-11T18:36:33.747Z,,0,,,NaN,,,,,,false,,,,672393.400000006,672392,,672391.900000006,,672403.923,8,400,,,
sequence,flow.Sequence,4_54,2023-09-11T18:36:33.748Z,,0,,,5121.204999999958,completion,,,,,false,,,,672393.599999994,672392,667254.129,667261.299999997,667270.795,672403.923,8,400,,,
trial,html.Screen,4_55_0,2023-09-11T18:36:37.894Z,,0,2,,4135.977000006009,response,ISIC_0422299.JPG,8,ISIC_0072175.JPG,ISIC_0072175.JPG,false,0,keypress(z),500,676540.299999997,676539.900000006,672387.257,672393.700000003,672403.923,676553.757,8,400,6,,ISIC_0422299.JPG
break,html.Screen,4_55_1,2023-09-11T18:36:37.896Z,,0,,,NaN,,,,,,false,,,,676541.700000003,676541.299999997,,676540.599999994,,676553.757,8,400,,,
break_continue,html.Screen,4_55_2,2023-09-11T18:36:37.896Z,,0,,,NaN,,,,,,false,,,,676542.099999994,676542,,676541.799999997,,676553.757,8,400,,,
sequence,flow.Sequence,4_55,2023-09-11T18:36:37.896Z,,0,,,4138.077000000048,completion,,,,,false,,,,676542.299999997,676542,672387.257,672393.599999994,672403.923,676553.757,8,400,,,
trial,html.Screen,4_56_0,2023-09-11T18:36:42.686Z,,0,2,,4777.443000002997,response,ISIC_0034311.JPG,7,ISIC_0031202.JPG,ISIC_0034311.JPG,false,1,keypress(m),500,681331.700000003,681331.200000003,676537.091,676542.400000006,676553.757,681337.364,8,400,7,,ISIC_0031202.JPG
break,html.Screen,4_56_1,2023-09-11T18:36:42.687Z,,0,,,NaN,,,,,,false,,,,681333.200000003,681332.900000006,,681331.900000006,,681337.364,8,400,,,
break_continue,html.Screen,4_56_2,2023-09-11T18:36:42.688Z,,0,,,NaN,,,,,,false,,,,681333.700000003,681333.599999994,,681333.400000006,,681337.364,8,400,,,
sequence,flow.Sequence,4_56,2023-09-11T18:36:42.688Z,,0,,,4779.842999994056,completion,,,,,false,,,,681333.900000006,681333.599999994,676537.091,676542.400000006,676553.757,681337.364,8,400,,,
trial,html.Screen,4_57_0,2023-09-11T18:36:47.234Z,,0,2,,4541.836000003037,response,ISIC_0027235.JPG,8,ISIC_0002745.JPG,ISIC_0027235.JPG,false,1,keypress(m),500,685879.599999994,685879.200000003,681320.698,681334.099999994,681337.364,685887.182,8,400,8,,ISIC_0002745.JPG
break,html.Screen,4_57_1,2023-09-11T18:36:47.235Z,,0,,,NaN,,,,,,false,,,,685881,685880.700000003,,685880,,685887.182,8,400,,,
break_continue,html.Screen,4_57_2,2023-09-11T18:36:47.236Z,,0,,,NaN,,,,,,false,,,,685881.599999994,685881.400000006,,685881.200000003,,685887.182,8,400,,,
sequence,flow.Sequence,4_57,2023-09-11T18:36:47.236Z,,0,,,4544.036000006017,completion,,,,,false,,,,685881.799999997,685881.400000006,681320.698,681334,681337.364,685887.182,8,400,,,
trial,html.Screen,4_58_0,2023-09-11T18:36:52.578Z,,0,2,,5336.718000005931,response,ISIC_1579745.JPG,8,ISIC_6983970.JPG,ISIC_6983970.JPG,false,0,keypress(z),500,691224.299999997,691223.900000006,685870.516,685881.900000006,685887.182,691237.345,8,400,9,,ISIC_1579745.JPG
break,html.Screen,4_58_1,2023-09-11T18:36:52.580Z,,0,,,NaN,,,,,,false,,,,691225.700000003,691225.400000006,,691224.599999994,,691237.345,8,400,,,
break_continue,html.Screen,4_58_2,2023-09-11T18:36:52.580Z,,0,,,NaN,,,,,,false,,,,691226.299999997,691226.200000003,,691225.799999997,,691237.345,8,400,,,
sequence,flow.Sequence,4_58,2023-09-11T18:36:52.581Z,,0,,,5339.01800000295,completion,,,,,false,,,,691226.400000006,691226.200000003,685870.516,685881.799999997,685887.182,691237.345,8,400,,,
trial,html.Screen,4_59_0,2023-09-11T18:36:57.803Z,,0,2,,5210.7549999940675,response,ISIC_9547089.JPG,4,ISIC_0067397.JPG,ISIC_9547089.JPG,false,1,keypress(m),500,696448.5,696448.099999994,691220.679,691226.599999994,691237.345,696453.803,8,400,10,,ISIC_0067397.JPG
break,html.Screen,4_59_1,2023-09-11T18:36:57.804Z,,0,,,NaN,,,,,,false,,,,696450,696449.599999994,,696448.799999997,,696453.803,8,400,,,
break_continue,html.Screen,4_59_2,2023-09-11T18:36:57.804Z,,0,,,NaN,,,,,,false,,,,696450.400000006,696450.200000003,,696450.099999994,,696453.803,8,400,,,
sequence,flow.Sequence,4_59,2023-09-11T18:36:57.805Z,,0,,,5212.855000003008,completion,,,,,false,,,,696450.5,696450.200000003,691220.679,691226.599999994,691237.345,696453.803,8,400,,,
trial,html.Screen,4_60_0,2023-09-11T18:37:02.703Z,,0,2,,4895.097000006004,response,ISIC_0057692.JPG,8,ISIC_0031627.JPG,ISIC_0031627.JPG,false,0,keypress(z),500,701349.299999997,701348.900000006,696437.137,696450.599999994,696453.803,701353.991,8,400,11,,ISIC_0057692.JPG
break,html.Screen,4_60_1,2023-09-11T18:37:02.705Z,,0,,,NaN,,,,,,false,,,,701350.599999994,701350.299999997,,701349.599999994,,701353.991,8,400,,,
break_continue,html.Screen,4_60_2,2023-09-11T18:37:02.705Z,,0,,,NaN,,,,,,false,,,,701351.099999994,701351,,701350.700000003,,701353.991,8,400,,,
sequence,flow.Sequence,4_60,2023-09-11T18:37:02.705Z,,0,,,4897.197000000044,completion,,,,,false,,,,701351.200000003,701351,696437.137,696450.599999994,696453.803,701353.991,8,400,,,
trial,html.Screen,4_61_0,2023-09-11T18:37:07.684Z,,0,2,,4975.808999996982,response,ISIC_8257549.JPG,8,ISIC_0063496.JPG,ISIC_0063496.JPG,false,0,keypress(z),500,706330,706329.799999997,701337.325,701351.299999997,701353.991,706353.791,8,400,12,,ISIC_8257549.JPG
break,html.Screen,4_61_1,2023-09-11T18:37:07.685Z,,0,,,NaN,,,,,,false,,,,706330.700000003,706330.599999994,,706330.099999994,,706353.791,8,400,,,
break_continue,html.Screen,4_61_2,2023-09-11T18:37:07.685Z,,0,,,NaN,,,,,,false,,,,706330.900000006,706330.900000006,,706330.700000003,,706353.791,8,400,,,
sequence,flow.Sequence,4_61,2023-09-11T18:37:07.685Z,,0,,,4976.909000005922,completion,,,,,false,,,,706331,706330.900000006,701337.325,701351.299999997,701353.991,706353.791,8,400,,,
trial,html.Screen,4_62_0,2023-09-11T18:37:12.504Z,,0,2,,4795.909000003012,response,ISIC_9363106.JPG,7,ISIC_8848134.JPG,ISIC_8848134.JPG,false,0,keypress(z),500,711150.099999994,711149.700000003,706337.125,706331.099999994,706353.791,711153.978,8,400,13,,ISIC_9363106.JPG
break,html.Screen,4_62_1,2023-09-11T18:37:12.506Z,,0,,,NaN,,,,,,false,,,,711151.5,711151.200000003,,711150.400000006,,711153.978,8,400,,,
break_continue,html.Screen,4_62_2,2023-09-11T18:37:12.506Z,,0,,,NaN,,,,,,false,,,,711152,711151.900000006,,711151.700000003,,711153.978,8,400,,,
sequence,flow.Sequence,4_62,2023-09-11T18:37:12.506Z,,0,,,4798.109000005992,completion,,,,,false,,,,711152.200000003,711151.900000006,706337.125,706331,706353.791,711153.978,8,400,,,
trial,html.Screen,4_63_0,2023-09-11T18:37:18.045Z,,0,2,,5536.621999994037,response,ISIC_7693611.JPG,8,ISIC_0032187.JPG,ISIC_0032187.JPG,false,0,keypress(z),500,716691,716690.599999994,711137.312,711152.400000006,711153.978,716703.756,8,400,14,,ISIC_7693611.JPG
break,html.Screen,4_63_1,2023-09-11T18:37:18.047Z,,0,,,NaN,,,,,,false,,,,716692.400000006,716692.099999994,,716691.299999997,,716703.756,8,400,,,
break_continue,html.Screen,4_63_2,2023-09-11T18:37:18.047Z,,0,,,NaN,,,,,,false,,,,716692.799999997,716692.799999997,,716692.5,,716703.756,8,400,,,
sequence,flow.Sequence,4_63,2023-09-11T18:37:18.047Z,,0,,,5538.821999997017,completion,,,,,false,,,,716693.099999994,716692.799999997,711137.312,711152.299999997,711153.978,716703.756,8,400,,,
trial,html.Screen,4_64_0,2023-09-11T18:37:22.249Z,,0,2,,4190.543999996968,response,ISIC_2246150.JPG,9,ISIC_0066399.JPG,ISIC_0066399.JPG,false,0,keypress(z),500,720894.700000003,720894.299999997,716687.09,716693.200000003,716703.756,720903.946,8,400,15,,ISIC_2246150.JPG
break,html.Screen,4_64_1,2023-09-11T18:37:22.250Z,,0,,,NaN,,,,,,false,,,,720895.799999997,720895.599999994,,720895,,720903.946,8,400,,,
break_continue,html.Screen,4_64_2,2023-09-11T18:37:22.250Z,,0,,,NaN,,,,,,false,,,,720896.099999994,720896,,720895.900000006,,720903.946,8,400,,,
sequence,flow.Sequence,4_64,2023-09-11T18:37:22.250Z,,0,,,4192.243999999948,completion,,,,,false,,,,720896.200000003,720896,716687.09,716693.099999994,716703.756,720903.946,8,400,,,
trial,html.Screen,4_65_0,2023-09-11T18:37:27.521Z,,0,2,,5262.8539999970235,response,ISIC_0004334.JPG,8,ISIC_4141315.JPG,ISIC_4141315.JPG,false,0,keypress(z),500,726167.200000003,726166.799999997,720887.28,720896.299999997,720903.946,726170.402,8,400,16,,ISIC_0004334.JPG
break,html.Screen,4_65_1,2023-09-11T18:37:27.523Z,,0,,,NaN,,,,,,false,,,,726168.599999994,726168.400000006,,726167.5,,726170.402,8,400,,,
break_continue,html.Screen,4_65_2,2023-09-11T18:37:27.523Z,,0,,,NaN,,,,,,false,,,,726169.099999994,726169,,726168.799999997,,726170.402,8,400,,,
sequence,flow.Sequence,4_65,2023-09-11T18:37:27.524Z,,0,,,5265.054000000004,completion,,,,,false,,,,726169.299999997,726169,720887.28,720896.200000003,720903.946,726170.402,8,400,,,
trial,html.Screen,4_66_0,2023-09-11T18:37:32.520Z,,0,2,,4995.298000002978,response,ISIC_0918078.JPG,8,ISIC_0015258.JPG,ISIC_0015258.JPG,false,0,keypress(z),500,731166.099999994,731165.700000003,726153.736,726169.5,726170.402,731170.671,8,400,17,,ISIC_0918078.JPG
break,html.Screen,4_66_1,2023-09-11T18:37:32.522Z,,0,,,NaN,,,,,,false,,,,731167.5,731167.200000003,,731166.400000006,,731170.671,8,400,,,
break_continue,html.Screen,4_66_2,2023-09-11T18:37:32.522Z,,0,,,NaN,,,,,,false,,,,731168.099999994,731167.900000006,,731167.700000003,,731170.671,8,400,,,
sequence,flow.Sequence,4_66,2023-09-11T18:37:32.522Z,,0,,,4997.498000005959,completion,,,,,false,,,,731168.299999997,731167.900000006,726153.736,726169.400000006,726170.402,731170.671,8,400,,,
trial,html.Screen,4_67_0,2023-09-11T18:37:38.045Z,,0,2,,5519.329000000027,response,ISIC_5442834.JPG,8,ISIC_0064125.JPG,ISIC_0064125.JPG,false,0,keypress(z),500,736690.5,736690,731154.005,731168.299999997,731170.671,736703.783,8,400,18,,ISIC_5442834.JPG
break,html.Screen,4_67_1,2023-09-11T18:37:38.046Z,,0,,,NaN,,,,,,false,,,,736691.900000006,736691.599999994,,736690.700000003,,736703.783,8,400,,,
break_continue,html.Screen,4_67_2,2023-09-11T18:37:38.047Z,,0,,,NaN,,,,,,false,,,,736692.299999997,736692.200000003,,736692,,736703.783,8,400,,,
sequence,flow.Sequence,4_67,2023-09-11T18:37:38.047Z,,0,,,5521.529000003007,completion,,,,,false,,,,736692.5,736692.200000003,731154.005,731168.299999997,731170.671,736703.783,8,400,,,
trial,html.Screen,4_68_0,2023-09-11T18:37:43.044Z,,0,2,,4985.516999996966,response,ISIC_6634951.JPG,8,ISIC_6773367.JPG,ISIC_6634951.JPG,false,1,keypress(m),500,741689.700000003,741689.299999997,736687.117,736692.700000003,736703.783,741703.861,8,400,19,,ISIC_6773367.JPG
break,html.Screen,4_68_1,2023-09-11T18:37:43.045Z,,0,,,NaN,,,,,,false,,,,741691.200000003,741690.900000006,,741690,,741703.861,8,400,,,
break_continue,html.Screen,4_68_2,2023-09-11T18:37:43.046Z,,0,,,NaN,,,,,,false,,,,741691.700000003,741691.599999994,,741691.299999997,,741703.861,8,400,,,
sequence,flow.Sequence,4_68,2023-09-11T18:37:43.046Z,,0,,,4987.8169999939855,completion,,,,,false,,,,741691.799999997,741691.599999994,736687.117,736692.599999994,736703.783,741703.861,8,400,,,
trial,html.Screen,4_69_0,2023-09-11T18:37:48.876Z,,0,2,,5817.238999994006,response,ISIC_6174156.JPG,8,ISIC_1048077.JPG,ISIC_1048077.JPG,false,0,keypress(z),500,747521.599999994,747521.099999994,741687.195,741692,741703.861,747536.961,8,400,20,,ISIC_6174156.JPG
break,html.Screen,4_69_1,2023-09-11T18:37:48.877Z,,0,,,NaN,,,,,,false,,,,747522.900000006,747522.599999994,,747521.799999997,,747536.961,8,400,,,
break_continue,html.Screen,4_69_2,2023-09-11T18:37:48.878Z,,0,,,NaN,,,,,,false,,,,747523.299999997,747523.200000003,,747523,,747536.961,8,400,,,
sequence,flow.Sequence,4_69,2023-09-11T18:37:48.878Z,,0,,,5819.339000002947,completion,,,,,false,,,,747523.400000006,747523.200000003,741687.195,741691.900000006,741703.861,747536.961,8,400,,,
trial,html.Screen,4_70_0,2023-09-11T18:37:52.578Z,,0,2,,3686.6389999940293,response,ISIC_0009918.JPG,7,ISIC_0000413.JPG,ISIC_0009918.JPG,false,1,keypress(m),500,751224.099999994,751223.599999994,747520.295,747523.400000006,747536.961,751236.813,8,400,21,,ISIC_0000413.JPG
break,html.Screen,4_70_1,2023-09-11T18:37:52.580Z,,0,,,NaN,,,,,,false,,,,751225.599999994,751225.299999997,,751224.299999997,,751236.813,8,400,,,
break_continue,html.Screen,4_70_2,2023-09-11T18:37:52.580Z,,0,,,NaN,,,,,,false,,,,751226.099999994,751226,,751225.700000003,,751236.813,8,400,,,
sequence,flow.Sequence,4_70,2023-09-11T18:37:52.581Z,,0,,,3689.0389999999898,completion,,,,,false,,,,751226.299999997,751226,747520.295,747523.400000006,747536.961,751236.813,8,400,,,
trial,html.Screen,4_71_0,2023-09-11T18:37:56.634Z,,0,2,,4042.1870000000345,response,ISIC_0305928.JPG,8,ISIC_1979534.JPG,ISIC_1979534.JPG,false,0,keypress(z),500,755279.5,755279,751220.147,751226.400000006,751236.813,755287.125,8,400,22,,ISIC_0305928.JPG
break,html.Screen,4_71_1,2023-09-11T18:37:56.635Z,,0,,,NaN,,,,,,false,,,,755280.900000006,755280.599999994,,755279.799999997,,755287.125,8,400,,,
break_continue,html.Screen,4_71_2,2023-09-11T18:37:56.636Z,,0,,,NaN,,,,,,false,,,,755281.400000006,755281.299999997,,755281.099999994,,755287.125,8,400,,,
sequence,flow.Sequence,4_71,2023-09-11T18:37:56.636Z,,0,,,4044.486999997054,completion,,,,,false,,,,755281.599999994,755281.299999997,751220.147,751226.299999997,751236.813,755287.125,8,400,,,
trial,html.Screen,4_72_0,2023-09-11T18:38:00.922Z,,0,2,,4280.17499999702,response,ISIC_0062709.JPG,9,ISIC_9806131.JPG,ISIC_0062709.JPG,false,1,keypress(m),500,759567.700000003,759567.299999997,755270.459,755281.700000003,755287.125,759570.287,8,400,23,,ISIC_9806131.JPG
break,html.Screen,4_72_1,2023-09-11T18:38:00.923Z,,0,,,NaN,,,,,,false,,,,759568.900000006,759568.599999994,,759568,,759570.287,8,400,,,
break_continue,html.Screen,4_72_2,2023-09-11T18:38:00.924Z,,0,,,NaN,,,,,,false,,,,759569.200000003,759569.200000003,,759568.900000006,,759570.287,8,400,,,
sequence,flow.Sequence,4_72,2023-09-11T18:38:00.924Z,,0,,,4282.07500000298,completion,,,,,false,,,,759569.299999997,759569.200000003,755270.459,755281.700000003,755287.125,759570.287,8,400,,,
trial,html.Screen,4_73_0,2023-09-11T18:38:05.961Z,,0,2,,5036.012999997009,response,ISIC_0014846.JPG,8,ISIC_0068144.JPG,ISIC_0014846.JPG,false,1,keypress(m),500,764606.599999994,764606.299999997,759553.621,759569.400000006,759570.287,764620.551,8,400,24,,ISIC_0068144.JPG
break,html.Screen,4_73_1,2023-09-11T18:38:05.962Z,,0,,,NaN,,,,,,false,,,,764607.700000003,764607.5,,764606.799999997,,764620.551,8,400,,,
break_continue,html.Screen,4_73_2,2023-09-11T18:38:05.962Z,,0,,,NaN,,,,,,false,,,,764608,764608,,764607.799999997,,764620.551,8,400,,,
sequence,flow.Sequence,4_73,2023-09-11T18:38:05.963Z,,0,,,5037.712999999989,completion,,,,,false,,,,764608.099999994,764608,759553.621,759569.400000006,759570.287,764620.551,8,400,,,
trial,html.Screen,4_74_0,2023-09-11T18:38:10.173Z,,0,2,,4197.649000003003,response,ISIC_2860618.JPG,6,ISIC_0062077.JPG,ISIC_0062077.JPG,false,0,keypress(z),500,768818.599999994,768818.200000003,764603.885,764608.299999997,764620.551,768820.383,8,400,25,,ISIC_2860618.JPG
break,html.Screen,4_74_1,2023-09-11T18:38:10.174Z,,0,,,NaN,,,,,,false,,,,768820,768819.700000003,,768818.900000006,,768820.383,8,400,,,
break_continue,html.Screen,4_74_2,2023-09-11T18:38:10.175Z,,0,,,NaN,,,,,,false,,,,768820.5,768820.299999997,,768820.099999994,,768820.383,8,400,,,
sequence,flow.Sequence,4_74,2023-09-11T18:38:10.175Z,,0,,,4199.748999997042,completion,,,,,false,,,,768820.700000003,768820.299999997,764603.885,764608.299999997,764620.551,768820.383,8,400,,,
trial,html.Screen,4_75_0,2023-09-11T18:38:15.059Z,,0,2,,4883.3170000029495,response,ISIC_0032426.JPG,5,ISIC_0000054.JPG,ISIC_0000054.JPG,false,0,keypress(z),500,773704.200000003,773703.700000003,768803.717,768820.799999997,768820.383,773720.187,8,400,26,,ISIC_0032426.JPG
break,html.Screen,4_75_1,2023-09-11T18:38:15.060Z,,0,,,NaN,,,,,,false,,,,773705.5,773705.299999997,,773704.5,,773720.187,8,400,,,
break_continue,html.Screen,4_75_2,2023-09-11T18:38:15.061Z,,0,,,NaN,,,,,,false,,,,773706.099999994,773705.900000006,,773705.700000003,,773720.187,8,400,,,
sequence,flow.Sequence,4_75,2023-09-11T18:38:15.061Z,,0,,,4885.51700000593,completion,,,,,false,,,,773706.200000003,773705.900000006,768803.717,768820.799999997,768820.383,773720.187,8,400,,,
trial,html.Screen,4_76_0,2023-09-11T18:38:20.136Z,,0,2,,5060.912999994005,response,ISIC_0056444.JPG,7,ISIC_0062162.JPG,ISIC_0056444.JPG,false,1,keypress(m),500,778781.5,778781.099999994,773703.521,773706.400000006,773720.187,778803.67,8,400,27,,ISIC_0062162.JPG
break,html.Screen,4_76_1,2023-09-11T18:38:20.137Z,,0,,,NaN,,,,,,false,,,,778783,778782.5,,778781.900000006,,778803.67,8,400,,,
break_continue,html.Screen,4_76_2,2023-09-11T18:38:20.138Z,,0,,,NaN,,,,,,false,,,,778783.400000006,778783.200000003,,778783,,778803.67,8,400,,,
sequence,flow.Sequence,4_76,2023-09-11T18:38:20.138Z,,0,,,5063.013000002946,completion,,,,,false,,,,778783.599999994,778783.200000003,773703.521,773706.400000006,773720.187,778803.67,8,400,,,
trial,html.Screen,4_77_0,2023-09-11T18:38:24.269Z,,0,2,,4110.129999996978,response,ISIC_0030969.JPG,5,ISIC_5772938.JPG,ISIC_0030969.JPG,false,1,keypress(m),500,782914.299999997,782913.799999997,778787.004,778783.700000003,778803.67,782920.172,8,400,28,,ISIC_5772938.JPG
break,html.Screen,4_77_1,2023-09-11T18:38:24.270Z,,0,,,NaN,,,,,,false,,,,782915.599999994,782915.299999997,,782914.5,,782920.172,8,400,,,
break_continue,html.Screen,4_77_2,2023-09-11T18:38:24.271Z,,0,,,NaN,,,,,,false,,,,782916.099999994,782916.099999994,,782915.799999997,,782920.172,8,400,,,
sequence,flow.Sequence,4_77,2023-09-11T18:38:24.271Z,,0,,,4112.429999993998,completion,,,,,false,,,,782916.400000006,782916.099999994,778787.004,778783.700000003,778803.67,782920.172,8,400,,,
trial,html.Screen,4_78_0,2023-09-11T18:38:29.380Z,,0,2,,5104.8279999999795,response,ISIC_4974868.JPG,6,ISIC_0069595.JPG,ISIC_0069595.JPG,false,0,keypress(z),500,788025.5,788025,782903.506,782916.400000006,782920.172,788037.133,8,400,29,,ISIC_4974868.JPG
break,html.Screen,4_78_1,2023-09-11T18:38:29.381Z,,0,,,NaN,,,,,,false,,,,788027,788026.599999994,,788025.799999997,,788037.133,8,400,,,
break_continue,html.Screen,4_78_2,2023-09-11T18:38:29.382Z,,0,,,NaN,,,,,,false,,,,788027.5,788027.299999997,,788027.099999994,,788037.133,8,400,,,
sequence,flow.Sequence,4_78,2023-09-11T18:38:29.382Z,,0,,,5107.127999996999,completion,,,,,false,,,,788027.599999994,788027.299999997,782903.506,782916.400000006,782920.172,788037.133,8,400,,,
trial,html.Screen,4_79_0,2023-09-11T18:38:35.659Z,,0,2,,6266.866999999969,response,ISIC_3737739.JPG,8,ISIC_2833213.JPG,ISIC_3737739.JPG,false,1,keypress(m),500,794304.400000006,794304,788020.467,788027.799999997,788037.133,794320.215,8,400,30,,ISIC_2833213.JPG
break,html.Screen,4_79_1,2023-09-11T18:38:35.660Z,,0,,,NaN,,,,,,false,,,,794305.599999994,794305.299999997,,794304.599999994,,794320.215,8,400,,,
break_continue,html.Screen,4_79_2,2023-09-11T18:38:35.660Z,,0,,,NaN,,,,,,false,,,,794306,794305.799999997,,794305.700000003,,794320.215,8,400,,,
sequence,flow.Sequence,4_79,2023-09-11T18:38:35.661Z,,0,,,6268.666999996989,completion,,,,,false,,,,794306.200000003,794305.799999997,788020.467,788027.700000003,788037.133,794320.215,8,400,,,
trial,html.Screen,4_80_0,2023-09-11T18:38:39.745Z,,0,2,,4070.2850000000326,response,ISIC_0068993.JPG,8,ISIC_5363229.JPG,ISIC_0068993.JPG,false,1,keypress(m),500,798390.900000006,798390.5,794303.549,794306.200000003,794320.215,798403.691,8,400,31,,ISIC_5363229.JPG
break,html.Screen,4_80_1,2023-09-11T18:38:39.747Z,,0,,,NaN,,,,,,false,,,,798392.299999997,798392,,798391.099999994,,798403.691,8,400,,,
break_continue,html.Screen,4_80_2,2023-09-11T18:38:39.747Z,,0,,,NaN,,,,,,false,,,,798392.799999997,798392.700000003,,798392.400000006,,798403.691,8,400,,,
sequence,flow.Sequence,4_80,2023-09-11T18:38:39.747Z,,0,,,4072.485000003013,completion,,,,,false,,,,798392.900000006,798392.700000003,794303.549,794306.200000003,794320.215,798403.691,8,400,,,
trial,html.Screen,4_81_0,2023-09-11T18:38:44.595Z,,0,2,,4836.209000005969,response,ISIC_4794052.JPG,6,ISIC_9445053.JPG,ISIC_4794052.JPG,false,1,keypress(m),500,803240.200000003,803239.900000006,798387.025,798393.099999994,798403.691,803253.497,8,400,32,,ISIC_9445053.JPG
break,html.Screen,4_81_1,2023-09-11T18:38:44.596Z,,0,,,NaN,,,,,,false,,,,803241.5,803241.200000003,,803240.5,,803253.497,8,400,,,
break_continue,html.Screen,4_81_2,2023-09-11T18:38:44.597Z,,0,,,NaN,,,,,,false,,,,803242,803241.900000006,,803241.700000003,,803253.497,8,400,,,
sequence,flow.Sequence,4_81,2023-09-11T18:38:44.597Z,,0,,,4838.209000005969,completion,,,,,false,,,,803242.299999997,803241.900000006,798387.025,798393,798403.691,803253.497,8,400,,,
trial,html.Screen,4_82_0,2023-09-11T18:38:49.032Z,,0,2,,4423.003000000026,response,ISIC_0025219.JPG,8,ISIC_6960446.JPG,ISIC_0025219.JPG,false,1,keypress(m),500,807677,807676.5,803236.831,803242.400000006,803253.497,807686.653,8,400,33,,ISIC_6960446.JPG
break,html.Screen,4_82_1,2023-09-11T18:38:49.033Z,,0,,,NaN,,,,,,false,,,,807678.5,807678.200000003,,807677.299999997,,807686.653,8,400,,,
break_continue,html.Screen,4_82_2,2023-09-11T18:38:49.034Z,,0,,,NaN,,,,,,false,,,,807679,807678.900000006,,807678.700000003,,807686.653,8,400,,,
sequence,flow.Sequence,4_82,2023-09-11T18:38:49.034Z,,0,,,4425.4030000059865,completion,,,,,false,,,,807679.099999994,807678.900000006,803236.831,803242.299999997,803253.497,807686.653,8,400,,,
trial,html.Screen,4_83_0,2023-09-11T18:38:52.384Z,,0,2,,3341.94699999399,response,ISIC_0072496.JPG,8,ISIC_9187876.JPG,ISIC_0072496.JPG,false,1,keypress(m),500,811029.099999994,811028.599999994,807669.987,807679.299999997,807686.653,811036.951,8,400,34,,ISIC_9187876.JPG
break,html.Screen,4_83_1,2023-09-11T18:38:52.385Z,,0,,,NaN,,,,,,false,,,,811030.599999994,811030.200000003,,811029.400000006,,811036.951,8,400,,,
break_continue,html.Screen,4_83_2,2023-09-11T18:38:52.386Z,,0,,,NaN,,,,,,false,,,,811031,811031,,811030.700000003,,811036.951,8,400,,,
sequence,flow.Sequence,4_83,2023-09-11T18:38:52.386Z,,0,,,3344.3469999999506,completion,,,,,false,,,,811031.200000003,811031,807669.987,807679.200000003,807686.653,811036.951,8,400,,,
trial,html.Screen,4_84_0,2023-09-11T18:38:57.411Z,,0,2,,5018.648999994039,response,ISIC_0011943.JPG,7,ISIC_0001111.JPG,ISIC_0001111.JPG,false,0,keypress(z),500,816055.900000006,816055.599999994,811020.285,811031.299999997,811036.951,816070.083,8,400,35,,ISIC_0011943.JPG
break,html.Screen,4_84_1,2023-09-11T18:38:57.412Z,,0,,,NaN,,,,,,false,,,,816057.299999997,816057,,816056.200000003,,816070.083,8,400,,,
break_continue,html.Screen,4_84_2,2023-09-11T18:38:57.412Z,,0,,,NaN,,,,,,false,,,,816057.900000006,816057.700000003,,816057.400000006,,816070.083,8,400,,,
sequence,flow.Sequence,4_84,2023-09-11T18:38:57.413Z,,0,,,5020.749000002979,completion,,,,,false,,,,816058,816057.700000003,811020.285,811031.200000003,811036.951,816070.083,8,400,,,
trial,html.Screen,4_85_0,2023-09-11T18:39:03.080Z,,0,2,,5654.417000000016,response,ISIC_8561963.JPG,7,ISIC_0012758.JPG,ISIC_0012758.JPG,false,0,keypress(z),500,821724.900000006,821724.5,816053.417,816058.200000003,816070.083,821736.921,8,400,36,,ISIC_8561963.JPG
break,html.Screen,4_85_1,2023-09-11T18:39:03.081Z,,0,,,NaN,,,,,,false,,,,821726.299999997,821726,,821725.200000003,,821736.921,8,400,,,
break_continue,html.Screen,4_85_2,2023-09-11T18:39:03.081Z,,0,,,NaN,,,,,,false,,,,821726.700000003,821726.700000003,,821726.400000006,,821736.921,8,400,,,
sequence,flow.Sequence,4_85,2023-09-11T18:39:03.082Z,,0,,,5656.617000002996,completion,,,,,false,,,,821726.900000006,821726.700000003,816053.417,816058.099999994,816070.083,821736.921,8,400,,,
trial,html.Screen,4_86_0,2023-09-11T18:39:08.000Z,,0,2,,4907.6789999940665,response,ISIC_8578732.JPG,6,ISIC_0979974.JPG,ISIC_0979974.JPG,false,0,keypress(z),500,826645,826644.599999994,821720.255,821727.099999994,821736.921,826653.391,8,400,37,,ISIC_8578732.JPG
break,html.Screen,4_86_1,2023-09-11T18:39:08.001Z,,0,,,NaN,,,,,,false,,,,826646.400000006,826646.099999994,,826645.299999997,,826653.391,8,400,,,
break_continue,html.Screen,4_86_2,2023-09-11T18:39:08.001Z,,0,,,NaN,,,,,,false,,,,826646.900000006,826646.799999997,,826646.5,,826653.391,8,400,,,
sequence,flow.Sequence,4_86,2023-09-11T18:39:08.002Z,,0,,,4909.878999997047,completion,,,,,false,,,,826647,826646.799999997,821720.255,821727.099999994,821736.921,826653.391,8,400,,,
trial,html.Screen,4_87_0,2023-09-11T18:39:12.050Z,,0,2,,4041.809000003035,response,ISIC_8257549.JPG,8,ISIC_2234076.JPG,ISIC_2234076.JPG,false,0,keypress(z),500,830695.400000006,830695.200000003,826636.725,826647.099999994,826653.391,830703.229,8,400,38,,ISIC_8257549.JPG
break,html.Screen,4_87_1,2023-09-11T18:39:12.051Z,,0,,,NaN,,,,,,false,,,,830696.299999997,830696.099999994,,830695.599999994,,830703.229,8,400,,,
break_continue,html.Screen,4_87_2,2023-09-11T18:39:12.051Z,,0,,,NaN,,,,,,false,,,,830696.5,830696.5,,830696.299999997,,830703.229,8,400,,,
sequence,flow.Sequence,4_87,2023-09-11T18:39:12.051Z,,0,,,4043.109000000055,completion,,,,,false,,,,830696.599999994,830696.5,826636.725,826647.099999994,826653.391,830703.229,8,400,,,
trial,html.Screen,4_88_0,2023-09-11T18:39:16.214Z,,0,2,,4155.77099999995,response,ISIC_0014173.JPG,7,ISIC_2159510.JPG,ISIC_0014173.JPG,false,1,keypress(m),500,834859.400000006,834859,830686.563,830696.700000003,830703.229,834870.169,8,400,39,,ISIC_2159510.JPG
break,html.Screen,4_88_1,2023-09-11T18:39:16.215Z,,0,,,NaN,,,,,,false,,,,834860.700000003,834860.400000006,,834859.599999994,,834870.169,8,400,,,
break_continue,html.Screen,4_88_2,2023-09-11T18:39:16.216Z,,0,,,NaN,,,,,,false,,,,834861.099999994,834861.099999994,,834860.900000006,,834870.169,8,400,,,
sequence,flow.Sequence,4_88,2023-09-11T18:39:16.216Z,,0,,,4157.870999993989,completion,,,,,false,,,,834861.299999997,834861.099999994,830686.563,830696.599999994,830703.229,834870.169,8,400,,,
trial,html.Screen,4_89_0,2023-09-11T18:39:20.065Z,,0,2,,3839.3310000000056,response,ISIC_3893354.JPG,8,ISIC_0028103.JPG,ISIC_0028103.JPG,false,0,keypress(z),500,838709.900000006,838709.5,834853.503,834861.400000006,834870.169,838720.015,8,400,40,,ISIC_3893354.JPG
break,html.Screen,4_89_1,2023-09-11T18:39:20.066Z,,0,,,NaN,,,,,,false,,,,838711.299999997,838711,,838710.200000003,,838720.015,8,400,,,
break_continue,html.Screen,4_89_2,2023-09-11T18:39:20.066Z,,0,,,NaN,,,,,,false,,,,838711.799999997,838711.700000003,,838711.400000006,,838720.015,8,400,,,
sequence,flow.Sequence,4_89,2023-09-11T18:39:20.067Z,,0,,,3841.531000002986,completion,,,,,false,,,,838712,838711.700000003,834853.503,834861.400000006,834870.169,838720.015,8,400,,,
trial,html.Screen,4_90_0,2023-09-11T18:39:23.944Z,,0,2,,3868.6850000029663,response,ISIC_0071944.JPG,7,ISIC_4032636.JPG,ISIC_0071944.JPG,false,1,keypress(m),500,842589.200000003,842588.700000003,838703.349,838712.099999994,838720.015,842603.606,8,400,41,,ISIC_4032636.JPG
break,html.Screen,4_90_1,2023-09-11T18:39:23.945Z,,0,,,NaN,,,,,,false,,,,842590.700000003,842590.400000006,,842589.5,,842603.606,8,400,,,
break_continue,html.Screen,4_90_2,2023-09-11T18:39:23.946Z,,0,,,NaN,,,,,,false,,,,842591.200000003,842591.099999994,,842590.900000006,,842603.606,8,400,,,
sequence,flow.Sequence,4_90,2023-09-11T18:39:23.946Z,,0,,,3871.0849999940256,completion,,,,,false,,,,842591.400000006,842591.099999994,838703.349,838712.099999994,838720.015,842603.606,8,400,,,
trial,html.Screen,4_91_0,2023-09-11T18:39:29.376Z,,0,2,,5417.094000002951,response,ISIC_0000315.JPG,6,ISIC_8633894.JPG,ISIC_8633894.JPG,false,0,keypress(z),500,848021.200000003,848020.700000003,842586.94,842591.400000006,842603.606,848036.722,8,400,42,,ISIC_0000315.JPG
break,html.Screen,4_91_1,2023-09-11T18:39:29.377Z,,0,,,NaN,,,,,,false,,,,848022.700000003,848022.299999997,,848021.5,,848036.722,8,400,,,
break_continue,html.Screen,4_91_2,2023-09-11T18:39:29.378Z,,0,,,NaN,,,,,,false,,,,848023.200000003,848023.099999994,,848022.900000006,,848036.722,8,400,,,
sequence,flow.Sequence,4_91,2023-09-11T18:39:29.378Z,,0,,,5419.493999994011,completion,,,,,false,,,,848023.200000003,848023.099999994,842586.94,842591.400000006,842603.606,848036.722,8,400,,,
trial,html.Screen,4_92_0,2023-09-11T18:39:33.494Z,,0,2,,4102.47800000303,response,ISIC_5294540.JPG,7,ISIC_0058315.JPG,ISIC_0058315.JPG,false,0,keypress(z),500,852139.599999994,852139.200000003,848020.056,848023.400000006,848036.722,852153.224,8,400,43,,ISIC_5294540.JPG
break,html.Screen,4_92_1,2023-09-11T18:39:33.496Z,,0,,,NaN,,,,,,false,,,,852141.099999994,852140.700000003,,852139.900000006,,852153.224,8,400,,,
break_continue,html.Screen,4_92_2,2023-09-11T18:39:33.496Z,,0,,,NaN,,,,,,false,,,,852141.599999994,852141.5,,852141.200000003,,852153.224,8,400,,,
sequence,flow.Sequence,4_92,2023-09-11T18:39:33.496Z,,0,,,4104.778000000049,completion,,,,,false,,,,852141.799999997,852141.5,848020.056,848023.299999997,848036.722,852153.224,8,400,,,
trial,html.Screen,4_93_0,2023-09-11T18:39:38.413Z,,0,2,,4904.976000002935,response,ISIC_0011051.JPG,7,ISIC_0247197.JPG,ISIC_0011051.JPG,false,1,keypress(m),500,857058.599999994,857058.200000003,852136.558,852141.900000006,852153.224,857070.062,8,400,44,,ISIC_0247197.JPG
break,html.Screen,4_93_1,2023-09-11T18:39:38.415Z,,0,,,NaN,,,,,,false,,,,857060,857059.700000003,,857059,,857070.062,8,400,,,
break_continue,html.Screen,4_93_2,2023-09-11T18:39:38.415Z,,0,,,NaN,,,,,,false,,,,857060.5,857060.400000006,,857060.200000003,,857070.062,8,400,,,
sequence,flow.Sequence,4_93,2023-09-11T18:39:38.415Z,,0,,,4907.176000005915,completion,,,,,false,,,,857060.700000003,857060.400000006,852136.558,852141.900000006,852153.224,857070.062,8,400,,,
trial,html.Screen,4_94_0,2023-09-11T18:39:43.522Z,,0,2,,5097.138000002946,response,ISIC_9049170.JPG,8,ISIC_0033630.JPG,ISIC_0033630.JPG,false,0,keypress(z),500,862167.5,862167.200000003,857053.396,857060.799999997,857070.062,862169.858,8,400,45,,ISIC_9049170.JPG
break,html.Screen,4_94_1,2023-09-11T18:39:43.524Z,,0,,,NaN,,,,,,false,,,,862169,862168.700000003,,862167.900000006,,862169.858,8,400,,,
break_continue,html.Screen,4_94_2,2023-09-11T18:39:43.524Z,,0,,,NaN,,,,,,false,,,,862169.400000006,862169.299999997,,862169.099999994,,862169.858,8,400,,,
sequence,flow.Sequence,4_94,2023-09-11T18:39:43.524Z,,0,,,5099.237999996985,completion,,,,,false,,,,862169.599999994,862169.299999997,857053.396,857060.799999997,857070.062,862169.858,8,400,,,
trial,html.Screen,4_95_0,2023-09-11T18:39:47.410Z,,0,2,,3884.741999994032,response,ISIC_4163686.JPG,5,ISIC_0033534.JPG,ISIC_0033534.JPG,false,0,keypress(z),500,866055,866054.599999994,862153.192,862169.700000003,862169.858,866070.067,8,400,46,,ISIC_4163686.JPG
break,html.Screen,4_95_1,2023-09-11T18:39:47.411Z,,0,,,NaN,,,,,,false,,,,866056.599999994,866056.299999997,,866055.400000006,,866070.067,8,400,,,
break_continue,html.Screen,4_95_2,2023-09-11T18:39:47.412Z,,0,,,NaN,,,,,,false,,,,866057.099999994,866056.900000006,,866056.799999997,,866070.067,8,400,,,
sequence,flow.Sequence,4_95,2023-09-11T18:39:47.412Z,,0,,,3887.042000005953,completion,,,,,false,,,,866057.099999994,866056.900000006,862153.192,862169.599999994,862169.858,866070.067,8,400,,,
trial,html.Screen,4_96_0,2023-09-11T18:39:51.778Z,,0,2,,4353.032999994,response,ISIC_0003150.JPG,7,ISIC_6945634.JPG,ISIC_6945634.JPG,false,0,keypress(z),500,870423.599999994,870423.099999994,866053.401,866057.200000003,866070.067,870436.559,8,400,47,,ISIC_0003150.JPG
break,html.Screen,4_96_1,2023-09-11T18:39:51.780Z,,0,,,NaN,,,,,,false,,,,870424.900000006,870424.599999994,,870423.799999997,,870436.559,8,400,,,
break_continue,html.Screen,4_96_2,2023-09-11T18:39:51.780Z,,0,,,NaN,,,,,,false,,,,870425.400000006,870425.299999997,,870425,,870436.559,8,400,,,
sequence,flow.Sequence,4_96,2023-09-11T18:39:51.780Z,,0,,,4355.232999996981,completion,,,,,false,,,,870425.599999994,870425.299999997,866053.401,866057.200000003,866070.067,870436.559,8,400,,,
trial,html.Screen,4_97_0,2023-09-11T18:39:56.745Z,,0,2,,4953.641000002972,response,ISIC_0031208.JPG,6,ISIC_5527224.JPG,ISIC_5527224.JPG,false,0,keypress(z),500,875390.599999994,875390.200000003,870419.893,870425.700000003,870436.559,875403.49,8,400,48,,ISIC_0031208.JPG
break,html.Screen,4_97_1,2023-09-11T18:39:56.747Z,,0,,,NaN,,,,,,false,,,,875392,875391.599999994,,875390.900000006,,875403.49,8,400,,,
break_continue,html.Screen,4_97_2,2023-09-11T18:39:56.747Z,,0,,,NaN,,,,,,false,,,,875392.400000006,875392.400000006,,875392.099999994,,875403.49,8,400,,,
sequence,flow.Sequence,4_97,2023-09-11T18:39:56.747Z,,0,,,4955.841000005952,completion,,,,,false,,,,875392.599999994,875392.400000006,870419.893,870425.700000003,870436.559,875403.49,8,400,,,
trial,html.Screen,4_98_0,2023-09-11T18:40:02.139Z,,0,2,,5380.510000000009,response,ISIC_6800044.JPG,8,ISIC_1306020.JPG,ISIC_6800044.JPG,false,1,keypress(m),500,880784.200000003,880784,875386.824,875392.799999997,875403.49,880786.608,8,400,49,,ISIC_1306020.JPG
break,html.Screen,4_98_1,2023-09-11T18:40:02.140Z,,0,,,NaN,,,,,,false,,,,880785.200000003,880785,,880784.400000006,,880786.608,8,400,,,
break_continue,html.Screen,4_98_2,2023-09-11T18:40:02.140Z,,0,,,NaN,,,,,,false,,,,880785.599999994,880785.5,,880785.299999997,,880786.608,8,400,,,
sequence,flow.Sequence,4_98,2023-09-11T18:40:02.142Z,,0,,,5382.010000000009,completion,,,,,false,,,,880787,880785.5,875386.824,875392.799999997,875403.49,880786.608,8,400,,,
trial,html.Screen,4_99_0,2023-09-11T18:40:07.088Z,,0,2,,4946.292000005953,response,ISIC_1975042.JPG,9,ISIC_9152137.JPG,ISIC_9152137.JPG,false,0,keypress(z),500,885733.299999997,885732.900000006,880769.942,880787.099999994,880786.608,885736.786,8,400,50,,ISIC_1975042.JPG
break,html.Screen,4_99_1,2023-09-11T18:40:17.079Z,,0,,,9999.966000000015,timeout,,,,,false,,,,895724.099999994,895720.086,885720.12,885733.599999994,885736.786,895736.752,8,400,,,
break_continue,html.Screen,4_99_2,2023-09-11T18:40:20.599Z,,0,,,3490.4480000030017,response,,,,,false,continue,keypress(Space),,899244.400000006,899227.200000003,895720.086,895724.400000006,895736.752,899253.278,8,400,,,
sequence,flow.Sequence,4_99,2023-09-11T18:40:20.599Z,,0,,,18440.592000002973,completion,,,,,false,,,,899244.599999994,899227.200000003,880769.942,880787,880786.608,899253.278,8,400,,,
trial,html.Screen,4_100_0,2023-09-11T18:40:25.521Z,,0,3,,4912.922000002931,response,ISIC_0064694.JPG,8,ISIC_0010376.JPG,ISIC_0010376.JPG,false,0,keypress(z),500,904166.599999994,904166.200000003,899236.612,899244.700000003,899253.278,904169.748,8,400,1,,ISIC_0064694.JPG
break,html.Screen,4_100_1,2023-09-11T18:40:25.523Z,,0,,,NaN,,,,,,false,,,,904168,904167.700000003,,904166.900000006,,904169.748,8,400,,,
break_continue,html.Screen,4_100_2,2023-09-11T18:40:25.523Z,,0,,,NaN,,,,,,false,,,,904168.5,904168.400000006,,904168.200000003,,904169.748,8,400,,,
sequence,flow.Sequence,4_100,2023-09-11T18:40:25.524Z,,0,,,4915.122000005911,completion,,,,,false,,,,904168.700000003,904168.400000006,899236.612,899244.700000003,899253.278,904169.748,8,400,,,
trial,html.Screen,4_101_0,2023-09-11T18:40:30.041Z,,0,3,,4516.351999994018,response,ISIC_2468509.JPG,9,ISIC_4826037.JPG,ISIC_2468509.JPG,false,1,keypress(m),500,908686.5,908686.099999994,904153.082,904168.799999997,904169.748,908703.26,8,400,2,,ISIC_4826037.JPG
break,html.Screen,4_101_1,2023-09-11T18:40:30.043Z,,0,,,NaN,,,,,,false,,,,908687.900000006,908687.599999994,,908686.799999997,,908703.26,8,400,,,
break_continue,html.Screen,4_101_2,2023-09-11T18:40:30.043Z,,0,,,NaN,,,,,,false,,,,908688.400000006,908688.200000003,,908688.099999994,,908703.26,8,400,,,
sequence,flow.Sequence,4_101,2023-09-11T18:40:30.043Z,,0,,,4518.452000002959,completion,,,,,false,,,,908688.599999994,908688.200000003,904153.082,904168.799999997,904169.748,908703.26,8,400,,,
trial,html.Screen,4_102_0,2023-09-11T18:40:33.905Z,,0,3,,3846.33999999403,response,ISIC_0028069.JPG,8,ISIC_0817140.JPG,ISIC_0817140.JPG,false,0,keypress(z),500,912550.099999994,912549.599999994,908686.594,908688.700000003,908703.26,912553.106,8,400,3,,ISIC_0028069.JPG
break,html.Screen,4_102_1,2023-09-11T18:40:33.906Z,,0,,,NaN,,,,,,false,,,,912551.5,912551.099999994,,912550.400000006,,912553.106,8,400,,,
break_continue,html.Screen,4_102_2,2023-09-11T18:40:33.907Z,,0,,,NaN,,,,,,false,,,,912552,912551.900000006,,912551.599999994,,912553.106,8,400,,,
sequence,flow.Sequence,4_102,2023-09-11T18:40:33.907Z,,0,,,3848.640000005951,completion,,,,,false,,,,912552.099999994,912551.900000006,908686.594,908688.700000003,908703.26,912553.106,8,400,,,
trial,html.Screen,4_103_0,2023-09-11T18:40:38.455Z,,0,3,,4546.193999996991,response,ISIC_6003500.JPG,5,ISIC_2152875.JPG,ISIC_2152875.JPG,false,0,keypress(z),500,917099.700000003,917099.299999997,912536.44,912552.299999997,912553.106,917103.337,8,400,4,,ISIC_6003500.JPG
break,html.Screen,4_103_1,2023-09-11T18:40:38.456Z,,0,,,NaN,,,,,,false,,,,917100.599999994,917100.5,,917099.900000006,,917103.337,8,400,,,
break_continue,html.Screen,4_103_2,2023-09-11T18:40:38.456Z,,0,,,NaN,,,,,,false,,,,917100.900000006,917100.799999997,,917100.799999997,,917103.337,8,400,,,
sequence,flow.Sequence,4_103,2023-09-11T18:40:38.456Z,,0,,,4547.693999996991,completion,,,,,false,,,,917101.099999994,917100.799999997,912536.44,912552.200000003,912553.106,917103.337,8,400,,,
trial,html.Screen,4_104_0,2023-09-11T18:40:43.326Z,,0,3,,4866.962999996962,response,ISIC_9125543.JPG,7,ISIC_8922355.JPG,ISIC_9125543.JPG,false,1,keypress(m),500,921970.799999997,921970.299999997,917086.671,917101.099999994,917103.337,921986.475,8,400,5,,ISIC_8922355.JPG
break,html.Screen,4_104_1,2023-09-11T18:40:43.327Z,,0,,,NaN,,,,,,false,,,,921972.200000003,921971.900000006,,921971.099999994,,921986.475,8,400,,,
break_continue,html.Screen,4_104_2,2023-09-11T18:40:43.328Z,,0,,,NaN,,,,,,false,,,,921972.700000003,921972.599999994,,921972.400000006,,921986.475,8,400,,,
sequence,flow.Sequence,4_104,2023-09-11T18:40:43.328Z,,0,,,4869.262999993982,completion,,,,,false,,,,921972.900000006,921972.599999994,917086.671,917101.099999994,917103.337,921986.475,8,400,,,
trial,html.Screen,4_105_0,2023-09-11T18:40:47.763Z,,0,3,,4420.7250000030035,response,ISIC_0058607.JPG,8,ISIC_9008095.JPG,ISIC_9008095.JPG,false,0,keypress(z),500,926407.599999994,926407.200000003,921969.809,921973.099999994,921986.475,926419.631,8,400,6,,ISIC_0058607.JPG
break,html.Screen,4_105_1,2023-09-11T18:40:47.764Z,,0,,,NaN,,,,,,false,,,,926408.900000006,926408.599999994,,926407.900000006,,926419.631,8,400,,,
break_continue,html.Screen,4_105_2,2023-09-11T18:40:47.764Z,,0,,,NaN,,,,,,false,,,,926409.400000006,926409.200000003,,926409,,926419.631,8,400,,,
sequence,flow.Sequence,4_105,2023-09-11T18:40:47.765Z,,0,,,4422.7250000030035,completion,,,,,false,,,,926409.599999994,926409.200000003,921969.809,921973,921986.475,926419.631,8,400,,,
trial,html.Screen,4_106_0,2023-09-11T18:40:52.434Z,,0,3,,4658.569000002928,response,ISIC_5508076.JPG,9,ISIC_4870676.JPG,ISIC_5508076.JPG,false,1,keypress(m),500,931078.599999994,931078.200000003,926402.965,926409.700000003,926419.631,931086.472,8,400,7,,ISIC_4870676.JPG
break,html.Screen,4_106_1,2023-09-11T18:40:52.435Z,,0,,,NaN,,,,,,false,,,,931080.099999994,931079.799999997,,931078.900000006,,931086.472,8,400,,,
break_continue,html.Screen,4_106_2,2023-09-11T18:40:52.436Z,,0,,,NaN,,,,,,false,,,,931080.599999994,931080.400000006,,931080.200000003,,931086.472,8,400,,,
sequence,flow.Sequence,4_106,2023-09-11T18:40:52.436Z,,0,,,4660.769000005908,completion,,,,,false,,,,931080.799999997,931080.400000006,926402.965,926409.599999994,926419.631,931086.472,8,400,,,
trial,html.Screen,4_107_0,2023-09-11T18:40:57.033Z,,0,3,,4591.528000000049,response,ISIC_1068686.JPG,7,ISIC_0069505.JPG,ISIC_0069505.JPG,false,0,keypress(z),500,935678.5,935678,931069.806,931080.900000006,931086.472,935686.288,8,400,8,,ISIC_1068686.JPG
break,html.Screen,4_107_1,2023-09-11T18:40:57.035Z,,0,,,NaN,,,,,,false,,,,935679.799999997,935679.5,,935678.799999997,,935686.288,8,400,,,
break_continue,html.Screen,4_107_2,2023-09-11T18:40:57.035Z,,0,,,NaN,,,,,,false,,,,935680.299999997,935680.200000003,,935680,,935686.288,8,400,,,
sequence,flow.Sequence,4_107,2023-09-11T18:40:57.036Z,,0,,,4593.72800000303,completion,,,,,false,,,,935680.5,935680.200000003,931069.806,931080.900000006,931086.472,935686.288,8,400,,,
trial,html.Screen,4_108_0,2023-09-11T18:41:01.724Z,,0,3,,4681.912000003038,response,ISIC_8622204.JPG,8,ISIC_5979783.JPG,ISIC_8622204.JPG,false,1,keypress(m),500,940368.599999994,940368.200000003,935669.622,935680.599999994,935686.288,940369.826,8,400,9,,ISIC_5979783.JPG
break,html.Screen,4_108_1,2023-09-11T18:41:01.725Z,,0,,,NaN,,,,,,false,,,,940370.099999994,940369.700000003,,940368.900000006,,940369.826,8,400,,,
break_continue,html.Screen,4_108_2,2023-09-11T18:41:01.726Z,,0,,,NaN,,,,,,false,,,,940370.599999994,940370.5,,940370.299999997,,940369.826,8,400,,,
sequence,flow.Sequence,4_108,2023-09-11T18:41:01.726Z,,0,,,4684.212000000058,completion,,,,,false,,,,940370.799999997,940370.5,935669.622,935680.599999994,935686.288,940369.826,8,400,,,
trial,html.Screen,4_109_0,2023-09-11T18:41:06.532Z,,0,3,,4806.273999994039,response,ISIC_0033090.JPG,6,ISIC_4732241.JPG,ISIC_0033090.JPG,false,1,keypress(m),500,945176.5,945176.099999994,940353.16,940371,940369.826,945186.3,8,400,10,,ISIC_4732241.JPG
break,html.Screen,4_109_1,2023-09-11T18:41:06.533Z,,0,,,NaN,,,,,,false,,,,945177.900000006,945177.599999994,,945176.799999997,,945186.3,8,400,,,
break_continue,html.Screen,4_109_2,2023-09-11T18:41:06.533Z,,0,,,NaN,,,,,,false,,,,945178.5,945178.299999997,,945178.099999994,,945186.3,8,400,,,
sequence,flow.Sequence,4_109,2023-09-11T18:41:06.534Z,,0,,,4808.473999997019,completion,,,,,false,,,,945178.599999994,945178.299999997,940353.16,940370.900000006,940369.826,945186.3,8,400,,,
trial,html.Screen,4_110_0,2023-09-11T18:41:10.856Z,,0,3,,4314.499999996973,response,ISIC_0025841.JPG,8,ISIC_0010175.JPG,ISIC_0010175.JPG,false,0,keypress(z),500,949501.299999997,949500.799999997,945169.634,945178.700000003,945186.3,949503.221,8,400,11,,ISIC_0025841.JPG
break,html.Screen,4_110_1,2023-09-11T18:41:10.858Z,,0,,,NaN,,,,,,false,,,,949502.700000003,949502.299999997,,949501.599999994,,949503.221,8,400,,,
break_continue,html.Screen,4_110_2,2023-09-11T18:41:10.858Z,,0,,,NaN,,,,,,false,,,,949503.099999994,949503,,949502.799999997,,949503.221,8,400,,,
sequence,flow.Sequence,4_110,2023-09-11T18:41:10.858Z,,0,,,4316.699999999953,completion,,,,,false,,,,949503.299999997,949503,945169.634,945178.700000003,945186.3,949503.221,8,400,,,
trial,html.Screen,4_111_0,2023-09-11T18:41:15.375Z,,0,3,,4516.679000005941,response,ISIC_9476244.JPG,6,ISIC_0024545.JPG,ISIC_0024545.JPG,false,0,keypress(z),500,954020.400000006,954019.900000006,949486.555,949503.5,949503.221,954036.373,8,400,12,,ISIC_9476244.JPG
break,html.Screen,4_111_1,2023-09-11T18:41:15.377Z,,0,,,NaN,,,,,,false,,,,954021.700000003,954021.5,,954020.599999994,,954036.373,8,400,,,
break_continue,html.Screen,4_111_2,2023-09-11T18:41:15.377Z,,0,,,NaN,,,,,,false,,,,954022.200000003,954022.099999994,,954021.900000006,,954036.373,8,400,,,
sequence,flow.Sequence,4_111,2023-09-11T18:41:15.377Z,,0,,,4518.87899999402,completion,,,,,false,,,,954022.5,954022.099999994,949486.555,949503.5,949503.221,954036.373,8,400,,,
trial,html.Screen,4_112_0,2023-09-11T18:41:19.732Z,,0,3,,4340.226999994018,response,ISIC_0277705.JPG,9,ISIC_0013688.JPG,ISIC_0277705.JPG,false,1,keypress(m),500,958377.099999994,958376.599999994,954019.707,954022.599999994,954036.373,958386.199,8,400,13,,ISIC_0013688.JPG
break,html.Screen,4_112_1,2023-09-11T18:41:19.734Z,,0,,,NaN,,,,,,false,,,,958378.400000006,958378.099999994,,958377.400000006,,958386.199,8,400,,,
break_continue,html.Screen,4_112_2,2023-09-11T18:41:19.734Z,,0,,,NaN,,,,,,false,,,,958379,958378.900000006,,958378.599999994,,958386.199,8,400,,,
sequence,flow.Sequence,4_112,2023-09-11T18:41:19.734Z,,0,,,4342.527000005939,completion,,,,,false,,,,958379.099999994,958378.900000006,954019.707,954022.5,954036.373,958386.199,8,400,,,
trial,html.Screen,4_113_0,2023-09-11T18:41:24.099Z,,0,3,,4357.701000005938,response,ISIC_3687259.JPG,9,ISIC_7161002.JPG,ISIC_3687259.JPG,false,1,keypress(m),500,962744.299999997,962743.900000006,958369.533,958379.299999997,958386.199,962753.035,8,400,14,,ISIC_7161002.JPG
break,html.Screen,4_113_1,2023-09-11T18:41:24.101Z,,0,,,NaN,,,,,,false,,,,962745.700000003,962745.299999997,,962744.599999994,,962753.035,8,400,,,
break_continue,html.Screen,4_113_2,2023-09-11T18:41:24.101Z,,0,,,NaN,,,,,,false,,,,962746.200000003,962746,,962745.799999997,,962753.035,8,400,,,
sequence,flow.Sequence,4_113,2023-09-11T18:41:24.101Z,,0,,,4359.800999999978,completion,,,,,false,,,,962746.299999997,962746,958369.533,958379.299999997,958386.199,962753.035,8,400,,,
trial,html.Screen,4_114_0,2023-09-11T18:41:28.921Z,,0,3,,4812.064999994007,response,ISIC_0070747.JPG,9,ISIC_2256461.JPG,ISIC_2256461.JPG,false,0,keypress(z),500,967565.5,967565.099999994,962736.369,962746.5,962753.035,967569.509,8,400,15,,ISIC_0070747.JPG
break,html.Screen,4_114_1,2023-09-11T18:41:28.922Z,,0,,,NaN,,,,,,false,,,,967566.799999997,967566.400000006,,967565.599999994,,967569.509,8,400,,,
break_continue,html.Screen,4_114_2,2023-09-11T18:41:28.922Z,,0,,,NaN,,,,,,false,,,,967567.099999994,967567,,967566.900000006,,967569.509,8,400,,,
sequence,flow.Sequence,4_114,2023-09-11T18:41:28.922Z,,0,,,4813.964999999967,completion,,,,,false,,,,967567.200000003,967567,962736.369,962746.400000006,962753.035,967569.509,8,400,,,
trial,html.Screen,4_115_0,2023-09-11T18:41:33.762Z,,0,3,,4836.891000005999,response,ISIC_4264600.JPG,7,ISIC_3513288.JPG,ISIC_3513288.JPG,false,0,keypress(z),500,972406.900000006,972406.400000006,967552.843,967567.299999997,967569.509,972419.805,8,400,16,,ISIC_4264600.JPG
break,html.Screen,4_115_1,2023-09-11T18:41:33.763Z,,0,,,NaN,,,,,,false,,,,972408.299999997,972408,,972407.200000003,,972419.805,8,400,,,
break_continue,html.Screen,4_115_2,2023-09-11T18:41:33.764Z,,0,,,NaN,,,,,,false,,,,972408.799999997,972408.700000003,,972408.5,,972419.805,8,400,,,
sequence,flow.Sequence,4_115,2023-09-11T18:41:33.764Z,,0,,,4839.191000003018,completion,,,,,false,,,,972409,972408.700000003,967552.843,967567.299999997,967569.509,972419.805,8,400,,,
trial,html.Screen,4_116_0,2023-09-11T18:41:38.570Z,,0,3,,4794.9949999969685,response,ISIC_0027445.JPG,8,ISIC_6771810.JPG,ISIC_6771810.JPG,false,0,keypress(z),500,977215,977214.799999997,972403.139,972409.099999994,972419.805,977219.613,8,400,17,,ISIC_0027445.JPG
break,html.Screen,4_116_1,2023-09-11T18:41:38.571Z,,0,,,NaN,,,,,,false,,,,977216.099999994,977215.799999997,,977215.200000003,,977219.613,8,400,,,
break_continue,html.Screen,4_116_2,2023-09-11T18:41:38.572Z,,0,,,NaN,,,,,,false,,,,977216.5,977216.299999997,,977216.200000003,,977219.613,8,400,,,
sequence,flow.Sequence,4_116,2023-09-11T18:41:38.572Z,,0,,,4796.4949999969685,completion,,,,,false,,,,977216.599999994,977216.299999997,972403.139,972409.099999994,972419.805,977219.613,8,400,,,
trial,html.Screen,4_117_0,2023-09-11T18:41:42.718Z,,0,3,,4142.486999994027,response,ISIC_0025391.JPG,7,ISIC_1558504.JPG,ISIC_0025391.JPG,false,1,keypress(m),500,981362.599999994,981362.099999994,977202.947,977216.700000003,977219.613,981369.447,8,400,18,,ISIC_1558504.JPG
break,html.Screen,4_117_1,2023-09-11T18:41:42.719Z,,0,,,NaN,,,,,,false,,,,981363.900000006,981363.599999994,,981362.900000006,,981369.447,8,400,,,
break_continue,html.Screen,4_117_2,2023-09-11T18:41:42.720Z,,0,,,NaN,,,,,,false,,,,981364.5,981364.299999997,,981364.099999994,,981369.447,8,400,,,
sequence,flow.Sequence,4_117,2023-09-11T18:41:42.720Z,,0,,,4144.686999997008,completion,,,,,false,,,,981364.700000003,981364.299999997,977202.947,977216.700000003,977219.613,981369.447,8,400,,,
trial,html.Screen,4_118_0,2023-09-11T18:41:47.762Z,,0,3,,5037.552999999956,response,ISIC_5190920.JPG,7,ISIC_0032029.JPG,ISIC_0032029.JPG,false,0,keypress(z),500,986407.299999997,986407,981352.781,981364.799999997,981369.447,986419.593,8,400,19,,ISIC_5190920.JPG
break,html.Screen,4_118_1,2023-09-11T18:41:47.763Z,,0,,,NaN,,,,,,false,,,,986408.099999994,986408,,986407.400000006,,986419.593,8,400,,,
break_continue,html.Screen,4_118_2,2023-09-11T18:41:47.764Z,,0,,,NaN,,,,,,false,,,,986408.5,986408.299999997,,986408.200000003,,986419.593,8,400,,,
sequence,flow.Sequence,4_118,2023-09-11T18:41:47.764Z,,0,,,5038.852999996976,completion,,,,,false,,,,986408.5,986408.299999997,981352.781,981364.799999997,981369.447,986419.593,8,400,,,
trial,html.Screen,4_119_0,2023-09-11T18:41:52.506Z,,0,3,,4730.607000002987,response,ISIC_0000860.JPG,8,ISIC_0197873.JPG,ISIC_0000860.JPG,false,1,keypress(m),500,991150.599999994,991150.200000003,986402.927,986408.5,986419.593,991152.737,8,400,20,,ISIC_0197873.JPG
break,html.Screen,4_119_1,2023-09-11T18:41:52.507Z,,0,,,NaN,,,,,,false,,,,991152,991151.599999994,,991150.799999997,,991152.737,8,400,,,
break_continue,html.Screen,4_119_2,2023-09-11T18:41:52.508Z,,0,,,NaN,,,,,,false,,,,991152.5,991152.299999997,,991152.099999994,,991152.737,8,400,,,
sequence,flow.Sequence,4_119,2023-09-11T18:41:52.508Z,,0,,,4732.706999997026,completion,,,,,false,,,,991152.599999994,991152.299999997,986402.927,986408.5,986419.593,991152.737,8,400,,,
trial,html.Screen,4_120_0,2023-09-11T18:41:57.337Z,,0,3,,4828.963000003016,response,ISIC_1809444.JPG,8,ISIC_0026652.JPG,ISIC_0026652.JPG,false,0,keypress(z),500,995982.099999994,995981.700000003,991136.071,991152.799999997,991152.737,995986.269,8,400,21,,ISIC_1809444.JPG
break,html.Screen,4_120_1,2023-09-11T18:41:57.338Z,,0,,,NaN,,,,,,false,,,,995983.099999994,995982.900000006,,995982.299999997,,995986.269,8,400,,,
break_continue,html.Screen,4_120_2,2023-09-11T18:41:57.339Z,,0,,,NaN,,,,,,false,,,,995983.5,995983.400000006,,995983.200000003,,995986.269,8,400,,,
sequence,flow.Sequence,4_120,2023-09-11T18:41:57.339Z,,0,,,4830.663000005996,completion,,,,,false,,,,995983.5,995983.400000006,991136.071,991152.700000003,991152.737,995986.269,8,400,,,
trial,html.Screen,4_121_0,2023-09-11T18:42:02.429Z,,0,3,,5086.631000005989,response,ISIC_0061359.JPG,8,ISIC_6892286.JPG,ISIC_0061359.JPG,false,1,keypress(m),500,1001073.400000006,1001072.900000006,995969.603,995983.599999994,995986.269,1001102.731,8,400,22,,ISIC_6892286.JPG
break,html.Screen,4_121_1,2023-09-11T18:42:02.430Z,,0,,,NaN,,,,,,false,,,,1001074.900000006,1001074.5,,1001073.700000003,,1001102.731,8,400,,,
break_continue,html.Screen,4_121_2,2023-09-11T18:42:02.431Z,,0,,,NaN,,,,,,false,,,,1001075.299999997,1001075.200000003,,1001074.900000006,,1001102.731,8,400,,,
sequence,flow.Sequence,4_121,2023-09-11T18:42:02.431Z,,0,,,5088.931000003009,completion,,,,,false,,,,1001075.5,1001075.200000003,995969.603,995983.599999994,995986.269,1001102.731,8,400,,,
trial,html.Screen,4_122_0,2023-09-11T18:42:07.019Z,,0,3,,4560.868999994011,response,ISIC_6108795.JPG,8,ISIC_0062517.JPG,ISIC_0062517.JPG,false,0,keypress(z),500,1005664,1005663.599999994,1001086.065,1001075.599999994,1001102.731,1005669.686,8,400,23,,ISIC_6108795.JPG
break,html.Screen,4_122_1,2023-09-11T18:42:07.021Z,,0,,,NaN,,,,,,false,,,,1005665.299999997,1005665,,1005664.299999997,,1005669.686,8,400,,,
break_continue,html.Screen,4_122_2,2023-09-11T18:42:07.021Z,,0,,,NaN,,,,,,false,,,,1005665.900000006,1005665.700000003,,1005665.5,,1005669.686,8,400,,,
sequence,flow.Sequence,4_122,2023-09-11T18:42:07.021Z,,0,,,4562.969000002951,completion,,,,,false,,,,1005666,1005665.700000003,1001086.065,1001075.599999994,1001102.731,1005669.686,8,400,,,
trial,html.Screen,4_123_0,2023-09-11T18:42:12.130Z,,0,3,,5104.7140000059735,response,ISIC_0054284.JPG,8,ISIC_8562820.JPG,ISIC_8562820.JPG,false,0,keypress(z),500,1010774.900000006,1010774.400000006,1005653.02,1005666.200000003,1005669.686,1010786.148,8,400,24,,ISIC_0054284.JPG
break,html.Screen,4_123_1,2023-09-11T18:42:12.132Z,,0,,,NaN,,,,,,false,,,,1010776.5,1010776,,1010775.299999997,,1010786.148,8,400,,,
break_continue,html.Screen,4_123_2,2023-09-11T18:42:12.132Z,,0,,,NaN,,,,,,false,,,,1010776.900000006,1010776.700000003,,1010776.599999994,,1010786.148,8,400,,,
sequence,flow.Sequence,4_123,2023-09-11T18:42:12.132Z,,0,,,5107.014000002993,completion,,,,,false,,,,1010777.099999994,1010776.700000003,1005653.02,1005666.099999994,1005669.686,1010786.148,8,400,,,
trial,html.Screen,4_124_0,2023-09-11T18:42:17.387Z,,0,3,,5244.951999993995,response,ISIC_7293518.JPG,7,ISIC_2126575.JPG,ISIC_2126575.JPG,false,0,keypress(z),500,1016031.5,1016031.099999994,1010769.482,1010777.299999997,1010786.148,1016036.201,8,400,25,,ISIC_7293518.JPG
break,html.Screen,4_124_1,2023-09-11T18:42:17.388Z,,0,,,NaN,,,,,,false,,,,1016033,1016032.700000003,,1016031.799999997,,1016036.201,8,400,,,
break_continue,html.Screen,4_124_2,2023-09-11T18:42:17.389Z,,0,,,NaN,,,,,,false,,,,1016033.5,1016033.400000006,,1016033.099999994,,1016036.201,8,400,,,
sequence,flow.Sequence,4_124,2023-09-11T18:42:17.389Z,,0,,,5247.252000005916,completion,,,,,false,,,,1016033.599999994,1016033.400000006,1010769.482,1010777.299999997,1010786.148,1016036.201,8,400,,,
trial,html.Screen,4_125_0,2023-09-11T18:42:22.240Z,,0,3,,4847.6990000059595,response,ISIC_0005028.JPG,8,ISIC_0011531.JPG,ISIC_0011531.JPG,false,0,keypress(z),500,1020884.299999997,1020883.900000006,1016019.535,1016033.799999997,1016036.201,1020886.007,8,400,26,,ISIC_0005028.JPG
break,html.Screen,4_125_1,2023-09-11T18:42:22.241Z,,0,,,NaN,,,,,,false,,,,1020885.700000003,1020885.400000006,,1020884.599999994,,1020886.007,8,400,,,
break_continue,html.Screen,4_125_2,2023-09-11T18:42:22.242Z,,0,,,NaN,,,,,,false,,,,1020886.200000003,1020886.099999994,,1020885.900000006,,1020886.007,8,400,,,
sequence,flow.Sequence,4_125,2023-09-11T18:42:22.242Z,,0,,,4849.898999994039,completion,,,,,false,,,,1020886.400000006,1020886.099999994,1016019.535,1016033.700000003,1016036.201,1020886.007,8,400,,,
trial,html.Screen,4_126_0,2023-09-11T18:42:27.059Z,,0,3,,4817.592999994056,response,ISIC_4623351.JPG,8,ISIC_9059250.JPG,ISIC_9059250.JPG,false,0,keypress(z),500,1025704,1025703.599999994,1020869.341,1020886.5,1020886.007,1025719.147,8,400,27,,ISIC_4623351.JPG
break,html.Screen,4_126_1,2023-09-11T18:42:27.061Z,,0,,,NaN,,,,,,false,,,,1025705.5,1025705.200000003,,1025704.400000006,,1025719.147,8,400,,,
break_continue,html.Screen,4_126_2,2023-09-11T18:42:27.061Z,,0,,,NaN,,,,,,false,,,,1025706,1025705.799999997,,1025705.599999994,,1025719.147,8,400,,,
sequence,flow.Sequence,4_126,2023-09-11T18:42:27.062Z,,0,,,4819.7929999970365,completion,,,,,false,,,,1025706.200000003,1025705.799999997,1020869.341,1020886.5,1020886.007,1025719.147,8,400,,,
trial,html.Screen,4_127_0,2023-09-11T18:42:31.416Z,,0,3,,4341.253000005963,response,ISIC_0069167.JPG,8,ISIC_0001118.JPG,ISIC_0069167.JPG,false,1,keypress(m),500,1030061,1030060.400000006,1025702.481,1025706.299999997,1025719.147,1030069.461,8,400,28,,ISIC_0001118.JPG
break,html.Screen,4_127_1,2023-09-11T18:42:31.418Z,,0,,,NaN,,,,,,false,,,,1030062.299999997,1030062,,1030061.200000003,,1030069.461,8,400,,,
