sender,sender_type,sender_id,timestamp,meta,,blockNo,condition,duration,ended_on,img_left,img_reveal,img_right,loser,practice,response,response_action,selection_duration,time_commit,time_end,time_render,time_run,time_show,time_switch,total_blocks,total_trials,trialNo,url,winner
informed_consent,html.Screen,0,2023-09-12T21:46:42.072Z,"{""labjs_version"":""20.2.4"",""labjs_build"":{""flavor"":""production"",""commit"":""f5b4a49f956347addd546a832a3327688c2c0fef""},""location"":""https://run.pavlovia.org/MurrayBennett/melanoma-2afc/?participant=67339&platform=sona"",""userAgent"":""Mozilla/5.0 (Macintosh; Intel Mac OS X 10_15_7) AppleWebKit/537.36 (KHTML, like Gecko) Chrome/116.0.0.0 Safari/537.36"",""platform"":""MacIntel"",""language"":""en-US"",""locale"":""en-US"",""timeZone"":""America/Chicago"",""timezoneOffset"":300,""screen_width"":1440,""screen_height"":900,""scroll_width"":1440,""scroll_height"":767,""window_innerWidth"":1440,""window_innerHeight"":815,""devicePixelRatio"":2}",,,,11838.637999999628,response,,,,,,consent,click button,,18273.5,18269.599999999627,5980.98,6442,6430.962,18281.18,,,,"{""participant"":""67339"",""platform"":""sona""}",
Welcome,html.Screen,1,2023-09-12T21:47:12.720Z,,,,uniform,30639.220000000372,response,,,,,,continue,click button,,48922.799999999814,48920.40000000037,18264.514,18273.799999999814,18281.18,48932.19,,,,,
trial,html.Screen,2_0_0,2023-09-12T21:47:20.822Z,,0,0,,8092.409999999625,response,ISIC_0063388.JPG,,ISIC_0025593.JPG,ISIC_0063388.JPG,true,1,keypress(m),500,57025.299999999814,57024.59999999963,48915.524,48923.299999999814,48932.19,57032.757,1,6,1,,ISIC_0025593.JPG
sequence,flow.Sequence,2_0,2023-09-12T21:47:20.823Z,,0,,,8092.409999999625,completion,,,,,true,,,,57025.799999999814,57024.59999999963,48915.524,48923.200000000186,48932.19,57032.757,1,6,,,
trial,html.Screen,2_1_0,2023-09-12T21:47:26.795Z,,0,0,,5964.643000000375,response,ISIC_0028178.JPG,,ISIC_1309015.JPG,ISIC_0028178.JPG,true,1,keypress(m),500,62998,62997.40000000037,57016.091,57026.09999999963,57032.757,62999.185,1,6,2,,ISIC_1309015.JPG
sequence,flow.Sequence,2_1,2023-09-12T21:47:26.795Z,,0,,,5964.643000000375,completion,,,,,true,,,,62998.40000000037,62997.40000000037,57016.091,57026,57032.757,62999.185,1,6,,,
trial,html.Screen,2_2_0,2023-09-12T21:47:31.280Z,,0,0,,4483.315000000002,response,ISIC_0031128.JPG,,ISIC_3314853.JPG,ISIC_0031128.JPG,true,1,keypress(m),500,67483.20000000019,67482.5,62982.519,62998.700000000186,62999.185,67499.698,1,6,3,,ISIC_3314853.JPG
sequence,flow.Sequence,2_2,2023-09-12T21:47:31.280Z,,0,,,4483.315000000002,completion,,,,,true,,,,67483.59999999963,67482.5,62982.519,62998.59999999963,62999.185,67499.698,1,6,,,
trial,html.Screen,2_3_0,2023-09-12T21:47:36.098Z,,0,0,,4801.301999999996,response,ISIC_0031612.JPG,,ISIC_8980141.JPG,ISIC_0031612.JPG,true,1,keypress(m),500,72301.59999999963,72301,67483.032,67483.90000000037,67499.698,72316.172,1,6,4,,ISIC_8980141.JPG
sequence,flow.Sequence,2_3,2023-09-12T21:47:36.098Z,,0,,,4801.301999999996,completion,,,,,true,,,,72302.20000000019,72301,67483.032,67483.70000000019,67499.698,72316.172,1,6,,,
trial,html.Screen,2_4_0,2023-09-12T21:47:40.934Z,,0,0,,4820.9279999996215,response,ISIC_9721604.JPG,,ISIC_1197737.JPG,ISIC_1197737.JPG,true,0,keypress(z),500,77137.70000000019,77137.09999999963,72299.506,72302.5,72316.172,77149.312,1,6,5,,ISIC_9721604.JPG
sequence,flow.Sequence,2_4,2023-09-12T21:47:40.934Z,,0,,,4820.9279999996215,completion,,,,,true,,,,77138.20000000019,77137.09999999963,72299.506,72302.40000000037,72316.172,77149.312,1,6,,,
trial,html.Screen,2_5_0,2023-09-12T21:47:44.816Z,,0,0,,3869.9879999998084,response,ISIC_0025346.JPG,,ISIC_0010681.JPG,ISIC_0025346.JPG,true,1,keypress(m),500,81019.79999999981,81019.29999999981,77132.646,77138.40000000037,77149.312,81033.172,1,6,6,,ISIC_0010681.JPG
sequence,flow.Sequence,2_5,2023-09-12T21:47:44.816Z,,0,,,3869.9879999998084,completion,,,,,true,,,,81020.29999999981,81019.29999999981,77132.646,77138.29999999981,77149.312,81033.172,1,6,,,
loop,flow.Loop,2,2023-09-12T21:47:44.817Z,,,,,32087.10999999981,completion,,,,,true,,,,81020.70000000019,81019.29999999981,48915.524,48923.200000000186,48932.19,81033.172,1,6,,,
exp_instructions,html.Screen,3,2023-09-12T21:47:55.551Z,,,,,10717.327999999994,response,,,,,,continue,keypress(Space),,91755.59999999963,91750.5,81016.506,81020.79999999981,81033.172,91766.076,,,,,
trial,html.Screen,4_0_0,2023-09-12T21:48:03.734Z,,0,1,,8171.824000000372,response,ISIC_9223156.JPG,8,ISIC_0031101.JPG,ISIC_0031101.JPG,false,0,keypress(z),500,99938.40000000037,99937.90000000037,91749.41,91756,91766.076,99949.379,8,400,1,,ISIC_9223156.JPG
break,html.Screen,4_0_1,2023-09-12T21:48:03.735Z,,0,,,NaN,,,,,,false,,,,99939.70000000019,99939.40000000037,,99938.70000000019,,99949.379,8,400,,,
break_continue,html.Screen,4_0_2,2023-09-12T21:48:03.735Z,,0,,,NaN,,,,,,false,,,,99940.20000000019,99940,,99939.90000000037,,99949.379,8,400,,,
sequence,flow.Sequence,4_0,2023-09-12T21:48:03.736Z,,0,,,8173.923999999999,completion,,,,,false,,,,99940.40000000037,99940,91749.41,91755.90000000037,91766.076,99949.379,8,400,,,
trial,html.Screen,4_1_0,2023-09-12T21:48:07.423Z,,0,1,,3677.920999999813,response,ISIC_4043580.JPG,7,ISIC_0027359.JPG,ISIC_0027359.JPG,false,0,keypress(z),500,103627.79999999981,103627.29999999981,99932.713,99940.59999999963,99949.379,103634.062,8,400,2,,ISIC_4043580.JPG
break,html.Screen,4_1_1,2023-09-12T21:48:07.424Z,,0,,,NaN,,,,,,false,,,,103628.90000000037,103628.70000000019,,103628.20000000019,,103634.062,8,400,,,
break_continue,html.Screen,4_1_2,2023-09-12T21:48:07.424Z,,0,,,NaN,,,,,,false,,,,103629.29999999981,103629.20000000019,,103629,,103634.062,8,400,,,
sequence,flow.Sequence,4_1,2023-09-12T21:48:07.424Z,,0,,,3679.8210000001854,completion,,,,,false,,,,103629.5,103629.20000000019,99932.713,99940.5,99949.379,103634.062,8,400,,,
trial,html.Screen,4_2_0,2023-09-12T21:48:11.461Z,,0,1,,4031.2379999998084,response,ISIC_1327515.JPG,8,ISIC_2844539.JPG,ISIC_2844539.JPG,false,0,keypress(z),500,107665.79999999981,107665.29999999981,103617.396,103629.59999999963,103634.062,107667.234,8,400,3,,ISIC_1327515.JPG
break,html.Screen,4_2_1,2023-09-12T21:48:11.462Z,,0,,,NaN,,,,,,false,,,,107666.90000000037,107666.70000000019,,107666.09999999963,,107667.234,8,400,,,
break_continue,html.Screen,4_2_2,2023-09-12T21:48:11.462Z,,0,,,NaN,,,,,,false,,,,107667.20000000019,107667.20000000019,,107667,,107667.234,8,400,,,
sequence,flow.Sequence,4_2,2023-09-12T21:48:11.462Z,,0,,,4033.138000000181,completion,,,,,false,,,,107667.40000000037,107667.20000000019,103617.396,103629.59999999963,103634.062,107667.234,8,400,,,
trial,html.Screen,4_3_0,2023-09-12T21:48:16.714Z,,0,1,,5251.4660000001895,response,ISIC_0014233.JPG,8,ISIC_0000375.JPG,ISIC_0014233.JPG,false,1,keypress(m),500,112919.20000000019,112918.70000000019,107650.568,107667.5,107667.234,112933.69,8,400,4,,ISIC_0000375.JPG
break,html.Screen,4_3_1,2023-09-12T21:48:16.715Z,,0,,,NaN,,,,,,false,,,,112920.29999999981,112920,,112919.59999999963,,112933.69,8,400,,,
break_continue,html.Screen,4_3_2,2023-09-12T21:48:16.715Z,,0,,,NaN,,,,,,false,,,,112920.59999999963,112920.5,,112920.29999999981,,112933.69,8,400,,,
sequence,flow.Sequence,4_3,2023-09-12T21:48:16.715Z,,0,,,5253.266000000003,completion,,,,,false,,,,112920.79999999981,112920.5,107650.568,107667.5,107667.234,112933.69,8,400,,,
trial,html.Screen,4_4_0,2023-09-12T21:48:22.048Z,,0,1,,5319.71000000037,response,ISIC_0064784.JPG,5,ISIC_3993510.JPG,ISIC_0064784.JPG,false,1,keypress(m),500,118253.79999999981,118253.40000000037,112917.024,112920.90000000037,112933.69,118267.477,8,400,5,,ISIC_3993510.JPG
break,html.Screen,4_4_1,2023-09-12T21:48:22.049Z,,0,,,NaN,,,,,,false,,,,118254.79999999981,118254.59999999963,,118254.09999999963,,118267.477,8,400,,,
break_continue,html.Screen,4_4_2,2023-09-12T21:48:22.050Z,,0,,,NaN,,,,,,false,,,,118255.09999999963,118255,,118254.90000000037,,118267.477,8,400,,,
sequence,flow.Sequence,4_4,2023-09-12T21:48:22.050Z,,0,,,5321.309999999998,completion,,,,,false,,,,118255.40000000037,118255,112917.024,112920.79999999981,112933.69,118267.477,8,400,,,
trial,html.Screen,4_5_0,2023-09-12T21:48:27.134Z,,0,1,,5072.023000000001,response,ISIC_7043369.JPG,8,ISIC_4619903.JPG,ISIC_7043369.JPG,false,1,keypress(m),500,123339.90000000037,123339.5,118250.811,118255.5,118267.477,123350.607,8,400,6,,ISIC_4619903.JPG
break,html.Screen,4_5_1,2023-09-12T21:48:27.135Z,,0,,,NaN,,,,,,false,,,,123340.90000000037,123340.70000000019,,123340.20000000019,,123350.607,8,400,,,
break_continue,html.Screen,4_5_2,2023-09-12T21:48:27.136Z,,0,,,NaN,,,,,,false,,,,123341.29999999981,123341.20000000019,,123341,,123350.607,8,400,,,
sequence,flow.Sequence,4_5,2023-09-12T21:48:27.136Z,,0,,,5073.723000000187,completion,,,,,false,,,,123341.5,123341.20000000019,118250.811,118255.40000000037,118267.477,123350.607,8,400,,,
trial,html.Screen,4_6_0,2023-09-12T21:48:31.154Z,,0,1,,4009.0930000001827,response,ISIC_0071733.JPG,7,ISIC_0024545.JPG,ISIC_0024545.JPG,false,0,keypress(z),500,127360.20000000019,127359.70000000019,123333.941,123341.70000000019,123350.607,127367.89,8,400,7,,ISIC_0071733.JPG
break,html.Screen,4_6_1,2023-09-12T21:48:31.155Z,,0,,,NaN,,,,,,false,,,,127361.29999999981,127361.09999999963,,127360.5,,127367.89,8,400,,,
break_continue,html.Screen,4_6_2,2023-09-12T21:48:31.156Z,,0,,,NaN,,,,,,false,,,,127361.59999999963,127361.5,,127361.40000000037,,127367.89,8,400,,,
sequence,flow.Sequence,4_6,2023-09-12T21:48:31.156Z,,0,,,4010.8929999999964,completion,,,,,false,,,,127361.79999999981,127361.5,123333.941,123341.59999999963,123350.607,127367.89,8,400,,,
trial,html.Screen,4_7_0,2023-09-12T21:48:36.281Z,,0,1,,5118.709999999628,response,ISIC_1135213.JPG,7,ISIC_4607215.JPG,ISIC_4607215.JPG,false,0,keypress(z),500,132487,132486.59999999963,127351.224,127361.90000000037,127367.89,132501.018,8,400,8,,ISIC_1135213.JPG
break,html.Screen,4_7_1,2023-09-12T21:48:36.282Z,,0,,,NaN,,,,,,false,,,,132488,132487.90000000037,,132487.2999999998,,132501.018,8,400,,,
break_continue,html.Screen,4_7_2,2023-09-12T21:48:36.282Z,,0,,,NaN,,,,,,false,,,,132488.40000000037,132488.2999999998,,132488.09999999963,,132501.018,8,400,,,
sequence,flow.Sequence,4_7,2023-09-12T21:48:36.282Z,,0,,,5120.409999999814,completion,,,,,false,,,,132488.5,132488.2999999998,127351.224,127361.90000000037,127367.89,132501.018,8,400,,,
trial,html.Screen,4_8_0,2023-09-12T21:48:40.974Z,,0,1,,4678.882000000362,response,ISIC_0025595.JPG,7,ISIC_6489993.JPG,ISIC_0025595.JPG,false,1,keypress(m),500,137180.40000000037,137179.90000000037,132484.352,132488.7000000002,132501.018,137185.002,8,400,9,,ISIC_6489993.JPG
break,html.Screen,4_8_1,2023-09-12T21:48:40.975Z,,0,,,NaN,,,,,,false,,,,137181.40000000037,137181.2000000002,,137180.59999999963,,137185.002,8,400,,,
break_continue,html.Screen,4_8_2,2023-09-12T21:48:40.975Z,,0,,,NaN,,,,,,false,,,,137181.7000000002,137181.5,,137181.5,,137185.002,8,400,,,
sequence,flow.Sequence,4_8,2023-09-12T21:48:40.976Z,,0,,,4680.481999999989,completion,,,,,false,,,,137181.7999999998,137181.5,132484.352,132488.59999999963,132501.018,137185.002,8,400,,,
trial,html.Screen,4_9_0,2023-09-12T21:48:46.261Z,,0,1,,5281.398000000365,response,ISIC_0059768.JPG,8,ISIC_5071555.JPG,ISIC_0059768.JPG,false,1,keypress(m),500,142468.09999999963,142466.40000000037,137168.336,137182.09999999963,137185.002,142484.79,8,400,10,,ISIC_5071555.JPG
break,html.Screen,4_9_1,2023-09-12T21:48:46.262Z,,0,,,NaN,,,,,,false,,,,142468.90000000037,142468.7000000002,,142468.2999999998,,142484.79,8,400,,,
break_continue,html.Screen,4_9_2,2023-09-12T21:48:46.263Z,,0,,,NaN,,,,,,false,,,,142469.2999999998,142469.2000000002,,142469,,142484.79,8,400,,,
sequence,flow.Sequence,4_9,2023-09-12T21:48:46.263Z,,0,,,5284.198000000179,completion,,,,,false,,,,142469.5,142469.2000000002,137168.336,137182,137185.002,142484.79,8,400,,,
trial,html.Screen,4_10_0,2023-09-12T21:48:50.746Z,,0,1,,4467.910000000178,response,ISIC_8849818.JPG,8,ISIC_0028126.JPG,ISIC_0028126.JPG,false,0,keypress(z),500,146953.09999999963,146952.7000000002,142468.124,142469.7000000002,142484.79,146967.944,8,400,11,,ISIC_8849818.JPG
break,html.Screen,4_10_1,2023-09-12T21:48:50.747Z,,0,,,NaN,,,,,,false,,,,146954.09999999963,146954,,146953.40000000037,,146967.944,8,400,,,
break_continue,html.Screen,4_10_2,2023-09-12T21:48:50.748Z,,0,,,NaN,,,,,,false,,,,146954.5,146954.2999999998,,146954.2999999998,,146967.944,8,400,,,
sequence,flow.Sequence,4_10,2023-09-12T21:48:50.748Z,,0,,,4469.509999999806,completion,,,,,false,,,,146954.7000000002,146954.2999999998,142468.124,142469.59999999963,142484.79,146967.944,8,400,,,
trial,html.Screen,4_11_0,2023-09-12T21:48:55.013Z,,0,1,,4251.556000000011,response,ISIC_3744940.JPG,5,ISIC_2818530.JPG,ISIC_2818530.JPG,false,0,keypress(z),500,151220,151219.5,146951.278,146954.7000000002,146967.944,151235.141,8,400,12,,ISIC_3744940.JPG
break,html.Screen,4_11_1,2023-09-12T21:48:55.014Z,,0,,,NaN,,,,,,false,,,,151220.90000000037,151220.7999999998,,151220.2999999998,,151235.141,8,400,,,
break_continue,html.Screen,4_11_2,2023-09-12T21:48:55.014Z,,0,,,NaN,,,,,,false,,,,151221.40000000037,151221.2000000002,,151221.09999999963,,151235.141,8,400,,,
sequence,flow.Sequence,4_11,2023-09-12T21:48:55.015Z,,0,,,4253.256000000198,completion,,,,,false,,,,151221.5,151221.2000000002,146951.278,146954.7000000002,146967.944,151235.141,8,400,,,
trial,html.Screen,4_12_0,2023-09-12T21:48:58.844Z,,0,1,,3815.458999999624,response,ISIC_0054974.JPG,8,ISIC_7236365.JPG,ISIC_7236365.JPG,false,0,keypress(z),500,155051,155050.59999999963,151218.475,151221.7000000002,151235.141,155068.321,8,400,13,,ISIC_0054974.JPG
break,html.Screen,4_12_1,2023-09-12T21:48:58.845Z,,0,,,NaN,,,,,,false,,,,155052.09999999963,155051.90000000037,,155051.2999999998,,155068.321,8,400,,,
break_continue,html.Screen,4_12_2,2023-09-12T21:48:58.845Z,,0,,,NaN,,,,,,false,,,,155052.40000000037,155052.2999999998,,155052.2000000002,,155068.321,8,400,,,
sequence,flow.Sequence,4_12,2023-09-12T21:48:58.846Z,,0,,,3817.1589999998105,completion,,,,,false,,,,155052.59999999963,155052.2999999998,151218.475,151221.7000000002,151235.141,155068.321,8,400,,,
trial,html.Screen,4_13_0,2023-09-12T21:49:03.298Z,,0,1,,4436.87900000019,response,ISIC_0030900.JPG,4,ISIC_0054391.JPG,ISIC_0054391.JPG,false,0,keypress(z),500,159505.59999999963,159505.2000000002,155051.655,155052.7999999998,155068.321,159518.797,8,400,14,,ISIC_0030900.JPG
break,html.Screen,4_13_1,2023-09-12T21:49:03.299Z,,0,,,NaN,,,,,,false,,,,159506.59999999963,159506.40000000037,,159505.90000000037,,159518.797,8,400,,,
break_continue,html.Screen,4_13_2,2023-09-12T21:49:03.300Z,,0,,,NaN,,,,,,false,,,,159507,159506.90000000037,,159506.7000000002,,159518.797,8,400,,,
sequence,flow.Sequence,4_13,2023-09-12T21:49:03.300Z,,0,,,4438.579000000376,completion,,,,,false,,,,159507.2000000002,159506.90000000037,155051.655,155052.7000000002,155068.321,159518.797,8,400,,,
trial,html.Screen,4_14_0,2023-09-12T21:49:06.588Z,,0,1,,3276.103000000381,response,ISIC_0003111.JPG,7,ISIC_4699066.JPG,ISIC_4699066.JPG,false,0,keypress(z),500,162795.40000000037,162794.90000000037,159502.131,159507.2999999998,159518.797,162801.999,8,400,15,,ISIC_0003111.JPG
break,html.Screen,4_14_1,2023-09-12T21:49:06.589Z,,0,,,NaN,,,,,,false,,,,162796.40000000037,162796.2000000002,,162795.7000000002,,162801.999,8,400,,,
break_continue,html.Screen,4_14_2,2023-09-12T21:49:06.589Z,,0,,,NaN,,,,,,false,,,,162796.7000000002,162796.59999999963,,162796.5,,162801.999,8,400,,,
sequence,flow.Sequence,4_14,2023-09-12T21:49:06.590Z,,0,,,3277.802999999636,completion,,,,,false,,,,162796.90000000037,162796.59999999963,159502.131,159507.2999999998,159518.797,162801.999,8,400,,,
trial,html.Screen,4_15_0,2023-09-12T21:49:10.354Z,,0,1,,3759.401000000362,response,ISIC_0067476.JPG,8,ISIC_0031039.JPG,ISIC_0067476.JPG,false,1,keypress(m),500,166561.90000000037,166561.40000000037,162785.333,162797.09999999963,162801.999,166568.515,8,400,16,,ISIC_0031039.JPG
break,html.Screen,4_15_1,2023-09-12T21:49:10.355Z,,0,,,NaN,,,,,,false,,,,166562.7999999998,166562.59999999963,,166562.2000000002,,166568.515,8,400,,,
break_continue,html.Screen,4_15_2,2023-09-12T21:49:10.356Z,,0,,,NaN,,,,,,false,,,,166563.09999999963,166563.09999999963,,166562.90000000037,,166568.515,8,400,,,
sequence,flow.Sequence,4_15,2023-09-12T21:49:10.356Z,,0,,,3761.1009999996168,completion,,,,,false,,,,166563.40000000037,166563.09999999963,162785.333,162797,162801.999,166568.515,8,400,,,
trial,html.Screen,4_16_0,2023-09-12T21:49:14.377Z,,0,1,,4015.6850000001723,response,ISIC_5238649.JPG,6,ISIC_0059609.JPG,ISIC_0059609.JPG,false,0,keypress(z),500,170584.7000000002,170584.2000000002,166551.849,166563.59999999963,166568.515,170585.807,8,400,17,,ISIC_5238649.JPG
break,html.Screen,4_16_1,2023-09-12T21:49:14.378Z,,0,,,NaN,,,,,,false,,,,170585.7000000002,170585.40000000037,,170584.90000000037,,170585.807,8,400,,,
break_continue,html.Screen,4_16_2,2023-09-12T21:49:14.378Z,,0,,,NaN,,,,,,false,,,,170586,170585.90000000037,,170585.7999999998,,170585.807,8,400,,,
sequence,flow.Sequence,4_16,2023-09-12T21:49:14.379Z,,0,,,4017.3850000003586,completion,,,,,false,,,,170586.2000000002,170585.90000000037,166551.849,166563.40000000037,166568.515,170585.807,8,400,,,
trial,html.Screen,4_17_0,2023-09-12T21:49:18.335Z,,0,1,,3956.992999999813,response,ISIC_0000304.JPG,8,ISIC_2748873.JPG,ISIC_2748873.JPG,false,0,keypress(z),500,174543.2000000002,174542.7999999998,170569.141,170586.2999999998,170585.807,174552.315,8,400,18,,ISIC_0000304.JPG
break,html.Screen,4_17_1,2023-09-12T21:49:18.336Z,,0,,,NaN,,,,,,false,,,,174544.09999999963,174544,,174543.5,,174552.315,8,400,,,
break_continue,html.Screen,4_17_2,2023-09-12T21:49:18.337Z,,0,,,NaN,,,,,,false,,,,174544.5,174544.40000000037,,174544.2999999998,,174552.315,8,400,,,
sequence,flow.Sequence,4_17,2023-09-12T21:49:18.337Z,,0,,,3958.593000000372,completion,,,,,false,,,,174544.7999999998,174544.40000000037,170569.141,170586.2000000002,170585.807,174552.315,8,400,,,
trial,html.Screen,4_18_0,2023-09-12T21:49:22.093Z,,0,1,,3747.784999999625,response,ISIC_0057169.JPG,8,ISIC_0032569.JPG,ISIC_0032569.JPG,false,0,keypress(z),500,178300.59999999963,178300.09999999963,174535.649,174544.90000000037,174552.315,178302.165,8,400,19,,ISIC_0057169.JPG
break,html.Screen,4_18_1,2023-09-12T21:49:22.094Z,,0,,,NaN,,,,,,false,,,,178301.59999999963,178301.5,,178300.90000000037,,178302.165,8,400,,,
break_continue,html.Screen,4_18_2,2023-09-12T21:49:22.094Z,,0,,,NaN,,,,,,false,,,,178302,178301.90000000037,,178301.7000000002,,178302.165,8,400,,,
sequence,flow.Sequence,4_18,2023-09-12T21:49:22.094Z,,0,,,3749.58500000037,completion,,,,,false,,,,178302.2000000002,178301.90000000037,174535.649,174544.7999999998,174552.315,178302.165,8,400,,,
trial,html.Screen,4_19_0,2023-09-12T21:49:25.202Z,,0,1,,3107.1349999998056,response,ISIC_8922893.JPG,9,ISIC_0011700.JPG,ISIC_0011700.JPG,false,0,keypress(z),500,181409.7999999998,181409.2999999998,178285.499,178302.40000000037,178302.165,181419.474,8,400,20,,ISIC_8922893.JPG
break,html.Screen,4_19_1,2023-09-12T21:49:25.203Z,,0,,,NaN,,,,,,false,,,,181410.7999999998,181410.7000000002,,181410.09999999963,,181419.474,8,400,,,
break_continue,html.Screen,4_19_2,2023-09-12T21:49:25.203Z,,0,,,NaN,,,,,,false,,,,181411.2000000002,181411,,181410.90000000037,,181419.474,8,400,,,
sequence,flow.Sequence,4_19,2023-09-12T21:49:25.203Z,,0,,,3108.834999999992,completion,,,,,false,,,,181411.40000000037,181411,178285.499,178302.2999999998,178302.165,181419.474,8,400,,,
trial,html.Screen,4_20_0,2023-09-12T21:49:28.220Z,,0,1,,3008.226000000199,response,ISIC_9101441.JPG,8,ISIC_4973549.JPG,ISIC_9101441.JPG,false,1,keypress(m),500,184428,184427.7000000002,181402.808,181411.5,181419.474,184452.686,8,400,21,,ISIC_4973549.JPG
break,html.Screen,4_20_1,2023-09-12T21:49:28.221Z,,0,,,NaN,,,,,,false,,,,184429,184428.90000000037,,184428.40000000037,,184452.686,8,400,,,
break_continue,html.Screen,4_20_2,2023-09-12T21:49:28.221Z,,0,,,NaN,,,,,,false,,,,184429.40000000037,184429.2999999998,,184429.2000000002,,184452.686,8,400,,,
sequence,flow.Sequence,4_20,2023-09-12T21:49:28.221Z,,0,,,3009.8259999998263,completion,,,,,false,,,,184429.59999999963,184429.2999999998,181402.808,181411.5,181419.474,184452.686,8,400,,,
trial,html.Screen,4_21_0,2023-09-12T21:49:31.930Z,,0,1,,3685.613999999827,response,ISIC_0060321.JPG,9,ISIC_0009298.JPG,ISIC_0060321.JPG,false,1,keypress(m),500,188138.7000000002,188138.2999999998,184436.02,184429.7999999998,184452.686,188169.204,8,400,22,,ISIC_0009298.JPG
break,html.Screen,4_21_1,2023-09-12T21:49:31.931Z,,0,,,NaN,,,,,,false,,,,188139.7999999998,188139.5,,188139,,188169.204,8,400,,,
break_continue,html.Screen,4_21_2,2023-09-12T21:49:31.932Z,,0,,,NaN,,,,,,false,,,,188140,188140,,188139.7999999998,,188169.204,8,400,,,
sequence,flow.Sequence,4_21,2023-09-12T21:49:31.932Z,,0,,,3687.314000000013,completion,,,,,false,,,,188140.2000000002,188140,184436.02,184429.7999999998,184452.686,188169.204,8,400,,,
trial,html.Screen,4_22_0,2023-09-12T21:49:35.278Z,,0,1,,3317.1960000003746,response,ISIC_0053572.JPG,8,ISIC_0032858.JPG,ISIC_0032858.JPG,false,0,keypress(z),500,191486.7999999998,191486.40000000037,188152.538,188140.2999999998,188169.204,191503.109,8,400,23,,ISIC_0053572.JPG
break,html.Screen,4_22_1,2023-09-12T21:49:35.279Z,,0,,,NaN,,,,,,false,,,,191487.7000000002,191487.59999999963,,191487.09999999963,,191503.109,8,400,,,
break_continue,html.Screen,4_22_2,2023-09-12T21:49:35.280Z,,0,,,NaN,,,,,,false,,,,191488.09999999963,191488,,191487.90000000037,,191503.109,8,400,,,
sequence,flow.Sequence,4_22,2023-09-12T21:49:35.280Z,,0,,,3318.796000000002,completion,,,,,false,,,,191488.2999999998,191488,188152.538,188140.2999999998,188169.204,191503.109,8,400,,,
trial,html.Screen,4_23_0,2023-09-12T21:49:38.652Z,,0,1,,3357.0910000001895,response,ISIC_0013032.JPG,7,ISIC_2520840.JPG,ISIC_0013032.JPG,false,1,keypress(m),500,194860.7000000002,194860.2000000002,191486.443,191488.40000000037,191503.109,194869.641,8,400,24,,ISIC_2520840.JPG
break,html.Screen,4_23_1,2023-09-12T21:49:38.653Z,,0,,,NaN,,,,,,false,,,,194861.7000000002,194861.5,,194861,,194869.641,8,400,,,
break_continue,html.Screen,4_23_2,2023-09-12T21:49:38.653Z,,0,,,NaN,,,,,,false,,,,194862.09999999963,194861.90000000037,,194861.7999999998,,194869.641,8,400,,,
sequence,flow.Sequence,4_23,2023-09-12T21:49:38.654Z,,0,,,3358.791000000376,completion,,,,,false,,,,194862.2999999998,194861.90000000037,191486.443,191488.40000000037,191503.109,194869.641,8,400,,,
trial,html.Screen,4_24_0,2023-09-12T21:49:41.857Z,,0,1,,3195.7590000003693,response,ISIC_0028109.JPG,6,ISIC_0034192.JPG,ISIC_0034192.JPG,false,0,keypress(z),500,198065.90000000037,198065.40000000037,194852.975,194862.2999999998,194869.641,198086.179,8,400,25,,ISIC_0028109.JPG
break,html.Screen,4_24_1,2023-09-12T21:49:41.858Z,,0,,,NaN,,,,,,false,,,,198066.90000000037,198066.7000000002,,198066.2000000002,,198086.179,8,400,,,
break_continue,html.Screen,4_24_2,2023-09-12T21:49:41.858Z,,0,,,NaN,,,,,,false,,,,198067.2000000002,198067.09999999963,,198067,,198086.179,8,400,,,
sequence,flow.Sequence,4_24,2023-09-12T21:49:41.859Z,,0,,,3197.458999999624,completion,,,,,false,,,,198067.5,198067.09999999963,194852.975,194862.2999999998,194869.641,198086.179,8,400,,,
trial,html.Screen,4_25_0,2023-09-12T21:49:45.703Z,,0,1,,3825.721000000369,response,ISIC_0065283.JPG,8,ISIC_0055491.JPG,ISIC_0055491.JPG,false,0,keypress(z),500,201912.40000000037,201911.90000000037,198069.513,198067.59999999963,198086.179,201920.036,8,400,26,,ISIC_0065283.JPG
break,html.Screen,4_25_1,2023-09-12T21:49:45.704Z,,0,,,NaN,,,,,,false,,,,201913.40000000037,201913.2000000002,,201912.7000000002,,201920.036,8,400,,,
break_continue,html.Screen,4_25_2,2023-09-12T21:49:45.705Z,,0,,,NaN,,,,,,false,,,,201913.7000000002,201913.59999999963,,201913.5,,201920.036,8,400,,,
sequence,flow.Sequence,4_25,2023-09-12T21:49:45.705Z,,0,,,3827.4209999996237,completion,,,,,false,,,,201914,201913.59999999963,198069.513,198067.5,198086.179,201920.036,8,400,,,
trial,html.Screen,4_26_0,2023-09-12T21:49:48.867Z,,0,1,,3155.3640000003797,response,ISIC_6038490.JPG,9,ISIC_0067667.JPG,ISIC_0067667.JPG,false,0,keypress(z),500,205075.7999999998,205075.40000000037,201903.37,201914.09999999963,201920.036,205086.576,8,400,27,,ISIC_6038490.JPG
break,html.Screen,4_26_1,2023-09-12T21:49:48.868Z,,0,,,NaN,,,,,,false,,,,205076.7999999998,205076.59999999963,,205076.09999999963,,205086.576,8,400,,,
break_continue,html.Screen,4_26_2,2023-09-12T21:49:48.868Z,,0,,,NaN,,,,,,false,,,,205077.2000000002,205077.09999999963,,205076.90000000037,,205086.576,8,400,,,
sequence,flow.Sequence,4_26,2023-09-12T21:49:48.868Z,,0,,,3157.0639999996347,completion,,,,,false,,,,205077.40000000037,205077.09999999963,201903.37,201914.09999999963,201920.036,205086.576,8,400,,,
trial,html.Screen,4_27_0,2023-09-12T21:49:52.007Z,,0,1,,3129.423999999999,response,ISIC_0010046.JPG,8,ISIC_7530414.JPG,ISIC_7530414.JPG,false,0,keypress(z),500,208216.40000000037,208216,205069.91,205077.59999999963,205086.576,208219.784,8,400,28,,ISIC_0010046.JPG
break,html.Screen,4_27_1,2023-09-12T21:49:52.008Z,,0,,,NaN,,,,,,false,,,,208217.40000000037,208217.09999999963,,208216.59999999963,,208219.784,8,400,,,
break_continue,html.Screen,4_27_2,2023-09-12T21:49:52.009Z,,0,,,NaN,,,,,,false,,,,208217.7999999998,208217.59999999963,,208217.5,,208219.784,8,400,,,
sequence,flow.Sequence,4_27,2023-09-12T21:49:52.009Z,,0,,,3131.0239999996265,completion,,,,,false,,,,208217.90000000037,208217.59999999963,205069.91,205077.5,205086.576,208219.784,8,400,,,
trial,html.Screen,4_28_0,2023-09-12T21:49:55.951Z,,0,1,,3940.215999999986,response,ISIC_8174881.JPG,8,ISIC_2861793.JPG,ISIC_8174881.JPG,false,1,keypress(m),500,212160.5,212160,208203.118,208218.09999999963,208219.784,212170.449,8,400,29,,ISIC_2861793.JPG
break,html.Screen,4_28_1,2023-09-12T21:49:55.952Z,,0,,,NaN,,,,,,false,,,,212161.40000000037,212161.2999999998,,212160.7999999998,,212170.449,8,400,,,
break_continue,html.Screen,4_28_2,2023-09-12T21:49:55.953Z,,0,,,NaN,,,,,,false,,,,212161.90000000037,212161.7000000002,,212161.59999999963,,212170.449,8,400,,,
sequence,flow.Sequence,4_28,2023-09-12T21:49:55.953Z,,0,,,3941.916000000172,completion,,,,,false,,,,212162,212161.7000000002,208203.118,208218.09999999963,208219.784,212170.449,8,400,,,
trial,html.Screen,4_29_0,2023-09-12T21:49:59.222Z,,0,1,,3260.3509999998205,response,ISIC_0000539.JPG,8,ISIC_0029089.JPG,ISIC_0029089.JPG,false,0,keypress(z),500,215431.2999999998,215430.7999999998,212153.783,212162.2000000002,212170.449,215436.985,8,400,30,,ISIC_0000539.JPG
break,html.Screen,4_29_1,2023-09-12T21:49:59.223Z,,0,,,NaN,,,,,,false,,,,215432.2999999998,215432.09999999963,,215431.59999999963,,215436.985,8,400,,,
break_continue,html.Screen,4_29_2,2023-09-12T21:49:59.223Z,,0,,,NaN,,,,,,false,,,,215432.7000000002,215432.5,,215432.5,,215436.985,8,400,,,
sequence,flow.Sequence,4_29,2023-09-12T21:49:59.223Z,,0,,,3262.0510000000068,completion,,,,,false,,,,215432.90000000037,215432.5,212153.783,212162.09999999963,212170.449,215436.985,8,400,,,
trial,html.Screen,4_30_0,2023-09-12T21:50:01.996Z,,0,1,,2768.4150000003865,response,ISIC_2784965.JPG,6,ISIC_0011894.JPG,ISIC_0011894.JPG,false,0,keypress(z),500,218205.7999999998,218205.40000000037,215420.319,215433.09999999963,215436.985,218220.207,8,400,31,,ISIC_2784965.JPG
break,html.Screen,4_30_1,2023-09-12T21:50:01.997Z,,0,,,NaN,,,,,,false,,,,218206.7999999998,218206.59999999963,,218206.09999999963,,218220.207,8,400,,,
break_continue,html.Screen,4_30_2,2023-09-12T21:50:01.998Z,,0,,,NaN,,,,,,false,,,,218207.2000000002,218207,,218206.90000000037,,218220.207,8,400,,,
sequence,flow.Sequence,4_30,2023-09-12T21:50:01.998Z,,0,,,2770.015000000014,completion,,,,,false,,,,218207.40000000037,218207,215420.319,215433,215436.985,218220.207,8,400,,,
trial,html.Screen,4_31_0,2023-09-12T21:50:07.665Z,,0,1,,5653.892999999633,response,ISIC_0001138.JPG,5,ISIC_6905623.JPG,ISIC_0001138.JPG,false,1,keypress(m),500,223874.59999999963,223874.09999999963,218203.541,218207.5,218220.207,223887.199,8,400,32,,ISIC_6905623.JPG
break,html.Screen,4_31_1,2023-09-12T21:50:07.666Z,,0,,,NaN,,,,,,false,,,,223875.59999999963,223875.40000000037,,223874.90000000037,,223887.199,8,400,,,
break_continue,html.Screen,4_31_2,2023-09-12T21:50:07.666Z,,0,,,NaN,,,,,,false,,,,223876,223875.90000000037,,223875.7000000002,,223887.199,8,400,,,
sequence,flow.Sequence,4_31,2023-09-12T21:50:07.666Z,,0,,,5655.693000000378,completion,,,,,false,,,,223876.2000000002,223875.90000000037,218203.541,218207.5,218220.207,223887.199,8,400,,,
trial,html.Screen,4_32_0,2023-09-12T21:50:11.321Z,,0,1,,3643.501000000193,response,ISIC_4034644.JPG,7,ISIC_0065219.JPG,ISIC_0065219.JPG,false,0,keypress(z),500,227531.2000000002,227530.7000000002,223870.533,223876.2999999998,223887.199,227537.053,8,400,33,,ISIC_4034644.JPG
break,html.Screen,4_32_1,2023-09-12T21:50:11.322Z,,0,,,NaN,,,,,,false,,,,227532.2999999998,227532.09999999963,,227531.59999999963,,227537.053,8,400,,,
break_continue,html.Screen,4_32_2,2023-09-12T21:50:11.323Z,,0,,,NaN,,,,,,false,,,,227532.59999999963,227532.5,,227532.40000000037,,227537.053,8,400,,,
sequence,flow.Sequence,4_32,2023-09-12T21:50:11.323Z,,0,,,3645.3010000000068,completion,,,,,false,,,,227532.7999999998,227532.5,223870.533,223876.2999999998,223887.199,227537.053,8,400,,,
trial,html.Screen,4_33_0,2023-09-12T21:50:15.049Z,,0,1,,3721.546999999613,response,ISIC_0014559.JPG,6,ISIC_5287679.JPG,ISIC_0014559.JPG,false,1,keypress(m),500,231259.09999999963,231258.59999999963,227520.387,227533,227537.053,231270.237,8,400,34,,ISIC_5287679.JPG
break,html.Screen,4_33_1,2023-09-12T21:50:15.050Z,,0,,,NaN,,,,,,false,,,,231260.09999999963,231259.90000000037,,231259.5,,231270.237,8,400,,,
break_continue,html.Screen,4_33_2,2023-09-12T21:50:15.050Z,,0,,,NaN,,,,,,false,,,,231260.5,231260.40000000037,,231260.2000000002,,231270.237,8,400,,,
sequence,flow.Sequence,4_33,2023-09-12T21:50:15.051Z,,0,,,3723.347000000358,completion,,,,,false,,,,231260.7000000002,231260.40000000037,227520.387,227532.90000000037,227537.053,231270.237,8,400,,,
trial,html.Screen,4_34_0,2023-09-12T21:50:18.480Z,,0,1,,3419.2630000000063,response,ISIC_8691327.JPG,8,ISIC_0013626.JPG,ISIC_8691327.JPG,false,1,keypress(m),500,234690,234689.5,231253.571,231260.90000000037,231270.237,234704.29,8,400,35,,ISIC_0013626.JPG
break,html.Screen,4_34_1,2023-09-12T21:50:18.481Z,,0,,,NaN,,,,,,false,,,,234690.90000000037,234690.7000000002,,234690.2000000002,,234704.29,8,400,,,
break_continue,html.Screen,4_34_2,2023-09-12T21:50:18.481Z,,0,,,NaN,,,,,,false,,,,234691.2999999998,234691.2000000002,,234691,,234704.29,8,400,,,
sequence,flow.Sequence,4_34,2023-09-12T21:50:18.481Z,,0,,,3420.9630000001926,completion,,,,,false,,,,234691.40000000037,234691.2000000002,231253.571,231260.7999999998,231270.237,234704.29,8,400,,,
trial,html.Screen,4_35_0,2023-09-12T21:50:21.733Z,,0,1,,3238.3099999996193,response,ISIC_0025897.JPG,9,ISIC_9586758.JPG,ISIC_0025897.JPG,false,1,keypress(m),500,237943.09999999963,237942.59999999963,234687.624,234691.7000000002,234704.29,237954.16,8,400,36,,ISIC_9586758.JPG
break,html.Screen,4_35_1,2023-09-12T21:50:21.734Z,,0,,,NaN,,,,,,false,,,,237944.09999999963,237943.90000000037,,237943.40000000037,,237954.16,8,400,,,
break_continue,html.Screen,4_35_2,2023-09-12T21:50:21.734Z,,0,,,NaN,,,,,,false,,,,237944.40000000037,237944.2999999998,,237944.2999999998,,237954.16,8,400,,,
sequence,flow.Sequence,4_35,2023-09-12T21:50:21.734Z,,0,,,3240.0099999998056,completion,,,,,false,,,,237944.7000000002,237944.2999999998,234687.624,234691.59999999963,234704.29,237954.16,8,400,,,
trial,html.Screen,4_36_0,2023-09-12T21:50:25.500Z,,0,1,,3755.939999999624,response,ISIC_0033589.JPG,8,ISIC_0010034.JPG,ISIC_0033589.JPG,false,1,keypress(m),500,241710.59999999963,241710.09999999963,237937.494,237944.7999999998,237954.16,241720.676,8,400,37,,ISIC_0010034.JPG
break,html.Screen,4_36_1,2023-09-12T21:50:25.501Z,,0,,,NaN,,,,,,false,,,,241711.59999999963,241711.40000000037,,241710.90000000037,,241720.676,8,400,,,
break_continue,html.Screen,4_36_2,2023-09-12T21:50:25.501Z,,0,,,NaN,,,,,,false,,,,241712,241711.90000000037,,241711.7000000002,,241720.676,8,400,,,
sequence,flow.Sequence,4_36,2023-09-12T21:50:25.502Z,,0,,,3757.740000000369,completion,,,,,false,,,,241712.2000000002,241711.90000000037,237937.494,237944.7999999998,237954.16,241720.676,8,400,,,
trial,html.Screen,4_37_0,2023-09-12T21:50:28.505Z,,0,1,,2994.724000000366,response,ISIC_0064427.JPG,8,ISIC_0032133.JPG,ISIC_0064427.JPG,false,1,keypress(m),500,244715.7000000002,244715.40000000037,241704.01,241712.2999999998,241720.676,244721.27,8,400,38,,ISIC_0032133.JPG
break,html.Screen,4_37_1,2023-09-12T21:50:28.506Z,,0,,,NaN,,,,,,false,,,,244716.7000000002,244716.5,,244716,,244721.27,8,400,,,
break_continue,html.Screen,4_37_2,2023-09-12T21:50:28.507Z,,0,,,NaN,,,,,,false,,,,244717.09999999963,244717,,244716.90000000037,,244721.27,8,400,,,
sequence,flow.Sequence,4_37,2023-09-12T21:50:28.507Z,,0,,,2996.3239999999932,completion,,,,,false,,,,244717.2999999998,244717,241704.01,241712.2000000002,241720.676,244721.27,8,400,,,
trial,html.Screen,4_38_0,2023-09-12T21:50:31.469Z,,0,1,,2958.4300000001967,response,ISIC_0061441.JPG,5,ISIC_4887874.JPG,ISIC_0061441.JPG,false,1,keypress(m),500,247680,247679.7000000002,244704.604,244717.5,244721.27,247687.818,8,400,39,,ISIC_4887874.JPG
break,html.Screen,4_38_1,2023-09-12T21:50:31.470Z,,0,,,NaN,,,,,,false,,,,247681.09999999963,247680.90000000037,,247680.40000000037,,247687.818,8,400,,,
break_continue,html.Screen,4_38_2,2023-09-12T21:50:31.471Z,,0,,,NaN,,,,,,false,,,,247681.40000000037,247681.2999999998,,247681.2999999998,,247687.818,8,400,,,
sequence,flow.Sequence,4_38,2023-09-12T21:50:31.471Z,,0,,,2960.029999999824,completion,,,,,false,,,,247681.59999999963,247681.2999999998,244704.604,244717.40000000037,244721.27,247687.818,8,400,,,
trial,html.Screen,4_39_0,2023-09-12T21:50:34.292Z,,0,1,,2814.4819999998144,response,ISIC_0054377.JPG,7,ISIC_9751013.JPG,ISIC_0054377.JPG,false,1,keypress(m),500,250502.7000000002,250502.2999999998,247671.152,247681.7999999998,247687.818,250504.372,8,400,40,,ISIC_9751013.JPG
break,html.Screen,4_39_1,2023-09-12T21:50:34.293Z,,0,,,NaN,,,,,,false,,,,250503.59999999963,250503.40000000037,,250503,,250504.372,8,400,,,
break_continue,html.Screen,4_39_2,2023-09-12T21:50:34.293Z,,0,,,NaN,,,,,,false,,,,250504,250503.90000000037,,250503.7999999998,,250504.372,8,400,,,
sequence,flow.Sequence,4_39,2023-09-12T21:50:34.293Z,,0,,,2816.0820000003732,completion,,,,,false,,,,250504.2000000002,250503.90000000037,247671.152,247681.7999999998,247687.818,250504.372,8,400,,,
trial,html.Screen,4_40_0,2023-09-12T21:50:37.697Z,,0,1,,3403.627999999997,response,ISIC_0028616.JPG,6,ISIC_0032232.JPG,ISIC_0028616.JPG,false,1,keypress(m),500,253908.5,253908,250487.706,250504.40000000037,250504.372,253921.536,8,400,41,,ISIC_0032232.JPG
break,html.Screen,4_40_1,2023-09-12T21:50:37.699Z,,0,,,NaN,,,,,,false,,,,253909.5,253909.2999999998,,253908.7999999998,,253921.536,8,400,,,
break_continue,html.Screen,4_40_2,2023-09-12T21:50:37.699Z,,0,,,NaN,,,,,,false,,,,253909.7999999998,253909.7999999998,,253909.59999999963,,253921.536,8,400,,,
sequence,flow.Sequence,4_40,2023-09-12T21:50:37.699Z,,0,,,3405.4279999998107,completion,,,,,false,,,,253910,253909.7999999998,250487.706,250504.2999999998,250504.372,253921.536,8,400,,,
trial,html.Screen,4_41_0,2023-09-12T21:50:42.665Z,,0,1,,4953.763999999821,response,ISIC_0033194.JPG,9,ISIC_0033570.JPG,ISIC_0033194.JPG,false,1,keypress(m),500,258875.7000000002,258875.2999999998,253904.87,253910.2000000002,253921.536,258888.004,8,400,42,,ISIC_0033570.JPG
break,html.Screen,4_41_1,2023-09-12T21:50:42.666Z,,0,,,NaN,,,,,,false,,,,258876.7000000002,258876.5,,258876,,258888.004,8,400,,,
break_continue,html.Screen,4_41_2,2023-09-12T21:50:42.666Z,,0,,,NaN,,,,,,false,,,,258877.09999999963,258877,,258876.7999999998,,258888.004,8,400,,,
sequence,flow.Sequence,4_41,2023-09-12T21:50:42.666Z,,0,,,4955.464000000007,completion,,,,,false,,,,258877.2999999998,258877,253904.87,253910.2000000002,253921.536,258888.004,8,400,,,
trial,html.Screen,4_42_0,2023-09-12T21:50:45.600Z,,0,1,,2922.8960000003863,response,ISIC_0065394.JPG,7,ISIC_0002041.JPG,ISIC_0065394.JPG,false,1,keypress(m),500,261811.40000000037,261810.90000000037,258871.338,258877.40000000037,258888.004,261821.22,8,400,43,,ISIC_0002041.JPG
break,html.Screen,4_42_1,2023-09-12T21:50:45.601Z,,0,,,NaN,,,,,,false,,,,261812.40000000037,261812.2000000002,,261811.59999999963,,261821.22,8,400,,,
break_continue,html.Screen,4_42_2,2023-09-12T21:50:45.601Z,,0,,,NaN,,,,,,false,,,,261812.7000000002,261812.59999999963,,261812.5,,261821.22,8,400,,,
sequence,flow.Sequence,4_42,2023-09-12T21:50:45.602Z,,0,,,2924.595999999641,completion,,,,,false,,,,261812.90000000037,261812.59999999963,258871.338,258877.2999999998,258888.004,261821.22,8,400,,,
trial,html.Screen,4_43_0,2023-09-12T21:50:49.127Z,,0,1,,3517.1800000003714,response,ISIC_0057978.JPG,7,ISIC_0034044.JPG,ISIC_0057978.JPG,false,1,keypress(m),500,265338.9000000004,265338.4000000004,261804.554,261813,261821.22,265355.185,8,400,44,,ISIC_0034044.JPG
break,html.Screen,4_43_1,2023-09-12T21:50:49.128Z,,0,,,NaN,,,,,,false,,,,265339.7999999998,265339.5999999996,,265339.2000000002,,265355.185,8,400,,,
break_continue,html.Screen,4_43_2,2023-09-12T21:50:49.129Z,,0,,,NaN,,,,,,false,,,,265340.2000000002,265340.0999999996,,265340,,265355.185,8,400,,,
sequence,flow.Sequence,4_43,2023-09-12T21:50:49.129Z,,0,,,3518.8799999996263,completion,,,,,false,,,,265340.4000000004,265340.0999999996,261804.554,261813,261821.22,265355.185,8,400,,,
trial,html.Screen,4_44_0,2023-09-12T21:50:52.533Z,,0,1,,3388.715000000375,response,ISIC_7947847.JPG,8,ISIC_0010934.JPG,ISIC_0010934.JPG,false,0,keypress(z),500,268744.2999999998,268743.9000000004,265338.519,265340.5999999996,265355.185,268771.715,8,400,45,,ISIC_7947847.JPG
break,html.Screen,4_44_1,2023-09-12T21:50:52.534Z,,0,,,NaN,,,,,,false,,,,268745.4000000004,268745.2000000002,,268744.7000000002,,268771.715,8,400,,,
break_continue,html.Screen,4_44_2,2023-09-12T21:50:52.534Z,,0,,,NaN,,,,,,false,,,,268745.7999999998,268745.7000000002,,268745.5,,268771.715,8,400,,,
sequence,flow.Sequence,4_44,2023-09-12T21:50:52.534Z,,0,,,3390.5150000001886,completion,,,,,false,,,,268745.9000000004,268745.7000000002,265338.519,265340.5,265355.185,268771.715,8,400,,,
trial,html.Screen,4_45_0,2023-09-12T21:50:56.912Z,,0,1,,4351.685000000347,response,ISIC_4731791.JPG,6,ISIC_1988058.JPG,ISIC_4731791.JPG,false,1,keypress(m),500,273123.9000000004,273123.4000000004,268755.049,268746.0999999996,268771.715,273138.207,8,400,46,,ISIC_1988058.JPG
break,html.Screen,4_45_1,2023-09-12T21:50:56.913Z,,0,,,NaN,,,,,,false,,,,273124.7999999998,273124.7000000002,,273124.2000000002,,273138.207,8,400,,,
break_continue,html.Screen,4_45_2,2023-09-12T21:50:56.913Z,,0,,,NaN,,,,,,false,,,,273125.2000000002,273125,,273124.9000000004,,273138.207,8,400,,,
sequence,flow.Sequence,4_45,2023-09-12T21:50:56.914Z,,0,,,4353.284999999974,completion,,,,,false,,,,273125.4000000004,273125,268755.049,268746,268771.715,273138.207,8,400,,,
trial,html.Screen,4_46_0,2023-09-12T21:51:00.486Z,,0,1,,3559.6930000003777,response,ISIC_0010967.JPG,5,ISIC_0055024.JPG,ISIC_0055024.JPG,false,0,keypress(z),500,276698.2999999998,276697.9000000004,273121.541,273125.5999999996,273138.207,276705.401,8,400,47,,ISIC_0010967.JPG
break,html.Screen,4_46_1,2023-09-12T21:51:00.487Z,,0,,,NaN,,,,,,false,,,,276699.2999999998,276699.2000000002,,276698.5999999996,,276705.401,8,400,,,
break_continue,html.Screen,4_46_2,2023-09-12T21:51:00.488Z,,0,,,NaN,,,,,,false,,,,276699.7000000002,276699.5999999996,,276699.5,,276705.401,8,400,,,
sequence,flow.Sequence,4_46,2023-09-12T21:51:00.488Z,,0,,,3561.3929999996326,completion,,,,,false,,,,276699.7999999998,276699.5999999996,273121.541,273125.5,273138.207,276705.401,8,400,,,
trial,html.Screen,4_47_0,2023-09-12T21:51:03.806Z,,0,1,,3311.698999999615,response,ISIC_9312164.JPG,8,ISIC_8873236.JPG,ISIC_9312164.JPG,false,1,keypress(m),500,280017.5,280017.0999999996,276688.735,276700,276705.401,280021.935,8,400,48,,ISIC_8873236.JPG
break,html.Screen,4_47_1,2023-09-12T21:51:03.807Z,,0,,,NaN,,,,,,false,,,,280018.5,280018.2999999998,,280017.7999999998,,280021.935,8,400,,,
break_continue,html.Screen,4_47_2,2023-09-12T21:51:03.807Z,,0,,,NaN,,,,,,false,,,,280018.7999999998,280018.7000000002,,280018.5999999996,,280021.935,8,400,,,
sequence,flow.Sequence,4_47,2023-09-12T21:51:03.807Z,,0,,,3313.2990000001737,completion,,,,,false,,,,280019.0999999996,280018.7000000002,276688.735,276699.9000000004,276705.401,280021.935,8,400,,,
trial,html.Screen,4_48_0,2023-09-12T21:51:08.003Z,,0,1,,4192.66499999963,response,ISIC_4574865.JPG,8,ISIC_7492530.JPG,ISIC_4574865.JPG,false,1,keypress(m),500,284214.9000000004,284214.5999999996,280005.269,280019.2000000002,280021.935,284221.767,8,400,49,,ISIC_7492530.JPG
break,html.Screen,4_48_1,2023-09-12T21:51:08.004Z,,0,,,NaN,,,,,,false,,,,284216,284215.7999999998,,284215.2999999998,,284221.767,8,400,,,
break_continue,html.Screen,4_48_2,2023-09-12T21:51:08.004Z,,0,,,NaN,,,,,,false,,,,284216.4000000004,284216.2000000002,,284216.2000000002,,284221.767,8,400,,,
sequence,flow.Sequence,4_48,2023-09-12T21:51:08.004Z,,0,,,4194.265000000189,completion,,,,,false,,,,284216.5,284216.2000000002,280005.269,280019.2000000002,280021.935,284221.767,8,400,,,
trial,html.Screen,4_49_0,2023-09-12T21:51:11.306Z,,0,1,,3295.63300000038,response,ISIC_0010140.JPG,8,ISIC_6553579.JPG,ISIC_0010140.JPG,false,1,keypress(m),500,287517.9000000004,287517.4000000004,284205.101,284216.5999999996,284221.767,287522.357,8,400,50,,ISIC_6553579.JPG
break,html.Screen,4_49_1,2023-09-12T21:51:21.298Z,,0,,,10000.321999999986,timeout,,,,,false,,,,297510.5999999996,297506.013,287505.691,287518.2000000002,287522.357,297522.679,8,400,,,
break_continue,html.Screen,4_49_2,2023-09-12T21:51:22.863Z,,0,,,1541.0210000001825,response,,,,,false,continue,keypress(Space),,299075.5,299063.7000000002,297506.013,297510.7999999998,297522.679,299089.283,8,400,,,
sequence,flow.Sequence,4_49,2023-09-12T21:51:22.863Z,,0,,,14841.933000000194,completion,,,,,false,,,,299075.7000000002,299063.7000000002,284205.101,284216.5999999996,284221.767,299089.283,8,400,,,
trial,html.Screen,4_50_0,2023-09-12T21:51:29.732Z,,0,2,,6855.217000000004,response,ISIC_0064376.JPG,7,ISIC_9210086.JPG,ISIC_0064376.JPG,false,1,keypress(m),500,305944.9000000004,305944.5,299072.617,299075.7999999998,299089.283,305956.322,8,400,1,,ISIC_9210086.JPG
break,html.Screen,4_50_1,2023-09-12T21:51:29.733Z,,0,,,NaN,,,,,,false,,,,305946,305945.7999999998,,305945.4000000004,,305956.322,8,400,,,
break_continue,html.Screen,4_50_2,2023-09-12T21:51:29.733Z,,0,,,NaN,,,,,,false,,,,305946.4000000004,305946.2999999998,,305946.0999999996,,305956.322,8,400,,,
sequence,flow.Sequence,4_50,2023-09-12T21:51:29.734Z,,0,,,6857.016999999818,completion,,,,,false,,,,305946.5999999996,305946.2999999998,299072.617,299075.7999999998,299089.283,305956.322,8,400,,,
trial,html.Screen,4_51_0,2023-09-12T21:51:34.346Z,,0,2,,4602.878000000201,response,ISIC_3963183.JPG,7,ISIC_0032565.JPG,ISIC_3963183.JPG,false,1,keypress(m),500,310559.5999999996,310559.2000000002,305939.656,305946.7000000002,305956.322,310572.804,8,400,2,,ISIC_0032565.JPG
break,html.Screen,4_51_1,2023-09-12T21:51:34.347Z,,0,,,NaN,,,,,,false,,,,310560.7000000002,310560.5,,310560,,310572.804,8,400,,,
break_continue,html.Screen,4_51_2,2023-09-12T21:51:34.348Z,,0,,,NaN,,,,,,false,,,,310561,310561,,310560.9000000004,,310572.804,8,400,,,
sequence,flow.Sequence,4_51,2023-09-12T21:51:34.348Z,,0,,,4604.678000000014,completion,,,,,false,,,,310561.2000000002,310561,305939.656,305946.7000000002,305956.322,310572.804,8,400,,,
trial,html.Screen,4_52_0,2023-09-12T21:51:37.808Z,,0,2,,3448.096000000369,response,ISIC_0878793.JPG,8,ISIC_6860222.JPG,ISIC_0878793.JPG,false,1,keypress(m),500,314021.4000000004,314020.9000000004,310556.138,310561.4000000004,310572.804,314022.666,8,400,3,,ISIC_6860222.JPG
break,html.Screen,4_52_1,2023-09-12T21:51:37.809Z,,0,,,NaN,,,,,,false,,,,314022.5,314022.2000000002,,314021.7000000002,,314022.666,8,400,,,
break_continue,html.Screen,4_52_2,2023-09-12T21:51:37.809Z,,0,,,NaN,,,,,,false,,,,314022.7000000002,314022.5999999996,,314022.5,,314022.666,8,400,,,
sequence,flow.Sequence,4_52,2023-09-12T21:51:37.810Z,,0,,,3449.7959999996237,completion,,,,,false,,,,314023,314022.5999999996,310556.138,310561.4000000004,310572.804,314022.666,8,400,,,
trial,html.Screen,4_53_0,2023-09-12T21:51:41.631Z,,0,2,,3821.234000000346,response,ISIC_6882582.JPG,8,ISIC_5335139.JPG,ISIC_6882582.JPG,false,1,keypress(m),500,317844.4000000004,317843.9000000004,314006,314023.0999999996,314022.666,317856.646,8,400,4,,ISIC_5335139.JPG
break,html.Screen,4_53_1,2023-09-12T21:51:41.632Z,,0,,,NaN,,,,,,false,,,,317845.4000000004,317845.2999999998,,317844.7999999998,,317856.646,8,400,,,
break_continue,html.Screen,4_53_2,2023-09-12T21:51:41.632Z,,0,,,NaN,,,,,,false,,,,317845.7999999998,317845.7000000002,,317845.5999999996,,317856.646,8,400,,,
sequence,flow.Sequence,4_53,2023-09-12T21:51:41.632Z,,0,,,3823.0340000001597,completion,,,,,false,,,,317846,317845.7000000002,314006,314023,314022.666,317856.646,8,400,,,
trial,html.Screen,4_54_0,2023-09-12T21:51:44.886Z,,0,2,,3242.5540000001783,response,ISIC_2565986.JPG,5,ISIC_9134453.JPG,ISIC_9134453.JPG,false,0,keypress(z),500,321099.7999999998,321099.2000000002,317839.98,317846.0999999996,317856.646,321106.516,8,400,5,,ISIC_2565986.JPG
break,html.Screen,4_54_1,2023-09-12T21:51:44.887Z,,0,,,NaN,,,,,,false,,,,321101,321100.7999999998,,321100.2000000002,,321106.516,8,400,,,
break_continue,html.Screen,4_54_2,2023-09-12T21:51:44.888Z,,0,,,NaN,,,,,,false,,,,321101.2999999998,321101.2000000002,,321101.2000000002,,321106.516,8,400,,,
sequence,flow.Sequence,4_54,2023-09-12T21:51:44.888Z,,0,,,3244.5540000001783,completion,,,,,false,,,,321101.5999999996,321101.2000000002,317839.98,317846.0999999996,317856.646,321106.516,8,400,,,
trial,html.Screen,4_55_0,2023-09-12T21:51:47.790Z,,0,2,,2896.7839999998105,response,ISIC_0032671.JPG,8,ISIC_0064073.JPG,ISIC_0032671.JPG,false,1,keypress(m),500,324003.7000000002,324003.2999999998,321089.85,321101.7000000002,321106.516,324023.066,8,400,6,,ISIC_0064073.JPG
break,html.Screen,4_55_1,2023-09-12T21:51:47.791Z,,0,,,NaN,,,,,,false,,,,324004.7000000002,324004.5,,324004,,324023.066,8,400,,,
break_continue,html.Screen,4_55_2,2023-09-12T21:51:47.791Z,,0,,,NaN,,,,,,false,,,,324005.0999999996,324005,,324004.7999999998,,324023.066,8,400,,,
sequence,flow.Sequence,4_55,2023-09-12T21:51:47.791Z,,0,,,2898.4839999999967,completion,,,,,false,,,,324005.2000000002,324005,321089.85,321101.7000000002,321106.516,324023.066,8,400,,,
trial,html.Screen,4_56_0,2023-09-12T21:51:50.837Z,,0,2,,3027.233999999822,response,ISIC_0025186.JPG,5,ISIC_2583592.JPG,ISIC_0025186.JPG,false,1,keypress(m),500,327050.7999999998,327050.2999999998,324006.4,324005.4000000004,324023.066,327057.037,8,400,7,,ISIC_2583592.JPG
break,html.Screen,4_56_1,2023-09-12T21:51:50.838Z,,0,,,NaN,,,,,,false,,,,327051.7999999998,327051.5999999996,,327051.0999999996,,327057.037,8,400,,,
break_continue,html.Screen,4_56_2,2023-09-12T21:51:50.838Z,,0,,,NaN,,,,,,false,,,,327052.2000000002,327052.0999999996,,327052,,327057.037,8,400,,,
sequence,flow.Sequence,4_56,2023-09-12T21:51:50.838Z,,0,,,3029.033999999636,completion,,,,,false,,,,327052.4000000004,327052.0999999996,324006.4,324005.4000000004,324023.066,327057.037,8,400,,,
trial,html.Screen,4_57_0,2023-09-12T21:51:55.179Z,,0,2,,4335.562999999616,response,ISIC_4482610.JPG,9,ISIC_6617840.JPG,ISIC_4482610.JPG,false,1,keypress(m),500,331393.0999999996,331392.5999999996,327040.371,327052.5,327057.037,331406.863,8,400,8,,ISIC_6617840.JPG
break,html.Screen,4_57_1,2023-09-12T21:51:55.180Z,,0,,,NaN,,,,,,false,,,,331394.0999999996,331393.9000000004,,331393.2999999998,,331406.863,8,400,,,
break_continue,html.Screen,4_57_2,2023-09-12T21:51:55.180Z,,0,,,NaN,,,,,,false,,,,331394.4000000004,331394.2999999998,,331394.0999999996,,331406.863,8,400,,,
sequence,flow.Sequence,4_57,2023-09-12T21:51:55.181Z,,0,,,4337.262999999803,completion,,,,,false,,,,331394.5,331394.2999999998,327040.371,327052.4000000004,327057.037,331406.863,8,400,,,
trial,html.Screen,4_58_0,2023-09-12T21:51:59.074Z,,0,2,,3880.5370000003604,response,ISIC_2970409.JPG,7,ISIC_8167374.JPG,ISIC_2970409.JPG,false,1,keypress(m),500,335287.9000000004,335287.4000000004,331390.197,331394.7000000002,331406.863,335290.041,8,400,9,,ISIC_8167374.JPG
break,html.Screen,4_58_1,2023-09-12T21:51:59.075Z,,0,,,NaN,,,,,,false,,,,335288.9000000004,335288.7000000002,,335288.0999999996,,335290.041,8,400,,,
break_continue,html.Screen,4_58_2,2023-09-12T21:51:59.075Z,,0,,,NaN,,,,,,false,,,,335289.2000000002,335289.2000000002,,335289,,335290.041,8,400,,,
sequence,flow.Sequence,4_58,2023-09-12T21:51:59.075Z,,0,,,3882.337000000174,completion,,,,,false,,,,335289.4000000004,335289.2000000002,331390.197,331394.5999999996,331406.863,335290.041,8,400,,,
trial,html.Screen,4_59_0,2023-09-12T21:52:02.527Z,,0,2,,3449.758999999787,response,ISIC_0004564.JPG,8,ISIC_0060832.JPG,ISIC_0060832.JPG,false,0,keypress(z),500,338741.4000000004,338739.7999999998,335273.375,335289.5,335290.041,338757.236,8,400,10,,ISIC_0004564.JPG
break,html.Screen,4_59_1,2023-09-12T21:52:02.528Z,,0,,,NaN,,,,,,false,,,,338742.4000000004,338742.0999999996,,338741.7000000002,,338757.236,8,400,,,
break_continue,html.Screen,4_59_2,2023-09-12T21:52:02.528Z,,0,,,NaN,,,,,,false,,,,338742.5,338742.5,,338742.4000000004,,338757.236,8,400,,,
sequence,flow.Sequence,4_59,2023-09-12T21:52:02.528Z,,0,,,3452.4589999999735,completion,,,,,false,,,,338742.7999999998,338742.5,335273.375,335289.5,335290.041,338757.236,8,400,,,
trial,html.Screen,4_60_0,2023-09-12T21:52:05.623Z,,0,2,,3079.363999999652,response,ISIC_0072553.JPG,8,ISIC_1290821.JPG,ISIC_0072553.JPG,false,1,keypress(m),500,341837,341836.5999999996,338740.57,338742.9000000004,338757.236,341840.446,8,400,11,,ISIC_1290821.JPG
break,html.Screen,4_60_1,2023-09-12T21:52:05.624Z,,0,,,NaN,,,,,,false,,,,341837.9000000004,341837.7999999998,,341837.2999999998,,341840.446,8,400,,,
break_continue,html.Screen,4_60_2,2023-09-12T21:52:05.624Z,,0,,,NaN,,,,,,false,,,,341838.2999999998,341838.2000000002,,341838.0999999996,,341840.446,8,400,,,
sequence,flow.Sequence,4_60,2023-09-12T21:52:05.624Z,,0,,,3080.964000000211,completion,,,,,false,,,,341838.5,341838.2000000002,338740.57,338742.9000000004,338757.236,341840.446,8,400,,,
trial,html.Screen,4_61_0,2023-09-12T21:52:09.134Z,,0,2,,3507.653999999631,response,ISIC_0011483.JPG,8,ISIC_0033075.JPG,ISIC_0011483.JPG,false,1,keypress(m),500,345348.5,345348.0999999996,341823.78,341838.7000000002,341840.446,345356.972,8,400,12,,ISIC_0033075.JPG
break,html.Screen,4_61_1,2023-09-12T21:52:09.135Z,,0,,,NaN,,,,,,false,,,,345349.5,345349.4000000004,,345348.7999999998,,345356.972,8,400,,,
break_continue,html.Screen,4_61_2,2023-09-12T21:52:09.135Z,,0,,,NaN,,,,,,false,,,,345349.9000000004,345349.7000000002,,345349.5999999996,,345356.972,8,400,,,
sequence,flow.Sequence,4_61,2023-09-12T21:52:09.135Z,,0,,,3509.25400000019,completion,,,,,false,,,,345350,345349.7000000002,341823.78,341838.5999999996,341840.446,345356.972,8,400,,,
trial,html.Screen,4_62_0,2023-09-12T21:52:12.413Z,,0,2,,3270.4280000003637,response,ISIC_0070709.JPG,9,ISIC_9072567.JPG,ISIC_0070709.JPG,false,1,keypress(m),500,348627.7999999998,348627.4000000004,345340.306,345350.2000000002,345356.972,348640.896,8,400,13,,ISIC_9072567.JPG
break,html.Screen,4_62_1,2023-09-12T21:52:12.414Z,,0,,,NaN,,,,,,false,,,,348628.7999999998,348628.5999999996,,348628.0999999996,,348640.896,8,400,,,
break_continue,html.Screen,4_62_2,2023-09-12T21:52:12.414Z,,0,,,NaN,,,,,,false,,,,348629.2000000002,348629,,348628.9000000004,,348640.896,8,400,,,
sequence,flow.Sequence,4_62,2023-09-12T21:52:12.415Z,,0,,,3272.027999999991,completion,,,,,false,,,,348629.4000000004,348629,345340.306,345350.2000000002,345356.972,348640.896,8,400,,,
trial,html.Screen,4_63_0,2023-09-12T21:52:15.871Z,,0,2,,3444.3040000001783,response,ISIC_1348843.JPG,8,ISIC_6297317.JPG,ISIC_6297317.JPG,false,0,keypress(z),500,352085.5999999996,352085.2000000002,348624.23,348629.5999999996,348640.896,352090.758,8,400,14,,ISIC_1348843.JPG
break,html.Screen,4_63_1,2023-09-12T21:52:15.872Z,,0,,,NaN,,,,,,false,,,,352086.5999999996,352086.4000000004,,352085.9000000004,,352090.758,8,400,,,
break_continue,html.Screen,4_63_2,2023-09-12T21:52:15.872Z,,0,,,NaN,,,,,,false,,,,352087,352086.7999999998,,352086.7000000002,,352090.758,8,400,,,
sequence,flow.Sequence,4_63,2023-09-12T21:52:15.872Z,,0,,,3445.903999999806,completion,,,,,false,,,,352087.2000000002,352086.7999999998,348624.23,348629.5,348640.896,352090.758,8,400,,,
trial,html.Screen,4_64_0,2023-09-12T21:52:19.261Z,,0,2,,3385.041999999841,response,ISIC_1964243.JPG,8,ISIC_0011721.JPG,ISIC_0011721.JPG,false,0,keypress(z),500,355476.0999999996,355475.7999999998,352074.092,352087.2999999998,352090.758,355490.622,8,400,15,,ISIC_1964243.JPG
break,html.Screen,4_64_1,2023-09-12T21:52:19.262Z,,0,,,NaN,,,,,,false,,,,355477.0999999996,355477,,355476.4000000004,,355490.622,8,400,,,
break_continue,html.Screen,4_64_2,2023-09-12T21:52:19.262Z,,0,,,NaN,,,,,,false,,,,355477.5,355477.2999999998,,355477.2000000002,,355490.622,8,400,,,
sequence,flow.Sequence,4_64,2023-09-12T21:52:19.263Z,,0,,,3386.541999999841,completion,,,,,false,,,,355477.7000000002,355477.2999999998,352074.092,352087.2999999998,352090.758,355490.622,8,400,,,
trial,html.Screen,4_65_0,2023-09-12T21:52:22.194Z,,0,2,,2918.0780000002123,response,ISIC_0030554.JPG,7,ISIC_0027636.JPG,ISIC_0030554.JPG,false,1,keypress(m),500,358409.2000000002,358408.7000000002,355473.956,355477.7999999998,355490.622,358424.496,8,400,16,,ISIC_0027636.JPG
break,html.Screen,4_65_1,2023-09-12T21:52:22.195Z,,0,,,NaN,,,,,,false,,,,358410.2000000002,358410,,358409.5,,358424.496,8,400,,,
break_continue,html.Screen,4_65_2,2023-09-12T21:52:22.195Z,,0,,,NaN,,,,,,false,,,,358410.5,358410.2999999998,,358410.2999999998,,358424.496,8,400,,,
sequence,flow.Sequence,4_65,2023-09-12T21:52:22.196Z,,0,,,2919.67799999984,completion,,,,,false,,,,358410.7000000002,358410.2999999998,355473.956,355477.7000000002,355490.622,358424.496,8,400,,,
trial,html.Screen,4_66_0,2023-09-12T21:52:25.975Z,,0,2,,3765.603999999643,response,ISIC_0031018.JPG,9,ISIC_6626544.JPG,ISIC_0031018.JPG,false,1,keypress(m),500,362190.5,362190.0999999996,358407.83,358410.9000000004,358424.496,362207.678,8,400,17,,ISIC_6626544.JPG
break,html.Screen,4_66_1,2023-09-12T21:52:25.976Z,,0,,,NaN,,,,,,false,,,,362191.5,362191.2999999998,,362190.7999999998,,362207.678,8,400,,,
break_continue,html.Screen,4_66_2,2023-09-12T21:52:25.977Z,,0,,,NaN,,,,,,false,,,,362191.9000000004,362191.7999999998,,362191.7000000002,,362207.678,8,400,,,
sequence,flow.Sequence,4_66,2023-09-12T21:52:25.977Z,,0,,,3767.303999999829,completion,,,,,false,,,,362192.0999999996,362191.7999999998,358407.83,358410.7999999998,358424.496,362207.678,8,400,,,
trial,html.Screen,4_67_0,2023-09-12T21:52:29.228Z,,0,2,,3235.421999999613,response,ISIC_0033687.JPG,9,ISIC_1558504.JPG,ISIC_0033687.JPG,false,1,keypress(m),500,365443.5,365443.0999999996,362191.012,362192.2000000002,362207.678,365474.214,8,400,18,,ISIC_1558504.JPG
break,html.Screen,4_67_1,2023-09-12T21:52:29.229Z,,0,,,NaN,,,,,,false,,,,365444.5999999996,365444.4000000004,,365443.7999999998,,365474.214,8,400,,,
break_continue,html.Screen,4_67_2,2023-09-12T21:52:29.230Z,,0,,,NaN,,,,,,false,,,,365444.9000000004,365444.7999999998,,365444.5999999996,,365474.214,8,400,,,
sequence,flow.Sequence,4_67,2023-09-12T21:52:29.230Z,,0,,,3237.1219999997993,completion,,,,,false,,,,365445.0999999996,365444.7999999998,362191.012,362192.0999999996,362207.678,365474.214,8,400,,,
trial,html.Screen,4_68_0,2023-09-12T21:52:32.803Z,,0,2,,3543.6860000003944,response,ISIC_2851852.JPG,8,ISIC_1410408.JPG,ISIC_2851852.JPG,false,1,keypress(m),500,369018.4000000004,369017.9000000004,365457.548,365445.2000000002,365474.214,369024.8,8,400,19,,ISIC_1410408.JPG
break,html.Screen,4_68_1,2023-09-12T21:52:32.804Z,,0,,,NaN,,,,,,false,,,,369019.4000000004,369019.2000000002,,369018.7000000002,,369024.8,8,400,,,
break_continue,html.Screen,4_68_2,2023-09-12T21:52:32.804Z,,0,,,NaN,,,,,,false,,,,369019.7000000002,369019.5999999996,,369019.5,,369024.8,8,400,,,
sequence,flow.Sequence,4_68,2023-09-12T21:52:32.804Z,,0,,,3545.3859999996494,completion,,,,,false,,,,369019.9000000004,369019.5999999996,365457.548,365445.2000000002,365474.214,369024.8,8,400,,,
trial,html.Screen,4_69_0,2023-09-12T21:52:36.150Z,,0,2,,3340.4999999998254,response,ISIC_0027102.JPG,8,ISIC_0011526.JPG,ISIC_0027102.JPG,false,1,keypress(m),500,372365.5999999996,372365.2999999998,369008.134,369020.0999999996,369024.8,372374.666,8,400,20,,ISIC_0011526.JPG
break,html.Screen,4_69_1,2023-09-12T21:52:36.151Z,,0,,,NaN,,,,,,false,,,,372366.7000000002,372366.5,,372366,,372374.666,8,400,,,
break_continue,html.Screen,4_69_2,2023-09-12T21:52:36.151Z,,0,,,NaN,,,,,,false,,,,372367.0999999996,372366.9000000004,,372366.7999999998,,372374.666,8,400,,,
sequence,flow.Sequence,4_69,2023-09-12T21:52:36.152Z,,0,,,3342.100000000384,completion,,,,,false,,,,372367.2000000002,372366.9000000004,369008.134,369020,369024.8,372374.666,8,400,,,
trial,html.Screen,4_70_0,2023-09-12T21:52:39.163Z,,0,2,,3003.734000000346,response,ISIC_0025891.JPG,8,ISIC_3679789.JPG,ISIC_0025891.JPG,false,1,keypress(m),500,375378.7999999998,375378.4000000004,372358,372367.4000000004,372374.666,375407.878,8,400,21,,ISIC_3679789.JPG
break,html.Screen,4_70_1,2023-09-12T21:52:39.164Z,,0,,,NaN,,,,,,false,,,,375379.7000000002,375379.5999999996,,375379.2000000002,,375407.878,8,400,,,
break_continue,html.Screen,4_70_2,2023-09-12T21:52:39.164Z,,0,,,NaN,,,,,,false,,,,375380.2000000002,375380.0999999996,,375379.9000000004,,375407.878,8,400,,,
sequence,flow.Sequence,4_70,2023-09-12T21:52:39.165Z,,0,,,3005.433999999601,completion,,,,,false,,,,375380.2999999998,375380.0999999996,372358,372367.2999999998,372374.666,375407.878,8,400,,,
trial,html.Screen,4_71_0,2023-09-12T21:52:42.352Z,,0,2,,3159.5220000003465,response,ISIC_0025751.JPG,7,ISIC_0030313.JPG,ISIC_0030313.JPG,false,0,keypress(z),500,378568,378567.4000000004,375391.212,375380.5,375407.878,378574.418,8,400,22,,ISIC_0025751.JPG
break,html.Screen,4_71_1,2023-09-12T21:52:42.353Z,,0,,,NaN,,,,,,false,,,,378569,378568.7999999998,,378568.2999999998,,378574.418,8,400,,,
break_continue,html.Screen,4_71_2,2023-09-12T21:52:42.353Z,,0,,,NaN,,,,,,false,,,,378569.2999999998,378569.2000000002,,378569.0999999996,,378574.418,8,400,,,
sequence,flow.Sequence,4_71,2023-09-12T21:52:42.354Z,,0,,,3161.32200000016,completion,,,,,false,,,,378569.5,378569.2000000002,375391.212,375380.5,375407.878,378574.418,8,400,,,
trial,html.Screen,4_72_0,2023-09-12T21:52:45.141Z,,0,2,,2782.282000000181,response,ISIC_9728003.JPG,9,ISIC_9588279.JPG,ISIC_9588279.JPG,false,0,keypress(z),500,381357.2999999998,381356.7000000002,378557.752,378569.7000000002,378574.418,381358.386,8,400,23,,ISIC_9728003.JPG
break,html.Screen,4_72_1,2023-09-12T21:52:45.142Z,,0,,,NaN,,,,,,false,,,,381358.2999999998,381358,,381357.5999999996,,381358.386,8,400,,,
break_continue,html.Screen,4_72_2,2023-09-12T21:52:45.143Z,,0,,,NaN,,,,,,false,,,,381358.7000000002,381358.5,,381358.4000000004,,381358.386,8,400,,,
sequence,flow.Sequence,4_72,2023-09-12T21:52:45.143Z,,0,,,2784.081999999995,completion,,,,,false,,,,381358.9000000004,381358.5,378557.752,378569.5999999996,378574.418,381358.386,8,400,,,
trial,html.Screen,4_73_0,2023-09-12T21:52:48.058Z,,0,2,,2915.213999999629,response,ISIC_4927943.JPG,7,ISIC_0030535.JPG,ISIC_0030535.JPG,false,0,keypress(z),500,384274.0999999996,384273.5999999996,381341.72,381359,381358.386,384291.602,8,400,24,,ISIC_4927943.JPG
break,html.Screen,4_73_1,2023-09-12T21:52:48.059Z,,0,,,NaN,,,,,,false,,,,384275.0999999996,384275,,384274.4000000004,,384291.602,8,400,,,
break_continue,html.Screen,4_73_2,2023-09-12T21:52:48.059Z,,0,,,NaN,,,,,,false,,,,384275.5,384275.4000000004,,384275.2999999998,,384291.602,8,400,,,
sequence,flow.Sequence,4_73,2023-09-12T21:52:48.059Z,,0,,,2917.014000000374,completion,,,,,false,,,,384275.5999999996,384275.4000000004,381341.72,381359,381358.386,384291.602,8,400,,,
trial,html.Screen,4_74_0,2023-09-12T21:52:50.813Z,,0,2,,2737.497999999614,response,ISIC_3963183.JPG,9,ISIC_0068580.JPG,ISIC_0068580.JPG,false,0,keypress(z),500,387029.5999999996,387029.0999999996,384274.936,384275.7000000002,384291.602,387041.492,8,400,25,,ISIC_3963183.JPG
break,html.Screen,4_74_1,2023-09-12T21:52:50.814Z,,0,,,NaN,,,,,,false,,,,387030.5,387030.4000000004,,387029.9000000004,,387041.492,8,400,,,
break_continue,html.Screen,4_74_2,2023-09-12T21:52:50.815Z,,0,,,NaN,,,,,,false,,,,387030.9000000004,387030.7999999998,,387030.7000000002,,387041.492,8,400,,,
sequence,flow.Sequence,4_74,2023-09-12T21:52:50.815Z,,0,,,2739.1979999998002,completion,,,,,false,,,,387031.0999999996,387030.7999999998,384274.936,384275.7000000002,384291.602,387041.492,8,400,,,
trial,html.Screen,4_75_0,2023-09-12T21:52:53.556Z,,0,2,,2730.408000000345,response,ISIC_4153687.JPG,7,ISIC_0058730.JPG,ISIC_0058730.JPG,false,0,keypress(z),500,389772.4000000004,389771.9000000004,387024.826,387031.2000000002,387041.492,389775.433,8,400,26,,ISIC_4153687.JPG
break,html.Screen,4_75_1,2023-09-12T21:52:53.557Z,,0,,,NaN,,,,,,false,,,,389773.2999999998,389773.2000000002,,389772.7000000002,,389775.433,8,400,,,
break_continue,html.Screen,4_75_2,2023-09-12T21:52:53.557Z,,0,,,NaN,,,,,,false,,,,389773.7000000002,389773.5999999996,,389773.4000000004,,389775.433,8,400,,,
sequence,flow.Sequence,4_75,2023-09-12T21:52:53.558Z,,0,,,2732.1079999996,completion,,,,,false,,,,389773.9000000004,389773.5999999996,387024.826,387031.2000000002,387041.492,389775.433,8,400,,,
trial,html.Screen,4_76_0,2023-09-12T21:52:56.587Z,,0,2,,3027.566999999981,response,ISIC_0026160.JPG,5,ISIC_0054248.JPG,ISIC_0054248.JPG,false,0,keypress(z),500,392803.4000000004,392803,389758.767,389774.0999999996,389775.433,392808.645,8,400,27,,ISIC_0026160.JPG
break,html.Screen,4_76_1,2023-09-12T21:52:56.588Z,,0,,,NaN,,,,,,false,,,,392804.5,392804.2999999998,,392803.7999999998,,392808.645,8,400,,,
break_continue,html.Screen,4_76_2,2023-09-12T21:52:56.588Z,,0,,,NaN,,,,,,false,,,,392804.7999999998,392804.7000000002,,392804.5999999996,,392808.645,8,400,,,
sequence,flow.Sequence,4_76,2023-09-12T21:52:56.589Z,,0,,,3029.267000000167,completion,,,,,false,,,,392805.0999999996,392804.7000000002,389758.767,389773.9000000004,389775.433,392808.645,8,400,,,
trial,html.Screen,4_77_0,2023-09-12T21:52:59.840Z,,0,2,,3247.255000000354,response,ISIC_4308751.JPG,6,ISIC_0034107.JPG,ISIC_0034107.JPG,false,0,keypress(z),500,396056.2999999998,396055.9000000004,392791.979,392805.2999999998,392808.645,396058.515,8,400,28,,ISIC_4308751.JPG
break,html.Screen,4_77_1,2023-09-12T21:52:59.841Z,,0,,,NaN,,,,,,false,,,,396057.2999999998,396057.0999999996,,396056.5999999996,,396058.515,8,400,,,
break_continue,html.Screen,4_77_2,2023-09-12T21:52:59.841Z,,0,,,NaN,,,,,,false,,,,396057.5999999996,396057.5,,396057.5,,396058.515,8,400,,,
sequence,flow.Sequence,4_77,2023-09-12T21:52:59.841Z,,0,,,3248.8549999999814,completion,,,,,false,,,,396057.9000000004,396057.5,392791.979,392805.0999999996,392808.645,396058.515,8,400,,,
trial,html.Screen,4_78_0,2023-09-12T21:53:02.924Z,,0,2,,3081.484999999986,response,ISIC_0015631.JPG,9,ISIC_0182020.JPG,ISIC_0015631.JPG,false,1,keypress(m),500,399140.4000000004,399140,396041.849,396058,396058.515,399141.725,8,400,29,,ISIC_0182020.JPG
break,html.Screen,4_78_1,2023-09-12T21:53:02.925Z,,0,,,NaN,,,,,,false,,,,399141.4000000004,399141.2000000002,,399140.7999999998,,399141.725,8,400,,,
break_continue,html.Screen,4_78_2,2023-09-12T21:53:02.925Z,,0,,,NaN,,,,,,false,,,,399141.7000000002,399141.7000000002,,399141.5,,399141.725,8,400,,,
sequence,flow.Sequence,4_78,2023-09-12T21:53:02.925Z,,0,,,3083.1850000001723,completion,,,,,false,,,,399142,399141.7000000002,396041.849,396058,396058.515,399141.725,8,400,,,
trial,html.Screen,4_79_0,2023-09-12T21:53:06.412Z,,0,2,,3487.074999999837,response,ISIC_0026727.JPG,7,ISIC_0012883.JPG,ISIC_0026727.JPG,false,1,keypress(m),500,402629.2999999998,402628.7999999998,399125.059,399142,399141.725,402642.309,8,400,30,,ISIC_0012883.JPG
break,html.Screen,4_79_1,2023-09-12T21:53:06.413Z,,0,,,NaN,,,,,,false,,,,402630.2999999998,402630.0999999996,,402629.5999999996,,402642.309,8,400,,,
break_continue,html.Screen,4_79_2,2023-09-12T21:53:06.414Z,,0,,,NaN,,,,,,false,,,,402630.5999999996,402630.5,,402630.4000000004,,402642.309,8,400,,,
sequence,flow.Sequence,4_79,2023-09-12T21:53:06.414Z,,0,,,3488.7750000000233,completion,,,,,false,,,,402630.7999999998,402630.5,399125.059,399142,399141.725,402642.309,8,400,,,
trial,html.Screen,4_80_0,2023-09-12T21:53:09.708Z,,0,2,,3282.591000000364,response,ISIC_4699989.JPG,8,ISIC_9510497.JPG,ISIC_9510497.JPG,false,0,keypress(z),500,405925.5,405924.9000000004,402625.643,402631,402642.309,405942.177,8,400,31,,ISIC_4699989.JPG
break,html.Screen,4_80_1,2023-09-12T21:53:09.709Z,,0,,,NaN,,,,,,false,,,,405926.5,405926.2999999998,,405925.7999999998,,405942.177,8,400,,,
break_continue,html.Screen,4_80_2,2023-09-12T21:53:09.710Z,,0,,,NaN,,,,,,false,,,,405926.7999999998,405926.7000000002,,405926.5999999996,,405942.177,8,400,,,
sequence,flow.Sequence,4_80,2023-09-12T21:53:09.710Z,,0,,,3284.391000000178,completion,,,,,false,,,,405927.0999999996,405926.7000000002,402625.643,402630.9000000004,402642.309,405942.177,8,400,,,
trial,html.Screen,4_81_0,2023-09-12T21:53:12.876Z,,0,2,,3150.322999999975,response,ISIC_0000552.JPG,8,ISIC_7254389.JPG,ISIC_0000552.JPG,false,1,keypress(m),500,409092.9000000004,409092.5,405925.511,405927.2000000002,405942.177,409108.717,8,400,32,,ISIC_7254389.JPG
break,html.Screen,4_81_1,2023-09-12T21:53:12.877Z,,0,,,NaN,,,,,,false,,,,409094,409093.7999999998,,409093.2999999998,,409108.717,8,400,,,
break_continue,html.Screen,4_81_2,2023-09-12T21:53:12.877Z,,0,,,NaN,,,,,,false,,,,409094.4000000004,409094.2000000002,,409094.0999999996,,409108.717,8,400,,,
sequence,flow.Sequence,4_81,2023-09-12T21:53:12.877Z,,0,,,3152.023000000161,completion,,,,,false,,,,409094.5999999996,409094.2000000002,405925.511,405927.2000000002,405942.177,409108.717,8,400,,,
trial,html.Screen,4_82_0,2023-09-12T21:53:15.804Z,,0,2,,2912.0829999998095,response,ISIC_0032875.JPG,7,ISIC_0024811.JPG,ISIC_0032875.JPG,false,1,keypress(m),500,412021.2000000002,412020.7999999998,409092.051,409094.7000000002,409108.717,412025.947,8,400,33,,ISIC_0024811.JPG
break,html.Screen,4_82_1,2023-09-12T21:53:15.805Z,,0,,,NaN,,,,,,false,,,,412022.2999999998,412022.0999999996,,412021.5999999996,,412025.947,8,400,,,
break_continue,html.Screen,4_82_2,2023-09-12T21:53:15.805Z,,0,,,NaN,,,,,,false,,,,412022.7000000002,412022.5999999996,,412022.5,,412025.947,8,400,,,
sequence,flow.Sequence,4_82,2023-09-12T21:53:15.806Z,,0,,,2913.8829999996233,completion,,,,,false,,,,412022.9000000004,412022.5999999996,409092.051,409094.7000000002,409108.717,412025.947,8,400,,,
trial,html.Screen,4_83_0,2023-09-12T21:53:18.979Z,,0,2,,3170.0530000000144,response,ISIC_9234944.JPG,8,ISIC_0031883.JPG,ISIC_0031883.JPG,false,0,keypress(z),500,415196.4000000004,415196,412009.281,412023.0999999996,412025.947,415209.153,8,400,34,,ISIC_9234944.JPG
break,html.Screen,4_83_1,2023-09-12T21:53:18.980Z,,0,,,NaN,,,,,,false,,,,415197.5,415197.2999999998,,415196.7999999998,,415209.153,8,400,,,
break_continue,html.Screen,4_83_2,2023-09-12T21:53:18.980Z,,0,,,NaN,,,,,,false,,,,415197.7999999998,415197.7000000002,,415197.5999999996,,415209.153,8,400,,,
sequence,flow.Sequence,4_83,2023-09-12T21:53:18.981Z,,0,,,3171.7530000002007,completion,,,,,false,,,,415198,415197.7000000002,412009.281,412023,412025.947,415209.153,8,400,,,
trial,html.Screen,4_84_0,2023-09-12T21:53:21.754Z,,0,2,,2762.047000000195,response,ISIC_0069105.JPG,7,ISIC_2106823.JPG,ISIC_0069105.JPG,false,1,keypress(m),500,417971.5,417971.2000000002,415192.487,415198.2000000002,415209.153,417975.709,8,400,35,,ISIC_2106823.JPG
break,html.Screen,4_84_1,2023-09-12T21:53:21.755Z,,0,,,NaN,,,,,,false,,,,417972.5999999996,417972.4000000004,,417971.9000000004,,417975.709,8,400,,,
break_continue,html.Screen,4_84_2,2023-09-12T21:53:21.755Z,,0,,,NaN,,,,,,false,,,,417973,417972.7999999998,,417972.7999999998,,417975.709,8,400,,,
sequence,flow.Sequence,4_84,2023-09-12T21:53:21.756Z,,0,,,2763.6469999998226,completion,,,,,false,,,,417973.0999999996,417972.7999999998,415192.487,415198.0999999996,415209.153,417975.709,8,400,,,
trial,html.Screen,4_85_0,2023-09-12T21:53:24.798Z,,0,2,,3039.491000000213,response,ISIC_2843245.JPG,8,ISIC_0034053.JPG,ISIC_2843245.JPG,false,1,keypress(m),500,421015.7000000002,421015.2000000002,417959.043,417973.2999999998,417975.709,421026.367,8,400,36,,ISIC_0034053.JPG
break,html.Screen,4_85_1,2023-09-12T21:53:24.799Z,,0,,,NaN,,,,,,false,,,,421016.7000000002,421016.5,,421016,,421026.367,8,400,,,
break_continue,html.Screen,4_85_2,2023-09-12T21:53:24.799Z,,0,,,NaN,,,,,,false,,,,421017.0999999996,421017,,421016.9000000004,,421026.367,8,400,,,
sequence,flow.Sequence,4_85,2023-09-12T21:53:24.800Z,,0,,,3041.2910000000265,completion,,,,,false,,,,421017.2000000002,421017,417959.043,417973.2999999998,417975.709,421026.367,8,400,,,
trial,html.Screen,4_86_0,2023-09-12T21:53:28.387Z,,0,2,,3578.4329999997863,response,ISIC_0062546.JPG,5,ISIC_0024236.JPG,ISIC_0062546.JPG,false,1,keypress(m),500,424605.0999999996,424604.7999999998,421009.701,421017.5,421026.367,424609.557,8,400,37,,ISIC_0024236.JPG
break,html.Screen,4_86_1,2023-09-12T21:53:28.388Z,,0,,,NaN,,,,,,false,,,,424606.2000000002,424606,,424605.5,,424609.557,8,400,,,
break_continue,html.Screen,4_86_2,2023-09-12T21:53:28.389Z,,0,,,NaN,,,,,,false,,,,424606.5,424606.4000000004,,424606.2999999998,,424609.557,8,400,,,
sequence,flow.Sequence,4_86,2023-09-12T21:53:28.389Z,,0,,,3580.033000000345,completion,,,,,false,,,,424606.7000000002,424606.4000000004,421009.701,421017.2999999998,421026.367,424609.557,8,400,,,
trial,html.Screen,4_87_0,2023-09-12T21:53:31.705Z,,0,2,,3312.843000000401,response,ISIC_9169586.JPG,7,ISIC_7017547.JPG,ISIC_7017547.JPG,false,0,keypress(z),500,427922.9000000004,427922.4000000004,424592.891,424606.9000000004,424609.557,427942.757,8,400,38,,ISIC_9169586.JPG
break,html.Screen,4_87_1,2023-09-12T21:53:31.706Z,,0,,,NaN,,,,,,false,,,,427924,427923.7000000002,,427923.2999999998,,427942.757,8,400,,,
break_continue,html.Screen,4_87_2,2023-09-12T21:53:31.706Z,,0,,,NaN,,,,,,false,,,,427924.2999999998,427924.2000000002,,427924.0999999996,,427942.757,8,400,,,
sequence,flow.Sequence,4_87,2023-09-12T21:53:31.707Z,,0,,,3314.6430000002147,completion,,,,,false,,,,427924.4000000004,427924.2000000002,424592.891,424606.9000000004,424609.557,427942.757,8,400,,,
trial,html.Screen,4_88_0,2023-09-12T21:53:34.896Z,,0,2,,3170.6430000003893,response,ISIC_0027101.JPG,8,ISIC_0030119.JPG,ISIC_0030119.JPG,false,0,keypress(z),500,431113.7000000002,431113.4000000004,427926.091,427924.7000000002,427942.757,431126.573,8,400,39,,ISIC_0027101.JPG
break,html.Screen,4_88_1,2023-09-12T21:53:34.897Z,,0,,,NaN,,,,,,false,,,,431114.7999999998,431114.5999999996,,431114.0999999996,,431126.573,8,400,,,
break_continue,html.Screen,4_88_2,2023-09-12T21:53:34.897Z,,0,,,NaN,,,,,,false,,,,431115.0999999996,431115,,431114.9000000004,,431126.573,8,400,,,
sequence,flow.Sequence,4_88,2023-09-12T21:53:34.897Z,,0,,,3172.2430000000168,completion,,,,,false,,,,431115.2999999998,431115,427926.091,427924.5999999996,427942.757,431126.573,8,400,,,
trial,html.Screen,4_89_0,2023-09-12T21:53:37.786Z,,0,2,,2877.3270000003977,response,ISIC_2841488.JPG,6,ISIC_0011984.JPG,ISIC_0011984.JPG,false,0,keypress(z),500,434004.2999999998,434003.9000000004,431109.907,431115.4000000004,431126.573,434009.791,8,400,40,,ISIC_2841488.JPG
break,html.Screen,4_89_1,2023-09-12T21:53:37.787Z,,0,,,NaN,,,,,,false,,,,434005.2999999998,434005.0999999996,,434004.5999999996,,434009.791,8,400,,,
break_continue,html.Screen,4_89_2,2023-09-12T21:53:37.788Z,,0,,,NaN,,,,,,false,,,,434005.7000000002,434005.5,,434005.4000000004,,434009.791,8,400,,,
sequence,flow.Sequence,4_89,2023-09-12T21:53:37.788Z,,0,,,2878.927000000025,completion,,,,,false,,,,434005.9000000004,434005.5,431109.907,431115.2999999998,431126.573,434009.791,8,400,,,
trial,html.Screen,4_90_0,2023-09-12T21:53:40.427Z,,0,2,,2634.9090000001597,response,ISIC_2927587.JPG,7,ISIC_5048124.JPG,ISIC_5048124.JPG,false,0,keypress(z),500,436645.2000000002,436644.7000000002,433993.125,434006,434009.791,436659.685,8,400,41,,ISIC_2927587.JPG
break,html.Screen,4_90_1,2023-09-12T21:53:40.429Z,,0,,,NaN,,,,,,false,,,,436646.7000000002,436645.9000000004,,436645.5,,436659.685,8,400,,,
break_continue,html.Screen,4_90_2,2023-09-12T21:53:40.429Z,,0,,,NaN,,,,,,false,,,,436647.5999999996,436647.2000000002,,436646.9000000004,,436659.685,8,400,,,
sequence,flow.Sequence,4_90,2023-09-12T21:53:40.430Z,,0,,,2637.4090000001597,completion,,,,,false,,,,436647.7999999998,436647.2000000002,433993.125,434006,434009.791,436659.685,8,400,,,
trial,html.Screen,4_91_0,2023-09-12T21:53:44.099Z,,0,2,,3656.8150000000023,response,ISIC_9518180.JPG,8,ISIC_0030843.JPG,ISIC_0030843.JPG,false,0,keypress(z),500,440317,440316.5,436643.019,436647.9000000004,436659.685,440326.205,8,400,42,,ISIC_9518180.JPG
break,html.Screen,4_91_1,2023-09-12T21:53:44.100Z,,0,,,NaN,,,,,,false,,,,440318,440317.7000000002,,440317.2999999998,,440326.205,8,400,,,
break_continue,html.Screen,4_91_2,2023-09-12T21:53:44.100Z,,0,,,NaN,,,,,,false,,,,440318.4000000004,440318.2000000002,,440318.0999999996,,440326.205,8,400,,,
sequence,flow.Sequence,4_91,2023-09-12T21:53:44.100Z,,0,,,3658.5150000001886,completion,,,,,false,,,,440318.5,440318.2000000002,436643.019,436647.9000000004,436659.685,440326.205,8,400,,,
trial,html.Screen,4_92_0,2023-09-12T21:53:47.943Z,,0,2,,3834.99500000017,response,ISIC_4644299.JPG,6,ISIC_1554992.JPG,ISIC_4644299.JPG,false,1,keypress(m),500,444161.7000000002,444161.2000000002,440309.539,440318.7000000002,440326.205,444176.818,8,400,43,,ISIC_1554992.JPG
break,html.Screen,4_92_1,2023-09-12T21:53:47.944Z,,0,,,NaN,,,,,,false,,,,444162.7000000002,444162.4000000004,,444162,,444176.818,8,400,,,
break_continue,html.Screen,4_92_2,2023-09-12T21:53:47.944Z,,0,,,NaN,,,,,,false,,,,444163,444162.9000000004,,444162.7999999998,,444176.818,8,400,,,
sequence,flow.Sequence,4_92,2023-09-12T21:53:47.945Z,,0,,,3836.6950000003562,completion,,,,,false,,,,444163.2000000002,444162.9000000004,440309.539,440318.7000000002,440326.205,444176.818,8,400,,,
trial,html.Screen,4_93_0,2023-09-12T21:53:50.716Z,,0,2,,2757.582000000344,response,ISIC_0001148.JPG,6,ISIC_1684829.JPG,ISIC_0001148.JPG,false,1,keypress(m),500,446934.9000000004,446934.4000000004,444160.152,444163.2999999998,444176.818,446943.374,8,400,44,,ISIC_1684829.JPG
break,html.Screen,4_93_1,2023-09-12T21:53:50.717Z,,0,,,NaN,,,,,,false,,,,446936,446935.7000000002,,446935.2000000002,,446943.374,8,400,,,
break_continue,html.Screen,4_93_2,2023-09-12T21:53:50.718Z,,0,,,NaN,,,,,,false,,,,446936.4000000004,446936.2000000002,,446936.2000000002,,446943.374,8,400,,,
sequence,flow.Sequence,4_93,2023-09-12T21:53:50.718Z,,0,,,2759.382000000158,completion,,,,,false,,,,446936.5,446936.2000000002,444160.152,444163.2000000002,444176.818,446943.374,8,400,,,
trial,html.Screen,4_94_0,2023-09-12T21:53:55.043Z,,0,2,,4317.425999999803,response,ISIC_0065521.JPG,7,ISIC_7035246.JPG,ISIC_0065521.JPG,false,1,keypress(m),500,451261.4000000004,451260.7999999998,446926.708,446936.5999999996,446943.374,451276.534,8,400,45,,ISIC_7035246.JPG
break,html.Screen,4_94_1,2023-09-12T21:53:55.044Z,,0,,,NaN,,,,,,false,,,,451262.4000000004,451262.2000000002,,451261.7000000002,,451276.534,8,400,,,
break_continue,html.Screen,4_94_2,2023-09-12T21:53:55.044Z,,0,,,NaN,,,,,,false,,,,451262.7999999998,451262.5999999996,,451262.5,,451276.534,8,400,,,
sequence,flow.Sequence,4_94,2023-09-12T21:53:55.044Z,,0,,,4319.225999999617,completion,,,,,false,,,,451263,451262.5999999996,446926.708,446936.5999999996,446943.374,451276.534,8,400,,,
trial,html.Screen,4_95_0,2023-09-12T21:53:59.015Z,,0,2,,3957.0659999996424,response,ISIC_2911251.JPG,5,ISIC_4255013.JPG,ISIC_4255013.JPG,false,0,keypress(z),500,455234.0999999996,455233.5999999996,451259.868,451263.0999999996,451276.534,455243.768,8,400,46,,ISIC_2911251.JPG
break,html.Screen,4_95_1,2023-09-12T21:53:59.016Z,,0,,,NaN,,,,,,false,,,,455235.2000000002,455234.9000000004,,455234.4000000004,,455243.768,8,400,,,
break_continue,html.Screen,4_95_2,2023-09-12T21:53:59.017Z,,0,,,NaN,,,,,,false,,,,455235.5,455235.4000000004,,455235.2999999998,,455243.768,8,400,,,
sequence,flow.Sequence,4_95,2023-09-12T21:53:59.017Z,,0,,,3958.8660000003874,completion,,,,,false,,,,455235.7000000002,455235.4000000004,451259.868,451263,451276.534,455243.768,8,400,,,
trial,html.Screen,4_96_0,2023-09-12T21:54:04.240Z,,0,2,,5215.031999999832,response,ISIC_9014036.JPG,8,ISIC_1578253.JPG,ISIC_1578253.JPG,false,0,keypress(z),500,460459.2999999998,460458.7999999998,455227.102,455235.9000000004,455243.768,460476.892,8,400,47,,ISIC_9014036.JPG
break,html.Screen,4_96_1,2023-09-12T21:54:04.241Z,,0,,,NaN,,,,,,false,,,,460460.4000000004,460460.0999999996,,460459.5999999996,,460476.892,8,400,,,
break_continue,html.Screen,4_96_2,2023-09-12T21:54:04.242Z,,0,,,NaN,,,,,,false,,,,460460.7999999998,460460.5999999996,,460460.5,,460476.892,8,400,,,
sequence,flow.Sequence,4_96,2023-09-12T21:54:04.242Z,,0,,,5216.831999999646,completion,,,,,false,,,,460460.9000000004,460460.5999999996,455227.102,455235.7999999998,455243.768,460476.892,8,400,,,
trial,html.Screen,4_97_0,2023-09-12T21:54:07.063Z,,0,2,,2805.207999999635,response,ISIC_0014428.JPG,8,ISIC_0026544.JPG,ISIC_0014428.JPG,false,1,keypress(m),500,463282.5999999996,463282.0999999996,460460.226,460461,460476.892,463294.074,8,400,48,,ISIC_0026544.JPG
break,html.Screen,4_97_1,2023-09-12T21:54:07.064Z,,0,,,NaN,,,,,,false,,,,463283.5,463283.2999999998,,463282.9000000004,,463294.074,8,400,,,
break_continue,html.Screen,4_97_2,2023-09-12T21:54:07.065Z,,0,,,NaN,,,,,,false,,,,463283.9000000004,463283.7000000002,,463283.5999999996,,463294.074,8,400,,,
sequence,flow.Sequence,4_97,2023-09-12T21:54:07.065Z,,0,,,2806.8080000001937,completion,,,,,false,,,,463284.0999999996,463283.7000000002,460460.226,460461,460476.892,463294.074,8,400,,,
trial,html.Screen,4_98_0,2023-09-12T21:54:09.745Z,,0,2,,2669.525999999605,response,ISIC_3058800.JPG,8,ISIC_0056110.JPG,ISIC_0056110.JPG,false,0,keypress(z),500,465964.0999999996,465963.5999999996,463277.408,463284.2000000002,463294.074,465977.3,8,400,49,,ISIC_3058800.JPG
break,html.Screen,4_98_1,2023-09-12T21:54:09.746Z,,0,,,NaN,,,,,,false,,,,465965.0999999996,465964.9000000004,,465964.4000000004,,465977.3,8,400,,,
break_continue,html.Screen,4_98_2,2023-09-12T21:54:09.746Z,,0,,,NaN,,,,,,false,,,,465965.5,465965.2999999998,,465965.2999999998,,465977.3,8,400,,,
sequence,flow.Sequence,4_98,2023-09-12T21:54:09.746Z,,0,,,2671.2259999997914,completion,,,,,false,,,,465965.5999999996,465965.2999999998,463277.408,463284.0999999996,463294.074,465977.3,8,400,,,
trial,html.Screen,4_99_0,2023-09-12T21:54:12.632Z,,0,2,,2874.299999999639,response,ISIC_8502341.JPG,7,ISIC_0981639.JPG,ISIC_0981639.JPG,false,0,keypress(z),500,468852,468851.5999999996,465960.634,465965.9000000004,465977.3,468860.518,8,400,50,,ISIC_8502341.JPG
break,html.Screen,4_99_1,2023-09-12T21:54:22.629Z,,0,,,10000.353000000003,timeout,,,,,false,,,,478848.5999999996,478844.205,468843.852,468852.2999999998,468860.518,478860.871,8,400,,,
break_continue,html.Screen,4_99_2,2023-09-12T21:54:23.211Z,,0,,,551.6290000000154,response,,,,,false,continue,keypress(Space),,479430.7000000002,479412.5,478844.205,478848.7999999998,478860.871,479444.181,8,400,,,
sequence,flow.Sequence,4_99,2023-09-12T21:54:23.211Z,,0,,,13435.200000000012,completion,,,,,false,,,,479430.7000000002,479412.5,465960.634,465965.7999999998,465977.3,479444.181,8,400,,,
trial,html.Screen,4_100_0,2023-09-12T21:54:29.630Z,,0,3,,6405.118999999831,response,ISIC_5808758.JPG,8,ISIC_0011996.JPG,ISIC_0011996.JPG,false,0,keypress(z),500,485849.7000000002,485849.2999999998,479427.515,479430.9000000004,479444.181,485861.432,8,400,1,,ISIC_5808758.JPG
break,html.Screen,4_100_1,2023-09-12T21:54:29.631Z,,0,,,NaN,,,,,,false,,,,485850.7999999998,485850.5999999996,,485850.0999999996,,485861.432,8,400,,,
break_continue,html.Screen,4_100_2,2023-09-12T21:54:29.631Z,,0,,,NaN,,,,,,false,,,,485851.2000000002,485851,,485850.9000000004,,485861.432,8,400,,,
sequence,flow.Sequence,4_100,2023-09-12T21:54:29.631Z,,0,,,6406.819000000018,completion,,,,,false,,,,485851.2999999998,485851,479427.515,479430.9000000004,479444.181,485861.432,8,400,,,
trial,html.Screen,4_101_0,2023-09-12T21:54:33.234Z,,0,3,,3592.367999999842,response,ISIC_7803163.JPG,7,ISIC_0067458.JPG,ISIC_7803163.JPG,false,1,keypress(m),500,489454.2000000002,489453.7999999998,485844.766,485851.5,485861.432,489461.288,8,400,2,,ISIC_0067458.JPG
break,html.Screen,4_101_1,2023-09-12T21:54:33.235Z,,0,,,NaN,,,,,,false,,,,489455.2000000002,489455,,489454.5,,489461.288,8,400,,,
break_continue,html.Screen,4_101_2,2023-09-12T21:54:33.235Z,,0,,,NaN,,,,,,false,,,,489455.5999999996,489455.5,,489455.4000000004,,489461.288,8,400,,,
sequence,flow.Sequence,4_101,2023-09-12T21:54:33.235Z,,0,,,3594.0680000000284,completion,,,,,false,,,,489455.7999999998,489455.5,485844.766,485851.5,485861.432,489461.288,8,400,,,
trial,html.Screen,4_102_0,2023-09-12T21:54:36.681Z,,0,3,,3439.5119999998133,response,ISIC_0014221.JPG,8,ISIC_0011007.JPG,ISIC_0011007.JPG,false,0,keypress(z),500,492901.2000000002,492900.7999999998,489444.622,489455.7999999998,489461.288,492911.15,8,400,3,,ISIC_0014221.JPG
break,html.Screen,4_102_1,2023-09-12T21:54:36.682Z,,0,,,NaN,,,,,,false,,,,492902.2999999998,492902,,492901.5,,492911.15,8,400,,,
break_continue,html.Screen,4_102_2,2023-09-12T21:54:36.682Z,,0,,,NaN,,,,,,false,,,,492902.7000000002,492902.5,,492902.4000000004,,492911.15,8,400,,,
sequence,flow.Sequence,4_102,2023-09-12T21:54:36.682Z,,0,,,3441.2119999999995,completion,,,,,false,,,,492902.7999999998,492902.5,489444.622,489455.7999999998,489461.288,492911.15,8,400,,,
trial,html.Screen,4_103_0,2023-09-12T21:54:42.016Z,,0,3,,5324.949999999604,response,ISIC_8843592.JPG,8,ISIC_8773685.JPG,ISIC_8773685.JPG,false,0,keypress(z),500,498236.7000000002,498236.0999999996,492894.484,492903,492911.15,498244.996,8,400,4,,ISIC_8843592.JPG
break,html.Screen,4_103_1,2023-09-12T21:54:42.017Z,,0,,,NaN,,,,,,false,,,,498237.7999999998,498237.5,,498237,,498244.996,8,400,,,
break_continue,html.Screen,4_103_2,2023-09-12T21:54:42.018Z,,0,,,NaN,,,,,,false,,,,498238.2999999998,498238.2000000002,,498238,,498244.996,8,400,,,
sequence,flow.Sequence,4_103,2023-09-12T21:54:42.018Z,,0,,,5327.050000000163,completion,,,,,false,,,,498238.5,498238.2000000002,492894.484,492902.9000000004,492911.15,498244.996,8,400,,,
trial,html.Screen,4_104_0,2023-09-12T21:54:46.192Z,,0,3,,4167.704000000202,response,ISIC_6157226.JPG,6,ISIC_1630301.JPG,ISIC_1630301.JPG,false,0,keypress(z),500,502413.2999999998,502412.7000000002,498228.33,498238.5999999996,498244.996,502428.162,8,400,5,,ISIC_6157226.JPG
break,html.Screen,4_104_1,2023-09-12T21:54:46.193Z,,0,,,NaN,,,,,,false,,,,502414.2999999998,502414.0999999996,,502413.5,,502428.162,8,400,,,
break_continue,html.Screen,4_104_2,2023-09-12T21:54:46.194Z,,0,,,NaN,,,,,,false,,,,502414.5999999996,502414.5,,502414.4000000004,,502428.162,8,400,,,
sequence,flow.Sequence,4_104,2023-09-12T21:54:46.194Z,,0,,,4169.504000000015,completion,,,,,false,,,,502414.7999999998,502414.5,498228.33,498238.5999999996,498244.996,502428.162,8,400,,,
trial,html.Screen,4_105_0,2023-09-12T21:54:50.118Z,,0,3,,3910.2380000003614,response,ISIC_3269018.JPG,6,ISIC_0056201.JPG,ISIC_0056201.JPG,false,0,keypress(z),500,506339,506338.4000000004,502411.496,502415,502428.162,506345.451,8,400,6,,ISIC_3269018.JPG
break,html.Screen,4_105_1,2023-09-12T21:54:50.119Z,,0,,,NaN,,,,,,false,,,,506339.9000000004,506339.7999999998,,506339.2000000002,,506345.451,8,400,,,
break_continue,html.Screen,4_105_2,2023-09-12T21:54:50.119Z,,0,,,NaN,,,,,,false,,,,506340.2999999998,506340.2999999998,,506340.0999999996,,506345.451,8,400,,,
sequence,flow.Sequence,4_105,2023-09-12T21:54:50.120Z,,0,,,3912.1379999998026,completion,,,,,false,,,,506340.5,506340.2999999998,502411.496,502414.9000000004,502428.162,506345.451,8,400,,,
trial,html.Screen,4_106_0,2023-09-12T21:54:55.309Z,,0,3,,5183.949000000372,response,ISIC_9175856.JPG,4,ISIC_4951213.JPG,ISIC_4951213.JPG,false,0,keypress(z),500,511529.9000000004,511529.4000000004,506328.785,506340.5999999996,506345.451,511545.243,8,400,7,,ISIC_9175856.JPG
break,html.Screen,4_106_1,2023-09-12T21:54:55.310Z,,0,,,NaN,,,,,,false,,,,511531,511530.7000000002,,511530.2000000002,,511545.243,8,400,,,
break_continue,html.Screen,4_106_2,2023-09-12T21:54:55.310Z,,0,,,NaN,,,,,,false,,,,511531.2999999998,511531.2000000002,,511531.0999999996,,511545.243,8,400,,,
sequence,flow.Sequence,4_106,2023-09-12T21:54:55.310Z,,0,,,5185.749000000185,completion,,,,,false,,,,511531.5,511531.2000000002,506328.785,506340.5999999996,506345.451,511545.243,8,400,,,
trial,html.Screen,4_107_0,2023-09-12T21:54:59.008Z,,0,3,,3683.9570000001695,response,ISIC_0031807.JPG,8,ISIC_0068528.JPG,ISIC_0068528.JPG,false,0,keypress(z),500,515229.7000000002,515229.2000000002,511528.577,511531.7000000002,511545.243,515245.095,8,400,8,,ISIC_0031807.JPG
break,html.Screen,4_107_1,2023-09-12T21:54:59.010Z,,0,,,NaN,,,,,,false,,,,515230.9000000004,515230.5999999996,,515230.0999999996,,515245.095,8,400,,,
break_continue,html.Screen,4_107_2,2023-09-12T21:54:59.010Z,,0,,,NaN,,,,,,false,,,,515231.2999999998,515231.0999999996,,515231,,515245.095,8,400,,,
sequence,flow.Sequence,4_107,2023-09-12T21:54:59.010Z,,0,,,3685.8569999996107,completion,,,,,false,,,,515231.4000000004,515231.0999999996,511528.577,511531.5999999996,511545.243,515245.095,8,400,,,
trial,html.Screen,4_108_0,2023-09-12T21:55:02.815Z,,0,3,,3791.0049999996554,response,ISIC_0000291.JPG,9,ISIC_8160596.JPG,ISIC_0000291.JPG,false,1,keypress(m),500,519036.5,519036.0999999996,515228.429,515231.5999999996,515245.095,519045.586,8,400,9,,ISIC_8160596.JPG
break,html.Screen,4_108_1,2023-09-12T21:55:02.816Z,,0,,,NaN,,,,,,false,,,,519037.5999999996,519037.4000000004,,519036.9000000004,,519045.586,8,400,,,
break_continue,html.Screen,4_108_2,2023-09-12T21:55:02.816Z,,0,,,NaN,,,,,,false,,,,519037.9000000004,519037.7999999998,,519037.7000000002,,519045.586,8,400,,,
sequence,flow.Sequence,4_108,2023-09-12T21:55:02.817Z,,0,,,3792.7049999998417,completion,,,,,false,,,,519038.0999999996,519037.7999999998,515228.429,515231.5,515245.095,519045.586,8,400,,,
trial,html.Screen,4_109_0,2023-09-12T21:55:06.998Z,,0,3,,4173.2139999998035,response,ISIC_1264950.JPG,6,ISIC_3850432.JPG,ISIC_3850432.JPG,false,0,keypress(z),500,523219.2000000002,523218.7999999998,519028.92,519038.2999999998,519045.586,523228.752,8,400,10,,ISIC_1264950.JPG
break,html.Screen,4_109_1,2023-09-12T21:55:06.999Z,,0,,,NaN,,,,,,false,,,,523220.2000000002,523220,,523219.5,,523228.752,8,400,,,
break_continue,html.Screen,4_109_2,2023-09-12T21:55:06.999Z,,0,,,NaN,,,,,,false,,,,523220.5999999996,523220.5,,523220.2999999998,,523228.752,8,400,,,
sequence,flow.Sequence,4_109,2023-09-12T21:55:06.999Z,,0,,,4174.91399999999,completion,,,,,false,,,,523220.7999999998,523220.5,519028.92,519038.2000000002,519045.586,523228.752,8,400,,,
trial,html.Screen,4_110_0,2023-09-12T21:55:12.567Z,,0,3,,5559.148000000394,response,ISIC_8393181.JPG,5,ISIC_1178518.JPG,ISIC_8393181.JPG,false,1,keypress(m),500,528788.5,528787.9000000004,523212.086,523220.9000000004,523228.752,528796.085,8,400,11,,ISIC_1178518.JPG
break,html.Screen,4_110_1,2023-09-12T21:55:12.568Z,,0,,,NaN,,,,,,false,,,,528789.5999999996,528789.4000000004,,528788.7999999998,,528796.085,8,400,,,
break_continue,html.Screen,4_110_2,2023-09-12T21:55:12.568Z,,0,,,NaN,,,,,,false,,,,528790,528789.9000000004,,528789.7000000002,,528796.085,8,400,,,
sequence,flow.Sequence,4_110,2023-09-12T21:55:12.568Z,,0,,,5561.148000000394,completion,,,,,false,,,,528790.2000000002,528789.9000000004,523212.086,523220.9000000004,523228.752,528796.085,8,400,,,
trial,html.Screen,4_111_0,2023-09-12T21:55:16.327Z,,0,3,,3752.6150000002235,response,ISIC_0068168.JPG,5,ISIC_0000487.JPG,ISIC_0000487.JPG,false,0,keypress(z),500,532549.2000000002,532548.7000000002,528779.419,528790.2999999998,528796.085,532562.601,8,400,12,,ISIC_0068168.JPG
break,html.Screen,4_111_1,2023-09-12T21:55:16.328Z,,0,,,NaN,,,,,,false,,,,532550.2000000002,532550,,532549.4000000004,,532562.601,8,400,,,
break_continue,html.Screen,4_111_2,2023-09-12T21:55:16.329Z,,0,,,NaN,,,,,,false,,,,532550.5999999996,532550.4000000004,,532550.4000000004,,532562.601,8,400,,,
sequence,flow.Sequence,4_111,2023-09-12T21:55:16.329Z,,0,,,3754.31500000041,completion,,,,,false,,,,532550.7000000002,532550.4000000004,528779.419,528790.2999999998,528796.085,532562.601,8,400,,,
trial,html.Screen,4_112_0,2023-09-12T21:55:19.885Z,,0,3,,3544.599000000162,response,ISIC_8188797.JPG,8,ISIC_0059929.JPG,ISIC_0059929.JPG,false,0,keypress(z),500,536107.5999999996,536107.2000000002,532545.935,532550.9000000004,532562.601,536112.459,8,400,13,,ISIC_8188797.JPG
break,html.Screen,4_112_1,2023-09-12T21:55:19.886Z,,0,,,NaN,,,,,,false,,,,536108.7000000002,536108.4000000004,,536107.9000000004,,536112.459,8,400,,,
break_continue,html.Screen,4_112_2,2023-09-12T21:55:19.887Z,,0,,,NaN,,,,,,false,,,,536109,536108.7999999998,,536108.7000000002,,536112.459,8,400,,,
sequence,flow.Sequence,4_112,2023-09-12T21:55:19.887Z,,0,,,3546.1989999997895,completion,,,,,false,,,,536109.2000000002,536108.7999999998,532545.935,532550.9000000004,532562.601,536112.459,8,400,,,
trial,html.Screen,4_113_0,2023-09-12T21:55:24.002Z,,0,3,,4111.040999999968,response,ISIC_0472513.JPG,8,ISIC_7161651.JPG,ISIC_7161651.JPG,false,0,keypress(z),500,540224,540223.5,536095.793,536109.2999999998,536112.459,540229.602,8,400,14,,ISIC_0472513.JPG
break,html.Screen,4_113_1,2023-09-12T21:55:24.003Z,,0,,,NaN,,,,,,false,,,,540225,540224.7999999998,,540224.2999999998,,540229.602,8,400,,,
break_continue,html.Screen,4_113_2,2023-09-12T21:55:24.003Z,,0,,,NaN,,,,,,false,,,,540225.4000000004,540225.2999999998,,540225.2000000002,,540229.602,8,400,,,
sequence,flow.Sequence,4_113,2023-09-12T21:55:24.003Z,,0,,,4112.840999999782,completion,,,,,false,,,,540225.5,540225.2999999998,536095.793,536109.2999999998,536112.459,540229.602,8,400,,,
trial,html.Screen,4_114_0,2023-09-12T21:55:27.913Z,,0,3,,3904.997999999672,response,ISIC_5942564.JPG,8,ISIC_9495211.JPG,ISIC_5942564.JPG,false,1,keypress(m),500,544135,544134.5999999996,540212.936,540225.7999999998,540229.602,544146.112,8,400,15,,ISIC_9495211.JPG
break,html.Screen,4_114_1,2023-09-12T21:55:27.914Z,,0,,,NaN,,,,,,false,,,,544136.0999999996,544135.9000000004,,544135.2999999998,,544146.112,8,400,,,
break_continue,html.Screen,4_114_2,2023-09-12T21:55:27.914Z,,0,,,NaN,,,,,,false,,,,544136.5,544136.2999999998,,544136.2000000002,,544146.112,8,400,,,
sequence,flow.Sequence,4_114,2023-09-12T21:55:27.914Z,,0,,,3906.6979999998584,completion,,,,,false,,,,544136.7000000002,544136.2999999998,540212.936,540225.7000000002,540229.602,544146.112,8,400,,,
trial,html.Screen,4_115_0,2023-09-12T21:55:32.224Z,,0,3,,4299.687999999849,response,ISIC_0031953.JPG,7,ISIC_0028641.JPG,ISIC_0028641.JPG,false,0,keypress(z),500,548446.2999999998,548445.7999999998,544129.446,544136.7999999998,544146.112,548462.606,8,400,16,,ISIC_0031953.JPG
break,html.Screen,4_115_1,2023-09-12T21:55:32.225Z,,0,,,NaN,,,,,,false,,,,548447.2999999998,548447.2000000002,,548446.5999999996,,548462.606,8,400,,,
break_continue,html.Screen,4_115_2,2023-09-12T21:55:32.225Z,,0,,,NaN,,,,,,false,,,,548447.7000000002,548447.5999999996,,548447.5,,548462.606,8,400,,,
sequence,flow.Sequence,4_115,2023-09-12T21:55:32.225Z,,0,,,4301.487999999663,completion,,,,,false,,,,548447.9000000004,548447.5999999996,544129.446,544136.7999999998,544146.112,548462.606,8,400,,,
trial,html.Screen,4_116_0,2023-09-12T21:55:35.494Z,,0,3,,3254.193999999785,response,ISIC_0067969.JPG,7,ISIC_0066750.JPG,ISIC_0067969.JPG,false,1,keypress(m),500,551717.2000000002,551716.7999999998,548445.94,548448,548462.606,551729.882,8,400,17,,ISIC_0066750.JPG
break,html.Screen,4_116_1,2023-09-12T21:55:35.495Z,,0,,,NaN,,,,,,false,,,,551718.2999999998,551718,,551717.5999999996,,551729.882,8,400,,,
break_continue,html.Screen,4_116_2,2023-09-12T21:55:35.496Z,,0,,,NaN,,,,,,false,,,,551718.5999999996,551718.5,,551718.4000000004,,551729.882,8,400,,,
sequence,flow.Sequence,4_116,2023-09-12T21:55:35.496Z,,0,,,3255.893999999971,completion,,,,,false,,,,551718.7999999998,551718.5,548445.94,548448,548462.606,551729.882,8,400,,,
trial,html.Screen,4_117_0,2023-09-12T21:55:39.597Z,,0,3,,4090.0180000003893,response,ISIC_2528656.JPG,9,ISIC_1258986.JPG,ISIC_2528656.JPG,false,1,keypress(m),500,555820.4000000004,555819.9000000004,551713.216,551719,551729.882,555829.718,8,400,18,,ISIC_1258986.JPG
break,html.Screen,4_117_1,2023-09-12T21:55:39.598Z,,0,,,NaN,,,,,,false,,,,555821.4000000004,555821.2000000002,,555820.7000000002,,555829.718,8,400,,,
break_continue,html.Screen,4_117_2,2023-09-12T21:55:39.599Z,,0,,,NaN,,,,,,false,,,,555821.7000000002,555821.5999999996,,555821.5,,555829.718,8,400,,,
sequence,flow.Sequence,4_117,2023-09-12T21:55:39.599Z,,0,,,4091.7179999996442,completion,,,,,false,,,,555822,555821.5999999996,551713.216,551718.9000000004,551729.882,555829.718,8,400,,,
trial,html.Screen,4_118_0,2023-09-12T21:55:46.485Z,,0,3,,6877.982000000193,response,ISIC_1200689.JPG,8,ISIC_0031717.JPG,ISIC_0031717.JPG,false,0,keypress(z),500,562708.2000000002,562707.7000000002,555813.052,555822.0999999996,555829.718,562713.672,8,400,19,,ISIC_1200689.JPG
break,html.Screen,4_118_1,2023-09-12T21:55:46.486Z,,0,,,NaN,,,,,,false,,,,562709.2000000002,562709,,562708.5,,562713.672,8,400,,,
break_continue,html.Screen,4_118_2,2023-09-12T21:55:46.486Z,,0,,,NaN,,,,,,false,,,,562709.5999999996,562709.5,,562709.4000000004,,562713.672,8,400,,,
sequence,flow.Sequence,4_118,2023-09-12T21:55:46.487Z,,0,,,6879.7820000000065,completion,,,,,false,,,,562709.7999999998,562709.5,555813.052,555822.0999999996,555829.718,562713.672,8,400,,,
trial,html.Screen,4_119_0,2023-09-12T21:55:50.893Z,,0,3,,4402.3279999999795,response,ISIC_0053594.JPG,5,ISIC_0003851.JPG,ISIC_0053594.JPG,false,1,keypress(m),500,567116.5,567116,562697.006,562709.9000000004,562713.672,567130.162,8,400,20,,ISIC_0003851.JPG
break,html.Screen,4_119_1,2023-09-12T21:55:50.894Z,,0,,,NaN,,,,,,false,,,,567117.5,567117.2999999998,,567116.7999999998,,567130.162,8,400,,,
break_continue,html.Screen,4_119_2,2023-09-12T21:55:50.894Z,,0,,,NaN,,,,,,false,,,,567117.9000000004,567117.7999999998,,567117.5999999996,,567130.162,8,400,,,
sequence,flow.Sequence,4_119,2023-09-12T21:55:50.895Z,,0,,,4404.127999999793,completion,,,,,false,,,,567118,567117.7999999998,562697.006,562709.7999999998,562713.672,567130.162,8,400,,,
trial,html.Screen,4_120_0,2023-09-12T21:55:54.164Z,,0,3,,3256.337999999989,response,ISIC_0013491.JPG,7,ISIC_8671702.JPG,ISIC_0013491.JPG,false,1,keypress(m),500,570387.0999999996,570386.5,567113.496,567118.2000000002,567130.162,570396.698,8,400,21,,ISIC_8671702.JPG
break,html.Screen,4_120_1,2023-09-12T21:55:54.165Z,,0,,,NaN,,,,,,false,,,,570388.2000000002,570388,,570387.5,,570396.698,8,400,,,
break_continue,html.Screen,4_120_2,2023-09-12T21:55:54.165Z,,0,,,NaN,,,,,,false,,,,570388.5999999996,570388.4000000004,,570388.2999999998,,570396.698,8,400,,,
sequence,flow.Sequence,4_120,2023-09-12T21:55:54.165Z,,0,,,3258.2380000003614,completion,,,,,false,,,,570388.7000000002,570388.4000000004,567113.496,567118.2000000002,567130.162,570396.698,8,400,,,
trial,html.Screen,4_121_0,2023-09-12T21:55:57.131Z,,0,3,,2956.9019999996526,response,ISIC_0429825.JPG,5,ISIC_1452549.JPG,ISIC_0429825.JPG,false,1,keypress(m),500,573354.2000000002,573353.5999999996,570380.032,570388.9000000004,570396.698,573363.918,8,400,22,,ISIC_1452549.JPG
break,html.Screen,4_121_1,2023-09-12T21:55:57.132Z,,0,,,NaN,,,,,,false,,,,573355.2999999998,573355.0999999996,,573354.5999999996,,573363.918,8,400,,,
break_continue,html.Screen,4_121_2,2023-09-12T21:55:57.132Z,,0,,,NaN,,,,,,false,,,,573355.7000000002,573355.5999999996,,573355.5,,573363.918,8,400,,,
sequence,flow.Sequence,4_121,2023-09-12T21:55:57.132Z,,0,,,2958.9019999996526,completion,,,,,false,,,,573355.7999999998,573355.5999999996,570380.032,570388.7999999998,570396.698,573363.918,8,400,,,
trial,html.Screen,4_122_0,2023-09-12T21:56:00.911Z,,0,3,,3770.881999999867,response,ISIC_0026438.JPG,8,ISIC_7336383.JPG,ISIC_7336383.JPG,false,0,keypress(z),500,577135.2999999998,577134.7999999998,573347.252,573356,573363.918,577147.1,8,400,23,,ISIC_0026438.JPG
break,html.Screen,4_122_1,2023-09-12T21:56:00.912Z,,0,,,NaN,,,,,,false,,,,577136.2999999998,577136,,577135.5,,577147.1,8,400,,,
break_continue,html.Screen,4_122_2,2023-09-12T21:56:00.913Z,,0,,,NaN,,,,,,false,,,,577136.5999999996,577136.5,,577136.2999999998,,577147.1,8,400,,,
sequence,flow.Sequence,4_122,2023-09-12T21:56:00.913Z,,0,,,3772.582000000053,completion,,,,,false,,,,577136.7000000002,577136.5,573347.252,573356,573363.918,577147.1,8,400,,,
trial,html.Screen,4_123_0,2023-09-12T21:56:03.932Z,,0,3,,3008.300000000396,response,ISIC_0010723.JPG,7,ISIC_7397447.JPG,ISIC_0010723.JPG,false,1,keypress(m),500,580155.7999999998,580155.4000000004,577130.434,577136.9000000004,577147.1,580163.646,8,400,24,,ISIC_7397447.JPG
break,html.Screen,4_123_1,2023-09-12T21:56:03.933Z,,0,,,NaN,,,,,,false,,,,580156.9000000004,580156.7000000002,,580156.0999999996,,580163.646,8,400,,,
break_continue,html.Screen,4_123_2,2023-09-12T21:56:03.933Z,,0,,,NaN,,,,,,false,,,,580157.2999999998,580157.0999999996,,580157,,580163.646,8,400,,,
sequence,flow.Sequence,4_123,2023-09-12T21:56:03.934Z,,0,,,3009.9999999996508,completion,,,,,false,,,,580157.5,580157.0999999996,577130.434,577136.9000000004,577147.1,580163.646,8,400,,,
trial,html.Screen,4_124_0,2023-09-12T21:56:07.220Z,,0,3,,3279.8540000000503,response,ISIC_3073339.JPG,8,ISIC_0029630.JPG,ISIC_0029630.JPG,false,0,keypress(z),500,583444,583443.5,580146.98,580157.5999999996,580163.646,583447.636,8,400,25,,ISIC_3073339.JPG
break,html.Screen,4_124_1,2023-09-12T21:56:07.221Z,,0,,,NaN,,,,,,false,,,,583444.9000000004,583444.7000000002,,583444.2999999998,,583447.636,8,400,,,
break_continue,html.Screen,4_124_2,2023-09-12T21:56:07.221Z,,0,,,NaN,,,,,,false,,,,583445.2999999998,583445.2000000002,,583445,,583447.636,8,400,,,
sequence,flow.Sequence,4_124,2023-09-12T21:56:07.221Z,,0,,,3281.5540000002366,completion,,,,,false,,,,583445.4000000004,583445.2000000002,580146.98,580157.5999999996,580163.646,583447.636,8,400,,,
trial,html.Screen,4_125_0,2023-09-12T21:56:10.136Z,,0,3,,2911.863999999943,response,ISIC_2545299.JPG,8,ISIC_6111078.JPG,ISIC_2545299.JPG,false,1,keypress(m),500,586360,586359.5,583430.97,583445.7000000002,583447.636,586364.186,8,400,26,,ISIC_6111078.JPG
break,html.Screen,4_125_1,2023-09-12T21:56:10.137Z,,0,,,NaN,,,,,,false,,,,586361,586360.7000000002,,586360.2000000002,,586364.186,8,400,,,
break_continue,html.Screen,4_125_2,2023-09-12T21:56:10.137Z,,0,,,NaN,,,,,,false,,,,586361.2999999998,586361.2000000002,,586361.0999999996,,586364.186,8,400,,,
sequence,flow.Sequence,4_125,2023-09-12T21:56:10.137Z,,0,,,2913.5640000001295,completion,,,,,false,,,,586361.4000000004,586361.2000000002,583430.97,583445.5999999996,583447.636,586364.186,8,400,,,
trial,html.Screen,4_126_0,2023-09-12T21:56:13.149Z,,0,3,,3008.9139999996405,response,ISIC_0027867.JPG,8,ISIC_0061152.JPG,ISIC_0027867.JPG,false,1,keypress(m),500,589373.5,589373.0999999996,586347.52,586361.5999999996,586364.186,589380.732,8,400,27,,ISIC_0061152.JPG
break,html.Screen,4_126_1,2023-09-12T21:56:13.150Z,,0,,,NaN,,,,,,false,,,,589374.5,589374.2999999998,,589373.7999999998,,589380.732,8,400,,,
