sender,sender_type,sender_id,timestamp,meta,,blockNo,condition,duration,ended_on,img_left,img_reveal,img_right,loser,practice,response,response_action,selection_duration,time_commit,time_end,time_render,time_run,time_show,time_switch,total_blocks,total_trials,trialNo,url,winner
informed_consent,html.Screen,0,2023-11-06T23:14:34.900Z,"{""labjs_version"":""20.2.4"",""labjs_build"":{""flavor"":""production"",""commit"":""f5b4a49f956347addd546a832a3327688c2c0fef""},""location"":""https://run.pavlovia.org/MurrayBennett/melanoma-2afc/?participant=65958&platform=sona"",""userAgent"":""Mozilla/5.0 (Windows NT 10.0; Win64; x64) AppleWebKit/537.36 (KHTML, like Gecko) Chrome/119.0.0.0 Safari/537.36 Edg/119.0.0.0"",""platform"":""Win32"",""language"":""en-US"",""locale"":""en-US"",""timeZone"":""America/Chicago"",""timezoneOffset"":360,""screen_width"":1536,""screen_height"":1024,""scroll_width"":1528,""scroll_height"":820,""window_innerWidth"":1528,""window_innerHeight"":868,""devicePixelRatio"":1}",,,,7006.856999904632,response,,,,,,consent,click button,,8889.900000095367,8888.599999904633,1865.216,1870.0999999046326,1881.743,8899.531,,,,"{""participant"":""65958"",""platform"":""sona""}",
Welcome,html.Screen,1,2023-11-06T23:14:44.360Z,,,,symmetry,9447.668999809264,response,,,,,,continue,click button,,18349.799999713898,18347.199999809265,8883.081,8890,8899.531,18351.916,,,,,
trial,html.Screen,2_0_0,2023-11-06T23:14:52.764Z,,0,0,,8401.683999904631,response,ISIC_0069348.JPG,,ISIC_6997061.JPG,ISIC_0069348.JPG,true,1,keypress(m),500,26754,26753.599999904633,18342.855,18350.199999809265,18351.916,26771.514,1,6,1,,ISIC_6997061.JPG
sequence,flow.Sequence,2_0,2023-11-06T23:14:52.764Z,,0,,,8401.683999904631,completion,,,,,true,,,,26754.400000095367,26753.599999904633,18342.855,18350.099999904633,18351.916,26771.514,1,6,,,
trial,html.Screen,2_1_0,2023-11-06T23:15:04.271Z,,0,0,,11521.557000000004,timeout,ISIC_0009529.JPG,,ISIC_0057368.JPG,,true,,,500,38261.59999990463,38261.199999809265,26744.237,26754.599999904633,26771.514,38293.071,1,6,2,,
sequence,flow.Sequence,2_1,2023-11-06T23:15:04.272Z,,0,,,11489.685999809266,completion,,,,,true,,,,38261.90000009537,38261.199999809265,26744.237,26754.599999904633,26771.514,38293.071,1,6,,,
trial,html.Screen,2_2_0,2023-11-06T23:15:09.202Z,,0,0,,4898.228999713894,response,ISIC_9758671.JPG,,ISIC_0064954.JPG,ISIC_9758671.JPG,true,1,keypress(m),500,43191.699999809265,43191.2999997139,38276.149,38262.09999990463,38293.071,43204.31,1,6,3,,ISIC_0064954.JPG
sequence,flow.Sequence,2_2,2023-11-06T23:15:09.202Z,,0,,,4898.228999713894,completion,,,,,true,,,,43192.09999990463,43191.2999997139,38276.149,38262.09999990463,38293.071,43204.31,1,6,,,
trial,html.Screen,2_3_0,2023-11-06T23:15:13.813Z,,0,0,,4598.59000009537,response,ISIC_0005785.JPG,,ISIC_0000080.JPG,ISIC_0005785.JPG,true,1,keypress(m),500,47803.199999809265,47802.90000009537,43183.125,43192.40000009537,43204.31,47809.568,1,6,4,,ISIC_0000080.JPG
sequence,flow.Sequence,2_3,2023-11-06T23:15:13.813Z,,0,,,4598.59000009537,completion,,,,,true,,,,47803.699999809265,47802.90000009537,43183.125,43192.2999997139,43204.31,47809.568,1,6,,,
trial,html.Screen,2_4_0,2023-11-06T23:15:19.159Z,,0,0,,5339.332000095368,response,ISIC_7944028.JPG,,ISIC_5390060.JPG,ISIC_5390060.JPG,true,0,keypress(z),500,53149.2999997139,53148.90000009537,47789.103,47803.90000009537,47809.568,53165.68,1,6,5,,ISIC_7944028.JPG
sequence,flow.Sequence,2_4,2023-11-06T23:15:19.159Z,,0,,,5339.332000095368,completion,,,,,true,,,,53149.59999990463,53148.90000009537,47789.103,47803.7999997139,47809.568,53165.68,1,6,,,
trial,html.Screen,2_5_0,2023-11-06T23:15:23.434Z,,0,0,,4257.82,response,ISIC_0794216.JPG,,ISIC_0010188.JPG,ISIC_0010188.JPG,true,0,keypress(z),500,57423.7999997139,57423.5,53135.809,53149.90000009537,53165.68,57434.258,1,6,6,,ISIC_0794216.JPG
sequence,flow.Sequence,2_5,2023-11-06T23:15:23.434Z,,0,,,4257.82,completion,,,,,true,,,,57424.2999997139,57423.5,53135.809,53149.7999997139,53165.68,57434.258,1,6,,,
loop,flow.Loop,2,2023-11-06T23:15:23.434Z,,,,,39071.584,completion,,,,,true,,,,57424.59999990463,57423.5,18342.855,18350.099999904633,18351.916,57434.258,1,6,,,
exp_instructions,html.Screen,3,2023-11-06T23:15:26.946Z,,,,,3501.041999713896,response,,,,,,continue,keypress(Space),,60936.199999809265,60935.2999997139,57424.96,57424.59999990463,57434.258,60954.381,,,,,
trial,html.Screen,4_0_0,2023-11-06T23:15:31.798Z,,0,1,,4833.218999904631,response,ISIC_5519357.JPG,6,ISIC_5065360.JPG,ISIC_5065360.JPG,false,0,keypress(z),500,65787.7999997139,65787.59999990463,60930.283,60936.5,60954.381,65792.471,8,400,1,,ISIC_5519357.JPG
break,html.Screen,4_0_1,2023-11-06T23:15:31.799Z,,0,,,NaN,,,,,,false,,,,65789,65788.69999980927,,65788,,65792.471,8,400,,,
break_continue,html.Screen,4_0_2,2023-11-06T23:15:31.801Z,,0,,,NaN,,,,,,false,,,,65790,65789.90000009537,,65789.59999990463,,65792.471,8,400,,,
sequence,flow.Sequence,4_0,2023-11-06T23:15:31.801Z,,0,,,4835.519000095366,completion,,,,,false,,,,65790.2999997139,65789.90000009537,60930.283,60936.40000009537,60954.381,65792.471,8,400,,,
trial,html.Screen,4_1_0,2023-11-06T23:15:36.172Z,,0,1,,4368.528999999995,response,ISIC_0011039.JPG,5,ISIC_0345607.JPG,ISIC_0011039.JPG,false,1,keypress(m),500,70161.19999980927,70161,65783.208,65790.40000009537,65792.471,70172.073,8,400,2,,ISIC_0345607.JPG
break,html.Screen,4_1_1,2023-11-06T23:15:36.173Z,,0,,,NaN,,,,,,false,,,,70162.09999990463,70161.7999997139,,70161.5,,70172.073,8,400,,,
break_continue,html.Screen,4_1_2,2023-11-06T23:15:36.173Z,,0,,,NaN,,,,,,false,,,,70162.40000009537,70162.19999980927,,70162.19999980927,,70172.073,8,400,,,
sequence,flow.Sequence,4_1,2023-11-06T23:15:36.173Z,,0,,,4369.72899980926,completion,,,,,false,,,,70162.59999990463,70162.19999980927,65783.208,65790.2999997139,65792.471,70172.073,8,400,,,
trial,html.Screen,4_2_0,2023-11-06T23:15:39.872Z,,0,1,,3689.426999999996,response,ISIC_5204408.JPG,5,ISIC_5789052.JPG,ISIC_5204408.JPG,false,1,keypress(m),500,73861.7999997139,73861.5,70152.786,70162.7999997139,70172.073,73874.365,8,400,3,,ISIC_5789052.JPG
break,html.Screen,4_2_1,2023-11-06T23:15:39.873Z,,0,,,NaN,,,,,,false,,,,73862.69999980927,73862.5,,73862,,73874.365,8,400,,,
break_continue,html.Screen,4_2_2,2023-11-06T23:15:39.874Z,,0,,,NaN,,,,,,false,,,,73863.19999980927,73863.09999990463,,73862.90000009537,,73874.365,8,400,,,
sequence,flow.Sequence,4_2,2023-11-06T23:15:39.874Z,,0,,,3691.0269999046286,completion,,,,,false,,,,73863.5,73863.09999990463,70152.786,70162.7999997139,70172.073,73874.365,8,400,,,
trial,html.Screen,4_3_0,2023-11-06T23:15:43.668Z,,0,1,,3782.9349997138925,response,ISIC_5140952.JPG,5,ISIC_0014422.JPG,ISIC_5140952.JPG,false,1,keypress(m),500,77657.5,77657.2999997139,73849.764,73863.59999990463,73874.365,77662.166,8,400,4,,ISIC_0014422.JPG
break,html.Screen,4_3_1,2023-11-06T23:15:43.669Z,,0,,,NaN,,,,,,false,,,,77658.2999997139,77658.19999980927,,77657.7999997139,,77662.166,8,400,,,
break_continue,html.Screen,4_3_2,2023-11-06T23:15:43.669Z,,0,,,NaN,,,,,,false,,,,77658.69999980927,77658.69999980927,,77658.59999990463,,77662.166,8,400,,,
sequence,flow.Sequence,4_3,2023-11-06T23:15:43.670Z,,0,,,3784.33499980926,completion,,,,,false,,,,77659,77658.69999980927,73849.764,73863.5,73874.365,77662.166,8,400,,,
trial,html.Screen,4_4_0,2023-11-06T23:15:47.111Z,,0,1,,3438.1339997139003,response,ISIC_6533176.JPG,6,ISIC_3444719.JPG,ISIC_3444719.JPG,false,0,keypress(z),500,81100.59999990463,81100.2999997139,77652.722,77659.19999980927,77662.166,81111.111,8,400,5,,ISIC_6533176.JPG
break,html.Screen,4_4_1,2023-11-06T23:15:47.112Z,,0,,,NaN,,,,,,false,,,,81101.2999997139,81101.19999980927,,81100.7999997139,,81111.111,8,400,,,
break_continue,html.Screen,4_4_2,2023-11-06T23:15:47.112Z,,0,,,NaN,,,,,,false,,,,81101.69999980927,81101.59999990463,,81101.5,,81111.111,8,400,,,
sequence,flow.Sequence,4_4,2023-11-06T23:15:47.113Z,,0,,,3439.433999904635,completion,,,,,false,,,,81102,81101.59999990463,77652.722,77659.09999990463,77662.166,81111.111,8,400,,,
trial,html.Screen,4_5_0,2023-11-06T23:15:50.667Z,,0,1,,3544.789000095363,response,ISIC_6285925.JPG,5,ISIC_0071135.JPG,ISIC_6285925.JPG,false,1,keypress(m),500,84656.19999980927,84655.90000009537,81097.148,81102.19999980927,81111.111,84676.465,8,400,6,,ISIC_0071135.JPG
break,html.Screen,4_5_1,2023-11-06T23:15:50.667Z,,0,,,NaN,,,,,,false,,,,84657,84656.7999997139,,84656.2999997139,,84676.465,8,400,,,
break_continue,html.Screen,4_5_2,2023-11-06T23:15:50.668Z,,0,,,NaN,,,,,,false,,,,84657.40000009537,84657.19999980927,,84657.19999980927,,84676.465,8,400,,,
sequence,flow.Sequence,4_5,2023-11-06T23:15:50.668Z,,0,,,3546.0889998092607,completion,,,,,false,,,,84657.59999990463,84657.19999980927,81097.148,81102.09999990463,81111.111,84676.465,8,400,,,
trial,html.Screen,4_6_0,2023-11-06T23:15:54.046Z,,0,1,,3358.634999904636,response,ISIC_0028788.JPG,5,ISIC_4851652.JPG,ISIC_4851652.JPG,false,0,keypress(z),500,88035.40000009537,88035.09999990463,84644.062,84657.7999997139,84676.465,88040.434,8,400,7,,ISIC_0028788.JPG
break,html.Screen,4_6_1,2023-11-06T23:15:54.047Z,,0,,,NaN,,,,,,false,,,,88036.09999990463,88035.7999997139,,88035.59999990463,,88040.434,8,400,,,
break_continue,html.Screen,4_6_2,2023-11-06T23:15:54.047Z,,0,,,NaN,,,,,,false,,,,88036.40000009537,88036.2999997139,,88036.19999980927,,88040.434,8,400,,,
sequence,flow.Sequence,4_6,2023-11-06T23:15:54.047Z,,0,,,3359.834999713901,completion,,,,,false,,,,88036.59999990463,88036.2999997139,84644.062,84657.59999990463,84676.465,88040.434,8,400,,,
trial,html.Screen,4_7_0,2023-11-06T23:15:57.153Z,,0,1,,3101.9660000953736,response,ISIC_0015208.JPG,5,ISIC_0058206.JPG,ISIC_0058206.JPG,false,0,keypress(z),500,91142.69999980927,91142.40000009537,88024.562,88036.69999980927,88040.434,91159.231,8,400,8,,ISIC_0015208.JPG
break,html.Screen,4_7_1,2023-11-06T23:15:57.154Z,,0,,,NaN,,,,,,false,,,,91143.40000009537,91143.2999997139,,91142.7999997139,,91159.231,8,400,,,
break_continue,html.Screen,4_7_2,2023-11-06T23:15:57.154Z,,0,,,NaN,,,,,,false,,,,91143.69999980927,91143.69999980927,,91143.5,,91159.231,8,400,,,
sequence,flow.Sequence,4_7,2023-11-06T23:15:57.154Z,,0,,,3103.2659998092713,completion,,,,,false,,,,91143.90000009537,91143.69999980927,88024.562,88036.69999980927,88040.434,91159.231,8,400,,,
trial,html.Screen,4_8_0,2023-11-06T23:16:01.077Z,,0,1,,3906.9689998092654,response,ISIC_0030481.JPG,6,ISIC_6973257.JPG,ISIC_6973257.JPG,false,0,keypress(z),500,95066.40000009537,95066.19999980927,91142.518,91144,91159.231,95076.286,8,400,9,,ISIC_0030481.JPG
break,html.Screen,4_8_1,2023-11-06T23:16:01.078Z,,0,,,NaN,,,,,,false,,,,95067.40000009537,95067,,95066.59999990463,,95076.286,8,400,,,
break_continue,html.Screen,4_8_2,2023-11-06T23:16:01.078Z,,0,,,NaN,,,,,,false,,,,95067.90000009537,95067.7999997139,,95067.59999990463,,95076.286,8,400,,,
sequence,flow.Sequence,4_8,2023-11-06T23:16:01.079Z,,0,,,3908.568999713898,completion,,,,,false,,,,95068.09999990463,95067.7999997139,91142.518,91143.90000009537,91159.231,95076.286,8,400,,,
trial,html.Screen,4_9_0,2023-11-06T23:16:04.553Z,,0,1,,3466.013999713905,response,ISIC_0148751.JPG,5,ISIC_7505369.JPG,ISIC_0148751.JPG,false,1,keypress(m),500,98542.59999990463,98542.2999997139,95060.873,95068.19999980927,95076.286,98546.929,8,400,10,,ISIC_7505369.JPG
break,html.Screen,4_9_1,2023-11-06T23:16:04.554Z,,0,,,NaN,,,,,,false,,,,98543.59999990463,98543.2999997139,,98542.7999997139,,98546.929,8,400,,,
break_continue,html.Screen,4_9_2,2023-11-06T23:16:04.554Z,,0,,,NaN,,,,,,false,,,,98543.90000009537,98543.90000009537,,98543.69999980927,,98546.929,8,400,,,
sequence,flow.Sequence,4_9,2023-11-06T23:16:04.555Z,,0,,,3467.6140000953746,completion,,,,,false,,,,98544.09999990463,98543.90000009537,95060.873,95068.19999980927,95076.286,98546.929,8,400,,,
trial,html.Screen,4_10_0,2023-11-06T23:16:07.789Z,,0,1,,3231.5709999999963,response,ISIC_9579922.JPG,4,ISIC_0054892.JPG,ISIC_0054892.JPG,false,0,keypress(z),500,101778.7999997139,101778.5,98536.698,98544.2999997139,98546.929,101797.794,8,400,11,,ISIC_9579922.JPG
break,html.Screen,4_10_1,2023-11-06T23:16:07.790Z,,0,,,NaN,,,,,,false,,,,101779.59999990463,101779.40000009537,,101779,,101797.794,8,400,,,
break_continue,html.Screen,4_10_2,2023-11-06T23:16:07.790Z,,0,,,NaN,,,,,,false,,,,101780,101779.90000009537,,101779.69999980927,,101797.794,8,400,,,
sequence,flow.Sequence,4_10,2023-11-06T23:16:07.791Z,,0,,,3232.9710000953637,completion,,,,,false,,,,101780.09999990463,101779.90000009537,98536.698,98544.2999997139,98546.929,101797.794,8,400,,,
trial,html.Screen,4_11_0,2023-11-06T23:16:11.409Z,,0,1,,3600.305999904638,response,ISIC_0069292.JPG,5,ISIC_0226072.JPG,ISIC_0226072.JPG,false,0,keypress(z),500,105398.2999997139,105398.09999990463,101769.817,101780.40000009537,101797.794,105408.055,8,400,12,,ISIC_0069292.JPG
break,html.Screen,4_11_1,2023-11-06T23:16:11.410Z,,0,,,NaN,,,,,,false,,,,105399.09999990463,105398.90000009537,,105398.59999990463,,105408.055,8,400,,,
break_continue,html.Screen,4_11_2,2023-11-06T23:16:11.410Z,,0,,,NaN,,,,,,false,,,,105399.40000009537,105399.2999997139,,105399.19999980927,,105408.055,8,400,,,
sequence,flow.Sequence,4_11,2023-11-06T23:16:11.410Z,,0,,,3601.5059997139033,completion,,,,,false,,,,105399.59999990463,105399.2999997139,101769.817,101780.2999997139,101797.794,105408.055,8,400,,,
trial,html.Screen,4_12_0,2023-11-06T23:16:14.804Z,,0,1,,3385.3450000953744,response,ISIC_5358548.JPG,5,ISIC_8041078.JPG,ISIC_8041078.JPG,false,0,keypress(z),500,108793.69999980927,108793.40000009537,105387.635,105399.69999980927,105408.055,108796.286,8,400,13,,ISIC_5358548.JPG
break,html.Screen,4_12_1,2023-11-06T23:16:14.805Z,,0,,,NaN,,,,,,false,,,,108794.5,108794.19999980927,,108793.90000009537,,108796.286,8,400,,,
break_continue,html.Screen,4_12_2,2023-11-06T23:16:14.805Z,,0,,,NaN,,,,,,false,,,,108794.90000009537,108794.7999997139,,108794.59999990463,,108796.286,8,400,,,
sequence,flow.Sequence,4_12,2023-11-06T23:16:14.806Z,,0,,,3386.7449997139047,completion,,,,,false,,,,108795.09999990463,108794.7999997139,105387.635,105399.69999980927,105408.055,108796.286,8,400,,,
trial,html.Screen,4_13_0,2023-11-06T23:16:18.008Z,,0,1,,3200.714000000007,response,ISIC_7811951.JPG,5,ISIC_0010175.JPG,ISIC_7811951.JPG,false,1,keypress(m),500,111997.2999997139,111997,108779.886,108795.19999980927,108796.286,112001.765,8,400,14,,ISIC_0010175.JPG
break,html.Screen,4_13_1,2023-11-06T23:16:18.009Z,,0,,,NaN,,,,,,false,,,,111998,111997.7999997139,,111997.40000009537,,112001.765,8,400,,,
break_continue,html.Screen,4_13_2,2023-11-06T23:16:18.009Z,,0,,,NaN,,,,,,false,,,,111998.5,111998.2999997139,,111998.2999997139,,112001.765,8,400,,,
sequence,flow.Sequence,4_13,2023-11-06T23:16:18.009Z,,0,,,3202.013999713905,completion,,,,,false,,,,111998.59999990463,111998.2999997139,108779.886,108795.09999990463,108796.286,112001.765,8,400,,,
trial,html.Screen,4_14_0,2023-11-06T23:16:21.435Z,,0,1,,3422.2350000000006,response,ISIC_4907595.JPG,6,ISIC_0046323.JPG,ISIC_4907595.JPG,false,1,keypress(m),500,115424.19999980927,115424,111995.002,111998.7999997139,112001.765,115449.72,8,400,15,,ISIC_0046323.JPG
break,html.Screen,4_14_1,2023-11-06T23:16:21.436Z,,0,,,NaN,,,,,,false,,,,115425.09999990463,115424.90000009537,,115424.5,,115449.72,8,400,,,
break_continue,html.Screen,4_14_2,2023-11-06T23:16:21.436Z,,0,,,NaN,,,,,,false,,,,115425.5,115425.40000009537,,115425.19999980927,,115449.72,8,400,,,
sequence,flow.Sequence,4_14,2023-11-06T23:16:21.436Z,,0,,,3423.635000095368,completion,,,,,false,,,,115425.69999980927,115425.40000009537,111995.002,111998.7999997139,112001.765,115449.72,8,400,,,
trial,html.Screen,4_15_0,2023-11-06T23:16:24.559Z,,0,1,,3098.0799997138965,response,ISIC_0069248.JPG,5,ISIC_0011802.JPG,ISIC_0069248.JPG,false,1,keypress(m),500,118548,118547.7999997139,115433.303,115425.90000009537,115449.72,118552.568,8,400,16,,ISIC_0011802.JPG
break,html.Screen,4_15_1,2023-11-06T23:16:24.559Z,,0,,,NaN,,,,,,false,,,,118548.7999997139,118548.59999990463,,118548.2999997139,,118552.568,8,400,,,
break_continue,html.Screen,4_15_2,2023-11-06T23:16:24.560Z,,0,,,NaN,,,,,,false,,,,118549.09999990463,118549.09999990463,,118548.90000009537,,118552.568,8,400,,,
sequence,flow.Sequence,4_15,2023-11-06T23:16:24.560Z,,0,,,3099.3799999046314,completion,,,,,false,,,,118549.2999997139,118549.09999990463,115433.303,115425.7999997139,115449.72,118552.568,8,400,,,
trial,html.Screen,4_16_0,2023-11-06T23:16:28.098Z,,0,1,,3534.4320000000007,response,ISIC_0069669.JPG,4,ISIC_2436560.JPG,ISIC_2436560.JPG,false,0,keypress(z),500,122087.2999997139,122087,118534.619,118549.40000009537,118552.568,122091.89,8,400,17,,ISIC_0069669.JPG
break,html.Screen,4_16_1,2023-11-06T23:16:28.098Z,,0,,,NaN,,,,,,false,,,,122088.09999990463,122087.90000009537,,122087.5,,122091.89,8,400,,,
break_continue,html.Screen,4_16_2,2023-11-06T23:16:28.099Z,,0,,,NaN,,,,,,false,,,,122088.5,122088.2999997139,,122088.19999980927,,122091.89,8,400,,,
sequence,flow.Sequence,4_16,2023-11-06T23:16:28.099Z,,0,,,3535.7319997138984,completion,,,,,false,,,,122088.69999980927,122088.2999997139,118534.619,118549.40000009537,118552.568,122091.89,8,400,,,
trial,html.Screen,4_17_0,2023-11-06T23:16:31.157Z,,0,1,,3054.3099998092657,response,ISIC_1977265.JPG,5,ISIC_0029112.JPG,ISIC_0029112.JPG,false,0,keypress(z),500,125146.5,125146.19999980927,122076.012,122088.7999997139,122091.89,125153.094,8,400,18,,ISIC_1977265.JPG
break,html.Screen,4_17_1,2023-11-06T23:16:31.158Z,,0,,,NaN,,,,,,false,,,,125147.19999980927,125147,,125146.69999980927,,125153.094,8,400,,,
break_continue,html.Screen,4_17_2,2023-11-06T23:16:31.158Z,,0,,,NaN,,,,,,false,,,,125147.5,125147.5,,125147.2999997139,,125153.094,8,400,,,
sequence,flow.Sequence,4_17,2023-11-06T23:16:31.158Z,,0,,,3055.6100000000006,completion,,,,,false,,,,125147.7999997139,125147.5,122076.012,122088.7999997139,122091.89,125153.094,8,400,,,
trial,html.Screen,4_18_0,2023-11-06T23:16:35.016Z,,0,1,,3852.4060000000027,response,ISIC_0061630.JPG,5,ISIC_6792899.JPG,ISIC_0061630.JPG,false,1,keypress(m),500,129005.90000009537,129005.5,125141.881,125148,125153.094,129022.218,8,400,19,,ISIC_6792899.JPG
break,html.Screen,4_18_1,2023-11-06T23:16:35.017Z,,0,,,NaN,,,,,,false,,,,129006.59999990463,129006.40000009537,,129006,,129022.218,8,400,,,
break_continue,html.Screen,4_18_2,2023-11-06T23:16:35.017Z,,0,,,NaN,,,,,,false,,,,129007.09999990463,129006.90000009537,,129006.7999997139,,129022.218,8,400,,,
sequence,flow.Sequence,4_18,2023-11-06T23:16:35.017Z,,0,,,3853.80600009537,completion,,,,,false,,,,129007.19999980927,129006.90000009537,125141.881,125148,125153.094,129022.218,8,400,,,
trial,html.Screen,4_19_0,2023-11-06T23:16:38.396Z,,0,1,,3363.381999904639,response,ISIC_0033653.JPG,5,ISIC_0059948.JPG,ISIC_0059948.JPG,false,0,keypress(z),500,132386,132385.59999990463,128992.205,129007.2999997139,129022.218,132401.545,8,400,20,,ISIC_0033653.JPG
break,html.Screen,4_19_1,2023-11-06T23:16:38.397Z,,0,,,NaN,,,,,,false,,,,132386.69999980927,132386.5,,132386.19999980927,,132401.545,8,400,,,
break_continue,html.Screen,4_19_2,2023-11-06T23:16:38.397Z,,0,,,NaN,,,,,,false,,,,132387,132387,,132386.90000009537,,132401.545,8,400,,,
sequence,flow.Sequence,4_19,2023-11-06T23:16:38.398Z,,0,,,3364.7820000000065,completion,,,,,false,,,,132387.19999980927,132387,128992.205,129007.2999997139,129022.218,132401.545,8,400,,,
trial,html.Screen,4_20_0,2023-11-06T23:16:41.888Z,,0,1,,3475.454999999987,response,ISIC_8359258.JPG,6,ISIC_0024840.JPG,ISIC_0024840.JPG,false,0,keypress(z),500,135877.19999980927,135877,132385.141,132387.2999997139,132401.545,135881.509,8,400,21,,ISIC_8359258.JPG
break,html.Screen,4_20_1,2023-11-06T23:16:41.888Z,,0,,,NaN,,,,,,false,,,,135878,135877.7999997139,,135877.5,,135881.509,8,400,,,
break_continue,html.Screen,4_20_2,2023-11-06T23:16:41.889Z,,0,,,NaN,,,,,,false,,,,135878.5,135878.40000009537,,135878.2999997139,,135881.509,8,400,,,
sequence,flow.Sequence,4_20,2023-11-06T23:16:41.889Z,,0,,,3476.8550000953546,completion,,,,,false,,,,135878.69999980927,135878.40000009537,132385.141,132387.2999997139,132401.545,135881.509,8,400,,,
trial,html.Screen,4_21_0,2023-11-06T23:16:45.940Z,,0,1,,4047.491000000009,response,ISIC_1690909.JPG,5,ISIC_0008055.JPG,ISIC_1690909.JPG,false,1,keypress(m),500,139929.19999980927,139929,135865.956,135878.90000009537,135881.509,139934.23,8,400,22,,ISIC_0008055.JPG
break,html.Screen,4_21_1,2023-11-06T23:16:45.940Z,,0,,,NaN,,,,,,false,,,,139930,139929.7999997139,,139929.40000009537,,139934.23,8,400,,,
break_continue,html.Screen,4_21_2,2023-11-06T23:16:45.941Z,,0,,,NaN,,,,,,false,,,,139930.2999997139,139930.19999980927,,139930.09999990463,,139934.23,8,400,,,
sequence,flow.Sequence,4_21,2023-11-06T23:16:45.941Z,,0,,,4048.690999809274,completion,,,,,false,,,,139930.59999990463,139930.19999980927,135865.956,135878.7999997139,135881.509,139934.23,8,400,,,
trial,html.Screen,4_22_0,2023-11-06T23:16:49.911Z,,0,1,,3966.2699999999895,response,ISIC_0059349.JPG,5,ISIC_5926550.JPG,ISIC_0059349.JPG,false,1,keypress(m),500,143900.7999997139,143900.5,139917.957,139930.7999997139,139934.23,143912.355,8,400,23,,ISIC_5926550.JPG
break,html.Screen,4_22_1,2023-11-06T23:16:49.912Z,,0,,,NaN,,,,,,false,,,,143901.59999990463,143901.40000009537,,143901,,143912.355,8,400,,,
break_continue,html.Screen,4_22_2,2023-11-06T23:16:49.912Z,,0,,,NaN,,,,,,false,,,,143902.09999990463,143902,,143901.7999997139,,143912.355,8,400,,,
sequence,flow.Sequence,4_22,2023-11-06T23:16:49.912Z,,0,,,3967.7699999999895,completion,,,,,false,,,,143902.19999980927,143902,139917.957,139930.7999997139,139934.23,143912.355,8,400,,,
trial,html.Screen,4_23_0,2023-11-06T23:16:53.162Z,,0,1,,3238.9449997138872,response,ISIC_0068407.JPG,5,ISIC_8268025.JPG,ISIC_0068407.JPG,false,1,keypress(m),500,147151.5,147151.2999997139,143899.411,143902.19999980927,143912.355,147173.192,8,400,24,,ISIC_8268025.JPG
break,html.Screen,4_23_1,2023-11-06T23:16:53.163Z,,0,,,NaN,,,,,,false,,,,147152.5,147152.19999980927,,147151.7999997139,,147173.192,8,400,,,
break_continue,html.Screen,4_23_2,2023-11-06T23:16:53.163Z,,0,,,NaN,,,,,,false,,,,147152.7999997139,147152.7999997139,,147152.59999990463,,147173.192,8,400,,,
sequence,flow.Sequence,4_23,2023-11-06T23:16:53.163Z,,0,,,3240.4449997138872,completion,,,,,false,,,,147153,147152.7999997139,143899.411,143902.19999980927,143912.355,147173.192,8,400,,,
trial,html.Screen,4_24_0,2023-11-06T23:16:56.605Z,,0,1,,3421.2080000953574,response,ISIC_0062575.JPG,6,ISIC_2410240.JPG,ISIC_0062575.JPG,false,1,keypress(m),500,150594.59999990463,150594.40000009537,147156.625,147153.09999990463,147173.192,150599.75,8,400,25,,ISIC_2410240.JPG
break,html.Screen,4_24_1,2023-11-06T23:16:56.606Z,,0,,,NaN,,,,,,false,,,,150595.40000009537,150595.2999997139,,150595,,150599.75,8,400,,,
break_continue,html.Screen,4_24_2,2023-11-06T23:16:56.606Z,,0,,,NaN,,,,,,false,,,,150596,150595.69999980927,,150595.59999990463,,150599.75,8,400,,,
sequence,flow.Sequence,4_24,2023-11-06T23:16:56.606Z,,0,,,3422.507999809255,completion,,,,,false,,,,150596.19999980927,150595.69999980927,147156.625,147153.09999990463,147173.192,150599.75,8,400,,,
trial,html.Screen,4_25_0,2023-11-06T23:17:01.425Z,,0,1,,4814.650000095367,response,ISIC_0028998.JPG,6,ISIC_0014114.JPG,ISIC_0014114.JPG,false,0,keypress(z),500,155414.59999990463,155414.40000009537,150593.464,150596.2999997139,150599.75,155432.791,8,400,26,,ISIC_0028998.JPG
break,html.Screen,4_25_1,2023-11-06T23:17:01.426Z,,0,,,NaN,,,,,,false,,,,155415.59999990463,155415.2999997139,,155414.90000009537,,155432.791,8,400,,,
break_continue,html.Screen,4_25_2,2023-11-06T23:17:01.426Z,,0,,,NaN,,,,,,false,,,,155415.90000009537,155415.90000009537,,155415.69999980927,,155432.791,8,400,,,
sequence,flow.Sequence,4_25,2023-11-06T23:17:01.426Z,,0,,,4816.150000095367,completion,,,,,false,,,,155416.09999990463,155415.90000009537,150593.464,150596.19999980927,150599.75,155432.791,8,400,,,
trial,html.Screen,4_26_0,2023-11-06T23:17:05.094Z,,0,1,,3650.2090000000026,response,ISIC_5702591.JPG,5,ISIC_0055759.JPG,ISIC_0055759.JPG,false,0,keypress(z),500,159083.19999980927,159083,155409.042,155416.19999980927,155432.791,159101.998,8,400,27,,ISIC_5702591.JPG
break,html.Screen,4_26_1,2023-11-06T23:17:05.094Z,,0,,,NaN,,,,,,false,,,,159084,159083.90000009537,,159083.40000009537,,159101.998,8,400,,,
break_continue,html.Screen,4_26_2,2023-11-06T23:17:05.095Z,,0,,,NaN,,,,,,false,,,,159084.40000009537,159084.19999980927,,159084.09999990463,,159101.998,8,400,,,
sequence,flow.Sequence,4_26,2023-11-06T23:17:05.095Z,,0,,,3651.4089998092677,completion,,,,,false,,,,159084.59999990463,159084.19999980927,155409.042,155416.19999980927,155432.791,159101.998,8,400,,,
trial,html.Screen,4_27_0,2023-11-06T23:17:08.233Z,,0,1,,3120.6019999046403,response,ISIC_0014920.JPG,4,ISIC_0032596.JPG,ISIC_0032596.JPG,false,0,keypress(z),500,162222.7999997139,162222.59999990463,159082.783,159084.7999997139,159101.998,162240.199,8,400,28,,ISIC_0014920.JPG
break,html.Screen,4_27_1,2023-11-06T23:17:08.234Z,,0,,,NaN,,,,,,false,,,,162223.59999990463,162223.40000009537,,162223,,162240.199,8,400,,,
break_continue,html.Screen,4_27_2,2023-11-06T23:17:08.234Z,,0,,,NaN,,,,,,false,,,,162223.90000009537,162223.7999997139,,162223.7999997139,,162240.199,8,400,,,
sequence,flow.Sequence,4_27,2023-11-06T23:17:08.234Z,,0,,,3121.8019997139054,completion,,,,,false,,,,162224.09999990463,162223.7999997139,159082.783,159084.69999980927,159101.998,162240.199,8,400,,,
trial,html.Screen,4_28_0,2023-11-06T23:17:11.564Z,,0,1,,3313.6009997139045,response,ISIC_0065219.JPG,6,ISIC_3578186.JPG,ISIC_0065219.JPG,false,1,keypress(m),500,165554.09999990463,165553.7999997139,162209.954,162224.2999997139,162240.199,165557.154,8,400,29,,ISIC_3578186.JPG
break,html.Screen,4_28_1,2023-11-06T23:17:11.565Z,,0,,,NaN,,,,,,false,,,,165555,165554.7999997139,,165554.40000009537,,165557.154,8,400,,,
break_continue,html.Screen,4_28_2,2023-11-06T23:17:11.566Z,,0,,,NaN,,,,,,false,,,,165555.40000009537,165555.2999997139,,165555.19999980927,,165557.154,8,400,,,
sequence,flow.Sequence,4_28,2023-11-06T23:17:11.566Z,,0,,,3315.1009997139045,completion,,,,,false,,,,165555.69999980927,165555.2999997139,162209.954,162224.19999980927,162240.199,165557.154,8,400,,,
trial,html.Screen,4_29_0,2023-11-06T23:17:15.008Z,,0,1,,3440.246000095358,response,ISIC_3380212.JPG,5,ISIC_5833422.JPG,ISIC_5833422.JPG,false,0,keypress(z),500,168997.59999990463,168997.40000009537,165541.658,165555.7999997139,165557.154,169024.789,8,400,30,,ISIC_3380212.JPG
break,html.Screen,4_29_1,2023-11-06T23:17:15.009Z,,0,,,NaN,,,,,,false,,,,168998.2999997139,168998.19999980927,,168997.90000009537,,169024.789,8,400,,,
break_continue,html.Screen,4_29_2,2023-11-06T23:17:15.009Z,,0,,,NaN,,,,,,false,,,,168998.59999990463,168998.5,,168998.40000009537,,169024.789,8,400,,,
sequence,flow.Sequence,4_29,2023-11-06T23:17:15.009Z,,0,,,3441.3459999999905,completion,,,,,false,,,,168998.7999997139,168998.5,165541.658,165555.7999997139,165557.154,169024.789,8,400,,,
trial,html.Screen,4_30_0,2023-11-06T23:17:18.259Z,,0,1,,3223.7110000000102,response,ISIC_0002041.JPG,5,ISIC_0057656.JPG,ISIC_0057656.JPG,false,0,keypress(z),500,172248.7999997139,172248.5,169008.218,168998.90000009537,169024.789,172253.998,8,400,31,,ISIC_0002041.JPG
break,html.Screen,4_30_1,2023-11-06T23:17:18.260Z,,0,,,NaN,,,,,,false,,,,172249.5,172249.2999997139,,172248.90000009537,,172253.998,8,400,,,
break_continue,html.Screen,4_30_2,2023-11-06T23:17:18.260Z,,0,,,NaN,,,,,,false,,,,172249.90000009537,172249.7999997139,,172249.59999990463,,172253.998,8,400,,,
sequence,flow.Sequence,4_30,2023-11-06T23:17:18.260Z,,0,,,3225.010999713908,completion,,,,,false,,,,172250,172249.7999997139,169008.218,168998.7999997139,169024.789,172253.998,8,400,,,
trial,html.Screen,4_31_0,2023-11-06T23:17:21.975Z,,0,1,,3710.6019999046403,response,ISIC_0028781.JPG,5,ISIC_0000175.JPG,ISIC_0000175.JPG,false,0,keypress(z),500,175964.90000009537,175964.59999990463,172237.351,172251.19999980927,172253.998,175977.956,8,400,32,,ISIC_0028781.JPG
break,html.Screen,4_31_1,2023-11-06T23:17:21.976Z,,0,,,NaN,,,,,,false,,,,175965.59999990463,175965.5,,175965,,175977.956,8,400,,,
break_continue,html.Screen,4_31_2,2023-11-06T23:17:21.976Z,,0,,,NaN,,,,,,false,,,,175966,175965.90000009537,,175965.69999980927,,175977.956,8,400,,,
sequence,flow.Sequence,4_31,2023-11-06T23:17:21.977Z,,0,,,3711.902000095375,completion,,,,,false,,,,175966.2999997139,175965.90000009537,172237.351,172251.19999980927,172253.998,175977.956,8,400,,,
trial,html.Screen,4_32_0,2023-11-06T23:17:25.276Z,,0,1,,3287.143999904627,response,ISIC_0002953.JPG,6,ISIC_5929687.JPG,ISIC_5929687.JPG,false,0,keypress(z),500,179265.2999997139,179265.09999990463,175960.003,175966.40000009537,175977.956,179272.558,8,400,33,,ISIC_0002953.JPG
break,html.Screen,4_32_1,2023-11-06T23:17:25.276Z,,0,,,NaN,,,,,,false,,,,179266.09999990463,179265.90000009537,,179265.5,,179272.558,8,400,,,
break_continue,html.Screen,4_32_2,2023-11-06T23:17:25.277Z,,0,,,NaN,,,,,,false,,,,179266.5,179266.2999997139,,179266.2999997139,,179272.558,8,400,,,
sequence,flow.Sequence,4_32,2023-11-06T23:17:25.277Z,,0,,,3288.343999713892,completion,,,,,false,,,,179266.59999990463,179266.2999997139,175960.003,175966.40000009537,175977.956,179272.558,8,400,,,
trial,html.Screen,4_33_0,2023-11-06T23:17:29.440Z,,0,1,,4156.342000095377,response,ISIC_0732375.JPG,5,ISIC_0063842.JPG,ISIC_0063842.JPG,false,0,keypress(z),500,183429.19999980927,183428.90000009537,179258.97,179266.7999997139,179272.558,183433.748,8,400,34,,ISIC_0732375.JPG
break,html.Screen,4_33_1,2023-11-06T23:17:29.440Z,,0,,,NaN,,,,,,false,,,,183429.90000009537,183429.7999997139,,183429.40000009537,,183433.748,8,400,,,
break_continue,html.Screen,4_33_2,2023-11-06T23:17:29.441Z,,0,,,NaN,,,,,,false,,,,183430.2999997139,183430.19999980927,,183430.09999990463,,183433.748,8,400,,,
sequence,flow.Sequence,4_33,2023-11-06T23:17:29.441Z,,0,,,4157.641999809275,completion,,,,,false,,,,183430.5,183430.19999980927,179258.97,179266.7999997139,179272.558,183433.748,8,400,,,
trial,html.Screen,4_34_0,2023-11-06T23:17:33.187Z,,0,1,,3742.7520000000077,response,ISIC_0002213.JPG,4,ISIC_3336353.JPG,ISIC_0002213.JPG,false,1,keypress(m),500,187176.69999980927,187176.5,183428.383,183430.69999980927,183433.748,187181.182,8,400,35,,ISIC_3336353.JPG
break,html.Screen,4_34_1,2023-11-06T23:17:33.188Z,,0,,,NaN,,,,,,false,,,,187177.5,187177.40000009537,,187176.90000009537,,187181.182,8,400,,,
break_continue,html.Screen,4_34_2,2023-11-06T23:17:33.188Z,,0,,,NaN,,,,,,false,,,,187177.90000009537,187177.7999997139,,187177.59999990463,,187181.182,8,400,,,
sequence,flow.Sequence,4_34,2023-11-06T23:17:33.189Z,,0,,,3744.0519997139054,completion,,,,,false,,,,187178.09999990463,187177.7999997139,183428.383,183430.59999990463,183433.748,187181.182,8,400,,,
trial,html.Screen,4_35_0,2023-11-06T23:17:36.871Z,,0,1,,3678.617999713897,response,ISIC_5538169.JPG,6,ISIC_8943855.JPG,ISIC_8943855.JPG,false,0,keypress(z),500,190860,190859.7999997139,187167.501,187178.2999997139,187181.182,190880.339,8,400,36,,ISIC_5538169.JPG
break,html.Screen,4_35_1,2023-11-06T23:17:36.871Z,,0,,,NaN,,,,,,false,,,,190860.90000009537,190860.69999980927,,190860.2999997139,,190880.339,8,400,,,
break_continue,html.Screen,4_35_2,2023-11-06T23:17:36.872Z,,0,,,NaN,,,,,,false,,,,190861.19999980927,190861.09999990463,,190860.90000009537,,190880.339,8,400,,,
sequence,flow.Sequence,4_35,2023-11-06T23:17:36.872Z,,0,,,3679.917999904632,completion,,,,,false,,,,190861.40000009537,190861.09999990463,187167.501,187178.19999980927,187181.182,190880.339,8,400,,,
trial,html.Screen,4_36_0,2023-11-06T23:17:40.618Z,,0,1,,3726.860999809258,response,ISIC_0567814.JPG,5,ISIC_0033268.JPG,ISIC_0567814.JPG,false,1,keypress(m),500,194607.40000009537,194607.19999980927,190860.584,190861.59999990463,190880.339,194623.624,8,400,37,,ISIC_0033268.JPG
break,html.Screen,4_36_1,2023-11-06T23:17:40.619Z,,0,,,NaN,,,,,,false,,,,194608.19999980927,194608.09999990463,,194607.59999990463,,194623.624,8,400,,,
break_continue,html.Screen,4_36_2,2023-11-06T23:17:40.619Z,,0,,,NaN,,,,,,false,,,,194608.69999980927,194608.59999990463,,194608.40000009537,,194623.624,8,400,,,
sequence,flow.Sequence,4_36,2023-11-06T23:17:40.619Z,,0,,,3728.2609999046254,completion,,,,,false,,,,194608.7999997139,194608.59999990463,190860.584,190861.5,190880.339,194623.624,8,400,,,
trial,html.Screen,4_37_0,2023-11-06T23:17:44.333Z,,0,1,,3699.175999713887,response,ISIC_0026694.JPG,6,ISIC_4602691.JPG,ISIC_0026694.JPG,false,1,keypress(m),500,198323,198322.7999997139,194595.679,194609,194623.624,198328.108,8,400,38,,ISIC_4602691.JPG
break,html.Screen,4_37_1,2023-11-06T23:17:44.334Z,,0,,,NaN,,,,,,false,,,,198323.7999997139,198323.59999990463,,198323.19999980927,,198328.108,8,400,,,
break_continue,html.Screen,4_37_2,2023-11-06T23:17:44.335Z,,0,,,NaN,,,,,,false,,,,198324.09999990463,198324.09999990463,,198323.90000009537,,198328.108,8,400,,,
sequence,flow.Sequence,4_37,2023-11-06T23:17:44.335Z,,0,,,3700.475999904622,completion,,,,,false,,,,198324.2999997139,198324.09999990463,194595.679,194609,194623.624,198328.108,8,400,,,
trial,html.Screen,4_38_0,2023-11-06T23:17:49.025Z,,0,1,,4686.19199971389,response,ISIC_0004099.JPG,5,ISIC_5482805.JPG,ISIC_5482805.JPG,false,0,keypress(z),500,203014.5,203014.2999997139,198309.962,198324.5,198328.108,203017.42,8,400,39,,ISIC_0004099.JPG
break,html.Screen,4_38_1,2023-11-06T23:17:49.026Z,,0,,,NaN,,,,,,false,,,,203015.2999997139,203015,,203014.69999980927,,203017.42,8,400,,,
break_continue,html.Screen,4_38_2,2023-11-06T23:17:49.026Z,,0,,,NaN,,,,,,false,,,,203015.69999980927,203015.59999990463,,203015.40000009537,,203017.42,8,400,,,
sequence,flow.Sequence,4_38,2023-11-06T23:17:49.026Z,,0,,,4687.491999904625,completion,,,,,false,,,,203015.90000009537,203015.59999990463,198309.962,198324.5,198328.108,203017.42,8,400,,,
trial,html.Screen,4_39_0,2023-11-06T23:17:52.389Z,,0,1,,3360.9800000953546,response,ISIC_3800541.JPG,5,ISIC_8579575.JPG,ISIC_3800541.JPG,false,1,keypress(m),500,206378.59999990463,206378.40000009537,203010.368,203016,203017.42,206387.852,8,400,40,,ISIC_8579575.JPG
break,html.Screen,4_39_1,2023-11-06T23:17:52.390Z,,0,,,NaN,,,,,,false,,,,206379.5,206379.2999997139,,206378.7999997139,,206387.852,8,400,,,
break_continue,html.Screen,4_39_2,2023-11-06T23:17:52.390Z,,0,,,NaN,,,,,,false,,,,206379.90000009537,206379.7999997139,,206379.59999990463,,206387.852,8,400,,,
sequence,flow.Sequence,4_39,2023-11-06T23:17:52.391Z,,0,,,3362.379999713885,completion,,,,,false,,,,206380.09999990463,206379.7999997139,203010.368,203016,203017.42,206387.852,8,400,,,
trial,html.Screen,4_40_0,2023-11-06T23:17:55.449Z,,0,1,,3050.1479999999865,response,ISIC_9028997.JPG,5,ISIC_0026314.JPG,ISIC_0026314.JPG,false,0,keypress(z),500,209438.19999980927,209438,206375.427,206380.2999997139,206387.852,209454.178,8,400,41,,ISIC_9028997.JPG
break,html.Screen,4_40_1,2023-11-06T23:17:55.449Z,,0,,,NaN,,,,,,false,,,,209439,209438.90000009537,,209438.5,,209454.178,8,400,,,
break_continue,html.Screen,4_40_2,2023-11-06T23:17:55.450Z,,0,,,NaN,,,,,,false,,,,209439.2999997139,209439.2999997139,,209439.09999990463,,209454.178,8,400,,,
sequence,flow.Sequence,4_40,2023-11-06T23:17:55.450Z,,0,,,3051.447999713884,completion,,,,,false,,,,209439.5,209439.2999997139,206375.427,206380.19999980927,206387.852,209454.178,8,400,,,
trial,html.Screen,4_41_0,2023-11-06T23:17:58.828Z,,0,1,,3363.5219998092507,response,ISIC_7050122.JPG,5,ISIC_0071118.JPG,ISIC_0071118.JPG,false,0,keypress(z),500,212818,212817.69999980927,209430.414,209439.69999980927,209454.178,212832.94,8,400,42,,ISIC_7050122.JPG
break,html.Screen,4_41_1,2023-11-06T23:17:58.829Z,,0,,,NaN,,,,,,false,,,,212818.7999997139,212818.59999990463,,212818.19999980927,,212832.94,8,400,,,
break_continue,html.Screen,4_41_2,2023-11-06T23:17:58.830Z,,0,,,NaN,,,,,,false,,,,212819.09999990463,212819.09999990463,,212819,,212832.94,8,400,,,
sequence,flow.Sequence,4_41,2023-11-06T23:17:58.830Z,,0,,,3364.921999904618,completion,,,,,false,,,,212819.2999997139,212819.09999990463,209430.414,209439.69999980927,209454.178,212832.94,8,400,,,
trial,html.Screen,4_42_0,2023-11-06T23:18:02.816Z,,0,1,,3972.759999809263,response,ISIC_0016094.JPG,5,ISIC_9375324.JPG,ISIC_9375324.JPG,false,0,keypress(z),500,216806,216805.69999980927,212803.923,212819.5,212832.94,216809.837,8,400,43,,ISIC_0016094.JPG
break,html.Screen,4_42_1,2023-11-06T23:18:02.817Z,,0,,,NaN,,,,,,false,,,,216806.7999997139,216806.59999990463,,216806.19999980927,,216809.837,8,400,,,
break_continue,html.Screen,4_42_2,2023-11-06T23:18:02.818Z,,0,,,NaN,,,,,,false,,,,216807.2999997139,216807,,216806.90000009537,,216809.837,8,400,,,
sequence,flow.Sequence,4_42,2023-11-06T23:18:02.818Z,,0,,,3974.0599999999977,completion,,,,,false,,,,216807.40000009537,216807,212803.923,212819.40000009537,212832.94,216809.837,8,400,,,
trial,html.Screen,4_43_0,2023-11-06T23:18:06.292Z,,0,1,,3471.563000095368,response,ISIC_6062657.JPG,5,ISIC_7533983.JPG,ISIC_7533983.JPG,false,0,keypress(z),500,220281.59999990463,220281.40000009537,216805.29,216807.59999990463,216809.837,220301.279,8,400,44,,ISIC_6062657.JPG
break,html.Screen,4_43_1,2023-11-06T23:18:06.293Z,,0,,,NaN,,,,,,false,,,,220282.40000009537,220282.19999980927,,220281.90000009537,,220301.279,8,400,,,
break_continue,html.Screen,4_43_2,2023-11-06T23:18:06.293Z,,0,,,NaN,,,,,,false,,,,220282.7999997139,220282.69999980927,,220282.5,,220301.279,8,400,,,
sequence,flow.Sequence,4_43,2023-11-06T23:18:06.293Z,,0,,,3472.8629998092656,completion,,,,,false,,,,220283,220282.69999980927,216805.29,216807.59999990463,216809.837,220301.279,8,400,,,
trial,html.Screen,4_44_0,2023-11-06T23:18:10.136Z,,0,1,,3823.621000095358,response,ISIC_2752919.JPG,5,ISIC_8848134.JPG,ISIC_8848134.JPG,false,0,keypress(z),500,224125.19999980927,224124.90000009537,220267.148,220283.19999980927,220301.279,224142.13,8,400,45,,ISIC_2752919.JPG
break,html.Screen,4_44_1,2023-11-06T23:18:10.136Z,,0,,,NaN,,,,,,false,,,,224126,224125.90000009537,,224125.40000009537,,224142.13,8,400,,,
break_continue,html.Screen,4_44_2,2023-11-06T23:18:10.137Z,,0,,,NaN,,,,,,false,,,,224126.40000009537,224126.2999997139,,224126.09999990463,,224142.13,8,400,,,
sequence,flow.Sequence,4_44,2023-11-06T23:18:10.137Z,,0,,,3825.020999713888,completion,,,,,false,,,,224126.59999990463,224126.2999997139,220267.148,220283.09999990463,220301.279,224142.13,8,400,,,
trial,html.Screen,4_45_0,2023-11-06T23:18:14.012Z,,0,1,,3858.969999904628,response,ISIC_7765349.JPG,5,ISIC_0010773.JPG,ISIC_0010773.JPG,false,0,keypress(z),500,228001.2999997139,228001.09999990463,224125.546,224126.69999980927,224142.13,228006.928,8,400,46,,ISIC_7765349.JPG
break,html.Screen,4_45_1,2023-11-06T23:18:14.013Z,,0,,,NaN,,,,,,false,,,,228002.19999980927,228002,,228001.59999990463,,228006.928,8,400,,,
break_continue,html.Screen,4_45_2,2023-11-06T23:18:14.013Z,,0,,,NaN,,,,,,false,,,,228002.59999990463,228002.40000009537,,228002.2999997139,,228006.928,8,400,,,
sequence,flow.Sequence,4_45,2023-11-06T23:18:14.013Z,,0,,,3860.270000095363,completion,,,,,false,,,,228002.69999980927,228002.40000009537,224125.546,224126.59999990463,224142.13,228006.928,8,400,,,
trial,html.Screen,4_46_0,2023-11-06T23:18:17.071Z,,0,1,,3053.5719999999856,response,ISIC_0000139.JPG,5,ISIC_9141065.JPG,ISIC_9141065.JPG,false,0,keypress(z),500,231060.69999980927,231060.5,227994.126,228002.7999997139,228006.928,231063.218,8,400,47,,ISIC_0000139.JPG
break,html.Screen,4_46_1,2023-11-06T23:18:17.072Z,,0,,,NaN,,,,,,false,,,,231061.5,231061.2999997139,,231060.90000009537,,231063.218,8,400,,,
break_continue,html.Screen,4_46_2,2023-11-06T23:18:17.072Z,,0,,,NaN,,,,,,false,,,,231061.90000009537,231061.7999997139,,231061.69999980927,,231063.218,8,400,,,
sequence,flow.Sequence,4_46,2023-11-06T23:18:17.072Z,,0,,,3054.8719997138833,completion,,,,,false,,,,231062,231061.7999997139,227994.126,228002.7999997139,228006.928,231063.218,8,400,,,
trial,html.Screen,4_47_0,2023-11-06T23:18:20.419Z,,0,1,,3345.381999904639,response,ISIC_4505178.JPG,5,ISIC_3885808.JPG,ISIC_4505178.JPG,false,1,keypress(m),500,234408.90000009537,234408.59999990463,231056.234,231062.19999980927,231063.218,234418.9,8,400,48,,ISIC_3885808.JPG
break,html.Screen,4_47_1,2023-11-06T23:18:20.420Z,,0,,,NaN,,,,,,false,,,,234409.7999997139,234409.5,,234409.19999980927,,234418.9,8,400,,,
break_continue,html.Screen,4_47_2,2023-11-06T23:18:20.421Z,,0,,,NaN,,,,,,false,,,,234410.19999980927,234410,,234410,,234418.9,8,400,,,
sequence,flow.Sequence,4_47,2023-11-06T23:18:20.421Z,,0,,,3346.7820000000065,completion,,,,,false,,,,234410.40000009537,234410,231056.234,231062.19999980927,231063.218,234418.9,8,400,,,
trial,html.Screen,4_48_0,2023-11-06T23:18:23.511Z,,0,1,,3081.3999997139035,response,ISIC_0061562.JPG,5,ISIC_2366172.JPG,ISIC_2366172.JPG,false,0,keypress(z),500,237500.40000009537,237500.2999997139,234409.308,234410.5,234418.9,237510.955,8,400,49,,ISIC_0061562.JPG
break,html.Screen,4_48_1,2023-11-06T23:18:23.512Z,,0,,,NaN,,,,,,false,,,,237501.19999980927,237501,,237500.69999980927,,237510.955,8,400,,,
break_continue,html.Screen,4_48_2,2023-11-06T23:18:23.512Z,,0,,,NaN,,,,,,false,,,,237501.59999990463,237501.40000009537,,237501.2999997139,,237510.955,8,400,,,
sequence,flow.Sequence,4_48,2023-11-06T23:18:23.512Z,,0,,,3082.5000000953733,completion,,,,,false,,,,237501.7999997139,237501.40000009537,234409.308,234410.5,234418.9,237510.955,8,400,,,
trial,html.Screen,4_49_0,2023-11-06T23:18:26.715Z,,0,1,,3193.045000000013,response,ISIC_0011489.JPG,5,ISIC_0222299.JPG,ISIC_0011489.JPG,false,1,keypress(m),500,240704.19999980927,240704,237496.422,237501.90000009537,237510.955,240711.542,8,400,50,,ISIC_0222299.JPG
break,html.Screen,4_49_1,2023-11-06T23:18:36.709Z,,0,,,10000.598000000027,timeout,,,,,false,,,,250699.19999980927,250695.441,240695.145,240704.5,240711.542,250712.14,8,400,,,
break_continue,html.Screen,4_49_2,2023-11-06T23:18:39.382Z,,0,,,2655.4599999046186,response,,,,,false,continue,keypress(Space),,253372.19999980927,253367.59999990463,250695.441,250699.2999997139,250712.14,253377.412,8,400,,,
sequence,flow.Sequence,4_49,2023-11-06T23:18:39.383Z,,0,,,15856.644999904645,completion,,,,,false,,,,253372.2999997139,253367.59999990463,237496.422,237501.7999997139,237510.955,253377.412,8,400,,,
trial,html.Screen,4_50_0,2023-11-06T23:18:42.744Z,,0,2,,3355.9880000953563,response,ISIC_0753491.JPG,4,ISIC_4548632.JPG,ISIC_4548632.JPG,false,0,keypress(z),500,256733.69999980927,256733.40000009537,253362.177,253372.40000009537,253377.412,256741.142,8,400,1,,ISIC_0753491.JPG
break,html.Screen,4_50_1,2023-11-06T23:18:42.745Z,,0,,,NaN,,,,,,false,,,,256734.5,256734.2999997139,,256733.90000009537,,256741.142,8,400,,,
break_continue,html.Screen,4_50_2,2023-11-06T23:18:42.745Z,,0,,,NaN,,,,,,false,,,,256734.7999997139,256734.69999980927,,256734.59999990463,,256741.142,8,400,,,
sequence,flow.Sequence,4_50,2023-11-06T23:18:42.745Z,,0,,,3357.287999809254,completion,,,,,false,,,,256735,256734.69999980927,253362.177,253372.2999997139,253377.412,256741.142,8,400,,,
trial,html.Screen,4_51_0,2023-11-06T23:18:45.899Z,,0,2,,3147.3580000000075,response,ISIC_0028031.JPG,5,ISIC_8646115.JPG,ISIC_0028031.JPG,false,1,keypress(m),500,259888.69999980927,259888.5,256728.935,256735.19999980927,256741.142,259900.558,8,400,2,,ISIC_8646115.JPG
break,html.Screen,4_51_1,2023-11-06T23:18:45.900Z,,0,,,NaN,,,,,,false,,,,259889.40000009537,259889.19999980927,,259888.90000009537,,259900.558,8,400,,,
break_continue,html.Screen,4_51_2,2023-11-06T23:18:45.901Z,,0,,,NaN,,,,,,false,,,,259890.90000009537,259890.69999980927,,259890.59999990463,,259900.558,8,400,,,
sequence,flow.Sequence,4_51,2023-11-06T23:18:45.901Z,,0,,,3149.5579998092726,completion,,,,,false,,,,259891.09999990463,259890.69999980927,256728.935,256735.09999990463,256741.142,259900.558,8,400,,,
trial,html.Screen,4_52_0,2023-11-06T23:18:48.960Z,,0,2,,3049.44200000001,response,ISIC_0061870.JPG,6,ISIC_6132976.JPG,ISIC_0061870.JPG,false,1,keypress(m),500,262950.2999997139,262950,259873.859,259891.09999990463,259900.558,262968.066,8,400,3,,ISIC_6132976.JPG
break,html.Screen,4_52_1,2023-11-06T23:18:48.961Z,,0,,,NaN,,,,,,false,,,,262951.19999980927,262950.90000009537,,262950.40000009537,,262968.066,8,400,,,
break_continue,html.Screen,4_52_2,2023-11-06T23:18:48.962Z,,0,,,NaN,,,,,,false,,,,262951.69999980927,262951.5,,262951.2999997139,,262968.066,8,400,,,
sequence,flow.Sequence,4_52,2023-11-06T23:18:48.962Z,,0,,,3050.94200000001,completion,,,,,false,,,,262951.7999997139,262951.5,259873.859,259891.09999990463,259900.558,262968.066,8,400,,,
trial,html.Screen,4_53_0,2023-11-06T23:18:53.461Z,,0,2,,4482.1339998092735,response,ISIC_2918128.JPG,5,ISIC_0029198.JPG,ISIC_2918128.JPG,false,1,keypress(m),500,267450.40000009537,267450.19999980927,262940.275,262951.90000009537,262968.066,267461.186,8,400,4,,ISIC_0029198.JPG
break,html.Screen,4_53_1,2023-11-06T23:18:53.461Z,,0,,,NaN,,,,,,false,,,,267451.19999980927,267451,,267450.59999990463,,267461.186,8,400,,,
break_continue,html.Screen,4_53_2,2023-11-06T23:18:53.462Z,,0,,,NaN,,,,,,false,,,,267451.5,267451.40000009537,,267451.2999997139,,267461.186,8,400,,,
sequence,flow.Sequence,4_53,2023-11-06T23:18:53.462Z,,0,,,4483.334000095376,completion,,,,,false,,,,267451.69999980927,267451.40000009537,262940.275,262951.90000009537,262968.066,267461.186,8,400,,,
trial,html.Screen,4_54_0,2023-11-06T23:18:57.512Z,,0,2,,4040.013999809278,response,ISIC_0013652.JPG,5,ISIC_0028181.JPG,ISIC_0013652.JPG,false,1,keypress(m),500,271501.5,271501.19999980927,267447.128,267451.7999997139,267461.186,271510.331,8,400,5,,ISIC_0028181.JPG
break,html.Screen,4_54_1,2023-11-06T23:18:57.513Z,,0,,,NaN,,,,,,false,,,,271502.2999997139,271502.09999990463,,271501.69999980927,,271510.331,8,400,,,
break_continue,html.Screen,4_54_2,2023-11-06T23:18:57.513Z,,0,,,NaN,,,,,,false,,,,271502.59999990463,271502.5,,271502.40000009537,,271510.331,8,400,,,
sequence,flow.Sequence,4_54,2023-11-06T23:18:57.513Z,,0,,,4041.314000000013,completion,,,,,false,,,,271502.90000009537,271502.5,267447.128,267451.7999997139,267461.186,271510.331,8,400,,,
trial,html.Screen,4_55_0,2023-11-06T23:19:01.691Z,,0,2,,4170.668999999994,response,ISIC_0031507.JPG,5,ISIC_0031589.JPG,ISIC_0031507.JPG,false,1,keypress(m),500,275681.2999997139,275681,271499.436,271503.19999980927,271510.331,275686.504,8,400,6,,ISIC_0031589.JPG
break,html.Screen,4_55_1,2023-11-06T23:19:01.692Z,,0,,,NaN,,,,,,false,,,,275682,275681.90000009537,,275681.5,,275686.504,8,400,,,
break_continue,html.Screen,4_55_2,2023-11-06T23:19:01.693Z,,0,,,NaN,,,,,,false,,,,275682.5,275682.2999997139,,275682.2999997139,,275686.504,8,400,,,
sequence,flow.Sequence,4_55,2023-11-06T23:19:01.693Z,,0,,,4171.968999713892,completion,,,,,false,,,,275682.69999980927,275682.2999997139,271499.436,271503.09999990463,271510.331,275686.504,8,400,,,
trial,html.Screen,4_56_0,2023-11-06T23:19:06.191Z,,0,2,,4493.69599980925,response,ISIC_0027431.JPG,4,ISIC_0361149.JPG,ISIC_0027431.JPG,false,1,keypress(m),500,280180.59999990463,280180.19999980927,275677.641,275682.7999997139,275686.504,280184.174,8,400,7,,ISIC_0361149.JPG
break,html.Screen,4_56_1,2023-11-06T23:19:06.192Z,,0,,,NaN,,,,,,false,,,,280181.40000009537,280181.19999980927,,280180.69999980927,,280184.174,8,400,,,
break_continue,html.Screen,4_56_2,2023-11-06T23:19:06.192Z,,0,,,NaN,,,,,,false,,,,280181.7999997139,280181.69999980927,,280181.59999990463,,280184.174,8,400,,,
sequence,flow.Sequence,4_56,2023-11-06T23:19:06.192Z,,0,,,4495.19599980925,completion,,,,,false,,,,280182,280181.69999980927,275677.641,275682.7999997139,275686.504,280184.174,8,400,,,
trial,html.Screen,4_57_0,2023-11-06T23:19:09.794Z,,0,2,,3599.1259997138986,response,ISIC_7440724.JPG,5,ISIC_0025597.JPG,ISIC_0025597.JPG,false,0,keypress(z),500,283783.69999980927,283783.2999997139,280170.886,280182.19999980927,280184.174,283788.363,8,400,8,,ISIC_7440724.JPG
break,html.Screen,4_57_1,2023-11-06T23:19:09.795Z,,0,,,NaN,,,,,,false,,,,283784.40000009537,283784.19999980927,,283783.7999997139,,283788.363,8,400,,,
break_continue,html.Screen,4_57_2,2023-11-06T23:19:09.795Z,,0,,,NaN,,,,,,false,,,,283784.69999980927,283784.59999990463,,283784.5,,283788.363,8,400,,,
sequence,flow.Sequence,4_57,2023-11-06T23:19:09.795Z,,0,,,3600.4259999046335,completion,,,,,false,,,,283784.90000009537,283784.59999990463,280170.886,280182.09999990463,280184.174,283788.363,8,400,,,
trial,html.Screen,4_58_0,2023-11-06T23:19:13.269Z,,0,2,,3470.5370000953553,response,ISIC_3552245.JPG,6,ISIC_9476244.JPG,ISIC_9476244.JPG,false,0,keypress(z),500,287259.09999990463,287258.90000009537,283773.685,283785.09999990463,283788.363,287263.538,8,400,9,,ISIC_3552245.JPG
break,html.Screen,4_58_1,2023-11-06T23:19:13.270Z,,0,,,NaN,,,,,,false,,,,287260,287259.69999980927,,287259.2999997139,,287263.538,8,400,,,
break_continue,html.Screen,4_58_2,2023-11-06T23:19:13.271Z,,0,,,NaN,,,,,,false,,,,287260.2999997139,287260.19999980927,,287260,,287263.538,8,400,,,
sequence,flow.Sequence,4_58,2023-11-06T23:19:13.271Z,,0,,,3471.836999809253,completion,,,,,false,,,,287260.59999990463,287260.19999980927,283773.685,283785,283788.363,287263.538,8,400,,,
trial,html.Screen,4_59_0,2023-11-06T23:19:17.193Z,,0,2,,3918.7619997138972,response,ISIC_0033374.JPG,4,ISIC_8990907.JPG,ISIC_8990907.JPG,false,0,keypress(z),500,291182.59999990463,291182.2999997139,287247.427,287260.69999980927,287263.538,291193.993,8,400,10,,ISIC_0033374.JPG
break,html.Screen,4_59_1,2023-11-06T23:19:17.194Z,,0,,,NaN,,,,,,false,,,,291183.40000009537,291183.19999980927,,291182.69999980927,,291193.993,8,400,,,
break_continue,html.Screen,4_59_2,2023-11-06T23:19:17.194Z,,0,,,NaN,,,,,,false,,,,291183.7999997139,291183.69999980927,,291183.59999990463,,291193.993,8,400,,,
sequence,flow.Sequence,4_59,2023-11-06T23:19:17.194Z,,0,,,3920.1619998092647,completion,,,,,false,,,,291184.19999980927,291183.69999980927,287247.427,287260.69999980927,287263.538,291193.993,8,400,,,
trial,html.Screen,4_60_0,2023-11-06T23:19:21.980Z,,0,2,,4775.806999713881,response,ISIC_0032873.JPG,6,ISIC_9989936.JPG,ISIC_0032873.JPG,false,1,keypress(m),500,295969.90000009537,295969.7999997139,291175.526,291184.40000009537,291193.993,295972.997,8,400,11,,ISIC_9989936.JPG
break,html.Screen,4_60_1,2023-11-06T23:19:21.981Z,,0,,,NaN,,,,,,false,,,,295970.69999980927,295970.5,,295970.09999990463,,295972.997,8,400,,,
break_continue,html.Screen,4_60_2,2023-11-06T23:19:21.981Z,,0,,,NaN,,,,,,false,,,,295971.09999990463,295971,,295970.7999997139,,295972.997,8,400,,,
sequence,flow.Sequence,4_60,2023-11-06T23:19:21.981Z,,0,,,4777.006999999983,completion,,,,,false,,,,295971.2999997139,295971,291175.526,291184.2999997139,291193.993,295972.997,8,400,,,
trial,html.Screen,4_61_0,2023-11-06T23:19:25.663Z,,0,2,,3679.503000000026,response,ISIC_0030546.JPG,5,ISIC_0063680.JPG,ISIC_0063680.JPG,false,0,keypress(z),500,299652.59999990463,299652.5,295956.282,295971.40000009537,295972.997,299672.302,8,400,12,,ISIC_0030546.JPG
break,html.Screen,4_61_1,2023-11-06T23:19:25.664Z,,0,,,NaN,,,,,,false,,,,299653.5,299653.40000009537,,299652.90000009537,,299672.302,8,400,,,
break_continue,html.Screen,4_61_2,2023-11-06T23:19:25.664Z,,0,,,NaN,,,,,,false,,,,299653.90000009537,299653.7999997139,,299653.69999980927,,299672.302,8,400,,,
sequence,flow.Sequence,4_61,2023-11-06T23:19:25.664Z,,0,,,3680.802999713924,completion,,,,,false,,,,299654.09999990463,299653.7999997139,295956.282,295971.2999997139,295972.997,299672.302,8,400,,,
trial,html.Screen,4_62_0,2023-11-06T23:19:29.075Z,,0,2,,3392.2979999046074,response,ISIC_0060741.JPG,5,ISIC_0057244.JPG,ISIC_0057244.JPG,false,0,keypress(z),500,303064.90000009537,303064.59999990463,299637.7,299654.2999997139,299672.302,303084.131,8,400,13,,ISIC_0060741.JPG
break,html.Screen,4_62_1,2023-11-06T23:19:29.076Z,,0,,,NaN,,,,,,false,,,,303065.59999990463,303065.5,,303065.09999990463,,303084.131,8,400,,,
break_continue,html.Screen,4_62_2,2023-11-06T23:19:29.076Z,,0,,,NaN,,,,,,false,,,,303065.90000009537,303065.7999997139,,303065.69999980927,,303084.131,8,400,,,
sequence,flow.Sequence,4_62,2023-11-06T23:19:29.076Z,,0,,,3393.4979997138726,completion,,,,,false,,,,303066.09999990463,303065.7999997139,299637.7,299654.2999997139,299672.302,303084.131,8,400,,,
trial,html.Screen,4_63_0,2023-11-06T23:19:33.255Z,,0,2,,4160.168999713904,response,ISIC_9799596.JPG,6,ISIC_7702857.JPG,ISIC_7702857.JPG,false,0,keypress(z),500,307244.59999990463,307244.2999997139,303057.68,303066.2999997139,303084.131,307250.489,8,400,14,,ISIC_9799596.JPG
break,html.Screen,4_63_1,2023-11-06T23:19:33.256Z,,0,,,NaN,,,,,,false,,,,307245.5,307245.19999980927,,307244.7999997139,,307250.489,8,400,,,
break_continue,html.Screen,4_63_2,2023-11-06T23:19:33.256Z,,0,,,NaN,,,,,,false,,,,307246.09999990463,307245.7999997139,,307245.69999980927,,307250.489,8,400,,,
sequence,flow.Sequence,4_63,2023-11-06T23:19:33.257Z,,0,,,4161.668999713904,completion,,,,,false,,,,307246.19999980927,307245.7999997139,303057.68,303066.19999980927,303084.131,307250.489,8,400,,,
trial,html.Screen,4_64_0,2023-11-06T23:19:36.379Z,,0,2,,3117.610999904631,response,ISIC_3926397.JPG,5,ISIC_5307210.JPG,ISIC_5307210.JPG,false,0,keypress(z),500,310368.40000009537,310368.09999990463,307237.278,307246.2999997139,307250.489,310386.424,8,400,15,,ISIC_3926397.JPG
break,html.Screen,4_64_1,2023-11-06T23:19:36.379Z,,0,,,NaN,,,,,,false,,,,310369.19999980927,310369,,310368.59999990463,,310386.424,8,400,,,
break_continue,html.Screen,4_64_2,2023-11-06T23:19:36.380Z,,0,,,NaN,,,,,,false,,,,310369.59999990463,310369.5,,310369.40000009537,,310386.424,8,400,,,
sequence,flow.Sequence,4_64,2023-11-06T23:19:36.380Z,,0,,,3119.0109999999986,completion,,,,,false,,,,310369.69999980927,310369.5,307237.278,307246.2999997139,307250.489,310386.424,8,400,,,
trial,html.Screen,4_65_0,2023-11-06T23:19:39.214Z,,0,2,,2817.3759997138986,response,ISIC_2732573.JPG,4,ISIC_7802213.JPG,ISIC_7802213.JPG,false,0,keypress(z),500,313204,313203.7999997139,310356.117,310369.90000009537,310386.424,313223.413,8,400,16,,ISIC_2732573.JPG
break,html.Screen,4_65_1,2023-11-06T23:19:39.215Z,,0,,,NaN,,,,,,false,,,,313204.69999980927,313204.59999990463,,313204.19999980927,,313223.413,8,400,,,
break_continue,html.Screen,4_65_2,2023-11-06T23:19:39.215Z,,0,,,NaN,,,,,,false,,,,313205.09999990463,313205,,313205,,313223.413,8,400,,,
sequence,flow.Sequence,4_65,2023-11-06T23:19:39.216Z,,0,,,2818.576000000001,completion,,,,,false,,,,313205.2999997139,313205,310356.117,310369.69999980927,310386.424,313223.413,8,400,,,
trial,html.Screen,4_66_0,2023-11-06T23:19:43.233Z,,0,2,,3999.2869998092647,response,ISIC_0065360.JPG,5,ISIC_0031499.JPG,ISIC_0031499.JPG,false,0,keypress(z),500,317222.90000009537,317222.69999980927,313201.816,313205.59999990463,313223.413,317248.992,8,400,17,,ISIC_0065360.JPG
break,html.Screen,4_66_1,2023-11-06T23:19:43.234Z,,0,,,NaN,,,,,,false,,,,317223.7999997139,317223.59999990463,,317223.19999980927,,317248.992,8,400,,,
break_continue,html.Screen,4_66_2,2023-11-06T23:19:43.234Z,,0,,,NaN,,,,,,false,,,,317224.19999980927,317224.09999990463,,317224,,317248.992,8,400,,,
sequence,flow.Sequence,4_66,2023-11-06T23:19:43.235Z,,0,,,4000.686999904632,completion,,,,,false,,,,317224.2999997139,317224.09999990463,313201.816,313205.5,313223.413,317248.992,8,400,,,
trial,html.Screen,4_67_0,2023-11-06T23:19:47.092Z,,0,2,,3832.607999904605,response,ISIC_5223280.JPG,5,ISIC_0012883.JPG,ISIC_0012883.JPG,false,0,keypress(z),500,321081.90000009537,321081.59999990463,317232.302,317224.5,317248.992,321093.896,8,400,18,,ISIC_5223280.JPG
break,html.Screen,4_67_1,2023-11-06T23:19:47.093Z,,0,,,NaN,,,,,,false,,,,321082.69999980927,321082.5,,321082,,321093.896,8,400,,,
break_continue,html.Screen,4_67_2,2023-11-06T23:19:47.093Z,,0,,,NaN,,,,,,false,,,,321083,321082.90000009537,,321082.7999997139,,321093.896,8,400,,,
sequence,flow.Sequence,4_67,2023-11-06T23:19:47.094Z,,0,,,3833.90800009534,completion,,,,,false,,,,321083.19999980927,321082.90000009537,317232.302,317224.40000009537,317248.992,321093.896,8,400,,,
trial,html.Screen,4_68_0,2023-11-06T23:19:50.056Z,,0,2,,2951.303999809257,response,ISIC_3985031.JPG,5,ISIC_9034574.JPG,ISIC_9034574.JPG,false,0,keypress(z),500,324045.5,324045.19999980927,321068.187,321083.40000009537,321093.896,324065.186,8,400,19,,ISIC_3985031.JPG
break,html.Screen,4_68_1,2023-11-06T23:19:50.057Z,,0,,,NaN,,,,,,false,,,,324046.19999980927,324046.09999990463,,324045.59999990463,,324065.186,8,400,,,
break_continue,html.Screen,4_68_2,2023-11-06T23:19:50.057Z,,0,,,NaN,,,,,,false,,,,324046.59999990463,324046.40000009537,,324046.40000009537,,324065.186,8,400,,,
sequence,flow.Sequence,4_68,2023-11-06T23:19:50.057Z,,0,,,2952.5040000953595,completion,,,,,false,,,,324046.7999997139,324046.40000009537,321068.187,321083.40000009537,321093.896,324065.186,8,400,,,
trial,html.Screen,4_69_0,2023-11-06T23:19:53.355Z,,0,2,,3279.4139999046456,response,ISIC_7873541.JPG,5,ISIC_0025702.JPG,ISIC_7873541.JPG,false,1,keypress(m),500,327345,327344.59999990463,324032.843,324047,324065.186,327347.521,8,400,20,,ISIC_0025702.JPG
break,html.Screen,4_69_1,2023-11-06T23:19:53.356Z,,0,,,NaN,,,,,,false,,,,327345.7999997139,327345.69999980927,,327345.19999980927,,327347.521,8,400,,,
break_continue,html.Screen,4_69_2,2023-11-06T23:19:53.357Z,,0,,,NaN,,,,,,false,,,,327346.19999980927,327346.09999990463,,327346,,327347.521,8,400,,,
sequence,flow.Sequence,4_69,2023-11-06T23:19:53.357Z,,0,,,3280.9139999046456,completion,,,,,false,,,,327346.5,327346.09999990463,324032.843,324047,324065.186,327347.521,8,400,,,
trial,html.Screen,4_70_0,2023-11-06T23:19:57.919Z,,0,2,,4561.27899971389,response,ISIC_0065735.JPG,6,ISIC_0029686.JPG,ISIC_0065735.JPG,false,1,keypress(m),500,331909.09999990463,331908.7999997139,327331.042,327346.59999990463,327347.521,331915.481,8,400,21,,ISIC_0029686.JPG
break,html.Screen,4_70_1,2023-11-06T23:19:57.920Z,,0,,,NaN,,,,,,false,,,,331910,331909.7999997139,,331909.2999997139,,331915.481,8,400,,,
break_continue,html.Screen,4_70_2,2023-11-06T23:19:57.921Z,,0,,,NaN,,,,,,false,,,,331910.2999997139,331910.2999997139,,331910.09999990463,,331915.481,8,400,,,
sequence,flow.Sequence,4_70,2023-11-06T23:19:57.921Z,,0,,,4562.77899971389,completion,,,,,false,,,,331910.5,331910.2999997139,327331.042,327346.5,327347.521,331915.481,8,400,,,
trial,html.Screen,4_71_0,2023-11-06T23:20:01.395Z,,0,2,,3468.518999999971,response,ISIC_4903988.JPG,6,ISIC_9688534.JPG,ISIC_4903988.JPG,false,1,keypress(m),500,335384.2999997139,335384,331898.273,331910.69999980927,331915.481,335389.372,8,400,22,,ISIC_9688534.JPG
break,html.Screen,4_71_1,2023-11-06T23:20:01.395Z,,0,,,NaN,,,,,,false,,,,335385.09999990463,335384.7999997139,,335384.5,,335389.372,8,400,,,
break_continue,html.Screen,4_71_2,2023-11-06T23:20:01.396Z,,0,,,NaN,,,,,,false,,,,335385.40000009537,335385.2999997139,,335385.19999980927,,335389.372,8,400,,,
sequence,flow.Sequence,4_71,2023-11-06T23:20:01.396Z,,0,,,3469.818999713869,completion,,,,,false,,,,335385.59999990463,335385.2999997139,331898.273,331910.69999980927,331915.481,335389.372,8,400,,,
trial,html.Screen,4_72_0,2023-11-06T23:20:04.375Z,,0,2,,2974.7279999046586,response,ISIC_0056723.JPG,5,ISIC_0031741.JPG,ISIC_0056723.JPG,false,1,keypress(m),500,338364.2999997139,338364.09999990463,335380.106,335385.7999997139,335389.372,338374.345,8,400,23,,ISIC_0031741.JPG
break,html.Screen,4_72_1,2023-11-06T23:20:04.375Z,,0,,,NaN,,,,,,false,,,,338365.09999990463,338364.90000009537,,338364.5,,338374.345,8,400,,,
break_continue,html.Screen,4_72_2,2023-11-06T23:20:04.376Z,,0,,,NaN,,,,,,false,,,,338365.40000009537,338365.2999997139,,338365.19999980927,,338374.345,8,400,,,
sequence,flow.Sequence,4_72,2023-11-06T23:20:04.376Z,,0,,,2975.927999713924,completion,,,,,false,,,,338365.5,338365.2999997139,335380.106,335385.69999980927,335389.372,338374.345,8,400,,,
trial,html.Screen,4_73_0,2023-11-06T23:20:08.794Z,,0,2,,4409.354999809293,response,ISIC_6546903.JPG,4,ISIC_8633894.JPG,ISIC_8633894.JPG,false,0,keypress(z),500,342783.90000009537,342783.69999980927,338363.31,338365.7999997139,338374.345,342798.482,8,400,24,,ISIC_6546903.JPG
break,html.Screen,4_73_1,2023-11-06T23:20:08.795Z,,0,,,NaN,,,,,,false,,,,342784.69999980927,342784.5,,342784.09999990463,,342798.482,8,400,,,
break_continue,html.Screen,4_73_2,2023-11-06T23:20:08.795Z,,0,,,NaN,,,,,,false,,,,342785.09999990463,342785,,342784.90000009537,,342798.482,8,400,,,
sequence,flow.Sequence,4_73,2023-11-06T23:20:08.796Z,,0,,,4410.655000000028,completion,,,,,false,,,,342785.2999997139,342785,338363.31,338365.69999980927,338374.345,342798.482,8,400,,,
trial,html.Screen,4_74_0,2023-11-06T23:20:13.197Z,,0,2,,4388.3179997138795,response,ISIC_4460849.JPG,6,ISIC_0029209.JPG,ISIC_4460849.JPG,false,1,keypress(m),500,347187,347186.7999997139,342782.302,342785.59999990463,342798.482,347194.768,8,400,25,,ISIC_0029209.JPG
break,html.Screen,4_74_1,2023-11-06T23:20:13.198Z,,0,,,NaN,,,,,,false,,,,347187.7999997139,347187.69999980927,,347187.2999997139,,347194.768,8,400,,,
break_continue,html.Screen,4_74_2,2023-11-06T23:20:13.198Z,,0,,,NaN,,,,,,false,,,,347188.09999990463,347188,,347187.90000009537,,347194.768,8,400,,,
sequence,flow.Sequence,4_74,2023-11-06T23:20:13.199Z,,0,,,4389.517999999982,completion,,,,,false,,,,347188.40000009537,347188,342782.302,342785.5,342798.482,347194.768,8,400,,,
trial,html.Screen,4_75_0,2023-11-06T23:20:16.625Z,,0,2,,3419.232000000018,response,ISIC_0624498.JPG,6,ISIC_0065525.JPG,ISIC_0065525.JPG,false,0,keypress(z),500,350614.2999997139,350614,347177.945,347188.5,347194.768,350629.213,8,400,26,,ISIC_0624498.JPG
break,html.Screen,4_75_1,2023-11-06T23:20:16.625Z,,0,,,NaN,,,,,,false,,,,350615.19999980927,350615,,350614.59999990463,,350629.213,8,400,,,
break_continue,html.Screen,4_75_2,2023-11-06T23:20:16.626Z,,0,,,NaN,,,,,,false,,,,350615.40000009537,350615.40000009537,,350615.19999980927,,350629.213,8,400,,,
sequence,flow.Sequence,4_75,2023-11-06T23:20:16.626Z,,0,,,3420.6320000953856,completion,,,,,false,,,,350615.59999990463,350615.40000009537,347177.945,347188.5,347194.768,350629.213,8,400,,,
trial,html.Screen,4_76_0,2023-11-06T23:20:20.276Z,,0,2,,3636.4869998092763,response,ISIC_5555140.JPG,4,ISIC_0064298.JPG,ISIC_0064298.JPG,false,0,keypress(z),500,354266,354265.69999980927,350603.094,350615.7999997139,350629.213,354286.77,8,400,27,,ISIC_5555140.JPG
break,html.Screen,4_76_1,2023-11-06T23:20:20.277Z,,0,,,NaN,,,,,,false,,,,354266.69999980927,354266.5,,354266.19999980927,,354286.77,8,400,,,
break_continue,html.Screen,4_76_2,2023-11-06T23:20:20.277Z,,0,,,NaN,,,,,,false,,,,354267.09999990463,354267,,354266.90000009537,,354286.77,8,400,,,
sequence,flow.Sequence,4_76,2023-11-06T23:20:20.278Z,,0,,,3637.787000000011,completion,,,,,false,,,,354267.2999997139,354267,350603.094,350615.69999980927,350629.213,354286.77,8,400,,,
trial,html.Screen,4_77_0,2023-11-06T23:20:24.184Z,,0,2,,3886.630000095349,response,ISIC_0067094.JPG,5,ISIC_0072294.JPG,ISIC_0072294.JPG,false,0,keypress(z),500,358173.7999997139,358173.40000009537,354265.832,354267.5,354286.77,358177.274,8,400,28,,ISIC_0067094.JPG
break,html.Screen,4_77_1,2023-11-06T23:20:24.185Z,,0,,,NaN,,,,,,false,,,,358174.59999990463,358174.40000009537,,358173.90000009537,,358177.274,8,400,,,
break_continue,html.Screen,4_77_2,2023-11-06T23:20:24.185Z,,0,,,NaN,,,,,,false,,,,358175,358174.90000009537,,358174.7999997139,,358177.274,8,400,,,
sequence,flow.Sequence,4_77,2023-11-06T23:20:24.186Z,,0,,,3888.130000095349,completion,,,,,false,,,,358175.19999980927,358174.90000009537,354265.832,354267.40000009537,354286.77,358177.274,8,400,,,
trial,html.Screen,4_78_0,2023-11-06T23:20:27.420Z,,0,2,,3232.025999713922,response,ISIC_9141065.JPG,5,ISIC_7936755.JPG,ISIC_7936755.JPG,false,0,keypress(z),500,361409.59999990463,361409.2999997139,358162.481,358175.40000009537,358177.274,361414.732,8,400,29,,ISIC_9141065.JPG
break,html.Screen,4_78_1,2023-11-06T23:20:27.421Z,,0,,,NaN,,,,,,false,,,,361410.2999997139,361410.09999990463,,361409.7999997139,,361414.732,8,400,,,
break_continue,html.Screen,4_78_2,2023-11-06T23:20:27.421Z,,0,,,NaN,,,,,,false,,,,361410.69999980927,361410.5,,361410.40000009537,,361414.732,8,400,,,
sequence,flow.Sequence,4_78,2023-11-06T23:20:27.421Z,,0,,,3233.226000000024,completion,,,,,false,,,,361410.90000009537,361410.5,358162.481,358175.40000009537,358177.274,361414.732,8,400,,,
trial,html.Screen,4_79_0,2023-11-06T23:20:30.751Z,,0,2,,3325.3679999046144,response,ISIC_0056364.JPG,5,ISIC_0069058.JPG,ISIC_0056364.JPG,false,1,keypress(m),500,364740.2999997139,364740.09999990463,361402.699,361411,361414.732,364760.164,8,400,30,,ISIC_0069058.JPG
break,html.Screen,4_79_1,2023-11-06T23:20:30.752Z,,0,,,NaN,,,,,,false,,,,364741.19999980927,364741,,364740.5,,364760.164,8,400,,,
break_continue,html.Screen,4_79_2,2023-11-06T23:20:30.752Z,,0,,,NaN,,,,,,false,,,,364741.5,364741.40000009537,,364741.2999997139,,364760.164,8,400,,,
sequence,flow.Sequence,4_79,2023-11-06T23:20:30.752Z,,0,,,3326.6680000953493,completion,,,,,false,,,,364741.69999980927,364741.40000009537,361402.699,361410.90000009537,361414.732,364760.164,8,400,,,
trial,html.Screen,4_80_0,2023-11-06T23:20:34.738Z,,0,2,,3967.2360000953777,response,ISIC_7376906.JPG,4,ISIC_0033957.JPG,ISIC_0033957.JPG,false,0,keypress(z),500,368727.69999980927,368727.40000009537,364732.658,364741.7999997139,364760.164,368733.132,8,400,31,,ISIC_7376906.JPG
break,html.Screen,4_80_1,2023-11-06T23:20:34.739Z,,0,,,NaN,,,,,,false,,,,368728.5,368728.19999980927,,368727.90000009537,,368733.132,8,400,,,
break_continue,html.Screen,4_80_2,2023-11-06T23:20:34.739Z,,0,,,NaN,,,,,,false,,,,368728.90000009537,368728.7999997139,,368728.69999980927,,368733.132,8,400,,,
sequence,flow.Sequence,4_80,2023-11-06T23:20:34.740Z,,0,,,3968.635999713908,completion,,,,,false,,,,368729.19999980927,368728.7999997139,364732.658,364741.7999997139,364760.164,368733.132,8,400,,,
trial,html.Screen,4_81_0,2023-11-06T23:20:37.958Z,,0,2,,3214.4679999046493,response,ISIC_0029732.JPG,6,ISIC_3236964.JPG,ISIC_3236964.JPG,false,0,keypress(z),500,371947.7999997139,371947.59999990463,368724.358,368729.19999980927,368733.132,371961.726,8,400,32,,ISIC_0029732.JPG
break,html.Screen,4_81_1,2023-11-06T23:20:37.959Z,,0,,,NaN,,,,,,false,,,,371948.69999980927,371948.5,,371948,,371961.726,8,400,,,
break_continue,html.Screen,4_81_2,2023-11-06T23:20:37.960Z,,0,,,NaN,,,,,,false,,,,371949,371948.90000009537,,371948.7999997139,,371961.726,8,400,,,
sequence,flow.Sequence,4_81,2023-11-06T23:20:37.960Z,,0,,,3215.768000095384,completion,,,,,false,,,,371949.19999980927,371948.90000009537,368724.358,368729.19999980927,368733.132,371961.726,8,400,,,
trial,html.Screen,4_82_0,2023-11-06T23:20:42.298Z,,0,2,,4325.674000095343,response,ISIC_4045323.JPG,5,ISIC_9469284.JPG,ISIC_4045323.JPG,false,1,keypress(m),500,376287.59999990463,376287.40000009537,371938.836,371949.2999997139,371961.726,376299.59,8,400,33,,ISIC_9469284.JPG
break,html.Screen,4_82_1,2023-11-06T23:20:42.299Z,,0,,,NaN,,,,,,false,,,,376288.40000009537,376288.09999990463,,376287.7999997139,,376299.59,8,400,,,
break_continue,html.Screen,4_82_2,2023-11-06T23:20:42.299Z,,0,,,NaN,,,,,,false,,,,376288.7999997139,376288.59999990463,,376288.5,,376299.59,8,400,,,
sequence,flow.Sequence,4_82,2023-11-06T23:20:42.299Z,,0,,,4326.873999904608,completion,,,,,false,,,,376289,376288.59999990463,371938.836,371949.19999980927,371961.726,376299.59,8,400,,,
trial,html.Screen,4_83_0,2023-11-06T23:20:45.694Z,,0,2,,3383.209999713872,response,ISIC_0025472.JPG,5,ISIC_0009984.JPG,ISIC_0009984.JPG,false,0,keypress(z),500,379683,379682.7999997139,376286.903,376289.19999980927,376299.59,379694.245,8,400,34,,ISIC_0025472.JPG
break,html.Screen,4_83_1,2023-11-06T23:20:45.694Z,,0,,,NaN,,,,,,false,,,,379683.7999997139,379683.59999990463,,379683.2999997139,,379694.245,8,400,,,
break_continue,html.Screen,4_83_2,2023-11-06T23:20:45.695Z,,0,,,NaN,,,,,,false,,,,379684.19999980927,379684.09999990463,,379684,,379694.245,8,400,,,
sequence,flow.Sequence,4_83,2023-11-06T23:20:45.695Z,,0,,,3384.509999904607,completion,,,,,false,,,,379684.40000009537,379684.09999990463,376286.903,376289.09999990463,376299.59,379694.245,8,400,,,
trial,html.Screen,4_84_0,2023-11-06T23:20:49.153Z,,0,2,,3447.5549997139024,response,ISIC_0034313.JPG,5,ISIC_0010810.JPG,ISIC_0034313.JPG,false,1,keypress(m),500,383142,383141.7999997139,379680.929,379684.59999990463,379694.245,383154.734,8,400,35,,ISIC_0010810.JPG
break,html.Screen,4_84_1,2023-11-06T23:20:49.153Z,,0,,,NaN,,,,,,false,,,,383142.7999997139,383142.59999990463,,383142.2999997139,,383154.734,8,400,,,
break_continue,html.Screen,4_84_2,2023-11-06T23:20:49.154Z,,0,,,NaN,,,,,,false,,,,383143.19999980927,383143.09999990463,,383142.90000009537,,383154.734,8,400,,,
sequence,flow.Sequence,4_84,2023-11-06T23:20:49.154Z,,0,,,3448.854999904637,completion,,,,,false,,,,383143.2999997139,383143.09999990463,379680.929,379684.59999990463,379694.245,383154.734,8,400,,,
trial,html.Screen,4_85_0,2023-11-06T23:20:53.749Z,,0,2,,4583.266000000003,response,ISIC_0360367.JPG,4,ISIC_0000467.JPG,ISIC_0000467.JPG,false,0,keypress(z),500,387738.2999997139,387738,383134.071,383143.5,383154.734,387749.607,8,400,36,,ISIC_0360367.JPG
break,html.Screen,4_85_1,2023-11-06T23:20:53.750Z,,0,,,NaN,,,,,,false,,,,387739.09999990463,387738.90000009537,,387738.5,,387749.607,8,400,,,
break_continue,html.Screen,4_85_2,2023-11-06T23:20:53.750Z,,0,,,NaN,,,,,,false,,,,387739.59999990463,387739.40000009537,,387739.2999997139,,387749.607,8,400,,,
sequence,flow.Sequence,4_85,2023-11-06T23:20:53.750Z,,0,,,4584.666000095371,completion,,,,,false,,,,387739.69999980927,387739.40000009537,383134.071,383143.5,383154.734,387749.607,8,400,,,
trial,html.Screen,4_86_0,2023-11-06T23:20:57.080Z,,0,2,,3320.092999809247,response,ISIC_0062686.JPG,4,ISIC_2349994.JPG,ISIC_0062686.JPG,false,1,keypress(m),500,391069.90000009537,391069.69999980927,387725.152,387739.7999997139,387749.607,391079.88,8,400,37,,ISIC_2349994.JPG
break,html.Screen,4_86_1,2023-11-06T23:20:57.081Z,,0,,,NaN,,,,,,false,,,,391071,391070.5,,391070.09999990463,,391079.88,8,400,,,
break_continue,html.Screen,4_86_2,2023-11-06T23:20:57.082Z,,0,,,NaN,,,,,,false,,,,391071.40000009537,391071.19999980927,,391071.09999990463,,391079.88,8,400,,,
sequence,flow.Sequence,4_86,2023-11-06T23:20:57.082Z,,0,,,3321.592999809247,completion,,,,,false,,,,391071.59999990463,391071.19999980927,387725.152,387739.7999997139,387749.607,391079.88,8,400,,,
trial,html.Screen,4_87_0,2023-11-06T23:21:00.237Z,,0,2,,3146.1199999999953,response,ISIC_0032951.JPG,5,ISIC_8727962.JPG,ISIC_0032951.JPG,false,1,keypress(m),500,394226.2999997139,394226,391065.821,391071.7999997139,391079.88,394231.377,8,400,38,,ISIC_8727962.JPG
break,html.Screen,4_87_1,2023-11-06T23:21:00.237Z,,0,,,NaN,,,,,,false,,,,394226.90000009537,394226.7999997139,,394226.5,,394231.377,8,400,,,
break_continue,html.Screen,4_87_2,2023-11-06T23:21:00.238Z,,0,,,NaN,,,,,,false,,,,394227.2999997139,394227.19999980927,,394227.09999990463,,394231.377,8,400,,,
sequence,flow.Sequence,4_87,2023-11-06T23:21:00.238Z,,0,,,3147.3199998092605,completion,,,,,false,,,,394227.5,394227.19999980927,391065.821,391071.69999980927,391079.88,394231.377,8,400,,,
trial,html.Screen,4_88_0,2023-11-06T23:21:04.191Z,,0,2,,3949.3229998092866,response,ISIC_8397285.JPG,4,ISIC_0011150.JPG,ISIC_8397285.JPG,false,1,keypress(m),500,398181,398180.69999980927,394226.625,394227.59999990463,394231.377,398188.7,8,400,39,,ISIC_0011150.JPG
break,html.Screen,4_88_1,2023-11-06T23:21:04.192Z,,0,,,NaN,,,,,,false,,,,398181.7999997139,398181.69999980927,,398181.19999980927,,398188.7,8,400,,,
break_continue,html.Screen,4_88_2,2023-11-06T23:21:04.193Z,,0,,,NaN,,,,,,false,,,,398182.09999990463,398182.09999990463,,398182,,398188.7,8,400,,,
sequence,flow.Sequence,4_88,2023-11-06T23:21:04.193Z,,0,,,3950.722999904654,completion,,,,,false,,,,398182.2999997139,398182.09999990463,394226.625,394227.59999990463,394231.377,398188.7,8,400,,,
trial,html.Screen,4_89_0,2023-11-06T23:21:07.362Z,,0,2,,3162.7999999999884,response,ISIC_0011693.JPG,4,ISIC_2311665.JPG,ISIC_0011693.JPG,false,1,keypress(m),500,401351.7999997139,401351.5,398177.606,398182.40000009537,398188.7,401369.333,8,400,40,,ISIC_2311665.JPG
break,html.Screen,4_89_1,2023-11-06T23:21:07.363Z,,0,,,NaN,,,,,,false,,,,401352.69999980927,401352.5,,401352,,401369.333,8,400,,,
break_continue,html.Screen,4_89_2,2023-11-06T23:21:07.364Z,,0,,,NaN,,,,,,false,,,,401353.09999990463,401353,,401352.90000009537,,401369.333,8,400,,,
sequence,flow.Sequence,4_89,2023-11-06T23:21:07.364Z,,0,,,3164.2999999999884,completion,,,,,false,,,,401353.2999997139,401353,398177.606,398182.40000009537,398188.7,401369.333,8,400,,,
trial,html.Screen,4_90_0,2023-11-06T23:21:10.455Z,,0,2,,3074.866999809281,response,ISIC_0034218.JPG,5,ISIC_0929517.JPG,ISIC_0034218.JPG,false,1,keypress(m),500,404444.40000009537,404444.19999980927,401354.455,401353.5,401369.333,404452.619,8,400,41,,ISIC_0929517.JPG
break,html.Screen,4_90_1,2023-11-06T23:21:10.456Z,,0,,,NaN,,,,,,false,,,,404445.09999990463,404444.90000009537,,404444.59999990463,,404452.619,8,400,,,
break_continue,html.Screen,4_90_2,2023-11-06T23:21:10.456Z,,0,,,NaN,,,,,,false,,,,404445.5,404445.2999997139,,404445.2999997139,,404452.619,8,400,,,
sequence,flow.Sequence,4_90,2023-11-06T23:21:10.456Z,,0,,,3075.9669997139135,completion,,,,,false,,,,404445.59999990463,404445.2999997139,401354.455,401353.40000009537,401369.333,404452.619,8,400,,,
trial,html.Screen,4_91_0,2023-11-06T23:21:13.370Z,,0,2,,2906.880999999994,response,ISIC_5868291.JPG,5,ISIC_0000176.JPG,ISIC_5868291.JPG,false,1,keypress(m),500,407359.69999980927,407359.5,404436.291,404445.69999980927,404452.619,407376.875,8,400,42,,ISIC_0000176.JPG
break,html.Screen,4_91_1,2023-11-06T23:21:13.371Z,,0,,,NaN,,,,,,false,,,,407360.59999990463,407360.40000009537,,407360,,407376.875,8,400,,,
break_continue,html.Screen,4_91_2,2023-11-06T23:21:13.371Z,,0,,,NaN,,,,,,false,,,,407360.90000009537,407360.7999997139,,407360.69999980927,,407376.875,8,400,,,
sequence,flow.Sequence,4_91,2023-11-06T23:21:13.372Z,,0,,,2908.1809997138917,completion,,,,,false,,,,407361.19999980927,407360.7999997139,404436.291,404445.69999980927,404452.619,407376.875,8,400,,,
trial,html.Screen,4_92_0,2023-11-06T23:21:17.069Z,,0,2,,3681.7249999046326,response,ISIC_0033329.JPG,5,ISIC_8253326.JPG,ISIC_0033329.JPG,false,1,keypress(m),500,411058.90000009537,411058.59999990463,407355.594,407361.2999997139,407376.875,411076.491,8,400,43,,ISIC_8253326.JPG
break,html.Screen,4_92_1,2023-11-06T23:21:17.070Z,,0,,,NaN,,,,,,false,,,,411059.59999990463,411059.40000009537,,411059,,411076.491,8,400,,,
break_continue,html.Screen,4_92_2,2023-11-06T23:21:17.071Z,,0,,,NaN,,,,,,false,,,,411060.09999990463,411059.90000009537,,411059.7999997139,,411076.491,8,400,,,
sequence,flow.Sequence,4_92,2023-11-06T23:21:17.071Z,,0,,,3683.0250000953674,completion,,,,,false,,,,411060.2999997139,411059.90000009537,407355.594,407361.2999997139,407376.875,411076.491,8,400,,,
trial,html.Screen,4_93_0,2023-11-06T23:21:20.209Z,,0,2,,3121.6089999046526,response,ISIC_1247683.JPG,4,ISIC_0012048.JPG,ISIC_1247683.JPG,false,1,keypress(m),500,414198.2999997139,414198.09999990463,411059.939,411060.40000009537,411076.491,414208.142,8,400,44,,ISIC_0012048.JPG
break,html.Screen,4_93_1,2023-11-06T23:21:20.210Z,,0,,,NaN,,,,,,false,,,,414199.09999990463,414198.90000009537,,414198.59999990463,,414208.142,8,400,,,
break_continue,html.Screen,4_93_2,2023-11-06T23:21:20.210Z,,0,,,NaN,,,,,,false,,,,414199.40000009537,414199.2999997139,,414199.19999980927,,414208.142,8,400,,,
sequence,flow.Sequence,4_93,2023-11-06T23:21:20.210Z,,0,,,3122.8089997139177,completion,,,,,false,,,,414199.59999990463,414199.2999997139,411059.939,411060.2999997139,411076.491,414208.142,8,400,,,
trial,html.Screen,4_94_0,2023-11-06T23:21:23.189Z,,0,2,,2969.8580000000075,response,ISIC_9996128.JPG,5,ISIC_0027596.JPG,ISIC_9996128.JPG,false,1,keypress(m),500,417178.19999980927,417178,414195.909,414199.69999980927,414208.142,417193.106,8,400,45,,ISIC_0027596.JPG
break,html.Screen,4_94_1,2023-11-06T23:21:23.190Z,,0,,,NaN,,,,,,false,,,,417179,417178.7999997139,,417178.40000009537,,417193.106,8,400,,,
break_continue,html.Screen,4_94_2,2023-11-06T23:21:23.190Z,,0,,,NaN,,,,,,false,,,,417179.2999997139,417179.2999997139,,417179.09999990463,,417193.106,8,400,,,
sequence,flow.Sequence,4_94,2023-11-06T23:21:23.190Z,,0,,,2971.157999713905,completion,,,,,false,,,,417179.5,417179.2999997139,414195.909,414199.59999990463,414208.142,417193.106,8,400,,,
trial,html.Screen,4_95_0,2023-11-06T23:21:27.224Z,,0,2,,4020.0939998092363,response,ISIC_0001831.JPG,5,ISIC_0057462.JPG,ISIC_0057462.JPG,false,0,keypress(z),500,421213.40000009537,421213.19999980927,417176.892,417179.69999980927,417193.106,421227.683,8,400,46,,ISIC_0001831.JPG
break,html.Screen,4_95_1,2023-11-06T23:21:27.225Z,,0,,,NaN,,,,,,false,,,,421214.19999980927,421214.09999990463,,421213.69999980927,,421227.683,8,400,,,
break_continue,html.Screen,4_95_2,2023-11-06T23:21:27.225Z,,0,,,NaN,,,,,,false,,,,421214.7999997139,421214.59999990463,,421214.40000009537,,421227.683,8,400,,,
sequence,flow.Sequence,4_95,2023-11-06T23:21:27.225Z,,0,,,4021.4939999046037,completion,,,,,false,,,,421215,421214.59999990463,417176.892,417179.59999990463,417193.106,421227.683,8,400,,,
trial,html.Screen,4_96_0,2023-11-06T23:21:30.619Z,,0,2,,3380.516999809246,response,ISIC_4894929.JPG,4,ISIC_0055841.JPG,ISIC_4894929.JPG,false,1,keypress(m),500,424608.5,424608.19999980927,421211.031,421215.09999990463,421227.683,424617.696,8,400,47,,ISIC_0055841.JPG
break,html.Screen,4_96_1,2023-11-06T23:21:30.620Z,,0,,,NaN,,,,,,false,,,,424609.2999997139,424609.19999980927,,424608.69999980927,,424617.696,8,400,,,
break_continue,html.Screen,4_96_2,2023-11-06T23:21:30.620Z,,0,,,NaN,,,,,,false,,,,424609.7999997139,424609.59999990463,,424609.5,,424617.696,8,400,,,
sequence,flow.Sequence,4_96,2023-11-06T23:21:30.620Z,,0,,,3381.9169999046135,completion,,,,,false,,,,424609.90000009537,424609.59999990463,421211.031,421215,421227.683,424617.696,8,400,,,
trial,html.Screen,4_97_0,2023-11-06T23:21:33.998Z,,0,2,,3370.3040000000037,response,ISIC_0009955.JPG,5,ISIC_0024756.JPG,ISIC_0024756.JPG,false,0,keypress(z),500,427988.2999997139,427988,424604.133,424610.09999990463,424617.696,427997.375,8,400,48,,ISIC_0009955.JPG
break,html.Screen,4_97_1,2023-11-06T23:21:33.999Z,,0,,,NaN,,,,,,false,,,,427988.90000009537,427988.7999997139,,427988.40000009537,,427997.375,8,400,,,
break_continue,html.Screen,4_97_2,2023-11-06T23:21:33.999Z,,0,,,NaN,,,,,,false,,,,427989.2999997139,427989.19999980927,,427989.09999990463,,427997.375,8,400,,,
sequence,flow.Sequence,4_97,2023-11-06T23:21:34.000Z,,0,,,3371.503999809269,completion,,,,,false,,,,427989.40000009537,427989.19999980927,424604.133,424610.09999990463,424617.696,427997.375,8,400,,,
trial,html.Screen,4_98_0,2023-11-06T23:21:37.938Z,,0,2,,3930.0250000953674,response,ISIC_3009564.JPG,5,ISIC_0054334.JPG,ISIC_0054334.JPG,false,0,keypress(z),500,431927.69999980927,431927.40000009537,427986.992,427989.69999980927,427997.375,431939.923,8,400,49,,ISIC_3009564.JPG
break,html.Screen,4_98_1,2023-11-06T23:21:37.939Z,,0,,,NaN,,,,,,false,,,,431928.59999990463,431928.2999997139,,431927.90000009537,,431939.923,8,400,,,
break_continue,html.Screen,4_98_2,2023-11-06T23:21:37.939Z,,0,,,NaN,,,,,,false,,,,431929,431928.90000009537,,431928.59999990463,,431939.923,8,400,,,
sequence,flow.Sequence,4_98,2023-11-06T23:21:37.940Z,,0,,,3931.5250000953674,completion,,,,,false,,,,431929.40000009537,431928.90000009537,427986.992,427989.5,427997.375,431939.923,8,400,,,
trial,html.Screen,4_99_0,2023-11-06T23:21:41.448Z,,0,2,,3497.9770000953577,response,ISIC_0034256.JPG,5,ISIC_5324623.JPG,ISIC_0034256.JPG,false,1,keypress(m),500,435438.19999980927,435437.90000009537,431916.937,431929.5,431939.923,435451.951,8,400,50,,ISIC_5324623.JPG
break,html.Screen,4_99_1,2023-11-06T23:21:51.447Z,,0,,,10000.542000000016,timeout,,,,,false,,,,445436.69999980927,445435.847,435438.713,435438.40000009537,435451.951,445452.493,8,400,,,
break_continue,html.Screen,4_99_2,2023-11-06T23:21:52.471Z,,0,,,999.0069999999832,response,,,,,false,continue,keypress(Space),,446460.90000009537,446451.5,445435.847,445436.7999997139,445452.493,446469.942,8,400,,,
sequence,flow.Sequence,4_99,2023-11-06T23:21:52.471Z,,0,,,14511.57699999999,completion,,,,,false,,,,446461,446451.5,431916.937,431929.40000009537,431939.923,446469.942,8,400,,,
trial,html.Screen,4_100_0,2023-11-06T23:21:55.465Z,,0,3,,2984.357999713917,response,ISIC_0591011.JPG,4,ISIC_1037945.JPG,ISIC_1037945.JPG,false,0,keypress(z),500,449454.59999990463,449454.2999997139,446452.225,446461.09999990463,446469.942,449459.588,8,400,1,,ISIC_0591011.JPG
break,html.Screen,4_100_1,2023-11-06T23:21:55.466Z,,0,,,NaN,,,,,,false,,,,449455.59999990463,449455.2999997139,,449455,,449459.588,8,400,,,
break_continue,html.Screen,4_100_2,2023-11-06T23:21:55.466Z,,0,,,NaN,,,,,,false,,,,449456.19999980927,449456,,449455.7999997139,,449459.588,8,400,,,
sequence,flow.Sequence,4_100,2023-11-06T23:21:55.467Z,,0,,,2986.058000000019,completion,,,,,false,,,,449456.40000009537,449456,446452.225,446461,446469.942,449459.588,8,400,,,
trial,html.Screen,4_101_0,2023-11-06T23:21:58.781Z,,0,3,,3310.711999713909,response,ISIC_3842916.JPG,6,ISIC_6065301.JPG,ISIC_6065301.JPG,false,0,keypress(z),500,452770.59999990463,452770.2999997139,449441.198,449456.5,449459.588,452789.487,8,400,2,,ISIC_3842916.JPG
break,html.Screen,4_101_1,2023-11-06T23:21:58.781Z,,0,,,NaN,,,,,,false,,,,452771.2999997139,452771,,452770.69999980927,,452789.487,8,400,,,
break_continue,html.Screen,4_101_2,2023-11-06T23:21:58.782Z,,0,,,NaN,,,,,,false,,,,452771.59999990463,452771.5,,452771.40000009537,,452789.487,8,400,,,
sequence,flow.Sequence,4_101,2023-11-06T23:21:58.782Z,,0,,,3311.912000000011,completion,,,,,false,,,,452771.7999997139,452771.5,449441.198,449456.40000009537,449459.588,452789.487,8,400,,,
trial,html.Screen,4_102_0,2023-11-06T23:22:01.793Z,,0,3,,2992.7129998092423,response,ISIC_0000140.JPG,5,ISIC_1640823.JPG,ISIC_0000140.JPG,false,1,keypress(m),500,455782.59999990463,455782.19999980927,452760.384,452772,452789.487,455802.424,8,400,3,,ISIC_1640823.JPG
break,html.Screen,4_102_1,2023-11-06T23:22:01.794Z,,0,,,NaN,,,,,,false,,,,455783.40000009537,455783.2999997139,,455782.7999997139,,455802.424,8,400,,,
break_continue,html.Screen,4_102_2,2023-11-06T23:22:01.794Z,,0,,,NaN,,,,,,false,,,,455783.7999997139,455783.69999980927,,455783.59999990463,,455802.424,8,400,,,
sequence,flow.Sequence,4_102,2023-11-06T23:22:01.794Z,,0,,,2994.2129998092423,completion,,,,,false,,,,455784,455783.69999980927,452760.384,452772,452789.487,455802.424,8,400,,,
trial,html.Screen,4_103_0,2023-11-06T23:22:04.820Z,,0,3,,3006.9760000953684,response,ISIC_0001923.JPG,5,ISIC_5992826.JPG,ISIC_5992826.JPG,false,0,keypress(z),500,458809.69999980927,458809.40000009537,455780.472,455784.19999980927,455802.424,458821.077,8,400,4,,ISIC_0001923.JPG
break,html.Screen,4_103_1,2023-11-06T23:22:04.821Z,,0,,,NaN,,,,,,false,,,,458810.5,458810.2999997139,,458809.90000009537,,458821.077,8,400,,,
break_continue,html.Screen,4_103_2,2023-11-06T23:22:04.821Z,,0,,,NaN,,,,,,false,,,,458810.90000009537,458810.7999997139,,458810.59999990463,,458821.077,8,400,,,
sequence,flow.Sequence,4_103,2023-11-06T23:22:04.821Z,,0,,,3008.3759997138986,completion,,,,,false,,,,458811.19999980927,458810.7999997139,455780.472,455784.09999990463,455802.424,458821.077,8,400,,,
trial,html.Screen,4_104_0,2023-11-06T23:22:07.751Z,,0,3,,2919.622999809275,response,ISIC_4564163.JPG,6,ISIC_0070285.JPG,ISIC_0070285.JPG,false,0,keypress(z),500,461741.09999990463,461740.69999980927,458808.878,458811.2999997139,458821.077,461751.703,8,400,5,,ISIC_4564163.JPG
break,html.Screen,4_104_1,2023-11-06T23:22:07.752Z,,0,,,NaN,,,,,,false,,,,461741.90000009537,461741.69999980927,,461741.19999980927,,461751.703,8,400,,,
break_continue,html.Screen,4_104_2,2023-11-06T23:22:07.752Z,,0,,,NaN,,,,,,false,,,,461742.2999997139,461742.19999980927,,461742.09999990463,,461751.703,8,400,,,
sequence,flow.Sequence,4_104,2023-11-06T23:22:07.753Z,,0,,,2921.122999809275,completion,,,,,false,,,,461742.5,461742.19999980927,458808.878,458811.2999997139,458821.077,461751.703,8,400,,,
trial,html.Screen,4_105_0,2023-11-06T23:22:10.667Z,,0,3,,2905.197000095388,response,ISIC_9929097.JPG,4,ISIC_9905633.JPG,ISIC_9929097.JPG,false,1,keypress(m),500,464657.19999980927,464656.90000009537,461726.702,461742.69999980927,461751.703,464675.213,8,400,6,,ISIC_9905633.JPG
break,html.Screen,4_105_1,2023-11-06T23:22:10.668Z,,0,,,NaN,,,,,,false,,,,464657.90000009537,464657.7999997139,,464657.40000009537,,464675.213,8,400,,,
break_continue,html.Screen,4_105_2,2023-11-06T23:22:10.668Z,,0,,,NaN,,,,,,false,,,,464658.2999997139,464658.19999980927,,464658,,464675.213,8,400,,,
sequence,flow.Sequence,4_105,2023-11-06T23:22:10.669Z,,0,,,2906.4969998092856,completion,,,,,false,,,,464658.59999990463,464658.19999980927,461726.702,461742.59999990463,461751.703,464675.213,8,400,,,
trial,html.Screen,4_106_0,2023-11-06T23:22:13.919Z,,0,3,,3232.8869999046437,response,ISIC_7225978.JPG,4,ISIC_0463755.JPG,ISIC_0463755.JPG,false,0,keypress(z),500,467908.40000009537,467908.09999990463,464650.75,464658.69999980927,464675.213,467918.01,8,400,7,,ISIC_7225978.JPG
break,html.Screen,4_106_1,2023-11-06T23:22:13.919Z,,0,,,NaN,,,,,,false,,,,467909.09999990463,467909,,467908.59999990463,,467918.01,8,400,,,
break_continue,html.Screen,4_106_2,2023-11-06T23:22:13.920Z,,0,,,NaN,,,,,,false,,,,467909.5,467909.40000009537,,467909.19999980927,,467918.01,8,400,,,
sequence,flow.Sequence,4_106,2023-11-06T23:22:13.920Z,,0,,,3234.1870000953786,completion,,,,,false,,,,467909.59999990463,467909.40000009537,464650.75,464658.69999980927,464675.213,467918.01,8,400,,,
trial,html.Screen,4_107_0,2023-11-06T23:22:17.841Z,,0,3,,3913.0899999046233,response,ISIC_1925590.JPG,4,ISIC_4289906.JPG,ISIC_1925590.JPG,false,1,keypress(m),500,471831.2999997139,471831.09999990463,467896.258,467909.69999980927,467918.01,471844.909,8,400,8,,ISIC_4289906.JPG
break,html.Screen,4_107_1,2023-11-06T23:22:17.842Z,,0,,,NaN,,,,,,false,,,,471832,471831.7999997139,,471831.5,,471844.909,8,400,,,
break_continue,html.Screen,4_107_2,2023-11-06T23:22:17.843Z,,0,,,NaN,,,,,,false,,,,471832.5,471832.2999997139,,471832.19999980927,,471844.909,8,400,,,
sequence,flow.Sequence,4_107,2023-11-06T23:22:17.843Z,,0,,,3914.2899997138884,completion,,,,,false,,,,471832.69999980927,471832.2999997139,467896.258,467909.69999980927,467918.01,471844.909,8,400,,,
trial,html.Screen,4_108_0,2023-11-06T23:22:21.508Z,,0,3,,3652.8909997139126,response,ISIC_9358630.JPG,5,ISIC_0033638.JPG,ISIC_9358630.JPG,false,1,keypress(m),500,475498.09999990463,475497.7999997139,471828.569,471832.69999980927,471844.909,475508.7,8,400,9,,ISIC_0033638.JPG
break,html.Screen,4_108_1,2023-11-06T23:22:21.509Z,,0,,,NaN,,,,,,false,,,,475498.90000009537,475498.59999990463,,475498.2999997139,,475508.7,8,400,,,
break_continue,html.Screen,4_108_2,2023-11-06T23:22:21.509Z,,0,,,NaN,,,,,,false,,,,475499.19999980927,475499.09999990463,,475499,,475508.7,8,400,,,
sequence,flow.Sequence,4_108,2023-11-06T23:22:21.510Z,,0,,,3654.1909999046475,completion,,,,,false,,,,475499.40000009537,475499.09999990463,471828.569,471832.69999980927,471844.909,475508.7,8,400,,,
trial,html.Screen,4_109_0,2023-11-06T23:22:25.335Z,,0,3,,3815.899999904621,response,ISIC_0026103.JPG,5,ISIC_0065039.JPG,ISIC_0065039.JPG,false,0,keypress(z),500,479324.7999997139,479324.59999990463,475498.152,475499.59999990463,475508.7,479343.804,8,400,10,,ISIC_0026103.JPG
break,html.Screen,4_109_1,2023-11-06T23:22:25.336Z,,0,,,NaN,,,,,,false,,,,479325.5,479325.40000009537,,479325.09999990463,,479343.804,8,400,,,
break_continue,html.Screen,4_109_2,2023-11-06T23:22:25.336Z,,0,,,NaN,,,,,,false,,,,479325.90000009537,479325.7999997139,,479325.69999980927,,479343.804,8,400,,,
sequence,flow.Sequence,4_109,2023-11-06T23:22:25.336Z,,0,,,3817.099999713886,completion,,,,,false,,,,479326,479325.7999997139,475498.152,475499.59999990463,475508.7,479343.804,8,400,,,
trial,html.Screen,4_110_0,2023-11-06T23:22:28.395Z,,0,3,,3040.495999713894,response,ISIC_0032532.JPG,5,ISIC_2200197.JPG,ISIC_2200197.JPG,false,0,keypress(z),500,482384.5,482384.2999997139,479317.534,479326.19999980927,479343.804,482399.248,8,400,11,,ISIC_0032532.JPG
break,html.Screen,4_110_1,2023-11-06T23:22:28.396Z,,0,,,NaN,,,,,,false,,,,482385.2999997139,482385.19999980927,,482384.7999997139,,482399.248,8,400,,,
break_continue,html.Screen,4_110_2,2023-11-06T23:22:28.396Z,,0,,,NaN,,,,,,false,,,,482385.69999980927,482385.69999980927,,482385.40000009537,,482399.248,8,400,,,
sequence,flow.Sequence,4_110,2023-11-06T23:22:28.396Z,,0,,,3041.8959998092614,completion,,,,,false,,,,482385.90000009537,482385.69999980927,479317.534,479326.09999990463,479343.804,482399.248,8,400,,,
trial,html.Screen,4_111_0,2023-11-06T23:22:32.078Z,,0,3,,3667.851999904611,response,ISIC_7592920.JPG,5,ISIC_2904067.JPG,ISIC_7592920.JPG,false,1,keypress(m),500,486067.2999997139,486067.09999990463,482385.461,482386.09999990463,482399.248,486071.497,8,400,12,,ISIC_2904067.JPG
break,html.Screen,4_111_1,2023-11-06T23:22:32.079Z,,0,,,NaN,,,,,,false,,,,486068.19999980927,486068,,486067.5,,486071.497,8,400,,,
break_continue,html.Screen,4_111_2,2023-11-06T23:22:32.079Z,,0,,,NaN,,,,,,false,,,,486068.59999990463,486068.40000009537,,486068.2999997139,,486071.497,8,400,,,
sequence,flow.Sequence,4_111,2023-11-06T23:22:32.079Z,,0,,,3669.152000095346,completion,,,,,false,,,,486068.90000009537,486068.40000009537,482385.461,482386.09999990463,482399.248,486071.497,8,400,,,
trial,html.Screen,4_112_0,2023-11-06T23:22:35.761Z,,0,3,,3678.702999809291,response,ISIC_0064393.JPG,4,ISIC_0000283.JPG,ISIC_0000283.JPG,false,0,keypress(z),500,489750.5,489750.19999980927,486058.574,486069,486071.497,489766.83,8,400,13,,ISIC_0064393.JPG
break,html.Screen,4_112_1,2023-11-06T23:22:35.762Z,,0,,,NaN,,,,,,false,,,,489751.19999980927,489751.09999990463,,489750.69999980927,,489766.83,8,400,,,
break_continue,html.Screen,4_112_2,2023-11-06T23:22:35.762Z,,0,,,NaN,,,,,,false,,,,489751.59999990463,489751.5,,489751.40000009537,,489766.83,8,400,,,
sequence,flow.Sequence,4_112,2023-11-06T23:22:35.762Z,,0,,,3680.003000000026,completion,,,,,false,,,,489751.7999997139,489751.5,486058.574,486068.90000009537,486071.497,489766.83,8,400,,,
trial,html.Screen,4_113_0,2023-11-06T23:22:38.948Z,,0,3,,3170.4699997138814,response,ISIC_0067840.JPG,5,ISIC_6959281.JPG,ISIC_6959281.JPG,false,0,keypress(z),500,492937.59999990463,492937.2999997139,489747.197,489752,489766.83,492941.922,8,400,14,,ISIC_0067840.JPG
break,html.Screen,4_113_1,2023-11-06T23:22:38.949Z,,0,,,NaN,,,,,,false,,,,492938.2999997139,492938.09999990463,,492937.69999980927,,492941.922,8,400,,,
break_continue,html.Screen,4_113_2,2023-11-06T23:22:38.949Z,,0,,,NaN,,,,,,false,,,,492938.69999980927,492938.59999990463,,492938.40000009537,,492941.922,8,400,,,
sequence,flow.Sequence,4_113,2023-11-06T23:22:38.950Z,,0,,,3171.7699999046163,completion,,,,,false,,,,492939.2999997139,492938.59999990463,489747.197,489752,489766.83,492941.922,8,400,,,
trial,html.Screen,4_114_0,2023-11-06T23:22:45.736Z,,0,3,,6783.377999713877,response,ISIC_0056228.JPG,5,ISIC_4066094.JPG,ISIC_0056228.JPG,false,1,keypress(m),500,499725.59999990463,499725.2999997139,492926.476,492939.5,492941.922,499750.504,8,400,15,,ISIC_4066094.JPG
break,html.Screen,4_114_1,2023-11-06T23:22:45.737Z,,0,,,NaN,,,,,,false,,,,499726.2999997139,499726.09999990463,,499725.7999997139,,499750.504,8,400,,,
break_continue,html.Screen,4_114_2,2023-11-06T23:22:45.737Z,,0,,,NaN,,,,,,false,,,,499726.69999980927,499726.59999990463,,499726.40000009537,,499750.504,8,400,,,
sequence,flow.Sequence,4_114,2023-11-06T23:22:45.737Z,,0,,,6784.677999904612,completion,,,,,false,,,,499726.7999997139,499726.59999990463,492926.476,492939.40000009537,492941.922,499750.504,8,400,,,
trial,html.Screen,4_115_0,2023-11-06T23:22:51.596Z,,0,3,,5834.595999904617,response,ISIC_0031203.JPG,5,ISIC_8194371.JPG,ISIC_0031203.JPG,false,1,keypress(m),500,505585.40000009537,505585.09999990463,499733.745,499727,499750.504,505604.715,8,400,16,,ISIC_8194371.JPG
break,html.Screen,4_115_1,2023-11-06T23:22:51.597Z,,0,,,NaN,,,,,,false,,,,505586.19999980927,505586,,505585.59999990463,,505604.715,8,400,,,
break_continue,html.Screen,4_115_2,2023-11-06T23:22:51.597Z,,0,,,NaN,,,,,,false,,,,505586.59999990463,505586.5,,505586.40000009537,,505604.715,8,400,,,
sequence,flow.Sequence,4_115,2023-11-06T23:22:51.597Z,,0,,,5835.995999999985,completion,,,,,false,,,,505586.7999997139,505586.5,499733.745,499726.90000009537,499750.504,505604.715,8,400,,,
trial,html.Screen,4_116_0,2023-11-06T23:22:54.590Z,,0,3,,2975.084999713872,response,ISIC_8284685.JPG,5,ISIC_8766254.JPG,ISIC_8766254.JPG,false,0,keypress(z),500,508580,508579.7999997139,505572.91,505586.7999997139,505604.715,508591.291,8,400,17,,ISIC_8284685.JPG
break,html.Screen,4_116_1,2023-11-06T23:22:54.591Z,,0,,,NaN,,,,,,false,,,,508580.69999980927,508580.59999990463,,508580.19999980927,,508591.291,8,400,,,
break_continue,html.Screen,4_116_2,2023-11-06T23:22:54.591Z,,0,,,NaN,,,,,,false,,,,508581.09999990463,508581,,508580.90000009537,,508591.291,8,400,,,
sequence,flow.Sequence,4_116,2023-11-06T23:22:54.592Z,,0,,,2976.2849999999744,completion,,,,,false,,,,508581.2999997139,508581,505572.91,505586.7999997139,505604.715,508591.291,8,400,,,
trial,html.Screen,4_117_0,2023-11-06T23:22:57.841Z,,0,3,,3239.4089998092386,response,ISIC_0054422.JPG,5,ISIC_0616491.JPG,ISIC_0054422.JPG,false,1,keypress(m),500,511830.90000009537,511830.69999980927,508577.393,508581.5,508591.291,511835.906,8,400,18,,ISIC_0616491.JPG
break,html.Screen,4_117_1,2023-11-06T23:22:57.842Z,,0,,,NaN,,,,,,false,,,,511831.5,511831.2999997139,,511831,,511835.906,8,400,,,
break_continue,html.Screen,4_117_2,2023-11-06T23:22:57.842Z,,0,,,NaN,,,,,,false,,,,511831.69999980927,511831.59999990463,,511831.5,,511835.906,8,400,,,
sequence,flow.Sequence,4_117,2023-11-06T23:22:57.842Z,,0,,,3240.308999904606,completion,,,,,false,,,,511831.7999997139,511831.59999990463,508577.393,508581.40000009537,508591.291,511835.906,8,400,,,
trial,html.Screen,4_118_0,2023-11-06T23:23:00.948Z,,0,3,,3101.8939997138805,response,ISIC_8943855.JPG,5,ISIC_0033881.JPG,ISIC_0033881.JPG,false,0,keypress(z),500,514938,514937.7999997139,511826.284,511831.90000009537,511835.906,514950.474,8,400,19,,ISIC_8943855.JPG
break,html.Screen,4_118_1,2023-11-06T23:23:00.949Z,,0,,,NaN,,,,,,false,,,,514938.7999997139,514938.59999990463,,514938.19999980927,,514950.474,8,400,,,
break_continue,html.Screen,4_118_2,2023-11-06T23:23:00.949Z,,0,,,NaN,,,,,,false,,,,514939.19999980927,514939,,514938.90000009537,,514950.474,8,400,,,
sequence,flow.Sequence,4_118,2023-11-06T23:23:00.950Z,,0,,,3103.0939999999828,completion,,,,,false,,,,514939.2999997139,514939,511826.284,511831.7999997139,511835.906,514950.474,8,400,,,
trial,html.Screen,4_119_0,2023-11-06T23:23:04.696Z,,0,3,,3734.5260000000126,response,ISIC_0015219.JPG,5,ISIC_0033374.JPG,ISIC_0015219.JPG,false,1,keypress(m),500,518685.2999997139,518685,514937.063,514939.5,514950.474,518691.731,8,400,20,,ISIC_0033374.JPG
break,html.Screen,4_119_1,2023-11-06T23:23:04.696Z,,0,,,NaN,,,,,,false,,,,518686.19999980927,518686,,518685.5,,518691.731,8,400,,,
break_continue,html.Screen,4_119_2,2023-11-06T23:23:04.697Z,,0,,,NaN,,,,,,false,,,,518686.59999990463,518686.5,,518686.2999997139,,518691.731,8,400,,,
sequence,flow.Sequence,4_119,2023-11-06T23:23:04.697Z,,0,,,3736.0260000000126,completion,,,,,false,,,,518686.7999997139,518686.5,514937.063,514939.40000009537,514950.474,518691.731,8,400,,,
trial,html.Screen,4_120_0,2023-11-06T23:23:09.323Z,,0,3,,4621.169000095339,response,ISIC_0010789.JPG,5,ISIC_0064393.JPG,ISIC_0010789.JPG,false,1,keypress(m),500,523313.19999980927,523312.90000009537,518682.908,518687,518691.731,523327.105,8,400,21,,ISIC_0064393.JPG
break,html.Screen,4_120_1,2023-11-06T23:23:09.324Z,,0,,,NaN,,,,,,false,,,,523313.90000009537,523313.69999980927,,523313.2999997139,,523327.105,8,400,,,
break_continue,html.Screen,4_120_2,2023-11-06T23:23:09.325Z,,0,,,NaN,,,,,,false,,,,523314.19999980927,523314.09999990463,,523314,,523327.105,8,400,,,
sequence,flow.Sequence,4_120,2023-11-06T23:23:09.325Z,,0,,,4622.368999904604,completion,,,,,false,,,,523314.2999997139,523314.09999990463,518682.908,518686.90000009537,518691.731,523327.105,8,400,,,
trial,html.Screen,4_121_0,2023-11-06T23:23:12.463Z,,0,3,,3125.5949998092838,response,ISIC_9256438.JPG,6,ISIC_0059925.JPG,ISIC_9256438.JPG,false,1,keypress(m),500,526453,526452.6999998093,523298.743,523314.59999990463,523327.105,526467.169,8,400,22,,ISIC_0059925.JPG
break,html.Screen,4_121_1,2023-11-06T23:23:12.464Z,,0,,,NaN,,,,,,false,,,,526453.7999997139,526453.5999999046,,526453.1999998093,,526467.169,8,400,,,
break_continue,html.Screen,4_121_2,2023-11-06T23:23:12.464Z,,0,,,NaN,,,,,,false,,,,526454.0999999046,526454,,526453.9000000954,,526467.169,8,400,,,
sequence,flow.Sequence,4_121,2023-11-06T23:23:12.465Z,,0,,,3126.8950000000186,completion,,,,,false,,,,526454.4000000954,526454,523298.743,523314.59999990463,523327.105,526467.169,8,400,,,
trial,html.Screen,4_122_0,2023-11-06T23:23:18.067Z,,0,3,,5589.530999809271,response,ISIC_0011800.JPG,4,ISIC_0061734.JPG,ISIC_0011800.JPG,false,1,keypress(m),500,532056.9000000954,532056.6999998093,526440.128,526454.5,526467.169,532069.758,8,400,23,,ISIC_0061734.JPG
break,html.Screen,4_122_1,2023-11-06T23:23:18.068Z,,0,,,NaN,,,,,,false,,,,532057.6999998093,532057.5999999046,,532057.1999998093,,532069.758,8,400,,,
break_continue,html.Screen,4_122_2,2023-11-06T23:23:18.069Z,,0,,,NaN,,,,,,false,,,,532058.2999997139,532057.9000000954,,532057.7999997139,,532069.758,8,400,,,
sequence,flow.Sequence,4_122,2023-11-06T23:23:18.069Z,,0,,,5590.731000095373,completion,,,,,false,,,,532058.5,532057.9000000954,526440.128,526454.5,526467.169,532069.758,8,400,,,
trial,html.Screen,4_123_0,2023-11-06T23:23:21.575Z,,0,3,,3494.7419999999693,response,ISIC_5942564.JPG,6,ISIC_7034769.JPG,ISIC_5942564.JPG,false,1,keypress(m),500,535564.7999997139,535564.5,532054.575,532058.5999999046,532069.758,535572.716,8,400,24,,ISIC_7034769.JPG
break,html.Screen,4_123_1,2023-11-06T23:23:21.576Z,,0,,,NaN,,,,,,false,,,,535565.5,535565.2999997139,,535564.9000000954,,535572.716,8,400,,,
break_continue,html.Screen,4_123_2,2023-11-06T23:23:21.576Z,,0,,,NaN,,,,,,false,,,,535565.9000000954,535565.7999997139,,535565.6999998093,,535572.716,8,400,,,
sequence,flow.Sequence,4_123,2023-11-06T23:23:21.576Z,,0,,,3496.041999713867,completion,,,,,false,,,,535566.1999998093,535565.7999997139,532054.575,532058.5999999046,532069.758,535572.716,8,400,,,
trial,html.Screen,4_124_0,2023-11-06T23:23:25.370Z,,0,3,,3786.8839999046177,response,ISIC_4055833.JPG,6,ISIC_0069250.JPG,ISIC_0069250.JPG,false,0,keypress(z),500,539359.9000000954,539359.5999999046,535561.029,535566.2999997139,535572.716,539367.384,8,400,25,,ISIC_4055833.JPG
break,html.Screen,4_124_1,2023-11-06T23:23:25.371Z,,0,,,NaN,,,,,,false,,,,539360.5999999046,539360.4000000954,,539360.0999999046,,539367.384,8,400,,,
break_continue,html.Screen,4_124_2,2023-11-06T23:23:25.371Z,,0,,,NaN,,,,,,false,,,,539361.0999999046,539360.7999997139,,539360.6999998093,,539367.384,8,400,,,
sequence,flow.Sequence,4_124,2023-11-06T23:23:25.372Z,,0,,,3788.083999713883,completion,,,,,false,,,,539361.2999997139,539360.7999997139,535561.029,535566.1999998093,535572.716,539367.384,8,400,,,
trial,html.Screen,4_125_0,2023-11-06T23:23:30.030Z,,0,3,,4652.315999809303,response,ISIC_2276141.JPG,5,ISIC_0640770.JPG,ISIC_0640770.JPG,false,0,keypress(z),500,544020,544019.6999998093,539346.412,539361.5999999046,539367.384,544035.38,8,400,26,,ISIC_2276141.JPG
break,html.Screen,4_125_1,2023-11-06T23:23:30.031Z,,0,,,NaN,,,,,,false,,,,544020.6999998093,544020.5,,544020.1999998093,,544035.38,8,400,,,
break_continue,html.Screen,4_125_2,2023-11-06T23:23:30.032Z,,0,,,NaN,,,,,,false,,,,544021.1999998093,544020.9000000954,,544020.9000000954,,544035.38,8,400,,,
