sender,sender_type,sender_id,timestamp,meta,,blockNo,condition,duration,ended_on,img_left,img_reveal,img_right,loser,practice,response,response_action,selection_duration,time_commit,time_end,time_render,time_run,time_show,time_switch,total_blocks,total_trials,trialNo,url,winner
informed_consent,html.Screen,0,2023-10-31T02:39:29.963Z,"{""labjs_version"":""20.2.4"",""labjs_build"":{""flavor"":""production"",""commit"":""f5b4a49f956347addd546a832a3327688c2c0fef""},""location"":""https://run.pavlovia.org/MurrayBennett/melanoma-2afc/?participant=66314&platform=sona"",""userAgent"":""Mozilla/5.0 (Windows NT 10.0; Win64; x64) AppleWebKit/537.36 (KHTML, like Gecko) Chrome/118.0.0.0 Safari/537.36"",""platform"":""Win32"",""language"":""en-US"",""locale"":""en-US"",""timeZone"":""America/Chicago"",""timezoneOffset"":300,""screen_width"":1536,""screen_height"":864,""scroll_width"":1536,""scroll_height"":659,""window_innerWidth"":1536,""window_innerHeight"":707,""devicePixelRatio"":1.25}",,,,6203.836000023842,response,,,,,,consent,click button,,8272.600000023842,8271.100000023842,2060.338,2057.899999976158,2067.264,8284.491,,,,"{""participant"":""66314"",""platform"":""sona""}",
Welcome,html.Screen,1,2023-10-31T02:39:55.557Z,,,,colourful,25580.309000071524,response,,,,,,continue,click button,,33866.60000002384,33864.800000071526,8271.177,8272.800000071526,8284.491,33870.996,,,,,
trial,html.Screen,2_0_0,2023-10-31T02:40:05.912Z,,0,0,,10350.304000071526,response,ISIC_0025593.JPG,,ISIC_0063388.JPG,ISIC_0063388.JPG,true,0,keypress(z),500,44221.5,44221.300000071526,33863.536,33866.800000071526,33870.996,44230.005,1,6,1,,ISIC_0025593.JPG
sequence,flow.Sequence,2_0,2023-10-31T02:40:05.912Z,,0,,,10350.304000071526,completion,,,,,true,,,,44221.800000071526,44221.300000071526,33863.536,33866.800000071526,33870.996,44230.005,1,6,,,
trial,html.Screen,2_1_0,2023-10-31T02:40:09.674Z,,0,0,,3752.9950000000026,response,ISIC_1309015.JPG,,ISIC_0028178.JPG,ISIC_1309015.JPG,true,1,keypress(m),500,47983.300000071526,47983,44218.944,44221.89999997616,44230.005,47987.215,1,6,2,,ISIC_0028178.JPG
sequence,flow.Sequence,2_1,2023-10-31T02:40:09.674Z,,0,,,3752.9950000000026,completion,,,,,true,,,,47983.5,47983,44218.944,44221.89999997616,44230.005,47987.215,1,6,,,
trial,html.Screen,2_2_0,2023-10-31T02:40:13.389Z,,0,0,,3710.7850000000035,response,ISIC_0031128.JPG,,ISIC_3314853.JPG,ISIC_0031128.JPG,true,1,keypress(m),500,51698.200000047684,51698,47978.406,47983.60000002384,47987.215,51700.546,1,6,3,,ISIC_3314853.JPG
sequence,flow.Sequence,2_2,2023-10-31T02:40:13.389Z,,0,,,3710.7850000000035,completion,,,,,true,,,,51698.39999997616,51698,47978.406,47983.60000002384,47987.215,51700.546,1,6,,,
trial,html.Screen,2_3_0,2023-10-31T02:40:17.488Z,,0,0,,4096.154000047682,response,ISIC_0031612.JPG,,ISIC_8980141.JPG,ISIC_0031612.JPG,true,1,keypress(m),500,55796.89999997616,55796.700000047684,51695.989,51698.5,51700.546,55800.192,1,6,4,,ISIC_8980141.JPG
sequence,flow.Sequence,2_3,2023-10-31T02:40:17.488Z,,0,,,4096.154000047682,completion,,,,,true,,,,55797.10000002384,55796.700000047684,51695.989,51698.5,51700.546,55800.192,1,6,,,
trial,html.Screen,2_4_0,2023-10-31T02:40:20.321Z,,0,0,,2830.3079999999973,response,ISIC_1197737.JPG,,ISIC_9721604.JPG,ISIC_9721604.JPG,true,0,keypress(z),500,58630.60000002384,58630.5,55797.439,55797.200000047684,55800.192,58634.896,1,6,5,,ISIC_1197737.JPG
sequence,flow.Sequence,2_4,2023-10-31T02:40:20.322Z,,0,,,2830.3079999999973,completion,,,,,true,,,,58630.89999997616,58630.5,55797.439,55797.200000047684,55800.192,58634.896,1,6,,,
trial,html.Screen,2_5_0,2023-10-31T02:40:23.109Z,,0,0,,2782.404000071525,response,ISIC_0025346.JPG,,ISIC_0010681.JPG,ISIC_0025346.JPG,true,1,keypress(m),500,61417.39999997616,61417.300000071526,58631.217,58630.89999997616,58634.896,61429.363,1,6,6,,ISIC_0010681.JPG
sequence,flow.Sequence,2_5,2023-10-31T02:40:23.109Z,,0,,,2782.404000071525,completion,,,,,true,,,,61417.60000002384,61417.300000071526,58631.217,58630.89999997616,58634.896,61429.363,1,6,,,
loop,flow.Loop,2,2023-10-31T02:40:23.109Z,,,,,27546.304000071526,completion,,,,,true,,,,61417.700000047684,61417.300000071526,33863.536,33866.800000071526,33870.996,61429.363,1,6,,,
exp_instructions,html.Screen,3,2023-10-31T02:40:33.859Z,,,,,10736.737000023844,response,,,,,,continue,keypress(Space),,72167.10000002384,72166.10000002384,61414.652,61417.800000071526,61429.363,72171.297,,,,,
trial,html.Screen,4_0_0,2023-10-31T02:40:37.158Z,,0,1,,3295.102999976152,response,ISIC_3684488.JPG,5,ISIC_9525136.JPG,ISIC_9525136.JPG,false,0,keypress(z),500,75466.60000002384,75466.39999997616,72169.306,72167.20000004768,72171.297,75468.422,8,400,1,,ISIC_3684488.JPG
break,html.Screen,4_0_1,2023-10-31T02:40:37.159Z,,0,,,NaN,,,,,,false,,,,75467.70000004768,75467.39999997616,,75466.70000004768,,75468.422,8,400,,,
break_continue,html.Screen,4_0_2,2023-10-31T02:40:37.159Z,,0,,,NaN,,,,,,false,,,,75468,75467.89999997616,,75467.70000004768,,75468.422,8,400,,,
sequence,flow.Sequence,4_0,2023-10-31T02:40:37.160Z,,0,,,3296.602999976152,completion,,,,,false,,,,75468.10000002384,75467.89999997616,72169.306,72167.20000004768,72171.297,75468.422,8,400,,,
trial,html.Screen,4_1_0,2023-10-31T02:40:40.186Z,,0,1,,3025.8780000715196,response,ISIC_2768150.JPG,4,ISIC_0011895.JPG,ISIC_2768150.JPG,false,1,keypress(m),500,78494.39999997616,78494.30000007153,75467.095,75468.20000004768,75468.422,78500.066,8,400,2,,ISIC_0011895.JPG
break,html.Screen,4_1_1,2023-10-31T02:40:40.186Z,,0,,,NaN,,,,,,false,,,,78495,78494.80000007153,,78494.5,,78500.066,8,400,,,
break_continue,html.Screen,4_1_2,2023-10-31T02:40:40.187Z,,0,,,NaN,,,,,,false,,,,78495.20000004768,78495.20000004768,,78495.10000002384,,78500.066,8,400,,,
sequence,flow.Sequence,4_1,2023-10-31T02:40:40.187Z,,0,,,3026.778000047678,completion,,,,,false,,,,78495.30000007153,78495.20000004768,75467.095,75468.20000004768,75468.422,78500.066,8,400,,,
trial,html.Screen,4_2_0,2023-10-31T02:40:43.196Z,,0,1,,3004.7340000715194,response,ISIC_0072195.JPG,5,ISIC_0015179.JPG,ISIC_0072195.JPG,false,1,keypress(m),500,81504.89999997616,81504.80000007153,78491.052,78495.39999997616,78500.066,81511.296,8,400,3,,ISIC_0015179.JPG
break,html.Screen,4_2_1,2023-10-31T02:40:43.197Z,,0,,,NaN,,,,,,false,,,,81505.5,81505.30000007153,,81505,,81511.296,8,400,,,
break_continue,html.Screen,4_2_2,2023-10-31T02:40:43.197Z,,0,,,NaN,,,,,,false,,,,81505.70000004768,81505.60000002384,,81505.60000002384,,81511.296,8,400,,,
sequence,flow.Sequence,4_2,2023-10-31T02:40:43.197Z,,0,,,3005.5340000238357,completion,,,,,false,,,,81505.70000004768,81505.60000002384,78491.052,78495.39999997616,78500.066,81511.296,8,400,,,
trial,html.Screen,4_3_0,2023-10-31T02:40:46.095Z,,0,1,,2892.203999999998,response,ISIC_7984646.JPG,4,ISIC_0024516.JPG,ISIC_7984646.JPG,false,1,keypress(m),500,84403.60000002384,84403.5,81502.672,81505.89999997616,81511.296,84409.167,8,400,4,,ISIC_0024516.JPG
break,html.Screen,4_3_1,2023-10-31T02:40:46.096Z,,0,,,NaN,,,,,,false,,,,84404.70000004768,84404.60000002384,,84403.80000007153,,84409.167,8,400,,,
break_continue,html.Screen,4_3_2,2023-10-31T02:40:46.096Z,,0,,,NaN,,,,,,false,,,,84405,84405,,84404.80000007153,,84409.167,8,400,,,
sequence,flow.Sequence,4_3,2023-10-31T02:40:46.097Z,,0,,,2893.703999999998,completion,,,,,false,,,,84405.10000002384,84405,81502.672,81505.80000007153,81511.296,84409.167,8,400,,,
trial,html.Screen,4_4_0,2023-10-31T02:40:48.915Z,,0,1,,2814.1330000715243,response,ISIC_8077943.JPG,6,ISIC_0055240.JPG,ISIC_8077943.JPG,false,1,keypress(m),500,87223.39999997616,87223.30000007153,84398.39,84405.20000004768,84409.167,87233.564,8,400,5,,ISIC_0055240.JPG
break,html.Screen,4_4_1,2023-10-31T02:40:48.916Z,,0,,,NaN,,,,,,false,,,,87224.30000007153,87224.10000002384,,87223.5,,87233.564,8,400,,,
break_continue,html.Screen,4_4_2,2023-10-31T02:40:48.916Z,,0,,,NaN,,,,,,false,,,,87224.60000002384,87224.5,,87224.5,,87233.564,8,400,,,
sequence,flow.Sequence,4_4,2023-10-31T02:40:48.916Z,,0,,,2815.3329999999987,completion,,,,,false,,,,87224.70000004768,87224.5,84398.39,84405.10000002384,84409.167,87233.564,8,400,,,
trial,html.Screen,4_5_0,2023-10-31T02:40:56.423Z,,0,1,,7497.536000023843,response,ISIC_5722914.JPG,5,ISIC_0034166.JPG,ISIC_0034166.JPG,false,0,keypress(z),500,94731.30000007153,94731.10000002384,87226.549,87224.89999997616,87233.564,94737.193,8,400,6,,ISIC_5722914.JPG
break,html.Screen,4_5_1,2023-10-31T02:40:56.423Z,,0,,,NaN,,,,,,false,,,,94731.89999997616,94731.80000007153,,94731.39999997616,,94737.193,8,400,,,
break_continue,html.Screen,4_5_2,2023-10-31T02:40:56.424Z,,0,,,NaN,,,,,,false,,,,94732.30000007153,94732.20000004768,,94732.10000002384,,94737.193,8,400,,,
sequence,flow.Sequence,4_5,2023-10-31T02:40:56.424Z,,0,,,7498.636000047685,completion,,,,,false,,,,94732.5,94732.20000004768,87226.549,87224.89999997616,87233.564,94737.193,8,400,,,
trial,html.Screen,4_6_0,2023-10-31T02:41:02.251Z,,0,1,,5821.907000023843,response,ISIC_4899386.JPG,6,ISIC_0031356.JPG,ISIC_4899386.JPG,false,1,keypress(m),500,100559.20000004768,100559.10000002384,94729.423,94733.30000007153,94737.193,100568.255,8,400,7,,ISIC_0031356.JPG
break,html.Screen,4_6_1,2023-10-31T02:41:02.252Z,,0,,,NaN,,,,,,false,,,,100560.30000007153,100560.10000002384,,100559.39999997616,,100568.255,8,400,,,
break_continue,html.Screen,4_6_2,2023-10-31T02:41:02.252Z,,0,,,NaN,,,,,,false,,,,100560.60000002384,100560.5,,100560.39999997616,,100568.255,8,400,,,
sequence,flow.Sequence,4_6,2023-10-31T02:41:02.252Z,,0,,,5823.307000000001,completion,,,,,false,,,,100560.70000004768,100560.5,94729.423,94732.5,94737.193,100568.255,8,400,,,
trial,html.Screen,4_7_0,2023-10-31T02:41:05.309Z,,0,1,,3049.445000047679,response,ISIC_1608727.JPG,5,ISIC_0011699.JPG,ISIC_1608727.JPG,false,1,keypress(m),500,103617.89999997616,103617.70000004768,100556.708,100560.70000004768,100568.255,103624.848,8,400,8,,ISIC_0011699.JPG
break,html.Screen,4_7_1,2023-10-31T02:41:05.310Z,,0,,,NaN,,,,,,false,,,,103618.80000007153,103618.60000002384,,103618.10000002384,,103624.848,8,400,,,
break_continue,html.Screen,4_7_2,2023-10-31T02:41:05.311Z,,0,,,NaN,,,,,,false,,,,103619.10000002384,103619,,103618.89999997616,,103624.848,8,400,,,
sequence,flow.Sequence,4_7,2023-10-31T02:41:05.311Z,,0,,,3050.7449999999953,completion,,,,,false,,,,103619.20000004768,103619,100556.708,100560.70000004768,100568.255,103624.848,8,400,,,
trial,html.Screen,4_8_0,2023-10-31T02:41:10.609Z,,0,1,,5292.05199997616,response,ISIC_0059625.JPG,5,ISIC_3545622.JPG,ISIC_3545622.JPG,false,0,keypress(z),500,108917.10000002384,108916.89999997616,103617.931,103619.30000007153,103624.848,108923.448,8,400,9,,ISIC_0059625.JPG
break,html.Screen,4_8_1,2023-10-31T02:41:10.610Z,,0,,,NaN,,,,,,false,,,,108918.10000002384,108917.89999997616,,108917.20000004768,,108923.448,8,400,,,
break_continue,html.Screen,4_8_2,2023-10-31T02:41:10.610Z,,0,,,NaN,,,,,,false,,,,108918.30000007153,108918.30000007153,,108918.20000004768,,108923.448,8,400,,,
sequence,flow.Sequence,4_8,2023-10-31T02:41:10.610Z,,0,,,5293.452000071527,completion,,,,,false,,,,108918.39999997616,108918.30000007153,103617.931,103619.20000004768,103624.848,108923.448,8,400,,,
trial,html.Screen,4_9_0,2023-10-31T02:41:13.652Z,,0,1,,3036.652000023838,response,ISIC_3833013.JPG,5,ISIC_0014324.JPG,ISIC_0014324.JPG,false,0,keypress(z),500,111960.20000004768,111960.10000002384,108914.278,108918.39999997616,108923.448,111968.304,8,400,10,,ISIC_3833013.JPG
break,html.Screen,4_9_1,2023-10-31T02:41:13.652Z,,0,,,NaN,,,,,,false,,,,111960.89999997616,111960.60000002384,,111960.30000007153,,111968.304,8,400,,,
break_continue,html.Screen,4_9_2,2023-10-31T02:41:13.653Z,,0,,,NaN,,,,,,false,,,,111961.10000002384,111961,,111960.89999997616,,111968.304,8,400,,,
sequence,flow.Sequence,4_9,2023-10-31T02:41:13.653Z,,0,,,3037.551999999996,completion,,,,,false,,,,111961.20000004768,111961,108914.278,108918.39999997616,108923.448,111968.304,8,400,,,
trial,html.Screen,4_10_0,2023-10-31T02:41:16.966Z,,0,1,,3305.796000023838,response,ISIC_9257356.JPG,5,ISIC_0010958.JPG,ISIC_9257356.JPG,false,1,keypress(m),500,115274.39999997616,115274.10000002384,111957.55,111961.30000007153,111968.304,115277.083,8,400,11,,ISIC_0010958.JPG
break,html.Screen,4_10_1,2023-10-31T02:41:16.967Z,,0,,,NaN,,,,,,false,,,,115275.60000002384,115275.30000007153,,115274.60000002384,,115277.083,8,400,,,
break_continue,html.Screen,4_10_2,2023-10-31T02:41:16.967Z,,0,,,NaN,,,,,,false,,,,115275.89999997616,115275.89999997616,,115275.70000004768,,115277.083,8,400,,,
sequence,flow.Sequence,4_10,2023-10-31T02:41:16.967Z,,0,,,3307.5959999761544,completion,,,,,false,,,,115276.10000002384,115275.89999997616,111957.55,111961.30000007153,111968.304,115277.083,8,400,,,
trial,html.Screen,4_11_0,2023-10-31T02:41:22.057Z,,0,1,,5088.517000023843,response,ISIC_6435644.JPG,4,ISIC_0025184.JPG,ISIC_6435644.JPG,false,1,keypress(m),500,120365.70000004768,120365.60000002384,115269.243,115276.10000002384,115277.083,120370.395,8,400,12,,ISIC_0025184.JPG
break,html.Screen,4_11_1,2023-10-31T02:41:22.057Z,,0,,,NaN,,,,,,false,,,,120366.39999997616,120366.20000004768,,120365.89999997616,,120370.395,8,400,,,
break_continue,html.Screen,4_11_2,2023-10-31T02:41:22.058Z,,0,,,NaN,,,,,,false,,,,120366.60000002384,120366.60000002384,,120366.39999997616,,120370.395,8,400,,,
sequence,flow.Sequence,4_11,2023-10-31T02:41:22.058Z,,0,,,5089.517000023843,completion,,,,,false,,,,120366.70000004768,120366.60000002384,115269.243,115276.10000002384,115277.083,120370.395,8,400,,,
trial,html.Screen,4_12_0,2023-10-31T02:41:26.171Z,,0,1,,4109.9050000715215,response,ISIC_0032070.JPG,6,ISIC_0256926.JPG,ISIC_0256926.JPG,false,0,keypress(z),500,124480.5,124480.30000007153,120365.776,120366.80000007153,120370.395,124488.637,8,400,13,,ISIC_0032070.JPG
break,html.Screen,4_12_1,2023-10-31T02:41:26.173Z,,0,,,NaN,,,,,,false,,,,124481.5,124481.39999997616,,124480.60000002384,,124488.637,8,400,,,
break_continue,html.Screen,4_12_2,2023-10-31T02:41:26.173Z,,0,,,NaN,,,,,,false,,,,124481.80000007153,124481.70000004768,,124481.70000004768,,124488.637,8,400,,,
sequence,flow.Sequence,4_12,2023-10-31T02:41:26.173Z,,0,,,4111.30500004768,completion,,,,,false,,,,124482,124481.70000004768,120365.776,120366.80000007153,120370.395,124488.637,8,400,,,
trial,html.Screen,4_13_0,2023-10-31T02:41:29.983Z,,0,1,,3803.0630000476813,response,ISIC_1460249.JPG,5,ISIC_5787517.JPG,ISIC_5787517.JPG,false,0,keypress(z),500,128291.89999997616,128291.70000004768,124474.935,124482,124488.637,128296.516,8,400,14,,ISIC_1460249.JPG
break,html.Screen,4_13_1,2023-10-31T02:41:29.984Z,,0,,,NaN,,,,,,false,,,,128292.89999997616,128292.70000004768,,128292,,128296.516,8,400,,,
break_continue,html.Screen,4_13_2,2023-10-31T02:41:29.984Z,,0,,,NaN,,,,,,false,,,,128293.20000004768,128293.10000002384,,128293,,128296.516,8,400,,,
sequence,flow.Sequence,4_13,2023-10-31T02:41:29.984Z,,0,,,3804.4630000238394,completion,,,,,false,,,,128293.30000007153,128293.10000002384,124474.935,124482,124488.637,128296.516,8,400,,,
trial,html.Screen,4_14_0,2023-10-31T02:41:34.546Z,,0,1,,4558.383999976155,response,ISIC_6507412.JPG,5,ISIC_0072294.JPG,ISIC_6507412.JPG,false,1,keypress(m),500,132855,132854.89999997616,128291.402,128293.39999997616,128296.516,132862.713,8,400,15,,ISIC_0072294.JPG
break,html.Screen,4_14_1,2023-10-31T02:41:34.547Z,,0,,,NaN,,,,,,false,,,,132855.70000004768,132855.5,,132855.20000004768,,132862.713,8,400,,,
break_continue,html.Screen,4_14_2,2023-10-31T02:41:34.547Z,,0,,,NaN,,,,,,false,,,,132856.10000002384,132856,,132855.70000004768,,132862.713,8,400,,,
sequence,flow.Sequence,4_14,2023-10-31T02:41:34.547Z,,0,,,4559.483999999997,completion,,,,,false,,,,132856.20000004768,132856,128291.402,128293.39999997616,128296.516,132862.713,8,400,,,
trial,html.Screen,4_15_0,2023-10-31T02:41:38.501Z,,0,1,,3946.787000000011,response,ISIC_0013792.JPG,4,ISIC_3181394.JPG,ISIC_0013792.JPG,false,1,keypress(m),500,136809.70000004768,136809.5,132850.815,132856.30000007153,132862.713,136815.263,8,400,16,,ISIC_3181394.JPG
break,html.Screen,4_15_1,2023-10-31T02:41:38.501Z,,0,,,NaN,,,,,,false,,,,136810.30000007153,136810.20000004768,,136809.80000007153,,136815.263,8,400,,,
break_continue,html.Screen,4_15_2,2023-10-31T02:41:38.502Z,,0,,,NaN,,,,,,false,,,,136810.70000004768,136810.70000004768,,136810.39999997616,,136815.263,8,400,,,
sequence,flow.Sequence,4_15,2023-10-31T02:41:38.502Z,,0,,,3947.987000047695,completion,,,,,false,,,,136810.89999997616,136810.70000004768,132850.815,132856.30000007153,132862.713,136815.263,8,400,,,
trial,html.Screen,4_16_0,2023-10-31T02:41:41.336Z,,0,1,,2829.4370000476774,response,ISIC_0000466.JPG,5,ISIC_0066109.JPG,ISIC_0066109.JPG,false,0,keypress(z),500,139644.80000007153,139644.70000004768,136808.457,136811,136815.263,139647.723,8,400,17,,ISIC_0000466.JPG
break,html.Screen,4_16_1,2023-10-31T02:41:41.337Z,,0,,,NaN,,,,,,false,,,,139645.89999997616,139645.70000004768,,139645.10000002384,,139647.723,8,400,,,
break_continue,html.Screen,4_16_2,2023-10-31T02:41:41.337Z,,0,,,NaN,,,,,,false,,,,139646.20000004768,139646.20000004768,,139646,,139647.723,8,400,,,
sequence,flow.Sequence,4_16,2023-10-31T02:41:41.337Z,,0,,,2830.9370000476774,completion,,,,,false,,,,139646.39999997616,139646.20000004768,136808.457,136810.89999997616,136815.263,139647.723,8,400,,,
trial,html.Screen,4_17_0,2023-10-31T02:41:44.764Z,,0,1,,3425.5770000715274,response,ISIC_7024807.JPG,4,ISIC_9947624.JPG,ISIC_9947624.JPG,false,0,keypress(z),500,143073.39999997616,143073.30000007153,139644.234,139646.39999997616,139647.723,143082.926,8,400,18,,ISIC_7024807.JPG
break,html.Screen,4_17_1,2023-10-31T02:41:44.765Z,,0,,,NaN,,,,,,false,,,,143074.10000002384,143074,,143073.5,,143082.926,8,400,,,
break_continue,html.Screen,4_17_2,2023-10-31T02:41:44.765Z,,0,,,NaN,,,,,,false,,,,143074.39999997616,143074.30000007153,,143074.20000004768,,143082.926,8,400,,,
sequence,flow.Sequence,4_17,2023-10-31T02:41:44.765Z,,0,,,3426.5770000715274,completion,,,,,false,,,,143074.5,143074.30000007153,139644.234,139646.39999997616,139647.723,143082.926,8,400,,,
trial,html.Screen,4_18_0,2023-10-31T02:41:52.271Z,,0,1,,7496.973999976151,response,ISIC_0032747.JPG,5,ISIC_0006332.JPG,ISIC_0006332.JPG,false,0,keypress(z),500,150580,150579.89999997616,143067.312,143074.60000002384,143082.926,150589.426,8,400,19,,ISIC_0032747.JPG
break,html.Screen,4_18_1,2023-10-31T02:41:52.272Z,,0,,,NaN,,,,,,false,,,,150580.70000004768,150580.5,,150580.20000004768,,150589.426,8,400,,,
break_continue,html.Screen,4_18_2,2023-10-31T02:41:52.272Z,,0,,,NaN,,,,,,false,,,,150580.89999997616,150580.89999997616,,150580.70000004768,,150589.426,8,400,,,
sequence,flow.Sequence,4_18,2023-10-31T02:41:52.272Z,,0,,,7497.973999976151,completion,,,,,false,,,,150581,150580.89999997616,143067.312,143074.60000002384,143082.926,150589.426,8,400,,,
trial,html.Screen,4_19_0,2023-10-31T02:41:55.170Z,,0,1,,2889.874000071519,response,ISIC_7747998.JPG,5,ISIC_8633894.JPG,ISIC_8633894.JPG,false,0,keypress(z),500,153479.5,153479.30000007153,150579.398,150581,150589.426,153482.911,8,400,20,,ISIC_7747998.JPG
break,html.Screen,4_19_1,2023-10-31T02:41:55.171Z,,0,,,NaN,,,,,,false,,,,153480.30000007153,153480.10000002384,,153479.60000002384,,153482.911,8,400,,,
break_continue,html.Screen,4_19_2,2023-10-31T02:41:55.171Z,,0,,,NaN,,,,,,false,,,,153480.39999997616,153480.39999997616,,153480.30000007153,,153482.911,8,400,,,
sequence,flow.Sequence,4_19,2023-10-31T02:41:55.172Z,,0,,,2890.9739999761514,completion,,,,,false,,,,153480.5,153480.39999997616,150579.398,150581,150589.426,153482.911,8,400,,,
trial,html.Screen,4_20_0,2023-10-31T02:41:57.990Z,,0,1,,2815.589000000007,response,ISIC_0031877.JPG,4,ISIC_0000226.JPG,ISIC_0031877.JPG,false,1,keypress(m),500,156298.70000004768,156298.5,153479.783,153480.70000004768,153482.911,156300.678,8,400,21,,ISIC_0000226.JPG
break,html.Screen,4_20_1,2023-10-31T02:41:57.990Z,,0,,,NaN,,,,,,false,,,,156299.39999997616,156299.20000004768,,156298.80000007153,,156300.678,8,400,,,
break_continue,html.Screen,4_20_2,2023-10-31T02:41:57.991Z,,0,,,NaN,,,,,,false,,,,156299.70000004768,156299.60000002384,,156299.5,,156300.678,8,400,,,
sequence,flow.Sequence,4_20,2023-10-31T02:41:57.991Z,,0,,,2816.689000023849,completion,,,,,false,,,,156299.70000004768,156299.60000002384,153479.783,153480.60000002384,153482.911,156300.678,8,400,,,
trial,html.Screen,4_21_0,2023-10-31T02:42:00.888Z,,0,1,,2896.2219999761437,response,ISIC_7035246.JPG,5,ISIC_0068080.JPG,ISIC_0068080.JPG,false,0,keypress(z),500,159197.10000002384,159196.89999997616,156298.052,156299.80000007153,156300.678,159202.147,8,400,22,,ISIC_7035246.JPG
break,html.Screen,4_21_1,2023-10-31T02:42:00.889Z,,0,,,NaN,,,,,,false,,,,159198,159197.89999997616,,159197.20000004768,,159202.147,8,400,,,
break_continue,html.Screen,4_21_2,2023-10-31T02:42:00.889Z,,0,,,NaN,,,,,,false,,,,159198.30000007153,159198.20000004768,,159198.10000002384,,159202.147,8,400,,,
sequence,flow.Sequence,4_21,2023-10-31T02:42:00.889Z,,0,,,2897.5220000476693,completion,,,,,false,,,,159198.39999997616,159198.20000004768,156298.052,156299.80000007153,156300.678,159202.147,8,400,,,
trial,html.Screen,4_22_0,2023-10-31T02:42:03.546Z,,0,1,,2653.0530000476865,response,ISIC_0061941.JPG,4,ISIC_0033605.JPG,ISIC_0033605.JPG,false,0,keypress(z),500,161855.39999997616,161855.20000004768,159194.625,159198.39999997616,159202.147,161861.605,8,400,23,,ISIC_0061941.JPG
break,html.Screen,4_22_1,2023-10-31T02:42:03.547Z,,0,,,NaN,,,,,,false,,,,161856,161855.89999997616,,161855.5,,161861.605,8,400,,,
break_continue,html.Screen,4_22_2,2023-10-31T02:42:03.547Z,,0,,,NaN,,,,,,false,,,,161856.5,161856.39999997616,,161856.20000004768,,161861.605,8,400,,,
sequence,flow.Sequence,4_22,2023-10-31T02:42:03.548Z,,0,,,2654.252999976161,completion,,,,,false,,,,161856.60000002384,161856.39999997616,159194.625,159198.39999997616,159202.147,161861.605,8,400,,,
trial,html.Screen,4_23_0,2023-10-31T02:42:06.287Z,,0,1,,2733.695000071515,response,ISIC_0000513.JPG,6,ISIC_8363069.JPG,ISIC_0000513.JPG,false,1,keypress(m),500,164595.60000002384,164595.30000007153,161850.842,161856.70000004768,161861.605,164600.202,8,400,24,,ISIC_8363069.JPG
break,html.Screen,4_23_1,2023-10-31T02:42:06.287Z,,0,,,NaN,,,,,,false,,,,164596.60000002384,164596.30000007153,,164595.70000004768,,164600.202,8,400,,,
break_continue,html.Screen,4_23_2,2023-10-31T02:42:06.288Z,,0,,,NaN,,,,,,false,,,,164596.80000007153,164596.80000007153,,164596.60000002384,,164600.202,8,400,,,
sequence,flow.Sequence,4_23,2023-10-31T02:42:06.288Z,,0,,,2735.195000071515,completion,,,,,false,,,,164596.89999997616,164596.80000007153,161850.842,161856.70000004768,161861.605,164600.202,8,400,,,
trial,html.Screen,4_24_0,2023-10-31T02:42:10.433Z,,0,1,,4141.398000023852,response,ISIC_5584185.JPG,5,ISIC_0031742.JPG,ISIC_5584185.JPG,false,1,keypress(m),500,168741.70000004768,168741.60000002384,164589.94,164597,164600.202,168746.547,8,400,25,,ISIC_0031742.JPG
break,html.Screen,4_24_1,2023-10-31T02:42:10.433Z,,0,,,NaN,,,,,,false,,,,168742.20000004768,168742.20000004768,,168741.80000007153,,168746.547,8,400,,,
break_continue,html.Screen,4_24_2,2023-10-31T02:42:10.433Z,,0,,,NaN,,,,,,false,,,,168742.39999997616,168742.39999997616,,168742.20000004768,,168746.547,8,400,,,
sequence,flow.Sequence,4_24,2023-10-31T02:42:10.433Z,,0,,,4142.197999976168,completion,,,,,false,,,,168742.39999997616,168742.39999997616,164589.94,164596.89999997616,164600.202,168746.547,8,400,,,
trial,html.Screen,4_25_0,2023-10-31T02:42:16.163Z,,0,1,,5725.253000071534,response,ISIC_0033154.JPG,4,ISIC_0024688.JPG,ISIC_0024688.JPG,false,0,keypress(z),500,174472,174471.80000007153,168739.716,168742.5,168746.547,174481.919,8,400,26,,ISIC_0033154.JPG
break,html.Screen,4_25_1,2023-10-31T02:42:16.164Z,,0,,,NaN,,,,,,false,,,,174472.5,174472.39999997616,,174472.10000002384,,174481.919,8,400,,,
break_continue,html.Screen,4_25_2,2023-10-31T02:42:16.164Z,,0,,,NaN,,,,,,false,,,,174472.80000007153,174472.80000007153,,174472.60000002384,,174481.919,8,400,,,
sequence,flow.Sequence,4_25,2023-10-31T02:42:16.164Z,,0,,,5726.253000071534,completion,,,,,false,,,,174472.89999997616,174472.80000007153,168739.716,168742.5,168746.547,174481.919,8,400,,,
trial,html.Screen,4_26_0,2023-10-31T02:42:19.190Z,,0,1,,3016.4809999761637,response,ISIC_0033394.JPG,5,ISIC_0013579.JPG,ISIC_0013579.JPG,false,0,keypress(z),500,177498.60000002384,177498.39999997616,174475.022,174472.89999997616,174481.919,177502.825,8,400,27,,ISIC_0033394.JPG
break,html.Screen,4_26_1,2023-10-31T02:42:19.190Z,,0,,,NaN,,,,,,false,,,,177499.60000002384,177499.10000002384,,177498.70000004768,,177502.825,8,400,,,
break_continue,html.Screen,4_26_2,2023-10-31T02:42:19.191Z,,0,,,NaN,,,,,,false,,,,177499.89999997616,177499.80000007153,,177499.60000002384,,177502.825,8,400,,,
sequence,flow.Sequence,4_26,2023-10-31T02:42:19.191Z,,0,,,3017.881000071531,completion,,,,,false,,,,177500,177499.80000007153,174475.022,174472.89999997616,174481.919,177502.825,8,400,,,
trial,html.Screen,4_27_0,2023-10-31T02:42:22.090Z,,0,1,,2895.27500002383,response,ISIC_6377622.JPG,5,ISIC_0010441.JPG,ISIC_0010441.JPG,false,0,keypress(z),500,180398.30000007153,180398.10000002384,177493.183,177500.10000002384,177502.825,180403.537,8,400,28,,ISIC_6377622.JPG
break,html.Screen,4_27_1,2023-10-31T02:42:22.091Z,,0,,,NaN,,,,,,false,,,,180399.80000007153,180399.60000002384,,180399.20000004768,,180403.537,8,400,,,
break_continue,html.Screen,4_27_2,2023-10-31T02:42:22.092Z,,0,,,NaN,,,,,,false,,,,180400,180400,,180399.89999997616,,180403.537,8,400,,,
sequence,flow.Sequence,4_27,2023-10-31T02:42:22.092Z,,0,,,2897.1749999999884,completion,,,,,false,,,,180400.10000002384,180400,177493.183,177500,177502.825,180403.537,8,400,,,
trial,html.Screen,4_28_0,2023-10-31T02:42:24.972Z,,0,1,,2877.2630000715144,response,ISIC_1081430.JPG,4,ISIC_8590883.JPG,ISIC_8590883.JPG,false,0,keypress(z),500,183281,183280.80000007153,180399.504,180400.20000004768,180403.537,183283.254,8,400,29,,ISIC_1081430.JPG
break,html.Screen,4_28_1,2023-10-31T02:42:24.973Z,,0,,,NaN,,,,,,false,,,,183281.89999997616,183281.80000007153,,183281.10000002384,,183283.254,8,400,,,
break_continue,html.Screen,4_28_2,2023-10-31T02:42:24.974Z,,0,,,NaN,,,,,,false,,,,183282.10000002384,183282.10000002384,,183282,,183283.254,8,400,,,
sequence,flow.Sequence,4_28,2023-10-31T02:42:24.974Z,,0,,,2878.5630000238307,completion,,,,,false,,,,183282.20000004768,183282.10000002384,180399.504,180400.10000002384,180403.537,183283.254,8,400,,,
trial,html.Screen,4_29_0,2023-10-31T02:42:28.063Z,,0,1,,3088.5460000715393,response,ISIC_0070551.JPG,5,ISIC_0063061.JPG,ISIC_0070551.JPG,false,1,keypress(m),500,186372,186371.80000007153,183276.72,183282.30000007153,183283.254,186375.122,8,400,30,,ISIC_0063061.JPG
break,html.Screen,4_29_1,2023-10-31T02:42:28.064Z,,0,,,NaN,,,,,,false,,,,186372.80000007153,186372.60000002384,,186372.10000002384,,186375.122,8,400,,,
break_continue,html.Screen,4_29_2,2023-10-31T02:42:28.065Z,,0,,,NaN,,,,,,false,,,,186373.10000002384,186373,,186372.89999997616,,186375.122,8,400,,,
sequence,flow.Sequence,4_29,2023-10-31T02:42:28.065Z,,0,,,3089.7460000000137,completion,,,,,false,,,,186373.20000004768,186373,183276.72,183282.30000007153,183283.254,186375.122,8,400,,,
trial,html.Screen,4_30_0,2023-10-31T02:42:30.690Z,,0,1,,2623.478000023839,response,ISIC_3207651.JPG,5,ISIC_9181399.JPG,ISIC_9181399.JPG,false,0,keypress(z),500,188998.70000004768,188998.60000002384,186369.006,186373.20000004768,186375.122,189003.812,8,400,31,,ISIC_3207651.JPG
break,html.Screen,4_30_1,2023-10-31T02:42:30.691Z,,0,,,NaN,,,,,,false,,,,188999.30000007153,188999.20000004768,,188998.80000007153,,189003.812,8,400,,,
break_continue,html.Screen,4_30_2,2023-10-31T02:42:30.691Z,,0,,,NaN,,,,,,false,,,,188999.60000002384,188999.60000002384,,188999.5,,189003.812,8,400,,,
sequence,flow.Sequence,4_30,2023-10-31T02:42:30.691Z,,0,,,2624.478000023839,completion,,,,,false,,,,188999.70000004768,188999.60000002384,186369.006,186373.20000004768,186375.122,189003.812,8,400,,,
trial,html.Screen,4_31_0,2023-10-31T02:42:34.052Z,,0,1,,3356.8880000476784,response,ISIC_7108282.JPG,5,ISIC_7440724.JPG,ISIC_7440724.JPG,false,0,keypress(z),500,192360.80000007153,192360.70000004768,188994.781,188999.70000004768,189003.812,192365.632,8,400,32,,ISIC_7108282.JPG
break,html.Screen,4_31_1,2023-10-31T02:42:34.053Z,,0,,,NaN,,,,,,false,,,,192361.70000004768,192361.5,,192360.89999997616,,192365.632,8,400,,,
break_continue,html.Screen,4_31_2,2023-10-31T02:42:34.053Z,,0,,,NaN,,,,,,false,,,,192361.89999997616,192361.80000007153,,192361.70000004768,,192365.632,8,400,,,
sequence,flow.Sequence,4_31,2023-10-31T02:42:34.053Z,,0,,,3357.98800007152,completion,,,,,false,,,,192361.89999997616,192361.80000007153,188994.781,188999.70000004768,189003.812,192365.632,8,400,,,
trial,html.Screen,4_32_0,2023-10-31T02:42:39.207Z,,0,1,,5149.767999976146,response,ISIC_0061625.JPG,5,ISIC_7498132.JPG,ISIC_7498132.JPG,false,0,keypress(z),500,197515.60000002384,197515.39999997616,192360.825,192362,192365.632,197518.978,8,400,33,,ISIC_0061625.JPG
break,html.Screen,4_32_1,2023-10-31T02:42:39.208Z,,0,,,NaN,,,,,,false,,,,197516.20000004768,197516.10000002384,,197515.70000004768,,197518.978,8,400,,,
break_continue,html.Screen,4_32_2,2023-10-31T02:42:39.208Z,,0,,,NaN,,,,,,false,,,,197516.60000002384,197516.5,,197516.30000007153,,197518.978,8,400,,,
sequence,flow.Sequence,4_32,2023-10-31T02:42:39.208Z,,0,,,5150.867999999988,completion,,,,,false,,,,197516.70000004768,197516.5,192360.825,192362,192365.632,197518.978,8,400,,,
trial,html.Screen,4_33_0,2023-10-31T02:42:43.274Z,,0,1,,4063.722000047681,response,ISIC_0027769.JPG,5,ISIC_0014559.JPG,ISIC_0027769.JPG,false,1,keypress(m),500,201582.89999997616,201582.70000004768,197509.731,197516.80000007153,197518.978,201587.283,8,400,34,,ISIC_0014559.JPG
break,html.Screen,4_33_1,2023-10-31T02:42:43.275Z,,0,,,NaN,,,,,,false,,,,201583.39999997616,201583.20000004768,,201583,,201587.283,8,400,,,
break_continue,html.Screen,4_33_2,2023-10-31T02:42:43.275Z,,0,,,NaN,,,,,,false,,,,201583.5,201583.5,,201583.39999997616,,201587.283,8,400,,,
sequence,flow.Sequence,4_33,2023-10-31T02:42:43.275Z,,0,,,4064.521999999997,completion,,,,,false,,,,201583.60000002384,201583.5,197509.731,197516.80000007153,197518.978,201587.283,8,400,,,
trial,html.Screen,4_34_0,2023-10-31T02:42:46.172Z,,0,1,,2893.217000000004,response,ISIC_9336830.JPG,5,ISIC_0055826.JPG,ISIC_9336830.JPG,false,1,keypress(m),500,204480.60000002384,204480.5,201583.399,201583.70000004768,201587.283,204486.276,8,400,35,,ISIC_0055826.JPG
break,html.Screen,4_34_1,2023-10-31T02:42:46.173Z,,0,,,NaN,,,,,,false,,,,204481.60000002384,204481.5,,204480.80000007153,,204486.276,8,400,,,
break_continue,html.Screen,4_34_2,2023-10-31T02:42:46.173Z,,0,,,NaN,,,,,,false,,,,204481.80000007153,204481.70000004768,,204481.60000002384,,204486.276,8,400,,,
sequence,flow.Sequence,4_34,2023-10-31T02:42:46.173Z,,0,,,2894.417000047688,completion,,,,,false,,,,204481.89999997616,204481.70000004768,201583.399,201583.70000004768,201587.283,204486.276,8,400,,,
trial,html.Screen,4_35_0,2023-10-31T02:42:50.032Z,,0,1,,3853.7239999999874,response,ISIC_8108099.JPG,5,ISIC_9798721.JPG,ISIC_9798721.JPG,false,0,keypress(z),500,208340.20000004768,208340,204477.738,204482,204486.276,208341.768,8,400,36,,ISIC_8108099.JPG
break,html.Screen,4_35_1,2023-10-31T02:42:50.032Z,,0,,,NaN,,,,,,false,,,,208341.10000002384,208340.89999997616,,208340.20000004768,,208341.768,8,400,,,
break_continue,html.Screen,4_35_2,2023-10-31T02:42:50.033Z,,0,,,NaN,,,,,,false,,,,208341.30000007153,208341.30000007153,,208341.10000002384,,208341.768,8,400,,,
sequence,flow.Sequence,4_35,2023-10-31T02:42:50.033Z,,0,,,3855.024000071513,completion,,,,,false,,,,208341.39999997616,208341.30000007153,204477.738,204481.89999997616,204486.276,208341.768,8,400,,,
trial,html.Screen,4_36_0,2023-10-31T02:42:53.555Z,,0,1,,3521.832000023831,response,ISIC_0626501.JPG,4,ISIC_0015241.JPG,ISIC_0626501.JPG,false,1,keypress(m),500,211863.80000007153,211863.60000002384,208337.976,208341.39999997616,208341.768,211865.59,8,400,37,,ISIC_0015241.JPG
break,html.Screen,4_36_1,2023-10-31T02:42:53.556Z,,0,,,NaN,,,,,,false,,,,211864.5,211864.39999997616,,211863.80000007153,,211865.59,8,400,,,
break_continue,html.Screen,4_36_2,2023-10-31T02:42:53.556Z,,0,,,NaN,,,,,,false,,,,211864.80000007153,211864.70000004768,,211864.70000004768,,211865.59,8,400,,,
sequence,flow.Sequence,4_36,2023-10-31T02:42:53.556Z,,0,,,3522.932000047673,completion,,,,,false,,,,211864.89999997616,211864.70000004768,208337.976,208341.39999997616,208341.768,211865.59,8,400,,,
trial,html.Screen,4_37_0,2023-10-31T02:42:56.535Z,,0,1,,2977.9100000000035,response,ISIC_0067601.JPG,5,ISIC_4582670.JPG,ISIC_4582670.JPG,false,0,keypress(z),500,214843.60000002384,214843.5,211864.203,211864.89999997616,211865.59,214847.581,8,400,38,,ISIC_0067601.JPG
break,html.Screen,4_37_1,2023-10-31T02:42:56.536Z,,0,,,NaN,,,,,,false,,,,214844.39999997616,214844.30000007153,,214843.70000004768,,214847.581,8,400,,,
break_continue,html.Screen,4_37_2,2023-10-31T02:42:56.536Z,,0,,,NaN,,,,,,false,,,,214844.60000002384,214844.5,,214844.39999997616,,214847.581,8,400,,,
sequence,flow.Sequence,4_37,2023-10-31T02:42:56.536Z,,0,,,2978.9100000000035,completion,,,,,false,,,,214844.70000004768,214844.5,211864.203,211864.89999997616,211865.59,214847.581,8,400,,,
trial,html.Screen,4_38_0,2023-10-31T02:42:59.545Z,,0,1,,3006.119000047678,response,ISIC_3844404.JPG,4,ISIC_0443835.JPG,ISIC_0443835.JPG,false,0,keypress(z),500,217853.89999997616,217853.70000004768,214844.026,214844.70000004768,214847.581,217861.605,8,400,39,,ISIC_3844404.JPG
break,html.Screen,4_38_1,2023-10-31T02:42:59.546Z,,0,,,NaN,,,,,,false,,,,217854.89999997616,217854.80000007153,,217854,,217861.605,8,400,,,
break_continue,html.Screen,4_38_2,2023-10-31T02:42:59.547Z,,0,,,NaN,,,,,,false,,,,217855.10000002384,217855.10000002384,,217855,,217861.605,8,400,,,
sequence,flow.Sequence,4_38,2023-10-31T02:42:59.547Z,,0,,,3007.5190000238363,completion,,,,,false,,,,217855.20000004768,217855.10000002384,214844.026,214844.70000004768,214847.581,217861.605,8,400,,,
trial,html.Screen,4_39_0,2023-10-31T02:43:06.989Z,,0,1,,7435.294999976148,response,ISIC_0026086.JPG,5,ISIC_0030970.JPG,ISIC_0026086.JPG,false,1,keypress(m),500,225297.10000002384,225296.89999997616,217850.55,217855.30000007153,217861.605,225303.954,8,400,40,,ISIC_0030970.JPG
break,html.Screen,4_39_1,2023-10-31T02:43:06.989Z,,0,,,NaN,,,,,,false,,,,225297.89999997616,225297.80000007153,,225297.10000002384,,225303.954,8,400,,,
break_continue,html.Screen,4_39_2,2023-10-31T02:43:06.990Z,,0,,,NaN,,,,,,false,,,,225298.30000007153,225298.20000004768,,225298.20000004768,,225303.954,8,400,,,
sequence,flow.Sequence,4_39,2023-10-31T02:43:06.990Z,,0,,,7436.595000047673,completion,,,,,false,,,,225298.39999997616,225298.20000004768,217850.55,217855.30000007153,217861.605,225303.954,8,400,,,
trial,html.Screen,4_40_0,2023-10-31T02:43:09.999Z,,0,1,,3003.3460000715277,response,ISIC_2283628.JPG,6,ISIC_0011333.JPG,ISIC_2283628.JPG,false,1,keypress(m),500,228307.5,228307.30000007153,225294.936,225298.39999997616,225303.954,228313.028,8,400,41,,ISIC_0011333.JPG
break,html.Screen,4_40_1,2023-10-31T02:43:10.001Z,,0,,,NaN,,,,,,false,,,,228309.10000002384,228308.89999997616,,228307.80000007153,,228313.028,8,400,,,
break_continue,html.Screen,4_40_2,2023-10-31T02:43:10.001Z,,0,,,NaN,,,,,,false,,,,228309.5,228309.30000007153,,228309.20000004768,,228313.028,8,400,,,
sequence,flow.Sequence,4_40,2023-10-31T02:43:10.001Z,,0,,,3005.3460000715277,completion,,,,,false,,,,228309.60000002384,228309.30000007153,225294.936,225298.39999997616,225303.954,228313.028,8,400,,,
trial,html.Screen,4_41_0,2023-10-31T02:43:12.948Z,,0,1,,2943.7720000715344,response,ISIC_0072286.JPG,5,ISIC_0062026.JPG,ISIC_0072286.JPG,false,1,keypress(m),500,231257,231256.80000007153,228306.114,228309.70000004768,228313.028,231269.302,8,400,42,,ISIC_0062026.JPG
break,html.Screen,4_41_1,2023-10-31T02:43:12.949Z,,0,,,NaN,,,,,,false,,,,231257.80000007153,231257.70000004768,,231257.20000004768,,231269.302,8,400,,,
break_continue,html.Screen,4_41_2,2023-10-31T02:43:12.950Z,,0,,,NaN,,,,,,false,,,,231258.20000004768,231258.10000002384,,231258,,231269.302,8,400,,,
sequence,flow.Sequence,4_41,2023-10-31T02:43:12.950Z,,0,,,2945.0720000238507,completion,,,,,false,,,,231258.39999997616,231258.10000002384,228306.114,228309.70000004768,228313.028,231269.302,8,400,,,
trial,html.Screen,4_42_0,2023-10-31T02:43:16.216Z,,0,1,,3254.8980000476877,response,ISIC_8692218.JPG,5,ISIC_1983754.JPG,ISIC_8692218.JPG,false,1,keypress(m),500,234524.39999997616,234524.20000004768,231259.277,231258.5,231269.302,234527.73,8,400,43,,ISIC_1983754.JPG
break,html.Screen,4_42_1,2023-10-31T02:43:16.217Z,,0,,,NaN,,,,,,false,,,,234525.39999997616,234525.10000002384,,234524.5,,234527.73,8,400,,,
break_continue,html.Screen,4_42_2,2023-10-31T02:43:16.217Z,,0,,,NaN,,,,,,false,,,,234525.60000002384,234525.5,,234525.39999997616,,234527.73,8,400,,,
sequence,flow.Sequence,4_42,2023-10-31T02:43:16.217Z,,0,,,3256.198000000004,completion,,,,,false,,,,234525.60000002384,234525.5,231259.277,231258.39999997616,231269.302,234527.73,8,400,,,
trial,html.Screen,4_43_0,2023-10-31T02:43:19.227Z,,0,1,,3007.2699999999895,response,ISIC_0000167.JPG,5,ISIC_0011126.JPG,ISIC_0000167.JPG,false,1,keypress(m),500,237535.30000007153,237535,234523.898,234525.70000004768,234527.73,237538.879,8,400,44,,ISIC_0011126.JPG
break,html.Screen,4_43_1,2023-10-31T02:43:19.227Z,,0,,,NaN,,,,,,false,,,,237535.80000007153,237535.70000004768,,237535.30000007153,,237538.879,8,400,,,
break_continue,html.Screen,4_43_2,2023-10-31T02:43:19.228Z,,0,,,NaN,,,,,,false,,,,237536.10000002384,237536,,237536,,237538.879,8,400,,,
sequence,flow.Sequence,4_43,2023-10-31T02:43:19.228Z,,0,,,3008.2699999999895,completion,,,,,false,,,,237536.20000004768,237536,234523.898,234525.70000004768,234527.73,237538.879,8,400,,,
trial,html.Screen,4_44_0,2023-10-31T02:43:21.933Z,,0,1,,2702.4210000715393,response,ISIC_0061231.JPG,4,ISIC_0030856.JPG,ISIC_0030856.JPG,false,0,keypress(z),500,240241.39999997616,240241.30000007153,237534.067,237536.30000007153,237538.879,240247.969,8,400,45,,ISIC_0061231.JPG
break,html.Screen,4_44_1,2023-10-31T02:43:21.934Z,,0,,,NaN,,,,,,false,,,,240242.10000002384,240241.89999997616,,240241.5,,240247.969,8,400,,,
break_continue,html.Screen,4_44_2,2023-10-31T02:43:21.934Z,,0,,,NaN,,,,,,false,,,,240242.39999997616,240242.39999997616,,240242.30000007153,,240247.969,8,400,,,
sequence,flow.Sequence,4_44,2023-10-31T02:43:21.934Z,,0,,,2703.520999976172,completion,,,,,false,,,,240242.5,240242.39999997616,237534.067,237536.20000004768,237538.879,240247.969,8,400,,,
trial,html.Screen,4_45_0,2023-10-31T02:43:25.295Z,,0,1,,3355.9309999761463,response,ISIC_0059976.JPG,6,ISIC_0025357.JPG,ISIC_0025357.JPG,false,0,keypress(z),500,243604.10000002384,243603.89999997616,240241.174,240242.60000002384,240247.969,243609.76,8,400,46,,ISIC_0059976.JPG
break,html.Screen,4_45_1,2023-10-31T02:43:25.296Z,,0,,,NaN,,,,,,false,,,,243605,243604.89999997616,,243604.30000007153,,243609.76,8,400,,,
break_continue,html.Screen,4_45_2,2023-10-31T02:43:25.297Z,,0,,,NaN,,,,,,false,,,,243605.20000004768,243605.20000004768,,243605.10000002384,,243609.76,8,400,,,
sequence,flow.Sequence,4_45,2023-10-31T02:43:25.298Z,,0,,,3357.231000047672,completion,,,,,false,,,,243606.20000004768,243605.20000004768,240241.174,240242.60000002384,240247.969,243609.76,8,400,,,
trial,html.Screen,4_46_0,2023-10-31T02:43:28.036Z,,0,1,,2734.139999976149,response,ISIC_1597566.JPG,5,ISIC_0027956.JPG,ISIC_0027956.JPG,false,0,keypress(z),500,246344.10000002384,246343.89999997616,243600.297,243606.20000004768,243609.76,246348.293,8,400,47,,ISIC_1597566.JPG
break,html.Screen,4_46_1,2023-10-31T02:43:28.036Z,,0,,,NaN,,,,,,false,,,,246344.80000007153,246344.60000002384,,246344.20000004768,,246348.293,8,400,,,
break_continue,html.Screen,4_46_2,2023-10-31T02:43:28.036Z,,0,,,NaN,,,,,,false,,,,246345,246344.89999997616,,246344.80000007153,,246348.293,8,400,,,
sequence,flow.Sequence,4_46,2023-10-31T02:43:28.036Z,,0,,,2735.139999976149,completion,,,,,false,,,,246345.10000002384,246344.89999997616,243600.297,243606.20000004768,243609.76,246348.293,8,400,,,
trial,html.Screen,4_47_0,2023-10-31T02:43:30.855Z,,0,1,,2815.106999976153,response,ISIC_0073227.JPG,5,ISIC_0010971.JPG,ISIC_0010971.JPG,false,0,keypress(z),500,249163.5,249163.39999997616,246344.54,246345.10000002384,246348.293,249176.996,8,400,48,,ISIC_0073227.JPG
break,html.Screen,4_47_1,2023-10-31T02:43:30.855Z,,0,,,NaN,,,,,,false,,,,249164.10000002384,249163.89999997616,,249163.60000002384,,249176.996,8,400,,,
break_continue,html.Screen,4_47_2,2023-10-31T02:43:30.856Z,,0,,,NaN,,,,,,false,,,,249164.20000004768,249164.20000004768,,249164.10000002384,,249176.996,8,400,,,
sequence,flow.Sequence,4_47,2023-10-31T02:43:30.856Z,,0,,,2815.9070000476786,completion,,,,,false,,,,249164.60000002384,249164.20000004768,246344.54,246345.10000002384,246348.293,249176.996,8,400,,,
trial,html.Screen,4_48_0,2023-10-31T02:43:35.419Z,,0,1,,4550.304000071512,response,ISIC_2341100.JPG,5,ISIC_1265755.JPG,ISIC_1265755.JPG,false,0,keypress(z),500,253727.5,253727.30000007153,249165.397,249164.60000002384,249176.996,253732.561,8,400,49,,ISIC_2341100.JPG
break,html.Screen,4_48_1,2023-10-31T02:43:35.420Z,,0,,,NaN,,,,,,false,,,,253728.10000002384,253727.89999997616,,253727.60000002384,,253732.561,8,400,,,
break_continue,html.Screen,4_48_2,2023-10-31T02:43:35.420Z,,0,,,NaN,,,,,,false,,,,253728.39999997616,253728.30000007153,,253728.20000004768,,253732.561,8,400,,,
sequence,flow.Sequence,4_48,2023-10-31T02:43:35.420Z,,0,,,4551.304000071512,completion,,,,,false,,,,253728.39999997616,253728.30000007153,249165.397,249164.60000002384,249176.996,253732.561,8,400,,,
trial,html.Screen,4_49_0,2023-10-31T02:43:37.870Z,,0,1,,2446.039000023855,response,ISIC_0148751.JPG,6,ISIC_0033278.JPG,ISIC_0148751.JPG,false,1,keypress(m),500,256178.80000007153,256178.60000002384,253725.898,253728.5,253732.561,256184.797,8,400,50,,ISIC_0033278.JPG
break,html.Screen,4_49_1,2023-10-31T02:43:47.870Z,,0,,,9999.81700000001,timeout,,,,,false,,,,266178.5,266177.715,256176.293,256178.89999997616,256184.797,266184.614,8,400,,,
break_continue,html.Screen,4_49_2,2023-10-31T02:43:49.237Z,,0,,,1355.7859999761567,response,,,,,false,continue,keypress(Space),,267545.89999997616,267540.39999997616,266177.715,266178.5,266184.614,267555.232,8,400,,,
sequence,flow.Sequence,4_49,2023-10-31T02:43:49.237Z,,0,,,13807.838999976171,completion,,,,,false,,,,267546,267540.39999997616,253725.898,253728.5,253732.561,267555.232,8,400,,,
trial,html.Screen,4_50_0,2023-10-31T02:43:52.247Z,,0,2,,3000.66799997614,response,ISIC_7079349.JPG,5,ISIC_7507286.JPG,ISIC_7507286.JPG,false,0,keypress(z),500,270556,270555.89999997616,267544.201,267546.10000002384,267555.232,270562.73,8,400,1,,ISIC_7079349.JPG
break,html.Screen,4_50_1,2023-10-31T02:43:52.248Z,,0,,,NaN,,,,,,false,,,,270556.7000000477,270556.5,,270556.2000000477,,270562.73,8,400,,,
break_continue,html.Screen,4_50_2,2023-10-31T02:43:52.248Z,,0,,,NaN,,,,,,false,,,,270556.89999997616,270556.8000000715,,270556.7000000477,,270562.73,8,400,,,
sequence,flow.Sequence,4_50,2023-10-31T02:43:52.248Z,,0,,,3001.5680000715074,completion,,,,,false,,,,270557,270556.8000000715,267544.201,267546.10000002384,267555.232,270562.73,8,400,,,
trial,html.Screen,4_51_0,2023-10-31T02:43:55.002Z,,0,2,,2748.070000071544,response,ISIC_0032845.JPG,5,ISIC_9241599.JPG,ISIC_9241599.JPG,false,0,keypress(z),500,273310.89999997616,273310.8000000715,270552.207,270557,270562.73,273326.141,8,400,2,,ISIC_0032845.JPG
break,html.Screen,4_51_1,2023-10-31T02:43:55.003Z,,0,,,NaN,,,,,,false,,,,273311.7000000477,273311.5,,273311.10000002384,,273326.141,8,400,,,
break_continue,html.Screen,4_51_2,2023-10-31T02:43:55.003Z,,0,,,NaN,,,,,,false,,,,273312,273311.89999997616,,273311.8000000715,,273326.141,8,400,,,
sequence,flow.Sequence,4_51,2023-10-31T02:43:55.003Z,,0,,,2749.1699999761768,completion,,,,,false,,,,273312.10000002384,273311.89999997616,270552.207,270557,270562.73,273326.141,8,400,,,
trial,html.Screen,4_52_0,2023-10-31T02:43:58.077Z,,0,2,,3059.0590000476805,response,ISIC_2733043.JPG,4,ISIC_3386656.JPG,ISIC_3386656.JPG,false,0,keypress(z),500,276385.39999997616,276385.2000000477,273313.859,273312.10000002384,273326.141,276392.976,8,400,3,,ISIC_2733043.JPG
break,html.Screen,4_52_1,2023-10-31T02:43:58.077Z,,0,,,NaN,,,,,,false,,,,276386,276385.89999997616,,276385.60000002384,,276392.976,8,400,,,
break_continue,html.Screen,4_52_2,2023-10-31T02:43:58.078Z,,0,,,NaN,,,,,,false,,,,276386.3000000715,276386.3000000715,,276386.10000002384,,276392.976,8,400,,,
sequence,flow.Sequence,4_52,2023-10-31T02:43:58.078Z,,0,,,3060.1590000715223,completion,,,,,false,,,,276386.39999997616,276386.3000000715,273313.859,273312.10000002384,273326.141,276392.976,8,400,,,
trial,html.Screen,4_53_0,2023-10-31T02:44:03.999Z,,0,2,,5914.824000071501,response,ISIC_4746361.JPG,5,ISIC_4432898.JPG,ISIC_4746361.JPG,false,1,keypress(m),500,282308,282307.8000000715,276385.689,276386.5,276392.976,282318.617,8,400,4,,ISIC_4432898.JPG
break,html.Screen,4_53_1,2023-10-31T02:44:04.000Z,,0,,,NaN,,,,,,false,,,,282309,282308.89999997616,,282308.10000002384,,282318.617,8,400,,,
break_continue,html.Screen,4_53_2,2023-10-31T02:44:04.001Z,,0,,,NaN,,,,,,false,,,,282309.3000000715,282309.2000000477,,282309.2000000477,,282318.617,8,400,,,
sequence,flow.Sequence,4_53,2023-10-31T02:44:04.001Z,,0,,,5916.2240000476595,completion,,,,,false,,,,282309.39999997616,282309.2000000477,276385.689,276386.39999997616,276392.976,282318.617,8,400,,,
trial,html.Screen,4_54_0,2023-10-31T02:44:07.379Z,,0,2,,3369.3829999999725,response,ISIC_3256887.JPG,5,ISIC_1930598.JPG,ISIC_3256887.JPG,false,1,keypress(m),500,285688.10000002384,285688,282311.585,282309.39999997616,282318.617,285691.912,8,400,5,,ISIC_1930598.JPG
break,html.Screen,4_54_1,2023-10-31T02:44:07.380Z,,0,,,NaN,,,,,,false,,,,285688.89999997616,285688.8000000715,,285688.3000000715,,285691.912,8,400,,,
break_continue,html.Screen,4_54_2,2023-10-31T02:44:07.380Z,,0,,,NaN,,,,,,false,,,,285689.10000002384,285689,,285688.89999997616,,285691.912,8,400,,,
sequence,flow.Sequence,4_54,2023-10-31T02:44:07.381Z,,0,,,3370.3829999999725,completion,,,,,false,,,,285689.2000000477,285689,282311.585,282309.39999997616,282318.617,285691.912,8,400,,,
trial,html.Screen,4_55_0,2023-10-31T02:44:10.502Z,,0,2,,3118.1880000238307,response,ISIC_0012338.JPG,5,ISIC_8692155.JPG,ISIC_0012338.JPG,false,1,keypress(m),500,288810.2000000477,288810.10000002384,285686.698,285689.2000000477,285691.912,288818.441,8,400,6,,ISIC_8692155.JPG
break,html.Screen,4_55_1,2023-10-31T02:44:10.502Z,,0,,,NaN,,,,,,false,,,,288811.10000002384,288810.89999997616,,288810.3000000715,,288818.441,8,400,,,
break_continue,html.Screen,4_55_2,2023-10-31T02:44:10.503Z,,0,,,NaN,,,,,,false,,,,288811.39999997616,288811.39999997616,,288811.2000000477,,288818.441,8,400,,,
sequence,flow.Sequence,4_55,2023-10-31T02:44:10.503Z,,0,,,3119.487999976147,completion,,,,,false,,,,288811.5,288811.39999997616,285686.698,285689.2000000477,285691.912,288818.441,8,400,,,
trial,html.Screen,4_56_0,2023-10-31T02:44:14.216Z,,0,2,,3705.759000047692,response,ISIC_8300954.JPG,5,ISIC_0002288.JPG,ISIC_0002288.JPG,false,0,keypress(z),500,292524.39999997616,292524.2000000477,288806.708,288811.5,288818.441,292526.035,8,400,7,,ISIC_8300954.JPG
break,html.Screen,4_56_1,2023-10-31T02:44:14.217Z,,0,,,NaN,,,,,,false,,,,292525.3000000715,292525,,292524.5,,292526.035,8,400,,,
break_continue,html.Screen,4_56_2,2023-10-31T02:44:14.217Z,,0,,,NaN,,,,,,false,,,,292525.5,292525.39999997616,,292525.3000000715,,292526.035,8,400,,,
sequence,flow.Sequence,4_56,2023-10-31T02:44:14.217Z,,0,,,3706.9589999761665,completion,,,,,false,,,,292525.60000002384,292525.39999997616,288806.708,288811.5,288818.441,292526.035,8,400,,,
trial,html.Screen,4_57_0,2023-10-31T02:44:17.562Z,,0,2,,3344.5650000238675,response,ISIC_0060760.JPG,4,ISIC_1265755.JPG,ISIC_1265755.JPG,false,0,keypress(z),500,295870.8000000715,295870.60000002384,292520.76,292525.7000000477,292526.035,295877.701,8,400,8,,ISIC_0060760.JPG
break,html.Screen,4_57_1,2023-10-31T02:44:17.563Z,,0,,,NaN,,,,,,false,,,,295871.7000000477,295871.39999997616,,295871,,295877.701,8,400,,,
break_continue,html.Screen,4_57_2,2023-10-31T02:44:17.563Z,,0,,,NaN,,,,,,false,,,,295872,295871.89999997616,,295871.8000000715,,295877.701,8,400,,,
sequence,flow.Sequence,4_57,2023-10-31T02:44:17.563Z,,0,,,3345.8649999761838,completion,,,,,false,,,,295872,295871.89999997616,292520.76,292525.7000000477,292526.035,295877.701,8,400,,,
trial,html.Screen,4_58_0,2023-10-31T02:44:20.669Z,,0,2,,3099.798999999999,response,ISIC_2075121.JPG,4,ISIC_0010777.JPG,ISIC_2075121.JPG,false,1,keypress(m),500,298977.60000002384,298977.5,295865.217,295872.2000000477,295877.701,298980.203,8,400,9,,ISIC_0010777.JPG
break,html.Screen,4_58_1,2023-10-31T02:44:20.670Z,,0,,,NaN,,,,,,false,,,,298978.2000000477,298978.10000002384,,298977.7000000477,,298980.203,8,400,,,
break_continue,html.Screen,4_58_2,2023-10-31T02:44:20.670Z,,0,,,NaN,,,,,,false,,,,298978.39999997616,298978.39999997616,,298978.39999997616,,298980.203,8,400,,,
sequence,flow.Sequence,4_58,2023-10-31T02:44:20.670Z,,0,,,3100.698999976157,completion,,,,,false,,,,298978.5,298978.39999997616,295865.217,295872.10000002384,295877.701,298980.203,8,400,,,
trial,html.Screen,4_59_0,2023-10-31T02:44:23.871Z,,0,2,,3199.497000047704,response,ISIC_0010653.JPG,4,ISIC_0029495.JPG,ISIC_0029495.JPG,false,0,keypress(z),500,302179.89999997616,302179.7000000477,298974.911,298978.60000002384,298980.203,302185.995,8,400,10,,ISIC_0010653.JPG
break,html.Screen,4_59_1,2023-10-31T02:44:23.872Z,,0,,,NaN,,,,,,false,,,,302180.5,302180.39999997616,,302180,,302185.995,8,400,,,
break_continue,html.Screen,4_59_2,2023-10-31T02:44:23.872Z,,0,,,NaN,,,,,,false,,,,302180.8000000715,302180.7000000477,,302180.60000002384,,302185.995,8,400,,,
sequence,flow.Sequence,4_59,2023-10-31T02:44:23.872Z,,0,,,3200.497000047704,completion,,,,,false,,,,302180.89999997616,302180.7000000477,298974.911,298978.60000002384,298980.203,302185.995,8,400,,,
trial,html.Screen,4_60_0,2023-10-31T02:44:27.379Z,,0,2,,3501.2050000476884,response,ISIC_0013972.JPG,8,ISIC_8503961.JPG,ISIC_0013972.JPG,false,1,keypress(m),500,305687.3000000715,305687.2000000477,302182.211,302181,302185.995,305694.695,8,400,11,,ISIC_8503961.JPG
break,html.Screen,4_60_1,2023-10-31T02:44:27.380Z,,0,,,NaN,,,,,,false,,,,305689,305688.8000000715,,305687.39999997616,,305694.695,8,400,,,
break_continue,html.Screen,4_60_2,2023-10-31T02:44:27.381Z,,0,,,NaN,,,,,,false,,,,305689.2000000477,305689.2000000477,,305689,,305694.695,8,400,,,
sequence,flow.Sequence,4_60,2023-10-31T02:44:27.381Z,,0,,,3503.2050000476884,completion,,,,,false,,,,305689.2000000477,305689.2000000477,302182.211,302181,302185.995,305694.695,8,400,,,
trial,html.Screen,4_61_0,2023-10-31T02:44:30.118Z,,0,2,,2732.0050000476767,response,ISIC_0026475.JPG,6,ISIC_0011780.JPG,ISIC_0011780.JPG,false,0,keypress(z),500,308426.89999997616,308426.7000000477,305685.627,305689.3000000715,305694.695,308433.098,8,400,12,,ISIC_0026475.JPG
break,html.Screen,4_61_1,2023-10-31T02:44:30.119Z,,0,,,NaN,,,,,,false,,,,308427.60000002384,308427.5,,308427,,308433.098,8,400,,,
break_continue,html.Screen,4_61_2,2023-10-31T02:44:30.119Z,,0,,,NaN,,,,,,false,,,,308427.8000000715,308427.8000000715,,308427.7000000477,,308433.098,8,400,,,
sequence,flow.Sequence,4_61,2023-10-31T02:44:30.119Z,,0,,,2733.1050000715186,completion,,,,,false,,,,308427.89999997616,308427.8000000715,305685.627,305689.2000000477,305694.695,308433.098,8,400,,,
trial,html.Screen,4_62_0,2023-10-31T02:44:33.065Z,,0,2,,2939.902000000002,response,ISIC_0063601.JPG,5,ISIC_0058998.JPG,ISIC_0058998.JPG,false,0,keypress(z),500,311373.2000000477,311373,308422.045,308428,308433.098,311381.214,8,400,13,,ISIC_0063601.JPG
break,html.Screen,4_62_1,2023-10-31T02:44:33.065Z,,0,,,NaN,,,,,,false,,,,311373.89999997616,311373.7000000477,,311373.3000000715,,311381.214,8,400,,,
break_continue,html.Screen,4_62_2,2023-10-31T02:44:33.066Z,,0,,,NaN,,,,,,false,,,,311374.3000000715,311374.10000002384,,311374,,311381.214,8,400,,,
sequence,flow.Sequence,4_62,2023-10-31T02:44:33.066Z,,0,,,2941.0020000238437,completion,,,,,false,,,,311374.3000000715,311374.10000002384,308422.045,308427.89999997616,308433.098,311381.214,8,400,,,
trial,html.Screen,4_63_0,2023-10-31T02:44:36.555Z,,0,2,,3481.8860000238637,response,ISIC_4887995.JPG,5,ISIC_0262770.JPG,ISIC_4887995.JPG,false,1,keypress(m),500,314863.2000000477,314863.10000002384,311369.244,311374.39999997616,311381.214,314868.864,8,400,14,,ISIC_0262770.JPG
break,html.Screen,4_63_1,2023-10-31T02:44:36.555Z,,0,,,NaN,,,,,,false,,,,314864.10000002384,314863.89999997616,,314863.39999997616,,314868.864,8,400,,,
break_continue,html.Screen,4_63_2,2023-10-31T02:44:36.556Z,,0,,,NaN,,,,,,false,,,,314864.3000000715,314864.3000000715,,314864.2000000477,,314868.864,8,400,,,
sequence,flow.Sequence,4_63,2023-10-31T02:44:36.556Z,,0,,,3483.0860000715475,completion,,,,,false,,,,314864.39999997616,314864.3000000715,311369.244,311374.39999997616,311381.214,314868.864,8,400,,,
trial,html.Screen,4_64_0,2023-10-31T02:44:39.411Z,,0,2,,2850.6359999999986,response,ISIC_0034222.JPG,4,ISIC_0919467.JPG,ISIC_0919467.JPG,false,0,keypress(z),500,317719.60000002384,317719.5,314859.71,314864.5,314868.864,317726.214,8,400,15,,ISIC_0034222.JPG
break,html.Screen,4_64_1,2023-10-31T02:44:39.412Z,,0,,,NaN,,,,,,false,,,,317720.39999997616,317720.3000000715,,317719.7000000477,,317726.214,8,400,,,
break_continue,html.Screen,4_64_2,2023-10-31T02:44:39.412Z,,0,,,NaN,,,,,,false,,,,317720.60000002384,317720.60000002384,,317720.39999997616,,317726.214,8,400,,,
sequence,flow.Sequence,4_64,2023-10-31T02:44:39.412Z,,0,,,2851.7360000238405,completion,,,,,false,,,,317720.7000000477,317720.60000002384,314859.71,314864.5,314868.864,317726.214,8,400,,,
trial,html.Screen,4_65_0,2023-10-31T02:44:42.774Z,,0,2,,3356.3860000238637,response,ISIC_0067159.JPG,6,ISIC_9740245.JPG,ISIC_9740245.JPG,false,0,keypress(z),500,321082.8000000715,321082.60000002384,317719.342,317720.8000000715,317726.214,321088.019,8,400,16,,ISIC_0067159.JPG
break,html.Screen,4_65_1,2023-10-31T02:44:42.775Z,,0,,,NaN,,,,,,false,,,,321083.39999997616,321083.2000000477,,321082.89999997616,,321088.019,8,400,,,
break_continue,html.Screen,4_65_2,2023-10-31T02:44:42.775Z,,0,,,NaN,,,,,,false,,,,321083.8000000715,321083.60000002384,,321083.39999997616,,321088.019,8,400,,,
sequence,flow.Sequence,4_65,2023-10-31T02:44:42.775Z,,0,,,3357.3860000238637,completion,,,,,false,,,,321083.8000000715,321083.60000002384,317719.342,317720.8000000715,317726.214,321088.019,8,400,,,
trial,html.Screen,4_66_0,2023-10-31T02:44:45.688Z,,0,2,,2908.880999976187,response,ISIC_0025616.JPG,6,ISIC_2445765.JPG,ISIC_0025616.JPG,false,1,keypress(m),500,323997.10000002384,323996.89999997616,321079.919,321083.8000000715,321088.019,324003.762,8,400,17,,ISIC_2445765.JPG
break,html.Screen,4_66_1,2023-10-31T02:44:45.689Z,,0,,,NaN,,,,,,false,,,,323998.10000002384,323997.89999997616,,323997.2000000477,,324003.762,8,400,,,
break_continue,html.Screen,4_66_2,2023-10-31T02:44:45.690Z,,0,,,NaN,,,,,,false,,,,323998.3000000715,323998.2000000477,,323998.10000002384,,324003.762,8,400,,,
sequence,flow.Sequence,4_66,2023-10-31T02:44:45.690Z,,0,,,2910.1810000477126,completion,,,,,false,,,,323998.39999997616,323998.2000000477,321079.919,321083.8000000715,321088.019,324003.762,8,400,,,
trial,html.Screen,4_67_0,2023-10-31T02:44:48.923Z,,0,2,,3227.5380000715377,response,ISIC_0024546.JPG,5,ISIC_0082348.JPG,ISIC_0024546.JPG,false,1,keypress(m),500,327231.39999997616,327231.3000000715,323992.618,323998.39999997616,324003.762,327238.275,8,400,18,,ISIC_0082348.JPG
break,html.Screen,4_67_1,2023-10-31T02:44:48.924Z,,0,,,NaN,,,,,,false,,,,327232.3000000715,327232,,327231.60000002384,,327238.275,8,400,,,
break_continue,html.Screen,4_67_2,2023-10-31T02:44:48.924Z,,0,,,NaN,,,,,,false,,,,327232.60000002384,327232.5,,327232.39999997616,,327238.275,8,400,,,
sequence,flow.Sequence,4_67,2023-10-31T02:44:48.924Z,,0,,,3228.738000000012,completion,,,,,false,,,,327232.7000000477,327232.5,323992.618,323998.39999997616,324003.762,327238.275,8,400,,,
trial,html.Screen,4_68_0,2023-10-31T02:44:51.918Z,,0,2,,2988.3250000238186,response,ISIC_1132966.JPG,6,ISIC_0030393.JPG,ISIC_1132966.JPG,false,1,keypress(m),500,330226.7000000477,330226.60000002384,327230.644,327232.8000000715,327238.275,330232.549,8,400,19,,ISIC_0030393.JPG
break,html.Screen,4_68_1,2023-10-31T02:44:51.919Z,,0,,,NaN,,,,,,false,,,,330227.39999997616,330227.2000000477,,330226.89999997616,,330232.549,8,400,,,
break_continue,html.Screen,4_68_2,2023-10-31T02:44:51.919Z,,0,,,NaN,,,,,,false,,,,330227.5,330227.5,,330227.39999997616,,330232.549,8,400,,,
sequence,flow.Sequence,4_68,2023-10-31T02:44:51.919Z,,0,,,2989.2249999999767,completion,,,,,false,,,,330227.60000002384,330227.5,327230.644,327232.8000000715,327238.275,330232.549,8,400,,,
trial,html.Screen,4_69_0,2023-10-31T02:44:54.673Z,,0,2,,2748.551000023843,response,ISIC_3377082.JPG,6,ISIC_6759173.JPG,ISIC_3377082.JPG,false,1,keypress(m),500,332981.2000000477,332981.10000002384,330228.887,330227.7000000477,330232.549,332987.108,8,400,20,,ISIC_6759173.JPG
break,html.Screen,4_69_1,2023-10-31T02:44:54.673Z,,0,,,NaN,,,,,,false,,,,332981.89999997616,332981.8000000715,,332981.39999997616,,332987.108,8,400,,,
break_continue,html.Screen,4_69_2,2023-10-31T02:44:54.674Z,,0,,,NaN,,,,,,false,,,,332982.2000000477,332982.10000002384,,332982,,332987.108,8,400,,,
sequence,flow.Sequence,4_69,2023-10-31T02:44:54.674Z,,0,,,2749.551000023843,completion,,,,,false,,,,332982.2000000477,332982.10000002384,330228.887,330227.7000000477,330232.549,332987.108,8,400,,,
trial,html.Screen,4_70_0,2023-10-31T02:44:58.387Z,,0,2,,3707.9920000238344,response,ISIC_0013831.JPG,5,ISIC_0029478.JPG,ISIC_0013831.JPG,false,1,keypress(m),500,336695.39999997616,336695.10000002384,332977.435,332982.39999997616,332987.108,336701.666,8,400,21,,ISIC_0029478.JPG
break,html.Screen,4_70_1,2023-10-31T02:44:58.388Z,,0,,,NaN,,,,,,false,,,,336696.60000002384,336696.39999997616,,336695.7000000477,,336701.666,8,400,,,
break_continue,html.Screen,4_70_2,2023-10-31T02:44:58.388Z,,0,,,NaN,,,,,,false,,,,336696.8000000715,336696.8000000715,,336696.7000000477,,336701.666,8,400,,,
sequence,flow.Sequence,4_70,2023-10-31T02:44:58.388Z,,0,,,3709.692000071518,completion,,,,,false,,,,336696.89999997616,336696.8000000715,332977.435,332982.39999997616,332987.108,336701.666,8,400,,,
trial,html.Screen,4_71_0,2023-10-31T02:45:01.350Z,,0,2,,2956.4340000238153,response,ISIC_3335505.JPG,5,ISIC_6114646.JPG,ISIC_6114646.JPG,false,0,keypress(z),500,339658.2000000477,339658.10000002384,336696.066,336697,336701.666,339664.87,8,400,22,,ISIC_3335505.JPG
break,html.Screen,4_71_1,2023-10-31T02:45:01.350Z,,0,,,NaN,,,,,,false,,,,339658.89999997616,339658.7000000477,,339658.3000000715,,339664.87,8,400,,,
break_continue,html.Screen,4_71_2,2023-10-31T02:45:01.350Z,,0,,,NaN,,,,,,false,,,,339659,339659,,339658.89999997616,,339664.87,8,400,,,
sequence,flow.Sequence,4_71,2023-10-31T02:45:01.351Z,,0,,,2957.3339999999735,completion,,,,,false,,,,339659.10000002384,339659,336696.066,336697,336701.666,339664.87,8,400,,,
trial,html.Screen,4_72_0,2023-10-31T02:45:05.689Z,,0,2,,4332.330000047688,response,ISIC_8535943.JPG,5,ISIC_0033584.JPG,ISIC_0033584.JPG,false,0,keypress(z),500,343997.5,343997.2000000477,339658.912,339659.2000000477,339664.87,344000.847,8,400,23,,ISIC_8535943.JPG
break,html.Screen,4_72_1,2023-10-31T02:45:05.690Z,,0,,,NaN,,,,,,false,,,,343998.39999997616,343998.3000000715,,343997.5,,344000.847,8,400,,,
break_continue,html.Screen,4_72_2,2023-10-31T02:45:05.690Z,,0,,,NaN,,,,,,false,,,,343998.7000000477,343998.60000002384,,343998.60000002384,,344000.847,8,400,,,
sequence,flow.Sequence,4_72,2023-10-31T02:45:05.690Z,,0,,,4333.7300000238465,completion,,,,,false,,,,343998.8000000715,343998.60000002384,339658.912,339659.2000000477,339664.87,344000.847,8,400,,,
trial,html.Screen,4_73_0,2023-10-31T02:45:08.796Z,,0,2,,3103.152999999991,response,ISIC_3401631.JPG,5,ISIC_0072157.JPG,ISIC_3401631.JPG,false,1,keypress(m),500,347104.2000000477,347104,343992.107,343998.89999997616,344000.847,347112.271,8,400,24,,ISIC_0072157.JPG
break,html.Screen,4_73_1,2023-10-31T02:45:08.797Z,,0,,,NaN,,,,,,false,,,,347105.5,347105.2000000477,,347104.3000000715,,347112.271,8,400,,,
break_continue,html.Screen,4_73_2,2023-10-31T02:45:08.797Z,,0,,,NaN,,,,,,false,,,,347105.7000000477,347105.7000000477,,347105.60000002384,,347112.271,8,400,,,
sequence,flow.Sequence,4_73,2023-10-31T02:45:08.797Z,,0,,,3104.853000047675,completion,,,,,false,,,,347105.8000000715,347105.7000000477,343992.107,343998.89999997616,344000.847,347112.271,8,400,,,
trial,html.Screen,4_74_0,2023-10-31T02:45:11.375Z,,0,2,,2571.228999999992,response,ISIC_0070814.JPG,5,ISIC_9574191.JPG,ISIC_9574191.JPG,false,0,keypress(z),500,349683.7000000477,349683.5,347099.48,347106,347112.271,349687.917,8,400,25,,ISIC_0070814.JPG
break,html.Screen,4_74_1,2023-10-31T02:45:11.376Z,,0,,,NaN,,,,,,false,,,,349684.5,349684.3000000715,,349683.8000000715,,349687.917,8,400,,,
break_continue,html.Screen,4_74_2,2023-10-31T02:45:11.376Z,,0,,,NaN,,,,,,false,,,,349684.8000000715,349684.7000000477,,349684.60000002384,,349687.917,8,400,,,
sequence,flow.Sequence,4_74,2023-10-31T02:45:11.376Z,,0,,,2572.429000047676,completion,,,,,false,,,,349684.89999997616,349684.7000000477,347099.48,347106,347112.271,349687.917,8,400,,,
trial,html.Screen,4_75_0,2023-10-31T02:45:14.817Z,,0,2,,3437.8830000715097,response,ISIC_0010550.JPG,4,ISIC_2166661.JPG,ISIC_2166661.JPG,false,0,keypress(z),500,353126,353125.8000000715,349681.271,349684.89999997616,349687.917,353128.348,8,400,26,,ISIC_0010550.JPG
break,html.Screen,4_75_1,2023-10-31T02:45:14.818Z,,0,,,NaN,,,,,,false,,,,353126.5,353126.39999997616,,353126,,353128.348,8,400,,,
break_continue,html.Screen,4_75_2,2023-10-31T02:45:14.818Z,,0,,,NaN,,,,,,false,,,,353126.89999997616,353126.8000000715,,353126.7000000477,,353128.348,8,400,,,
sequence,flow.Sequence,4_75,2023-10-31T02:45:14.818Z,,0,,,3438.8830000715097,completion,,,,,false,,,,353127,353126.8000000715,349681.271,349684.89999997616,349687.917,353128.348,8,400,,,
trial,html.Screen,4_76_0,2023-10-31T02:45:19.859Z,,0,2,,5039.05199997616,response,ISIC_0056466.JPG,4,ISIC_0032671.JPG,ISIC_0032671.JPG,false,0,keypress(z),500,358167.60000002384,358167.39999997616,353122.435,353127,353128.348,358171.237,8,400,27,,ISIC_0056466.JPG
break,html.Screen,4_76_1,2023-10-31T02:45:19.860Z,,0,,,NaN,,,,,,false,,,,358168.39999997616,358168.39999997616,,358167.7000000477,,358171.237,8,400,,,
break_continue,html.Screen,4_76_2,2023-10-31T02:45:19.860Z,,0,,,NaN,,,,,,false,,,,358168.7000000477,358168.60000002384,,358168.60000002384,,358171.237,8,400,,,
sequence,flow.Sequence,4_76,2023-10-31T02:45:19.860Z,,0,,,5040.252000023844,completion,,,,,false,,,,358168.7000000477,358168.60000002384,353122.435,353127,353128.348,358171.237,8,400,,,
trial,html.Screen,4_77_0,2023-10-31T02:45:26.806Z,,0,2,,6943.063000071503,response,ISIC_2433965.JPG,4,ISIC_7482149.JPG,ISIC_2433965.JPG,false,1,keypress(m),500,365114.5,365114.3000000715,358162.33,358168.89999997616,358171.237,365118.921,8,400,28,,ISIC_7482149.JPG
break,html.Screen,4_77_1,2023-10-31T02:45:26.806Z,,0,,,NaN,,,,,,false,,,,365115,365115,,365114.60000002384,,365118.921,8,400,,,
break_continue,html.Screen,4_77_2,2023-10-31T02:45:26.807Z,,0,,,NaN,,,,,,false,,,,365115.3000000715,365115.3000000715,,365115.10000002384,,365118.921,8,400,,,
sequence,flow.Sequence,4_77,2023-10-31T02:45:26.807Z,,0,,,6944.063000071503,completion,,,,,false,,,,365115.39999997616,365115.3000000715,358162.33,358168.89999997616,358171.237,365118.921,8,400,,,
trial,html.Screen,4_78_0,2023-10-31T02:45:29.848Z,,0,2,,3037.179000023869,response,ISIC_0007501.JPG,5,ISIC_5178031.JPG,ISIC_0007501.JPG,false,1,keypress(m),500,368156.2000000477,368156.10000002384,365111.53,365115.5,365118.921,368166.361,8,400,29,,ISIC_5178031.JPG
break,html.Screen,4_78_1,2023-10-31T02:45:29.848Z,,0,,,NaN,,,,,,false,,,,368156.8000000715,368156.7000000477,,368156.39999997616,,368166.361,8,400,,,
break_continue,html.Screen,4_78_2,2023-10-31T02:45:29.848Z,,0,,,NaN,,,,,,false,,,,368157,368156.89999997616,,368156.89999997616,,368166.361,8,400,,,
sequence,flow.Sequence,4_78,2023-10-31T02:45:29.848Z,,0,,,3037.978999976185,completion,,,,,false,,,,368157,368156.89999997616,365111.53,365115.5,365118.921,368166.361,8,400,,,
trial,html.Screen,4_79_0,2023-10-31T02:45:32.730Z,,0,2,,2872.3390000477084,response,ISIC_0027941.JPG,5,ISIC_8127323.JPG,ISIC_0027941.JPG,false,1,keypress(m),500,371038.8000000715,371038.7000000477,368159.319,368157.10000002384,368166.361,371045.037,8,400,30,,ISIC_8127323.JPG
break,html.Screen,4_79_1,2023-10-31T02:45:32.731Z,,0,,,NaN,,,,,,false,,,,371039.39999997616,371039.3000000715,,371038.89999997616,,371045.037,8,400,,,
break_continue,html.Screen,4_79_2,2023-10-31T02:45:32.731Z,,0,,,NaN,,,,,,false,,,,371039.60000002384,371039.5,,371039.5,,371045.037,8,400,,,
sequence,flow.Sequence,4_79,2023-10-31T02:45:32.731Z,,0,,,2873.1390000000247,completion,,,,,false,,,,371039.7000000477,371039.5,368159.319,368157.10000002384,368166.361,371045.037,8,400,,,
trial,html.Screen,4_80_0,2023-10-31T02:45:35.405Z,,0,2,,2668.5630000238307,response,ISIC_1175291.JPG,4,ISIC_0490714.JPG,ISIC_0490714.JPG,false,0,keypress(z),500,373713.7000000477,373713.60000002384,371035.93,371039.7000000477,371045.037,373715.642,8,400,31,,ISIC_1175291.JPG
break,html.Screen,4_80_1,2023-10-31T02:45:35.406Z,,0,,,NaN,,,,,,false,,,,373714.5,373714.2000000477,,373713.8000000715,,373715.642,8,400,,,
break_continue,html.Screen,4_80_2,2023-10-31T02:45:35.406Z,,0,,,NaN,,,,,,false,,,,373714.8000000715,373714.7000000477,,373714.60000002384,,373715.642,8,400,,,
sequence,flow.Sequence,4_80,2023-10-31T02:45:35.406Z,,0,,,2669.6630000476725,completion,,,,,false,,,,373714.89999997616,373714.7000000477,371035.93,371039.7000000477,371045.037,373715.642,8,400,,,
trial,html.Screen,4_81_0,2023-10-31T02:45:38.143Z,,0,2,,2736.158000071533,response,ISIC_6668197.JPG,5,ISIC_2106823.JPG,ISIC_6668197.JPG,false,1,keypress(m),500,376452.10000002384,376451.8000000715,373709.364,373714.89999997616,373715.642,376453.722,8,400,32,,ISIC_2106823.JPG
break,html.Screen,4_81_1,2023-10-31T02:45:38.144Z,,0,,,NaN,,,,,,false,,,,376452.8000000715,376452.60000002384,,376452.10000002384,,376453.722,8,400,,,
break_continue,html.Screen,4_81_2,2023-10-31T02:45:38.145Z,,0,,,NaN,,,,,,false,,,,376453.10000002384,376453,,376452.89999997616,,376453.722,8,400,,,
sequence,flow.Sequence,4_81,2023-10-31T02:45:38.145Z,,0,,,2737.3580000000075,completion,,,,,false,,,,376453.2000000477,376453,373709.364,373714.89999997616,373715.642,376453.722,8,400,,,
trial,html.Screen,4_82_0,2023-10-31T02:45:41.427Z,,0,2,,3281.378000023833,response,ISIC_9842269.JPG,5,ISIC_0024260.JPG,ISIC_9842269.JPG,false,1,keypress(m),500,379735.3000000715,379735.10000002384,376447.85,376453.2000000477,376453.722,379738.755,8,400,33,,ISIC_0024260.JPG
break,html.Screen,4_82_1,2023-10-31T02:45:41.428Z,,0,,,NaN,,,,,,false,,,,379736.2000000477,379736,,379735.39999997616,,379738.755,8,400,,,
break_continue,html.Screen,4_82_2,2023-10-31T02:45:41.428Z,,0,,,NaN,,,,,,false,,,,379736.5,379736.39999997616,,379736.3000000715,,379738.755,8,400,,,
sequence,flow.Sequence,4_82,2023-10-31T02:45:41.428Z,,0,,,3282.6779999761493,completion,,,,,false,,,,379736.60000002384,379736.39999997616,376447.85,376453.2000000477,376453.722,379738.755,8,400,,,
trial,html.Screen,4_83_0,2023-10-31T02:45:44.086Z,,0,2,,2655.445000047679,response,ISIC_0443835.JPG,5,ISIC_0062401.JPG,ISIC_0443835.JPG,false,1,keypress(m),500,382394.39999997616,382394.2000000477,379733.424,379736.7000000477,379738.755,382397.798,8,400,34,,ISIC_0062401.JPG
break,html.Screen,4_83_1,2023-10-31T02:45:44.087Z,,0,,,NaN,,,,,,false,,,,382395.39999997616,382395.3000000715,,382394.5,,382397.798,8,400,,,
break_continue,html.Screen,4_83_2,2023-10-31T02:45:44.087Z,,0,,,NaN,,,,,,false,,,,382395.60000002384,382395.60000002384,,382395.5,,382397.798,8,400,,,
sequence,flow.Sequence,4_83,2023-10-31T02:45:44.087Z,,0,,,2656.845000023837,completion,,,,,false,,,,382395.7000000477,382395.60000002384,379733.424,379736.7000000477,379738.755,382397.798,8,400,,,
trial,html.Screen,4_84_0,2023-10-31T02:45:46.762Z,,0,2,,2672.502000071516,response,ISIC_0148751.JPG,6,ISIC_0024585.JPG,ISIC_0148751.JPG,false,1,keypress(m),500,385070.39999997616,385070.3000000715,382394.254,382395.8000000715,382397.798,385075.487,8,400,35,,ISIC_0024585.JPG
break,html.Screen,4_84_1,2023-10-31T02:45:46.763Z,,0,,,NaN,,,,,,false,,,,385071.10000002384,385070.89999997616,,385070.60000002384,,385075.487,8,400,,,
break_continue,html.Screen,4_84_2,2023-10-31T02:45:46.763Z,,0,,,NaN,,,,,,false,,,,385071.3000000715,385071.3000000715,,385071.2000000477,,385075.487,8,400,,,
sequence,flow.Sequence,4_84,2023-10-31T02:45:46.763Z,,0,,,2673.502000071516,completion,,,,,false,,,,385071.39999997616,385071.3000000715,382394.254,382395.8000000715,382397.798,385075.487,8,400,,,
trial,html.Screen,4_85_0,2023-10-31T02:45:50.044Z,,0,2,,3276.713000047661,response,ISIC_0013258.JPG,5,ISIC_0033621.JPG,ISIC_0033621.JPG,false,0,keypress(z),500,388352.39999997616,388352.2000000477,385066.445,385071.39999997616,385075.487,388361.507,8,400,36,,ISIC_0013258.JPG
break,html.Screen,4_85_1,2023-10-31T02:45:50.045Z,,0,,,NaN,,,,,,false,,,,388353.2000000477,388353.10000002384,,388352.5,,388361.507,8,400,,,
break_continue,html.Screen,4_85_2,2023-10-31T02:45:50.045Z,,0,,,NaN,,,,,,false,,,,388353.5,388353.39999997616,,388353.39999997616,,388361.507,8,400,,,
sequence,flow.Sequence,4_85,2023-10-31T02:45:50.045Z,,0,,,3277.9129999761353,completion,,,,,false,,,,388353.60000002384,388353.39999997616,385066.445,385071.39999997616,385075.487,388361.507,8,400,,,
trial,html.Screen,4_86_0,2023-10-31T02:45:52.735Z,,0,2,,2681.392999976175,response,ISIC_0011830.JPG,6,ISIC_7466678.JPG,ISIC_0011830.JPG,false,1,keypress(m),500,391043.2000000477,391042.89999997616,388350.021,388353.60000002384,388361.507,391050.139,8,400,37,,ISIC_7466678.JPG
break,html.Screen,4_86_1,2023-10-31T02:45:52.735Z,,0,,,NaN,,,,,,false,,,,391044,391043.8000000715,,391043.3000000715,,391050.139,8,400,,,
break_continue,html.Screen,4_86_2,2023-10-31T02:45:52.736Z,,0,,,NaN,,,,,,false,,,,391044.3000000715,391044.2000000477,,391044.10000002384,,391050.139,8,400,,,
sequence,flow.Sequence,4_86,2023-10-31T02:45:52.736Z,,0,,,2682.6930000477005,completion,,,,,false,,,,391044.39999997616,391044.2000000477,388350.021,388353.60000002384,388361.507,391050.139,8,400,,,
trial,html.Screen,4_87_0,2023-10-31T02:45:55.809Z,,0,2,,3067.061000047659,response,ISIC_0422299.JPG,5,ISIC_0010874.JPG,ISIC_0010874.JPG,false,0,keypress(z),500,394117.5,394117.2000000477,391037.909,391044.39999997616,391050.139,394120.221,8,400,38,,ISIC_0422299.JPG
break,html.Screen,4_87_1,2023-10-31T02:45:55.810Z,,0,,,NaN,,,,,,false,,,,394118.3000000715,394118.10000002384,,394117.60000002384,,394120.221,8,400,,,
break_continue,html.Screen,4_87_2,2023-10-31T02:45:55.810Z,,0,,,NaN,,,,,,false,,,,394118.39999997616,394118.39999997616,,394118.39999997616,,394120.221,8,400,,,
sequence,flow.Sequence,4_87,2023-10-31T02:45:55.810Z,,0,,,3068.2609999761335,completion,,,,,false,,,,394118.60000002384,394118.39999997616,391037.909,391044.39999997616,391050.139,394120.221,8,400,,,
trial,html.Screen,4_88_0,2023-10-31T02:45:58.451Z,,0,2,,2639.6789999761386,response,ISIC_8796456.JPG,5,ISIC_0028003.JPG,ISIC_8796456.JPG,false,1,keypress(m),500,396760.10000002384,396759.89999997616,394115.657,394118.60000002384,394120.221,396764.182,8,400,39,,ISIC_0028003.JPG
break,html.Screen,4_88_1,2023-10-31T02:45:58.452Z,,0,,,NaN,,,,,,false,,,,396760.60000002384,396760.5,,396760.2000000477,,396764.182,8,400,,,
break_continue,html.Screen,4_88_2,2023-10-31T02:45:58.452Z,,0,,,NaN,,,,,,false,,,,396760.8000000715,396760.8000000715,,396760.60000002384,,396764.182,8,400,,,
sequence,flow.Sequence,4_88,2023-10-31T02:45:58.452Z,,0,,,2640.579000071506,completion,,,,,false,,,,396760.89999997616,396760.8000000715,394115.657,394118.60000002384,394120.221,396764.182,8,400,,,
trial,html.Screen,4_89_0,2023-10-31T02:46:04.086Z,,0,2,,5630.118000071554,response,ISIC_0061630.JPG,4,ISIC_9974613.JPG,ISIC_0061630.JPG,false,1,keypress(m),500,402394.39999997616,402394.3000000715,396760.509,396760.89999997616,396764.182,402403.465,8,400,40,,ISIC_9974613.JPG
break,html.Screen,4_89_1,2023-10-31T02:46:04.087Z,,0,,,NaN,,,,,,false,,,,402395.10000002384,402395,,402394.60000002384,,402403.465,8,400,,,
break_continue,html.Screen,4_89_2,2023-10-31T02:46:04.087Z,,0,,,NaN,,,,,,false,,,,402395.8000000715,402395.7000000477,,402395.39999997616,,402403.465,8,400,,,
sequence,flow.Sequence,4_89,2023-10-31T02:46:04.087Z,,0,,,5631.518000047712,completion,,,,,false,,,,402395.89999997616,402395.7000000477,396760.509,396760.89999997616,396764.182,402403.465,8,400,,,
trial,html.Screen,4_90_0,2023-10-31T02:46:07.065Z,,0,2,,2970.3350000715,response,ISIC_0169604.JPG,8,ISIC_6644659.JPG,ISIC_6644659.JPG,false,0,keypress(z),500,405373.89999997616,405373.8000000715,402391.183,402396,402403.465,405380.061,8,400,41,,ISIC_0169604.JPG
break,html.Screen,4_90_1,2023-10-31T02:46:07.066Z,,0,,,NaN,,,,,,false,,,,405374.89999997616,405374.7000000477,,405374.10000002384,,405380.061,8,400,,,
break_continue,html.Screen,4_90_2,2023-10-31T02:46:07.067Z,,0,,,NaN,,,,,,false,,,,405375.2000000477,405375.10000002384,,405375,,405380.061,8,400,,,
sequence,flow.Sequence,4_90,2023-10-31T02:46:07.067Z,,0,,,2971.6350000238162,completion,,,,,false,,,,405375.2000000477,405375.10000002384,402391.183,402396,402403.465,405380.061,8,400,,,
trial,html.Screen,4_91_0,2023-10-31T02:46:10.044Z,,0,2,,2972.7390000715386,response,ISIC_0029225.JPG,4,ISIC_0026344.JPG,ISIC_0026344.JPG,false,0,keypress(z),500,408353,408352.8000000715,405368.263,405375.3000000715,405380.061,408366.011,8,400,42,,ISIC_0029225.JPG
break,html.Screen,4_91_1,2023-10-31T02:46:10.045Z,,0,,,NaN,,,,,,false,,,,408353.60000002384,408353.39999997616,,408353.10000002384,,408366.011,8,400,,,
break_continue,html.Screen,4_91_2,2023-10-31T02:46:10.045Z,,0,,,NaN,,,,,,false,,,,408354,408353.89999997616,,408353.8000000715,,408366.011,8,400,,,
sequence,flow.Sequence,4_91,2023-10-31T02:46:10.046Z,,0,,,2973.838999976171,completion,,,,,false,,,,408354.2000000477,408353.89999997616,405368.263,405375.3000000715,405380.061,408366.011,8,400,,,
trial,html.Screen,4_92_0,2023-10-31T02:46:12.608Z,,0,2,,2550.189000047685,response,ISIC_0061941.JPG,5,ISIC_0011315.JPG,ISIC_0011315.JPG,false,0,keypress(z),500,410916.39999997616,410916.2000000477,408349.775,408354.2000000477,408366.011,410923.576,8,400,43,,ISIC_0061941.JPG
break,html.Screen,4_92_1,2023-10-31T02:46:12.608Z,,0,,,NaN,,,,,,false,,,,410917,410916.89999997616,,410916.60000002384,,410923.576,8,400,,,
break_continue,html.Screen,4_92_2,2023-10-31T02:46:12.609Z,,0,,,NaN,,,,,,false,,,,410917.5,410917.39999997616,,410917.2000000477,,410923.576,8,400,,,
sequence,flow.Sequence,4_92,2023-10-31T02:46:12.609Z,,0,,,2551.3889999761595,completion,,,,,false,,,,410917.60000002384,410917.39999997616,408349.775,408354.2000000477,408366.011,410923.576,8,400,,,
trial,html.Screen,4_93_0,2023-10-31T02:46:15.106Z,,0,2,,2490.7240000715246,response,ISIC_0030985.JPG,5,ISIC_0014782.JPG,ISIC_0030985.JPG,false,1,keypress(m),500,413414.39999997616,413414.3000000715,410911.551,410917.7000000477,410923.576,413421.723,8,400,44,,ISIC_0014782.JPG
break,html.Screen,4_93_1,2023-10-31T02:46:15.107Z,,0,,,NaN,,,,,,false,,,,413415.39999997616,413415.10000002384,,413414.60000002384,,413421.723,8,400,,,
break_continue,html.Screen,4_93_2,2023-10-31T02:46:15.107Z,,0,,,NaN,,,,,,false,,,,413415.7000000477,413415.60000002384,,413415.5,,413421.723,8,400,,,
sequence,flow.Sequence,4_93,2023-10-31T02:46:15.107Z,,0,,,2492.024000023841,completion,,,,,false,,,,413415.7000000477,413415.60000002384,410911.551,410917.7000000477,410923.576,413421.723,8,400,,,
trial,html.Screen,4_94_0,2023-10-31T02:46:17.892Z,,0,2,,2779.0770000715274,response,ISIC_0005028.JPG,5,ISIC_0000292.JPG,ISIC_0005028.JPG,false,1,keypress(m),500,416201.10000002384,416200.8000000715,413410.413,413415.8000000715,413421.723,416209.908,8,400,45,,ISIC_0000292.JPG
break,html.Screen,4_94_1,2023-10-31T02:46:17.893Z,,0,,,NaN,,,,,,false,,,,416201.60000002384,416201.5,,416201.10000002384,,416209.908,8,400,,,
break_continue,html.Screen,4_94_2,2023-10-31T02:46:17.894Z,,0,,,NaN,,,,,,false,,,,416202.10000002384,416202,,416201.89999997616,,416209.908,8,400,,,
sequence,flow.Sequence,4_94,2023-10-31T02:46:17.894Z,,0,,,2780.277000000002,completion,,,,,false,,,,416202.3000000715,416202,413410.413,413415.8000000715,413421.723,416209.908,8,400,,,
trial,html.Screen,4_95_0,2023-10-31T02:46:20.487Z,,0,2,,2585.092000000004,response,ISIC_3552318.JPG,5,ISIC_4359258.JPG,ISIC_3552318.JPG,false,1,keypress(m),500,418795.2000000477,418795,416200.535,416202.3000000715,416209.908,418800.84,8,400,46,,ISIC_4359258.JPG
break,html.Screen,4_95_1,2023-10-31T02:46:20.488Z,,0,,,NaN,,,,,,false,,,,418796.10000002384,418796.10000002384,,418795.3000000715,,418800.84,8,400,,,
break_continue,html.Screen,4_95_2,2023-10-31T02:46:20.488Z,,0,,,NaN,,,,,,false,,,,418796.5,418796.39999997616,,418796.3000000715,,418800.84,8,400,,,
sequence,flow.Sequence,4_95,2023-10-31T02:46:20.488Z,,0,,,2586.4919999761623,completion,,,,,false,,,,418796.60000002384,418796.39999997616,416200.535,416202.3000000715,416209.908,418800.84,8,400,,,
trial,html.Screen,4_96_0,2023-10-31T02:46:23.065Z,,0,2,,2572.7600000238162,response,ISIC_0033025.JPG,6,ISIC_0060525.JPG,ISIC_0060525.JPG,false,0,keypress(z),500,421373.8000000715,421373.60000002384,418790.503,418796.60000002384,418800.84,421375.49,8,400,47,,ISIC_0033025.JPG
break,html.Screen,4_96_1,2023-10-31T02:46:23.066Z,,0,,,NaN,,,,,,false,,,,421374.7000000477,421374.5,,421373.8000000715,,421375.49,8,400,,,
break_continue,html.Screen,4_96_2,2023-10-31T02:46:23.066Z,,0,,,NaN,,,,,,false,,,,421374.89999997616,421374.89999997616,,421374.7000000477,,421375.49,8,400,,,
sequence,flow.Sequence,4_96,2023-10-31T02:46:23.066Z,,0,,,2574.0599999761325,completion,,,,,false,,,,421375.10000002384,421374.89999997616,418790.503,418796.60000002384,418800.84,421375.49,8,400,,,
trial,html.Screen,4_97_0,2023-10-31T02:46:25.661Z,,0,2,,2593.4099999761675,response,ISIC_9974299.JPG,6,ISIC_1906141.JPG,ISIC_9974299.JPG,false,1,keypress(m),500,423969.10000002384,423968.89999997616,421369.638,421375.10000002384,421375.49,423971.629,8,400,48,,ISIC_1906141.JPG
break,html.Screen,4_97_1,2023-10-31T02:46:25.661Z,,0,,,NaN,,,,,,false,,,,423970,423969.7000000477,,423969.2000000477,,423971.629,8,400,,,
break_continue,html.Screen,4_97_2,2023-10-31T02:46:25.662Z,,0,,,NaN,,,,,,false,,,,423970.2000000477,423970.10000002384,,423970,,423971.629,8,400,,,
sequence,flow.Sequence,4_97,2023-10-31T02:46:25.662Z,,0,,,2594.610000023851,completion,,,,,false,,,,423970.3000000715,423970.10000002384,421369.638,421375.10000002384,421375.49,423971.629,8,400,,,
trial,html.Screen,4_98_0,2023-10-31T02:46:28.240Z,,0,2,,2576.3709999999846,response,ISIC_8048668.JPG,5,ISIC_0000065.JPG,ISIC_8048668.JPG,false,1,keypress(m),500,426548.10000002384,426548,423967.073,423970.39999997616,423971.629,426551.327,8,400,49,,ISIC_0000065.JPG
break,html.Screen,4_98_1,2023-10-31T02:46:28.240Z,,0,,,NaN,,,,,,false,,,,426548.7000000477,426548.60000002384,,426548.3000000715,,426551.327,8,400,,,
break_continue,html.Screen,4_98_2,2023-10-31T02:46:28.241Z,,0,,,NaN,,,,,,false,,,,426549.2000000477,426549.10000002384,,426548.89999997616,,426551.327,8,400,,,
sequence,flow.Sequence,4_98,2023-10-31T02:46:28.241Z,,0,,,2577.4710000238265,completion,,,,,false,,,,426549.39999997616,426549.10000002384,423967.073,423970.3000000715,423971.629,426551.327,8,400,,,
trial,html.Screen,4_99_0,2023-10-31T02:46:31.170Z,,0,2,,2927.4730000715354,response,ISIC_0033202.JPG,4,ISIC_2256461.JPG,ISIC_2256461.JPG,false,0,keypress(z),500,429478.89999997616,429478.8000000715,426545.942,426549.5,426551.327,429483.027,8,400,50,,ISIC_0033202.JPG
break,html.Screen,4_99_1,2023-10-31T02:46:41.168Z,,0,,,9999.920999999973,timeout,,,,,false,,,,439476.60000002384,439476.09,429477.521,429479,429483.027,439482.948,8,400,,,
break_continue,html.Screen,4_99_2,2023-10-31T02:46:42.102Z,,0,,,921.2520000477089,response,,,,,false,continue,keypress(Space),,440410.3000000715,440404.2000000477,439476.09,439476.8000000715,439482.948,440416.053,8,400,,,
sequence,flow.Sequence,4_99,2023-10-31T02:46:42.102Z,,0,,,13852.873000047693,completion,,,,,false,,,,440410.39999997616,440404.2000000477,426545.942,426549.5,426551.327,440416.053,8,400,,,
trial,html.Screen,4_100_0,2023-10-31T02:46:44.984Z,,0,3,,2876.3469999761437,response,ISIC_0046443.JPG,5,ISIC_4116224.JPG,ISIC_0046443.JPG,false,1,keypress(m),500,443292.7000000477,443292.39999997616,440404.85,440410.5,440416.053,443295.938,8,400,1,,ISIC_4116224.JPG
break,html.Screen,4_100_1,2023-10-31T02:46:44.985Z,,0,,,NaN,,,,,,false,,,,443293.5,443293.10000002384,,443292.7000000477,,443295.938,8,400,,,
break_continue,html.Screen,4_100_2,2023-10-31T02:46:44.985Z,,0,,,NaN,,,,,,false,,,,443293.8000000715,443293.60000002384,,443293.5,,443295.938,8,400,,,
sequence,flow.Sequence,4_100,2023-10-31T02:46:44.985Z,,0,,,2877.5470000238274,completion,,,,,false,,,,443293.89999997616,443293.60000002384,440404.85,440410.39999997616,440416.053,443295.938,8,400,,,
trial,html.Screen,4_101_0,2023-10-31T02:46:47.770Z,,0,3,,2782.9619999761344,response,ISIC_9047184.JPG,5,ISIC_7618133.JPG,ISIC_9047184.JPG,false,1,keypress(m),500,446079.10000002384,446078.89999997616,443292.227,443293.89999997616,443295.938,446082.763,8,400,2,,ISIC_7618133.JPG
break,html.Screen,4_101_1,2023-10-31T02:46:47.771Z,,0,,,NaN,,,,,,false,,,,446079.7000000477,446079.60000002384,,446079.2000000477,,446082.763,8,400,,,
break_continue,html.Screen,4_101_2,2023-10-31T02:46:47.771Z,,0,,,NaN,,,,,,false,,,,446079.89999997616,446079.8000000715,,446079.7000000477,,446082.763,8,400,,,
sequence,flow.Sequence,4_101,2023-10-31T02:46:47.771Z,,0,,,2783.862000071502,completion,,,,,false,,,,446080,446079.8000000715,443292.227,443293.89999997616,443295.938,446082.763,8,400,,,
trial,html.Screen,4_102_0,2023-10-31T02:46:50.622Z,,0,3,,2847.4370000477065,response,ISIC_7349440.JPG,5,ISIC_2161864.JPG,ISIC_2161864.JPG,false,0,keypress(z),500,448930.39999997616,448930.2000000477,446078.651,446080.10000002384,446082.763,448933.923,8,400,3,,ISIC_7349440.JPG
break,html.Screen,4_102_1,2023-10-31T02:46:50.623Z,,0,,,NaN,,,,,,false,,,,448931.3000000715,448931.10000002384,,448930.5,,448933.923,8,400,,,
break_continue,html.Screen,4_102_2,2023-10-31T02:46:50.623Z,,0,,,NaN,,,,,,false,,,,448931.39999997616,448931.39999997616,,448931.3000000715,,448933.923,8,400,,,
sequence,flow.Sequence,4_102,2023-10-31T02:46:50.623Z,,0,,,2848.636999976181,completion,,,,,false,,,,448931.39999997616,448931.39999997616,446078.651,446080,446082.763,448933.923,8,400,,,
trial,html.Screen,4_103_0,2023-10-31T02:46:53.504Z,,0,3,,2878.777000047674,response,ISIC_0000401.JPG,5,ISIC_0030128.JPG,ISIC_0030128.JPG,false,0,keypress(z),500,451812.89999997616,451812.7000000477,448930.016,448931.5,448933.923,451816.836,8,400,4,,ISIC_0000401.JPG
break,html.Screen,4_103_1,2023-10-31T02:46:53.506Z,,0,,,NaN,,,,,,false,,,,451814.5,451814.2000000477,,451813.10000002384,,451816.836,8,400,,,
break_continue,html.Screen,4_103_2,2023-10-31T02:46:53.506Z,,0,,,NaN,,,,,,false,,,,451814.8000000715,451814.8000000715,,451814.60000002384,,451816.836,8,400,,,
sequence,flow.Sequence,4_103,2023-10-31T02:46:53.506Z,,0,,,2880.877000071516,completion,,,,,false,,,,451815.10000002384,451814.8000000715,448930.016,448931.39999997616,448933.923,451816.836,8,400,,,
trial,html.Screen,4_104_0,2023-10-31T02:46:56.740Z,,0,3,,3231.2640000238316,response,ISIC_8635849.JPG,5,ISIC_0692990.JPG,ISIC_0692990.JPG,false,0,keypress(z),500,455048.3000000715,455048.10000002384,451812.815,451815.10000002384,451816.836,455053.667,8,400,5,,ISIC_8635849.JPG
break,html.Screen,4_104_1,2023-10-31T02:46:56.740Z,,0,,,NaN,,,,,,false,,,,455048.89999997616,455048.8000000715,,455048.39999997616,,455053.667,8,400,,,
break_continue,html.Screen,4_104_2,2023-10-31T02:46:56.741Z,,0,,,NaN,,,,,,false,,,,455049.39999997616,455049.3000000715,,455049,,455053.667,8,400,,,
sequence,flow.Sequence,4_104,2023-10-31T02:46:56.741Z,,0,,,3232.4640000715153,completion,,,,,false,,,,455049.5,455049.3000000715,451812.815,451815.10000002384,451816.836,455053.667,8,400,,,
trial,html.Screen,4_105_0,2023-10-31T02:46:59.862Z,,0,3,,3116.933000023826,response,ISIC_9472725.JPG,5,ISIC_0062133.JPG,ISIC_9472725.JPG,false,1,keypress(m),500,458170.8000000715,458170.60000002384,455044.541,455049.5,455053.667,458174.04,8,400,6,,ISIC_0062133.JPG
break,html.Screen,4_105_1,2023-10-31T02:46:59.863Z,,0,,,NaN,,,,,,false,,,,458171.60000002384,458171.5,,458170.8000000715,,458174.04,8,400,,,
break_continue,html.Screen,4_105_2,2023-10-31T02:46:59.863Z,,0,,,NaN,,,,,,false,,,,458171.89999997616,458171.7000000477,,458171.60000002384,,458174.04,8,400,,,
sequence,flow.Sequence,4_105,2023-10-31T02:46:59.863Z,,0,,,3118.033000047668,completion,,,,,false,,,,458171.89999997616,458171.7000000477,455044.541,455049.5,455053.667,458174.04,8,400,,,
trial,html.Screen,4_106_0,2023-10-31T02:47:02.952Z,,0,3,,3086.7600000715465,response,ISIC_8702237.JPG,4,ISIC_0072568.JPG,ISIC_8702237.JPG,false,1,keypress(m),500,461261.10000002384,461260.8000000715,458166.932,458172,458174.04,461263.266,8,400,7,,ISIC_0072568.JPG
break,html.Screen,4_106_1,2023-10-31T02:47:02.953Z,,0,,,NaN,,,,,,false,,,,461261.8000000715,461261.60000002384,,461261.2000000477,,461263.266,8,400,,,
break_continue,html.Screen,4_106_2,2023-10-31T02:47:02.954Z,,0,,,NaN,,,,,,false,,,,461262.2000000477,461262,,461261.89999997616,,461263.266,8,400,,,
sequence,flow.Sequence,4_106,2023-10-31T02:47:02.954Z,,0,,,3087.960000000021,completion,,,,,false,,,,461262.2000000477,461262,458166.932,458172,458174.04,461263.266,8,400,,,
trial,html.Screen,4_107_0,2023-10-31T02:47:05.947Z,,0,3,,2992.0340000715223,response,ISIC_3727059.JPG,5,ISIC_0032583.JPG,ISIC_0032583.JPG,false,0,keypress(z),500,464255.60000002384,464255.3000000715,461261.327,461262.3000000715,461263.266,464262.133,8,400,8,,ISIC_3727059.JPG
break,html.Screen,4_107_1,2023-10-31T02:47:05.948Z,,0,,,NaN,,,,,,false,,,,464256.39999997616,464256.2000000477,,464255.7000000477,,464262.133,8,400,,,
break_continue,html.Screen,4_107_2,2023-10-31T02:47:05.948Z,,0,,,NaN,,,,,,false,,,,464256.60000002384,464256.60000002384,,464256.5,,464262.133,8,400,,,
sequence,flow.Sequence,4_107,2023-10-31T02:47:05.948Z,,0,,,2993.3340000238386,completion,,,,,false,,,,464256.7000000477,464256.60000002384,461261.327,461262.3000000715,461263.266,464262.133,8,400,,,
trial,html.Screen,4_108_0,2023-10-31T02:47:09.407Z,,0,3,,3453.2669999761856,response,ISIC_6441128.JPG,4,ISIC_0057762.JPG,ISIC_6441128.JPG,false,1,keypress(m),500,467715.5,467715.39999997616,464255.902,464256.8000000715,464262.133,467722.938,8,400,9,,ISIC_0057762.JPG
break,html.Screen,4_108_1,2023-10-31T02:47:09.408Z,,0,,,NaN,,,,,,false,,,,467717,467716.8000000715,,467715.60000002384,,467722.938,8,400,,,
break_continue,html.Screen,4_108_2,2023-10-31T02:47:09.409Z,,0,,,NaN,,,,,,false,,,,467717.3000000715,467717.2000000477,,467717.10000002384,,467722.938,8,400,,,
sequence,flow.Sequence,4_108,2023-10-31T02:47:09.409Z,,0,,,3455.067000047711,completion,,,,,false,,,,467717.39999997616,467717.2000000477,464255.902,464256.8000000715,464262.133,467722.938,8,400,,,
trial,html.Screen,4_109_0,2023-10-31T02:47:12.403Z,,0,3,,2988.662000023818,response,ISIC_0067804.JPG,6,ISIC_0015390.JPG,ISIC_0067804.JPG,false,1,keypress(m),500,470711.8000000715,470711.60000002384,467716.157,467717.39999997616,467722.938,470717.053,8,400,10,,ISIC_0015390.JPG
break,html.Screen,4_109_1,2023-10-31T02:47:12.404Z,,0,,,NaN,,,,,,false,,,,470712.5,470712.3000000715,,470712,,470717.053,8,400,,,
break_continue,html.Screen,4_109_2,2023-10-31T02:47:12.404Z,,0,,,NaN,,,,,,false,,,,470712.89999997616,470712.8000000715,,470712.7000000477,,470717.053,8,400,,,
sequence,flow.Sequence,4_109,2023-10-31T02:47:12.404Z,,0,,,2989.862000071502,completion,,,,,false,,,,470713,470712.8000000715,467716.157,467717.39999997616,467722.938,470717.053,8,400,,,
trial,html.Screen,4_110_0,2023-10-31T02:47:15.366Z,,0,3,,2956.8469999761437,response,ISIC_7039203.JPG,4,ISIC_0697953.JPG,ISIC_0697953.JPG,false,0,keypress(z),500,473674.10000002384,473673.89999997616,470706.347,470713,470717.053,473689.562,8,400,11,,ISIC_7039203.JPG
break,html.Screen,4_110_1,2023-10-31T02:47:15.366Z,,0,,,NaN,,,,,,false,,,,473674.89999997616,473674.60000002384,,473674.3000000715,,473689.562,8,400,,,
break_continue,html.Screen,4_110_2,2023-10-31T02:47:15.367Z,,0,,,NaN,,,,,,false,,,,473675.10000002384,473675,,473675,,473689.562,8,400,,,
sequence,flow.Sequence,4_110,2023-10-31T02:47:15.367Z,,0,,,2957.9469999999856,completion,,,,,false,,,,473675.2000000477,473675,470706.347,470713,470717.053,473689.562,8,400,,,
trial,html.Screen,4_111_0,2023-10-31T02:47:20.536Z,,0,3,,5154.938000000024,response,ISIC_5110505.JPG,5,ISIC_0055048.JPG,ISIC_5110505.JPG,false,1,keypress(m),500,478844.7000000477,478844.5,473672,473675.3000000715,473689.562,478849.396,8,400,12,,ISIC_0055048.JPG
break,html.Screen,4_111_1,2023-10-31T02:47:20.537Z,,0,,,NaN,,,,,,false,,,,478845.3000000715,478845.10000002384,,478844.8000000715,,478849.396,8,400,,,
break_continue,html.Screen,4_111_2,2023-10-31T02:47:20.537Z,,0,,,NaN,,,,,,false,,,,478845.5,478845.39999997616,,478845.3000000715,,478849.396,8,400,,,
sequence,flow.Sequence,4_111,2023-10-31T02:47:20.537Z,,0,,,5155.837999976182,completion,,,,,false,,,,478845.60000002384,478845.39999997616,473672,473675.3000000715,473689.562,478849.396,8,400,,,
trial,html.Screen,4_112_0,2023-10-31T02:47:23.562Z,,0,3,,3021.50399997615,response,ISIC_1479949.JPG,5,ISIC_4579262.JPG,ISIC_4579262.JPG,false,0,keypress(z),500,481871.10000002384,481870.89999997616,478846.937,478845.7000000477,478849.396,481877.179,8,400,13,,ISIC_1479949.JPG
break,html.Screen,4_112_1,2023-10-31T02:47:23.563Z,,0,,,NaN,,,,,,false,,,,481871.39999997616,481871.3000000715,,481871.10000002384,,481877.179,8,400,,,
break_continue,html.Screen,4_112_2,2023-10-31T02:47:23.563Z,,0,,,NaN,,,,,,false,,,,481871.60000002384,481871.60000002384,,481871.39999997616,,481877.179,8,400,,,
sequence,flow.Sequence,4_112,2023-10-31T02:47:23.563Z,,0,,,3022.204000023834,completion,,,,,false,,,,481871.7000000477,481871.60000002384,478846.937,478845.60000002384,478849.396,481877.179,8,400,,,
trial,html.Screen,4_113_0,2023-10-31T02:47:26.162Z,,0,3,,2593.2209999761544,response,ISIC_4139260.JPG,5,ISIC_0070244.JPG,ISIC_4139260.JPG,false,1,keypress(m),500,484470.5,484470.39999997616,481866.679,481871.8000000715,481877.179,484477.438,8,400,14,,ISIC_0070244.JPG
break,html.Screen,4_113_1,2023-10-31T02:47:26.163Z,,0,,,NaN,,,,,,false,,,,484471.10000002384,484471,,484470.60000002384,,484477.438,8,400,,,
break_continue,html.Screen,4_113_2,2023-10-31T02:47:26.163Z,,0,,,NaN,,,,,,false,,,,484471.3000000715,484471.3000000715,,484471.2000000477,,484477.438,8,400,,,
sequence,flow.Sequence,4_113,2023-10-31T02:47:26.163Z,,0,,,2594.121000071522,completion,,,,,false,,,,484471.39999997616,484471.3000000715,481866.679,481871.8000000715,481877.179,484477.438,8,400,,,
trial,html.Screen,4_114_0,2023-10-31T02:47:29.045Z,,0,3,,2875.5619999999763,response,ISIC_4614129.JPG,5,ISIC_4548632.JPG,ISIC_4548632.JPG,false,0,keypress(z),500,487353.10000002384,487353,484465.22,484471.39999997616,484477.438,487357.607,8,400,15,,ISIC_4614129.JPG
break,html.Screen,4_114_1,2023-10-31T02:47:29.046Z,,0,,,NaN,,,,,,false,,,,487354.3000000715,487354.10000002384,,487353.3000000715,,487357.607,8,400,,,
break_continue,html.Screen,4_114_2,2023-10-31T02:47:29.046Z,,0,,,NaN,,,,,,false,,,,487354.5,487354.5,,487354.39999997616,,487357.607,8,400,,,
sequence,flow.Sequence,4_114,2023-10-31T02:47:29.046Z,,0,,,2877.0619999999763,completion,,,,,false,,,,487354.7000000477,487354.5,484465.22,484471.39999997616,484477.438,487357.607,8,400,,,
trial,html.Screen,4_115_0,2023-10-31T02:47:32.088Z,,0,3,,3038.392999999982,response,ISIC_4723378.JPG,4,ISIC_8851038.JPG,ISIC_8851038.JPG,false,0,keypress(z),500,490396.2000000477,490396,487348.543,487354.7000000477,487357.607,490397.992,8,400,16,,ISIC_4723378.JPG
break,html.Screen,4_115_1,2023-10-31T02:47:32.088Z,,0,,,NaN,,,,,,false,,,,490396.7000000477,490396.60000002384,,490396.3000000715,,490397.992,8,400,,,
break_continue,html.Screen,4_115_2,2023-10-31T02:47:32.088Z,,0,,,NaN,,,,,,false,,,,490397,490396.89999997616,,490396.8000000715,,490397.992,8,400,,,
sequence,flow.Sequence,4_115,2023-10-31T02:47:32.089Z,,0,,,3039.29299997614,completion,,,,,false,,,,490397.10000002384,490396.89999997616,487348.543,487354.7000000477,487357.607,490397.992,8,400,,,
trial,html.Screen,4_116_0,2023-10-31T02:47:34.938Z,,0,3,,2848.6080000238144,response,ISIC_7400458.JPG,4,ISIC_0026150.JPG,ISIC_0026150.JPG,false,0,keypress(z),500,493246.89999997616,493246.60000002384,490396.012,490397.10000002384,490397.992,493253.804,8,400,17,,ISIC_7400458.JPG
break,html.Screen,4_116_1,2023-10-31T02:47:34.939Z,,0,,,NaN,,,,,,false,,,,493247.5,493247.39999997616,,493246.89999997616,,493253.804,8,400,,,
break_continue,html.Screen,4_116_2,2023-10-31T02:47:34.939Z,,0,,,NaN,,,,,,false,,,,493247.89999997616,493247.8000000715,,493247.7000000477,,493253.804,8,400,,,
sequence,flow.Sequence,4_116,2023-10-31T02:47:34.939Z,,0,,,2849.808000071498,completion,,,,,false,,,,493248,493247.8000000715,490396.012,490397.10000002384,490397.992,493253.804,8,400,,,
trial,html.Screen,4_117_0,2023-10-31T02:47:37.709Z,,0,3,,2763.1959999999963,response,ISIC_8796632.JPG,5,ISIC_0060219.JPG,ISIC_8796632.JPG,false,1,keypress(m),500,496017.2000000477,496017,493243.135,493248.10000002384,493253.804,496027.791,8,400,18,,ISIC_0060219.JPG
break,html.Screen,4_117_1,2023-10-31T02:47:37.709Z,,0,,,NaN,,,,,,false,,,,496017.8000000715,496017.7000000477,,496017.39999997616,,496027.791,8,400,,,
break_continue,html.Screen,4_117_2,2023-10-31T02:47:37.709Z,,0,,,NaN,,,,,,false,,,,496018,496018,,496017.89999997616,,496027.791,8,400,,,
sequence,flow.Sequence,4_117,2023-10-31T02:47:37.709Z,,0,,,2764.1959999999963,completion,,,,,false,,,,496018.10000002384,496018,493243.135,493248.10000002384,493253.804,496027.791,8,400,,,
trial,html.Screen,4_118_0,2023-10-31T02:47:40.687Z,,0,3,,2967.2089999999735,response,ISIC_0001151.JPG,5,ISIC_4810500.JPG,ISIC_0001151.JPG,false,1,keypress(m),500,498995.10000002384,498995,496018.471,496018.10000002384,496027.791,499004.495,8,400,19,,ISIC_4810500.JPG
break,html.Screen,4_118_1,2023-10-31T02:47:40.687Z,,0,,,NaN,,,,,,false,,,,498995.8000000715,498995.7000000477,,498995.3000000715,,499004.495,8,400,,,
break_continue,html.Screen,4_118_2,2023-10-31T02:47:40.687Z,,0,,,NaN,,,,,,false,,,,498995.89999997616,498995.89999997616,,498995.89999997616,,499004.495,8,400,,,
sequence,flow.Sequence,4_118,2023-10-31T02:47:40.687Z,,0,,,2968.1089999761316,completion,,,,,false,,,,498996,498995.89999997616,496018.471,496018.10000002384,496027.791,499004.495,8,400,,,
trial,html.Screen,4_119_0,2023-10-31T02:47:43.281Z,,0,3,,2585.404999976163,response,ISIC_0485529.JPG,5,ISIC_0032369.JPG,ISIC_0485529.JPG,false,1,keypress(m),500,501590,501589.89999997616,498994.511,498996.10000002384,499004.495,501593.204,8,400,20,,ISIC_0032369.JPG
break,html.Screen,4_119_1,2023-10-31T02:47:43.282Z,,0,,,NaN,,,,,,false,,,,501590.8000000715,501590.60000002384,,501590.2000000477,,501593.204,8,400,,,
break_continue,html.Screen,4_119_2,2023-10-31T02:47:43.282Z,,0,,,NaN,,,,,,false,,,,501591,501590.89999997616,,501590.8000000715,,501593.204,8,400,,,
sequence,flow.Sequence,4_119,2023-10-31T02:47:43.283Z,,0,,,2586.404999976163,completion,,,,,false,,,,501591.2000000477,501590.89999997616,498994.511,498996,499004.495,501593.204,8,400,,,
trial,html.Screen,4_120_0,2023-10-31T02:47:45.908Z,,0,3,,2623.295999999973,response,ISIC_3413138.JPG,5,ISIC_9555291.JPG,ISIC_9555291.JPG,false,0,keypress(z),500,504216.60000002384,504216.5,501587.076,501591.2000000477,501593.204,504219.985,8,400,21,,ISIC_3413138.JPG
break,html.Screen,4_120_1,2023-10-31T02:47:45.909Z,,0,,,NaN,,,,,,false,,,,504217.5,504217.3000000715,,504216.7000000477,,504219.985,8,400,,,
break_continue,html.Screen,4_120_2,2023-10-31T02:47:45.909Z,,0,,,NaN,,,,,,false,,,,504217.60000002384,504217.60000002384,,504217.60000002384,,504219.985,8,400,,,
sequence,flow.Sequence,4_120,2023-10-31T02:47:45.909Z,,0,,,2624.396000023815,completion,,,,,false,,,,504217.7000000477,504217.60000002384,501587.076,501591.2000000477,501593.204,504219.985,8,400,,,
trial,html.Screen,4_121_0,2023-10-31T02:47:49.158Z,,0,3,,3246.8150000715395,response,ISIC_9052500.JPG,4,ISIC_0031863.JPG,ISIC_9052500.JPG,false,1,keypress(m),500,507467,507466.8000000715,504216.196,504217.8000000715,504219.985,507475.658,8,400,22,,ISIC_0031863.JPG
break,html.Screen,4_121_1,2023-10-31T02:47:49.159Z,,0,,,NaN,,,,,,false,,,,507467.60000002384,507467.5,,507467.10000002384,,507475.658,8,400,,,
break_continue,html.Screen,4_121_2,2023-10-31T02:47:49.159Z,,0,,,NaN,,,,,,false,,,,507468,507468,,507467.8000000715,,507475.658,8,400,,,
sequence,flow.Sequence,4_121,2023-10-31T02:47:49.160Z,,0,,,3248.015000000014,completion,,,,,false,,,,507468.10000002384,507468,504216.196,504217.8000000715,504219.985,507475.658,8,400,,,
trial,html.Screen,4_122_0,2023-10-31T02:47:51.769Z,,0,3,,2601.6420000715298,response,ISIC_5588968.JPG,4,ISIC_2146346.JPG,ISIC_5588968.JPG,false,1,keypress(m),500,510077.39999997616,510077.3000000715,507464.716,507468.2000000477,507475.658,510083.39,8,400,23,,ISIC_2146346.JPG
break,html.Screen,4_122_1,2023-10-31T02:47:51.769Z,,0,,,NaN,,,,,,false,,,,510078.10000002384,510077.89999997616,,510077.60000002384,,510083.39,8,400,,,
break_continue,html.Screen,4_122_2,2023-10-31T02:47:51.770Z,,0,,,NaN,,,,,,false,,,,510078.60000002384,510078.39999997616,,510078.3000000715,,510083.39,8,400,,,
sequence,flow.Sequence,4_122,2023-10-31T02:47:51.770Z,,0,,,2602.7419999761623,completion,,,,,false,,,,510078.8000000715,510078.39999997616,507464.716,507468.2000000477,507475.658,510083.39,8,400,,,
trial,html.Screen,4_123_0,2023-10-31T02:47:54.395Z,,0,3,,2620.4100000715116,response,ISIC_0072631.JPG,4,ISIC_7694069.JPG,ISIC_7694069.JPG,false,0,keypress(z),500,512704.10000002384,512703.8000000715,510077.132,510078.89999997616,510083.39,512710.166,8,400,24,,ISIC_0072631.JPG
break,html.Screen,4_123_1,2023-10-31T02:47:54.396Z,,0,,,NaN,,,,,,false,,,,512704.7000000477,512704.5,,512704.10000002384,,512710.166,8,400,,,
break_continue,html.Screen,4_123_2,2023-10-31T02:47:54.396Z,,0,,,NaN,,,,,,false,,,,512704.89999997616,512704.89999997616,,512704.8000000715,,512710.166,8,400,,,
sequence,flow.Sequence,4_123,2023-10-31T02:47:54.397Z,,0,,,2621.509999976144,completion,,,,,false,,,,512705.10000002384,512704.89999997616,510077.132,510078.8000000715,510083.39,512710.166,8,400,,,
trial,html.Screen,4_124_0,2023-10-31T02:47:57.054Z,,0,3,,2652.4340000238153,response,ISIC_0030817.JPG,5,ISIC_0000419.JPG,ISIC_0000419.JPG,false,0,keypress(z),500,515362.8000000715,515362.60000002384,512701.151,512705.2000000477,512710.166,515368.623,8,400,25,,ISIC_0030817.JPG
break,html.Screen,4_124_1,2023-10-31T02:47:57.055Z,,0,,,NaN,,,,,,false,,,,515363.3000000715,515363.2000000477,,515362.89999997616,,515368.623,8,400,,,
break_continue,html.Screen,4_124_2,2023-10-31T02:47:57.055Z,,0,,,NaN,,,,,,false,,,,515363.5,515363.39999997616,,515363.39999997616,,515368.623,8,400,,,
sequence,flow.Sequence,4_124,2023-10-31T02:47:57.055Z,,0,,,2653.2339999761316,completion,,,,,false,,,,515363.60000002384,515363.39999997616,512701.151,512705.10000002384,512710.166,515368.623,8,400,,,
