sender,sender_type,sender_id,timestamp,meta,,blockNo,condition,duration,ended_on,img_left,img_reveal,img_right,loser,practice,response,response_action,selection_duration,time_commit,time_end,time_render,time_run,time_show,time_switch,total_blocks,total_trials,trialNo,url,winner
informed_consent,html.Screen,0,2023-09-16T23:08:06.026Z,"{""labjs_version"":""20.2.4"",""labjs_build"":{""flavor"":""production"",""commit"":""f5b4a49f956347addd546a832a3327688c2c0fef""},""location"":""https://run.pavlovia.org/MurrayBennett/melanoma-2afc/?participant=66307&platform=sona"",""userAgent"":""Mozilla/5.0 (Macintosh; Intel Mac OS X 10_15_7) AppleWebKit/537.36 (KHTML, like Gecko) Chrome/116.0.0.0 Safari/537.36"",""platform"":""MacIntel"",""language"":""en-US"",""locale"":""en-US"",""timeZone"":""America/Chicago"",""timezoneOffset"":300,""screen_width"":1280,""screen_height"":800,""scroll_width"":1280,""scroll_height"":635,""window_innerWidth"":1280,""window_innerHeight"":683,""devicePixelRatio"":2}",,,,21468.32899999106,response,,,,,,consent,click button,,23622,23604.89999999106,2119.898,2118.7999999970198,2136.571,23661.73,,,,"{""participant"":""66307"",""platform"":""sona""}",
Welcome,html.Screen,1,2023-09-16T23:08:39.366Z,,,,symmetry,33283.36999999404,response,,,,,,continue,click button,,56962.29999999702,56945.09999999404,23611.711,23622.39999999106,23661.73,56974.741,,,,,
trial,html.Screen,2_0_0,2023-09-16T23:08:44.431Z,,0,0,,5052.058999997018,response,ISIC_0069348.JPG,,ISIC_6997061.JPG,ISIC_0069348.JPG,true,1,keypress(m),500,62027.09999999404,62026.79999999702,56958.068,56962.70000000298,56974.741,62043.464,1,6,1,,ISIC_6997061.JPG
sequence,flow.Sequence,2_0,2023-09-16T23:08:44.432Z,,0,,,5052.058999997018,completion,,,,,true,,,,62027.70000000298,62026.79999999702,56958.068,56962.70000000298,56974.741,62043.464,1,6,,,
trial,html.Screen,2_1_0,2023-09-16T23:08:49.635Z,,0,0,,5187.435999991059,response,ISIC_0009529.JPG,,ISIC_0057368.JPG,ISIC_0057368.JPG,true,0,keypress(z),500,67231.09999999404,67230.89999999106,62026.791,62027.89999999106,62043.464,67245.44,1,6,2,,ISIC_0009529.JPG
sequence,flow.Sequence,2_1,2023-09-16T23:08:49.635Z,,0,,,5187.435999991059,completion,,,,,true,,,,67231.39999999106,67230.89999999106,62026.791,62027.89999999106,62043.464,67245.44,1,6,,,
trial,html.Screen,2_2_0,2023-09-16T23:08:54.944Z,,0,0,,5293.959999991057,response,ISIC_9758671.JPG,,ISIC_0064954.JPG,ISIC_9758671.JPG,true,1,keypress(m),500,72539.70000000298,72539.39999999106,67228.767,67231.70000000298,67245.44,72547.578,1,6,3,,ISIC_0064954.JPG
sequence,flow.Sequence,2_2,2023-09-16T23:08:54.944Z,,0,,,5293.959999991057,completion,,,,,true,,,,72540.09999999404,72539.39999999106,67228.767,67231.59999999404,67245.44,72547.578,1,6,,,
trial,html.Screen,2_3_0,2023-09-16T23:08:58.530Z,,0,0,,3578.0219999940455,response,ISIC_0005785.JPG,,ISIC_0000080.JPG,ISIC_0005785.JPG,true,1,keypress(m),500,76125.89999999106,76125.59999999404,72530.905,72540.20000000298,72547.578,76132.273,1,6,4,,ISIC_0000080.JPG
sequence,flow.Sequence,2_3,2023-09-16T23:08:58.530Z,,0,,,3578.0219999940455,completion,,,,,true,,,,76126.39999999106,76125.59999999404,72530.905,72540.20000000298,72547.578,76132.273,1,6,,,
trial,html.Screen,2_4_0,2023-09-16T23:09:02.197Z,,0,0,,3660.6269999910583,response,ISIC_5390060.JPG,,ISIC_7944028.JPG,ISIC_5390060.JPG,true,1,keypress(m),500,79793.20000000298,79792.89999999106,76115.6,76126.59999999404,76132.273,79800.333,1,6,5,,ISIC_7944028.JPG
sequence,flow.Sequence,2_4,2023-09-16T23:09:02.197Z,,0,,,3660.6269999910583,completion,,,,,true,,,,79793.59999999404,79792.89999999106,76115.6,76126.5,76132.273,79800.333,1,6,,,
trial,html.Screen,2_5_0,2023-09-16T23:09:05.562Z,,0,0,,3357.266999994041,response,ISIC_0010188.JPG,,ISIC_0794216.JPG,ISIC_0010188.JPG,true,1,keypress(m),500,83157.89999999106,83157.59999999404,79783.66,79793.70000000298,79800.333,83168.403,1,6,6,,ISIC_0794216.JPG
sequence,flow.Sequence,2_5,2023-09-16T23:09:05.562Z,,0,,,3357.266999994041,completion,,,,,true,,,,83158.29999999702,83157.59999999404,79783.66,79793.70000000298,79800.333,83168.403,1,6,,,
loop,flow.Loop,2,2023-09-16T23:09:05.562Z,,,,,26182.858999994038,completion,,,,,true,,,,83158.5,83157.59999999404,56958.068,56962.59999999404,56974.741,83168.403,1,6,,,
exp_instructions,html.Screen,3,2023-09-16T23:09:14.010Z,,,,,8429.797000002975,response,,,,,,continue,keypress(Space),,91606.70000000298,91598.20000000298,83151.73,83158.59999999404,83168.403,91621.614,,,,,
trial,html.Screen,4_0_0,2023-09-16T23:09:17.870Z,,0,1,,3844.8859999999986,response,ISIC_0034304.JPG,6,ISIC_3190566.JPG,ISIC_0034304.JPG,false,1,keypress(m),500,95466.70000000298,95466.5,91604.941,91606.79999999702,91621.614,95473.2,8,400,1,,ISIC_3190566.JPG
break,html.Screen,4_0_1,2023-09-16T23:09:17.871Z,,0,,,NaN,,,,,,false,,,,95467.70000000298,95467.5,,95466.89999999106,,95473.2,8,400,,,
break_continue,html.Screen,4_0_2,2023-09-16T23:09:17.872Z,,0,,,NaN,,,,,,false,,,,95468.20000000298,95468.09999999404,,95467.89999999106,,95473.2,8,400,,,
sequence,flow.Sequence,4_0,2023-09-16T23:09:17.872Z,,0,,,3846.485999994038,completion,,,,,false,,,,95468.39999999106,95468.09999999404,91604.941,91606.79999999702,91621.614,95473.2,8,400,,,
trial,html.Screen,4_1_0,2023-09-16T23:09:21.940Z,,0,1,,4062.3999999940424,response,ISIC_2198823.JPG,6,ISIC_0031368.JPG,ISIC_0031368.JPG,false,0,keypress(z),500,99535.89999999106,99535.59999999404,95456.527,95468.5,95473.2,99541.412,8,400,2,,ISIC_2198823.JPG
break,html.Screen,4_1_1,2023-09-16T23:09:21.940Z,,0,,,NaN,,,,,,false,,,,99536.79999999702,99536.39999999106,,99536.09999999404,,99541.412,8,400,,,
break_continue,html.Screen,4_1_2,2023-09-16T23:09:21.941Z,,0,,,NaN,,,,,,false,,,,99537.09999999404,99537,,99536.89999999106,,99541.412,8,400,,,
sequence,flow.Sequence,4_1,2023-09-16T23:09:21.941Z,,0,,,4063.800000000003,completion,,,,,false,,,,99537.20000000298,99537,95456.527,95468.5,95473.2,99541.412,8,400,,,
trial,html.Screen,4_2_0,2023-09-16T23:09:26.728Z,,0,1,,4782.687999994043,response,ISIC_0030440.JPG,6,ISIC_0010597.JPG,ISIC_0030440.JPG,false,1,keypress(m),500,104324.29999999702,104324.09999999404,99524.739,99537.39999999106,99541.412,104326.689,8,400,3,,ISIC_0010597.JPG
break,html.Screen,4_2_1,2023-09-16T23:09:26.729Z,,0,,,NaN,,,,,,false,,,,104325.20000000298,104325,,104324.5,,104326.689,8,400,,,
break_continue,html.Screen,4_2_2,2023-09-16T23:09:26.729Z,,0,,,NaN,,,,,,false,,,,104325.59999999404,104325.5,,104325.29999999702,,104326.689,8,400,,,
sequence,flow.Sequence,4_2,2023-09-16T23:09:26.729Z,,0,,,4784.088000000003,completion,,,,,false,,,,104325.70000000298,104325.5,99524.739,99537.29999999702,99541.412,104326.689,8,400,,,
trial,html.Screen,4_3_0,2023-09-16T23:09:34.895Z,,0,1,,8164.011000002982,response,ISIC_0029106.JPG,8,ISIC_0015167.JPG,ISIC_0015167.JPG,false,0,keypress(z),500,112491,112490.70000000298,104310.016,104325.89999999106,104326.689,112496.459,8,400,4,,ISIC_0029106.JPG
break,html.Screen,4_3_1,2023-09-16T23:09:34.895Z,,0,,,NaN,,,,,,false,,,,112491.89999999106,112491.70000000298,,112491.29999999702,,112496.459,8,400,,,
break_continue,html.Screen,4_3_2,2023-09-16T23:09:34.896Z,,0,,,NaN,,,,,,false,,,,112492.29999999702,112492.20000000298,,112492.09999999404,,112496.459,8,400,,,
sequence,flow.Sequence,4_3,2023-09-16T23:09:34.896Z,,0,,,8165.511000002982,completion,,,,,false,,,,112492.59999999404,112492.20000000298,104310.016,104325.89999999106,104326.689,112496.459,8,400,,,
trial,html.Screen,4_4_0,2023-09-16T23:09:40.261Z,,0,1,,5361.241000002978,response,ISIC_0057487.JPG,6,ISIC_4780541.JPG,ISIC_0057487.JPG,false,1,keypress(m),500,117857.89999999106,117857.70000000298,112479.786,112492.70000000298,112496.459,117865.285,8,400,5,,ISIC_4780541.JPG
break,html.Screen,4_4_1,2023-09-16T23:09:40.262Z,,0,,,NaN,,,,,,false,,,,117858.79999999702,117858.59999999404,,117858.20000000298,,117865.285,8,400,,,
break_continue,html.Screen,4_4_2,2023-09-16T23:09:40.263Z,,0,,,NaN,,,,,,false,,,,117859.29999999702,117859.09999999404,,117859,,117865.285,8,400,,,
sequence,flow.Sequence,4_4,2023-09-16T23:09:40.263Z,,0,,,5362.640999994037,completion,,,,,false,,,,117859.39999999106,117859.09999999404,112479.786,112492.59999999404,112496.459,117865.285,8,400,,,
trial,html.Screen,4_5_0,2023-09-16T23:09:46.862Z,,0,1,,6592.814999994036,response,ISIC_8584748.JPG,5,ISIC_1020369.JPG,ISIC_8584748.JPG,false,1,keypress(m),500,124458.29999999702,124458.09999999404,117848.612,117859.5,117865.285,124467.793,8,400,6,,ISIC_1020369.JPG
break,html.Screen,4_5_1,2023-09-16T23:09:46.862Z,,0,,,NaN,,,,,,false,,,,124458.79999999702,124458.70000000298,,124458.5,,124467.793,8,400,,,
break_continue,html.Screen,4_5_2,2023-09-16T23:09:46.863Z,,0,,,NaN,,,,,,false,,,,124459,124459,,124458.89999999106,,124467.793,8,400,,,
sequence,flow.Sequence,4_5,2023-09-16T23:09:46.863Z,,0,,,6593.7149999999965,completion,,,,,false,,,,124459.20000000298,124459,117848.612,117859.5,117865.285,124467.793,8,400,,,
trial,html.Screen,4_6_0,2023-09-16T23:09:52.176Z,,0,1,,5304.706999999995,response,ISIC_8535134.JPG,5,ISIC_7519557.JPG,ISIC_7519557.JPG,false,0,keypress(z),500,129772.70000000298,129772.5,124451.12,124459.29999999702,124467.793,129786.603,8,400,7,,ISIC_8535134.JPG
break,html.Screen,4_6_1,2023-09-16T23:09:52.177Z,,0,,,NaN,,,,,,false,,,,129773.09999999404,129773,,129772.70000000298,,129786.603,8,400,,,
break_continue,html.Screen,4_6_2,2023-09-16T23:09:52.177Z,,0,,,NaN,,,,,,false,,,,129773.20000000298,129773.20000000298,,129773.20000000298,,129786.603,8,400,,,
sequence,flow.Sequence,4_6,2023-09-16T23:09:52.177Z,,0,,,5305.407000002975,completion,,,,,false,,,,129773.29999999702,129773.20000000298,124451.12,124459.29999999702,124467.793,129786.603,8,400,,,
trial,html.Screen,4_7_0,2023-09-16T23:09:56.662Z,,0,1,,4471.2969999910565,response,ISIC_0014217.JPG,6,ISIC_9571842.JPG,ISIC_9571842.JPG,false,0,keypress(z),500,134258.5,134257.89999999106,129769.93,129773.39999999106,129786.603,134271.64,8,400,8,,ISIC_0014217.JPG
break,html.Screen,4_7_1,2023-09-16T23:09:56.663Z,,0,,,NaN,,,,,,false,,,,134259.09999999404,134259,,134258.70000000298,,134271.64,8,400,,,
break_continue,html.Screen,4_7_2,2023-09-16T23:09:56.663Z,,0,,,NaN,,,,,,false,,,,134259.29999999702,134259.20000000298,,134259.20000000298,,134271.64,8,400,,,
sequence,flow.Sequence,4_7,2023-09-16T23:09:56.663Z,,0,,,4472.597000002977,completion,,,,,false,,,,134259.39999999106,134259.20000000298,129769.93,129773.39999999106,129786.603,134271.64,8,400,,,
trial,html.Screen,4_8_0,2023-09-16T23:10:01.257Z,,0,1,,4582.060000002966,response,ISIC_0034316.JPG,5,ISIC_7409889.JPG,ISIC_0034316.JPG,false,1,keypress(m),500,138854.09999999404,138853.70000000298,134254.967,134259.39999999106,134271.64,138856.842,8,400,9,,ISIC_7409889.JPG
break,html.Screen,4_8_1,2023-09-16T23:10:01.258Z,,0,,,NaN,,,,,,false,,,,138855,138854.70000000298,,138854.39999999106,,138856.842,8,400,,,
break_continue,html.Screen,4_8_2,2023-09-16T23:10:01.259Z,,0,,,NaN,,,,,,false,,,,138855.39999999106,138855.20000000298,,138855.20000000298,,138856.842,8,400,,,
sequence,flow.Sequence,4_8,2023-09-16T23:10:01.259Z,,0,,,4583.560000002966,completion,,,,,false,,,,138855.59999999404,138855.20000000298,134254.967,134259.39999999106,134271.64,138856.842,8,400,,,
trial,html.Screen,4_9_0,2023-09-16T23:10:06.503Z,,0,1,,5242.457999997016,response,ISIC_7798358.JPG,6,ISIC_0026244.JPG,ISIC_0026244.JPG,false,0,keypress(z),500,144099.5,144099.29999999702,138840.169,138855.70000000298,138856.842,144108.837,8,400,10,,ISIC_7798358.JPG
break,html.Screen,4_9_1,2023-09-16T23:10:06.503Z,,0,,,NaN,,,,,,false,,,,144099.89999999106,144099.79999999702,,144099.59999999404,,144108.837,8,400,,,
break_continue,html.Screen,4_9_2,2023-09-16T23:10:06.503Z,,0,,,NaN,,,,,,false,,,,144100.09999999404,144100,,144100,,144108.837,8,400,,,
sequence,flow.Sequence,4_9,2023-09-16T23:10:06.504Z,,0,,,5243.157999999996,completion,,,,,false,,,,144100.09999999404,144100,138840.169,138855.70000000298,138856.842,144108.837,8,400,,,
trial,html.Screen,4_10_0,2023-09-16T23:10:09.881Z,,0,1,,3368.9629999970202,response,ISIC_3809998.JPG,5,ISIC_1937197.JPG,ISIC_1937197.JPG,false,0,keypress(z),500,147477.79999999702,147477.79999999702,144092.164,144100.20000000298,144108.837,147493.577,8,400,11,,ISIC_3809998.JPG
break,html.Screen,4_10_1,2023-09-16T23:10:09.882Z,,0,,,NaN,,,,,,false,,,,147478.29999999702,147478.20000000298,,147478,,147493.577,8,400,,,
break_continue,html.Screen,4_10_2,2023-09-16T23:10:09.882Z,,0,,,NaN,,,,,,false,,,,147478.39999999106,147478.39999999106,,147478.29999999702,,147493.577,8,400,,,
sequence,flow.Sequence,4_10,2023-09-16T23:10:09.882Z,,0,,,3369.5629999910598,completion,,,,,false,,,,147478.5,147478.39999999106,144092.164,144100.20000000298,144108.837,147493.577,8,400,,,
trial,html.Screen,4_11_0,2023-09-16T23:10:13.629Z,,0,1,,3731.822999991069,response,ISIC_5961333.JPG,9,ISIC_0034317.JPG,ISIC_5961333.JPG,false,1,keypress(m),500,151225.59999999404,151225.39999999106,147476.904,147478.59999999404,147493.577,151228.329,8,400,12,,ISIC_0034317.JPG
break,html.Screen,4_11_1,2023-09-16T23:10:13.629Z,,0,,,NaN,,,,,,false,,,,151226.09999999404,151226,,151225.70000000298,,151228.329,8,400,,,
break_continue,html.Screen,4_11_2,2023-09-16T23:10:13.630Z,,0,,,NaN,,,,,,false,,,,151226.29999999702,151226.20000000298,,151226.20000000298,,151228.329,8,400,,,
sequence,flow.Sequence,4_11,2023-09-16T23:10:13.630Z,,0,,,3732.62300000299,completion,,,,,false,,,,151226.39999999106,151226.20000000298,147476.904,147478.5,147493.577,151228.329,8,400,,,
trial,html.Screen,4_12_0,2023-09-16T23:10:17.763Z,,0,1,,4131.070999991061,response,ISIC_0001118.JPG,6,ISIC_8077943.JPG,ISIC_0001118.JPG,false,1,keypress(m),500,155359.59999999404,155359.39999999106,151211.656,151226.5,151228.329,155363.233,8,400,13,,ISIC_8077943.JPG
break,html.Screen,4_12_1,2023-09-16T23:10:17.763Z,,0,,,NaN,,,,,,false,,,,155360,155359.89999999106,,155359.70000000298,,155363.233,8,400,,,
break_continue,html.Screen,4_12_2,2023-09-16T23:10:17.764Z,,0,,,NaN,,,,,,false,,,,155360.20000000298,155360.09999999404,,155360,,155363.233,8,400,,,
sequence,flow.Sequence,4_12,2023-09-16T23:10:17.764Z,,0,,,4131.770999994042,completion,,,,,false,,,,155360.29999999702,155360.09999999404,151211.656,151226.5,151228.329,155363.233,8,400,,,
trial,html.Screen,4_13_0,2023-09-16T23:10:21.950Z,,0,1,,4183.566999997012,response,ISIC_6559840.JPG,9,ISIC_1851605.JPG,ISIC_1851605.JPG,false,0,keypress(z),500,159547,159546.79999999702,155346.56,155360.39999999106,155363.233,159548.283,8,400,14,,ISIC_6559840.JPG
break,html.Screen,4_13_1,2023-09-16T23:10:21.951Z,,0,,,NaN,,,,,,false,,,,159547.39999999106,159547.29999999702,,159547.09999999404,,159548.283,8,400,,,
break_continue,html.Screen,4_13_2,2023-09-16T23:10:21.951Z,,0,,,NaN,,,,,,false,,,,159547.70000000298,159547.59999999404,,159547.59999999404,,159548.283,8,400,,,
sequence,flow.Sequence,4_13,2023-09-16T23:10:21.951Z,,0,,,4184.366999994032,completion,,,,,false,,,,159547.70000000298,159547.59999999404,155346.56,155360.39999999106,155363.233,159548.283,8,400,,,
trial,html.Screen,4_14_0,2023-09-16T23:10:26.085Z,,0,1,,4133.516999997024,response,ISIC_0060937.JPG,8,ISIC_0071289.JPG,ISIC_0071289.JPG,false,0,keypress(z),500,163682,163681.79999999702,159531.61,159547.79999999702,159548.283,163683.187,8,400,15,,ISIC_0060937.JPG
break,html.Screen,4_14_1,2023-09-16T23:10:26.086Z,,0,,,NaN,,,,,,false,,,,163682.5,163682.39999999106,,163682.09999999404,,163683.187,8,400,,,
break_continue,html.Screen,4_14_2,2023-09-16T23:10:26.086Z,,0,,,NaN,,,,,,false,,,,163682.70000000298,163682.59999999404,,163682.59999999404,,163683.187,8,400,,,
sequence,flow.Sequence,4_14,2023-09-16T23:10:26.086Z,,0,,,4134.316999994044,completion,,,,,false,,,,163682.79999999702,163682.59999999404,159531.61,159547.79999999702,159548.283,163683.187,8,400,,,
trial,html.Screen,4_15_0,2023-09-16T23:10:32.538Z,,0,1,,6451.412999994034,response,ISIC_0026692.JPG,7,ISIC_0026009.JPG,ISIC_0026009.JPG,false,0,keypress(z),500,170134.79999999702,170134.59999999404,163666.514,163682.79999999702,163683.187,170135.791,8,400,16,,ISIC_0026692.JPG
break,html.Screen,4_15_1,2023-09-16T23:10:32.538Z,,0,,,NaN,,,,,,false,,,,170135.20000000298,170135.20000000298,,170134.89999999106,,170135.791,8,400,,,
break_continue,html.Screen,4_15_2,2023-09-16T23:10:32.539Z,,0,,,NaN,,,,,,false,,,,170135.5,170135.39999999106,,170135.29999999702,,170135.791,8,400,,,
sequence,flow.Sequence,4_15,2023-09-16T23:10:32.539Z,,0,,,6452.212999991054,completion,,,,,false,,,,170135.59999999404,170135.39999999106,163666.514,163682.79999999702,163683.187,170135.791,8,400,,,
trial,html.Screen,4_16_0,2023-09-16T23:10:35.725Z,,0,1,,3185.909000002983,response,ISIC_3123377.JPG,8,ISIC_0060266.JPG,ISIC_0060266.JPG,false,0,keypress(z),500,173321.79999999702,173321.70000000298,170119.118,170135.59999999404,170135.791,173337.007,8,400,17,,ISIC_3123377.JPG
break,html.Screen,4_16_1,2023-09-16T23:10:35.725Z,,0,,,NaN,,,,,,false,,,,173322.29999999702,173322.09999999404,,173321.89999999106,,173337.007,8,400,,,
break_continue,html.Screen,4_16_2,2023-09-16T23:10:35.726Z,,0,,,NaN,,,,,,false,,,,173322.5,173322.39999999106,,173322.39999999106,,173337.007,8,400,,,
sequence,flow.Sequence,4_16,2023-09-16T23:10:35.726Z,,0,,,3186.608999991062,completion,,,,,false,,,,173322.59999999404,173322.39999999106,170119.118,170135.59999999404,170135.791,173337.007,8,400,,,
trial,html.Screen,4_17_0,2023-09-16T23:10:39.216Z,,0,1,,3475.392999991047,response,ISIC_0026518.JPG,6,ISIC_0026081.JPG,ISIC_0026081.JPG,false,0,keypress(z),500,176812.5,176812.39999999106,173320.334,173322.59999999404,173337.007,176821.664,8,400,18,,ISIC_0026518.JPG
break,html.Screen,4_17_1,2023-09-16T23:10:39.216Z,,0,,,NaN,,,,,,false,,,,176812.89999999106,176812.79999999702,,176812.59999999404,,176821.664,8,400,,,
break_continue,html.Screen,4_17_2,2023-09-16T23:10:39.216Z,,0,,,NaN,,,,,,false,,,,176813.09999999404,176813.09999999404,,176813,,176821.664,8,400,,,
sequence,flow.Sequence,4_17,2023-09-16T23:10:39.216Z,,0,,,3476.092999994027,completion,,,,,false,,,,176813.20000000298,176813.09999999404,173320.334,173322.59999999404,173337.007,176821.664,8,400,,,
trial,html.Screen,4_18_0,2023-09-16T23:10:43.475Z,,0,1,,4250.33600000001,response,ISIC_0032490.JPG,5,ISIC_6373689.JPG,ISIC_0032490.JPG,false,1,keypress(m),500,181072.20000000298,181072,176804.991,176813.29999999702,176821.664,181073.403,8,400,19,,ISIC_6373689.JPG
break,html.Screen,4_18_1,2023-09-16T23:10:43.476Z,,0,,,NaN,,,,,,false,,,,181072.89999999106,181072.70000000298,,181072.5,,181073.403,8,400,,,
break_continue,html.Screen,4_18_2,2023-09-16T23:10:43.476Z,,0,,,NaN,,,,,,false,,,,181073.20000000298,181073.09999999404,,181073,,181073.403,8,400,,,
sequence,flow.Sequence,4_18,2023-09-16T23:10:43.477Z,,0,,,4251.43599999405,completion,,,,,false,,,,181073.5,181073.09999999404,176804.991,176813.20000000298,176821.664,181073.403,8,400,,,
trial,html.Screen,4_19_0,2023-09-16T23:10:48.894Z,,0,1,,5417.196999994048,response,ISIC_2638895.JPG,8,ISIC_0525687.JPG,ISIC_0525687.JPG,false,0,keypress(z),500,186490.79999999702,186490.59999999404,181056.73,181073.70000000298,181073.403,186492.128,8,400,20,,ISIC_2638895.JPG
break,html.Screen,4_19_1,2023-09-16T23:10:48.895Z,,0,,,NaN,,,,,,false,,,,186491.70000000298,186491.39999999106,,186491.09999999404,,186492.128,8,400,,,
break_continue,html.Screen,4_19_2,2023-09-16T23:10:48.895Z,,0,,,NaN,,,,,,false,,,,186492,186491.89999999106,,186491.79999999702,,186492.128,8,400,,,
sequence,flow.Sequence,4_19,2023-09-16T23:10:48.895Z,,0,,,5418.496999991068,completion,,,,,false,,,,186492.20000000298,186491.89999999106,181056.73,181073.59999999404,181073.403,186492.128,8,400,,,
trial,html.Screen,4_20_0,2023-09-16T23:10:54.401Z,,0,1,,5505.671999997023,response,ISIC_0280912.JPG,5,ISIC_0026552.JPG,ISIC_0280912.JPG,false,1,keypress(m),500,191998,191997.79999999702,186475.455,186492.39999999106,186492.128,192011.02,8,400,21,,ISIC_0026552.JPG
break,html.Screen,4_20_1,2023-09-16T23:10:54.402Z,,0,,,NaN,,,,,,false,,,,191998.5,191998.29999999702,,191998.09999999404,,192011.02,8,400,,,
break_continue,html.Screen,4_20_2,2023-09-16T23:10:54.402Z,,0,,,NaN,,,,,,false,,,,191998.70000000298,191998.59999999404,,191998.5,,192011.02,8,400,,,
sequence,flow.Sequence,4_20,2023-09-16T23:10:54.402Z,,0,,,5506.471999994043,completion,,,,,false,,,,191998.79999999702,191998.59999999404,186475.455,186492.39999999106,186492.128,192011.02,8,400,,,
trial,html.Screen,4_21_0,2023-09-16T23:10:58.822Z,,0,1,,4407.37999999107,response,ISIC_6463417.JPG,8,ISIC_0027056.JPG,ISIC_0027056.JPG,false,0,keypress(z),500,196418.59999999404,196418.39999999106,191994.347,191998.89999999106,192011.02,196446.038,8,400,22,,ISIC_6463417.JPG
break,html.Screen,4_21_1,2023-09-16T23:10:58.822Z,,0,,,NaN,,,,,,false,,,,196419.39999999106,196419.09999999404,,196418.79999999702,,196446.038,8,400,,,
break_continue,html.Screen,4_21_2,2023-09-16T23:10:58.823Z,,0,,,NaN,,,,,,false,,,,196419.79999999702,196419.59999999404,,196419.5,,196446.038,8,400,,,
sequence,flow.Sequence,4_21,2023-09-16T23:10:58.823Z,,0,,,4408.57999999405,completion,,,,,false,,,,196420,196419.59999999404,191994.347,191998.89999999106,192011.02,196446.038,8,400,,,
trial,html.Screen,4_22_0,2023-09-16T23:11:02.682Z,,0,1,,3832.6620000029798,response,ISIC_4332846.JPG,8,ISIC_0000024.JPG,ISIC_0000024.JPG,false,0,keypress(z),500,200279,200278.70000000298,196429.365,196420.09999999404,196446.038,200280.828,8,400,23,,ISIC_4332846.JPG
break,html.Screen,4_22_1,2023-09-16T23:11:02.683Z,,0,,,NaN,,,,,,false,,,,200279.79999999702,200279.59999999404,,200279.20000000298,,200280.828,8,400,,,
break_continue,html.Screen,4_22_2,2023-09-16T23:11:02.683Z,,0,,,NaN,,,,,,false,,,,200280.20000000298,200280.09999999404,,200280,,200280.828,8,400,,,
sequence,flow.Sequence,4_22,2023-09-16T23:11:02.683Z,,0,,,3834.061999994039,completion,,,,,false,,,,200280.39999999106,200280.09999999404,196429.365,196420.09999999404,196446.038,200280.828,8,400,,,
trial,html.Screen,4_23_0,2023-09-16T23:11:08.209Z,,0,1,,5524.671999999991,response,ISIC_3009564.JPG,8,ISIC_0033304.JPG,ISIC_3009564.JPG,false,1,keypress(m),500,205805.79999999702,205805.5,200264.155,200280.5,200280.828,205816.386,8,400,24,,ISIC_0033304.JPG
break,html.Screen,4_23_1,2023-09-16T23:11:08.210Z,,0,,,NaN,,,,,,false,,,,205806.70000000298,205806.5,,205806.09999999404,,205816.386,8,400,,,
break_continue,html.Screen,4_23_2,2023-09-16T23:11:08.210Z,,0,,,NaN,,,,,,false,,,,205807.20000000298,205807.09999999404,,205806.89999999106,,205816.386,8,400,,,
sequence,flow.Sequence,4_23,2023-09-16T23:11:08.210Z,,0,,,5526.271999994031,completion,,,,,false,,,,205807.5,205807.09999999404,200264.155,200280.5,200280.828,205816.386,8,400,,,
trial,html.Screen,4_24_0,2023-09-16T23:11:11.397Z,,0,1,,3177.713999994041,response,ISIC_5709247.JPG,9,ISIC_5840341.JPG,ISIC_5840341.JPG,false,0,keypress(z),500,208994.29999999702,208994.09999999404,205799.713,205807.59999999404,205816.386,209000.929,8,400,25,,ISIC_5709247.JPG
break,html.Screen,4_24_1,2023-09-16T23:11:11.398Z,,0,,,NaN,,,,,,false,,,,208995.20000000298,208994.89999999106,,208994.59999999404,,209000.929,8,400,,,
break_continue,html.Screen,4_24_2,2023-09-16T23:11:11.399Z,,0,,,NaN,,,,,,false,,,,208995.59999999404,208995.5,,208995.39999999106,,209000.929,8,400,,,
sequence,flow.Sequence,4_24,2023-09-16T23:11:11.399Z,,0,,,3179.1140000000014,completion,,,,,false,,,,208995.89999999106,208995.5,205799.713,205807.59999999404,205816.386,209000.929,8,400,,,
trial,html.Screen,4_25_0,2023-09-16T23:11:16.489Z,,0,1,,5084.470999991056,response,ISIC_7397447.JPG,7,ISIC_0010306.JPG,ISIC_0010306.JPG,false,0,keypress(z),500,214085.59999999404,214085.39999999106,208984.256,208996,209000.929,214103.011,8,400,26,,ISIC_7397447.JPG
break,html.Screen,4_25_1,2023-09-16T23:11:16.489Z,,0,,,NaN,,,,,,false,,,,214086.39999999106,214086.29999999702,,214085.89999999106,,214103.011,8,400,,,
break_continue,html.Screen,4_25_2,2023-09-16T23:11:16.490Z,,0,,,NaN,,,,,,false,,,,214086.89999999106,214086.70000000298,,214086.59999999404,,214103.011,8,400,,,
sequence,flow.Sequence,4_25,2023-09-16T23:11:16.490Z,,0,,,5085.7710000029765,completion,,,,,false,,,,214087,214086.70000000298,208984.256,208996,209000.929,214103.011,8,400,,,
trial,html.Screen,4_26_0,2023-09-16T23:11:20.423Z,,0,1,,3916.9890000000014,response,ISIC_0030951.JPG,6,ISIC_5110133.JPG,ISIC_5110133.JPG,false,0,keypress(z),500,218020.29999999702,218020,214086.338,214087.20000000298,214103.011,218037.839,8,400,27,,ISIC_0030951.JPG
break,html.Screen,4_26_1,2023-09-16T23:11:20.424Z,,0,,,NaN,,,,,,false,,,,218021.09999999404,218020.89999999106,,218020.59999999404,,218037.839,8,400,,,
break_continue,html.Screen,4_26_2,2023-09-16T23:11:20.424Z,,0,,,NaN,,,,,,false,,,,218021.5,218021.39999999106,,218021.20000000298,,218037.839,8,400,,,
sequence,flow.Sequence,4_26,2023-09-16T23:11:20.425Z,,0,,,3918.3889999910607,completion,,,,,false,,,,218021.70000000298,218021.39999999106,214086.338,214087.09999999404,214103.011,218037.839,8,400,,,
trial,html.Screen,4_27_0,2023-09-16T23:11:25.352Z,,0,1,,4911.060999991052,response,ISIC_0028898.JPG,8,ISIC_0024732.JPG,ISIC_0024732.JPG,false,0,keypress(z),500,222949.20000000298,222948.89999999106,218021.166,218021.89999999106,218037.839,222956.374,8,400,28,,ISIC_0028898.JPG
break,html.Screen,4_27_1,2023-09-16T23:11:25.353Z,,0,,,NaN,,,,,,false,,,,222950,222949.89999999106,,222949.39999999106,,222956.374,8,400,,,
break_continue,html.Screen,4_27_2,2023-09-16T23:11:25.353Z,,0,,,NaN,,,,,,false,,,,222950.5,222950.39999999106,,222950.20000000298,,222956.374,8,400,,,
sequence,flow.Sequence,4_27,2023-09-16T23:11:25.354Z,,0,,,4912.560999991052,completion,,,,,false,,,,222950.59999999404,222950.39999999106,218021.166,218021.79999999702,218037.839,222956.374,8,400,,,
trial,html.Screen,4_28_0,2023-09-16T23:11:29.021Z,,0,1,,3661.425999997009,response,ISIC_5364330.JPG,8,ISIC_0058496.JPG,ISIC_0058496.JPG,false,0,keypress(z),500,226618,226617.79999999702,222939.701,222950.79999999702,222956.374,226624.556,8,400,29,,ISIC_5364330.JPG
break,html.Screen,4_28_1,2023-09-16T23:11:29.022Z,,0,,,NaN,,,,,,false,,,,226618.89999999106,226618.59999999404,,226618.29999999702,,226624.556,8,400,,,
break_continue,html.Screen,4_28_2,2023-09-16T23:11:29.022Z,,0,,,NaN,,,,,,false,,,,226619.29999999702,226619.20000000298,,226619.09999999404,,226624.556,8,400,,,
sequence,flow.Sequence,4_28,2023-09-16T23:11:29.022Z,,0,,,3662.8260000029695,completion,,,,,false,,,,226619.5,226619.20000000298,222939.701,222950.70000000298,222956.374,226624.556,8,400,,,
trial,html.Screen,4_29_0,2023-09-16T23:11:34.672Z,,0,1,,5644.943999999989,response,ISIC_2829088.JPG,8,ISIC_0021713.JPG,ISIC_2829088.JPG,false,1,keypress(m),500,232269.59999999404,232269.5,226607.883,226619.59999999404,226624.556,232276.703,8,400,30,,ISIC_0021713.JPG
break,html.Screen,4_29_1,2023-09-16T23:11:34.673Z,,0,,,NaN,,,,,,false,,,,232270.5,232270.29999999702,,232270,,232276.703,8,400,,,
break_continue,html.Screen,4_29_2,2023-09-16T23:11:34.674Z,,0,,,NaN,,,,,,false,,,,232270.89999999106,232270.79999999702,,232270.70000000298,,232276.703,8,400,,,
sequence,flow.Sequence,4_29,2023-09-16T23:11:34.674Z,,0,,,5646.243999997008,completion,,,,,false,,,,232271.09999999404,232270.79999999702,226607.883,226619.59999999404,226624.556,232276.703,8,400,,,
trial,html.Screen,4_30_0,2023-09-16T23:11:40.213Z,,0,1,,5533.696999991051,response,ISIC_0065537.JPG,7,ISIC_1115013.JPG,ISIC_0065537.JPG,false,1,keypress(m),500,237810.70000000298,237810.39999999106,232260.03,232271.20000000298,232276.703,237812.286,8,400,31,,ISIC_1115013.JPG
break,html.Screen,4_30_1,2023-09-16T23:11:40.214Z,,0,,,NaN,,,,,,false,,,,237811.59999999404,237811.29999999702,,237811,,237812.286,8,400,,,
break_continue,html.Screen,4_30_2,2023-09-16T23:11:40.215Z,,0,,,NaN,,,,,,false,,,,237812,237811.79999999702,,237811.70000000298,,237812.286,8,400,,,
sequence,flow.Sequence,4_30,2023-09-16T23:11:40.215Z,,0,,,5535.096999997011,completion,,,,,false,,,,237812.09999999404,237811.79999999702,232260.03,232271.20000000298,232276.703,237812.286,8,400,,,
trial,html.Screen,4_31_0,2023-09-16T23:11:44.667Z,,0,1,,4451.714000000007,response,ISIC_0072694.JPG,6,ISIC_3869533.JPG,ISIC_3869533.JPG,false,0,keypress(z),500,242264.20000000298,242264,237795.613,237812.29999999702,237812.286,242280.65,8,400,32,,ISIC_0072694.JPG
break,html.Screen,4_31_1,2023-09-16T23:11:44.668Z,,0,,,NaN,,,,,,false,,,,242265,242264.79999999702,,242264.5,,242280.65,8,400,,,
break_continue,html.Screen,4_31_2,2023-09-16T23:11:44.668Z,,0,,,NaN,,,,,,false,,,,242265.29999999702,242265.20000000298,,242265.20000000298,,242280.65,8,400,,,
sequence,flow.Sequence,4_31,2023-09-16T23:11:44.668Z,,0,,,4452.914000002987,completion,,,,,false,,,,242265.59999999404,242265.20000000298,237795.613,237812.20000000298,237812.286,242280.65,8,400,,,
trial,html.Screen,4_32_0,2023-09-16T23:11:48.304Z,,0,1,,3620.6499999970256,response,ISIC_9354965.JPG,8,ISIC_0000150.JPG,ISIC_0000150.JPG,false,0,keypress(z),500,245901.59999999404,245901.29999999702,242263.977,242265.70000000298,242280.65,245915.364,8,400,33,,ISIC_9354965.JPG
break,html.Screen,4_32_1,2023-09-16T23:11:48.305Z,,0,,,NaN,,,,,,false,,,,245902.29999999702,245902.20000000298,,245901.79999999702,,245915.364,8,400,,,
break_continue,html.Screen,4_32_2,2023-09-16T23:11:48.305Z,,0,,,NaN,,,,,,false,,,,245902.59999999404,245902.5,,245902.39999999106,,245915.364,8,400,,,
sequence,flow.Sequence,4_32,2023-09-16T23:11:48.306Z,,0,,,3621.850000000006,completion,,,,,false,,,,245902.89999999106,245902.5,242263.977,242265.59999999404,242280.65,245915.364,8,400,,,
trial,html.Screen,4_33_0,2023-09-16T23:11:52.391Z,,0,1,,4072.336000002979,response,ISIC_0056534.JPG,7,ISIC_9211072.JPG,ISIC_9211072.JPG,false,0,keypress(z),500,249988,249987.70000000298,245898.691,245903,245915.364,250000.372,8,400,34,,ISIC_0056534.JPG
break,html.Screen,4_33_1,2023-09-16T23:11:52.392Z,,0,,,NaN,,,,,,false,,,,249988.89999999106,249988.59999999404,,249988.29999999702,,250000.372,8,400,,,
break_continue,html.Screen,4_33_2,2023-09-16T23:11:52.392Z,,0,,,NaN,,,,,,false,,,,249989.29999999702,249989.09999999404,,249989,,250000.372,8,400,,,
sequence,flow.Sequence,4_33,2023-09-16T23:11:52.392Z,,0,,,4073.735999994038,completion,,,,,false,,,,249989.39999999106,249989.09999999404,245898.691,245903,245915.364,250000.372,8,400,,,
trial,html.Screen,4_34_0,2023-09-16T23:11:57.338Z,,0,1,,4934.828000002977,response,ISIC_0028297.JPG,8,ISIC_0054599.JPG,ISIC_0054599.JPG,false,0,keypress(z),500,254935.5,254935.20000000298,249983.699,249989.5,250000.372,254952.253,8,400,35,,ISIC_0028297.JPG
break,html.Screen,4_34_1,2023-09-16T23:11:57.339Z,,0,,,NaN,,,,,,false,,,,254936.39999999106,254936.20000000298,,254935.89999999106,,254952.253,8,400,,,
break_continue,html.Screen,4_34_2,2023-09-16T23:11:57.339Z,,0,,,NaN,,,,,,false,,,,254936.79999999702,254936.70000000298,,254936.59999999404,,254952.253,8,400,,,
sequence,flow.Sequence,4_34,2023-09-16T23:11:57.340Z,,0,,,4936.328000002977,completion,,,,,false,,,,254937,254936.70000000298,249983.699,249989.5,250000.372,254952.253,8,400,,,
trial,html.Screen,4_35_0,2023-09-16T23:12:01.185Z,,0,1,,3829.546999997023,response,ISIC_9030482.JPG,6,ISIC_0032287.JPG,ISIC_0032287.JPG,false,0,keypress(z),500,258782,258781.79999999702,254935.58,254937.20000000298,254952.253,258787.177,8,400,36,,ISIC_9030482.JPG
break,html.Screen,4_35_1,2023-09-16T23:12:01.186Z,,0,,,NaN,,,,,,false,,,,258782.89999999106,258782.70000000298,,258782.20000000298,,258787.177,8,400,,,
break_continue,html.Screen,4_35_2,2023-09-16T23:12:01.186Z,,0,,,NaN,,,,,,false,,,,258783.39999999106,258783.20000000298,,258783,,258787.177,8,400,,,
sequence,flow.Sequence,4_35,2023-09-16T23:12:01.186Z,,0,,,3830.9470000029833,completion,,,,,false,,,,258783.5,258783.20000000298,254935.58,254937.09999999404,254952.253,258787.177,8,400,,,
trial,html.Screen,4_36_0,2023-09-16T23:12:05.765Z,,0,1,,4575.122999997024,response,ISIC_2092911.JPG,8,ISIC_0028543.JPG,ISIC_0028543.JPG,false,0,keypress(z),500,263362.5,263362.299999997,258770.504,258783.70000000298,258787.177,263372.252,8,400,37,,ISIC_2092911.JPG
break,html.Screen,4_36_1,2023-09-16T23:12:05.766Z,,0,,,NaN,,,,,,false,,,,263363,263362.799999997,,263362.700000003,,263372.252,8,400,,,
break_continue,html.Screen,4_36_2,2023-09-16T23:12:05.766Z,,0,,,NaN,,,,,,false,,,,263363.200000003,263363.200000003,,263363.09999999404,,263372.252,8,400,,,
sequence,flow.Sequence,4_36,2023-09-16T23:12:05.766Z,,0,,,4576.023000002984,completion,,,,,false,,,,263363.39999999106,263363.200000003,258770.504,258783.59999999404,258787.177,263372.252,8,400,,,
trial,html.Screen,4_37_0,2023-09-16T23:12:09.719Z,,0,1,,3944.047999997041,response,ISIC_7440724.JPG,6,ISIC_0065728.JPG,ISIC_0065728.JPG,false,0,keypress(z),500,267316.5,267316.299999997,263355.579,263363.5,263372.252,267323.753,8,400,38,,ISIC_7440724.JPG
break,html.Screen,4_37_1,2023-09-16T23:12:09.720Z,,0,,,NaN,,,,,,false,,,,267317.299999997,267317.200000003,,267316.799999997,,267323.753,8,400,,,
break_continue,html.Screen,4_37_2,2023-09-16T23:12:09.720Z,,0,,,NaN,,,,,,false,,,,267317.700000003,267317.59999999404,,267317.5,,267323.753,8,400,,,
sequence,flow.Sequence,4_37,2023-09-16T23:12:09.721Z,,0,,,3945.347999994061,completion,,,,,false,,,,267318,267317.59999999404,263355.579,263363.39999999106,263372.252,267323.753,8,400,,,
trial,html.Screen,4_38_0,2023-09-16T23:12:13.383Z,,0,1,,3656.146999991033,response,ISIC_9974613.JPG,8,ISIC_4863784.JPG,ISIC_9974613.JPG,false,1,keypress(m),500,270980.200000003,270979.89999999106,267307.08,267318.09999999404,267323.753,270991.931,8,400,39,,ISIC_4863784.JPG
break,html.Screen,4_38_1,2023-09-16T23:12:13.384Z,,0,,,NaN,,,,,,false,,,,270980.89999999106,270980.799999997,,270980.5,,270991.931,8,400,,,
break_continue,html.Screen,4_38_2,2023-09-16T23:12:13.384Z,,0,,,NaN,,,,,,false,,,,270981.299999997,270981.200000003,,270981.09999999404,,270991.931,8,400,,,
sequence,flow.Sequence,4_38,2023-09-16T23:12:13.384Z,,0,,,3657.447000002954,completion,,,,,false,,,,270981.5,270981.200000003,267307.08,267318.09999999404,267323.753,270991.931,8,400,,,
trial,html.Screen,4_39_0,2023-09-16T23:12:16.682Z,,0,1,,3287.1689999940572,response,ISIC_0012065.JPG,7,ISIC_0070948.JPG,ISIC_0012065.JPG,false,1,keypress(m),500,274279.200000003,274279.09999999404,270975.258,270981.700000003,270991.931,274293.185,8,400,40,,ISIC_0070948.JPG
break,html.Screen,4_39_1,2023-09-16T23:12:16.682Z,,0,,,NaN,,,,,,false,,,,274279.700000003,274279.59999999404,,274279.299999997,,274293.185,8,400,,,
break_continue,html.Screen,4_39_2,2023-09-16T23:12:16.682Z,,0,,,NaN,,,,,,false,,,,274280,274279.89999999106,,274279.700000003,,274293.185,8,400,,,
sequence,flow.Sequence,4_39,2023-09-16T23:12:16.683Z,,0,,,3287.968999991077,completion,,,,,false,,,,274280,274279.89999999106,270975.258,270981.59999999404,270991.931,274293.185,8,400,,,
trial,html.Screen,4_40_0,2023-09-16T23:12:19.861Z,,0,1,,3165.3150000000023,response,ISIC_2479134.JPG,6,ISIC_0027387.JPG,ISIC_0027387.JPG,false,0,keypress(z),500,277458.799999997,277458.5,274276.512,274280.09999999404,274293.185,277461.055,8,400,41,,ISIC_2479134.JPG
break,html.Screen,4_40_1,2023-09-16T23:12:19.862Z,,0,,,NaN,,,,,,false,,,,277459.700000003,277459.39999999106,,277459.09999999404,,277461.055,8,400,,,
break_continue,html.Screen,4_40_2,2023-09-16T23:12:19.863Z,,0,,,NaN,,,,,,false,,,,277460,277459.89999999106,,277459.799999997,,277461.055,8,400,,,
sequence,flow.Sequence,4_40,2023-09-16T23:12:19.863Z,,0,,,3166.7149999910616,completion,,,,,false,,,,277460.200000003,277459.89999999106,274276.512,274280.09999999404,274293.185,277461.055,8,400,,,
trial,html.Screen,4_41_0,2023-09-16T23:12:23.368Z,,0,1,,3504.5449999940465,response,ISIC_0033498.JPG,6,ISIC_6735970.JPG,ISIC_0033498.JPG,false,1,keypress(m),500,280965.89999999106,280965.59999999404,277444.382,277460.299999997,277461.055,280995.85,8,400,42,,ISIC_6735970.JPG
break,html.Screen,4_41_1,2023-09-16T23:12:23.369Z,,0,,,NaN,,,,,,false,,,,280966.59999999404,280966.39999999106,,280966.09999999404,,280995.85,8,400,,,
break_continue,html.Screen,4_41_2,2023-09-16T23:12:23.369Z,,0,,,NaN,,,,,,false,,,,280967,280966.799999997,,280966.700000003,,280995.85,8,400,,,
sequence,flow.Sequence,4_41,2023-09-16T23:12:23.370Z,,0,,,3505.7449999970268,completion,,,,,false,,,,280967.09999999404,280966.799999997,277444.382,277460.299999997,277461.055,280995.85,8,400,,,
trial,html.Screen,4_42_0,2023-09-16T23:12:27.118Z,,0,1,,3718.949999997043,response,ISIC_7570343.JPG,7,ISIC_2863397.JPG,ISIC_7570343.JPG,false,1,keypress(m),500,284715.09999999404,284714.799999997,280979.177,280967.200000003,280995.85,284730.602,8,400,43,,ISIC_2863397.JPG
break,html.Screen,4_42_1,2023-09-16T23:12:27.118Z,,0,,,NaN,,,,,,false,,,,284715.89999999106,284715.59999999404,,284715.299999997,,284730.602,8,400,,,
break_continue,html.Screen,4_42_2,2023-09-16T23:12:27.119Z,,0,,,NaN,,,,,,false,,,,284716.299999997,284716.200000003,,284716,,284730.602,8,400,,,
sequence,flow.Sequence,4_42,2023-09-16T23:12:27.119Z,,0,,,3720.3500000030035,completion,,,,,false,,,,284716.5,284716.200000003,280979.177,280967.200000003,280995.85,284730.602,8,400,,,
trial,html.Screen,4_43_0,2023-09-16T23:12:32.483Z,,0,1,,5350.197999997006,response,ISIC_0034166.JPG,6,ISIC_7319686.JPG,ISIC_0034166.JPG,false,1,keypress(m),500,290081.09999999404,290080.799999997,284713.929,284716.59999999404,284730.602,290082.766,8,400,44,,ISIC_7319686.JPG
break,html.Screen,4_43_1,2023-09-16T23:12:32.484Z,,0,,,NaN,,,,,,false,,,,290081.89999999106,290081.700000003,,290081.299999997,,290082.766,8,400,,,
break_continue,html.Screen,4_43_2,2023-09-16T23:12:32.485Z,,0,,,NaN,,,,,,false,,,,290082.299999997,290082.200000003,,290082,,290082.766,8,400,,,
sequence,flow.Sequence,4_43,2023-09-16T23:12:32.485Z,,0,,,5351.598000002967,completion,,,,,false,,,,290082.39999999106,290082.200000003,284713.929,284716.59999999404,284730.602,290082.766,8,400,,,
trial,html.Screen,4_44_0,2023-09-16T23:12:36.613Z,,0,1,,4127.934000002977,response,ISIC_0068950.JPG,8,ISIC_0030392.JPG,ISIC_0068950.JPG,false,1,keypress(m),500,294210.89999999106,294210.700000003,290066.093,290082.59999999404,290082.766,294217.67,8,400,45,,ISIC_0030392.JPG
break,html.Screen,4_44_1,2023-09-16T23:12:36.614Z,,0,,,NaN,,,,,,false,,,,294211.700000003,294211.5,,294211.09999999404,,294217.67,8,400,,,
break_continue,html.Screen,4_44_2,2023-09-16T23:12:36.615Z,,0,,,NaN,,,,,,false,,,,294212.09999999404,294212.09999999404,,294211.89999999106,,294217.67,8,400,,,
sequence,flow.Sequence,4_44,2023-09-16T23:12:36.615Z,,0,,,4129.333999994036,completion,,,,,false,,,,294212.299999997,294212.09999999404,290066.093,290082.59999999404,290082.766,294217.67,8,400,,,
trial,html.Screen,4_45_0,2023-09-16T23:12:42.812Z,,0,1,,6192.129999997036,response,ISIC_0000585.JPG,7,ISIC_9196033.JPG,ISIC_0000585.JPG,false,1,keypress(m),500,300410,300409.799999997,294200.997,294212.5,294217.67,300420.147,8,400,46,,ISIC_9196033.JPG
break,html.Screen,4_45_1,2023-09-16T23:12:42.813Z,,0,,,NaN,,,,,,false,,,,300410.799999997,300410.59999999404,,300410.299999997,,300420.147,8,400,,,
break_continue,html.Screen,4_45_2,2023-09-16T23:12:42.814Z,,0,,,NaN,,,,,,false,,,,300411.299999997,300411.09999999404,,300411,,300420.147,8,400,,,
sequence,flow.Sequence,4_45,2023-09-16T23:12:42.814Z,,0,,,6193.429999994056,completion,,,,,false,,,,300411.39999999106,300411.09999999404,294200.997,294212.39999999106,294217.67,300420.147,8,400,,,
trial,html.Screen,4_46_0,2023-09-16T23:12:46.224Z,,0,1,,3401.1529999970226,response,ISIC_0070160.JPG,8,ISIC_0010718.JPG,ISIC_0070160.JPG,false,1,keypress(m),500,303821.59999999404,303821.299999997,300403.474,300411.5,300420.147,303838.112,8,400,47,,ISIC_0010718.JPG
break,html.Screen,4_46_1,2023-09-16T23:12:46.225Z,,0,,,NaN,,,,,,false,,,,303822.39999999106,303822.200000003,,303821.799999997,,303838.112,8,400,,,
break_continue,html.Screen,4_46_2,2023-09-16T23:12:46.225Z,,0,,,NaN,,,,,,false,,,,303822.89999999106,303822.700000003,,303822.59999999404,,303838.112,8,400,,,
sequence,flow.Sequence,4_46,2023-09-16T23:12:46.225Z,,0,,,3402.553000002983,completion,,,,,false,,,,303823,303822.700000003,300403.474,300411.5,300420.147,303838.112,8,400,,,
trial,html.Screen,4_47_0,2023-09-16T23:12:51.893Z,,0,1,,5652.187999996997,response,ISIC_7428248.JPG,9,ISIC_3314555.JPG,ISIC_3314555.JPG,false,0,keypress(z),500,309490.5,309490.299999997,303821.439,303823.09999999404,303838.112,309506.932,8,400,48,,ISIC_7428248.JPG
break,html.Screen,4_47_1,2023-09-16T23:12:51.894Z,,0,,,NaN,,,,,,false,,,,309491.39999999106,309491.09999999404,,309490.799999997,,309506.932,8,400,,,
break_continue,html.Screen,4_47_2,2023-09-16T23:12:51.894Z,,0,,,NaN,,,,,,false,,,,309491.799999997,309491.700000003,,309491.59999999404,,309506.932,8,400,,,
sequence,flow.Sequence,4_47,2023-09-16T23:12:51.894Z,,0,,,5653.588000002957,completion,,,,,false,,,,309492.09999999404,309491.700000003,303821.439,303823.09999999404,303838.112,309506.932,8,400,,,
trial,html.Screen,4_48_0,2023-09-16T23:12:57.580Z,,0,1,,5670.568000000028,response,ISIC_7210119.JPG,6,ISIC_5301938.JPG,ISIC_5301938.JPG,false,0,keypress(z),500,315177.799999997,315177.5,309490.259,309492.200000003,309506.932,315192.547,8,400,49,,ISIC_7210119.JPG
break,html.Screen,4_48_1,2023-09-16T23:12:57.581Z,,0,,,NaN,,,,,,false,,,,315178.700000003,315178.39999999106,,315178.09999999404,,315192.547,8,400,,,
break_continue,html.Screen,4_48_2,2023-09-16T23:12:57.581Z,,0,,,NaN,,,,,,false,,,,315179.09999999404,315178.89999999106,,315178.799999997,,315192.547,8,400,,,
sequence,flow.Sequence,4_48,2023-09-16T23:12:57.582Z,,0,,,5671.967999991088,completion,,,,,false,,,,315179.299999997,315178.89999999106,309490.259,309492.09999999404,309506.932,315192.547,8,400,,,
trial,html.Screen,4_49_0,2023-09-16T23:13:01.888Z,,0,1,,4292.852999991039,response,ISIC_2937642.JPG,9,ISIC_0061158.JPG,ISIC_2937642.JPG,false,1,keypress(m),500,319485.700000003,319485.39999999106,315175.874,315179.39999999106,315192.547,319510.854,8,400,50,,ISIC_0061158.JPG
break,html.Screen,4_49_1,2023-09-16T23:13:11.905Z,,0,,,10003.918000000005,timeout,,,,,false,,,,329502.799999997,329498.099,319494.181,319486,319510.854,329514.772,8,400,,,
break_continue,html.Screen,4_49_2,2023-09-16T23:14:04.895Z,,0,,,52965.228,response,,,,,false,continue,keypress(Space),,382493.200000003,382480,329498.099,329502.89999999106,329514.772,382501.566,8,400,,,
sequence,flow.Sequence,4_49,2023-09-16T23:14:04.895Z,,0,,,67287.45299999998,completion,,,,,false,,,,382493.39999999106,382480,315175.874,315179.39999999106,315192.547,382501.566,8,400,,,
trial,html.Screen,4_50_0,2023-09-16T23:14:11.100Z,,0,2,,6196.333999991068,response,ISIC_7637597.JPG,5,ISIC_0069851.JPG,ISIC_0069851.JPG,false,0,keypress(z),500,388698.200000003,388697.89999999106,382484.893,382493.39999999106,382501.566,388704.653,8,400,1,,ISIC_7637597.JPG
break,html.Screen,4_50_1,2023-09-16T23:14:11.101Z,,0,,,NaN,,,,,,false,,,,388699.200000003,388698.89999999106,,388698.5,,388704.653,8,400,,,
break_continue,html.Screen,4_50_2,2023-09-16T23:14:11.101Z,,0,,,NaN,,,,,,false,,,,388699.5,388699.39999999106,,388699.200000003,,388704.653,8,400,,,
sequence,flow.Sequence,4_50,2023-09-16T23:14:11.101Z,,0,,,6197.833999991068,completion,,,,,false,,,,388699.700000003,388699.39999999106,382484.893,382493.39999999106,382501.566,388704.653,8,400,,,
trial,html.Screen,4_51_0,2023-09-16T23:14:22.596Z,,0,2,,11521.232000000018,timeout,ISIC_0031711.JPG,9,ISIC_4141898.JPG,ISIC_0031711.JPG,false,,,500,400193.89999999106,400193.799999997,388687.98,388699.799999997,388704.653,400225.885,8,400,2,,ISIC_4141898.JPG
break,html.Screen,4_51_1,2023-09-16T23:14:22.596Z,,0,,,NaN,,,,,,false,,,,400194.39999999106,400194.299999997,,400194.09999999404,,400225.885,8,400,,,
break_continue,html.Screen,4_51_2,2023-09-16T23:14:22.597Z,,0,,,NaN,,,,,,false,,,,400195.59999999404,400195.5,,400195.299999997,,400225.885,8,400,,,
sequence,flow.Sequence,4_51,2023-09-16T23:14:22.597Z,,0,,,11490.847000000009,completion,,,,,false,,,,400195.700000003,400195.5,388687.98,388699.799999997,388704.653,400225.885,8,400,,,
trial,html.Screen,4_52_0,2023-09-16T23:14:26.185Z,,0,2,,3556.9149999970105,response,ISIC_0057858.JPG,5,ISIC_7017387.JPG,ISIC_7017387.JPG,false,0,keypress(z),500,403782.89999999106,403782.799999997,400209.212,400195.799999997,400225.885,403793.907,8,400,3,,ISIC_0057858.JPG
break,html.Screen,4_52_1,2023-09-16T23:14:26.185Z,,0,,,NaN,,,,,,false,,,,403783.39999999106,403783.299999997,,403783.09999999404,,403793.907,8,400,,,
break_continue,html.Screen,4_52_2,2023-09-16T23:14:26.185Z,,0,,,NaN,,,,,,false,,,,403783.59999999404,403783.5,,403783.5,,403793.907,8,400,,,
sequence,flow.Sequence,4_52,2023-09-16T23:14:26.185Z,,0,,,3557.6149999999907,completion,,,,,false,,,,403783.799999997,403783.5,400209.212,400195.799999997,400225.885,403793.907,8,400,,,
trial,html.Screen,4_53_0,2023-09-16T23:14:29.147Z,,0,2,,2950.7930000029737,response,ISIC_1308649.JPG,6,ISIC_0010380.JPG,ISIC_0010380.JPG,false,0,keypress(z),500,406745,406744.700000003,403777.234,403783.799999997,403793.907,406761.701,8,400,4,,ISIC_1308649.JPG
break,html.Screen,4_53_1,2023-09-16T23:14:29.147Z,,0,,,NaN,,,,,,false,,,,406745.700000003,406745.5,,406745.09999999404,,406761.701,8,400,,,
break_continue,html.Screen,4_53_2,2023-09-16T23:14:29.148Z,,0,,,NaN,,,,,,false,,,,406746.200000003,406746,,406745.700000003,,406761.701,8,400,,,
sequence,flow.Sequence,4_53,2023-09-16T23:14:29.148Z,,0,,,2952.0929999999935,completion,,,,,false,,,,406746.299999997,406746,403777.234,403783.799999997,403793.907,406761.701,8,400,,,
trial,html.Screen,4_54_0,2023-09-16T23:14:32.965Z,,0,2,,3801.3989999940386,response,ISIC_0351547.JPG,5,ISIC_0062026.JPG,ISIC_0062026.JPG,false,0,keypress(z),500,410563.299999997,410563.09999999404,406745.028,406746.39999999106,406761.701,410579.953,8,400,5,,ISIC_0351547.JPG
break,html.Screen,4_54_1,2023-09-16T23:14:32.965Z,,0,,,NaN,,,,,,false,,,,410563.700000003,410563.59999999404,,410563.39999999106,,410579.953,8,400,,,
break_continue,html.Screen,4_54_2,2023-09-16T23:14:32.966Z,,0,,,NaN,,,,,,false,,,,410563.89999999106,410563.89999999106,,410563.799999997,,410579.953,8,400,,,
sequence,flow.Sequence,4_54,2023-09-16T23:14:32.966Z,,0,,,3802.1989999910584,completion,,,,,false,,,,410564.09999999404,410563.89999999106,406745.028,406746.39999999106,406761.701,410579.953,8,400,,,
trial,html.Screen,4_55_0,2023-09-16T23:14:37.100Z,,0,2,,4118.747000003001,response,ISIC_5707761.JPG,5,ISIC_5879418.JPG,ISIC_5879418.JPG,false,0,keypress(z),500,414698.799999997,414698.700000003,410563.28,410564.09999999404,410579.953,414714.857,8,400,6,,ISIC_5707761.JPG
break,html.Screen,4_55_1,2023-09-16T23:14:37.101Z,,0,,,NaN,,,,,,false,,,,414699.39999999106,414699.200000003,,414699,,414714.857,8,400,,,
break_continue,html.Screen,4_55_2,2023-09-16T23:14:37.101Z,,0,,,NaN,,,,,,false,,,,414699.59999999404,414699.59999999404,,414699.39999999106,,414714.857,8,400,,,
sequence,flow.Sequence,4_55,2023-09-16T23:14:37.101Z,,0,,,4119.64699999406,completion,,,,,false,,,,414699.799999997,414699.59999999404,410563.28,410564.09999999404,410579.953,414714.857,8,400,,,
trial,html.Screen,4_56_0,2023-09-16T23:14:41.055Z,,0,2,,3938.4429999970016,response,ISIC_0000445.JPG,6,ISIC_8036175.JPG,ISIC_8036175.JPG,false,0,keypress(z),500,418653.59999999404,418653.299999997,414698.184,414699.89999999106,414714.857,418666.358,8,400,7,,ISIC_0000445.JPG
break,html.Screen,4_56_1,2023-09-16T23:14:41.056Z,,0,,,NaN,,,,,,false,,,,418654.39999999106,418654.09999999404,,418653.799999997,,418666.358,8,400,,,
break_continue,html.Screen,4_56_2,2023-09-16T23:14:41.056Z,,0,,,NaN,,,,,,false,,,,418654.700000003,418654.59999999404,,418654.59999999404,,418666.358,8,400,,,
sequence,flow.Sequence,4_56,2023-09-16T23:14:41.057Z,,0,,,3939.7429999940214,completion,,,,,false,,,,418655,418654.59999999404,414698.184,414699.799999997,414714.857,418666.358,8,400,,,
trial,html.Screen,4_57_0,2023-09-16T23:14:44.078Z,,0,2,,3010.041999991052,response,ISIC_8837880.JPG,5,ISIC_0000163.JPG,ISIC_0000163.JPG,false,0,keypress(z),500,421676.700000003,421676.39999999106,418649.685,418655.09999999404,418666.358,421684.29,8,400,8,,ISIC_8837880.JPG
break,html.Screen,4_57_1,2023-09-16T23:14:44.079Z,,0,,,NaN,,,,,,false,,,,421677.5,421677.299999997,,421676.89999999106,,421684.29,8,400,,,
break_continue,html.Screen,4_57_2,2023-09-16T23:14:44.079Z,,0,,,NaN,,,,,,false,,,,421677.89999999106,421677.799999997,,421677.700000003,,421684.29,8,400,,,
sequence,flow.Sequence,4_57,2023-09-16T23:14:44.080Z,,0,,,3011.4419999970123,completion,,,,,false,,,,421678.09999999404,421677.799999997,418649.685,418655,418666.358,421684.29,8,400,,,
trial,html.Screen,4_58_0,2023-09-16T23:14:47.909Z,,0,2,,3823.1099999910803,response,ISIC_6006795.JPG,7,ISIC_0061558.JPG,ISIC_0061558.JPG,false,0,keypress(z),500,425507.59999999404,425507.39999999106,421667.617,421678.200000003,421684.29,425519.08,8,400,9,,ISIC_6006795.JPG
break,html.Screen,4_58_1,2023-09-16T23:14:47.910Z,,0,,,NaN,,,,,,false,,,,425508.5,425508.09999999404,,425507.799999997,,425519.08,8,400,,,
break_continue,html.Screen,4_58_2,2023-09-16T23:14:47.910Z,,0,,,NaN,,,,,,false,,,,425508.799999997,425508.700000003,,425508.59999999404,,425519.08,8,400,,,
sequence,flow.Sequence,4_58,2023-09-16T23:14:47.911Z,,0,,,3824.410000003001,completion,,,,,false,,,,425509,425508.700000003,421667.617,421678.200000003,421684.29,425519.08,8,400,,,
trial,html.Screen,4_59_0,2023-09-16T23:14:50.993Z,,0,2,,3072.5199999940232,response,ISIC_0053742.JPG,8,ISIC_4384861.JPG,ISIC_0053742.JPG,false,1,keypress(m),500,428591.799999997,428591.59999999404,425502.407,425509.09999999404,425519.08,428620.258,8,400,10,,ISIC_4384861.JPG
break,html.Screen,4_59_1,2023-09-16T23:14:50.994Z,,0,,,NaN,,,,,,false,,,,428592.59999999404,428592.39999999106,,428592.09999999404,,428620.258,8,400,,,
break_continue,html.Screen,4_59_2,2023-09-16T23:14:50.994Z,,0,,,NaN,,,,,,false,,,,428593,428592.799999997,,428592.799999997,,428620.258,8,400,,,
sequence,flow.Sequence,4_59,2023-09-16T23:14:50.995Z,,0,,,3073.7199999970035,completion,,,,,false,,,,428593.09999999404,428592.799999997,425502.407,425509.09999999404,425519.08,428620.258,8,400,,,
trial,html.Screen,4_60_0,2023-09-16T23:14:56.199Z,,0,2,,5177.2420000000275,response,ISIC_0055314.JPG,8,ISIC_0046623.JPG,ISIC_0055314.JPG,false,1,keypress(m),500,433797.700000003,433797.5,428603.585,428593.299999997,428620.258,433805.695,8,400,11,,ISIC_0046623.JPG
break,html.Screen,4_60_1,2023-09-16T23:14:56.200Z,,0,,,NaN,,,,,,false,,,,433798.5,433798.299999997,,433797.89999999106,,433805.695,8,400,,,
break_continue,html.Screen,4_60_2,2023-09-16T23:14:56.200Z,,0,,,NaN,,,,,,false,,,,433798.89999999106,433798.700000003,,433798.59999999404,,433805.695,8,400,,,
sequence,flow.Sequence,4_60,2023-09-16T23:14:56.201Z,,0,,,5178.442000003008,completion,,,,,false,,,,433799,433798.700000003,428603.585,428593.200000003,428620.258,433805.695,8,400,,,
trial,html.Screen,4_61_0,2023-09-16T23:14:59.903Z,,0,2,,3695.4049999940326,response,ISIC_5281576.JPG,8,ISIC_0057487.JPG,ISIC_0057487.JPG,false,0,keypress(z),500,437501.39999999106,437501.09999999404,433789.022,433799.200000003,433805.695,437507.101,8,400,12,,ISIC_5281576.JPG
break,html.Screen,4_61_1,2023-09-16T23:14:59.904Z,,0,,,NaN,,,,,,false,,,,437502.200000003,437502,,437501.59999999404,,437507.101,8,400,,,
break_continue,html.Screen,4_61_2,2023-09-16T23:14:59.904Z,,0,,,NaN,,,,,,false,,,,437502.700000003,437502.39999999106,,437502.39999999106,,437507.101,8,400,,,
sequence,flow.Sequence,4_61,2023-09-16T23:14:59.904Z,,0,,,3696.7049999910523,completion,,,,,false,,,,437502.799999997,437502.39999999106,433789.022,433799.09999999404,433805.695,437507.101,8,400,,,
trial,html.Screen,4_62_0,2023-09-16T23:15:03.310Z,,0,2,,3401.298999991035,response,ISIC_0013652.JPG,8,ISIC_7518524.JPG,ISIC_0013652.JPG,false,1,keypress(m),500,440908.700000003,440908.39999999106,437490.428,437502.89999999106,437507.101,440925.066,8,400,13,,ISIC_7518524.JPG
break,html.Screen,4_62_1,2023-09-16T23:15:03.311Z,,0,,,NaN,,,,,,false,,,,440909.5,440909.299999997,,440908.89999999106,,440925.066,8,400,,,
break_continue,html.Screen,4_62_2,2023-09-16T23:15:03.311Z,,0,,,NaN,,,,,,false,,,,440909.89999999106,440909.799999997,,440909.700000003,,440925.066,8,400,,,
sequence,flow.Sequence,4_62,2023-09-16T23:15:03.312Z,,0,,,3402.6989999969956,completion,,,,,false,,,,440910.09999999404,440909.799999997,437490.428,437502.89999999106,437507.101,440925.066,8,400,,,
trial,html.Screen,4_63_0,2023-09-16T23:15:06.515Z,,0,2,,3188.4340000000084,response,ISIC_0029182.JPG,8,ISIC_3064807.JPG,ISIC_3064807.JPG,false,0,keypress(z),500,444113.700000003,444113.5,440908.393,440910.299999997,440925.066,444126.404,8,400,14,,ISIC_0029182.JPG
break,html.Screen,4_63_1,2023-09-16T23:15:06.516Z,,0,,,NaN,,,,,,false,,,,444114.700000003,444114.5,,444114.09999999404,,444126.404,8,400,,,
break_continue,html.Screen,4_63_2,2023-09-16T23:15:06.517Z,,0,,,NaN,,,,,,false,,,,444115.09999999404,444114.89999999106,,444114.799999997,,444126.404,8,400,,,
sequence,flow.Sequence,4_63,2023-09-16T23:15:06.517Z,,0,,,3189.8339999910677,completion,,,,,false,,,,444115.200000003,444114.89999999106,440908.393,440910.299999997,440925.066,444126.404,8,400,,,
trial,html.Screen,4_64_0,2023-09-16T23:15:10.169Z,,0,2,,3640.695999994059,response,ISIC_0000549.JPG,7,ISIC_8030914.JPG,ISIC_0000549.JPG,false,1,keypress(m),500,447767.299999997,447767.09999999404,444109.731,444115.39999999106,444126.404,447777.791,8,400,15,,ISIC_8030914.JPG
break,html.Screen,4_64_1,2023-09-16T23:15:10.170Z,,0,,,NaN,,,,,,false,,,,447768.200000003,447768,,447767.59999999404,,447777.791,8,400,,,
break_continue,html.Screen,4_64_2,2023-09-16T23:15:10.170Z,,0,,,NaN,,,,,,false,,,,447768.59999999404,447768.5,,447768.39999999106,,447777.791,8,400,,,
sequence,flow.Sequence,4_64,2023-09-16T23:15:10.170Z,,0,,,3642.0960000000196,completion,,,,,false,,,,447768.799999997,447768.5,444109.731,444115.39999999106,444126.404,447777.791,8,400,,,
trial,html.Screen,4_65_0,2023-09-16T23:15:15.829Z,,0,2,,5649.008999996993,response,ISIC_5709247.JPG,5,ISIC_9228729.JPG,ISIC_5709247.JPG,false,1,keypress(m),500,453427.09999999404,453426.799999997,447761.118,447768.89999999106,447777.791,453430.067,8,400,16,,ISIC_9228729.JPG
break,html.Screen,4_65_1,2023-09-16T23:15:15.829Z,,0,,,NaN,,,,,,false,,,,453428.09999999404,453427.799999997,,453427.5,,453430.067,8,400,,,
break_continue,html.Screen,4_65_2,2023-09-16T23:15:15.830Z,,0,,,NaN,,,,,,false,,,,453428.5,453428.39999999106,,453428.200000003,,453430.067,8,400,,,
sequence,flow.Sequence,4_65,2023-09-16T23:15:15.830Z,,0,,,5650.608999991033,completion,,,,,false,,,,453428.59999999404,453428.39999999106,447761.118,447768.89999999106,447777.791,453430.067,8,400,,,
trial,html.Screen,4_66_0,2023-09-16T23:15:22.340Z,,0,2,,6508.232999997039,response,ISIC_0013579.JPG,5,ISIC_0026364.JPG,ISIC_0013579.JPG,false,1,keypress(m),500,459938.59999999404,459938.299999997,453413.394,453428.799999997,453430.067,459949.21,8,400,17,,ISIC_0026364.JPG
break,html.Screen,4_66_1,2023-09-16T23:15:22.341Z,,0,,,NaN,,,,,,false,,,,459939.39999999106,459939.200000003,,459938.799999997,,459949.21,8,400,,,
break_continue,html.Screen,4_66_2,2023-09-16T23:15:22.341Z,,0,,,NaN,,,,,,false,,,,459939.799999997,459939.700000003,,459939.5,,459949.21,8,400,,,
sequence,flow.Sequence,4_66,2023-09-16T23:15:22.341Z,,0,,,6509.633000002999,completion,,,,,false,,,,459940,459939.700000003,453413.394,453428.799999997,453430.067,459949.21,8,400,,,
trial,html.Screen,4_67_0,2023-09-16T23:15:28.010Z,,0,2,,5659.789999999979,response,ISIC_4508878.JPG,6,ISIC_0032671.JPG,ISIC_0032671.JPG,false,0,keypress(z),500,465609.200000003,465609,459932.537,459940.09999999404,459949.21,465618.152,8,400,18,,ISIC_4508878.JPG
break,html.Screen,4_67_1,2023-09-16T23:15:28.011Z,,0,,,NaN,,,,,,false,,,,465610.09999999404,465609.799999997,,465609.39999999106,,465618.152,8,400,,,
break_continue,html.Screen,4_67_2,2023-09-16T23:15:28.012Z,,0,,,NaN,,,,,,false,,,,465610.5,465610.39999999106,,465610.200000003,,465618.152,8,400,,,
sequence,flow.Sequence,4_67,2023-09-16T23:15:28.012Z,,0,,,5661.189999991038,completion,,,,,false,,,,465610.59999999404,465610.39999999106,459932.537,459940,459949.21,465618.152,8,400,,,
trial,html.Screen,4_68_0,2023-09-16T23:15:31.791Z,,0,2,,3770.9479999940377,response,ISIC_0032044.JPG,7,ISIC_0063617.JPG,ISIC_0032044.JPG,false,1,keypress(m),500,469389.200000003,469389.09999999404,465601.479,465610.799999997,465618.152,469402.923,8,400,19,,ISIC_0063617.JPG
break,html.Screen,4_68_1,2023-09-16T23:15:31.791Z,,0,,,NaN,,,,,,false,,,,469390,469389.89999999106,,469389.5,,469402.923,8,400,,,
break_continue,html.Screen,4_68_2,2023-09-16T23:15:31.792Z,,0,,,NaN,,,,,,false,,,,469390.39999999106,469390.299999997,,469390.09999999404,,469402.923,8,400,,,
sequence,flow.Sequence,4_68,2023-09-16T23:15:31.792Z,,0,,,3772.147999997018,completion,,,,,false,,,,469390.59999999404,469390.299999997,465601.479,465610.700000003,465618.152,469402.923,8,400,,,
trial,html.Screen,4_69_0,2023-09-16T23:15:35.363Z,,0,2,,3558.6769999940298,response,ISIC_0027081.JPG,7,ISIC_0056635.JPG,ISIC_0056635.JPG,false,0,keypress(z),500,472961.89999999106,472961.59999999404,469386.25,469390.700000003,469402.923,472970.945,8,400,20,,ISIC_0027081.JPG
break,html.Screen,4_69_1,2023-09-16T23:15:35.364Z,,0,,,NaN,,,,,,false,,,,472962.59999999404,472962.39999999106,,472962.09999999404,,472970.945,8,400,,,
break_continue,html.Screen,4_69_2,2023-09-16T23:15:35.364Z,,0,,,NaN,,,,,,false,,,,472963,472963,,472962.700000003,,472970.945,8,400,,,
sequence,flow.Sequence,4_69,2023-09-16T23:15:35.364Z,,0,,,3560.07699999999,completion,,,,,false,,,,472963.200000003,472963,469386.25,469390.59999999404,469402.923,472970.945,8,400,,,
trial,html.Screen,4_70_0,2023-09-16T23:15:38.412Z,,0,2,,3039.6549999940326,response,ISIC_5993530.JPG,8,ISIC_0013988.JPG,ISIC_0013988.JPG,false,0,keypress(z),500,476010.799999997,476010.59999999404,472954.272,472963.299999997,472970.945,476022.23,8,400,21,,ISIC_5993530.JPG
break,html.Screen,4_70_1,2023-09-16T23:15:38.413Z,,0,,,NaN,,,,,,false,,,,476011.700000003,476011.5,,476011,,476022.23,8,400,,,
break_continue,html.Screen,4_70_2,2023-09-16T23:15:38.413Z,,0,,,NaN,,,,,,false,,,,476012,476011.89999999106,,476011.799999997,,476022.23,8,400,,,
sequence,flow.Sequence,4_70,2023-09-16T23:15:38.413Z,,0,,,3040.9549999910523,completion,,,,,false,,,,476012.299999997,476011.89999999106,472954.272,472963.299999997,472970.945,476022.23,8,400,,,
trial,html.Screen,4_71_0,2023-09-16T23:15:41.727Z,,0,2,,3303.0699999970384,response,ISIC_8380904.JPG,9,ISIC_9280171.JPG,ISIC_8380904.JPG,false,1,keypress(m),500,479325.5,479325.299999997,476005.557,476012.39999999106,476022.23,479340.157,8,400,22,,ISIC_9280171.JPG
break,html.Screen,4_71_1,2023-09-16T23:15:41.728Z,,0,,,NaN,,,,,,false,,,,479326.299999997,479326.200000003,,479325.799999997,,479340.157,8,400,,,
break_continue,html.Screen,4_71_2,2023-09-16T23:15:41.728Z,,0,,,NaN,,,,,,false,,,,479326.799999997,479326.59999999404,,479326.5,,479340.157,8,400,,,
sequence,flow.Sequence,4_71,2023-09-16T23:15:41.728Z,,0,,,3304.369999994058,completion,,,,,false,,,,479326.89999999106,479326.59999999404,476005.557,476012.39999999106,476022.23,479340.157,8,400,,,
trial,html.Screen,4_72_0,2023-09-16T23:15:47.829Z,,0,2,,6087.8429999999935,response,ISIC_6348638.JPG,8,ISIC_0030443.JPG,ISIC_6348638.JPG,false,1,keypress(m),500,485428.299999997,485428,479323.484,479327.09999999404,479340.157,485442.603,8,400,23,,ISIC_0030443.JPG
break,html.Screen,4_72_1,2023-09-16T23:15:47.830Z,,0,,,NaN,,,,,,false,,,,485429,485428.799999997,,485428.5,,485442.603,8,400,,,
break_continue,html.Screen,4_72_2,2023-09-16T23:15:47.831Z,,0,,,NaN,,,,,,false,,,,485429.5,485429.39999999106,,485429.200000003,,485442.603,8,400,,,
sequence,flow.Sequence,4_72,2023-09-16T23:15:47.831Z,,0,,,6089.242999991053,completion,,,,,false,,,,485429.700000003,485429.39999999106,479323.484,479327,479340.157,485442.603,8,400,,,
trial,html.Screen,4_73_0,2023-09-16T23:15:51.817Z,,0,2,,3973.396999999997,response,ISIC_0033186.JPG,6,ISIC_0000434.JPG,ISIC_0000434.JPG,false,0,keypress(z),500,489416.299999997,489416,485425.93,485429.799999997,485442.603,489427.45,8,400,24,,ISIC_0033186.JPG
break,html.Screen,4_73_1,2023-09-16T23:15:51.818Z,,0,,,NaN,,,,,,false,,,,489417.09999999404,489416.89999999106,,489416.5,,489427.45,8,400,,,
break_continue,html.Screen,4_73_2,2023-09-16T23:15:51.819Z,,0,,,NaN,,,,,,false,,,,489417.5,489417.299999997,,489417.200000003,,489427.45,8,400,,,
sequence,flow.Sequence,4_73,2023-09-16T23:15:51.819Z,,0,,,3974.696999997017,completion,,,,,false,,,,489417.700000003,489417.299999997,485425.93,485429.799999997,485442.603,489427.45,8,400,,,
trial,html.Screen,4_74_0,2023-09-16T23:15:55.583Z,,0,2,,3754.149999994028,response,ISIC_7462953.JPG,6,ISIC_0016161.JPG,ISIC_7462953.JPG,false,1,keypress(m),500,493181.89999999106,493181.59999999404,489410.777,489417.799999997,489427.45,493195.548,8,400,25,,ISIC_0016161.JPG
break,html.Screen,4_74_1,2023-09-16T23:15:55.584Z,,0,,,NaN,,,,,,false,,,,493182.799999997,493182.700000003,,493182.299999997,,493195.548,8,400,,,
break_continue,html.Screen,4_74_2,2023-09-16T23:15:55.585Z,,0,,,NaN,,,,,,false,,,,493183.5,493183.200000003,,493183,,493195.548,8,400,,,
sequence,flow.Sequence,4_74,2023-09-16T23:15:55.585Z,,0,,,3755.7500000029686,completion,,,,,false,,,,493183.700000003,493183.200000003,489410.777,489417.799999997,489427.45,493195.548,8,400,,,
trial,html.Screen,4_75_0,2023-09-16T23:15:59.229Z,,0,2,,3632.0519999940298,response,ISIC_8523262.JPG,8,ISIC_6125652.JPG,ISIC_6125652.JPG,false,0,keypress(z),500,496827.89999999106,496827.59999999404,493178.875,493183.89999999106,493195.548,496830.384,8,400,26,,ISIC_8523262.JPG
break,html.Screen,4_75_1,2023-09-16T23:15:59.230Z,,0,,,NaN,,,,,,false,,,,496828.700000003,496828.39999999106,,496828,,496830.384,8,400,,,
break_continue,html.Screen,4_75_2,2023-09-16T23:15:59.230Z,,0,,,NaN,,,,,,false,,,,496829.09999999404,496828.89999999106,,496828.799999997,,496830.384,8,400,,,
sequence,flow.Sequence,4_75,2023-09-16T23:15:59.230Z,,0,,,3633.3519999910495,completion,,,,,false,,,,496829.299999997,496828.89999999106,493178.875,493183.799999997,493195.548,496830.384,8,400,,,
trial,html.Screen,4_76_0,2023-09-16T23:16:02.400Z,,0,2,,3168.31600000296,response,ISIC_2328829.JPG,8,ISIC_0025891.JPG,ISIC_2328829.JPG,false,1,keypress(m),500,499999,499998.700000003,496813.711,496829.39999999106,496830.384,500014.927,8,400,27,,ISIC_0025891.JPG
break,html.Screen,4_76_1,2023-09-16T23:16:02.401Z,,0,,,NaN,,,,,,false,,,,499999.700000003,499999.5,,499999.200000003,,500014.927,8,400,,,
break_continue,html.Screen,4_76_2,2023-09-16T23:16:02.401Z,,0,,,NaN,,,,,,false,,,,500000.09999999404,500000,,499999.89999999106,,500014.927,8,400,,,
sequence,flow.Sequence,4_76,2023-09-16T23:16:02.401Z,,0,,,3169.61599999998,completion,,,,,false,,,,500000.299999997,500000,496813.711,496829.299999997,496830.384,500014.927,8,400,,,
trial,html.Screen,4_77_0,2023-09-16T23:16:05.596Z,,0,2,,3179.072999999975,response,ISIC_0006754.JPG,7,ISIC_0056413.JPG,ISIC_0056413.JPG,false,0,keypress(z),500,503194.59999999404,503194,499998.254,500000.39999999106,500014.927,503216.143,8,400,28,,ISIC_0006754.JPG
break,html.Screen,4_77_1,2023-09-16T23:16:05.597Z,,0,,,NaN,,,,,,false,,,,503196.200000003,503195.299999997,,503194.89999999106,,503216.143,8,400,,,
break_continue,html.Screen,4_77_2,2023-09-16T23:16:05.598Z,,0,,,NaN,,,,,,false,,,,503196.59999999404,503196.5,,503196.299999997,,503216.143,8,400,,,
sequence,flow.Sequence,4_77,2023-09-16T23:16:05.598Z,,0,,,3181.572999999975,completion,,,,,false,,,,503196.700000003,503196.5,499998.254,500000.299999997,500014.927,503216.143,8,400,,,
trial,html.Screen,4_78_0,2023-09-16T23:16:08.593Z,,0,2,,2975.857000000018,response,ISIC_5504286.JPG,8,ISIC_0060390.JPG,ISIC_0060390.JPG,false,0,keypress(z),500,506192.200000003,506192,503199.47,503196.89999999106,503216.143,506200.732,8,400,29,,ISIC_5504286.JPG
break,html.Screen,4_78_1,2023-09-16T23:16:08.594Z,,0,,,NaN,,,,,,false,,,,506193.09999999404,506192.799999997,,506192.5,,506200.732,8,400,,,
break_continue,html.Screen,4_78_2,2023-09-16T23:16:08.594Z,,0,,,NaN,,,,,,false,,,,506193.5,506193.299999997,,506193.200000003,,506200.732,8,400,,,
sequence,flow.Sequence,4_78,2023-09-16T23:16:08.595Z,,0,,,2977.156999997038,completion,,,,,false,,,,506193.59999999404,506193.299999997,503199.47,503196.89999999106,503216.143,506200.732,8,400,,,
trial,html.Screen,4_79_0,2023-09-16T23:16:11.862Z,,0,2,,3260.0679999970016,response,ISIC_0030508.JPG,8,ISIC_1985763.JPG,ISIC_1985763.JPG,false,0,keypress(z),500,509461,509460.799999997,506184.059,506193.799999997,506200.732,509468.64,8,400,30,,ISIC_0030508.JPG
break,html.Screen,4_79_1,2023-09-16T23:16:11.863Z,,0,,,NaN,,,,,,false,,,,509461.799999997,509461.59999999404,,509461.200000003,,509468.64,8,400,,,
break_continue,html.Screen,4_79_2,2023-09-16T23:16:11.863Z,,0,,,NaN,,,,,,false,,,,509462.200000003,509462,,509462,,509468.64,8,400,,,
sequence,flow.Sequence,4_79,2023-09-16T23:16:11.863Z,,0,,,3261.267999999982,completion,,,,,false,,,,509462.299999997,509462,506184.059,506193.700000003,506200.732,509468.64,8,400,,,
trial,html.Screen,4_80_0,2023-09-16T23:16:15.508Z,,0,2,,3637.659999997006,response,ISIC_6119830.JPG,7,ISIC_0059341.JPG,ISIC_6119830.JPG,false,1,keypress(m),500,513106.700000003,513106.299999997,509451.967,509462.39999999106,509468.64,513120.027,8,400,31,,ISIC_0059341.JPG
break,html.Screen,4_80_1,2023-09-16T23:16:15.508Z,,0,,,NaN,,,,,,false,,,,513107.39999999106,513107.299999997,,513107,,513120.027,8,400,,,
break_continue,html.Screen,4_80_2,2023-09-16T23:16:15.509Z,,0,,,NaN,,,,,,false,,,,513107.799999997,513107.700000003,,513107.5,,513120.027,8,400,,,
sequence,flow.Sequence,4_80,2023-09-16T23:16:15.509Z,,0,,,3639.0600000029663,completion,,,,,false,,,,513108,513107.700000003,509451.967,509462.39999999106,509468.64,513120.027,8,400,,,
trial,html.Screen,4_81_0,2023-09-16T23:16:18.741Z,,0,2,,3219.5729999940377,response,ISIC_8687105.JPG,6,ISIC_0069273.JPG,ISIC_0069273.JPG,false,0,keypress(z),500,516339.89999999106,516339.59999999404,513103.354,513108.09999999404,513120.027,516354.709,8,400,32,,ISIC_8687105.JPG
break,html.Screen,4_81_1,2023-09-16T23:16:18.742Z,,0,,,NaN,,,,,,false,,,,516340.799999997,516340.5,,516340.09999999404,,516354.709,8,400,,,
break_continue,html.Screen,4_81_2,2023-09-16T23:16:18.742Z,,0,,,NaN,,,,,,false,,,,516341.200000003,516341,,516340.89999999106,,516354.709,8,400,,,
sequence,flow.Sequence,4_81,2023-09-16T23:16:18.742Z,,0,,,3220.972999999998,completion,,,,,false,,,,516341.299999997,516341,513103.354,513108.09999999404,513120.027,516354.709,8,400,,,
trial,html.Screen,4_82_0,2023-09-16T23:16:22.518Z,,0,2,,3761.7910000000265,response,ISIC_0065727.JPG,7,ISIC_0028986.JPG,ISIC_0028986.JPG,false,0,keypress(z),500,520116.799999997,520116.5,516338.036,516341.5,516354.709,520122.807,8,400,33,,ISIC_0065727.JPG
break,html.Screen,4_82_1,2023-09-16T23:16:22.519Z,,0,,,NaN,,,,,,false,,,,520117.59999999404,520117.299999997,,520117,,520122.807,8,400,,,
break_continue,html.Screen,4_82_2,2023-09-16T23:16:22.519Z,,0,,,NaN,,,,,,false,,,,520118,520117.89999999106,,520117.799999997,,520122.807,8,400,,,
sequence,flow.Sequence,4_82,2023-09-16T23:16:22.519Z,,0,,,3763.190999991086,completion,,,,,false,,,,520118.200000003,520117.89999999106,516338.036,516341.5,516354.709,520122.807,8,400,,,
trial,html.Screen,4_83_0,2023-09-16T23:16:25.610Z,,0,2,,3086.292999994068,response,ISIC_5400609.JPG,8,ISIC_7976724.JPG,ISIC_5400609.JPG,false,1,keypress(m),500,523209.299999997,523209.09999999404,520106.134,520118.39999999106,520122.807,523223.985,8,400,34,,ISIC_7976724.JPG
break,html.Screen,4_83_1,2023-09-16T23:16:25.611Z,,0,,,NaN,,,,,,false,,,,523210.09999999404,523209.89999999106,,523209.5,,523223.985,8,400,,,
break_continue,html.Screen,4_83_2,2023-09-16T23:16:25.611Z,,0,,,NaN,,,,,,false,,,,523210.59999999404,523210.39999999106,,523210.200000003,,523223.985,8,400,,,
sequence,flow.Sequence,4_83,2023-09-16T23:16:25.612Z,,0,,,3087.5929999910877,completion,,,,,false,,,,523210.700000003,523210.39999999106,520106.134,520118.299999997,520122.807,523223.985,8,400,,,
trial,html.Screen,4_84_0,2023-09-16T23:16:28.965Z,,0,2,,3339.3149999970337,response,ISIC_0281179.JPG,5,ISIC_2323082.JPG,ISIC_0281179.JPG,false,1,keypress(m),500,526563.700000003,526563.299999997,523207.312,523210.89999999106,523223.985,526575.378,8,400,35,,ISIC_2323082.JPG
break,html.Screen,4_84_1,2023-09-16T23:16:28.966Z,,0,,,NaN,,,,,,false,,,,526564.599999994,526564.5,,526564.099999994,,526575.378,8,400,,,
break_continue,html.Screen,4_84_2,2023-09-16T23:16:28.966Z,,0,,,NaN,,,,,,false,,,,526565,526565,,526564.799999997,,526575.378,8,400,,,
sequence,flow.Sequence,4_84,2023-09-16T23:16:28.966Z,,0,,,3341.015000000014,completion,,,,,false,,,,526565.299999997,526565,523207.312,523210.799999997,523223.985,526575.378,8,400,,,
trial,html.Screen,4_85_0,2023-09-16T23:16:31.846Z,,0,2,,2869.521999991033,response,ISIC_4699989.JPG,5,ISIC_0009868.JPG,ISIC_0009868.JPG,false,0,keypress(z),500,529445.200000003,529444.8999999911,526558.705,526565.3999999911,526575.378,529459.807,8,400,36,,ISIC_4699989.JPG
break,html.Screen,4_85_1,2023-09-16T23:16:31.847Z,,0,,,NaN,,,,,,false,,,,529446,529445.700000003,,529445.3999999911,,529459.807,8,400,,,
break_continue,html.Screen,4_85_2,2023-09-16T23:16:31.847Z,,0,,,NaN,,,,,,false,,,,529446.3999999911,529446.299999997,,529446.200000003,,529459.807,8,400,,,
sequence,flow.Sequence,4_85,2023-09-16T23:16:31.847Z,,0,,,2870.9219999969937,completion,,,,,false,,,,529446.599999994,529446.299999997,526558.705,526565.3999999911,526575.378,529459.807,8,400,,,
trial,html.Screen,4_86_0,2023-09-16T23:16:34.805Z,,0,2,,2944.3930000029504,response,ISIC_0296109.JPG,6,ISIC_9828053.JPG,ISIC_0296109.JPG,false,1,keypress(m),500,532404.5,532404.200000003,529443.134,529446.799999997,529459.807,532410.928,8,400,37,,ISIC_9828053.JPG
break,html.Screen,4_86_1,2023-09-16T23:16:34.806Z,,0,,,NaN,,,,,,false,,,,532405.299999997,532405.099999994,,532404.700000003,,532410.928,8,400,,,
break_continue,html.Screen,4_86_2,2023-09-16T23:16:34.807Z,,0,,,NaN,,,,,,false,,,,532405.799999997,532405.599999994,,532405.599999994,,532410.928,8,400,,,
sequence,flow.Sequence,4_86,2023-09-16T23:16:34.807Z,,0,,,2945.7929999940097,completion,,,,,false,,,,532405.8999999911,532405.599999994,529443.134,529446.700000003,529459.807,532410.928,8,400,,,
trial,html.Screen,4_87_0,2023-09-16T23:16:39.717Z,,0,2,,4905.272000003024,response,ISIC_4853597.JPG,8,ISIC_9950866.JPG,ISIC_4853597.JPG,false,1,keypress(m),500,537316.5,537316.200000003,532394.255,532406,532410.928,537329.584,8,400,38,,ISIC_9950866.JPG
break,html.Screen,4_87_1,2023-09-16T23:16:39.718Z,,0,,,NaN,,,,,,false,,,,537317.299999997,537317.099999994,,537316.700000003,,537329.584,8,400,,,
break_continue,html.Screen,4_87_2,2023-09-16T23:16:39.719Z,,0,,,NaN,,,,,,false,,,,537317.700000003,537317.599999994,,537317.5,,537329.584,8,400,,,
sequence,flow.Sequence,4_87,2023-09-16T23:16:39.719Z,,0,,,4906.671999994083,completion,,,,,false,,,,537317.8999999911,537317.599999994,532394.255,532406,532410.928,537329.584,8,400,,,
trial,html.Screen,4_88_0,2023-09-16T23:16:43.035Z,,0,2,,3303.9159999999683,response,ISIC_0010879.JPG,8,ISIC_0056055.JPG,ISIC_0056055.JPG,false,0,keypress(z),500,540633.799999997,540633.5,537312.911,537318,537329.584,540647.511,8,400,39,,ISIC_0010879.JPG
break,html.Screen,4_88_1,2023-09-16T23:16:43.035Z,,0,,,NaN,,,,,,false,,,,540634.5,540634.299999997,,540633.8999999911,,540647.511,8,400,,,
break_continue,html.Screen,4_88_2,2023-09-16T23:16:43.036Z,,0,,,NaN,,,,,,false,,,,540635,540634.799999997,,540634.700000003,,540647.511,8,400,,,
sequence,flow.Sequence,4_88,2023-09-16T23:16:43.036Z,,0,,,3305.215999996988,completion,,,,,false,,,,540635.099999994,540634.799999997,537312.911,537318,537329.584,540647.511,8,400,,,
trial,html.Screen,4_89_0,2023-09-16T23:16:46.325Z,,0,2,,3276.0889999939827,response,ISIC_5318217.JPG,6,ISIC_0024720.JPG,ISIC_0024720.JPG,false,0,keypress(z),500,543923.8999999911,543923.599999994,540630.838,540635.200000003,540647.511,543932.092,8,400,40,,ISIC_5318217.JPG
break,html.Screen,4_89_1,2023-09-16T23:16:46.326Z,,0,,,NaN,,,,,,false,,,,543924.700000003,543924.5,,543924.099999994,,543932.092,8,400,,,
break_continue,html.Screen,4_89_2,2023-09-16T23:16:46.326Z,,0,,,NaN,,,,,,false,,,,543925.200000003,543925,,543924.8999999911,,543932.092,8,400,,,
sequence,flow.Sequence,4_89,2023-09-16T23:16:46.326Z,,0,,,3277.488999999943,completion,,,,,false,,,,543925.3999999911,543925,540630.838,540635.200000003,540647.511,543932.092,8,400,,,
trial,html.Screen,4_90_0,2023-09-16T23:16:49.722Z,,0,2,,3389.3079999911133,response,ISIC_0010690.JPG,8,ISIC_0054941.JPG,ISIC_0010690.JPG,false,1,keypress(m),500,547321.599999994,547321.3999999911,543915.419,543925.5,543932.092,547350.18,8,400,41,,ISIC_0054941.JPG
break,html.Screen,4_90_1,2023-09-16T23:16:49.723Z,,0,,,NaN,,,,,,false,,,,547322.299999997,547322.099999994,,547321.799999997,,547350.18,8,400,,,
break_continue,html.Screen,4_90_2,2023-09-16T23:16:49.723Z,,0,,,NaN,,,,,,false,,,,547322.599999994,547322.5,,547322.3999999911,,547350.18,8,400,,,
sequence,flow.Sequence,4_90,2023-09-16T23:16:49.724Z,,0,,,3390.408000000054,completion,,,,,false,,,,547322.799999997,547322.5,543915.419,543925.3999999911,543932.092,547350.18,8,400,,,
trial,html.Screen,4_91_0,2023-09-16T23:16:53.488Z,,0,2,,3737.319999999949,response,ISIC_0012512.JPG,5,ISIC_8145260.JPG,ISIC_0012512.JPG,false,1,keypress(m),500,551087.700000003,551087.5,547333.507,547323,547350.18,551101.605,8,400,42,,ISIC_8145260.JPG
break,html.Screen,4_91_1,2023-09-16T23:16:53.489Z,,0,,,NaN,,,,,,false,,,,551088.099999994,551088,,551087.700000003,,551101.605,8,400,,,
break_continue,html.Screen,4_91_2,2023-09-16T23:16:53.489Z,,0,,,NaN,,,,,,false,,,,551088.200000003,551088.200000003,,551088.200000003,,551101.605,8,400,,,
sequence,flow.Sequence,4_91,2023-09-16T23:16:53.489Z,,0,,,3738.020000002929,completion,,,,,false,,,,551088.3999999911,551088.200000003,547333.507,547322.8999999911,547350.18,551101.605,8,400,,,
trial,html.Screen,4_92_0,2023-09-16T23:16:57.315Z,,0,2,,3812.294999991078,response,ISIC_5037784.JPG,8,ISIC_0068696.JPG,ISIC_0068696.JPG,false,0,keypress(z),500,554914.099999994,554913.8999999911,551084.932,551088.3999999911,551101.605,554919.722,8,400,43,,ISIC_5037784.JPG
break,html.Screen,4_92_1,2023-09-16T23:16:57.315Z,,0,,,NaN,,,,,,false,,,,554914.599999994,554914.5,,554914.200000003,,554919.722,8,400,,,
break_continue,html.Screen,4_92_2,2023-09-16T23:16:57.315Z,,0,,,NaN,,,,,,false,,,,554914.799999997,554914.700000003,,554914.599999994,,554919.722,8,400,,,
sequence,flow.Sequence,4_92,2023-09-16T23:16:57.316Z,,0,,,3813.095000002999,completion,,,,,false,,,,554914.799999997,554914.700000003,551084.932,551088.3999999911,551101.605,554919.722,8,400,,,
trial,html.Screen,4_93_0,2023-09-16T23:17:00.552Z,,0,2,,3230.9780000030296,response,ISIC_4509925.JPG,6,ISIC_2438917.JPG,ISIC_4509925.JPG,false,1,keypress(m),500,558150.8999999911,558150.700000003,554903.049,554915,554919.722,558171.079,8,400,44,,ISIC_2438917.JPG
break,html.Screen,4_93_1,2023-09-16T23:17:00.552Z,,0,,,NaN,,,,,,false,,,,558151.599999994,558151.5,,558151.200000003,,558171.079,8,400,,,
break_continue,html.Screen,4_93_2,2023-09-16T23:17:00.553Z,,0,,,NaN,,,,,,false,,,,558152.099999994,558151.8999999911,,558151.8999999911,,558171.079,8,400,,,
sequence,flow.Sequence,4_93,2023-09-16T23:17:00.553Z,,0,,,3232.1779999911087,completion,,,,,false,,,,558152.299999997,558151.8999999911,554903.049,554914.8999999911,554919.722,558171.079,8,400,,,
trial,html.Screen,4_94_0,2023-09-16T23:17:04.027Z,,0,2,,3455.121000002953,response,ISIC_0024911.JPG,5,ISIC_3685448.JPG,ISIC_0024911.JPG,false,1,keypress(m),500,561626.5,561626.200000003,558154.406,558152.3999999911,558171.079,561639.063,8,400,45,,ISIC_3685448.JPG
break,html.Screen,4_94_1,2023-09-16T23:17:04.028Z,,0,,,NaN,,,,,,false,,,,561627.200000003,561627,,561626.599999994,,561639.063,8,400,,,
break_continue,html.Screen,4_94_2,2023-09-16T23:17:04.028Z,,0,,,NaN,,,,,,false,,,,561627.599999994,561627.3999999911,,561627.299999997,,561639.063,8,400,,,
sequence,flow.Sequence,4_94,2023-09-16T23:17:04.028Z,,0,,,3456.3209999910323,completion,,,,,false,,,,561627.700000003,561627.3999999911,558154.406,558152.3999999911,558171.079,561639.063,8,400,,,
trial,html.Screen,4_95_0,2023-09-16T23:17:06.964Z,,0,2,,2924.3369999910938,response,ISIC_0011333.JPG,7,ISIC_1924949.JPG,ISIC_0011333.JPG,false,1,keypress(m),500,564563.700000003,564563.3999999911,561622.39,561627.799999997,561639.063,564573.511,8,400,46,,ISIC_1924949.JPG
break,html.Screen,4_95_1,2023-09-16T23:17:06.965Z,,0,,,NaN,,,,,,false,,,,564564.3999999911,564564.099999994,,564563.8999999911,,564573.511,8,400,,,
break_continue,html.Screen,4_95_2,2023-09-16T23:17:06.965Z,,0,,,NaN,,,,,,false,,,,564564.700000003,564564.5,,564564.5,,564573.511,8,400,,,
sequence,flow.Sequence,4_95,2023-09-16T23:17:06.966Z,,0,,,2925.4370000000345,completion,,,,,false,,,,564564.8999999911,564564.5,561622.39,561627.799999997,561639.063,564573.511,8,400,,,
trial,html.Screen,4_96_0,2023-09-16T23:17:10.537Z,,0,2,,3562.788999996963,response,ISIC_2565206.JPG,5,ISIC_4069690.JPG,ISIC_2565206.JPG,false,1,keypress(m),500,568136.3999999911,568136.299999997,564556.838,564565.099999994,564573.511,568158.329,8,400,47,,ISIC_4069690.JPG
break,html.Screen,4_96_1,2023-09-16T23:17:10.537Z,,0,,,NaN,,,,,,false,,,,568136.799999997,568136.799999997,,568136.5,,568158.329,8,400,,,
break_continue,html.Screen,4_96_2,2023-09-16T23:17:10.538Z,,0,,,NaN,,,,,,false,,,,568137,568136.8999999911,,568136.8999999911,,568158.329,8,400,,,
sequence,flow.Sequence,4_96,2023-09-16T23:17:10.538Z,,0,,,3563.3889999910025,completion,,,,,false,,,,568137.099999994,568136.8999999911,564556.838,564565,564573.511,568158.329,8,400,,,
trial,html.Screen,4_97_0,2023-09-16T23:17:14.091Z,,0,2,,3532.371000002953,response,ISIC_0011546.JPG,5,ISIC_0054248.JPG,ISIC_0054248.JPG,false,0,keypress(z),500,571690.8999999911,571690.700000003,568141.656,568137.200000003,568158.329,571709.678,8,400,48,,ISIC_0011546.JPG
break,html.Screen,4_97_1,2023-09-16T23:17:14.092Z,,0,,,NaN,,,,,,false,,,,571691.299999997,571691.200000003,,571691,,571709.678,8,400,,,
break_continue,html.Screen,4_97_2,2023-09-16T23:17:14.092Z,,0,,,NaN,,,,,,false,,,,571691.5,571691.5,,571691.3999999911,,571709.678,8,400,,,
sequence,flow.Sequence,4_97,2023-09-16T23:17:14.092Z,,0,,,3533.170999999973,completion,,,,,false,,,,571691.599999994,571691.5,568141.656,568137.200000003,568158.329,571709.678,8,400,,,
trial,html.Screen,4_98_0,2023-09-16T23:17:18.299Z,,0,2,,4188.721999991103,response,ISIC_0058836.JPG,7,ISIC_0067333.JPG,ISIC_0067333.JPG,false,0,keypress(z),500,575898.700000003,575898.3999999911,571693.005,571691.700000003,571709.678,575911.274,8,400,49,,ISIC_0058836.JPG
break,html.Screen,4_98_1,2023-09-16T23:17:18.300Z,,0,,,NaN,,,,,,false,,,,575899.3999999911,575899.200000003,,575898.8999999911,,575911.274,8,400,,,
break_continue,html.Screen,4_98_2,2023-09-16T23:17:18.300Z,,0,,,NaN,,,,,,false,,,,575899.700000003,575899.599999994,,575899.5,,575911.274,8,400,,,
sequence,flow.Sequence,4_98,2023-09-16T23:17:18.300Z,,0,,,4189.921999994083,completion,,,,,false,,,,575899.8999999911,575899.599999994,571693.005,571691.700000003,571709.678,575911.274,8,400,,,
trial,html.Screen,4_99_0,2023-09-16T23:17:22.415Z,,0,2,,4102.825999994064,response,ISIC_6571597.JPG,8,ISIC_0060626.JPG,ISIC_6571597.JPG,false,1,keypress(m),500,580014.299999997,580014.099999994,575894.601,575900,575911.274,580029.626,8,400,50,,ISIC_0060626.JPG
break,html.Screen,4_99_1,2023-09-16T23:17:32.418Z,,0,,,10003.917999999947,timeout,,,,,false,,,,590017.700000003,590016.871,580012.953,580014.5,580029.626,590033.544,8,400,,,
break_continue,html.Screen,4_99_2,2023-09-16T23:26:01.530Z,,0,,,509069.05599999405,response,,,,,false,continue,keypress(Space),,1099132.700000003,1099102.599999994,590016.871,590017.799999997,590033.544,1099146.449,8,400,,,
sequence,flow.Sequence,4_99,2023-09-16T23:26:01.530Z,,0,,,523191.32599999406,completion,,,,,false,,,,1099132.799999997,1099102.599999994,575894.601,575899.8999999911,575911.274,1099146.449,8,400,,,
trial,html.Screen,4_100_0,2023-09-16T23:26:04.941Z,,0,3,,3397.251000002958,response,ISIC_0057328.JPG,5,ISIC_0026239.JPG,ISIC_0057328.JPG,false,1,keypress(m),500,1102544,1102543.700000003,1099129.776,1099132.899999991,1099146.449,1102550.899,8,400,1,,ISIC_0026239.JPG
break,html.Screen,4_100_1,2023-09-16T23:26:04.942Z,,0,,,NaN,,,,,,false,,,,1102544.5,1102544.299999997,,1102544.099999994,,1102550.899,8,400,,,
break_continue,html.Screen,4_100_2,2023-09-16T23:26:04.942Z,,0,,,NaN,,,,,,false,,,,1102544.599999994,1102544.5,,1102544.5,,1102550.899,8,400,,,
sequence,flow.Sequence,4_100,2023-09-16T23:26:04.942Z,,0,,,3398.0509999999776,completion,,,,,false,,,,1102544.799999997,1102544.5,1099129.776,1099132.899999991,1099146.449,1102550.899,8,400,,,
trial,html.Screen,4_101_0,2023-09-16T23:26:07.970Z,,0,3,,3021.900999997044,response,ISIC_6685513.JPG,6,ISIC_3651451.JPG,ISIC_3651451.JPG,false,0,keypress(z),500,1105573.099999994,1105572.799999997,1102534.226,1102544.799999997,1102550.899,1105585.385,8,400,2,,ISIC_6685513.JPG
break,html.Screen,4_101_1,2023-09-16T23:26:07.971Z,,0,,,NaN,,,,,,false,,,,1105574,1105573.799999997,,1105573.299999997,,1105585.385,8,400,,,
break_continue,html.Screen,4_101_2,2023-09-16T23:26:07.971Z,,0,,,NaN,,,,,,false,,,,1105574.399999991,1105574.200000003,,1105574.099999994,,1105585.385,8,400,,,
sequence,flow.Sequence,4_101,2023-09-16T23:26:07.972Z,,0,,,3023.3010000030044,completion,,,,,false,,,,1105574.700000003,1105574.200000003,1102534.226,1102544.799999997,1102550.899,1105585.385,8,400,,,
trial,html.Screen,4_102_0,2023-09-16T23:26:14.543Z,,0,3,,6560.71499999403,response,ISIC_8363485.JPG,4,ISIC_0231745.JPG,ISIC_8363485.JPG,false,1,keypress(m),500,1112146.399999991,1112146.099999994,1105568.712,1105574.799999997,1105585.385,1112154.695,8,400,3,,ISIC_0231745.JPG
break,html.Screen,4_102_1,2023-09-16T23:26:14.544Z,,0,,,NaN,,,,,,false,,,,1112147.099999994,1112146.899999991,,1112146.599999994,,1112154.695,8,400,,,
break_continue,html.Screen,4_102_2,2023-09-16T23:26:14.544Z,,0,,,NaN,,,,,,false,,,,1112147.299999997,1112147.200000003,,1112147.099999994,,1112154.695,8,400,,,
sequence,flow.Sequence,4_102,2023-09-16T23:26:14.545Z,,0,,,6561.815000002971,completion,,,,,false,,,,1112147.5,1112147.200000003,1105568.712,1105574.700000003,1105585.385,1112154.695,8,400,,,
trial,html.Screen,4_103_0,2023-09-16T23:26:18.920Z,,0,3,,4368.304999999935,response,ISIC_2844085.JPG,6,ISIC_0055731.JPG,ISIC_0055731.JPG,false,0,keypress(z),500,1116523.200000003,1116523,1112138.022,1112147.700000003,1112154.695,1116539.694,8,400,4,,ISIC_2844085.JPG
break,html.Screen,4_103_1,2023-09-16T23:26:18.921Z,,0,,,NaN,,,,,,false,,,,1116524,1116523.799999997,,1116523.5,,1116539.694,8,400,,,
break_continue,html.Screen,4_103_2,2023-09-16T23:26:18.921Z,,0,,,NaN,,,,,,false,,,,1116524.299999997,1116524.200000003,,1116524.099999994,,1116539.694,8,400,,,
sequence,flow.Sequence,4_103,2023-09-16T23:26:18.922Z,,0,,,4369.505000002915,completion,,,,,false,,,,1116524.5,1116524.200000003,1112138.022,1112147.700000003,1112154.695,1116539.694,8,400,,,
trial,html.Screen,4_104_0,2023-09-16T23:26:22.303Z,,0,3,,3366.3060000000987,response,ISIC_0016092.JPG,7,ISIC_2967024.JPG,ISIC_2967024.JPG,false,0,keypress(z),500,1119906.200000003,1119906,1116523.021,1116524.599999994,1116539.694,1119907.64,8,400,5,,ISIC_0016092.JPG
break,html.Screen,4_104_1,2023-09-16T23:26:22.304Z,,0,,,NaN,,,,,,false,,,,1119906.899999991,1119906.700000003,,1119906.5,,1119907.64,8,400,,,
break_continue,html.Screen,4_104_2,2023-09-16T23:26:22.304Z,,0,,,NaN,,,,,,false,,,,1119907.200000003,1119907.200000003,,1119907.099999994,,1119907.64,8,400,,,
sequence,flow.Sequence,4_104,2023-09-16T23:26:22.304Z,,0,,,3367.506000003079,completion,,,,,false,,,,1119907.399999991,1119907.200000003,1116523.021,1116524.599999994,1116539.694,1119907.64,8,400,,,
trial,html.Screen,4_105_0,2023-09-16T23:26:25.235Z,,0,3,,2930.2599999911617,response,ISIC_0205127.JPG,5,ISIC_9720518.JPG,ISIC_0205127.JPG,false,1,keypress(m),500,1122838.200000003,1122837.899999991,1119890.967,1119907.5,1119907.64,1122842.209,8,400,6,,ISIC_9720518.JPG
break,html.Screen,4_105_1,2023-09-16T23:26:25.236Z,,0,,,NaN,,,,,,false,,,,1122838.899999991,1122838.799999997,,1122838.399999991,,1122842.209,8,400,,,
break_continue,html.Screen,4_105_2,2023-09-16T23:26:25.236Z,,0,,,NaN,,,,,,false,,,,1122839.299999997,1122839.099999994,,1122839,,1122842.209,8,400,,,
sequence,flow.Sequence,4_105,2023-09-16T23:26:25.236Z,,0,,,2931.459999994142,completion,,,,,false,,,,1122839.5,1122839.099999994,1119890.967,1119907.399999991,1119907.64,1122842.209,8,400,,,
trial,html.Screen,4_106_0,2023-09-16T23:26:28.648Z,,0,3,,3408.6909999910276,response,ISIC_6813359.JPG,5,ISIC_2456538.JPG,ISIC_6813359.JPG,false,1,keypress(m),500,1126251.099999994,1126250.899999991,1122825.536,1122839.599999994,1122842.209,1126260.174,8,400,7,,ISIC_2456538.JPG
break,html.Screen,4_106_1,2023-09-16T23:26:28.649Z,,0,,,NaN,,,,,,false,,,,1126251.799999997,1126251.599999994,,1126251.299999997,,1126260.174,8,400,,,
break_continue,html.Screen,4_106_2,2023-09-16T23:26:28.649Z,,0,,,NaN,,,,,,false,,,,1126252.099999994,1126252,,1126251.899999991,,1126260.174,8,400,,,
sequence,flow.Sequence,4_106,2023-09-16T23:26:28.649Z,,0,,,3409.7909999999683,completion,,,,,false,,,,1126252.200000003,1126252,1122825.536,1122839.5,1122842.209,1126260.174,8,400,,,
trial,html.Screen,4_107_0,2023-09-16T23:26:32.795Z,,0,3,,4137.725999990944,response,ISIC_0032836.JPG,6,ISIC_1522266.JPG,ISIC_0032836.JPG,false,1,keypress(m),500,1130398.099999994,1130397.899999991,1126243.501,1126252.299999997,1126260.174,1130411.751,8,400,8,,ISIC_1522266.JPG
break,html.Screen,4_107_1,2023-09-16T23:26:32.796Z,,0,,,NaN,,,,,,false,,,,1130398.899999991,1130398.700000003,,1130398.299999997,,1130411.751,8,400,,,
break_continue,html.Screen,4_107_2,2023-09-16T23:26:32.796Z,,0,,,NaN,,,,,,false,,,,1130399.399999991,1130399.299999997,,1130399.099999994,,1130411.751,8,400,,,
sequence,flow.Sequence,4_107,2023-09-16T23:26:32.797Z,,0,,,4139.125999996904,completion,,,,,false,,,,1130399.599999994,1130399.299999997,1126243.501,1126252.299999997,1126260.174,1130411.751,8,400,,,
trial,html.Screen,4_108_0,2023-09-16T23:26:37.376Z,,0,3,,4567.749000000069,response,ISIC_8497457.JPG,9,ISIC_0028071.JPG,ISIC_8497457.JPG,false,1,keypress(m),500,1134979.599999994,1134979.5,1130395.078,1130399.700000003,1130411.751,1134996.952,8,400,9,,ISIC_0028071.JPG
break,html.Screen,4_108_1,2023-09-16T23:26:37.377Z,,0,,,NaN,,,,,,false,,,,1134980,1134979.899999991,,1134979.700000003,,1134996.952,8,400,,,
break_continue,html.Screen,4_108_2,2023-09-16T23:26:37.377Z,,0,,,NaN,,,,,,false,,,,1134980.200000003,1134980.099999994,,1134980.099999994,,1134996.952,8,400,,,
sequence,flow.Sequence,4_108,2023-09-16T23:26:37.377Z,,0,,,4568.348999994108,completion,,,,,false,,,,1134980.200000003,1134980.099999994,1130395.078,1130399.599999994,1130411.751,1134996.952,8,400,,,
trial,html.Screen,4_109_0,2023-09-16T23:26:41.780Z,,0,3,,4386.147999993991,response,ISIC_0027171.JPG,5,ISIC_0059569.JPG,ISIC_0059569.JPG,false,0,keypress(z),500,1139383.200000003,1139383.099999994,1134980.279,1134980.399999991,1134996.952,1139398.624,8,400,10,,ISIC_0027171.JPG
break,html.Screen,4_109_1,2023-09-16T23:26:41.781Z,,0,,,NaN,,,,,,false,,,,1139383.799999997,1139383.700000003,,1139383.5,,1139398.624,8,400,,,
break_continue,html.Screen,4_109_2,2023-09-16T23:26:41.781Z,,0,,,NaN,,,,,,false,,,,1139384.099999994,1139384,,1139383.899999991,,1139398.624,8,400,,,
sequence,flow.Sequence,4_109,2023-09-16T23:26:41.781Z,,0,,,4387.047999999952,completion,,,,,false,,,,1139384.200000003,1139384,1134980.279,1134980.399999991,1134996.952,1139398.624,8,400,,,
trial,html.Screen,4_110_0,2023-09-16T23:26:44.928Z,,0,3,,3132.675999996951,response,ISIC_1484659.JPG,6,ISIC_2954564.JPG,ISIC_1484659.JPG,false,1,keypress(m),500,1142531.5,1142531.299999997,1139381.951,1139384.299999997,1139398.624,1142533.148,8,400,11,,ISIC_2954564.JPG
break,html.Screen,4_110_1,2023-09-16T23:26:44.929Z,,0,,,NaN,,,,,,false,,,,1142532.200000003,1142532.099999994,,1142531.799999997,,1142533.148,8,400,,,
break_continue,html.Screen,4_110_2,2023-09-16T23:26:44.929Z,,0,,,NaN,,,,,,false,,,,1142532.599999994,1142532.5,,1142532.399999991,,1142533.148,8,400,,,
sequence,flow.Sequence,4_110,2023-09-16T23:26:44.930Z,,0,,,3133.875999999931,completion,,,,,false,,,,1142532.700000003,1142532.5,1139381.951,1139384.299999997,1139398.624,1142533.148,8,400,,,
trial,html.Screen,4_111_0,2023-09-16T23:26:48.567Z,,0,3,,3635.8519999999553,response,ISIC_4619903.JPG,5,ISIC_3464344.JPG,ISIC_4619903.JPG,false,1,keypress(m),500,1146169.799999997,1146169,1142516.475,1142532.799999997,1142533.148,1146184.663,8,400,12,,ISIC_3464344.JPG
break,html.Screen,4_111_1,2023-09-16T23:26:48.569Z,,0,,,NaN,,,,,,false,,,,1146172,1146171.599999994,,1146170.899999991,,1146184.663,8,400,,,
break_continue,html.Screen,4_111_2,2023-09-16T23:26:48.570Z,,0,,,NaN,,,,,,false,,,,1146173,1146172.799999997,,1146172.700000003,,1146184.663,8,400,,,
sequence,flow.Sequence,4_111,2023-09-16T23:26:48.570Z,,0,,,3639.651999996975,completion,,,,,false,,,,1146173,1146172.799999997,1142516.475,1142532.799999997,1142533.148,1146184.663,8,400,,,
trial,html.Screen,4_112_0,2023-09-16T23:26:51.839Z,,0,3,,3257.736999991117,response,ISIC_7765349.JPG,5,ISIC_0061884.JPG,ISIC_0061884.JPG,false,0,keypress(z),500,1149442.599999994,1149442.399999991,1146167.99,1146173.099999994,1146184.663,1149452.571,8,400,13,,ISIC_7765349.JPG
break,html.Screen,4_112_1,2023-09-16T23:26:51.840Z,,0,,,NaN,,,,,,false,,,,1149443.099999994,1149442.899999991,,1149442.799999997,,1149452.571,8,400,,,
break_continue,html.Screen,4_112_2,2023-09-16T23:26:51.840Z,,0,,,NaN,,,,,,false,,,,1149443.299999997,1149443.200000003,,1149443.099999994,,1149452.571,8,400,,,
sequence,flow.Sequence,4_112,2023-09-16T23:26:51.840Z,,0,,,3258.537000003038,completion,,,,,false,,,,1149443.5,1149443.200000003,1146167.99,1146173.099999994,1146184.663,1149452.571,8,400,,,
trial,html.Screen,4_113_0,2023-09-16T23:26:56.786Z,,0,3,,4936.2289999970235,response,ISIC_0501843.JPG,5,ISIC_2930792.JPG,ISIC_0501843.JPG,false,1,keypress(m),500,1154389.099999994,1154388.799999997,1149435.898,1149443.5,1149452.571,1154404.573,8,400,14,,ISIC_2930792.JPG
break,html.Screen,4_113_1,2023-09-16T23:26:56.786Z,,0,,,NaN,,,,,,false,,,,1154389.700000003,1154389.599999994,,1154389.200000003,,1154404.573,8,400,,,
break_continue,html.Screen,4_113_2,2023-09-16T23:26:56.787Z,,0,,,NaN,,,,,,false,,,,1154390,1154389.899999991,,1154389.799999997,,1154404.573,8,400,,,
sequence,flow.Sequence,4_113,2023-09-16T23:26:56.787Z,,0,,,4937.328999991063,completion,,,,,false,,,,1154390.099999994,1154389.899999991,1149435.898,1149443.5,1149452.571,1154404.573,8,400,,,
trial,html.Screen,4_114_0,2023-09-16T23:26:59.951Z,,0,3,,3149.7269999969285,response,ISIC_7287303.JPG,5,ISIC_0065181.JPG,ISIC_0065181.JPG,false,0,keypress(z),500,1157554.599999994,1157554.299999997,1154387.9,1154390.200000003,1154404.573,1157555.77,8,400,15,,ISIC_7287303.JPG
break,html.Screen,4_114_1,2023-09-16T23:26:59.952Z,,0,,,NaN,,,,,,false,,,,1157555.200000003,1157555.099999994,,1157554.799999997,,1157555.77,8,400,,,
break_continue,html.Screen,4_114_2,2023-09-16T23:26:59.952Z,,0,,,NaN,,,,,,false,,,,1157555.5,1157555.299999997,,1157555.200000003,,1157555.77,8,400,,,
sequence,flow.Sequence,4_114,2023-09-16T23:26:59.952Z,,0,,,3150.7269999969285,completion,,,,,false,,,,1157555.5,1157555.299999997,1154387.9,1154390.200000003,1154404.573,1157555.77,8,400,,,
trial,html.Screen,4_115_0,2023-09-16T23:27:03.955Z,,0,3,,4002.4300000029616,response,ISIC_8479104.JPG,5,ISIC_0013707.JPG,ISIC_0013707.JPG,false,0,keypress(z),500,1161558.5,1161558.200000003,1157539.097,1157555.700000003,1157555.77,1161573.963,8,400,16,,ISIC_8479104.JPG
break,html.Screen,4_115_1,2023-09-16T23:27:03.956Z,,0,,,NaN,,,,,,false,,,,1161559.200000003,1161559,,1161558.700000003,,1161573.963,8,400,,,
break_continue,html.Screen,4_115_2,2023-09-16T23:27:03.956Z,,0,,,NaN,,,,,,false,,,,1161559.599999994,1161559.5,,1161559.399999991,,1161573.963,8,400,,,
sequence,flow.Sequence,4_115,2023-09-16T23:27:03.956Z,,0,,,4003.7299999999814,completion,,,,,false,,,,1161559.799999997,1161559.5,1157539.097,1157555.700000003,1157555.77,1161573.963,8,400,,,
trial,html.Screen,4_116_0,2023-09-16T23:27:08.319Z,,0,3,,4347.737000002991,response,ISIC_1985763.JPG,7,ISIC_9929097.JPG,ISIC_9929097.JPG,false,0,keypress(z),500,1165921.799999997,1165921.700000003,1161557.29,1161559.899999991,1161573.963,1165925.738,8,400,17,,ISIC_1985763.JPG
break,html.Screen,4_116_1,2023-09-16T23:27:08.319Z,,0,,,NaN,,,,,,false,,,,1165922.5,1165922.399999991,,1165922.099999994,,1165925.738,8,400,,,
break_continue,html.Screen,4_116_2,2023-09-16T23:27:08.320Z,,0,,,NaN,,,,,,false,,,,1165922.899999991,1165922.799999997,,1165922.700000003,,1165925.738,8,400,,,
sequence,flow.Sequence,4_116,2023-09-16T23:27:08.320Z,,0,,,4348.836999997031,completion,,,,,false,,,,1165923.200000003,1165922.799999997,1161557.29,1161559.899999991,1161573.963,1165925.738,8,400,,,
trial,html.Screen,4_117_0,2023-09-16T23:27:13.016Z,,0,3,,4693.061999997124,response,ISIC_0058138.JPG,4,ISIC_0010466.JPG,ISIC_0058138.JPG,false,1,keypress(m),500,1170619,1170618.799999997,1165909.065,1165923.200000003,1165925.738,1170627.524,8,400,18,,ISIC_0010466.JPG
break,html.Screen,4_117_1,2023-09-16T23:27:13.016Z,,0,,,NaN,,,,,,false,,,,1170619.700000003,1170619.5,,1170619.200000003,,1170627.524,8,400,,,
break_continue,html.Screen,4_117_2,2023-09-16T23:27:13.017Z,,0,,,NaN,,,,,,false,,,,1170620,1170619.899999991,,1170619.799999997,,1170627.524,8,400,,,
sequence,flow.Sequence,4_117,2023-09-16T23:27:13.017Z,,0,,,4694.161999991164,completion,,,,,false,,,,1170620.099999994,1170619.899999991,1165909.065,1165923.200000003,1165925.738,1170627.524,8,400,,,
trial,html.Screen,4_118_0,2023-09-16T23:27:20.135Z,,0,3,,7110.676000003004,response,ISIC_4272317.JPG,5,ISIC_6496370.JPG,ISIC_6496370.JPG,false,0,keypress(z),500,1177738.5,1177738.200000003,1170610.851,1170620.200000003,1170627.524,1177747.03,8,400,19,,ISIC_4272317.JPG
break,html.Screen,4_118_1,2023-09-16T23:27:20.136Z,,0,,,NaN,,,,,,false,,,,1177739,1177738.899999991,,1177738.700000003,,1177747.03,8,400,,,
break_continue,html.Screen,4_118_2,2023-09-16T23:27:20.136Z,,0,,,NaN,,,,,,false,,,,1177739.299999997,1177739.200000003,,1177739.200000003,,1177747.03,8,400,,,
sequence,flow.Sequence,4_118,2023-09-16T23:27:20.136Z,,0,,,7111.676000003004,completion,,,,,false,,,,1177739.5,1177739.200000003,1170610.851,1170620.200000003,1170627.524,1177747.03,8,400,,,
trial,html.Screen,4_119_0,2023-09-16T23:27:25.116Z,,0,3,,4972.069999994012,response,ISIC_4643298.JPG,5,ISIC_0032945.JPG,ISIC_4643298.JPG,false,1,keypress(m),500,1182719.399999991,1182719.099999994,1177730.357,1177739.599999994,1177747.03,1182732.257,8,400,20,,ISIC_0032945.JPG
break,html.Screen,4_119_1,2023-09-16T23:27:25.117Z,,0,,,NaN,,,,,,false,,,,1182720.099999994,1182719.899999991,,1182719.599999994,,1182732.257,8,400,,,
break_continue,html.Screen,4_119_2,2023-09-16T23:27:25.117Z,,0,,,NaN,,,,,,false,,,,1182720.5,1182720.399999991,,1182720.200000003,,1182732.257,8,400,,,
sequence,flow.Sequence,4_119,2023-09-16T23:27:25.117Z,,0,,,4973.369999991031,completion,,,,,false,,,,1182720.700000003,1182720.399999991,1177730.357,1177739.5,1177747.03,1182732.257,8,400,,,
trial,html.Screen,4_120_0,2023-09-16T23:27:28.832Z,,0,3,,3703.0429999970365,response,ISIC_0033801.JPG,5,ISIC_0068837.JPG,ISIC_0068837.JPG,false,0,keypress(z),500,1186435.5,1186435.299999997,1182715.584,1182720.799999997,1182732.257,1186450.456,8,400,21,,ISIC_0033801.JPG
break,html.Screen,4_120_1,2023-09-16T23:27:28.833Z,,0,,,NaN,,,,,,false,,,,1186436.299999997,1186436,,1186435.599999994,,1186450.456,8,400,,,
break_continue,html.Screen,4_120_2,2023-09-16T23:27:28.833Z,,0,,,NaN,,,,,,false,,,,1186436.5,1186436.399999991,,1186436.399999991,,1186450.456,8,400,,,
sequence,flow.Sequence,4_120,2023-09-16T23:27:28.833Z,,0,,,3704.142999991076,completion,,,,,false,,,,1186436.700000003,1186436.399999991,1182715.584,1182720.799999997,1182732.257,1186450.456,8,400,,,
trial,html.Screen,4_121_0,2023-09-16T23:27:31.902Z,,0,3,,3055.143999994034,response,ISIC_0010754.JPG,4,ISIC_4045323.JPG,ISIC_0010754.JPG,false,1,keypress(m),500,1189505.799999997,1189505.599999994,1186433.783,1186436.799999997,1186450.456,1189518.288,8,400,22,,ISIC_4045323.JPG
break,html.Screen,4_121_1,2023-09-16T23:27:31.903Z,,0,,,NaN,,,,,,false,,,,1189506.5,1189506.299999997,,1189505.899999991,,1189518.288,8,400,,,
break_continue,html.Screen,4_121_2,2023-09-16T23:27:31.903Z,,0,,,NaN,,,,,,false,,,,1189506.899999991,1189506.700000003,,1189506.700000003,,1189518.288,8,400,,,
sequence,flow.Sequence,4_121,2023-09-16T23:27:31.904Z,,0,,,3056.2440000029746,completion,,,,,false,,,,1189507.099999994,1189506.700000003,1186433.783,1186436.700000003,1186450.456,1189518.288,8,400,,,
trial,html.Screen,4_122_0,2023-09-16T23:27:34.818Z,,0,3,,2903.2120000000577,response,ISIC_0034150.JPG,8,ISIC_5150200.JPG,ISIC_0034150.JPG,false,1,keypress(m),500,1192421.799999997,1192421.5,1189501.615,1189507.200000003,1189518.288,1192436.063,8,400,23,,ISIC_5150200.JPG
break,html.Screen,4_122_1,2023-09-16T23:27:34.819Z,,0,,,NaN,,,,,,false,,,,1192422.700000003,1192422.399999991,,1192422,,1192436.063,8,400,,,
break_continue,html.Screen,4_122_2,2023-09-16T23:27:34.820Z,,0,,,NaN,,,,,,false,,,,1192423.099999994,1192422.899999991,,1192422.799999997,,1192436.063,8,400,,,
sequence,flow.Sequence,4_122,2023-09-16T23:27:34.820Z,,0,,,2904.611999991117,completion,,,,,false,,,,1192423.200000003,1192422.899999991,1189501.615,1189507.200000003,1189518.288,1192436.063,8,400,,,
trial,html.Screen,4_123_0,2023-09-16T23:27:38.447Z,,0,3,,3614.5369999939576,response,ISIC_9851899.JPG,5,ISIC_5994007.JPG,ISIC_5994007.JPG,false,0,keypress(z),500,1196050.799999997,1196050.599999994,1192419.39,1192423.399999991,1192436.063,1196054.104,8,400,24,,ISIC_9851899.JPG
break,html.Screen,4_123_1,2023-09-16T23:27:38.448Z,,0,,,NaN,,,,,,false,,,,1196051.599999994,1196051.399999991,,1196051,,1196054.104,8,400,,,
break_continue,html.Screen,4_123_2,2023-09-16T23:27:38.448Z,,0,,,NaN,,,,,,false,,,,1196052,1196051.799999997,,1196051.799999997,,1196054.104,8,400,,,
sequence,flow.Sequence,4_123,2023-09-16T23:27:38.449Z,,0,,,3615.736999996938,completion,,,,,false,,,,1196052.099999994,1196051.799999997,1192419.39,1192423.299999997,1192436.063,1196054.104,8,400,,,
trial,html.Screen,4_124_0,2023-09-16T23:27:41.607Z,,0,3,,3156.295999991009,response,ISIC_0071335.JPG,7,ISIC_0029459.JPG,ISIC_0071335.JPG,false,1,keypress(m),500,1199210.599999994,1199210.399999991,1196037.431,1196052.299999997,1196054.104,1199222.093,8,400,25,,ISIC_0029459.JPG
break,html.Screen,4_124_1,2023-09-16T23:27:41.608Z,,0,,,NaN,,,,,,false,,,,1199211.200000003,1199211.099999994,,1199210.799999997,,1199222.093,8,400,,,
break_continue,html.Screen,4_124_2,2023-09-16T23:27:41.608Z,,0,,,NaN,,,,,,false,,,,1199211.5,1199211.399999991,,1199211.299999997,,1199222.093,8,400,,,
sequence,flow.Sequence,4_124,2023-09-16T23:27:41.608Z,,0,,,3157.295999991009,completion,,,,,false,,,,1199211.700000003,1199211.399999991,1196037.431,1196052.299999997,1196054.104,1199222.093,8,400,,,
trial,html.Screen,4_125_0,2023-09-16T23:27:44.926Z,,0,3,,3307.3069999909494,response,ISIC_0032440.JPG,4,ISIC_1790808.JPG,ISIC_0032440.JPG,false,1,keypress(m),500,1202529.700000003,1202529.399999991,1199205.42,1199211.799999997,1199222.093,1202540.02,8,400,26,,ISIC_1790808.JPG
break,html.Screen,4_125_1,2023-09-16T23:27:44.927Z,,0,,,NaN,,,,,,false,,,,1202530.700000003,1202530.399999991,,1202530.099999994,,1202540.02,8,400,,,
break_continue,html.Screen,4_125_2,2023-09-16T23:27:44.928Z,,0,,,NaN,,,,,,false,,,,1202531.099999994,1202531,,1202530.799999997,,1202540.02,8,400,,,
sequence,flow.Sequence,4_125,2023-09-16T23:27:44.928Z,,0,,,3308.90699999989,completion,,,,,false,,,,1202531.299999997,1202531,1199205.42,1199211.700000003,1199222.093,1202540.02,8,400,,,
