sender,sender_type,sender_id,timestamp,meta,,blockNo,condition,duration,ended_on,img_left,img_reveal,img_right,loser,practice,response,response_action,selection_duration,time_commit,time_end,time_render,time_run,time_show,time_switch,total_blocks,total_trials,trialNo,url,winner
informed_consent,html.Screen,0,2023-05-01T20:10:06.277Z,"{""labjs_version"":""20.2.4"",""labjs_build"":{""flavor"":""production"",""commit"":""f5b4a49f956347addd546a832a3327688c2c0fef""},""location"":""https://run.pavlovia.org/MurrayBennett/melanoma-2afc/?participant=65059"",""userAgent"":""Mozilla/5.0 (Macintosh; Intel Mac OS X 10_15_7) AppleWebKit/537.36 (KHTML, like Gecko) Chrome/112.0.0.0 Safari/537.36"",""platform"":""MacIntel"",""language"":""en-US"",""locale"":""en-US"",""timeZone"":""America/Chicago"",""timezoneOffset"":300,""screen_width"":1440,""screen_height"":900,""scroll_width"":1440,""scroll_height"":635,""window_innerWidth"":1440,""window_innerHeight"":683,""devicePixelRatio"":2}",,,,33864.929000000004,response,,,,,,consent,click button,,36754.799999952316,36731,2849.405,2834.599999964237,2866.071,36781.91,,,,"{""participant"":""65059""}",
Welcome,html.Screen,1,2023-05-01T20:10:11.256Z,,,,irregular,4942.389999952313,response,,,,,,continue,click button,,41733.799999952316,41724.299999952316,36748.578,36755,36781.91,41748.926,,,,,
trial,html.Screen,2_0_0,2023-05-01T20:10:22.253Z,,0,0,,10981.074,response,ISIC_0061792.JPG,,ISIC_4679428.JPG,ISIC_0061792.JPG,true,1,keypress(m),500,52730.5,52730,41732.26,41734.19999998808,41748.926,52748.782,1,6,1,,ISIC_4679428.JPG
sequence,flow.Sequence,2_0,2023-05-01T20:10:22.254Z,,0,,,10981.074,completion,,,,,true,,,,52731.09999996424,52730,41732.26,41734.19999998808,41748.926,52748.782,1,6,,,
trial,html.Screen,2_1_0,2023-05-01T20:10:30.261Z,,0,0,,7988.617999976159,response,ISIC_0776486.JPG,,ISIC_5199497.JPG,ISIC_5199497.JPG,true,0,keypress(z),500,60737.799999952316,60737.39999997616,52732.116,52731.299999952316,52748.782,60748.462,1,6,2,,ISIC_0776486.JPG
sequence,flow.Sequence,2_1,2023-05-01T20:10:30.261Z,,0,,,7988.617999976159,completion,,,,,true,,,,60738.19999998808,60737.39999997616,52732.116,52731.299999952316,52748.782,60748.462,1,6,,,
trial,html.Screen,2_2_0,2023-05-01T20:10:33.828Z,,0,0,,3556.2379999880795,response,ISIC_2556187.JPG,,ISIC_8575776.JPG,ISIC_8575776.JPG,true,0,keypress(z),500,64304.89999997616,64304.69999998808,60731.796,60738.299999952316,60748.462,64315.289,1,6,3,,ISIC_2556187.JPG
sequence,flow.Sequence,2_2,2023-05-01T20:10:33.828Z,,0,,,3556.2379999880795,completion,,,,,true,,,,64305.39999997616,64304.69999998808,60731.796,60738.299999952316,60748.462,64315.289,1,6,,,
trial,html.Screen,2_3_0,2023-05-01T20:10:36.901Z,,0,0,,3062.711000000003,response,ISIC_8141769.JPG,,ISIC_9238366.JPG,ISIC_9238366.JPG,true,0,keypress(z),500,67378.29999995232,67378,64298.623,64305.59999996424,64315.289,67398.499,1,6,4,,ISIC_8141769.JPG
sequence,flow.Sequence,2_3,2023-05-01T20:10:36.902Z,,0,,,3062.711000000003,completion,,,,,true,,,,67378.79999995232,67378,64298.623,64305.5,64315.289,67398.499,1,6,,,
trial,html.Screen,2_4_0,2023-05-01T20:10:40.285Z,,0,0,,3363.30099995232,response,ISIC_8949026.JPG,,ISIC_9959593.JPG,ISIC_8949026.JPG,true,1,keypress(m),500,70762.09999996424,70761.79999995232,67381.833,67379.19999998808,67398.499,70765.031,1,6,5,,ISIC_9959593.JPG
sequence,flow.Sequence,2_4,2023-05-01T20:10:40.286Z,,0,,,3363.30099995232,completion,,,,,true,,,,70762.59999996424,70761.79999995232,67381.833,67379.09999996424,67398.499,70765.031,1,6,,,
trial,html.Screen,2_5_0,2023-05-01T20:10:43.238Z,,0,0,,2948.5689999642345,response,ISIC_0010479.JPG,,ISIC_0460240.JPG,ISIC_0460240.JPG,true,0,keypress(z),500,73714.39999997616,73713.59999996424,70748.365,70762.79999995232,70765.031,73731.579,1,6,6,,ISIC_0010479.JPG
sequence,flow.Sequence,2_5,2023-05-01T20:10:43.238Z,,0,,,2948.5689999642345,completion,,,,,true,,,,73714.89999997616,73713.59999996424,70748.365,70762.69999998808,70765.031,73731.579,1,6,,,
loop,flow.Loop,2,2023-05-01T20:10:43.239Z,,,,,31964.673999964238,completion,,,,,true,,,,73715.29999995232,73713.59999996424,41732.26,41734.09999996424,41748.926,73731.579,1,6,,,
exp_instructions,html.Screen,3,2023-05-01T20:10:46.610Z,,,,,3346.3209999761602,response,,,,,,continue,keypress(Space),,77086.59999996424,77077.89999997616,73714.913,73715.59999996424,73731.579,77098.111,,,,,
trial,html.Screen,4_0_0,2023-05-01T20:10:50.596Z,,0,1,,3974.188999952312,response,ISIC_4926448.JPG,,ISIC_0032187.JPG,ISIC_4926448.JPG,false,1,keypress(m),500,81072.5,81072.29999995232,77081.445,77086.89999997616,77098.111,81081.633,8,400,1,,ISIC_0032187.JPG
break,html.Screen,4_0_1,2023-05-01T20:10:50.597Z,,0,,,NaN,,,,,,false,,,,81073.89999997616,81073.5,,81072.79999995232,,81081.633,8,400,,,
break_continue,html.Screen,4_0_2,2023-05-01T20:10:50.598Z,,0,,,NaN,,,,,,false,,,,81074.79999995232,81074.39999997616,,81074.09999996424,,81081.633,8,400,,,
sequence,flow.Sequence,4_0,2023-05-01T20:10:50.599Z,,0,,,3976.2889999761537,completion,,,,,false,,,,81075.09999996424,81074.39999997616,77081.445,77086.79999995232,77098.111,81081.633,8,400,,,
trial,html.Screen,4_1_0,2023-05-01T20:10:54.672Z,,0,1,,4065.5669999880774,response,ISIC_0032190.JPG,,ISIC_0034076.JPG,ISIC_0032190.JPG,false,1,keypress(m),500,85147.89999997616,85147.19999998808,81064.967,81075.19999998808,81081.633,85164.803,8,400,2,,ISIC_0034076.JPG
break,html.Screen,4_1_1,2023-05-01T20:10:54.674Z,,0,,,NaN,,,,,,false,,,,85150.5,85149.69999998808,,85149.29999995232,,85164.803,8,400,,,
break_continue,html.Screen,4_1_2,2023-05-01T20:10:54.675Z,,0,,,NaN,,,,,,false,,,,85151.09999996424,85151,,85150.59999996424,,85164.803,8,400,,,
sequence,flow.Sequence,4_1,2023-05-01T20:10:54.675Z,,0,,,4069.3669999999984,completion,,,,,false,,,,85151.39999997616,85151,81064.967,81075.19999998808,81081.633,85164.803,8,400,,,
trial,html.Screen,4_2_0,2023-05-01T20:11:00.512Z,,0,1,,5822.697,response,ISIC_0072286.JPG,,ISIC_0026516.JPG,ISIC_0026516.JPG,false,0,keypress(z),500,90987.79999995232,90987.5,85148.137,85151.5,85164.803,90998.253,8,400,3,,ISIC_0072286.JPG
break,html.Screen,4_2_1,2023-05-01T20:11:00.513Z,,0,,,NaN,,,,,,false,,,,90989.09999996424,90988.69999998808,,90988.09999996424,,90998.253,8,400,,,
break_continue,html.Screen,4_2_2,2023-05-01T20:11:00.513Z,,0,,,NaN,,,,,,false,,,,90989.59999996424,90989.5,,90989.29999995232,,90998.253,8,400,,,
sequence,flow.Sequence,4_2,2023-05-01T20:11:00.514Z,,0,,,5824.697,completion,,,,,false,,,,90989.79999995232,90989.5,85148.137,85151.39999997616,85164.803,90998.253,8,400,,,
trial,html.Screen,4_3_0,2023-05-01T20:11:03.381Z,,0,1,,2858.946999988082,response,ISIC_0059314.JPG,,ISIC_8104064.JPG,ISIC_8104064.JPG,false,0,keypress(z),500,93857.5,93857.19999998808,90981.587,90990,90998.253,93864.805,8,400,4,,ISIC_0059314.JPG
break,html.Screen,4_3_1,2023-05-01T20:11:03.383Z,,0,,,NaN,,,,,,false,,,,93858.59999996424,93858.39999997616,,93857.69999998808,,93864.805,8,400,,,
break_continue,html.Screen,4_3_2,2023-05-01T20:11:03.383Z,,0,,,NaN,,,,,,false,,,,93859.19999998808,93859.09999996424,,93858.89999997616,,93864.805,8,400,,,
sequence,flow.Sequence,4_3,2023-05-01T20:11:03.383Z,,0,,,2860.8469999642402,completion,,,,,false,,,,93859.39999997616,93859.09999996424,90981.587,90990,90998.253,93864.805,8,400,,,
trial,html.Screen,4_4_0,2023-05-01T20:11:08.422Z,,0,1,,5032.994999952323,response,ISIC_0061343.JPG,,ISIC_0519719.JPG,ISIC_0519719.JPG,false,0,keypress(z),500,98898,98897.79999995232,93848.139,93859.59999996424,93864.805,98914.603,8,400,5,,ISIC_0061343.JPG
break,html.Screen,4_4_1,2023-05-01T20:11:08.423Z,,0,,,NaN,,,,,,false,,,,98899.19999998808,98898.79999995232,,98898.19999998808,,98914.603,8,400,,,
break_continue,html.Screen,4_4_2,2023-05-01T20:11:08.424Z,,0,,,NaN,,,,,,false,,,,98899.69999998808,98899.5,,98899.29999995232,,98914.603,8,400,,,
sequence,flow.Sequence,4_4,2023-05-01T20:11:08.424Z,,0,,,5034.695000000007,completion,,,,,false,,,,98899.79999995232,98899.5,93848.139,93859.59999996424,93864.805,98914.603,8,400,,,
trial,html.Screen,4_5_0,2023-05-01T20:11:11.503Z,,0,1,,3063.5969999880763,response,ISIC_4045781.JPG,,ISIC_7074321.JPG,ISIC_4045781.JPG,false,1,keypress(m),500,101978.39999997616,101978.19999998808,98897.937,98900,98914.603,101981.434,8,400,6,,ISIC_7074321.JPG
break,html.Screen,4_5_1,2023-05-01T20:11:11.504Z,,0,,,NaN,,,,,,false,,,,101979.59999996424,101979.29999995232,,101978.69999998808,,101981.434,8,400,,,
break_continue,html.Screen,4_5_2,2023-05-01T20:11:11.504Z,,0,,,NaN,,,,,,false,,,,101980.19999998808,101979.89999997616,,101979.79999995232,,101981.434,8,400,,,
sequence,flow.Sequence,4_5,2023-05-01T20:11:11.505Z,,0,,,3065.2969999761553,completion,,,,,false,,,,101980.59999996424,101979.89999997616,98897.937,98900,98914.603,101981.434,8,400,,,
trial,html.Screen,4_6_0,2023-05-01T20:11:14.094Z,,0,1,,2587.7659999880852,response,ISIC_0068924.JPG,,ISIC_3993924.JPG,ISIC_3993924.JPG,false,0,keypress(z),500,104569.39999997616,104569.19999998808,101964.768,101980.69999998808,101981.434,104581.33,8,400,7,,ISIC_0068924.JPG
break,html.Screen,4_6_1,2023-05-01T20:11:14.094Z,,0,,,NaN,,,,,,false,,,,104570,104569.79999995232,,104569.5,,104581.33,8,400,,,
break_continue,html.Screen,4_6_2,2023-05-01T20:11:14.095Z,,0,,,NaN,,,,,,false,,,,104570.39999997616,104570.29999995232,,104570.09999996424,,104581.33,8,400,,,
sequence,flow.Sequence,4_6,2023-05-01T20:11:14.095Z,,0,,,2588.8659999523225,completion,,,,,false,,,,104570.5,104570.29999995232,101964.768,101980.59999996424,101981.434,104581.33,8,400,,,
trial,html.Screen,4_7_0,2023-05-01T20:11:17.077Z,,0,1,,2971.0699999761564,response,ISIC_0069124.JPG,,ISIC_0054480.JPG,ISIC_0069124.JPG,false,1,keypress(m),500,107552.79999995232,107552.39999997616,104564.664,104570.69999998808,104581.33,107564.544,8,400,8,,ISIC_0054480.JPG
break,html.Screen,4_7_1,2023-05-01T20:11:17.078Z,,0,,,NaN,,,,,,false,,,,107553.79999995232,107553.5,,107553,,107564.544,8,400,,,
break_continue,html.Screen,4_7_2,2023-05-01T20:11:17.079Z,,0,,,NaN,,,,,,false,,,,107554.29999995232,107554.19999998808,,107553.89999997616,,107564.544,8,400,,,
sequence,flow.Sequence,4_7,2023-05-01T20:11:17.079Z,,0,,,2972.8699999880773,completion,,,,,false,,,,107554.5,107554.19999998808,104564.664,104570.59999996424,104581.33,107564.544,8,400,,,
trial,html.Screen,4_8_0,2023-05-01T20:11:19.821Z,,0,1,,2732.055999964243,response,ISIC_7492682.JPG,,ISIC_0033479.JPG,ISIC_7492682.JPG,false,1,keypress(m),500,110296.89999997616,110296.59999996424,107547.878,107554.69999998808,107564.544,110314.434,8,400,9,,ISIC_0033479.JPG
break,html.Screen,4_8_1,2023-05-01T20:11:19.823Z,,0,,,NaN,,,,,,false,,,,110298.29999995232,110297.79999995232,,110297.09999996424,,110314.434,8,400,,,
break_continue,html.Screen,4_8_2,2023-05-01T20:11:19.823Z,,0,,,NaN,,,,,,false,,,,110298.79999995232,110298.59999996424,,110298.39999997616,,110314.434,8,400,,,
sequence,flow.Sequence,4_8,2023-05-01T20:11:19.823Z,,0,,,2734.055999964243,completion,,,,,false,,,,110299,110298.59999996424,107547.878,107554.59999996424,107564.544,110314.434,8,400,,,
trial,html.Screen,4_9_0,2023-05-01T20:11:22.631Z,,0,1,,2791.6659999642434,response,ISIC_1457687.JPG,,ISIC_0032779.JPG,ISIC_0032779.JPG,false,0,keypress(z),500,113106.29999995232,113106.09999996424,110297.768,110299.09999996424,110314.434,113114.592,8,400,10,,ISIC_1457687.JPG
break,html.Screen,4_9_1,2023-05-01T20:11:22.632Z,,0,,,NaN,,,,,,false,,,,113107.59999996424,113107.19999998808,,113106.59999996424,,113114.592,8,400,,,
break_continue,html.Screen,4_9_2,2023-05-01T20:11:22.633Z,,0,,,NaN,,,,,,false,,,,113108.09999996424,113108,,113107.69999998808,,113114.592,8,400,,,
sequence,flow.Sequence,4_9,2023-05-01T20:11:22.633Z,,0,,,2793.566000000006,completion,,,,,false,,,,113108.29999995232,113108,110297.768,110299.09999996424,110314.434,113114.592,8,400,,,
trial,html.Screen,4_10_0,2023-05-01T20:11:25.406Z,,0,1,,2766.607999988075,response,ISIC_0033957.JPG,,ISIC_0063556.JPG,ISIC_0063556.JPG,false,0,keypress(z),500,115881.59999996424,115881.19999998808,113097.926,113108.5,113114.592,115897.814,8,400,11,,ISIC_0033957.JPG
break,html.Screen,4_10_1,2023-05-01T20:11:25.407Z,,0,,,NaN,,,,,,false,,,,115882.59999996424,115882.29999995232,,115881.79999995232,,115897.814,8,400,,,
break_continue,html.Screen,4_10_2,2023-05-01T20:11:25.408Z,,0,,,NaN,,,,,,false,,,,115883.19999998808,115883,,115882.79999995232,,115897.814,8,400,,,
sequence,flow.Sequence,4_10,2023-05-01T20:11:25.408Z,,0,,,2768.407999999996,completion,,,,,false,,,,115883.39999997616,115883,113097.926,113108.39999997616,113114.592,115897.814,8,400,,,
trial,html.Screen,4_11_0,2023-05-01T20:11:28.215Z,,0,1,,2792.5859999761597,response,ISIC_0029843.JPG,,ISIC_1234463.JPG,ISIC_1234463.JPG,false,0,keypress(z),500,118690.69999998808,118690.39999997616,115881.148,115883.5,115897.814,118697.702,8,400,12,,ISIC_0029843.JPG
break,html.Screen,4_11_1,2023-05-01T20:11:28.216Z,,0,,,NaN,,,,,,false,,,,118691.89999997616,118691.5,,118691,,118697.702,8,400,,,
break_continue,html.Screen,4_11_2,2023-05-01T20:11:28.217Z,,0,,,NaN,,,,,,false,,,,118692.69999998808,118692.29999995232,,118692,,118697.702,8,400,,,
sequence,flow.Sequence,4_11,2023-05-01T20:11:28.218Z,,0,,,2794.485999952318,completion,,,,,false,,,,118693,118692.29999995232,115881.148,115883.5,115897.814,118697.702,8,400,,,
trial,html.Screen,4_12_0,2023-05-01T20:11:31.041Z,,0,1,,2818.1979999761534,response,ISIC_0064427.JPG,,ISIC_2536779.JPG,ISIC_2536779.JPG,false,0,keypress(z),500,121516.09999996424,121515.89999997616,118681.036,118693.09999996424,118697.702,121530.922,8,400,13,,ISIC_0064427.JPG
break,html.Screen,4_12_1,2023-05-01T20:11:31.042Z,,0,,,NaN,,,,,,false,,,,121517.29999995232,121517,,121516.39999997616,,121530.922,8,400,,,
break_continue,html.Screen,4_12_2,2023-05-01T20:11:31.043Z,,0,,,NaN,,,,,,false,,,,121517.89999997616,121517.79999995232,,121517.5,,121530.922,8,400,,,
sequence,flow.Sequence,4_12,2023-05-01T20:11:31.043Z,,0,,,2820.0979999523115,completion,,,,,false,,,,121518.09999996424,121517.79999995232,118681.036,118693.09999996424,118697.702,121530.922,8,400,,,
trial,html.Screen,4_13_0,2023-05-01T20:11:33.742Z,,0,1,,2685.777999988073,response,ISIC_0010421.JPG,,ISIC_0268701.JPG,ISIC_0010421.JPG,false,1,keypress(m),500,124217.09999996424,124216.69999998808,121514.256,121518.29999995232,121530.922,124231.095,8,400,14,,ISIC_0268701.JPG
break,html.Screen,4_13_1,2023-05-01T20:11:33.743Z,,0,,,NaN,,,,,,false,,,,124218.19999998808,124217.89999997616,,124217.19999998808,,124231.095,8,400,,,
break_continue,html.Screen,4_13_2,2023-05-01T20:11:33.744Z,,0,,,NaN,,,,,,false,,,,124218.79999995232,124218.59999996424,,124218.29999995232,,124231.095,8,400,,,
sequence,flow.Sequence,4_13,2023-05-01T20:11:33.744Z,,0,,,2687.6779999642313,completion,,,,,false,,,,124219,124218.59999996424,121514.256,121518.19999998808,121530.922,124231.095,8,400,,,
trial,html.Screen,4_14_0,2023-05-01T20:11:36.696Z,,0,1,,2939.604999988078,response,ISIC_6908183.JPG,,ISIC_4184050.JPG,ISIC_6908183.JPG,false,1,keypress(m),500,127171,127170.69999998808,124214.429,124219.09999996424,124231.095,127180.977,8,400,15,,ISIC_4184050.JPG
break,html.Screen,4_14_1,2023-05-01T20:11:36.697Z,,0,,,NaN,,,,,,false,,,,127171.69999998808,127171.5,,127171.09999996424,,127180.977,8,400,,,
break_continue,html.Screen,4_14_2,2023-05-01T20:11:36.697Z,,0,,,NaN,,,,,,false,,,,127172.09999996424,127171.89999997616,,127171.79999995232,,127180.977,8,400,,,
sequence,flow.Sequence,4_14,2023-05-01T20:11:36.697Z,,0,,,2940.804999976157,completion,,,,,false,,,,127172.19999998808,127171.89999997616,124214.429,124219.09999996424,124231.095,127180.977,8,400,,,
trial,html.Screen,4_15_0,2023-05-01T20:11:41.095Z,,0,1,,4389.122999964238,response,ISIC_0027863.JPG,,ISIC_0063157.JPG,ISIC_0027863.JPG,false,1,keypress(m),500,131570.19999998808,131570.09999996424,127164.311,127172.29999995232,127180.977,131580.801,8,400,16,,ISIC_0063157.JPG
break,html.Screen,4_15_1,2023-05-01T20:11:41.096Z,,0,,,NaN,,,,,,false,,,,131571.19999998808,131570.89999997616,,131570.39999997616,,131580.801,8,400,,,
break_continue,html.Screen,4_15_2,2023-05-01T20:11:41.097Z,,0,,,NaN,,,,,,false,,,,131571.69999998808,131571.5,,131571.39999997616,,131580.801,8,400,,,
sequence,flow.Sequence,4_15,2023-05-01T20:11:41.097Z,,0,,,4390.523000000001,completion,,,,,false,,,,131571.79999995232,131571.5,127164.311,127172.29999995232,127180.977,131580.801,8,400,,,
trial,html.Screen,4_16_0,2023-05-01T20:11:44.071Z,,0,1,,2964.7989999642305,response,ISIC_0053611.JPG,,ISIC_2863397.JPG,ISIC_2863397.JPG,false,0,keypress(z),500,134545.89999997616,134545.59999996424,131564.135,131571.79999995232,131580.801,134547.611,8,400,17,,ISIC_0053611.JPG
break,html.Screen,4_16_1,2023-05-01T20:11:44.072Z,,0,,,NaN,,,,,,false,,,,134547,134546.69999998808,,134546.19999998808,,134547.611,8,400,,,
break_continue,html.Screen,4_16_2,2023-05-01T20:11:44.073Z,,0,,,NaN,,,,,,false,,,,134547.59999996424,134547.5,,134547.19999998808,,134547.611,8,400,,,
sequence,flow.Sequence,4_16,2023-05-01T20:11:44.073Z,,0,,,2966.6989999999932,completion,,,,,false,,,,134547.79999995232,134547.5,131564.135,131571.79999995232,131580.801,134547.611,8,400,,,
trial,html.Screen,4_17_0,2023-05-01T20:11:46.705Z,,0,1,,2631.7889999761537,response,ISIC_0009940.JPG,,ISIC_0011013.JPG,ISIC_0009940.JPG,false,1,keypress(m),500,137179.69999998808,137179.39999997616,134530.945,134548,134547.611,137197.505,8,400,18,,ISIC_0011013.JPG
break,html.Screen,4_17_1,2023-05-01T20:11:46.707Z,,0,,,NaN,,,,,,false,,,,137181.59999996424,137180.79999995232,,137180,,137197.505,8,400,,,
break_continue,html.Screen,4_17_2,2023-05-01T20:11:46.708Z,,0,,,NaN,,,,,,false,,,,137182.5,137182.29999995232,,137182,,137197.505,8,400,,,
sequence,flow.Sequence,4_17,2023-05-01T20:11:46.708Z,,0,,,2634.688999952312,completion,,,,,false,,,,137182.79999995232,137182.29999995232,134530.945,134548,134547.611,137197.505,8,400,,,
trial,html.Screen,4_18_0,2023-05-01T20:11:50.112Z,,0,1,,3389.3949999761535,response,ISIC_0867503.JPG,,ISIC_0013691.JPG,ISIC_0013691.JPG,false,0,keypress(z),500,140587.09999996424,140586.89999997616,137180.839,137182.89999997616,137197.505,140597.369,8,400,19,,ISIC_0867503.JPG
break,html.Screen,4_18_1,2023-05-01T20:11:50.114Z,,0,,,NaN,,,,,,false,,,,140588.5,140588,,140587.29999995232,,140597.369,8,400,,,
break_continue,html.Screen,4_18_2,2023-05-01T20:11:50.115Z,,0,,,NaN,,,,,,false,,,,140589.29999995232,140589.09999996424,,140588.79999995232,,140597.369,8,400,,,
sequence,flow.Sequence,4_18,2023-05-01T20:11:50.115Z,,0,,,3391.5949999642326,completion,,,,,false,,,,140589.5,140589.09999996424,137180.839,137182.79999995232,137197.505,140597.369,8,400,,,
trial,html.Screen,4_19_0,2023-05-01T20:11:52.752Z,,0,1,,2628.630999999994,response,ISIC_2908315.JPG,,ISIC_6413346.JPG,ISIC_2908315.JPG,false,1,keypress(m),500,143226.29999995232,143226,140580.703,140589.59999996424,140597.369,143230.863,8,400,20,,ISIC_6413346.JPG
break,html.Screen,4_19_1,2023-05-01T20:11:52.753Z,,0,,,NaN,,,,,,false,,,,143227.39999997616,143227.09999996424,,143226.5,,143230.863,8,400,,,
break_continue,html.Screen,4_19_2,2023-05-01T20:11:52.753Z,,0,,,NaN,,,,,,false,,,,143228,143227.89999997616,,143227.59999996424,,143230.863,8,400,,,
sequence,flow.Sequence,4_19,2023-05-01T20:11:52.754Z,,0,,,2630.530999976152,completion,,,,,false,,,,143228.19999998808,143227.89999997616,140580.703,140589.5,140597.369,143230.863,8,400,,,
trial,html.Screen,4_20_0,2023-05-01T20:11:57.055Z,,0,1,,4298.436999952304,response,ISIC_0032357.JPG,,ISIC_8066110.JPG,ISIC_8066110.JPG,false,0,keypress(z),500,147529.5,147529.29999995232,143214.197,143228.29999995232,143230.863,147530.691,8,400,21,,ISIC_0032357.JPG
break,html.Screen,4_20_1,2023-05-01T20:11:57.056Z,,0,,,NaN,,,,,,false,,,,147530.69999998808,147530.39999997616,,147529.79999995232,,147530.691,8,400,,,
break_continue,html.Screen,4_20_2,2023-05-01T20:11:57.057Z,,0,,,NaN,,,,,,false,,,,147531.19999998808,147531,,147530.89999997616,,147530.691,8,400,,,
sequence,flow.Sequence,4_20,2023-05-01T20:11:57.057Z,,0,,,4300.136999999988,completion,,,,,false,,,,147531.5,147531,143214.197,143228.29999995232,143230.863,147530.691,8,400,,,
trial,html.Screen,4_21_0,2023-05-01T20:12:01.305Z,,0,1,,4248.108999952325,response,ISIC_0067167.JPG,,ISIC_0056860.JPG,ISIC_0067167.JPG,false,1,keypress(m),500,151779.69999998808,151778.79999995232,147514.025,147531.59999996424,147530.691,151797.187,8,400,22,,ISIC_0056860.JPG
break,html.Screen,4_21_1,2023-05-01T20:12:01.307Z,,0,,,NaN,,,,,,false,,,,151781.19999998808,151780.89999997616,,151780.19999998808,,151797.187,8,400,,,
break_continue,html.Screen,4_21_2,2023-05-01T20:12:01.307Z,,0,,,NaN,,,,,,false,,,,151781.69999998808,151781.59999996424,,151781.29999995232,,151797.187,8,400,,,
sequence,flow.Sequence,4_21,2023-05-01T20:12:01.308Z,,0,,,4250.908999964246,completion,,,,,false,,,,151782,151781.59999996424,147514.025,147531.5,147530.691,151797.187,8,400,,,
trial,html.Screen,4_22_0,2023-05-01T20:12:05.631Z,,0,1,,4307.412999964232,response,ISIC_0011136.JPG,,ISIC_8562820.JPG,ISIC_8562820.JPG,false,0,keypress(z),500,156104.89999997616,156104.59999996424,151780.521,151782.19999998808,151797.187,156113.944,8,400,23,,ISIC_0011136.JPG
break,html.Screen,4_22_1,2023-05-01T20:12:05.632Z,,0,,,NaN,,,,,,false,,,,156106,156105.59999996424,,156105.09999996424,,156113.944,8,400,,,
break_continue,html.Screen,4_22_2,2023-05-01T20:12:05.632Z,,0,,,NaN,,,,,,false,,,,156106.5,156106.29999995232,,156106.09999996424,,156113.944,8,400,,,
sequence,flow.Sequence,4_22,2023-05-01T20:12:05.632Z,,0,,,4309.112999952311,completion,,,,,false,,,,156106.59999996424,156106.29999995232,151780.521,151782.09999996424,151797.187,156113.944,8,400,,,
trial,html.Screen,4_23_0,2023-05-01T20:12:08.550Z,,0,1,,2910.2559999880905,response,ISIC_4780727.JPG,,ISIC_4918571.JPG,ISIC_4918571.JPG,false,0,keypress(z),500,159024.5,159024.19999998808,156097.278,156106.79999995232,156113.944,159030.494,8,400,24,,ISIC_4780727.JPG
break,html.Screen,4_23_1,2023-05-01T20:12:08.551Z,,0,,,NaN,,,,,,false,,,,159025.5,159025.29999995232,,159024.69999998808,,159030.494,8,400,,,
break_continue,html.Screen,4_23_2,2023-05-01T20:12:08.552Z,,0,,,NaN,,,,,,false,,,,159026.09999996424,159025.89999997616,,159025.69999998808,,159030.494,8,400,,,
sequence,flow.Sequence,4_23,2023-05-01T20:12:08.552Z,,0,,,2911.9559999761696,completion,,,,,false,,,,159026.29999995232,159025.89999997616,156097.278,156106.79999995232,156113.944,159030.494,8,400,,,
trial,html.Screen,4_24_0,2023-05-01T20:12:11.831Z,,0,1,,3274.005999999994,response,ISIC_0053929.JPG,,ISIC_3222447.JPG,ISIC_0053929.JPG,false,1,keypress(m),500,162304.89999997616,162304.5,159013.828,159026.39999997616,159030.494,162313.696,8,400,25,,ISIC_3222447.JPG
break,html.Screen,4_24_1,2023-05-01T20:12:11.832Z,,0,,,NaN,,,,,,false,,,,162306,162305.69999998808,,162305.19999998808,,162313.696,8,400,,,
break_continue,html.Screen,4_24_2,2023-05-01T20:12:11.832Z,,0,,,NaN,,,,,,false,,,,162306.5,162306.39999997616,,162306.19999998808,,162313.696,8,400,,,
sequence,flow.Sequence,4_24,2023-05-01T20:12:11.833Z,,0,,,3275.905999976152,completion,,,,,false,,,,162306.69999998808,162306.39999997616,159013.828,159026.39999997616,159030.494,162313.696,8,400,,,
trial,html.Screen,4_25_0,2023-05-01T20:12:17.631Z,,0,1,,5791.003999988083,response,ISIC_0057593.JPG,,ISIC_0054053.JPG,ISIC_0057593.JPG,false,1,keypress(m),500,168104.89999997616,168104.69999998808,162297.03,162306.89999997616,162313.696,168113.74,8,400,26,,ISIC_0054053.JPG
break,html.Screen,4_25_1,2023-05-01T20:12:17.632Z,,0,,,NaN,,,,,,false,,,,168106,168105.79999995232,,168105.09999996424,,168113.74,8,400,,,
break_continue,html.Screen,4_25_2,2023-05-01T20:12:17.633Z,,0,,,NaN,,,,,,false,,,,168106.59999996424,168106.39999997616,,168106.19999998808,,168113.74,8,400,,,
sequence,flow.Sequence,4_25,2023-05-01T20:12:17.633Z,,0,,,5792.703999976162,completion,,,,,false,,,,168106.79999995232,168106.39999997616,162297.03,162306.79999995232,162313.696,168113.74,8,400,,,
trial,html.Screen,4_26_0,2023-05-01T20:12:21.423Z,,0,1,,3782.7600000000093,response,ISIC_0072691.JPG,,ISIC_0058730.JPG,ISIC_0058730.JPG,false,0,keypress(z),500,171896.89999997616,171896.5,168097.074,168106.89999997616,168113.74,171913.588,8,400,27,,ISIC_0072691.JPG
break,html.Screen,4_26_1,2023-05-01T20:12:21.424Z,,0,,,NaN,,,,,,false,,,,171898,171897.69999998808,,171897.09999996424,,171913.588,8,400,,,
break_continue,html.Screen,4_26_2,2023-05-01T20:12:21.425Z,,0,,,NaN,,,,,,false,,,,171898.5,171898.29999995232,,171898.09999996424,,171913.588,8,400,,,
sequence,flow.Sequence,4_26,2023-05-01T20:12:21.425Z,,0,,,3784.5599999523256,completion,,,,,false,,,,171898.69999998808,171898.29999995232,168097.074,168106.89999997616,168113.74,171913.588,8,400,,,
trial,html.Screen,4_27_0,2023-05-01T20:12:24.311Z,,0,1,,2870.6119999880902,response,ISIC_0024589.JPG,,ISIC_3166276.JPG,ISIC_3166276.JPG,false,0,keypress(z),500,174784.39999997616,174784.19999998808,171896.922,171898.79999995232,171913.588,174797.069,8,400,28,,ISIC_0024589.JPG
break,html.Screen,4_27_1,2023-05-01T20:12:24.312Z,,0,,,NaN,,,,,,false,,,,174785.5,174785.19999998808,,174784.69999998808,,174797.069,8,400,,,
break_continue,html.Screen,4_27_2,2023-05-01T20:12:24.312Z,,0,,,NaN,,,,,,false,,,,174786,174785.79999995232,,174785.69999998808,,174797.069,8,400,,,
sequence,flow.Sequence,4_27,2023-05-01T20:12:24.313Z,,0,,,2872.2119999523275,completion,,,,,false,,,,174786.29999995232,174785.79999995232,171896.922,171898.79999995232,171913.588,174797.069,8,400,,,
trial,html.Screen,4_28_0,2023-05-01T20:12:27.233Z,,0,1,,2909.0309999642486,response,ISIC_0011709.JPG,,ISIC_8733745.JPG,ISIC_8733745.JPG,false,0,keypress(z),500,177706.39999997616,177706.09999996424,174780.403,174786.39999997616,174797.069,177713.619,8,400,29,,ISIC_0011709.JPG
break,html.Screen,4_28_1,2023-05-01T20:12:27.234Z,,0,,,NaN,,,,,,false,,,,177707.5,177707.19999998808,,177706.69999998808,,177713.619,8,400,,,
break_continue,html.Screen,4_28_2,2023-05-01T20:12:27.234Z,,0,,,NaN,,,,,,false,,,,177708,177707.89999997616,,177707.59999996424,,177713.619,8,400,,,
sequence,flow.Sequence,4_28,2023-05-01T20:12:27.235Z,,0,,,2910.8309999761696,completion,,,,,false,,,,177708.19999998808,177707.89999997616,174780.403,174786.29999995232,174797.069,177713.619,8,400,,,
trial,html.Screen,4_29_0,2023-05-01T20:12:29.785Z,,0,1,,2544.480999964231,response,ISIC_0012072.JPG,,ISIC_0026558.JPG,ISIC_0012072.JPG,false,1,keypress(m),500,180258.39999997616,180258.09999996424,177696.953,177708.29999995232,177713.619,180263.517,8,400,30,,ISIC_0026558.JPG
break,html.Screen,4_29_1,2023-05-01T20:12:29.786Z,,0,,,NaN,,,,,,false,,,,180259.5,180259.19999998808,,180258.69999998808,,180263.517,8,400,,,
break_continue,html.Screen,4_29_2,2023-05-01T20:12:29.786Z,,0,,,NaN,,,,,,false,,,,180260,180259.89999997616,,180259.59999996424,,180263.517,8,400,,,
sequence,flow.Sequence,4_29,2023-05-01T20:12:29.787Z,,0,,,2546.280999976152,completion,,,,,false,,,,180260.19999998808,180259.89999997616,177696.953,177708.29999995232,177713.619,180263.517,8,400,,,
trial,html.Screen,4_30_0,2023-05-01T20:12:32.440Z,,0,1,,2649.5829999642447,response,ISIC_0650126.JPG,,ISIC_9280171.JPG,ISIC_9280171.JPG,false,0,keypress(z),500,182913.59999996424,182913.09999996424,180246.851,180260.29999995232,180263.517,182930.077,8,400,31,,ISIC_0650126.JPG
break,html.Screen,4_30_1,2023-05-01T20:12:32.441Z,,0,,,NaN,,,,,,false,,,,182914.59999996424,182914.29999995232,,182913.79999995232,,182930.077,8,400,,,
break_continue,html.Screen,4_30_2,2023-05-01T20:12:32.442Z,,0,,,NaN,,,,,,false,,,,182915,182914.89999997616,,182914.69999998808,,182930.077,8,400,,,
sequence,flow.Sequence,4_30,2023-05-01T20:12:32.442Z,,0,,,2651.3829999761656,completion,,,,,false,,,,182915.29999995232,182914.89999997616,180246.851,180260.29999995232,180263.517,182930.077,8,400,,,
trial,html.Screen,4_31_0,2023-05-01T20:12:35.218Z,,0,1,,2761.122999988089,response,ISIC_0000145.JPG,,ISIC_0056983.JPG,ISIC_0000145.JPG,false,1,keypress(m),500,185691.79999995232,185691.19999998808,182913.411,182915.39999997616,182930.077,185696.909,8,400,32,,ISIC_0056983.JPG
break,html.Screen,4_31_1,2023-05-01T20:12:35.220Z,,0,,,NaN,,,,,,false,,,,185693.5,185693.09999996424,,185692.39999997616,,185696.909,8,400,,,
break_continue,html.Screen,4_31_2,2023-05-01T20:12:35.221Z,,0,,,NaN,,,,,,false,,,,185693.89999997616,185693.79999995232,,185693.5,,185696.909,8,400,,,
sequence,flow.Sequence,4_31,2023-05-01T20:12:35.221Z,,0,,,2763.722999952326,completion,,,,,false,,,,185694.09999996424,185693.79999995232,182913.411,182915.39999997616,182930.077,185696.909,8,400,,,
trial,html.Screen,4_32_0,2023-05-01T20:12:37.882Z,,0,1,,2658.590999999986,response,ISIC_0884550.JPG,,ISIC_0026694.JPG,ISIC_0884550.JPG,false,1,keypress(m),500,188355.79999995232,188355.5,185680.243,185694.29999995232,185696.909,188363.469,8,400,33,,ISIC_0026694.JPG
break,html.Screen,4_32_1,2023-05-01T20:12:37.884Z,,0,,,NaN,,,,,,false,,,,188356.89999997616,188356.59999996424,,188356,,188363.469,8,400,,,
break_continue,html.Screen,4_32_2,2023-05-01T20:12:37.884Z,,0,,,NaN,,,,,,false,,,,188357.39999997616,188357.29999995232,,188357.09999996424,,188363.469,8,400,,,
sequence,flow.Sequence,4_32,2023-05-01T20:12:37.884Z,,0,,,2660.390999952302,completion,,,,,false,,,,188357.59999996424,188357.29999995232,185680.243,185694.19999998808,185696.909,188363.469,8,400,,,
trial,html.Screen,4_33_0,2023-05-01T20:12:41.016Z,,0,1,,3125.8309999523044,response,ISIC_0033679.JPG,,ISIC_0070852.JPG,ISIC_0070852.JPG,false,0,keypress(z),500,191489.59999996424,191489.29999995232,188346.803,188357.69999998808,188363.469,191496.677,8,400,34,,ISIC_0033679.JPG
break,html.Screen,4_33_1,2023-05-01T20:12:41.018Z,,0,,,NaN,,,,,,false,,,,191490.89999997616,191490.39999997616,,191489.79999995232,,191496.677,8,400,,,
break_continue,html.Screen,4_33_2,2023-05-01T20:12:41.018Z,,0,,,NaN,,,,,,false,,,,191491.39999997616,191491.19999998808,,191491,,191496.677,8,400,,,
sequence,flow.Sequence,4_33,2023-05-01T20:12:41.018Z,,0,,,3127.730999988067,completion,,,,,false,,,,191491.59999996424,191491.19999998808,188346.803,188357.69999998808,188363.469,191496.677,8,400,,,
trial,html.Screen,4_34_0,2023-05-01T20:12:43.827Z,,0,1,,2802.722999976162,response,ISIC_0046344.JPG,,ISIC_0032516.JPG,ISIC_0032516.JPG,false,0,keypress(z),500,194299.79999995232,194299.39999997616,191480.011,191491.69999998808,191496.677,194313.231,8,400,35,,ISIC_0046344.JPG
break,html.Screen,4_34_1,2023-05-01T20:12:43.828Z,,0,,,NaN,,,,,,false,,,,194300.79999995232,194300.5,,194299.89999997616,,194313.231,8,400,,,
break_continue,html.Screen,4_34_2,2023-05-01T20:12:43.828Z,,0,,,NaN,,,,,,false,,,,194301.29999995232,194301.19999998808,,194301,,194313.231,8,400,,,
sequence,flow.Sequence,4_34,2023-05-01T20:12:43.828Z,,0,,,2804.522999988083,completion,,,,,false,,,,194301.5,194301.19999998808,191480.011,191491.69999998808,191496.677,194313.231,8,400,,,
trial,html.Screen,4_35_0,2023-05-01T20:12:46.762Z,,0,1,,2921.5689999523165,response,ISIC_0000814.JPG,,ISIC_8760203.JPG,ISIC_0000814.JPG,false,1,keypress(m),500,197235,197234.79999995232,194296.565,194301.59999996424,194313.231,197246.719,8,400,36,,ISIC_8760203.JPG
break,html.Screen,4_35_1,2023-05-01T20:12:46.763Z,,0,,,NaN,,,,,,false,,,,197236.09999996424,197235.89999997616,,197235.19999998808,,197246.719,8,400,,,
break_continue,html.Screen,4_35_2,2023-05-01T20:12:46.764Z,,0,,,NaN,,,,,,false,,,,197236.59999996424,197236.5,,197236.19999998808,,197246.719,8,400,,,
sequence,flow.Sequence,4_35,2023-05-01T20:12:46.764Z,,0,,,2923.2690000000002,completion,,,,,false,,,,197236.79999995232,197236.5,194296.565,194301.59999996424,194313.231,197246.719,8,400,,,
trial,html.Screen,4_36_0,2023-05-01T20:12:49.795Z,,0,1,,3021.0809999523044,response,ISIC_0000518.JPG,,ISIC_6532137.JPG,ISIC_6532137.JPG,false,0,keypress(z),500,200268.09999996424,200267.79999995232,197230.053,197236.89999997616,197246.719,200279.931,8,400,37,,ISIC_0000518.JPG
break,html.Screen,4_36_1,2023-05-01T20:12:49.796Z,,0,,,NaN,,,,,,false,,,,200269.29999995232,200269,,200268.39999997616,,200279.931,8,400,,,
break_continue,html.Screen,4_36_2,2023-05-01T20:12:49.797Z,,0,,,NaN,,,,,,false,,,,200269.79999995232,200269.59999996424,,200269.39999997616,,200279.931,8,400,,,
sequence,flow.Sequence,4_36,2023-05-01T20:12:49.797Z,,0,,,3022.8809999642253,completion,,,,,false,,,,200270,200269.59999996424,197230.053,197236.89999997616,197246.719,200279.931,8,400,,,
trial,html.Screen,4_37_0,2023-05-01T20:12:54.322Z,,0,1,,4514.168999964226,response,ISIC_8689112.JPG,,ISIC_0005879.JPG,ISIC_0005879.JPG,false,0,keypress(z),500,204794.29999995232,204794.09999996424,200263.265,200270.09999996424,200279.931,204796.417,8,400,38,,ISIC_8689112.JPG
break,html.Screen,4_37_1,2023-05-01T20:12:54.323Z,,0,,,NaN,,,,,,false,,,,204795.5,204795.19999998808,,204794.59999996424,,204796.417,8,400,,,
break_continue,html.Screen,4_37_2,2023-05-01T20:12:54.323Z,,0,,,NaN,,,,,,false,,,,204796,204795.79999995232,,204795.69999998808,,204796.417,8,400,,,
sequence,flow.Sequence,4_37,2023-05-01T20:12:54.323Z,,0,,,4515.868999952305,completion,,,,,false,,,,204796.29999995232,204795.79999995232,200263.265,200270,200279.931,204796.417,8,400,,,
trial,html.Screen,4_38_0,2023-05-01T20:12:57.153Z,,0,1,,2829.3829999523296,response,ISIC_0032928.JPG,,ISIC_4702522.JPG,ISIC_4702522.JPG,false,0,keypress(z),500,207626.19999998808,207625.79999995232,204779.751,204796.29999995232,204796.417,207629.911,8,400,39,,ISIC_0032928.JPG
break,html.Screen,4_38_1,2023-05-01T20:12:57.155Z,,0,,,NaN,,,,,,false,,,,207627.19999998808,207627,,207626.39999997616,,207629.911,8,400,,,
break_continue,html.Screen,4_38_2,2023-05-01T20:12:57.155Z,,0,,,NaN,,,,,,false,,,,207627.79999995232,207627.59999996424,,207627.39999997616,,207629.911,8,400,,,
sequence,flow.Sequence,4_38,2023-05-01T20:12:57.155Z,,0,,,2831.1829999642505,completion,,,,,false,,,,207628,207627.59999996424,204779.751,204796.29999995232,204796.417,207629.911,8,400,,,
trial,html.Screen,4_39_0,2023-05-01T20:13:00.250Z,,0,1,,3092.7889999880863,response,ISIC_2193761.JPG,,ISIC_7030488.JPG,ISIC_7030488.JPG,false,0,keypress(z),500,210722.89999997616,210722.69999998808,207613.245,207628.09999996424,207629.911,210729.787,8,400,40,,ISIC_2193761.JPG
break,html.Screen,4_39_1,2023-05-01T20:13:00.251Z,,0,,,NaN,,,,,,false,,,,210724,210723.69999998808,,210723.19999998808,,210729.787,8,400,,,
break_continue,html.Screen,4_39_2,2023-05-01T20:13:00.252Z,,0,,,NaN,,,,,,false,,,,210724.5,210724.29999995232,,210724.19999998808,,210729.787,8,400,,,
sequence,flow.Sequence,4_39,2023-05-01T20:13:00.252Z,,0,,,3094.3889999523235,completion,,,,,false,,,,210724.69999998808,210724.29999995232,207613.245,207628,207629.911,210729.787,8,400,,,
trial,html.Screen,4_40_0,2023-05-01T20:13:04.562Z,,0,1,,4304.312999964226,response,ISIC_0010379.JPG,,ISIC_0064006.JPG,ISIC_0010379.JPG,false,1,keypress(m),500,215034.39999997616,215034.09999996424,210713.121,210724.89999997616,210729.787,215046.281,8,400,41,,ISIC_0064006.JPG
break,html.Screen,4_40_1,2023-05-01T20:13:04.563Z,,0,,,NaN,,,,,,false,,,,215035.59999996424,215035.29999995232,,215034.69999998808,,215046.281,8,400,,,
break_continue,html.Screen,4_40_2,2023-05-01T20:13:04.564Z,,0,,,NaN,,,,,,false,,,,215036.19999998808,215036,,215035.79999995232,,215046.281,8,400,,,
sequence,flow.Sequence,4_40,2023-05-01T20:13:04.564Z,,0,,,4306.212999999989,completion,,,,,false,,,,215036.79999995232,215036,210713.121,210724.79999995232,210729.787,215046.281,8,400,,,
trial,html.Screen,4_41_0,2023-05-01T20:13:07.138Z,,0,1,,2563.418999988091,response,ISIC_0066564.JPG,,ISIC_6811363.JPG,ISIC_6811363.JPG,false,0,keypress(z),500,217610.09999996424,217609.69999998808,215029.615,215037.09999996424,215046.281,217613.114,8,400,42,,ISIC_0066564.JPG
break,html.Screen,4_41_1,2023-05-01T20:13:07.139Z,,0,,,NaN,,,,,,false,,,,217611.19999998808,217610.89999997616,,217610.19999998808,,217613.114,8,400,,,
break_continue,html.Screen,4_41_2,2023-05-01T20:13:07.139Z,,0,,,NaN,,,,,,false,,,,217611.69999998808,217611.59999996424,,217611.39999997616,,217613.114,8,400,,,
sequence,flow.Sequence,4_41,2023-05-01T20:13:07.139Z,,0,,,2565.318999964249,completion,,,,,false,,,,217611.89999997616,217611.59999996424,215029.615,215037,215046.281,217613.114,8,400,,,
trial,html.Screen,4_42_0,2023-05-01T20:13:10.098Z,,0,1,,2956.485999964236,response,ISIC_9239632.JPG,,ISIC_4023381.JPG,ISIC_4023381.JPG,false,0,keypress(z),500,220570,220569.59999996424,217596.448,217612.09999996424,217613.114,220579.662,8,400,43,,ISIC_9239632.JPG
break,html.Screen,4_42_1,2023-05-01T20:13:10.099Z,,0,,,NaN,,,,,,false,,,,220571.19999998808,220570.89999997616,,220570.29999995232,,220579.662,8,400,,,
break_continue,html.Screen,4_42_2,2023-05-01T20:13:10.099Z,,0,,,NaN,,,,,,false,,,,220571.59999996424,220571.5,,220571.29999995232,,220579.662,8,400,,,
sequence,flow.Sequence,4_42,2023-05-01T20:13:10.100Z,,0,,,2958.3859999999986,completion,,,,,false,,,,220571.79999995232,220571.5,217596.448,217612,217613.114,220579.662,8,400,,,
trial,html.Screen,4_43_0,2023-05-01T20:13:13.802Z,,0,1,,3694.237999976147,response,ISIC_2177748.JPG,,ISIC_0063369.JPG,ISIC_2177748.JPG,false,1,keypress(m),500,224274.09999996424,224273.89999997616,220562.996,220571.89999997616,220579.662,224279.514,8,400,44,,ISIC_0063369.JPG
break,html.Screen,4_43_1,2023-05-01T20:13:13.803Z,,0,,,NaN,,,,,,false,,,,224275,224274.79999995232,,224274.5,,224279.514,8,400,,,
break_continue,html.Screen,4_43_2,2023-05-01T20:13:13.803Z,,0,,,NaN,,,,,,false,,,,224275.29999995232,224275.19999998808,,224275.09999996424,,224279.514,8,400,,,
sequence,flow.Sequence,4_43,2023-05-01T20:13:13.803Z,,0,,,3695.537999988068,completion,,,,,false,,,,224275.39999997616,224275.19999998808,220562.996,220571.89999997616,220579.662,224279.514,8,400,,,
trial,html.Screen,4_44_0,2023-05-01T20:13:16.835Z,,0,1,,3027.6859999880835,response,ISIC_0031575.JPG,,ISIC_0024688.JPG,ISIC_0031575.JPG,false,1,keypress(m),500,227307.5,227307.19999998808,224262.848,224275.39999997616,224279.514,227312.993,8,400,45,,ISIC_0024688.JPG
break,html.Screen,4_44_1,2023-05-01T20:13:16.837Z,,0,,,NaN,,,,,,false,,,,227308.69999998808,227308.5,,227307.69999998808,,227312.993,8,400,,,
break_continue,html.Screen,4_44_2,2023-05-01T20:13:16.837Z,,0,,,NaN,,,,,,false,,,,227309.19999998808,227309.09999996424,,227308.79999995232,,227312.993,8,400,,,
sequence,flow.Sequence,4_44,2023-05-01T20:13:16.837Z,,0,,,3029.5859999642416,completion,,,,,false,,,,227309.29999995232,227309.09999996424,224262.848,224275.39999997616,224279.514,227312.993,8,400,,,
trial,html.Screen,4_45_0,2023-05-01T20:13:19.802Z,,0,1,,2960.9069999761705,response,ISIC_0026909.JPG,,ISIC_8447658.JPG,ISIC_8447658.JPG,false,0,keypress(z),500,230274.19999998808,230273.89999997616,227296.327,227309.29999995232,227312.993,230279.541,8,400,46,,ISIC_0026909.JPG
break,html.Screen,4_45_1,2023-05-01T20:13:19.803Z,,0,,,NaN,,,,,,false,,,,230275.29999995232,230274.89999997616,,230274.39999997616,,230279.541,8,400,,,
break_continue,html.Screen,4_45_2,2023-05-01T20:13:19.804Z,,0,,,NaN,,,,,,false,,,,230275.69999998808,230275.59999996424,,230275.39999997616,,230279.541,8,400,,,
sequence,flow.Sequence,4_45,2023-05-01T20:13:19.804Z,,0,,,2962.6069999642496,completion,,,,,false,,,,230275.89999997616,230275.59999996424,227296.327,227309.29999995232,227312.993,230279.541,8,400,,,
trial,html.Screen,4_46_0,2023-05-01T20:13:22.995Z,,0,1,,3187.1589999880816,response,ISIC_0027081.JPG,,ISIC_3093026.JPG,ISIC_3093026.JPG,false,0,keypress(z),500,233467,233466.69999998808,230262.875,230276.09999996424,230279.541,233479.413,8,400,47,,ISIC_0027081.JPG
break,html.Screen,4_46_1,2023-05-01T20:13:22.996Z,,0,,,NaN,,,,,,false,,,,233468.09999996424,233467.79999995232,,233467.19999998808,,233479.413,8,400,,,
break_continue,html.Screen,4_46_2,2023-05-01T20:13:22.997Z,,0,,,NaN,,,,,,false,,,,233468.59999996424,233468.39999997616,,233468.29999995232,,233479.413,8,400,,,
sequence,flow.Sequence,4_46,2023-05-01T20:13:22.997Z,,0,,,3188.8589999761607,completion,,,,,false,,,,233468.79999995232,233468.39999997616,230262.875,230276.09999996424,230279.541,233479.413,8,400,,,
trial,html.Screen,4_47_0,2023-05-01T20:13:25.673Z,,0,1,,2665.0869999999995,response,ISIC_0033424.JPG,,ISIC_4326917.JPG,ISIC_4326917.JPG,false,0,keypress(z),500,236144.69999998808,236144.5,233462.747,233469,233479.413,236146.245,8,400,48,,ISIC_0033424.JPG
break,html.Screen,4_47_1,2023-05-01T20:13:25.673Z,,0,,,NaN,,,,,,false,,,,236145.29999995232,236145.09999996424,,236144.79999995232,,236146.245,8,400,,,
break_continue,html.Screen,4_47_2,2023-05-01T20:13:25.674Z,,0,,,NaN,,,,,,false,,,,236145.5,236145.5,,236145.39999997616,,236146.245,8,400,,,
sequence,flow.Sequence,4_47,2023-05-01T20:13:25.674Z,,0,,,2666.0869999999995,completion,,,,,false,,,,236145.69999998808,236145.5,233462.747,233468.89999997616,233479.413,236146.245,8,400,,,
trial,html.Screen,4_48_0,2023-05-01T20:13:28.417Z,,0,1,,2741.854999964242,response,ISIC_3743283.JPG,,ISIC_0000175.JPG,ISIC_3743283.JPG,false,1,keypress(m),500,238888.39999997616,238888.09999996424,236129.579,236145.79999995232,236146.245,238896.135,8,400,49,,ISIC_0000175.JPG
break,html.Screen,4_48_1,2023-05-01T20:13:28.418Z,,0,,,NaN,,,,,,false,,,,238889.39999997616,238889,,238888.69999998808,,238896.135,8,400,,,
break_continue,html.Screen,4_48_2,2023-05-01T20:13:28.418Z,,0,,,NaN,,,,,,false,,,,238889.79999995232,238889.69999998808,,238889.5,,238896.135,8,400,,,
sequence,flow.Sequence,4_48,2023-05-01T20:13:28.418Z,,0,,,2743.4549999880837,completion,,,,,false,,,,238890,238889.69999998808,236129.579,236145.79999995232,236146.245,238896.135,8,400,,,
trial,html.Screen,4_49_0,2023-05-01T20:13:31.538Z,,0,1,,3113.664999952307,response,ISIC_3817292.JPG,,ISIC_7565128.JPG,ISIC_7565128.JPG,false,0,keypress(z),500,242010.09999996424,242009.79999995232,238879.469,238890.19999998808,238896.135,242012.677,8,400,50,,ISIC_3817292.JPG
break,html.Screen,4_49_1,2023-05-01T20:13:36.527Z,,0,,,4999.8000000000175,timeout,,,,,false,,,,246998.79999995232,246995.811,241996.011,242010.29999995232,242012.677,247012.477,8,400,,,
break_continue,html.Screen,4_49_2,2023-05-01T20:13:37.872Z,,0,,,1315.5229999999865,response,,,,,false,continue,keypress(Space),,248343.19999998808,248328,246995.811,246999,247012.477,248345.757,8,400,,,
sequence,flow.Sequence,4_49,2023-05-01T20:13:37.872Z,,0,,,9431.86499999999,completion,,,,,false,,,,248343.39999997616,248328,238879.469,238890.09999996424,238896.135,248345.757,8,400,,,
trial,html.Screen,4_50_0,2023-05-01T20:13:42.195Z,,0,2,,4320.042999952304,response,ISIC_0005854.JPG,,ISIC_4595741.JPG,ISIC_0005854.JPG,false,1,keypress(m),500,252666.09999996424,252665.79999995232,248329.091,248343.59999996424,248345.757,252678.917,8,400,1,,ISIC_4595741.JPG
break,html.Screen,4_50_1,2023-05-01T20:13:42.196Z,,0,,,NaN,,,,,,false,,,,252667.29999995232,252666.89999997616,,252666.29999995232,,252678.917,8,400,,,
break_continue,html.Screen,4_50_2,2023-05-01T20:13:42.196Z,,0,,,NaN,,,,,,false,,,,252667.79999995232,252667.59999996424,,252667.39999997616,,252678.917,8,400,,,
sequence,flow.Sequence,4_50,2023-05-01T20:13:42.197Z,,0,,,4321.842999964225,completion,,,,,false,,,,252668,252667.59999996424,248329.091,248343.5,248345.757,252678.917,8,400,,,
trial,html.Screen,4_51_0,2023-05-01T20:13:46.220Z,,0,2,,4012.4829999761714,response,ISIC_3305055.JPG,,ISIC_8674332.JPG,ISIC_8674332.JPG,false,0,keypress(z),500,256691.69999998808,256691.39999997616,252662.251,252668.09999996424,252678.917,256695.96,8,400,2,,ISIC_3305055.JPG
break,html.Screen,4_51_1,2023-05-01T20:13:46.222Z,,0,,,NaN,,,,,,false,,,,256692.89999997616,256692.5,,256691.89999997616,,256695.96,8,400,,,
break_continue,html.Screen,4_51_2,2023-05-01T20:13:46.222Z,,0,,,NaN,,,,,,false,,,,256693.39999997616,256693.19999998808,,256693,,256695.96,8,400,,,
sequence,flow.Sequence,4_51,2023-05-01T20:13:46.222Z,,0,,,4014.2829999880923,completion,,,,,false,,,,256693.59999996424,256693.19999998808,252662.251,252668.09999996424,252678.917,256695.96,8,400,,,
trial,html.Screen,4_52_0,2023-05-01T20:13:49.171Z,,0,2,,2945.540000000008,response,ISIC_0027718.JPG,,ISIC_5785408.JPG,ISIC_5785408.JPG,false,0,keypress(z),500,259641.79999995232,259641.5,256679.294,256693.69999998808,256695.96,259645.842,8,400,3,,ISIC_0027718.JPG
break,html.Screen,4_52_1,2023-05-01T20:13:49.172Z,,0,,,NaN,,,,,,false,,,,259643,259642.59999996424,,259642.09999996424,,259645.842,8,400,,,
break_continue,html.Screen,4_52_2,2023-05-01T20:13:49.172Z,,0,,,NaN,,,,,,false,,,,259643.39999997616,259643.29999995232,,259643.09999996424,,259645.842,8,400,,,
sequence,flow.Sequence,4_52,2023-05-01T20:13:49.172Z,,0,,,2947.3399999523244,completion,,,,,false,,,,259643.69999998808,259643.29999995232,256679.294,256693.69999998808,256695.96,259645.842,8,400,,,
trial,html.Screen,4_53_0,2023-05-01T20:13:51.955Z,,0,2,,2780.157999999996,response,ISIC_7885531.JPG,,ISIC_0033843.JPG,ISIC_7885531.JPG,false,1,keypress(m),500,262426.2999999523,262426,259629.176,259643.79999995232,259645.842,262429.064,8,400,4,,ISIC_0033843.JPG
break,html.Screen,4_53_1,2023-05-01T20:13:51.956Z,,0,,,NaN,,,,,,false,,,,262427.39999997616,262427.09999996424,,262426.5,,262429.064,8,400,,,
break_continue,html.Screen,4_53_2,2023-05-01T20:13:51.957Z,,0,,,NaN,,,,,,false,,,,262427.89999997616,262427.7999999523,,262427.59999996424,,262429.064,8,400,,,
sequence,flow.Sequence,4_53,2023-05-01T20:13:51.957Z,,0,,,2781.957999952312,completion,,,,,false,,,,262428.1999999881,262427.7999999523,259629.176,259643.79999995232,259645.842,262429.064,8,400,,,
trial,html.Screen,4_54_0,2023-05-01T20:13:54.569Z,,0,2,,2611.035999964224,response,ISIC_0010040.JPG,,ISIC_0012018.JPG,ISIC_0012018.JPG,false,0,keypress(z),500,265040.2999999523,265040.09999996424,262412.398,262428.2999999523,262429.064,265045.626,8,400,5,,ISIC_0010040.JPG
break,html.Screen,4_54_1,2023-05-01T20:13:54.571Z,,0,,,NaN,,,,,,false,,,,265041.59999996424,265041.1999999881,,265040.59999996424,,265045.626,8,400,,,
break_continue,html.Screen,4_54_2,2023-05-01T20:13:54.571Z,,0,,,NaN,,,,,,false,,,,265042.09999996424,265042,,265041.6999999881,,265045.626,8,400,,,
sequence,flow.Sequence,4_54,2023-05-01T20:13:54.571Z,,0,,,2612.935999999987,completion,,,,,false,,,,265042.2999999523,265042,262412.398,262428.2999999523,262429.064,265045.626,8,400,,,
trial,html.Screen,4_55_0,2023-05-01T20:13:57.157Z,,0,2,,2581.673999952327,response,ISIC_0056692.JPG,,ISIC_5738369.JPG,ISIC_0056692.JPG,false,1,keypress(m),500,267627.59999996424,267627.2999999523,265028.96,265042.39999997616,265045.626,267629.126,8,400,6,,ISIC_5738369.JPG
break,html.Screen,4_55_1,2023-05-01T20:13:57.158Z,,0,,,NaN,,,,,,false,,,,267628.7999999523,267628.5,,267627.7999999523,,267629.126,8,400,,,
break_continue,html.Screen,4_55_2,2023-05-01T20:13:57.158Z,,0,,,NaN,,,,,,false,,,,267629.2999999523,267629.1999999881,,267629,,267629.126,8,400,,,
sequence,flow.Sequence,4_55,2023-05-01T20:13:57.159Z,,0,,,2583.57399998809,completion,,,,,false,,,,267629.5,267629.1999999881,265028.96,265042.2999999523,265045.626,267629.126,8,400,,,
trial,html.Screen,4_56_0,2023-05-01T20:13:59.805Z,,0,2,,2646.3740000000107,response,ISIC_9568327.JPG,,ISIC_0952221.JPG,ISIC_0952221.JPG,false,0,keypress(z),500,270275.6999999881,270275.5,267612.46,267629.59999996424,267629.126,270279.02,8,400,7,,ISIC_9568327.JPG
break,html.Screen,4_56_1,2023-05-01T20:13:59.806Z,,0,,,NaN,,,,,,false,,,,270276.89999997616,270276.5,,270276,,270279.02,8,400,,,
break_continue,html.Screen,4_56_2,2023-05-01T20:13:59.807Z,,0,,,NaN,,,,,,false,,,,270277.6999999881,270277.2999999523,,270277,,270279.02,8,400,,,
sequence,flow.Sequence,4_56,2023-05-01T20:13:59.807Z,,0,,,2648.173999952327,completion,,,,,false,,,,270277.89999997616,270277.2999999523,267612.46,267629.59999996424,267629.126,270279.02,8,400,,,
trial,html.Screen,4_57_0,2023-05-01T20:14:02.339Z,,0,2,,2530.1799999880604,response,ISIC_0028986.JPG,,ISIC_1208705.JPG,ISIC_1208705.JPG,false,0,keypress(z),500,272809.5,272809.1999999881,270262.354,270278.09999996424,270279.02,272812.252,8,400,8,,ISIC_0028986.JPG
break,html.Screen,4_57_1,2023-05-01T20:14:02.340Z,,0,,,NaN,,,,,,false,,,,272810.59999996424,272810.2999999523,,272809.6999999881,,272812.252,8,400,,,
break_continue,html.Screen,4_57_2,2023-05-01T20:14:02.340Z,,0,,,NaN,,,,,,false,,,,272811.09999996424,272811,,272810.7999999523,,272812.252,8,400,,,
sequence,flow.Sequence,4_57,2023-05-01T20:14:02.341Z,,0,,,2531.9799999999814,completion,,,,,false,,,,272811.39999997616,272811,270262.354,270278,270279.02,272812.252,8,400,,,
trial,html.Screen,4_58_0,2023-05-01T20:14:05.773Z,,0,2,,3430.5479999523377,response,ISIC_4312841.JPG,,ISIC_0030300.JPG,ISIC_4312841.JPG,false,1,keypress(m),500,276243.59999996424,276242.7999999523,272795.586,272811.5,272812.252,276245.448,8,400,9,,ISIC_0030300.JPG
break,html.Screen,4_58_1,2023-05-01T20:14:05.774Z,,0,,,NaN,,,,,,false,,,,276245.09999996424,276244.59999996424,,276244,,276245.448,8,400,,,
break_continue,html.Screen,4_58_2,2023-05-01T20:14:05.775Z,,0,,,NaN,,,,,,false,,,,276245.6999999881,276245.5,,276245.2999999523,,276245.448,8,400,,,
sequence,flow.Sequence,4_58,2023-05-01T20:14:05.775Z,,0,,,3433.2480000000214,completion,,,,,false,,,,276245.89999997616,276245.5,272795.586,272811.5,272812.252,276245.448,8,400,,,
trial,html.Screen,4_59_0,2023-05-01T20:14:08.554Z,,0,2,,2778.751999988104,response,ISIC_0483289.JPG,,ISIC_0011703.JPG,ISIC_0483289.JPG,false,1,keypress(m),500,279024.5,279024.1999999881,276228.782,276246.09999996424,276245.448,279028.95,8,400,10,,ISIC_0011703.JPG
break,html.Screen,4_59_1,2023-05-01T20:14:08.556Z,,0,,,NaN,,,,,,false,,,,279026.5,279025.2999999523,,279024.7999999523,,279028.95,8,400,,,
break_continue,html.Screen,4_59_2,2023-05-01T20:14:08.557Z,,0,,,NaN,,,,,,false,,,,279027.5,279027.2999999523,,279026.7999999523,,279028.95,8,400,,,
sequence,flow.Sequence,4_59,2023-05-01T20:14:08.557Z,,0,,,2781.8519999523414,completion,,,,,false,,,,279027.6999999881,279027.2999999523,276228.782,276246,276245.448,279028.95,8,400,,,
trial,html.Screen,4_60_0,2023-05-01T20:14:11.900Z,,0,2,,3340.6499999642256,response,ISIC_0012740.JPG,,ISIC_0014987.JPG,ISIC_0012740.JPG,false,1,keypress(m),500,282369.89999997616,282369.59999996424,279012.284,279028.09999996424,279028.95,282378.816,8,400,11,,ISIC_0014987.JPG
break,html.Screen,4_60_1,2023-05-01T20:14:11.901Z,,0,,,NaN,,,,,,false,,,,282371.6999999881,282370.7999999523,,282370.2999999523,,282378.816,8,400,,,
break_continue,html.Screen,4_60_2,2023-05-01T20:14:11.904Z,,0,,,NaN,,,,,,false,,,,282374.09999996424,282373.7999999523,,282372.1999999881,,282378.816,8,400,,,
sequence,flow.Sequence,4_60,2023-05-01T20:14:11.904Z,,0,,,3344.8499999523046,completion,,,,,false,,,,282374.2999999523,282373.7999999523,279012.284,279028,279028.95,282378.816,8,400,,,
trial,html.Screen,4_61_0,2023-05-01T20:14:15.285Z,,0,2,,3375.8839999880875,response,ISIC_1192835.JPG,,ISIC_8714502.JPG,ISIC_8714502.JPG,false,0,keypress(z),500,285755,285754.6999999881,282362.15,282374.5,282378.816,285762.014,8,400,12,,ISIC_1192835.JPG
break,html.Screen,4_61_1,2023-05-01T20:14:15.286Z,,0,,,NaN,,,,,,false,,,,285756,285755.6999999881,,285755.09999996424,,285762.014,8,400,,,
break_continue,html.Screen,4_61_2,2023-05-01T20:14:15.286Z,,0,,,NaN,,,,,,false,,,,285756.59999996424,285756.39999997616,,285756.1999999881,,285762.014,8,400,,,
sequence,flow.Sequence,4_61,2023-05-01T20:14:15.286Z,,0,,,3377.5839999761665,completion,,,,,false,,,,285756.7999999523,285756.39999997616,282362.15,282374.5,282378.816,285762.014,8,400,,,
trial,html.Screen,4_62_0,2023-05-01T20:14:18.643Z,,0,2,,3351.2859999522916,response,ISIC_8521610.JPG,,ISIC_7244604.JPG,ISIC_8521610.JPG,false,1,keypress(m),500,289113.5,289113.2999999523,285745.348,285756.89999997616,285762.014,289128.546,8,400,13,,ISIC_7244604.JPG
break,html.Screen,4_62_1,2023-05-01T20:14:18.644Z,,0,,,NaN,,,,,,false,,,,289114.59999996424,289114.2999999523,,289113.6999999881,,289128.546,8,400,,,
break_continue,html.Screen,4_62_2,2023-05-01T20:14:18.645Z,,0,,,NaN,,,,,,false,,,,289115.09999996424,289115,,289114.6999999881,,289128.546,8,400,,,
sequence,flow.Sequence,4_62,2023-05-01T20:14:18.645Z,,0,,,3352.9859999999753,completion,,,,,false,,,,289115.2999999523,289115,285745.348,285756.7999999523,285762.014,289128.546,8,400,,,
trial,html.Screen,4_63_0,2023-05-01T20:14:21.290Z,,0,2,,2631.853999976185,response,ISIC_5403296.JPG,,ISIC_5789263.JPG,ISIC_5789263.JPG,false,0,keypress(z),500,291760.6999999881,291760.39999997616,289111.88,289115.39999997616,289128.546,291761.774,8,400,14,,ISIC_5403296.JPG
break,html.Screen,4_63_1,2023-05-01T20:14:21.292Z,,0,,,NaN,,,,,,false,,,,291761.7999999523,291761.5,,291760.89999997616,,291761.774,8,400,,,
break_continue,html.Screen,4_63_2,2023-05-01T20:14:21.292Z,,0,,,NaN,,,,,,false,,,,291762.2999999523,291762.09999996424,,291761.89999997616,,291761.774,8,400,,,
sequence,flow.Sequence,4_63,2023-05-01T20:14:21.292Z,,0,,,2633.553999964264,completion,,,,,false,,,,291762.5,291762.09999996424,289111.88,289115.2999999523,289128.546,291761.774,8,400,,,
trial,html.Screen,4_64_0,2023-05-01T20:14:24.133Z,,0,2,,2841.4259999881033,response,ISIC_0268701.JPG,,ISIC_0032339.JPG,ISIC_0268701.JPG,false,1,keypress(m),500,294603.5,294603.1999999881,291745.108,291762.59999996424,291761.774,294611.66,8,400,15,,ISIC_0032339.JPG
break,html.Screen,4_64_1,2023-05-01T20:14:24.135Z,,0,,,NaN,,,,,,false,,,,294604.59999996424,294604.1999999881,,294603.59999996424,,294611.66,8,400,,,
break_continue,html.Screen,4_64_2,2023-05-01T20:14:24.135Z,,0,,,NaN,,,,,,false,,,,294605.1999999881,294605.09999996424,,294604.7999999523,,294611.66,8,400,,,
sequence,flow.Sequence,4_64,2023-05-01T20:14:24.135Z,,0,,,2843.3259999642614,completion,,,,,false,,,,294605.39999997616,294605.09999996424,291745.108,291762.59999996424,291761.774,294611.66,8,400,,,
trial,html.Screen,4_65_0,2023-05-01T20:14:26.684Z,,0,2,,2541.7399999761838,response,ISIC_0055311.JPG,,ISIC_9449365.JPG,ISIC_9449365.JPG,false,0,keypress(z),500,297153.7999999523,297153.39999997616,294594.994,294605.5,294611.66,297161.558,8,400,16,,ISIC_0055311.JPG
break,html.Screen,4_65_1,2023-05-01T20:14:26.685Z,,0,,,NaN,,,,,,false,,,,297155,297154.59999996424,,297154,,297161.558,8,400,,,
break_continue,html.Screen,4_65_2,2023-05-01T20:14:26.685Z,,0,,,NaN,,,,,,false,,,,297155.5,297155.39999997616,,297155.09999996424,,297161.558,8,400,,,
sequence,flow.Sequence,4_65,2023-05-01T20:14:26.686Z,,0,,,2543.7399999761838,completion,,,,,false,,,,297155.7999999523,297155.39999997616,294594.994,294605.39999997616,294611.66,297161.558,8,400,,,
trial,html.Screen,4_66_0,2023-05-01T20:14:29.923Z,,0,2,,3230.941999999981,response,ISIC_0046647.JPG,,ISIC_0062401.JPG,ISIC_0062401.JPG,false,0,keypress(z),500,300392.7999999523,300392.5,297144.892,297155.89999997616,297161.558,300395.309,8,400,17,,ISIC_0046647.JPG
break,html.Screen,4_66_1,2023-05-01T20:14:29.924Z,,0,,,NaN,,,,,,false,,,,300393.89999997616,300393.59999996424,,300393.09999996424,,300395.309,8,400,,,
break_continue,html.Screen,4_66_2,2023-05-01T20:14:29.924Z,,0,,,NaN,,,,,,false,,,,300394.2999999523,300394.1999999881,,300394,,300395.309,8,400,,,
sequence,flow.Sequence,4_66,2023-05-01T20:14:29.925Z,,0,,,3232.64199998806,completion,,,,,false,,,,300394.5,300394.1999999881,297144.892,297155.7999999523,297161.558,300395.309,8,400,,,
trial,html.Screen,4_67_0,2023-05-01T20:14:32.597Z,,0,2,,2670.8909999880707,response,ISIC_0063268.JPG,,ISIC_4768512.JPG,ISIC_4768512.JPG,false,0,keypress(z),500,303066.59999996424,303066.1999999881,300378.643,300394.6999999881,300395.309,303078.535,8,400,18,,ISIC_0063268.JPG
break,html.Screen,4_67_1,2023-05-01T20:14:32.598Z,,0,,,NaN,,,,,,false,,,,303067.59999996424,303067.2999999523,,303066.7999999523,,303078.535,8,400,,,
break_continue,html.Screen,4_67_2,2023-05-01T20:14:32.598Z,,0,,,NaN,,,,,,false,,,,303068.09999996424,303067.89999997616,,303067.7999999523,,303078.535,8,400,,,
sequence,flow.Sequence,4_67,2023-05-01T20:14:32.598Z,,0,,,2672.5909999761498,completion,,,,,false,,,,303068.2999999523,303067.89999997616,300378.643,300394.6999999881,300395.309,303078.535,8,400,,,
trial,html.Screen,4_68_0,2023-05-01T20:14:35.156Z,,0,2,,2546.6649999881047,response,ISIC_0004217.JPG,,ISIC_0028691.JPG,ISIC_0004217.JPG,false,1,keypress(m),500,305626,305625.1999999881,303061.869,303068.39999997616,303078.535,305628.433,8,400,19,,ISIC_0028691.JPG
break,html.Screen,4_68_1,2023-05-01T20:14:35.158Z,,0,,,NaN,,,,,,false,,,,305627.59999996424,305627,,305626.5,,305628.433,8,400,,,
break_continue,html.Screen,4_68_2,2023-05-01T20:14:35.158Z,,0,,,NaN,,,,,,false,,,,305628.1999999881,305628,,305627.7999999523,,305628.433,8,400,,,
sequence,flow.Sequence,4_68,2023-05-01T20:14:35.159Z,,0,,,2549.4650000000256,completion,,,,,false,,,,305628.2999999523,305628,303061.869,303068.39999997616,303078.535,305628.433,8,400,,,
trial,html.Screen,4_69_0,2023-05-01T20:14:37.700Z,,0,2,,2540.666999964218,response,ISIC_3564136.JPG,,ISIC_0066200.JPG,ISIC_3564136.JPG,false,1,keypress(m),500,308169.2999999523,308169.09999996424,305611.767,305628.59999996424,305628.433,308178.331,8,400,20,,ISIC_0066200.JPG
break,html.Screen,4_69_1,2023-05-01T20:14:37.701Z,,0,,,NaN,,,,,,false,,,,308170.5,308170.09999996424,,308169.5,,308178.331,8,400,,,
break_continue,html.Screen,4_69_2,2023-05-01T20:14:37.701Z,,0,,,NaN,,,,,,false,,,,308171,308170.7999999523,,308170.59999996424,,308178.331,8,400,,,
sequence,flow.Sequence,4_69,2023-05-01T20:14:37.701Z,,0,,,2542.366999952297,completion,,,,,false,,,,308171.1999999881,308170.7999999523,305611.767,305628.5,305628.433,308178.331,8,400,,,
trial,html.Screen,4_70_0,2023-05-01T20:14:40.291Z,,0,2,,2581.8689999880735,response,ISIC_9696846.JPG,,ISIC_0030373.JPG,ISIC_9696846.JPG,false,1,keypress(m),500,310760.5,310760.1999999881,308161.665,308171.2999999523,308178.331,310761.824,8,400,21,,ISIC_0030373.JPG
break,html.Screen,4_70_1,2023-05-01T20:14:40.292Z,,0,,,NaN,,,,,,false,,,,310761.5,310761.1999999881,,310760.6999999881,,310761.824,8,400,,,
break_continue,html.Screen,4_70_2,2023-05-01T20:14:40.292Z,,0,,,NaN,,,,,,false,,,,310762,310761.89999997616,,310761.59999996424,,310761.824,8,400,,,
sequence,flow.Sequence,4_70,2023-05-01T20:14:40.293Z,,0,,,2583.5689999761526,completion,,,,,false,,,,310762.1999999881,310761.89999997616,308161.665,308171.1999999881,308178.331,310761.824,8,400,,,
trial,html.Screen,4_71_0,2023-05-01T20:14:43.501Z,,0,2,,3208.3759999880567,response,ISIC_8617277.JPG,,ISIC_2679689.JPG,ISIC_2679689.JPG,false,0,keypress(z),500,313970.5,313970.1999999881,310745.158,310762.39999997616,310761.824,313978.362,8,400,22,,ISIC_8617277.JPG
break,html.Screen,4_71_1,2023-05-01T20:14:43.502Z,,0,,,NaN,,,,,,false,,,,313971.59999996424,313971.2999999523,,313970.6999999881,,313978.362,8,400,,,
break_continue,html.Screen,4_71_2,2023-05-01T20:14:43.503Z,,0,,,NaN,,,,,,false,,,,313972.09999996424,313972,,313971.6999999881,,313978.362,8,400,,,
sequence,flow.Sequence,4_71,2023-05-01T20:14:43.503Z,,0,,,3210.1759999999776,completion,,,,,false,,,,313972.2999999523,313972,310745.158,310762.39999997616,310761.824,313978.362,8,400,,,
trial,html.Screen,4_72_0,2023-05-01T20:14:46.140Z,,0,2,,2630.9379999522935,response,ISIC_8699796.JPG,,ISIC_0025472.JPG,ISIC_8699796.JPG,false,1,keypress(m),500,316609.5,316609.2999999523,313961.696,313972.5,313978.362,316611.59,8,400,23,,ISIC_0025472.JPG
break,html.Screen,4_72_1,2023-05-01T20:14:46.141Z,,0,,,NaN,,,,,,false,,,,316610.6999999881,316610.39999997616,,316609.7999999523,,316611.59,8,400,,,
break_continue,html.Screen,4_72_2,2023-05-01T20:14:46.142Z,,0,,,NaN,,,,,,false,,,,316611.09999996424,316611.09999996424,,316610.89999997616,,316611.59,8,400,,,
sequence,flow.Sequence,4_72,2023-05-01T20:14:46.142Z,,0,,,2632.7379999642144,completion,,,,,false,,,,316611.2999999523,316611.09999996424,313961.696,313972.5,313978.362,316611.59,8,400,,,
trial,html.Screen,4_73_0,2023-05-01T20:14:49.126Z,,0,2,,2983.1099999880535,response,ISIC_4166490.JPG,,ISIC_1926656.JPG,ISIC_4166490.JPG,false,1,keypress(m),500,319594.89999997616,319594.6999999881,316594.924,316611.5,316611.59,319611.755,8,400,24,,ISIC_1926656.JPG
break,html.Screen,4_73_1,2023-05-01T20:14:49.127Z,,0,,,NaN,,,,,,false,,,,319595.89999997616,319595.6999999881,,319595.09999996424,,319611.755,8,400,,,
break_continue,html.Screen,4_73_2,2023-05-01T20:14:49.127Z,,0,,,NaN,,,,,,false,,,,319596.39999997616,319596.2999999523,,319596.09999996424,,319611.755,8,400,,,
sequence,flow.Sequence,4_73,2023-05-01T20:14:49.127Z,,0,,,2984.7099999522907,completion,,,,,false,,,,319596.59999996424,319596.2999999523,316594.924,316611.39999997616,316611.59,319611.755,8,400,,,
trial,html.Screen,4_74_0,2023-05-01T20:14:51.732Z,,0,2,,2589.4449999880744,response,ISIC_0066671.JPG,,ISIC_2704046.JPG,ISIC_2704046.JPG,false,0,keypress(z),500,322201.5,322201.1999999881,319595.089,319596.6999999881,319611.755,322211.651,8,400,25,,ISIC_0066671.JPG
break,html.Screen,4_74_1,2023-05-01T20:14:51.733Z,,0,,,NaN,,,,,,false,,,,322202.5,322202.2999999523,,322201.6999999881,,322211.651,8,400,,,
break_continue,html.Screen,4_74_2,2023-05-01T20:14:51.734Z,,0,,,NaN,,,,,,false,,,,322203.09999996424,322202.89999997616,,322202.6999999881,,322211.651,8,400,,,
sequence,flow.Sequence,4_74,2023-05-01T20:14:51.734Z,,0,,,2591.1449999761535,completion,,,,,false,,,,322203.2999999523,322202.89999997616,319595.089,319596.6999999881,319611.755,322211.651,8,400,,,
trial,html.Screen,4_75_0,2023-05-01T20:15:03.229Z,,0,2,,11516.206000000006,timeout,ISIC_0060222.JPG,,ISIC_9439742.JPG,,false,,,500,333697.89999997616,333697.6999999881,322194.985,322203.39999997616,322211.651,333727.857,8,400,26,,
break,html.Screen,4_75_1,2023-05-01T20:15:03.230Z,,0,,,NaN,,,,,,false,,,,333699,333698.59999996424,,333698.09999996424,,333727.857,8,400,,,
break_continue,html.Screen,4_75_2,2023-05-01T20:15:03.231Z,,0,,,NaN,,,,,,false,,,,333699.5,333699.2999999523,,333699.09999996424,,333727.857,8,400,,,
sequence,flow.Sequence,4_75,2023-05-01T20:15:03.231Z,,0,,,11487.648999952304,completion,,,,,false,,,,333699.6999999881,333699.2999999523,322194.985,322203.2999999523,322211.651,333727.857,8,400,,,
trial,html.Screen,4_76_0,2023-05-01T20:15:08.068Z,,0,2,,4809.142999999982,response,ISIC_0065943.JPG,,ISIC_0014707.JPG,ISIC_0065943.JPG,false,1,keypress(m),500,338537.1999999881,338537,333711.191,333699.7999999523,333727.857,338544.714,8,400,27,,ISIC_0014707.JPG
break,html.Screen,4_76_1,2023-05-01T20:15:08.070Z,,0,,,NaN,,,,,,false,,,,338538.39999997616,338538.09999996424,,338537.5,,338544.714,8,400,,,
break_continue,html.Screen,4_76_2,2023-05-01T20:15:08.070Z,,0,,,NaN,,,,,,false,,,,338538.89999997616,338538.7999999523,,338538.5,,338544.714,8,400,,,
sequence,flow.Sequence,4_76,2023-05-01T20:15:08.070Z,,0,,,4810.942999952298,completion,,,,,false,,,,338539.09999996424,338538.7999999523,333711.191,333699.6999999881,333727.857,338544.714,8,400,,,
trial,html.Screen,4_77_0,2023-05-01T20:15:10.797Z,,0,2,,2720.286000000022,response,ISIC_0053796.JPG,,ISIC_8786606.JPG,ISIC_8786606.JPG,false,0,keypress(z),500,341266,341265,338528.048,338539.2999999523,338544.714,341277.938,8,400,28,,ISIC_0053796.JPG
break,html.Screen,4_77_1,2023-05-01T20:15:10.798Z,,0,,,NaN,,,,,,false,,,,341267,341266.6999999881,,341266.1999999881,,341277.938,8,400,,,
break_continue,html.Screen,4_77_2,2023-05-01T20:15:10.799Z,,0,,,NaN,,,,,,false,,,,341267.5,341267.2999999523,,341267.1999999881,,341277.938,8,400,,,
sequence,flow.Sequence,4_77,2023-05-01T20:15:10.799Z,,0,,,2722.585999952338,completion,,,,,false,,,,341267.59999996424,341267.2999999523,338528.048,338539.2999999523,338544.714,341277.938,8,400,,,
trial,html.Screen,4_78_0,2023-05-01T20:15:13.380Z,,0,2,,2570.5619999999763,response,ISIC_7227223.JPG,,ISIC_4232761.JPG,ISIC_4232761.JPG,false,0,keypress(z),500,343848.7999999523,343848.5,341261.272,341267.7999999523,341277.938,343861.168,8,400,29,,ISIC_7227223.JPG
break,html.Screen,4_78_1,2023-05-01T20:15:13.381Z,,0,,,NaN,,,,,,false,,,,343849.89999997616,343849.6999999881,,343849.09999996424,,343861.168,8,400,,,
break_continue,html.Screen,4_78_2,2023-05-01T20:15:13.382Z,,0,,,NaN,,,,,,false,,,,343850.5,343850.2999999523,,343850.09999996424,,343861.168,8,400,,,
sequence,flow.Sequence,4_78,2023-05-01T20:15:13.382Z,,0,,,2572.3619999522925,completion,,,,,false,,,,343850.59999996424,343850.2999999523,341261.272,341267.7999999523,341277.938,343861.168,8,400,,,
trial,html.Screen,4_79_0,2023-05-01T20:15:16.126Z,,0,2,,2733.131999952311,response,ISIC_4247149.JPG,,ISIC_0000572.JPG,ISIC_0000572.JPG,false,0,keypress(z),500,346594.59999996424,346594.2999999523,343844.502,343850.7999999523,343861.168,346611.323,8,400,30,,ISIC_4247149.JPG
break,html.Screen,4_79_1,2023-05-01T20:15:16.127Z,,0,,,NaN,,,,,,false,,,,346595.6999999881,346595.39999997616,,346594.7999999523,,346611.323,8,400,,,
break_continue,html.Screen,4_79_2,2023-05-01T20:15:16.128Z,,0,,,NaN,,,,,,false,,,,346596.1999999881,346596,,346595.7999999523,,346611.323,8,400,,,
sequence,flow.Sequence,4_79,2023-05-01T20:15:16.128Z,,0,,,2734.831999999995,completion,,,,,false,,,,346596.2999999523,346596,343844.502,343850.7999999523,343861.168,346611.323,8,400,,,
trial,html.Screen,4_80_0,2023-05-01T20:15:18.958Z,,0,2,,2814.376999988104,response,ISIC_0054134.JPG,,ISIC_7180438.JPG,ISIC_7180438.JPG,false,0,keypress(z),500,349426,349425.6999999881,346594.657,346596.39999997616,346611.323,349427.877,8,400,31,,ISIC_0054134.JPG
break,html.Screen,4_80_1,2023-05-01T20:15:18.959Z,,0,,,NaN,,,,,,false,,,,349427.2999999523,349426.89999997616,,349426.1999999881,,349427.877,8,400,,,
break_continue,html.Screen,4_80_2,2023-05-01T20:15:18.959Z,,0,,,NaN,,,,,,false,,,,349427.7999999523,349427.6999999881,,349427.39999997616,,349427.877,8,400,,,
sequence,flow.Sequence,4_80,2023-05-01T20:15:18.960Z,,0,,,2816.376999988104,completion,,,,,false,,,,349428.09999996424,349427.6999999881,346594.657,346596.39999997616,346611.323,349427.877,8,400,,,
trial,html.Screen,4_81_0,2023-05-01T20:15:21.581Z,,0,2,,2621.4229999523377,response,ISIC_0758797.JPG,,ISIC_0533122.JPG,ISIC_0758797.JPG,false,1,keypress(m),500,352049.59999996424,352049.2999999523,349411.211,349428.1999999881,349427.877,352061.105,8,400,32,,ISIC_0533122.JPG
break,html.Screen,4_81_1,2023-05-01T20:15:21.582Z,,0,,,NaN,,,,,,false,,,,352050.6999999881,352050.39999997616,,352049.7999999523,,352061.105,8,400,,,
break_continue,html.Screen,4_81_2,2023-05-01T20:15:21.583Z,,0,,,NaN,,,,,,false,,,,352051.2999999523,352051.09999996424,,352050.7999999523,,352061.105,8,400,,,
sequence,flow.Sequence,4_81,2023-05-01T20:15:21.583Z,,0,,,2623.2229999642586,completion,,,,,false,,,,352051.39999997616,352051.09999996424,349411.211,349428.09999996424,349427.877,352061.105,8,400,,,
trial,html.Screen,4_82_0,2023-05-01T20:15:24.973Z,,0,2,,3379.994999964256,response,ISIC_0698821.JPG,,ISIC_8100185.JPG,ISIC_8100185.JPG,false,0,keypress(z),500,355441.39999997616,355441.09999996424,352044.439,352051.5,352061.105,355444.593,8,400,33,,ISIC_0698821.JPG
break,html.Screen,4_82_1,2023-05-01T20:15:24.974Z,,0,,,NaN,,,,,,false,,,,355442.59999996424,355442.1999999881,,355441.6999999881,,355444.593,8,400,,,
break_continue,html.Screen,4_82_2,2023-05-01T20:15:24.975Z,,0,,,NaN,,,,,,false,,,,355443,355442.89999997616,,355442.6999999881,,355444.593,8,400,,,
sequence,flow.Sequence,4_82,2023-05-01T20:15:24.975Z,,0,,,3381.7949999761768,completion,,,,,false,,,,355443.1999999881,355442.89999997616,352044.439,352051.5,352061.105,355444.593,8,400,,,
trial,html.Screen,4_83_0,2023-05-01T20:15:27.528Z,,0,2,,2550.8069999761647,response,ISIC_0029021.JPG,,ISIC_6548307.JPG,ISIC_6548307.JPG,false,0,keypress(z),500,357995.6999999881,357995.39999997616,355427.927,355443.2999999523,355444.593,358011.157,8,400,34,,ISIC_0029021.JPG
break,html.Screen,4_83_1,2023-05-01T20:15:27.529Z,,0,,,NaN,,,,,,false,,,,357996.89999997616,357996.5,,357996.09999996424,,358011.157,8,400,,,
break_continue,html.Screen,4_83_2,2023-05-01T20:15:27.530Z,,0,,,NaN,,,,,,false,,,,357998.09999996424,357997.89999997616,,357997,,358011.157,8,400,,,
sequence,flow.Sequence,4_83,2023-05-01T20:15:27.530Z,,0,,,2553.3069999761647,completion,,,,,false,,,,357998.39999997616,357997.89999997616,355427.927,355443.2999999523,355444.593,358011.157,8,400,,,
trial,html.Screen,4_84_0,2023-05-01T20:15:30.413Z,,0,2,,2869.4429999642307,response,ISIC_0030829.JPG,,ISIC_0594695.JPG,ISIC_0594695.JPG,false,0,keypress(z),500,360880.89999997616,360880.59999996424,357994.491,357998.5,358011.157,360894.375,8,400,35,,ISIC_0030829.JPG
break,html.Screen,4_84_1,2023-05-01T20:15:30.414Z,,0,,,NaN,,,,,,false,,,,360882,360881.7999999523,,360881.1999999881,,360894.375,8,400,,,
break_continue,html.Screen,4_84_2,2023-05-01T20:15:30.414Z,,0,,,NaN,,,,,,false,,,,360882.5,360882.39999997616,,360882.09999996424,,360894.375,8,400,,,
sequence,flow.Sequence,4_84,2023-05-01T20:15:30.415Z,,0,,,2871.2429999761516,completion,,,,,false,,,,360882.6999999881,360882.39999997616,357994.491,357998.39999997616,358011.157,360894.375,8,400,,,
trial,html.Screen,4_85_0,2023-05-01T20:15:34.037Z,,0,2,,3610.324999988079,response,ISIC_7605678.JPG,,ISIC_6712342.JPG,ISIC_6712342.JPG,false,0,keypress(z),500,364505,364504.6999999881,360877.709,360882.7999999523,360894.375,364510.897,8,400,36,,ISIC_7605678.JPG
break,html.Screen,4_85_1,2023-05-01T20:15:34.038Z,,0,,,NaN,,,,,,false,,,,364506.09999996424,364505.7999999523,,364505.1999999881,,364510.897,8,400,,,
break_continue,html.Screen,4_85_2,2023-05-01T20:15:34.039Z,,0,,,NaN,,,,,,false,,,,364506.59999996424,364506.5,,364506.2999999523,,364510.897,8,400,,,
sequence,flow.Sequence,4_85,2023-05-01T20:15:34.039Z,,0,,,3612.125,completion,,,,,false,,,,364506.7999999523,364506.5,360877.709,360882.7999999523,360894.375,364510.897,8,400,,,
trial,html.Screen,4_86_0,2023-05-01T20:15:40.982Z,,0,2,,6938.902999952319,response,ISIC_7641956.JPG,,ISIC_0004486.JPG,ISIC_0004486.JPG,false,0,keypress(z),500,371450.09999996424,371449.7999999523,364494.231,364507,364510.897,371460.895,8,400,37,,ISIC_7641956.JPG
break,html.Screen,4_86_1,2023-05-01T20:15:40.984Z,,0,,,NaN,,,,,,false,,,,371451.2999999523,371450.89999997616,,371450.2999999523,,371460.895,8,400,,,
break_continue,html.Screen,4_86_2,2023-05-01T20:15:40.984Z,,0,,,NaN,,,,,,false,,,,371451.89999997616,371451.7999999523,,371451.39999997616,,371460.895,8,400,,,
sequence,flow.Sequence,4_86,2023-05-01T20:15:40.984Z,,0,,,6940.902999952319,completion,,,,,false,,,,371452.09999996424,371451.7999999523,364494.231,364506.89999997616,364510.897,371460.895,8,400,,,
trial,html.Screen,4_87_0,2023-05-01T20:15:46.206Z,,0,2,,5212.5049999761395,response,ISIC_0000274.JPG,,ISIC_0698821.JPG,ISIC_0000274.JPG,false,1,keypress(m),500,376673.6999999881,376673.39999997616,371444.229,371452.1999999881,371460.895,376677.633,8,400,38,,ISIC_0698821.JPG
break,html.Screen,4_87_1,2023-05-01T20:15:46.208Z,,0,,,NaN,,,,,,false,,,,376675.59999996424,376675,,376674,,376677.633,8,400,,,
break_continue,html.Screen,4_87_2,2023-05-01T20:15:46.208Z,,0,,,NaN,,,,,,false,,,,376676.1999999881,376676,,376675.6999999881,,376677.633,8,400,,,
sequence,flow.Sequence,4_87,2023-05-01T20:15:46.209Z,,0,,,5215.104999999981,completion,,,,,false,,,,376676.59999996424,376676,371444.229,371452.09999996424,371460.895,376677.633,8,400,,,
trial,html.Screen,4_88_0,2023-05-01T20:15:50.551Z,,0,2,,4340.266999976186,response,ISIC_0053686.JPG,,ISIC_5281576.JPG,ISIC_0053686.JPG,false,1,keypress(m),500,381018.1999999881,381017.89999997616,376660.967,376676.7999999523,376677.633,381027.459,8,400,39,,ISIC_5281576.JPG
break,html.Screen,4_88_1,2023-05-01T20:15:50.552Z,,0,,,NaN,,,,,,false,,,,381019.1999999881,381018.89999997616,,381018.39999997616,,381027.459,8,400,,,
break_continue,html.Screen,4_88_2,2023-05-01T20:15:50.552Z,,0,,,NaN,,,,,,false,,,,381019.7999999523,381019.59999996424,,381019.39999997616,,381027.459,8,400,,,
sequence,flow.Sequence,4_88,2023-05-01T20:15:50.552Z,,0,,,4341.966999964265,completion,,,,,false,,,,381020,381019.59999996424,376660.967,376676.7999999523,376677.633,381027.459,8,400,,,
trial,html.Screen,4_89_0,2023-05-01T20:15:54.382Z,,0,2,,3821.9409999761847,response,ISIC_0015109.JPG,,ISIC_7242542.JPG,ISIC_7242542.JPG,false,0,keypress(z),500,384849.59999996424,384849.39999997616,381010.793,381020.1999999881,381027.459,384860.639,8,400,40,,ISIC_0015109.JPG
break,html.Screen,4_89_1,2023-05-01T20:15:54.384Z,,0,,,NaN,,,,,,false,,,,384851.59999996424,384851.1999999881,,384850.2999999523,,384860.639,8,400,,,
break_continue,html.Screen,4_89_2,2023-05-01T20:15:54.385Z,,0,,,NaN,,,,,,false,,,,384852.39999997616,384852.1999999881,,384851.7999999523,,384860.639,8,400,,,
sequence,flow.Sequence,4_89,2023-05-01T20:15:54.385Z,,0,,,3824.7409999881056,completion,,,,,false,,,,384852.59999996424,384852.1999999881,381010.793,381020.09999996424,381027.459,384860.639,8,400,,,
trial,html.Screen,4_90_0,2023-05-01T20:16:01.853Z,,0,2,,7459.660999952292,response,ISIC_5495413.JPG,,ISIC_3836576.JPG,ISIC_5495413.JPG,false,1,keypress(m),500,392320.6999999881,392320.2999999523,384843.973,384852.6999999881,384860.639,392327.272,8,400,41,,ISIC_3836576.JPG
break,html.Screen,4_90_1,2023-05-01T20:16:01.855Z,,0,,,NaN,,,,,,false,,,,392321.7999999523,392321.39999997616,,392320.89999997616,,392327.272,8,400,,,
break_continue,html.Screen,4_90_2,2023-05-01T20:16:01.855Z,,0,,,NaN,,,,,,false,,,,392322.2999999523,392322.09999996424,,392321.89999997616,,392327.272,8,400,,,
sequence,flow.Sequence,4_90,2023-05-01T20:16:01.855Z,,0,,,7461.4609999642125,completion,,,,,false,,,,392322.5,392322.09999996424,384843.973,384852.6999999881,384860.639,392327.272,8,400,,,
trial,html.Screen,4_91_0,2023-05-01T20:16:05.816Z,,0,2,,3956.027999952319,response,ISIC_0031742.JPG,,ISIC_2163734.JPG,ISIC_2163734.JPG,false,0,keypress(z),500,396283.5,396283.2999999523,392310.606,392322.59999996424,392327.272,396293.78,8,400,42,,ISIC_0031742.JPG
break,html.Screen,4_91_1,2023-05-01T20:16:05.818Z,,0,,,NaN,,,,,,false,,,,396284.7999999523,396284.39999997616,,396283.7999999523,,396293.78,8,400,,,
break_continue,html.Screen,4_91_2,2023-05-01T20:16:05.818Z,,0,,,NaN,,,,,,false,,,,396285.39999997616,396285.1999999881,,396285,,396293.78,8,400,,,
sequence,flow.Sequence,4_91,2023-05-01T20:16:05.818Z,,0,,,3957.927999988082,completion,,,,,false,,,,396285.59999996424,396285.1999999881,392310.606,392322.59999996424,392327.272,396293.78,8,400,,,
trial,html.Screen,4_92_0,2023-05-01T20:16:09.072Z,,0,2,,3244.919999988051,response,ISIC_3335505.JPG,,ISIC_0638889.JPG,ISIC_3335505.JPG,false,1,keypress(m),500,399539,399538.6999999881,396277.114,396285.6999999881,396293.78,399543.937,8,400,43,,ISIC_0638889.JPG
break,html.Screen,4_92_1,2023-05-01T20:16:09.073Z,,0,,,NaN,,,,,,false,,,,399540.09999996424,399539.6999999881,,399539.2999999523,,399543.937,8,400,,,
break_continue,html.Screen,4_92_2,2023-05-01T20:16:09.074Z,,0,,,NaN,,,,,,false,,,,399540.5,399540.39999997616,,399540.1999999881,,399543.937,8,400,,,
sequence,flow.Sequence,4_92,2023-05-01T20:16:09.074Z,,0,,,3246.61999997613,completion,,,,,false,,,,399540.6999999881,399540.39999997616,396277.114,396285.59999996424,396293.78,399543.937,8,400,,,
trial,html.Screen,4_93_0,2023-05-01T20:16:12.591Z,,0,2,,3514.0630000000237,response,ISIC_4517738.JPG,,ISIC_0032165.JPG,ISIC_0032165.JPG,false,0,keypress(z),500,403058.2999999523,403058,399527.271,399540.7999999523,399543.937,403060.463,8,400,44,,ISIC_4517738.JPG
break,html.Screen,4_93_1,2023-05-01T20:16:12.593Z,,0,,,NaN,,,,,,false,,,,403059.39999997616,403059.09999996424,,403058.5,,403060.463,8,400,,,
break_continue,html.Screen,4_93_2,2023-05-01T20:16:12.593Z,,0,,,NaN,,,,,,false,,,,403060,403059.7999999523,,403059.59999996424,,403060.463,8,400,,,
sequence,flow.Sequence,4_93,2023-05-01T20:16:12.593Z,,0,,,3515.86299995234,completion,,,,,false,,,,403060.1999999881,403059.7999999523,399527.271,399540.7999999523,399543.937,403060.463,8,400,,,
trial,html.Screen,4_94_0,2023-05-01T20:16:15.190Z,,0,2,,2598.9369999761693,response,ISIC_0011947.JPG,,ISIC_3028754.JPG,ISIC_3028754.JPG,false,0,keypress(z),500,405659.7999999523,405659.39999997616,403043.797,403060.39999997616,403060.463,405677.025,8,400,45,,ISIC_0011947.JPG
break,html.Screen,4_94_1,2023-05-01T20:16:15.191Z,,0,,,NaN,,,,,,false,,,,405661,405660.6999999881,,405660,,405677.025,8,400,,,
break_continue,html.Screen,4_94_2,2023-05-01T20:16:15.192Z,,0,,,NaN,,,,,,false,,,,405661.59999996424,405661.39999997616,,405661.09999996424,,405677.025,8,400,,,
sequence,flow.Sequence,4_94,2023-05-01T20:16:15.192Z,,0,,,2600.9369999761693,completion,,,,,false,,,,405661.6999999881,405661.39999997616,403043.797,403060.2999999523,403060.463,405677.025,8,400,,,
trial,html.Screen,4_95_0,2023-05-01T20:16:18.887Z,,0,2,,3686.4749999999767,response,ISIC_1869829.JPG,,ISIC_0000314.JPG,ISIC_0000314.JPG,false,0,keypress(z),500,409363.7999999523,409363.5,405660.359,405661.89999997616,405677.025,409377.179,8,400,46,,ISIC_1869829.JPG
break,html.Screen,4_95_1,2023-05-01T20:16:18.888Z,,0,,,NaN,,,,,,false,,,,409364.89999997616,409364.59999996424,,409364.09999996424,,409377.179,8,400,,,
break_continue,html.Screen,4_95_2,2023-05-01T20:16:18.889Z,,0,,,NaN,,,,,,false,,,,409365.39999997616,409365.2999999523,,409365.09999996424,,409377.179,8,400,,,
sequence,flow.Sequence,4_95,2023-05-01T20:16:18.889Z,,0,,,3688.274999952293,completion,,,,,false,,,,409365.6999999881,409365.2999999523,405660.359,405661.7999999523,405677.025,409377.179,8,400,,,
trial,html.Screen,4_96_0,2023-05-01T20:16:23.055Z,,0,2,,4160.120999952313,response,ISIC_0033886.JPG,,ISIC_0003664.JPG,ISIC_0033886.JPG,false,1,keypress(m),500,413537.59999996424,413537.2999999523,409360.513,409365.7999999523,409377.179,413543.679,8,400,47,,ISIC_0003664.JPG
break,html.Screen,4_96_1,2023-05-01T20:16:23.056Z,,0,,,NaN,,,,,,false,,,,413538.7999999523,413538.5,,413537.89999997616,,413543.679,8,400,,,
break_continue,html.Screen,4_96_2,2023-05-01T20:16:23.057Z,,0,,,NaN,,,,,,false,,,,413539.2999999523,413539.09999996424,,413538.89999997616,,413543.679,8,400,,,
sequence,flow.Sequence,4_96,2023-05-01T20:16:23.057Z,,0,,,4161.9209999642335,completion,,,,,false,,,,413539.59999996424,413539.09999996424,409360.513,409365.7999999523,409377.179,413543.679,8,400,,,
trial,html.Screen,4_97_0,2023-05-01T20:16:25.862Z,,0,2,,2803.3209999999963,response,ISIC_0057539.JPG,,ISIC_0071040.JPG,ISIC_0057539.JPG,false,1,keypress(m),500,416347.2999999523,416347,413527.013,413539.6999999881,413543.679,416360.233,8,400,48,,ISIC_0071040.JPG
break,html.Screen,4_97_1,2023-05-01T20:16:25.863Z,,0,,,NaN,,,,,,false,,,,416348.39999997616,416348,,416347.5,,416360.233,8,400,,,
break_continue,html.Screen,4_97_2,2023-05-01T20:16:25.863Z,,0,,,NaN,,,,,,false,,,,416349,416348.89999997616,,416348.5,,416360.233,8,400,,,
sequence,flow.Sequence,4_97,2023-05-01T20:16:25.864Z,,0,,,2805.2209999761544,completion,,,,,false,,,,416349.09999996424,416348.89999997616,413527.013,413539.6999999881,413543.679,416360.233,8,400,,,
trial,html.Screen,4_98_0,2023-05-01T20:16:28.762Z,,0,2,,2889.3669999642298,response,ISIC_4216750.JPG,,ISIC_0069264.JPG,ISIC_4216750.JPG,false,1,keypress(m),500,419249.7999999523,419249.59999996424,416343.567,416349.2999999523,416360.233,419260.117,8,400,49,,ISIC_0069264.JPG
break,html.Screen,4_98_1,2023-05-01T20:16:28.763Z,,0,,,NaN,,,,,,false,,,,419250.89999997616,419250.59999996424,,419250.09999996424,,419260.117,8,400,,,
break_continue,html.Screen,4_98_2,2023-05-01T20:16:28.763Z,,0,,,NaN,,,,,,false,,,,419251.5,419251.1999999881,,419251.09999996424,,419260.117,8,400,,,
sequence,flow.Sequence,4_98,2023-05-01T20:16:28.763Z,,0,,,2890.9669999880716,completion,,,,,false,,,,419251.59999996424,419251.1999999881,416343.567,416349.1999999881,416360.233,419260.117,8,400,,,
trial,html.Screen,4_99_0,2023-05-01T20:16:31.470Z,,0,2,,2700.3829999999725,response,ISIC_0032112.JPG,,ISIC_0695029.JPG,ISIC_0695029.JPG,false,0,keypress(z),500,421960.7999999523,421960.5,419243.451,419251.7999999523,419260.117,421976.948,8,400,50,,ISIC_0032112.JPG
break,html.Screen,4_99_1,2023-05-01T20:16:36.471Z,,0,,,4999.800000000047,timeout,,,,,false,,,,426964.39999997616,426960.082,421960.282,421961,421976.948,426976.748,8,400,,,
break_continue,html.Screen,4_99_2,2023-05-01T20:18:30.942Z,,0,,,114436.95199998806,response,,,,,false,continue,keypress(Space),,541441,541413.6999999881,426960.082,426964.59999996424,426976.748,541455.502,8,400,,,
sequence,flow.Sequence,4_99,2023-05-01T20:18:30.942Z,,0,,,122153.58299998805,completion,,,,,false,,,,541441.1999999881,541413.6999999881,419243.451,419251.7999999523,419260.117,541455.502,8,400,,,
trial,html.Screen,4_100_0,2023-05-01T20:18:35.775Z,,0,3,,4817.797999952338,response,ISIC_3148886.JPG,,ISIC_0029513.JPG,ISIC_0029513.JPG,false,0,keypress(z),500,546273.6999999881,546273.2999999523,541438.836,541441.2999999523,541455.502,546275.173,8,400,1,,ISIC_3148886.JPG
break,html.Screen,4_100_1,2023-05-01T20:18:35.776Z,,0,,,NaN,,,,,,false,,,,546274.6999999881,546274.3999999762,,546273.8999999762,,546275.173,8,400,,,
break_continue,html.Screen,4_100_2,2023-05-01T20:18:35.777Z,,0,,,NaN,,,,,,false,,,,546275.5,546275.0999999642,,546274.7999999523,,546275.173,8,400,,,
sequence,flow.Sequence,4_100,2023-05-01T20:18:35.778Z,,0,,,4819.597999964259,completion,,,,,false,,,,546276.5999999642,546275.0999999642,541438.836,541441.2999999523,541455.502,546275.173,8,400,,,
trial,html.Screen,4_101_0,2023-05-01T20:18:38.495Z,,0,3,,2718.1269999523647,response,ISIC_9648812.JPG,,ISIC_4791589.JPG,ISIC_9648812.JPG,false,1,keypress(m),500,548993.5999999642,548993.2999999523,546258.507,546276.8999999762,546275.173,549008.397,8,400,2,,ISIC_4791589.JPG
break,html.Screen,4_101_1,2023-05-01T20:18:38.497Z,,0,,,NaN,,,,,,false,,,,548995.1999999881,548994.5,,548993.8999999762,,549008.397,8,400,,,
break_continue,html.Screen,4_101_2,2023-05-01T20:18:38.497Z,,0,,,NaN,,,,,,false,,,,548995.7999999523,548995.5999999642,,548995.3999999762,,549008.397,8,400,,,
sequence,flow.Sequence,4_101,2023-05-01T20:18:38.497Z,,0,,,2720.4269999642856,completion,,,,,false,,,,548996,548995.5999999642,546258.507,546276.7999999523,546275.173,549008.397,8,400,,,
trial,html.Screen,4_102_0,2023-05-01T20:18:41.117Z,,0,3,,2606.502999976161,response,ISIC_0024652.JPG,,ISIC_0026208.JPG,ISIC_0024652.JPG,false,1,keypress(m),500,551615.0999999642,551614.8999999762,548991.731,548996.2999999523,549008.397,551624.959,8,400,3,,ISIC_0026208.JPG
break,html.Screen,4_102_1,2023-05-01T20:18:41.117Z,,0,,,NaN,,,,,,false,,,,551616,551615.6999999881,,551615.3999999762,,551624.959,8,400,,,
break_continue,html.Screen,4_102_2,2023-05-01T20:18:41.118Z,,0,,,NaN,,,,,,false,,,,551616.1999999881,551616.1999999881,,551616.0999999642,,551624.959,8,400,,,
sequence,flow.Sequence,4_102,2023-05-01T20:18:41.118Z,,0,,,2607.802999988082,completion,,,,,false,,,,551616.3999999762,551616.1999999881,548991.731,548996.1999999881,549008.397,551624.959,8,400,,,
trial,html.Screen,4_103_0,2023-05-01T20:18:43.624Z,,0,3,,2497.3409999522846,response,ISIC_0010231.JPG,,ISIC_4208361.JPG,ISIC_4208361.JPG,false,1,keypress(m),500,554122.5999999642,554122.2999999523,551608.293,551616.5,551624.959,,8,400,4,,ISIC_0010231.JPG
break,html.Screen,4_103_1,2023-05-01T20:18:43.625Z,,0,,,NaN,,,,,,false,,,,554123.6999999881,554123.5,,554122.7999999523,,554125.124,8,400,,,
break_continue,html.Screen,4_103_2,2023-05-01T20:18:43.626Z,,0,,,NaN,,,,,,false,,,,554124.2999999523,554124.0999999642,,554123.8999999762,,554125.124,8,400,,,
sequence,flow.Sequence,4_103,2023-05-01T20:18:43.626Z,,0,,,2499.1409999642055,completion,,,,,false,,,,554124.5,554124.0999999642,551608.293,551616.3999999762,551624.959,554125.124,8,400,,,
trial,html.Screen,4_103_0,2023-05-01T20:18:43.630Z,,0,3,,2503.0409999999683,response,ISIC_0010231.JPG,,ISIC_4208361.JPG,ISIC_4208361.JPG,false,0,keypress(z),500,554128.1999999881,554128,551608.293,551616.5,551624.959,554125.124,8,400,4,,ISIC_0010231.JPG
trial,html.Screen,4_104_0,2023-05-01T20:18:46.039Z,,0,3,,2411.675999952364,response,ISIC_8956001.JPG,,ISIC_8353090.JPG,ISIC_8956001.JPG,false,1,keypress(m),500,556537.6999999881,556536.7999999523,554108.458,554124.5999999642,554125.124,556558.36,8,400,5,,ISIC_8353090.JPG
break,html.Screen,4_104_1,2023-05-01T20:18:46.041Z,,0,,,NaN,,,,,,false,,,,556539.5,556539.1999999881,,556538.3999999762,,556558.36,8,400,,,
break_continue,html.Screen,4_104_2,2023-05-01T20:18:46.042Z,,0,,,NaN,,,,,,false,,,,556540.0999999642,556539.7999999523,,556539.5999999642,,556558.36,8,400,,,
sequence,flow.Sequence,4_104,2023-05-01T20:18:46.042Z,,0,,,2414.675999952364,completion,,,,,false,,,,556540.1999999881,556539.7999999523,554108.458,554124.5999999642,554125.124,556558.36,8,400,,,
trial,html.Screen,4_105_0,2023-05-01T20:18:48.607Z,,0,3,,2546.239999964251,response,ISIC_0061454.JPG,,ISIC_0032001.JPG,ISIC_0032001.JPG,false,0,keypress(z),500,559104.8999999762,559104.5999999642,556541.694,556540.3999999762,556558.36,559124.924,8,400,6,,ISIC_0061454.JPG
break,html.Screen,4_105_1,2023-05-01T20:18:48.608Z,,0,,,NaN,,,,,,false,,,,559105.8999999762,559105.5999999642,,559105.0999999642,,559124.924,8,400,,,
break_continue,html.Screen,4_105_2,2023-05-01T20:18:48.608Z,,0,,,NaN,,,,,,false,,,,559106.5,559106.2999999523,,559106,,559124.924,8,400,,,
sequence,flow.Sequence,4_105,2023-05-01T20:18:48.608Z,,0,,,2547.9399999523303,completion,,,,,false,,,,559106.5999999642,559106.2999999523,556541.694,556540.3999999762,556558.36,559124.924,8,400,,,
trial,html.Screen,4_106_0,2023-05-01T20:18:50.903Z,,0,3,,2275.875999952317,response,ISIC_9436034.JPG,,ISIC_0001137.JPG,ISIC_9436034.JPG,false,1,keypress(m),500,561401.0999999642,561400.7999999523,559108.258,559106.7999999523,559124.924,561424.832,8,400,7,,ISIC_0001137.JPG
break,html.Screen,4_106_1,2023-05-01T20:18:50.904Z,,0,,,NaN,,,,,,false,,,,561402.6999999881,561401.7999999523,,561401.1999999881,,561424.832,8,400,,,
break_continue,html.Screen,4_106_2,2023-05-01T20:18:50.905Z,,0,,,NaN,,,,,,false,,,,561403.7999999523,561403.5999999642,,561402.8999999762,,561424.832,8,400,,,
sequence,flow.Sequence,4_106,2023-05-01T20:18:50.906Z,,0,,,2278.675999964238,completion,,,,,false,,,,561404,561403.5999999642,559108.258,559106.6999999881,559124.924,561424.832,8,400,,,
trial,html.Screen,4_107_0,2023-05-01T20:18:53.186Z,,0,3,,2258.667999999947,response,ISIC_2546644.JPG,,ISIC_0962787.JPG,ISIC_2546644.JPG,false,1,keypress(m),500,563683.7999999523,563683.5,561408.166,561404.0999999642,561424.832,563691.69,8,400,8,,ISIC_0962787.JPG
break,html.Screen,4_107_1,2023-05-01T20:18:53.187Z,,0,,,NaN,,,,,,false,,,,563684.8999999762,563684.5,,563684,,563691.69,8,400,,,
break_continue,html.Screen,4_107_2,2023-05-01T20:18:53.187Z,,0,,,NaN,,,,,,false,,,,563685.2999999523,563685.2999999523,,563685.0999999642,,563691.69,8,400,,,
sequence,flow.Sequence,4_107,2023-05-01T20:18:53.187Z,,0,,,2260.467999952263,completion,,,,,false,,,,563685.5,563685.2999999523,561408.166,561404.0999999642,561424.832,563691.69,8,400,,,
trial,html.Screen,4_108_0,2023-05-01T20:18:55.432Z,,0,3,,2238.209999976214,response,ISIC_0031482.JPG,,ISIC_8714502.JPG,ISIC_8714502.JPG,false,0,keypress(z),500,565930.1999999881,565929.8999999762,563675.024,563685.6999999881,563691.69,565941.6,8,400,9,,ISIC_0031482.JPG
break,html.Screen,4_108_1,2023-05-01T20:18:55.433Z,,0,,,NaN,,,,,,false,,,,565931.2999999523,565931,,565930.5,,565941.6,8,400,,,
break_continue,html.Screen,4_108_2,2023-05-01T20:18:55.434Z,,0,,,NaN,,,,,,false,,,,565931.7999999523,565931.6999999881,,565931.3999999762,,565941.6,8,400,,,
sequence,flow.Sequence,4_108,2023-05-01T20:18:55.434Z,,0,,,2240.009999988135,completion,,,,,false,,,,565932,565931.6999999881,563675.024,563685.6999999881,563691.69,565941.6,8,400,,,
trial,html.Screen,4_109_0,2023-05-01T20:18:57.934Z,,0,3,,2490.4999999642605,response,ISIC_0054229.JPG,,ISIC_8579259.JPG,ISIC_8579259.JPG,false,0,keypress(z),500,568432.3999999762,568432.0999999642,565924.934,565932.0999999642,565941.6,568441.5,8,400,10,,ISIC_0054229.JPG
break,html.Screen,4_109_1,2023-05-01T20:18:57.935Z,,0,,,NaN,,,,,,false,,,,568433.0999999642,568432.8999999762,,568432.5999999642,,568441.5,8,400,,,
break_continue,html.Screen,4_109_2,2023-05-01T20:18:57.935Z,,0,,,NaN,,,,,,false,,,,568433.3999999762,568433.2999999523,,568433.1999999881,,568441.5,8,400,,,
sequence,flow.Sequence,4_109,2023-05-01T20:18:57.935Z,,0,,,2491.6999999523396,completion,,,,,false,,,,568433.5,568433.2999999523,565924.934,565932.0999999642,565941.6,568441.5,8,400,,,
trial,html.Screen,4_110_0,2023-05-01T20:19:00.314Z,,0,3,,2370.199999988079,response,ISIC_2000319.JPG,,ISIC_3559222.JPG,ISIC_3559222.JPG,false,0,keypress(z),500,570812.0999999642,570811.6999999881,568424.834,568433.5999999642,568441.5,570824.738,8,400,11,,ISIC_2000319.JPG
break,html.Screen,4_110_1,2023-05-01T20:19:00.315Z,,0,,,NaN,,,,,,false,,,,570813.1999999881,570812.8999999762,,570812.2999999523,,570824.738,8,400,,,
break_continue,html.Screen,4_110_2,2023-05-01T20:19:00.316Z,,0,,,NaN,,,,,,false,,,,570813.5999999642,570813.5,,570813.2999999523,,570824.738,8,400,,,
sequence,flow.Sequence,4_110,2023-05-01T20:19:00.316Z,,0,,,2372,completion,,,,,false,,,,570813.7999999523,570813.5,568424.834,568433.5999999642,568441.5,570824.738,8,400,,,
trial,html.Screen,4_111_0,2023-05-01T20:19:02.641Z,,0,3,,2314.161999976146,response,ISIC_0000539.JPG,,ISIC_0028949.JPG,ISIC_0000539.JPG,false,1,keypress(m),500,573139.2999999523,573138.8999999762,570808.072,570814,570824.738,573141.58,8,400,12,,ISIC_0028949.JPG
break,html.Screen,4_111_1,2023-05-01T20:19:02.642Z,,0,,,NaN,,,,,,false,,,,573140.3999999762,573140.0999999642,,573139.5,,573141.58,8,400,,,
break_continue,html.Screen,4_111_2,2023-05-01T20:19:02.643Z,,0,,,NaN,,,,,,false,,,,573140.8999999762,573140.7999999523,,573140.5999999642,,573141.58,8,400,,,
sequence,flow.Sequence,4_111,2023-05-01T20:19:02.643Z,,0,,,2316.061999952304,completion,,,,,false,,,,573141.0999999642,573140.7999999523,570808.072,570814,570824.738,573141.58,8,400,,,
trial,html.Screen,4_112_0,2023-05-01T20:19:04.992Z,,0,3,,2347.719999952358,response,ISIC_0031626.JPG,,ISIC_5835765.JPG,ISIC_0031626.JPG,false,1,keypress(m),500,575489.5999999642,575489.2999999523,573124.914,573141.2999999523,573141.58,575491.486,8,400,13,,ISIC_5835765.JPG
break,html.Screen,4_112_1,2023-05-01T20:19:04.993Z,,0,,,NaN,,,,,,false,,,,575490.7999999523,575490.3999999762,,575489.7999999523,,575491.486,8,400,,,
break_continue,html.Screen,4_112_2,2023-05-01T20:19:04.993Z,,0,,,NaN,,,,,,false,,,,575491.3999999762,575491.1999999881,,575491,,575491.486,8,400,,,
sequence,flow.Sequence,4_112,2023-05-01T20:19:04.994Z,,0,,,2349.619999988121,completion,,,,,false,,,,575491.5999999642,575491.1999999881,573124.914,573141.1999999881,573141.58,575491.486,8,400,,,
trial,html.Screen,4_113_0,2023-05-01T20:19:07.280Z,,0,3,,2285.9139999761246,response,ISIC_7755096.JPG,,ISIC_0033578.JPG,ISIC_0033578.JPG,false,0,keypress(z),500,577777.6999999881,577777.3999999762,575474.82,575491.7999999523,575491.486,577791.394,8,400,14,,ISIC_7755096.JPG
break,html.Screen,4_113_1,2023-05-01T20:19:07.281Z,,0,,,NaN,,,,,,false,,,,577778.7999999523,577778.5,,577777.8999999762,,577791.394,8,400,,,
break_continue,html.Screen,4_113_2,2023-05-01T20:19:07.281Z,,0,,,NaN,,,,,,false,,,,577779.2999999523,577779.1999999881,,577778.8999999762,,577791.394,8,400,,,
sequence,flow.Sequence,4_113,2023-05-01T20:19:07.282Z,,0,,,2287.7139999880455,completion,,,,,false,,,,577779.5,577779.1999999881,575474.82,575491.7999999523,575491.486,577791.394,8,400,,,
trial,html.Screen,4_114_0,2023-05-01T20:19:09.530Z,,0,3,,2236.305999988108,response,ISIC_5409902.JPG,,ISIC_5576354.JPG,ISIC_5576354.JPG,false,0,keypress(z),500,580027.8999999762,580027.6999999881,577774.728,577779.5999999642,577791.394,580041.304,8,400,15,,ISIC_5409902.JPG
break,html.Screen,4_114_1,2023-05-01T20:19:09.531Z,,0,,,NaN,,,,,,false,,,,580029,580028.5999999642,,580028.0999999642,,580041.304,8,400,,,
break_continue,html.Screen,4_114_2,2023-05-01T20:19:09.531Z,,0,,,NaN,,,,,,false,,,,580029.2999999523,580029.1999999881,,580029.0999999642,,580041.304,8,400,,,
sequence,flow.Sequence,4_114,2023-05-01T20:19:09.532Z,,0,,,2237.805999988108,completion,,,,,false,,,,580029.5,580029.1999999881,577774.728,577779.5999999642,577791.394,580041.304,8,400,,,
trial,html.Screen,4_115_0,2023-05-01T20:19:12.465Z,,0,3,,2920.7959999642335,response,ISIC_0013073.JPG,,ISIC_6899527.JPG,ISIC_0013073.JPG,false,1,keypress(m),500,582962.3999999762,582962.0999999642,580024.638,580029.5999999642,580041.304,582974.52,8,400,16,,ISIC_6899527.JPG
break,html.Screen,4_115_1,2023-05-01T20:19:12.466Z,,0,,,NaN,,,,,,false,,,,582963.5,582963.1999999881,,582962.6999999881,,582974.52,8,400,,,
break_continue,html.Screen,4_115_2,2023-05-01T20:19:12.466Z,,0,,,NaN,,,,,,false,,,,582964,582963.7999999523,,582963.6999999881,,582974.52,8,400,,,
sequence,flow.Sequence,4_115,2023-05-01T20:19:12.466Z,,0,,,2922.4959999523126,completion,,,,,false,,,,582964.1999999881,582963.7999999523,580024.638,580029.5999999642,580041.304,582974.52,8,400,,,
trial,html.Screen,4_116_0,2023-05-01T20:19:15.145Z,,0,3,,2667.6799999880604,response,ISIC_5434229.JPG,,ISIC_8579259.JPG,ISIC_5434229.JPG,false,1,keypress(m),500,585642.5999999642,585642.1999999881,582957.854,582964.2999999523,582974.52,585658.016,8,400,17,,ISIC_8579259.JPG
break,html.Screen,4_116_1,2023-05-01T20:19:15.146Z,,0,,,NaN,,,,,,false,,,,585643.7999999523,585643.5,,585642.7999999523,,585658.016,8,400,,,
break_continue,html.Screen,4_116_2,2023-05-01T20:19:15.147Z,,0,,,NaN,,,,,,false,,,,585644.5999999642,585644.2999999523,,585644.0999999642,,585658.016,8,400,,,
sequence,flow.Sequence,4_116,2023-05-01T20:19:15.147Z,,0,,,2669.7799999522977,completion,,,,,false,,,,585644.7999999523,585644.2999999523,582957.854,582964.2999999523,582974.52,585658.016,8,400,,,
trial,html.Screen,4_117_0,2023-05-01T20:19:17.712Z,,0,3,,2551.484000000055,response,ISIC_0027391.JPG,,ISIC_0028548.JPG,ISIC_0027391.JPG,false,1,keypress(m),500,588209.7999999523,588209.5,585641.35,585645,585658.016,588224.58,8,400,18,,ISIC_0028548.JPG
break,html.Screen,4_117_1,2023-05-01T20:19:17.713Z,,0,,,NaN,,,,,,false,,,,588210.8999999762,588210.6999999881,,588210.0999999642,,588224.58,8,400,,,
break_continue,html.Screen,4_117_2,2023-05-01T20:19:17.714Z,,0,,,NaN,,,,,,false,,,,588211.5,588211.2999999523,,588211.1999999881,,588224.58,8,400,,,
sequence,flow.Sequence,4_117,2023-05-01T20:19:17.714Z,,0,,,2553.2839999523712,completion,,,,,false,,,,588211.6999999881,588211.2999999523,585641.35,585645,585658.016,588224.58,8,400,,,
trial,html.Screen,4_118_0,2023-05-01T20:19:20.279Z,,0,3,,2551.719999952358,response,ISIC_1601784.JPG,,ISIC_0057083.JPG,ISIC_1601784.JPG,false,1,keypress(m),500,590776.5999999642,590776.2999999523,588207.914,588211.6999999881,588224.58,590791.144,8,400,19,,ISIC_0057083.JPG
break,html.Screen,4_118_1,2023-05-01T20:19:20.280Z,,0,,,NaN,,,,,,false,,,,590777.5999999642,590777.2999999523,,590776.7999999523,,590791.144,8,400,,,
break_continue,html.Screen,4_118_2,2023-05-01T20:19:20.281Z,,0,,,NaN,,,,,,false,,,,590778.1999999881,590778,,590777.7999999523,,590791.144,8,400,,,
sequence,flow.Sequence,4_118,2023-05-01T20:19:20.281Z,,0,,,2553.420000000042,completion,,,,,false,,,,590778.3999999762,590778,588207.914,588211.6999999881,588224.58,590791.144,8,400,,,
trial,html.Screen,4_119_0,2023-05-01T20:19:23.343Z,,0,3,,3049.356000000029,response,ISIC_0012883.JPG,,ISIC_5833015.JPG,ISIC_5833015.JPG,false,0,keypress(z),500,593840.7999999523,593840.5,590774.478,590778.5,590791.144,593857.96,8,400,20,,ISIC_0012883.JPG
break,html.Screen,4_119_1,2023-05-01T20:19:23.344Z,,0,,,NaN,,,,,,false,,,,593841.8999999762,593841.5999999642,,593841,,593857.96,8,400,,,
break_continue,html.Screen,4_119_2,2023-05-01T20:19:23.345Z,,0,,,NaN,,,,,,false,,,,593842.3999999762,593842.2999999523,,593842,,593857.96,8,400,,,
sequence,flow.Sequence,4_119,2023-05-01T20:19:23.345Z,,0,,,3051.155999952345,completion,,,,,false,,,,593842.6999999881,593842.2999999523,590774.478,590778.3999999762,590791.144,593857.96,8,400,,,
trial,html.Screen,4_120_0,2023-05-01T20:19:26.536Z,,0,3,,3175.1399999642745,response,ISIC_6875745.JPG,,ISIC_0394157.JPG,ISIC_6875745.JPG,false,1,keypress(m),500,597033.3999999762,597033.0999999642,593841.294,593842.6999999881,593857.96,597041.166,8,400,21,,ISIC_0394157.JPG
break,html.Screen,4_120_1,2023-05-01T20:19:26.537Z,,0,,,NaN,,,,,,false,,,,597034.5,597034.1999999881,,597033.5999999642,,597041.166,8,400,,,
break_continue,html.Screen,4_120_2,2023-05-01T20:19:26.538Z,,0,,,NaN,,,,,,false,,,,597035,597034.7999999523,,597034.6999999881,,597041.166,8,400,,,
sequence,flow.Sequence,4_120,2023-05-01T20:19:26.538Z,,0,,,3176.8399999523535,completion,,,,,false,,,,597035.0999999642,597034.7999999523,593841.294,593842.6999999881,593857.96,597041.166,8,400,,,
trial,html.Screen,4_121_0,2023-05-01T20:19:29.328Z,,0,3,,2784.23399997619,response,ISIC_0046331.JPG,,ISIC_2203239.JPG,ISIC_0046331.JPG,false,1,keypress(m),500,599825.5999999642,599825.3999999762,597024.5,597035.5,597041.166,599841.054,8,400,22,,ISIC_2203239.JPG
break,html.Screen,4_121_1,2023-05-01T20:19:29.329Z,,0,,,NaN,,,,,,false,,,,599826.6999999881,599826.3999999762,,599825.8999999762,,599841.054,8,400,,,
break_continue,html.Screen,4_121_2,2023-05-01T20:19:29.330Z,,0,,,NaN,,,,,,false,,,,599827.0999999642,599827,,599826.8999999762,,599841.054,8,400,,,
sequence,flow.Sequence,4_121,2023-05-01T20:19:29.330Z,,0,,,2785.8340000000317,completion,,,,,false,,,,599827.2999999523,599827,597024.5,597035.3999999762,597041.166,599841.054,8,400,,,
trial,html.Screen,4_122_0,2023-05-01T20:19:31.983Z,,0,3,,2639.0459999642335,response,ISIC_9155855.JPG,,ISIC_0027406.JPG,ISIC_9155855.JPG,false,1,keypress(m),500,602480.5999999642,602480.0999999642,599824.388,599827.5,599841.054,602490.948,8,400,23,,ISIC_0027406.JPG
break,html.Screen,4_122_1,2023-05-01T20:19:31.984Z,,0,,,NaN,,,,,,false,,,,602481.6999999881,602481.3999999762,,602480.7999999523,,602490.948,8,400,,,
break_continue,html.Screen,4_122_2,2023-05-01T20:19:31.985Z,,0,,,NaN,,,,,,false,,,,602482.2999999523,602482.0999999642,,602481.8999999762,,602490.948,8,400,,,
sequence,flow.Sequence,4_122,2023-05-01T20:19:31.985Z,,0,,,2641.0459999642335,completion,,,,,false,,,,602482.5999999642,602482.0999999642,599824.388,599827.3999999762,599841.054,602490.948,8,400,,,
trial,html.Screen,4_123_0,2023-05-01T20:19:34.881Z,,0,3,,2887.052000000025,response,ISIC_0028418.JPG,,ISIC_0053574.JPG,ISIC_0053574.JPG,false,0,keypress(z),500,605378.0999999642,605378,602474.282,602482.6999999881,602490.948,605391.097,8,400,24,,ISIC_0028418.JPG
break,html.Screen,4_123_1,2023-05-01T20:19:34.882Z,,0,,,NaN,,,,,,false,,,,605379,605378.5,,605378.1999999881,,605391.097,8,400,,,
break_continue,html.Screen,4_123_2,2023-05-01T20:19:34.882Z,,0,,,NaN,,,,,,false,,,,605379.2999999523,605379.0999999642,,605379,,605391.097,8,400,,,
sequence,flow.Sequence,4_123,2023-05-01T20:19:34.882Z,,0,,,2888.1519999642624,completion,,,,,false,,,,605379.2999999523,605379.0999999642,602474.282,602482.5999999642,602490.948,605391.097,8,400,,,
trial,html.Screen,4_124_0,2023-05-01T20:19:37.496Z,,0,3,,2601.4030000000494,response,ISIC_0011333.JPG,,ISIC_4026569.JPG,ISIC_4026569.JPG,false,0,keypress(z),500,607992.7999999523,607992.5,605374.431,605379.3999999762,605391.097,608007.659,8,400,25,,ISIC_0011333.JPG
break,html.Screen,4_124_1,2023-05-01T20:19:37.497Z,,0,,,NaN,,,,,,false,,,,607993.7999999523,607993.5,,607993,,608007.659,8,400,,,
break_continue,html.Screen,4_124_2,2023-05-01T20:19:37.497Z,,0,,,NaN,,,,,,false,,,,607994.1999999881,607994.0999999642,,607993.8999999762,,608007.659,8,400,,,
sequence,flow.Sequence,4_124,2023-05-01T20:19:37.497Z,,0,,,2603.0029999642866,completion,,,,,false,,,,607994.5,607994.0999999642,605374.431,605379.3999999762,605391.097,608007.659,8,400,,,
trial,html.Screen,4_125_0,2023-05-01T20:19:40.352Z,,0,3,,2841.540999988094,response,ISIC_0065200.JPG,,ISIC_1497525.JPG,ISIC_0065200.JPG,false,1,keypress(m),500,610849.5,610849.1999999881,607990.993,607994.5999999642,608007.659,610857.545,8,400,26,,ISIC_1497525.JPG
break,html.Screen,4_125_1,2023-05-01T20:19:40.353Z,,0,,,NaN,,,,,,false,,,,610850.5,610850.2999999523,,610849.7999999523,,610857.545,8,400,,,
break_continue,html.Screen,4_125_2,2023-05-01T20:19:40.354Z,,0,,,NaN,,,,,,false,,,,610851.0999999642,610850.8999999762,,610850.7999999523,,610857.545,8,400,,,
