sender,sender_type,sender_id,timestamp,meta,,blockNo,condition,duration,ended_on,img_left,img_reveal,img_right,loser,practice,response,response_action,selection_duration,time_commit,time_end,time_render,time_run,time_show,time_switch,total_blocks,total_trials,trialNo,url,winner
informed_consent,html.Screen,0,2023-05-02T17:26:58.065Z,"{""labjs_version"":""20.2.4"",""labjs_build"":{""flavor"":""production"",""commit"":""f5b4a49f956347addd546a832a3327688c2c0fef""},""location"":""https://run.pavlovia.org/MurrayBennett/melanoma-2afc/?participant=64943"",""userAgent"":""Mozilla/5.0 (Macintosh; Intel Mac OS X 10_15_7) AppleWebKit/537.36 (KHTML, like Gecko) Chrome/112.0.0.0 Safari/537.36"",""platform"":""MacIntel"",""language"":""en-US"",""locale"":""en-US"",""timeZone"":""America/Chicago"",""timezoneOffset"":300,""screen_width"":1470,""screen_height"":956,""scroll_width"":1470,""scroll_height"":793,""window_innerWidth"":1470,""window_innerHeight"":841,""devicePixelRatio"":2}",,,,2141.7019998569485,response,,,,,,consent,click button,,3749.899999856949,3745.899999856949,1454.204,1611,1604.198,3770.778,,,,"{""participant"":""64943""}",
Welcome,html.Screen,1,2023-05-02T17:27:00.108Z,,,,irregular,2019.3219999046328,response,,,,,,continue,click button,,5792.399999856949,5790.099999904633,3737.446,3750.2000000476837,3770.778,5804.479,,,,,
trial,html.Screen,2_0_0,2023-05-02T17:27:07.769Z,,0,0,,7648.920999856949,response,ISIC_0061792.JPG,,ISIC_4679428.JPG,ISIC_4679428.JPG,true,0,keypress(z),500,13454.099999904633,13453.399999856949,5787.813,5792.799999952316,5804.479,13470.839,1,6,1,,ISIC_0061792.JPG
sequence,flow.Sequence,2_0,2023-05-02T17:27:07.770Z,,0,,,7648.920999856949,completion,,,,,true,,,,13454.700000047684,13453.399999856949,5787.813,5792.799999952316,5804.479,13470.839,1,6,,,
trial,html.Screen,2_1_0,2023-05-02T17:27:14.820Z,,0,0,,7033.161,response,ISIC_0776486.JPG,,ISIC_5199497.JPG,ISIC_5199497.JPG,true,0,keypress(z),500,20504.5,20504,13454.173,13454.899999856949,13470.839,20521.178,1,6,2,,ISIC_0776486.JPG
sequence,flow.Sequence,2_1,2023-05-02T17:27:14.820Z,,0,,,7033.161,completion,,,,,true,,,,20504.89999985695,20504,13454.173,13454.799999952316,13470.839,20521.178,1,6,,,
trial,html.Screen,2_2_0,2023-05-02T17:27:18.729Z,,0,0,,3892.221999856949,response,ISIC_2556187.JPG,,ISIC_8575776.JPG,ISIC_2556187.JPG,true,1,keypress(m),500,24413.89999985695,24413.39999985695,20504.512,20505,20521.178,24421.022,1,6,3,,ISIC_8575776.JPG
sequence,flow.Sequence,2_2,2023-05-02T17:27:18.730Z,,0,,,3892.221999856949,completion,,,,,true,,,,24414.200000047684,24413.39999985695,20504.512,20505,20521.178,24421.022,1,6,,,
trial,html.Screen,2_3_0,2023-05-02T17:27:24.265Z,,0,0,,5528.277999952315,response,ISIC_8141769.JPG,,ISIC_9238366.JPG,ISIC_9238366.JPG,true,0,keypress(z),500,29949.89999985695,29949.299999952316,24404.356,24414.5,24421.022,29954.546,1,6,4,,ISIC_8141769.JPG
sequence,flow.Sequence,2_3,2023-05-02T17:27:24.266Z,,0,,,5528.277999952315,completion,,,,,true,,,,29950.39999985695,29949.299999952316,24404.356,24414.39999985695,24421.022,29954.546,1,6,,,
trial,html.Screen,2_4_0,2023-05-02T17:27:30.948Z,,0,0,,6677.4540000000015,response,ISIC_8949026.JPG,,ISIC_9959593.JPG,ISIC_8949026.JPG,true,1,keypress(m),500,36632.799999952316,36632,29937.88,29950.700000047684,29954.546,36637.874,1,6,5,,ISIC_9959593.JPG
sequence,flow.Sequence,2_4,2023-05-02T17:27:30.949Z,,0,,,6677.4540000000015,completion,,,,,true,,,,36633.39999985695,36632,29937.88,29950.599999904633,29954.546,36637.874,1,6,,,
trial,html.Screen,2_5_0,2023-05-02T17:27:35.755Z,,0,0,,4800.925999952313,response,ISIC_0010479.JPG,,ISIC_0460240.JPG,ISIC_0460240.JPG,true,0,keypress(z),500,41439.5,41438.799999952316,36621.208,36633.59999990463,36637.874,41454.348,1,6,6,,ISIC_0010479.JPG
sequence,flow.Sequence,2_5,2023-05-02T17:27:35.755Z,,0,,,4800.925999952313,completion,,,,,true,,,,41439.89999985695,41438.799999952316,36621.208,36633.59999990463,36637.874,41454.348,1,6,,,
loop,flow.Loop,2,2023-05-02T17:27:35.756Z,,,,,35634.32099995232,completion,,,,,true,,,,41440.200000047684,41438.799999952316,5787.813,5792.599999904633,5804.479,41454.348,1,6,,,
exp_instructions,html.Screen,3,2023-05-02T17:27:40.295Z,,,,,4520.951999952318,response,,,,,,continue,keypress(Space),,45979.89999985695,45975.299999952316,41437.682,41440.39999985695,41454.348,45987.5,,,,,
trial,html.Screen,4_0_0,2023-05-02T17:27:45.092Z,,0,1,,4788.700000047684,response,ISIC_6918995.JPG,,ISIC_7164403.JPG,ISIC_7164403.JPG,false,0,keypress(z),500,50776.59999990463,50776.200000047684,45970.834,45980.299999952316,45987.5,50787.854,8,400,1,,ISIC_6918995.JPG
break,html.Screen,4_0_1,2023-05-02T17:27:45.093Z,,0,,,NaN,,,,,,false,,,,50777.89999985695,50777.59999990463,,50777,,50787.854,8,400,,,
break_continue,html.Screen,4_0_2,2023-05-02T17:27:45.094Z,,0,,,NaN,,,,,,false,,,,50778.39999985695,50778.299999952316,,50778,,50787.854,8,400,,,
sequence,flow.Sequence,4_0,2023-05-02T17:27:45.094Z,,0,,,4790.799999952316,completion,,,,,false,,,,50778.59999990463,50778.299999952316,45970.834,45980.200000047684,45987.5,50787.854,8,400,,,
trial,html.Screen,4_1_0,2023-05-02T17:27:49.131Z,,0,1,,4026.945999952317,response,ISIC_0003122.JPG,,ISIC_4187485.JPG,ISIC_0003122.JPG,false,1,keypress(m),500,54815.200000047684,54814.799999952316,50771.188,50778.799999952316,50787.854,54821.026,8,400,2,,ISIC_4187485.JPG
break,html.Screen,4_1_1,2023-05-02T17:27:49.132Z,,0,,,NaN,,,,,,false,,,,54816.200000047684,54815.89999985695,,54815.5,,54821.026,8,400,,,
break_continue,html.Screen,4_1_2,2023-05-02T17:27:49.132Z,,0,,,NaN,,,,,,false,,,,54816.5,54816.39999985695,,54816.299999952316,,54821.026,8,400,,,
sequence,flow.Sequence,4_1,2023-05-02T17:27:49.132Z,,0,,,4028.5459998569495,completion,,,,,false,,,,54816.799999952316,54816.39999985695,50771.188,50778.700000047684,50787.854,54821.026,8,400,,,
trial,html.Screen,4_2_0,2023-05-02T17:27:52.788Z,,0,1,,3650.974000000002,response,ISIC_0061371.JPG,,ISIC_1509635.JPG,ISIC_1509635.JPG,false,0,keypress(z),500,58472.299999952316,58472,54804.36,54816.89999985695,54821.026,58487.933,8,400,3,,ISIC_0061371.JPG
break,html.Screen,4_2_1,2023-05-02T17:27:52.789Z,,0,,,NaN,,,,,,false,,,,58473.39999985695,58473.200000047684,,58472.700000047684,,58487.933,8,400,,,
break_continue,html.Screen,4_2_2,2023-05-02T17:27:52.789Z,,0,,,NaN,,,,,,false,,,,58473.700000047684,58473.700000047684,,58473.5,,58487.933,8,400,,,
sequence,flow.Sequence,4_2,2023-05-02T17:27:52.789Z,,0,,,3652.6740000476857,completion,,,,,false,,,,58474,58473.700000047684,54804.36,54816.799999952316,54821.026,58487.933,8,400,,,
trial,html.Screen,4_3_0,2023-05-02T17:27:56.523Z,,0,1,,3718.866999952319,response,ISIC_0032656.JPG,,ISIC_8732757.JPG,ISIC_8732757.JPG,false,0,keypress(z),500,62207.200000047684,62206.799999952316,58471.267,58474.09999990463,58487.933,62221.117,8,400,4,,ISIC_0032656.JPG
break,html.Screen,4_3_1,2023-05-02T17:27:56.524Z,,0,,,NaN,,,,,,false,,,,62208.200000047684,62208,,62207.59999990463,,62221.117,8,400,,,
break_continue,html.Screen,4_3_2,2023-05-02T17:27:56.524Z,,0,,,NaN,,,,,,false,,,,62208.59999990463,62208.5,,62208.299999952316,,62221.117,8,400,,,
sequence,flow.Sequence,4_3,2023-05-02T17:27:56.524Z,,0,,,3720.5670000000027,completion,,,,,false,,,,62208.799999952316,62208.5,58471.267,58474,58487.933,62221.117,8,400,,,
trial,html.Screen,4_4_0,2023-05-02T17:28:02.628Z,,0,1,,6090.7829998569505,response,ISIC_0027112.JPG,,ISIC_8588033.JPG,ISIC_8588033.JPG,false,0,keypress(z),500,68312.39999985695,68311.89999985695,62204.451,62208.89999985695,62221.117,68320.873,8,400,5,,ISIC_0027112.JPG
break,html.Screen,4_4_1,2023-05-02T17:28:02.629Z,,0,,,NaN,,,,,,false,,,,68313.29999995232,68313.09999990463,,68312.70000004768,,68320.873,8,400,,,
break_continue,html.Screen,4_4_2,2023-05-02T17:28:02.629Z,,0,,,NaN,,,,,,false,,,,68313.70000004768,68313.70000004768,,68313.5,,68320.873,8,400,,,
sequence,flow.Sequence,4_4,2023-05-02T17:28:02.629Z,,0,,,6092.583000047685,completion,,,,,false,,,,68313.89999985695,68313.70000004768,62204.451,62208.799999952316,62221.117,68320.873,8,400,,,
trial,html.Screen,4_5_0,2023-05-02T17:28:14.124Z,,0,1,,11516.990999999995,timeout,ISIC_0021901.JPG,,ISIC_3058627.JPG,,false,,,500,79808.29999995232,79807.89999985695,68304.207,68314.09999990463,68320.873,79837.864,8,400,6,,
break,html.Screen,4_5_1,2023-05-02T17:28:14.125Z,,0,,,NaN,,,,,,false,,,,79809.29999995232,79809,,79808.59999990463,,79837.864,8,400,,,
break_continue,html.Screen,4_5_2,2023-05-02T17:28:14.125Z,,0,,,NaN,,,,,,false,,,,79809.59999990463,79809.5,,79809.39999985695,,79837.864,8,400,,,
sequence,flow.Sequence,4_5,2023-05-02T17:28:14.125Z,,0,,,11488.626999999993,completion,,,,,false,,,,79809.79999995232,79809.5,68304.207,68314,68320.873,79837.864,8,400,,,
trial,html.Screen,4_6_0,2023-05-02T17:28:19.099Z,,0,1,,4944.935999952315,response,ISIC_0033279.JPG,,ISIC_8624049.JPG,ISIC_0033279.JPG,false,1,keypress(m),500,84783.20000004768,84782.79999995232,79820.844,79809.89999985695,79837.864,84804.332,8,400,7,,ISIC_8624049.JPG
break,html.Screen,4_6_1,2023-05-02T17:28:19.100Z,,0,,,NaN,,,,,,false,,,,84784.20000004768,84784,,84783.5,,84804.332,8,400,,,
break_continue,html.Screen,4_6_2,2023-05-02T17:28:19.100Z,,0,,,NaN,,,,,,false,,,,84784.5,84784.39999985695,,84784.29999995232,,84804.332,8,400,,,
sequence,flow.Sequence,4_6,2023-05-02T17:28:19.100Z,,0,,,4946.5359998569475,completion,,,,,false,,,,84784.70000004768,84784.39999985695,79820.844,79809.89999985695,79837.864,84804.332,8,400,,,
trial,html.Screen,4_7_0,2023-05-02T17:28:23.220Z,,0,1,,4099.668000000005,response,ISIC_0148751.JPG,,ISIC_0033149.JPG,ISIC_0033149.JPG,false,0,keypress(z),500,88904.29999995232,88904,84787.666,84784.89999985695,84804.332,88920.834,8,400,8,,ISIC_0148751.JPG
break,html.Screen,4_7_1,2023-05-02T17:28:23.220Z,,0,,,NaN,,,,,,false,,,,88905,88904.79999995232,,88904.5,,88920.834,8,400,,,
break_continue,html.Screen,4_7_2,2023-05-02T17:28:23.221Z,,0,,,NaN,,,,,,false,,,,88905.29999995232,88905.20000004768,,88905.20000004768,,88920.834,8,400,,,
sequence,flow.Sequence,4_7,2023-05-02T17:28:23.221Z,,0,,,4100.868000047689,completion,,,,,false,,,,88905.29999995232,88905.20000004768,84787.666,84784.89999985695,84804.332,88920.834,8,400,,,
trial,html.Screen,4_8_0,2023-05-02T17:28:27.931Z,,0,1,,4693.965999952314,response,ISIC_0011176.JPG,,ISIC_0026770.JPG,ISIC_0011176.JPG,false,1,keypress(m),500,93615.20000004768,93614.79999995232,88904.168,88905.5,88920.834,93621.084,8,400,9,,ISIC_0026770.JPG
break,html.Screen,4_8_1,2023-05-02T17:28:27.932Z,,0,,,NaN,,,,,,false,,,,93616.20000004768,93616,,93615.59999990463,,93621.084,8,400,,,
break_continue,html.Screen,4_8_2,2023-05-02T17:28:27.932Z,,0,,,NaN,,,,,,false,,,,93616.5,93616.5,,93616.29999995232,,93621.084,8,400,,,
sequence,flow.Sequence,4_8,2023-05-02T17:28:27.932Z,,0,,,4695.665999999997,completion,,,,,false,,,,93616.70000004768,93616.5,88904.168,88905.5,88920.834,93621.084,8,400,,,
trial,html.Screen,4_9_0,2023-05-02T17:28:31.449Z,,0,1,,3512.2159999523137,response,ISIC_0055179.JPG,,ISIC_7443391.JPG,ISIC_7443391.JPG,false,0,keypress(z),500,97133.70000004768,97133.29999995232,93604.418,93616.89999985695,93621.084,97137.61,8,400,10,,ISIC_0055179.JPG
break,html.Screen,4_9_1,2023-05-02T17:28:31.450Z,,0,,,NaN,,,,,,false,,,,97134.70000004768,97134.5,,97134.09999990463,,97137.61,8,400,,,
break_continue,html.Screen,4_9_2,2023-05-02T17:28:31.451Z,,0,,,NaN,,,,,,false,,,,97135.09999990463,97134.89999985695,,97134.79999995232,,97137.61,8,400,,,
sequence,flow.Sequence,4_9,2023-05-02T17:28:31.451Z,,0,,,3513.8159998569463,completion,,,,,false,,,,97135.29999995232,97134.89999985695,93604.418,93616.79999995232,93621.084,97137.61,8,400,,,
trial,html.Screen,4_10_0,2023-05-02T17:28:35.236Z,,0,1,,3782.3899999999994,response,ISIC_6108795.JPG,,ISIC_7503950.JPG,ISIC_7503950.JPG,false,0,keypress(z),500,100920.39999985695,100920,97120.944,97135.39999985695,97137.61,100937.821,8,400,11,,ISIC_6108795.JPG
break,html.Screen,4_10_1,2023-05-02T17:28:35.237Z,,0,,,NaN,,,,,,false,,,,100921.29999995232,100921.09999990463,,100920.70000004768,,100937.821,8,400,,,
break_continue,html.Screen,4_10_2,2023-05-02T17:28:35.237Z,,0,,,NaN,,,,,,false,,,,100921.79999995232,100921.59999990463,,100921.5,,100937.821,8,400,,,
sequence,flow.Sequence,4_10,2023-05-02T17:28:35.237Z,,0,,,3783.989999904632,completion,,,,,false,,,,100921.89999985695,100921.59999990463,97120.944,97135.29999995232,97137.61,100937.821,8,400,,,
trial,html.Screen,4_11_0,2023-05-02T17:28:40.258Z,,0,1,,5004.578999856953,response,ISIC_0032121.JPG,,ISIC_5202231.JPG,ISIC_5202231.JPG,false,0,keypress(z),500,105942.79999995232,105942.39999985695,100921.155,100922.09999990463,100937.821,105954.287,8,400,12,,ISIC_0032121.JPG
break,html.Screen,4_11_1,2023-05-02T17:28:40.259Z,,0,,,NaN,,,,,,false,,,,105943.79999995232,105943.5,,105943.09999990463,,105954.287,8,400,,,
break_continue,html.Screen,4_11_2,2023-05-02T17:28:40.260Z,,0,,,NaN,,,,,,false,,,,105944.09999990463,105944,,105943.79999995232,,105954.287,8,400,,,
sequence,flow.Sequence,4_11,2023-05-02T17:28:40.260Z,,0,,,5006.179000000004,completion,,,,,false,,,,105944.29999995232,105944,100921.155,100922,100937.821,105954.287,8,400,,,
trial,html.Screen,4_12_0,2023-05-02T17:28:45.787Z,,0,1,,5516.51299995232,response,ISIC_0066429.JPG,,ISIC_7484771.JPG,ISIC_7484771.JPG,false,0,keypress(z),500,111471.20000004768,111470.79999995232,105937.621,105944.39999985695,105954.287,111487.729,8,400,13,,ISIC_0066429.JPG
break,html.Screen,4_12_1,2023-05-02T17:28:45.788Z,,0,,,NaN,,,,,,false,,,,111472.20000004768,111472.09999990463,,111471.59999990463,,111487.729,8,400,,,
break_continue,html.Screen,4_12_2,2023-05-02T17:28:45.788Z,,0,,,NaN,,,,,,false,,,,111472.59999990463,111472.5,,111472.39999985695,,111487.729,8,400,,,
sequence,flow.Sequence,4_12,2023-05-02T17:28:45.788Z,,0,,,5518.213000000003,completion,,,,,false,,,,111472.79999995232,111472.5,105937.621,105944.39999985695,105954.287,111487.729,8,400,,,
trial,html.Screen,4_13_0,2023-05-02T17:28:49.636Z,,0,1,,3832.2709999999934,response,ISIC_1611503.JPG,,ISIC_4024062.JPG,ISIC_1611503.JPG,false,1,keypress(m),500,115320.39999985695,115320,111471.063,111472.89999985695,111487.729,115337.575,8,400,14,,ISIC_4024062.JPG
break,html.Screen,4_13_1,2023-05-02T17:28:49.637Z,,0,,,NaN,,,,,,false,,,,115321.39999985695,115321.09999990463,,115320.59999990463,,115337.575,8,400,,,
break_continue,html.Screen,4_13_2,2023-05-02T17:28:49.637Z,,0,,,NaN,,,,,,false,,,,115321.79999995232,115321.70000004768,,115321.59999990463,,115337.575,8,400,,,
sequence,flow.Sequence,4_13,2023-05-02T17:28:49.637Z,,0,,,3833.971000047677,completion,,,,,false,,,,115321.89999985695,115321.70000004768,111471.063,111472.89999985695,111487.729,115337.575,8,400,,,
trial,html.Screen,4_14_0,2023-05-02T17:28:53.179Z,,0,1,,3525.224999952319,response,ISIC_6215631.JPG,,ISIC_0062031.JPG,ISIC_6215631.JPG,false,1,keypress(m),500,118863.20000004768,118862.79999995232,115320.909,115322.09999990463,115337.575,118870.767,8,400,15,,ISIC_0062031.JPG
break,html.Screen,4_14_1,2023-05-02T17:28:53.180Z,,0,,,NaN,,,,,,false,,,,118864.20000004768,118864,,118863.59999990463,,118870.767,8,400,,,
break_continue,html.Screen,4_14_2,2023-05-02T17:28:53.180Z,,0,,,NaN,,,,,,false,,,,118864.70000004768,118864.59999990463,,118864.39999985695,,118870.767,8,400,,,
sequence,flow.Sequence,4_14,2023-05-02T17:28:53.180Z,,0,,,3527.0249999046355,completion,,,,,false,,,,118864.89999985695,118864.59999990463,115320.909,115322.09999990463,115337.575,118870.767,8,400,,,
trial,html.Screen,4_15_0,2023-05-02T17:28:56.852Z,,0,1,,3665.232999999993,response,ISIC_0001105.JPG,,ISIC_8388593.JPG,ISIC_0001105.JPG,false,1,keypress(m),500,122536.39999985695,122536,118854.101,118865.09999990463,118870.767,122537.772,8,400,16,,ISIC_8388593.JPG
break,html.Screen,4_15_1,2023-05-02T17:28:56.853Z,,0,,,NaN,,,,,,false,,,,122537.39999985695,122537.20000004768,,122536.70000004768,,122537.772,8,400,,,
break_continue,html.Screen,4_15_2,2023-05-02T17:28:56.853Z,,0,,,NaN,,,,,,false,,,,122537.79999995232,122537.70000004768,,122537.5,,122537.772,8,400,,,
sequence,flow.Sequence,4_15,2023-05-02T17:28:56.853Z,,0,,,3666.9330000476766,completion,,,,,false,,,,122538,122537.70000004768,118854.101,118865,118870.767,122537.772,8,400,,,
trial,html.Screen,4_16_0,2023-05-02T17:29:01.746Z,,0,1,,4892.627999856952,response,ISIC_7369690.JPG,,ISIC_1782545.JPG,ISIC_1782545.JPG,false,0,keypress(z),500,127430.79999995232,127430.39999985695,122521.106,122538.09999990463,122537.772,127454.242,8,400,17,,ISIC_7369690.JPG
break,html.Screen,4_16_1,2023-05-02T17:29:01.747Z,,0,,,NaN,,,,,,false,,,,127431.79999995232,127431.59999990463,,127431.09999990463,,127454.242,8,400,,,
break_continue,html.Screen,4_16_2,2023-05-02T17:29:01.748Z,,0,,,NaN,,,,,,false,,,,127432.20000004768,127432,,127432,,127454.242,8,400,,,
sequence,flow.Sequence,4_16,2023-05-02T17:29:01.748Z,,0,,,4894.228000000003,completion,,,,,false,,,,127432.39999985695,127432,122521.106,122538,122537.772,127454.242,8,400,,,
trial,html.Screen,4_17_0,2023-05-02T17:29:07.659Z,,0,1,,5888.458000047685,response,ISIC_0025448.JPG,,ISIC_1323743.JPG,ISIC_0025448.JPG,false,1,keypress(m),500,133343.20000004768,133342.70000004768,127437.576,127432.5,127454.242,133354.328,8,400,18,,ISIC_1323743.JPG
break,html.Screen,4_17_1,2023-05-02T17:29:07.660Z,,0,,,NaN,,,,,,false,,,,133344.09999990463,133343.89999985695,,133343.5,,133354.328,8,400,,,
break_continue,html.Screen,4_17_2,2023-05-02T17:29:07.660Z,,0,,,NaN,,,,,,false,,,,133344.5,133344.39999985695,,133344.29999995232,,133354.328,8,400,,,
sequence,flow.Sequence,4_17,2023-05-02T17:29:07.660Z,,0,,,5890.1579998569505,completion,,,,,false,,,,133344.70000004768,133344.39999985695,127437.576,127432.5,127454.242,133354.328,8,400,,,
trial,html.Screen,4_18_0,2023-05-02T17:29:13.625Z,,0,1,,5954.872000047675,response,ISIC_0033192.JPG,,ISIC_0012150.JPG,ISIC_0033192.JPG,false,1,keypress(m),500,139309.59999990463,139309.20000004768,133337.662,133344.89999985695,133354.328,139320.756,8,400,19,,ISIC_0012150.JPG
break,html.Screen,4_18_1,2023-05-02T17:29:13.626Z,,0,,,NaN,,,,,,false,,,,139310.5,139310.29999995232,,139309.89999985695,,139320.756,8,400,,,
break_continue,html.Screen,4_18_2,2023-05-02T17:29:13.627Z,,0,,,NaN,,,,,,false,,,,139311,139310.89999985695,,139310.79999995232,,139320.756,8,400,,,
sequence,flow.Sequence,4_18,2023-05-02T17:29:13.627Z,,0,,,5956.57199985694,completion,,,,,false,,,,139311.09999990463,139310.89999985695,133337.662,133344.79999995232,133354.328,139320.756,8,400,,,
trial,html.Screen,4_19_0,2023-05-02T17:29:17.922Z,,0,1,,4285.143999856955,response,ISIC_0034236.JPG,,ISIC_0033651.JPG,ISIC_0033651.JPG,false,0,keypress(z),500,143606.39999985695,143605.89999985695,139304.09,139311.29999995232,139320.756,143621.029,8,400,20,,ISIC_0034236.JPG
break,html.Screen,4_19_1,2023-05-02T17:29:17.923Z,,0,,,NaN,,,,,,false,,,,143607.29999995232,143607.09999990463,,143606.59999990463,,143621.029,8,400,,,
break_continue,html.Screen,4_19_2,2023-05-02T17:29:17.923Z,,0,,,NaN,,,,,,false,,,,143607.70000004768,143607.59999990463,,143607.39999985695,,143621.029,8,400,,,
sequence,flow.Sequence,4_19,2023-05-02T17:29:17.923Z,,0,,,4286.843999904639,completion,,,,,false,,,,143607.79999995232,143607.59999990463,139304.09,139311.29999995232,139320.756,143621.029,8,400,,,
trial,html.Screen,4_20_0,2023-05-02T17:29:27.219Z,,0,1,,9281.37099985694,response,ISIC_7268804.JPG,,ISIC_6131393.JPG,ISIC_6131393.JPG,false,0,keypress(z),500,152902.89999985695,152902.39999985695,143604.363,143607.89999985695,143621.029,152903.991,8,400,21,,ISIC_7268804.JPG
break,html.Screen,4_20_1,2023-05-02T17:29:27.219Z,,0,,,NaN,,,,,,false,,,,152903.79999995232,152903.70000004768,,152903.20000004768,,152903.991,8,400,,,
break_continue,html.Screen,4_20_2,2023-05-02T17:29:27.220Z,,0,,,NaN,,,,,,false,,,,152904.20000004768,152904.09999990463,,152904,,152903.991,8,400,,,
sequence,flow.Sequence,4_20,2023-05-02T17:29:27.220Z,,0,,,9283.070999904623,completion,,,,,false,,,,152904.39999985695,152904.09999990463,143604.363,143607.89999985695,143621.029,152903.991,8,400,,,
trial,html.Screen,4_21_0,2023-05-02T17:29:30.603Z,,0,1,,3382.808999952307,response,ISIC_1566428.JPG,,ISIC_0032287.JPG,ISIC_0032287.JPG,false,0,keypress(z),500,156287.29999995232,156286.79999995232,152887.325,152904.59999990463,152903.991,156304.31,8,400,22,,ISIC_1566428.JPG
break,html.Screen,4_21_1,2023-05-02T17:29:30.604Z,,0,,,NaN,,,,,,false,,,,156288.20000004768,156287.89999985695,,156287.5,,156304.31,8,400,,,
break_continue,html.Screen,4_21_2,2023-05-02T17:29:30.604Z,,0,,,NaN,,,,,,false,,,,156288.5,156288.39999985695,,156288.29999995232,,156304.31,8,400,,,
sequence,flow.Sequence,4_21,2023-05-02T17:29:30.604Z,,0,,,3384.4089998569398,completion,,,,,false,,,,156288.70000004768,156288.39999985695,152887.325,152904.5,152903.991,156304.31,8,400,,,
trial,html.Screen,4_22_0,2023-05-02T17:29:34.228Z,,0,1,,3607.589999856951,response,ISIC_0011313.JPG,,ISIC_0068246.JPG,ISIC_0011313.JPG,false,1,keypress(m),500,159912.39999985695,159911.89999985695,156287.644,156288.89999985695,156304.31,159920.832,8,400,23,,ISIC_0068246.JPG
break,html.Screen,4_22_1,2023-05-02T17:29:34.229Z,,0,,,NaN,,,,,,false,,,,159913.29999995232,159913.09999990463,,159912.59999990463,,159920.832,8,400,,,
break_continue,html.Screen,4_22_2,2023-05-02T17:29:34.229Z,,0,,,NaN,,,,,,false,,,,159913.59999990463,159913.5,,159913.5,,159920.832,8,400,,,
sequence,flow.Sequence,4_22,2023-05-02T17:29:34.229Z,,0,,,3609.1900000000023,completion,,,,,false,,,,159913.79999995232,159913.5,156287.644,156288.79999995232,156304.31,159920.832,8,400,,,
trial,html.Screen,4_23_0,2023-05-02T17:29:38.226Z,,0,1,,3989.567999856954,response,ISIC_0027646.JPG,,ISIC_0057083.JPG,ISIC_0057083.JPG,false,0,keypress(z),500,163910.79999995232,163910.39999985695,159904.166,159914,159920.832,163920.672,8,400,24,,ISIC_0027646.JPG
break,html.Screen,4_23_1,2023-05-02T17:29:38.227Z,,0,,,NaN,,,,,,false,,,,163911.70000004768,163911.5,,163911.09999990463,,163920.672,8,400,,,
break_continue,html.Screen,4_23_2,2023-05-02T17:29:38.228Z,,0,,,NaN,,,,,,false,,,,163912.09999990463,163912,,163911.89999985695,,163920.672,8,400,,,
sequence,flow.Sequence,4_23,2023-05-02T17:29:38.228Z,,0,,,3991.168000000005,completion,,,,,false,,,,163912.29999995232,163912,159904.166,159913.89999985695,159920.832,163920.672,8,400,,,
trial,html.Screen,4_24_0,2023-05-02T17:29:41.970Z,,0,1,,3733.8280000000086,response,ISIC_8955135.JPG,,ISIC_0033007.JPG,ISIC_0033007.JPG,false,0,keypress(z),500,167654.89999985695,167654.5,163904.006,163912.39999985695,163920.672,167670.915,8,400,25,,ISIC_8955135.JPG
break,html.Screen,4_24_1,2023-05-02T17:29:41.971Z,,0,,,NaN,,,,,,false,,,,167655.70000004768,167655.59999990463,,167655.09999990463,,167670.915,8,400,,,
break_continue,html.Screen,4_24_2,2023-05-02T17:29:41.972Z,,0,,,NaN,,,,,,false,,,,167656.20000004768,167656.09999990463,,167655.89999985695,,167670.915,8,400,,,
sequence,flow.Sequence,4_24,2023-05-02T17:29:41.972Z,,0,,,3735.427999904641,completion,,,,,false,,,,167656.39999985695,167656.09999990463,163904.006,163912.39999985695,163920.672,167670.915,8,400,,,
trial,html.Screen,4_25_0,2023-05-02T17:29:45.643Z,,0,1,,3655.884999952308,response,ISIC_9803747.JPG,,ISIC_0504730.JPG,ISIC_9803747.JPG,false,1,keypress(m),500,171327.20000004768,171326.79999995232,167654.249,167656.5,167670.915,171337.435,8,400,26,,ISIC_0504730.JPG
break,html.Screen,4_25_1,2023-05-02T17:29:45.644Z,,0,,,NaN,,,,,,false,,,,171328.20000004768,171327.89999985695,,171327.5,,171337.435,8,400,,,
break_continue,html.Screen,4_25_2,2023-05-02T17:29:45.644Z,,0,,,NaN,,,,,,false,,,,171328.59999990463,171328.39999985695,,171328.20000004768,,171337.435,8,400,,,
sequence,flow.Sequence,4_25,2023-05-02T17:29:45.644Z,,0,,,3657.4849998569407,completion,,,,,false,,,,171328.59999990463,171328.39999985695,167654.249,167656.5,167670.915,171337.435,8,400,,,
trial,html.Screen,4_26_0,2023-05-02T17:29:50.521Z,,0,1,,4867.765000047686,response,ISIC_4007322.JPG,,ISIC_0029209.JPG,ISIC_4007322.JPG,false,1,keypress(m),500,176205.79999995232,176205.20000004768,171320.769,171328.79999995232,171337.435,176220.925,8,400,27,,ISIC_0029209.JPG
break,html.Screen,4_26_1,2023-05-02T17:29:50.522Z,,0,,,NaN,,,,,,false,,,,176206.59999990463,176206.39999985695,,176206,,176220.925,8,400,,,
break_continue,html.Screen,4_26_2,2023-05-02T17:29:50.523Z,,0,,,NaN,,,,,,false,,,,176206.89999985695,176206.79999995232,,176206.70000004768,,176220.925,8,400,,,
sequence,flow.Sequence,4_26,2023-05-02T17:29:50.523Z,,0,,,4869.364999952319,completion,,,,,false,,,,176207.20000004768,176206.79999995232,171320.769,171328.70000004768,171337.435,176220.925,8,400,,,
trial,html.Screen,4_27_0,2023-05-02T17:29:54.100Z,,0,1,,3563.0750000000116,response,ISIC_7837503.JPG,,ISIC_0001102.JPG,ISIC_0001102.JPG,false,0,keypress(z),500,179784.29999995232,179784,176204.259,176207.29999995232,176220.925,179787.449,8,400,28,,ISIC_7837503.JPG
break,html.Screen,4_27_1,2023-05-02T17:29:54.101Z,,0,,,NaN,,,,,,false,,,,179785.20000004768,179785.09999990463,,179784.5,,179787.449,8,400,,,
break_continue,html.Screen,4_27_2,2023-05-02T17:29:54.101Z,,0,,,NaN,,,,,,false,,,,179785.70000004768,179785.5,,179785.39999985695,,179787.449,8,400,,,
sequence,flow.Sequence,4_27,2023-05-02T17:29:54.102Z,,0,,,3564.5750000000116,completion,,,,,false,,,,179785.89999985695,179785.5,176204.259,176207.29999995232,176220.925,179787.449,8,400,,,
trial,html.Screen,4_28_0,2023-05-02T17:29:59.491Z,,0,1,,5386.950999856956,response,ISIC_0033534.JPG,,ISIC_0056915.JPG,ISIC_0056915.JPG,false,0,keypress(z),500,185174.79999995232,185174.39999985695,179770.783,179785.89999985695,179787.449,185187.233,8,400,29,,ISIC_0033534.JPG
break,html.Screen,4_28_1,2023-05-02T17:29:59.492Z,,0,,,NaN,,,,,,false,,,,185175.79999995232,185175.59999990463,,185175.20000004768,,185187.233,8,400,,,
break_continue,html.Screen,4_28_2,2023-05-02T17:29:59.492Z,,0,,,NaN,,,,,,false,,,,185176.20000004768,185176.09999990463,,185175.89999985695,,185187.233,8,400,,,
sequence,flow.Sequence,4_28,2023-05-02T17:29:59.492Z,,0,,,5388.650999904639,completion,,,,,false,,,,185176.5,185176.09999990463,179770.783,179785.89999985695,179787.449,185187.233,8,400,,,
trial,html.Screen,4_29_0,2023-05-02T17:30:05.067Z,,0,1,,5563.566999952309,response,ISIC_0028366.JPG,,ISIC_0034183.JPG,ISIC_0034183.JPG,false,0,keypress(z),500,190751.29999995232,190750.79999995232,185170.567,185176.59999990463,185187.233,190754.162,8,400,30,,ISIC_0028366.JPG
break,html.Screen,4_29_1,2023-05-02T17:30:05.068Z,,0,,,NaN,,,,,,false,,,,190752.29999995232,190752.09999990463,,190751.59999990463,,190754.162,8,400,,,
break_continue,html.Screen,4_29_2,2023-05-02T17:30:05.068Z,,0,,,NaN,,,,,,false,,,,190752.70000004768,190752.59999990463,,190752.39999985695,,190754.162,8,400,,,
sequence,flow.Sequence,4_29,2023-05-02T17:30:05.069Z,,0,,,5565.366999904625,completion,,,,,false,,,,190752.89999985695,190752.59999990463,185170.567,185176.59999990463,185187.233,190754.162,8,400,,,
trial,html.Screen,4_30_0,2023-05-02T17:30:11.252Z,,0,1,,6181.737999856938,response,ISIC_0064337.JPG,,ISIC_3868662.JPG,ISIC_0064337.JPG,false,1,keypress(m),500,196936.39999985695,196935.89999985695,190737.496,190753,190754.162,196937.492,8,400,31,,ISIC_3868662.JPG
break,html.Screen,4_30_1,2023-05-02T17:30:11.253Z,,0,,,NaN,,,,,,false,,,,196937.5,196937.29999995232,,196936.70000004768,,196937.492,8,400,,,
break_continue,html.Screen,4_30_2,2023-05-02T17:30:11.254Z,,0,,,NaN,,,,,,false,,,,196937.79999995232,196937.70000004768,,196937.59999990463,,196937.492,8,400,,,
sequence,flow.Sequence,4_30,2023-05-02T17:30:11.254Z,,0,,,6183.5380000476725,completion,,,,,false,,,,196938.09999990463,196937.70000004768,190737.496,190752.89999985695,190754.162,196937.492,8,400,,,
trial,html.Screen,4_31_0,2023-05-02T17:30:14.915Z,,0,1,,3661.0080000000016,response,ISIC_9183042.JPG,,ISIC_1814941.JPG,ISIC_9183042.JPG,false,1,keypress(m),500,200599,200598.5,196920.826,196938.09999990463,196937.492,200604.012,8,400,32,,ISIC_1814941.JPG
break,html.Screen,4_31_1,2023-05-02T17:30:14.916Z,,0,,,NaN,,,,,,false,,,,200600,200599.70000004768,,200599.29999995232,,200604.012,8,400,,,
break_continue,html.Screen,4_31_2,2023-05-02T17:30:14.916Z,,0,,,NaN,,,,,,false,,,,200600.29999995232,200600.20000004768,,200600.09999990463,,200604.012,8,400,,,
sequence,flow.Sequence,4_31,2023-05-02T17:30:14.916Z,,0,,,3662.7080000476853,completion,,,,,false,,,,200600.5,200600.20000004768,196920.826,196938.09999990463,196937.492,200604.012,8,400,,,
trial,html.Screen,4_32_0,2023-05-02T17:30:19.163Z,,0,1,,4242.787999952328,response,ISIC_8689112.JPG,,ISIC_5581936.JPG,ISIC_8689112.JPG,false,1,keypress(m),500,204847.20000004768,204846.79999995232,200587.346,200600.59999990463,200604.012,204853.842,8,400,33,,ISIC_5581936.JPG
break,html.Screen,4_32_1,2023-05-02T17:30:19.164Z,,0,,,NaN,,,,,,false,,,,204848.20000004768,204848,,204847.5,,204853.842,8,400,,,
break_continue,html.Screen,4_32_2,2023-05-02T17:30:19.164Z,,0,,,NaN,,,,,,false,,,,204848.59999990463,204848.5,,204848.39999985695,,204853.842,8,400,,,
sequence,flow.Sequence,4_32,2023-05-02T17:30:19.165Z,,0,,,4244.488000000012,completion,,,,,false,,,,204848.79999995232,204848.5,200587.346,200600.5,200604.012,204853.842,8,400,,,
trial,html.Screen,4_33_0,2023-05-02T17:30:22.516Z,,0,1,,3346.157999999996,response,ISIC_0057481.JPG,,ISIC_9005623.JPG,ISIC_0057481.JPG,false,1,keypress(m),500,208200.29999995232,208200,204837.176,204849,204853.842,208204.237,8,400,34,,ISIC_9005623.JPG
break,html.Screen,4_33_1,2023-05-02T17:30:22.517Z,,0,,,NaN,,,,,,false,,,,208201.39999985695,208201.20000004768,,208200.59999990463,,208204.237,8,400,,,
break_continue,html.Screen,4_33_2,2023-05-02T17:30:22.518Z,,0,,,NaN,,,,,,false,,,,208201.70000004768,208201.59999990463,,208201.5,,208204.237,8,400,,,
sequence,flow.Sequence,4_33,2023-05-02T17:30:22.518Z,,0,,,3347.7579999046284,completion,,,,,false,,,,208201.89999985695,208201.59999990463,204837.176,204848.89999985695,204853.842,208204.237,8,400,,,
trial,html.Screen,4_34_0,2023-05-02T17:30:26.179Z,,0,1,,3658.162999856955,response,ISIC_0034068.JPG,,ISIC_2843245.JPG,ISIC_2843245.JPG,false,0,keypress(z),500,211862.79999995232,211862.39999985695,208187.571,208202.09999990463,208204.237,211870.757,8,400,35,,ISIC_0034068.JPG
break,html.Screen,4_34_1,2023-05-02T17:30:26.180Z,,0,,,NaN,,,,,,false,,,,211863.79999995232,211863.59999990463,,211863.09999990463,,211870.757,8,400,,,
break_continue,html.Screen,4_34_2,2023-05-02T17:30:26.180Z,,0,,,NaN,,,,,,false,,,,211864.09999990463,211864,,211863.89999985695,,211870.757,8,400,,,
sequence,flow.Sequence,4_34,2023-05-02T17:30:26.180Z,,0,,,3659.7630000000063,completion,,,,,false,,,,211864.29999995232,211864,208187.571,208202,208204.237,211870.757,8,400,,,
trial,html.Screen,4_35_0,2023-05-02T17:30:29.723Z,,0,1,,3536.042999952304,response,ISIC_0060222.JPG,,ISIC_9276931.JPG,ISIC_9276931.JPG,false,0,keypress(z),500,215407.20000004768,215406.79999995232,211854.091,211864.39999985695,211870.757,215420.615,8,400,36,,ISIC_0060222.JPG
break,html.Screen,4_35_1,2023-05-02T17:30:29.724Z,,0,,,NaN,,,,,,false,,,,215408.20000004768,215408,,215407.5,,215420.615,8,400,,,
break_continue,html.Screen,4_35_2,2023-05-02T17:30:29.724Z,,0,,,NaN,,,,,,false,,,,215408.59999990463,215408.5,,215408.29999995232,,215420.615,8,400,,,
sequence,flow.Sequence,4_35,2023-05-02T17:30:29.725Z,,0,,,3537.7429999999877,completion,,,,,false,,,,215408.70000004768,215408.5,211854.091,211864.39999985695,211870.757,215420.615,8,400,,,
trial,html.Screen,4_36_0,2023-05-02T17:30:36.186Z,,0,1,,6448.684999952326,response,ISIC_5468164.JPG,,ISIC_0031202.JPG,ISIC_0031202.JPG,false,0,keypress(z),500,221869.70000004768,221869.29999995232,215403.949,215408.89999985695,215420.615,221870.752,8,400,37,,ISIC_5468164.JPG
break,html.Screen,4_36_1,2023-05-02T17:30:36.187Z,,0,,,NaN,,,,,,false,,,,221870.70000004768,221870.5,,221870,,221870.752,8,400,,,
break_continue,html.Screen,4_36_2,2023-05-02T17:30:36.187Z,,0,,,NaN,,,,,,false,,,,221871.09999990463,221871,,221870.79999995232,,221870.752,8,400,,,
sequence,flow.Sequence,4_36,2023-05-02T17:30:36.187Z,,0,,,6450.385000000009,completion,,,,,false,,,,221871.29999995232,221871,215403.949,215408.79999995232,215420.615,221870.752,8,400,,,
trial,html.Screen,4_37_0,2023-05-02T17:30:41.380Z,,0,1,,5193.147999856941,response,ISIC_2999018.JPG,,ISIC_0002184.JPG,ISIC_2999018.JPG,false,1,keypress(m),500,227064.29999995232,227063.89999985695,221854.086,221871.39999985695,221870.752,227070.544,8,400,38,,ISIC_0002184.JPG
break,html.Screen,4_37_1,2023-05-02T17:30:41.381Z,,0,,,NaN,,,,,,false,,,,227065.20000004768,227065,,227064.5,,227070.544,8,400,,,
break_continue,html.Screen,4_37_2,2023-05-02T17:30:41.381Z,,0,,,NaN,,,,,,false,,,,227065.59999990463,227065.5,,227065.29999995232,,227070.544,8,400,,,
sequence,flow.Sequence,4_37,2023-05-02T17:30:41.382Z,,0,,,5194.747999999992,completion,,,,,false,,,,227065.79999995232,227065.5,221854.086,221871.39999985695,221870.752,227070.544,8,400,,,
trial,html.Screen,4_38_0,2023-05-02T17:30:44.883Z,,0,1,,3495.9560000000056,response,ISIC_6576397.JPG,,ISIC_6384927.JPG,ISIC_6576397.JPG,false,1,keypress(m),500,230566.89999985695,230566.5,227053.878,227065.89999985695,227070.544,230570.404,8,400,39,,ISIC_6384927.JPG
break,html.Screen,4_38_1,2023-05-02T17:30:44.884Z,,0,,,NaN,,,,,,false,,,,230567.79999995232,230567.70000004768,,230567.20000004768,,230570.404,8,400,,,
break_continue,html.Screen,4_38_2,2023-05-02T17:30:44.884Z,,0,,,NaN,,,,,,false,,,,230568.29999995232,230568.09999990463,,230568,,230570.404,8,400,,,
sequence,flow.Sequence,4_38,2023-05-02T17:30:44.884Z,,0,,,3497.555999904638,completion,,,,,false,,,,230568.5,230568.09999990463,227053.878,227065.89999985695,227070.544,230570.404,8,400,,,
trial,html.Screen,4_39_0,2023-05-02T17:30:48.795Z,,0,1,,3908.3959999523067,response,ISIC_2826766.JPG,,ISIC_0009916.JPG,ISIC_2826766.JPG,false,1,keypress(m),500,234479.20000004768,234478.79999995232,230553.738,230568.59999990463,230570.404,234487.428,8,400,40,,ISIC_0009916.JPG
break,html.Screen,4_39_1,2023-05-02T17:30:48.796Z,,0,,,NaN,,,,,,false,,,,234480.20000004768,234480,,234479.5,,234487.428,8,400,,,
break_continue,html.Screen,4_39_2,2023-05-02T17:30:48.796Z,,0,,,NaN,,,,,,false,,,,234480.5,234480.39999985695,,234480.29999995232,,234487.428,8,400,,,
sequence,flow.Sequence,4_39,2023-05-02T17:30:48.797Z,,0,,,3909.9959998569393,completion,,,,,false,,,,234480.70000004768,234480.39999985695,230553.738,230568.5,230570.404,234487.428,8,400,,,
trial,html.Screen,4_40_0,2023-05-02T17:30:52.900Z,,0,1,,4096.471999856934,response,ISIC_5796736.JPG,,ISIC_0021271.JPG,ISIC_5796736.JPG,false,1,keypress(m),500,238584.29999995232,238583.89999985695,234470.762,234480.89999985695,234487.428,238587.264,8,400,41,,ISIC_0021271.JPG
break,html.Screen,4_40_1,2023-05-02T17:30:52.901Z,,0,,,NaN,,,,,,false,,,,238585.39999985695,238585.20000004768,,238584.70000004768,,238587.264,8,400,,,
break_continue,html.Screen,4_40_2,2023-05-02T17:30:52.902Z,,0,,,NaN,,,,,,false,,,,238585.79999995232,238585.70000004768,,238585.5,,238587.264,8,400,,,
sequence,flow.Sequence,4_40,2023-05-02T17:30:52.902Z,,0,,,4098.272000047669,completion,,,,,false,,,,238585.89999985695,238585.70000004768,234470.762,234480.79999995232,234487.428,238587.264,8,400,,,
trial,html.Screen,4_41_0,2023-05-02T17:30:56.699Z,,0,1,,3795.5359999523207,response,ISIC_0071806.JPG,,ISIC_9142818.JPG,ISIC_9142818.JPG,false,0,keypress(z),500,242383.20000004768,242382.79999995232,238570.598,238586.09999990463,238587.264,242387.468,8,400,42,,ISIC_0071806.JPG
break,html.Screen,4_41_1,2023-05-02T17:30:56.700Z,,0,,,NaN,,,,,,false,,,,242384.20000004768,242384,,242383.5,,242387.468,8,400,,,
break_continue,html.Screen,4_41_2,2023-05-02T17:30:56.700Z,,0,,,NaN,,,,,,false,,,,242384.59999990463,242384.5,,242384.39999985695,,242387.468,8,400,,,
sequence,flow.Sequence,4_41,2023-05-02T17:30:56.701Z,,0,,,3797.2360000000044,completion,,,,,false,,,,242384.70000004768,242384.5,238570.598,238586.09999990463,238587.264,242387.468,8,400,,,
trial,html.Screen,4_42_0,2023-05-02T17:31:00.378Z,,0,1,,3673.831999952323,response,ISIC_4141315.JPG,,ISIC_4274519.JPG,ISIC_4141315.JPG,false,1,keypress(m),500,246061.70000004768,246061.29999995232,242370.802,242384.89999985695,242387.468,246070.654,8,400,43,,ISIC_4274519.JPG
break,html.Screen,4_42_1,2023-05-02T17:31:00.379Z,,0,,,NaN,,,,,,false,,,,246062.79999995232,246062.39999985695,,246062,,246070.654,8,400,,,
break_continue,html.Screen,4_42_2,2023-05-02T17:31:00.379Z,,0,,,NaN,,,,,,false,,,,246063.20000004768,246063.09999990463,,246062.89999985695,,246070.654,8,400,,,
sequence,flow.Sequence,4_42,2023-05-02T17:31:00.379Z,,0,,,3675.631999904639,completion,,,,,false,,,,246063.29999995232,246063.09999990463,242370.802,242384.79999995232,242387.468,246070.654,8,400,,,
trial,html.Screen,4_43_0,2023-05-02T17:31:03.955Z,,0,1,,3568.1459999523067,response,ISIC_1389141.JPG,,ISIC_1226440.JPG,ISIC_1226440.JPG,false,0,keypress(z),500,249639.20000004768,249638.79999995232,246053.988,246063.5,246070.654,249653.844,8,400,44,,ISIC_1389141.JPG
break,html.Screen,4_43_1,2023-05-02T17:31:03.956Z,,0,,,NaN,,,,,,false,,,,249640.20000004768,249639.89999985695,,249639.5,,249653.844,8,400,,,
break_continue,html.Screen,4_43_2,2023-05-02T17:31:03.956Z,,0,,,NaN,,,,,,false,,,,249640.59999990463,249640.39999985695,,249640.29999995232,,249653.844,8,400,,,
sequence,flow.Sequence,4_43,2023-05-02T17:31:03.957Z,,0,,,3569.7459998569393,completion,,,,,false,,,,249640.70000004768,249640.39999985695,246053.988,246063.39999985695,246070.654,249653.844,8,400,,,
trial,html.Screen,4_44_0,2023-05-02T17:31:07.563Z,,0,1,,3593.055999856937,response,ISIC_5789994.JPG,,ISIC_0005639.JPG,ISIC_5789994.JPG,false,1,keypress(m),500,253247.29999995232,253246.89999985695,249637.178,249640.89999985695,249653.844,253254.114,8,400,45,,ISIC_0005639.JPG
break,html.Screen,4_44_1,2023-05-02T17:31:07.564Z,,0,,,NaN,,,,,,false,,,,253248.20000004768,253248,,253247.59999990463,,253254.114,8,400,,,
break_continue,html.Screen,4_44_2,2023-05-02T17:31:07.564Z,,0,,,NaN,,,,,,false,,,,253248.5,253248.39999985695,,253248.29999995232,,253254.114,8,400,,,
sequence,flow.Sequence,4_44,2023-05-02T17:31:07.565Z,,0,,,3594.555999856937,completion,,,,,false,,,,253248.70000004768,253248.39999985695,249637.178,249640.79999995232,249653.844,253254.114,8,400,,,
trial,html.Screen,4_45_0,2023-05-02T17:31:10.804Z,,0,1,,3233.7859998569475,response,ISIC_0028698.JPG,,ISIC_1612350.JPG,ISIC_0028698.JPG,false,1,keypress(m),500,256488.29999995232,256487.89999985695,253237.448,253248.79999995232,253254.114,256503.984,8,400,46,,ISIC_1612350.JPG
break,html.Screen,4_45_1,2023-05-02T17:31:10.805Z,,0,,,NaN,,,,,,false,,,,256489.29999995232,256489.09999990463,,256488.59999990463,,256503.984,8,400,,,
break_continue,html.Screen,4_45_2,2023-05-02T17:31:10.806Z,,0,,,NaN,,,,,,false,,,,256489.59999990463,256489.59999990463,,256489.5,,256503.984,8,400,,,
sequence,flow.Sequence,4_45,2023-05-02T17:31:10.806Z,,0,,,3235.485999904631,completion,,,,,false,,,,256489.79999995232,256489.59999990463,253237.448,253248.79999995232,253254.114,256503.984,8,400,,,
trial,html.Screen,4_46_0,2023-05-02T17:31:14.754Z,,0,1,,3933.615999904636,response,ISIC_7010552.JPG,,ISIC_5850699.JPG,ISIC_5850699.JPG,false,0,keypress(z),500,260438,260437.59999990463,256487.318,256489.89999985695,256503.984,260453.826,8,400,47,,ISIC_7010552.JPG
break,html.Screen,4_46_1,2023-05-02T17:31:14.755Z,,0,,,NaN,,,,,,false,,,,260439,260438.70000004768,,260438.29999995232,,260453.826,8,400,,,
break_continue,html.Screen,4_46_2,2023-05-02T17:31:14.755Z,,0,,,NaN,,,,,,false,,,,260439.29999995232,260439.20000004768,,260439.09999990463,,260453.826,8,400,,,
sequence,flow.Sequence,4_46,2023-05-02T17:31:14.755Z,,0,,,3935.216000047687,completion,,,,,false,,,,260439.5,260439.20000004768,256487.318,256489.89999985695,256503.984,260453.826,8,400,,,
trial,html.Screen,4_47_0,2023-05-02T17:31:18.243Z,,0,1,,3472.673999999999,response,ISIC_0011924.JPG,,ISIC_0033233.JPG,ISIC_0033233.JPG,false,0,keypress(z),500,263926.7999999523,263926.5,260437.16,260439.59999990463,260453.826,263937.464,8,400,48,,ISIC_0011924.JPG
break,html.Screen,4_47_1,2023-05-02T17:31:18.244Z,,0,,,NaN,,,,,,false,,,,263927.7999999523,263927.5,,263927.09999990463,,263937.464,8,400,,,
break_continue,html.Screen,4_47_2,2023-05-02T17:31:18.244Z,,0,,,NaN,,,,,,false,,,,263928.2000000477,263928,,263927.89999985695,,263937.464,8,400,,,
sequence,flow.Sequence,4_47,2023-05-02T17:31:18.244Z,,0,,,3474.173999999999,completion,,,,,false,,,,263928.39999985695,263928,260437.16,260439.5,260453.826,263937.464,8,400,,,
trial,html.Screen,4_48_0,2023-05-02T17:31:21.612Z,,0,1,,3358.7360000477056,response,ISIC_9080774.JPG,,ISIC_5964676.JPG,ISIC_9080774.JPG,false,1,keypress(m),500,267296.5,267296.2000000477,263920.798,263928.5,263937.464,267303.996,8,400,49,,ISIC_5964676.JPG
break,html.Screen,4_48_1,2023-05-02T17:31:21.613Z,,0,,,NaN,,,,,,false,,,,267297.39999985695,267297.2000000477,,267296.7999999523,,267303.996,8,400,,,
break_continue,html.Screen,4_48_2,2023-05-02T17:31:21.614Z,,0,,,NaN,,,,,,false,,,,267297.7999999523,267297.59999990463,,267297.59999990463,,267303.996,8,400,,,
sequence,flow.Sequence,4_48,2023-05-02T17:31:21.614Z,,0,,,3360.1359999046545,completion,,,,,false,,,,267297.89999985695,267297.59999990463,263920.798,263928.5,263937.464,267303.996,8,400,,,
trial,html.Screen,4_49_0,2023-05-02T17:31:25.284Z,,0,1,,3663.403999856964,response,ISIC_6370748.JPG,,ISIC_0015015.JPG,ISIC_0015015.JPG,false,0,keypress(z),500,270967.7999999523,270967.39999985695,267287.33,267298.09999990463,267303.996,270970.516,8,400,50,,ISIC_6370748.JPG
break,html.Screen,4_49_1,2023-05-02T17:31:30.273Z,,0,,,4999.799999999988,timeout,,,,,false,,,,275957.2999999523,275953.65,270953.85,270968,270970.516,275970.316,8,400,,,
break_continue,html.Screen,4_49_2,2023-05-02T17:31:31.436Z,,0,,,1137.884000047692,response,,,,,false,continue,keypress(Space),,277119.89999985695,277108.2000000477,275953.65,275957.59999990463,275970.316,277136.936,8,400,,,
sequence,flow.Sequence,4_49,2023-05-02T17:31:31.436Z,,0,,,9804.204000047699,completion,,,,,false,,,,277120,277108.2000000477,267287.33,267298,267303.996,277136.936,8,400,,,
trial,html.Screen,4_50_0,2023-05-02T17:31:35.914Z,,0,2,,4460.363999952329,response,ISIC_4951035.JPG,,ISIC_4873045.JPG,ISIC_4951035.JPG,false,1,keypress(m),500,281597.7999999523,281597.2999999523,277120.27,277120.2000000477,277136.936,281603.424,8,400,1,,ISIC_4873045.JPG
break,html.Screen,4_50_1,2023-05-02T17:31:35.915Z,,0,,,NaN,,,,,,false,,,,281598.7999999523,281598.59999990463,,281598,,281603.424,8,400,,,
break_continue,html.Screen,4_50_2,2023-05-02T17:31:35.915Z,,0,,,NaN,,,,,,false,,,,281599.2000000477,281599,,281599,,281603.424,8,400,,,
sequence,flow.Sequence,4_50,2023-05-02T17:31:35.915Z,,0,,,4462.064000000013,completion,,,,,false,,,,281599.2999999523,281599,277120.27,277120.2000000477,277136.936,281603.424,8,400,,,
trial,html.Screen,4_51_0,2023-05-02T17:31:39.829Z,,0,2,,3908.7760000476846,response,ISIC_4477599.JPG,,ISIC_0031304.JPG,ISIC_4477599.JPG,false,1,keypress(m),500,285512.5,285512.2000000477,281586.758,281599.5,281603.424,285520.689,8,400,2,,ISIC_0031304.JPG
break,html.Screen,4_51_1,2023-05-02T17:31:39.830Z,,0,,,NaN,,,,,,false,,,,285513.5,285513.2999999523,,285512.7999999523,,285520.689,8,400,,,
break_continue,html.Screen,4_51_2,2023-05-02T17:31:39.830Z,,0,,,NaN,,,,,,false,,,,285513.89999985695,285513.7999999523,,285513.7000000477,,285520.689,8,400,,,
sequence,flow.Sequence,4_51,2023-05-02T17:31:39.830Z,,0,,,3910.375999952317,completion,,,,,false,,,,285514.09999990463,285513.7999999523,281586.758,281599.39999985695,281603.424,285520.689,8,400,,,
trial,html.Screen,4_52_0,2023-05-02T17:31:43.131Z,,0,2,,3294.1109999523032,response,ISIC_0025904.JPG,,ISIC_4579262.JPG,ISIC_4579262.JPG,false,0,keypress(z),500,288815.2000000477,288814.7999999523,285504.023,285514.2000000477,285520.689,288820.557,8,400,3,,ISIC_0025904.JPG
break,html.Screen,4_52_1,2023-05-02T17:31:43.132Z,,0,,,NaN,,,,,,false,,,,288816.2000000477,288815.89999985695,,288815.5,,288820.557,8,400,,,
break_continue,html.Screen,4_52_2,2023-05-02T17:31:43.133Z,,0,,,NaN,,,,,,false,,,,288816.59999990463,288816.39999985695,,288816.2999999523,,288820.557,8,400,,,
sequence,flow.Sequence,4_52,2023-05-02T17:31:43.133Z,,0,,,3295.710999856936,completion,,,,,false,,,,288816.7000000477,288816.39999985695,285504.023,285514.2000000477,285520.689,288820.557,8,400,,,
trial,html.Screen,4_53_0,2023-05-02T17:31:46.868Z,,0,2,,3730.542999904661,response,ISIC_0029071.JPG,,ISIC_0067326.JPG,ISIC_0067326.JPG,false,0,keypress(z),500,292551.5,292551.09999990463,288803.891,288816.89999985695,288820.557,292553.741,8,400,4,,ISIC_0029071.JPG
break,html.Screen,4_53_1,2023-05-02T17:31:46.869Z,,0,,,NaN,,,,,,false,,,,292552.5,292552.2000000477,,292551.7999999523,,292553.741,8,400,,,
break_continue,html.Screen,4_53_2,2023-05-02T17:31:46.869Z,,0,,,NaN,,,,,,false,,,,292552.7999999523,292552.7000000477,,292552.59999990463,,292553.741,8,400,,,
sequence,flow.Sequence,4_53,2023-05-02T17:31:46.869Z,,0,,,3732.143000047712,completion,,,,,false,,,,292553,292552.7000000477,288803.891,288816.89999985695,288820.557,292553.741,8,400,,,
trial,html.Screen,4_54_0,2023-05-02T17:31:50.371Z,,0,2,,3500.658999856969,response,ISIC_8366864.JPG,,ISIC_0046596.JPG,ISIC_0046596.JPG,false,0,keypress(z),500,296054.89999985695,296054.39999985695,292537.075,292553.2000000477,292553.741,296070.678,8,400,5,,ISIC_8366864.JPG
break,html.Screen,4_54_1,2023-05-02T17:31:50.372Z,,0,,,NaN,,,,,,false,,,,296055.89999985695,296055.7000000477,,296055.2000000477,,296070.678,8,400,,,
break_continue,html.Screen,4_54_2,2023-05-02T17:31:50.372Z,,0,,,NaN,,,,,,false,,,,296056.2999999523,296056.09999990463,,296056,,296070.678,8,400,,,
sequence,flow.Sequence,4_54,2023-05-02T17:31:50.373Z,,0,,,3502.3589999046526,completion,,,,,false,,,,296056.39999985695,296056.09999990463,292537.075,292553.09999990463,292553.741,296070.678,8,400,,,
trial,html.Screen,4_55_0,2023-05-02T17:31:53.915Z,,0,2,,3528.121999952302,response,ISIC_5623973.JPG,,ISIC_0024911.JPG,ISIC_0024911.JPG,false,0,keypress(z),500,299599.2000000477,299598.7999999523,296054.012,296056.59999990463,296070.678,299603.87,8,400,6,,ISIC_5623973.JPG
break,html.Screen,4_55_1,2023-05-02T17:31:53.916Z,,0,,,NaN,,,,,,false,,,,299600.2999999523,299600,,299599.5,,299603.87,8,400,,,
break_continue,html.Screen,4_55_2,2023-05-02T17:31:53.917Z,,0,,,NaN,,,,,,false,,,,299600.59999990463,299600.5,,299600.39999985695,,299603.87,8,400,,,
sequence,flow.Sequence,4_55,2023-05-02T17:31:53.917Z,,0,,,3529.8219999999856,completion,,,,,false,,,,299600.7999999523,299600.5,296054.012,296056.59999990463,296070.678,299603.87,8,400,,,
trial,html.Screen,4_56_0,2023-05-02T17:31:59.268Z,,0,2,,5348.0299998569535,response,ISIC_0066411.JPG,,ISIC_0064472.JPG,ISIC_0066411.JPG,false,1,keypress(m),500,304952.2999999523,304951.89999985695,299587.204,299600.89999985695,299603.87,304953.656,8,400,7,,ISIC_0064472.JPG
break,html.Screen,4_56_1,2023-05-02T17:31:59.269Z,,0,,,NaN,,,,,,false,,,,304953.2999999523,304953.09999990463,,304952.59999990463,,304953.656,8,400,,,
break_continue,html.Screen,4_56_2,2023-05-02T17:31:59.270Z,,0,,,NaN,,,,,,false,,,,304953.59999990463,304953.39999985695,,304953.39999985695,,304953.656,8,400,,,
sequence,flow.Sequence,4_56,2023-05-02T17:31:59.270Z,,0,,,5349.5299998569535,completion,,,,,false,,,,304953.7999999523,304953.39999985695,299587.204,299600.89999985695,299603.87,304953.656,8,400,,,
trial,html.Screen,4_57_0,2023-05-02T17:32:03.194Z,,0,2,,3923.643999952299,response,ISIC_3267196.JPG,,ISIC_0485914.JPG,ISIC_0485914.JPG,false,0,keypress(z),500,308877.7000000477,308877.2999999523,304936.99,304953.89999985695,304953.656,308887.27,8,400,8,,ISIC_3267196.JPG
break,html.Screen,4_57_1,2023-05-02T17:32:03.195Z,,0,,,NaN,,,,,,false,,,,308878.59999990463,308878.39999985695,,308878,,308887.27,8,400,,,
break_continue,html.Screen,4_57_2,2023-05-02T17:32:03.195Z,,0,,,NaN,,,,,,false,,,,308879.09999990463,308878.89999985695,,308878.7999999523,,308887.27,8,400,,,
sequence,flow.Sequence,4_57,2023-05-02T17:32:03.195Z,,0,,,3925.2439998569316,completion,,,,,false,,,,308879.2000000477,308878.89999985695,304936.99,304953.89999985695,304953.656,308887.27,8,400,,,
trial,html.Screen,4_58_0,2023-05-02T17:32:06.884Z,,0,2,,3680.62999985693,response,ISIC_0053960.JPG,,ISIC_0054748.JPG,ISIC_0053960.JPG,false,1,keypress(m),500,312568.2999999523,312567.89999985695,308870.604,308879.39999985695,308887.27,312570.456,8,400,9,,ISIC_0054748.JPG
break,html.Screen,4_58_1,2023-05-02T17:32:06.885Z,,0,,,NaN,,,,,,false,,,,312569.2999999523,312569.09999990463,,312568.59999990463,,312570.456,8,400,,,
break_continue,html.Screen,4_58_2,2023-05-02T17:32:06.886Z,,0,,,NaN,,,,,,false,,,,312569.59999990463,312569.5,,312569.5,,312570.456,8,400,,,
sequence,flow.Sequence,4_58,2023-05-02T17:32:06.886Z,,0,,,3682.2299999999814,completion,,,,,false,,,,312569.7999999523,312569.5,308870.604,308879.2999999523,308887.27,312570.456,8,400,,,
trial,html.Screen,4_59_0,2023-05-02T17:32:11.835Z,,0,2,,4948.343999952311,response,ISIC_0046683.JPG,,ISIC_0033362.JPG,ISIC_0046683.JPG,false,1,keypress(m),500,317519.09999990463,317518.7999999523,312553.79,312570,312570.456,317537.236,8,400,10,,ISIC_0033362.JPG
break,html.Screen,4_59_1,2023-05-02T17:32:11.836Z,,0,,,NaN,,,,,,false,,,,317520.09999990463,317519.89999985695,,317519.39999985695,,317537.236,8,400,,,
break_continue,html.Screen,4_59_2,2023-05-02T17:32:11.837Z,,0,,,NaN,,,,,,false,,,,317520.5,317520.2999999523,,317520.2000000477,,317537.236,8,400,,,
sequence,flow.Sequence,4_59,2023-05-02T17:32:11.837Z,,0,,,4949.843999952311,completion,,,,,false,,,,317520.59999990463,317520.2999999523,312553.79,312569.89999985695,312570.456,317537.236,8,400,,,
trial,html.Screen,4_60_0,2023-05-02T17:32:16.212Z,,0,2,,4358.6639998569735,response,ISIC_0047003.JPG,,ISIC_0059786.JPG,ISIC_0047003.JPG,false,1,keypress(m),500,321896.2999999523,321895.89999985695,317520.57,317520.7000000477,317537.236,321903.728,8,400,11,,ISIC_0059786.JPG
break,html.Screen,4_60_1,2023-05-02T17:32:16.213Z,,0,,,NaN,,,,,,false,,,,321897.2999999523,321897.09999990463,,321896.59999990463,,321903.728,8,400,,,
break_continue,html.Screen,4_60_2,2023-05-02T17:32:16.214Z,,0,,,NaN,,,,,,false,,,,321897.59999990463,321897.59999990463,,321897.39999985695,,321903.728,8,400,,,
sequence,flow.Sequence,4_60,2023-05-02T17:32:16.214Z,,0,,,4360.363999904657,completion,,,,,false,,,,321897.89999985695,321897.59999990463,317520.57,317520.7000000477,317537.236,321903.728,8,400,,,
trial,html.Screen,4_61_0,2023-05-02T17:32:20.307Z,,0,2,,4086.771999999997,response,ISIC_6125358.JPG,,ISIC_0033595.JPG,ISIC_6125358.JPG,false,1,keypress(m),500,325990.89999985695,325990.5,321887.062,321898,321903.728,326003.564,8,400,12,,ISIC_0033595.JPG
break,html.Screen,4_61_1,2023-05-02T17:32:20.308Z,,0,,,NaN,,,,,,false,,,,325991.7000000477,325991.59999990463,,325991.09999990463,,326003.564,8,400,,,
break_continue,html.Screen,4_61_2,2023-05-02T17:32:20.308Z,,0,,,NaN,,,,,,false,,,,325992.2000000477,325992,,325991.89999985695,,326003.564,8,400,,,
sequence,flow.Sequence,4_61,2023-05-02T17:32:20.308Z,,0,,,4088.271999999997,completion,,,,,false,,,,325992.2999999523,325992,321887.062,321897.89999985695,321903.728,326003.564,8,400,,,
trial,html.Screen,4_62_0,2023-05-02T17:32:25.099Z,,0,2,,4779.435999999987,response,ISIC_1685962.JPG,,ISIC_5573566.JPG,ISIC_5573566.JPG,false,0,keypress(z),500,330783.2999999523,330783,325986.898,325992.39999985695,326003.564,330787.191,8,400,13,,ISIC_1685962.JPG
break,html.Screen,4_62_1,2023-05-02T17:32:25.100Z,,0,,,NaN,,,,,,false,,,,330784.2999999523,330784.09999990463,,330783.59999990463,,330787.191,8,400,,,
break_continue,html.Screen,4_62_2,2023-05-02T17:32:25.101Z,,0,,,NaN,,,,,,false,,,,330784.59999990463,330784.59999990463,,330784.5,,330787.191,8,400,,,
sequence,flow.Sequence,4_62,2023-05-02T17:32:25.101Z,,0,,,4781.0359999046195,completion,,,,,false,,,,330784.7999999523,330784.59999990463,325986.898,325992.39999985695,326003.564,330787.191,8,400,,,
trial,html.Screen,4_63_0,2023-05-02T17:32:28.645Z,,0,2,,3540.8090000000084,response,ISIC_0024701.JPG,,ISIC_6562871.JPG,ISIC_6562871.JPG,false,0,keypress(z),500,334328.39999985695,334328,330770.525,330785,330787.191,334337.049,8,400,14,,ISIC_0024701.JPG
break,html.Screen,4_63_1,2023-05-02T17:32:28.645Z,,0,,,NaN,,,,,,false,,,,334329.2000000477,334329.09999990463,,334328.59999990463,,334337.049,8,400,,,
break_continue,html.Screen,4_63_2,2023-05-02T17:32:28.646Z,,0,,,NaN,,,,,,false,,,,334329.59999990463,334329.59999990463,,334329.39999985695,,334337.049,8,400,,,
sequence,flow.Sequence,4_63,2023-05-02T17:32:28.646Z,,0,,,3542.408999904641,completion,,,,,false,,,,334329.89999985695,334329.59999990463,330770.525,330785,330787.191,334337.049,8,400,,,
trial,html.Screen,4_64_0,2023-05-02T17:32:33.723Z,,0,2,,5069.750999952317,response,ISIC_5067317.JPG,,ISIC_0011209.JPG,ISIC_5067317.JPG,false,1,keypress(m),500,339407.09999990463,339406.7999999523,334320.383,334330,334337.049,339420.51,8,400,15,,ISIC_0011209.JPG
break,html.Screen,4_64_1,2023-05-02T17:32:33.724Z,,0,,,NaN,,,,,,false,,,,339408,339407.7999999523,,339407.39999985695,,339420.51,8,400,,,
break_continue,html.Screen,4_64_2,2023-05-02T17:32:33.725Z,,0,,,NaN,,,,,,false,,,,339408.39999985695,339408.2999999523,,339408.2000000477,,339420.51,8,400,,,
sequence,flow.Sequence,4_64,2023-05-02T17:32:33.725Z,,0,,,5071.250999952317,completion,,,,,false,,,,339408.5,339408.2999999523,334320.383,334329.89999985695,334337.049,339420.51,8,400,,,
trial,html.Screen,4_65_0,2023-05-02T17:32:37.642Z,,0,2,,3904.789999952307,response,ISIC_0011035.JPG,,ISIC_0013844.JPG,ISIC_0011035.JPG,false,1,keypress(m),500,343325.59999990463,343325.2999999523,339403.844,339408.7000000477,339420.51,343337.02,8,400,16,,ISIC_0013844.JPG
break,html.Screen,4_65_1,2023-05-02T17:32:37.643Z,,0,,,NaN,,,,,,false,,,,343326.5,343326.2999999523,,343325.7999999523,,343337.02,8,400,,,
break_continue,html.Screen,4_65_2,2023-05-02T17:32:37.643Z,,0,,,NaN,,,,,,false,,,,343326.89999985695,343326.7999999523,,343326.7000000477,,343337.02,8,400,,,
sequence,flow.Sequence,4_65,2023-05-02T17:32:37.643Z,,0,,,3906.289999952307,completion,,,,,false,,,,343327.09999990463,343326.7999999523,339403.844,339408.59999990463,339420.51,343337.02,8,400,,,
trial,html.Screen,4_66_0,2023-05-02T17:32:41.909Z,,0,2,,4254.87999985693,response,ISIC_0068616.JPG,,ISIC_7973598.JPG,ISIC_7973598.JPG,false,0,keypress(z),500,347592.2999999523,347591.89999985695,343320.354,343327.2000000477,343337.02,347603.516,8,400,17,,ISIC_0068616.JPG
break,html.Screen,4_66_1,2023-05-02T17:32:41.909Z,,0,,,NaN,,,,,,false,,,,347593.2999999523,347593.09999990463,,347592.59999990463,,347603.516,8,400,,,
break_continue,html.Screen,4_66_2,2023-05-02T17:32:41.910Z,,0,,,NaN,,,,,,false,,,,347593.7000000477,347593.5,,347593.39999985695,,347603.516,8,400,,,
sequence,flow.Sequence,4_66,2023-05-02T17:32:41.910Z,,0,,,4256.479999999981,completion,,,,,false,,,,347593.7999999523,347593.5,343320.354,343327.2000000477,343337.02,347603.516,8,400,,,
trial,html.Screen,4_67_0,2023-05-02T17:32:45.187Z,,0,2,,3266.8839998569456,response,ISIC_0046361.JPG,,ISIC_3601224.JPG,ISIC_3601224.JPG,false,0,keypress(z),500,350870.7999999523,350870.39999985695,347586.85,347593.89999985695,347603.516,350887.197,8,400,18,,ISIC_0046361.JPG
break,html.Screen,4_67_1,2023-05-02T17:32:45.188Z,,0,,,NaN,,,,,,false,,,,350871.7999999523,350871.5,,350871.09999990463,,350887.197,8,400,,,
break_continue,html.Screen,4_67_2,2023-05-02T17:32:45.188Z,,0,,,NaN,,,,,,false,,,,350872.09999990463,350872,,350871.89999985695,,350887.197,8,400,,,
sequence,flow.Sequence,4_67,2023-05-02T17:32:45.189Z,,0,,,3268.4839999999967,completion,,,,,false,,,,350872.39999985695,350872,347586.85,347593.89999985695,347603.516,350887.197,8,400,,,
trial,html.Screen,4_68_0,2023-05-02T17:32:48.267Z,,0,2,,3063.6029999523307,response,ISIC_0011375.JPG,,ISIC_2142639.JPG,ISIC_2142639.JPG,false,0,keypress(z),500,353951.09999990463,353950.7999999523,350870.531,350872.5,350887.197,353953.741,8,400,19,,ISIC_0011375.JPG
break,html.Screen,4_68_1,2023-05-02T17:32:48.268Z,,0,,,NaN,,,,,,false,,,,353952.09999990463,353951.89999985695,,353951.5,,353953.741,8,400,,,
break_continue,html.Screen,4_68_2,2023-05-02T17:32:48.269Z,,0,,,NaN,,,,,,false,,,,353952.5,353952.39999985695,,353952.2999999523,,353953.741,8,400,,,
sequence,flow.Sequence,4_68,2023-05-02T17:32:48.269Z,,0,,,3065.2029998569633,completion,,,,,false,,,,353952.7000000477,353952.39999985695,350870.531,350872.39999985695,350887.197,353953.741,8,400,,,
trial,html.Screen,4_69_0,2023-05-02T17:32:51.642Z,,0,2,,3371.5589999523363,response,ISIC_4026540.JPG,,ISIC_0834745.JPG,ISIC_0834745.JPG,false,0,keypress(z),500,357325.59999990463,357325.2999999523,353937.075,353952.89999985695,353953.741,357336.939,8,400,20,,ISIC_4026540.JPG
break,html.Screen,4_69_1,2023-05-02T17:32:51.643Z,,0,,,NaN,,,,,,false,,,,357326.59999990463,357326.2999999523,,357325.89999985695,,357336.939,8,400,,,
break_continue,html.Screen,4_69_2,2023-05-02T17:32:51.643Z,,0,,,NaN,,,,,,false,,,,357327,357326.89999985695,,357326.7000000477,,357336.939,8,400,,,
sequence,flow.Sequence,4_69,2023-05-02T17:32:51.643Z,,0,,,3373.158999856969,completion,,,,,false,,,,357327.09999990463,357326.89999985695,353937.075,353952.7999999523,353953.741,357336.939,8,400,,,
trial,html.Screen,4_70_0,2023-05-02T17:32:54.821Z,,0,2,,3166.960999856936,response,ISIC_7030488.JPG,,ISIC_0076742.JPG,ISIC_7030488.JPG,false,1,keypress(m),500,360504.2999999523,360503.89999985695,357320.273,357327.2999999523,357336.939,360520.528,8,400,21,,ISIC_0076742.JPG
break,html.Screen,4_70_1,2023-05-02T17:32:54.821Z,,0,,,NaN,,,,,,false,,,,360505.2999999523,360505,,360504.59999990463,,360520.528,8,400,,,
break_continue,html.Screen,4_70_2,2023-05-02T17:32:54.822Z,,0,,,NaN,,,,,,false,,,,360505.59999990463,360505.39999985695,,360505.2999999523,,360520.528,8,400,,,
sequence,flow.Sequence,4_70,2023-05-02T17:32:54.822Z,,0,,,3168.460999856936,completion,,,,,false,,,,360505.7999999523,360505.39999985695,357320.273,357327.2999999523,357336.939,360520.528,8,400,,,
trial,html.Screen,4_71_0,2023-05-02T17:32:59.955Z,,0,2,,5117.871999856958,response,ISIC_2991354.JPG,,ISIC_9792592.JPG,ISIC_9792592.JPG,false,0,keypress(z),500,365638.7999999523,365638.39999985695,360503.862,360505.89999985695,360520.528,365653.656,8,400,22,,ISIC_2991354.JPG
break,html.Screen,4_71_1,2023-05-02T17:32:59.956Z,,0,,,NaN,,,,,,false,,,,365639.7000000477,365639.5,,365639.09999990463,,365653.656,8,400,,,
break_continue,html.Screen,4_71_2,2023-05-02T17:32:59.956Z,,0,,,NaN,,,,,,false,,,,365640.09999990463,365640,,365639.89999985695,,365653.656,8,400,,,
sequence,flow.Sequence,4_71,2023-05-02T17:32:59.957Z,,0,,,5119.472000000009,completion,,,,,false,,,,365640.2999999523,365640,360503.862,360505.7999999523,360520.528,365653.656,8,400,,,
trial,html.Screen,4_72_0,2023-05-02T17:33:06.867Z,,0,2,,6896.743999856932,response,ISIC_3747979.JPG,,ISIC_7535412.JPG,ISIC_3747979.JPG,false,1,keypress(m),500,372550.7999999523,372550.39999985695,365636.99,365640.39999985695,365653.656,372553.692,8,400,23,,ISIC_7535412.JPG
break,html.Screen,4_72_1,2023-05-02T17:33:06.868Z,,0,,,NaN,,,,,,false,,,,372551.7999999523,372551.59999990463,,372551.09999990463,,372553.692,8,400,,,
break_continue,html.Screen,4_72_2,2023-05-02T17:33:06.868Z,,0,,,NaN,,,,,,false,,,,372552.09999990463,372552,,372551.89999985695,,372553.692,8,400,,,
sequence,flow.Sequence,4_72,2023-05-02T17:33:06.869Z,,0,,,6898.343999999983,completion,,,,,false,,,,372552.2999999523,372552,365636.99,365640.2999999523,365653.656,372553.692,8,400,,,
trial,html.Screen,4_73_0,2023-05-02T17:33:10.315Z,,0,2,,3445.008000047703,response,ISIC_0059904.JPG,,ISIC_0030481.JPG,ISIC_0030481.JPG,false,0,keypress(z),500,375999.09999990463,375998.7000000477,372537.026,372552.5,372553.692,376003.554,8,400,24,,ISIC_0059904.JPG
break,html.Screen,4_73_1,2023-05-02T17:33:10.316Z,,0,,,NaN,,,,,,false,,,,376000.2000000477,375999.89999985695,,375999.39999985695,,376003.554,8,400,,,
break_continue,html.Screen,4_73_2,2023-05-02T17:33:10.317Z,,0,,,NaN,,,,,,false,,,,376000.5,376000.39999985695,,376000.2000000477,,376003.554,8,400,,,
sequence,flow.Sequence,4_73,2023-05-02T17:33:10.317Z,,0,,,3446.707999856968,completion,,,,,false,,,,376000.7000000477,376000.39999985695,372537.026,372552.39999985695,372553.692,376003.554,8,400,,,
trial,html.Screen,4_74_0,2023-05-02T17:33:16.853Z,,0,2,,6532.445999999996,response,ISIC_3837132.JPG,,ISIC_5216586.JPG,ISIC_3837132.JPG,false,1,keypress(m),500,382536.5,382536,375986.888,376000.7999999523,376003.554,382553.292,8,400,25,,ISIC_5216586.JPG
break,html.Screen,4_74_1,2023-05-02T17:33:16.854Z,,0,,,NaN,,,,,,false,,,,382537.59999990463,382537.2999999523,,382536.7999999523,,382553.292,8,400,,,
break_continue,html.Screen,4_74_2,2023-05-02T17:33:16.854Z,,0,,,NaN,,,,,,false,,,,382537.89999985695,382537.7999999523,,382537.7000000477,,382553.292,8,400,,,
sequence,flow.Sequence,4_74,2023-05-02T17:33:16.854Z,,0,,,6534.245999952313,completion,,,,,false,,,,382538.2000000477,382537.7999999523,375986.888,376000.7000000477,376003.554,382553.292,8,400,,,
trial,html.Screen,4_75_0,2023-05-02T17:33:21.580Z,,0,2,,4709.607999856933,response,ISIC_0006730.JPG,,ISIC_5218530.JPG,ISIC_0006730.JPG,false,1,keypress(m),500,387263.2999999523,387262.89999985695,382536.626,382538.2999999523,382553.292,387270.33,8,400,26,,ISIC_5218530.JPG
break,html.Screen,4_75_1,2023-05-02T17:33:21.581Z,,0,,,NaN,,,,,,false,,,,387264.2999999523,387264.09999990463,,387263.5,,387270.33,8,400,,,
break_continue,html.Screen,4_75_2,2023-05-02T17:33:21.581Z,,0,,,NaN,,,,,,false,,,,387264.59999990463,387264.5,,387264.5,,387270.33,8,400,,,
sequence,flow.Sequence,4_75,2023-05-02T17:33:21.581Z,,0,,,4711.207999999984,completion,,,,,false,,,,387264.89999985695,387264.5,382536.626,382538.2000000477,382553.292,387270.33,8,400,,,
trial,html.Screen,4_76_0,2023-05-02T17:33:24.708Z,,0,2,,3120.5699998569326,response,ISIC_2310935.JPG,,ISIC_2153686.JPG,ISIC_2310935.JPG,false,1,keypress(m),500,390391.2999999523,390390.89999985695,387253.664,387264.89999985695,387270.33,390403.538,8,400,27,,ISIC_2153686.JPG
break,html.Screen,4_76_1,2023-05-02T17:33:24.708Z,,0,,,NaN,,,,,,false,,,,390392.09999990463,390391.89999985695,,390391.5,,390403.538,8,400,,,
break_continue,html.Screen,4_76_2,2023-05-02T17:33:24.709Z,,0,,,NaN,,,,,,false,,,,390392.59999990463,390392.39999985695,,390392.2999999523,,390403.538,8,400,,,
sequence,flow.Sequence,4_76,2023-05-02T17:33:24.709Z,,0,,,3122.0699998569326,completion,,,,,false,,,,390392.7000000477,390392.39999985695,387253.664,387264.89999985695,387270.33,390403.538,8,400,,,
trial,html.Screen,4_77_0,2023-05-02T17:33:30.947Z,,0,2,,6226.861999856948,response,ISIC_0055513.JPG,,ISIC_2849353.JPG,ISIC_0055513.JPG,false,1,keypress(m),500,396630.89999985695,396630.39999985695,390386.872,390393,390403.538,396637.121,8,400,28,,ISIC_2849353.JPG
break,html.Screen,4_77_1,2023-05-02T17:33:30.948Z,,0,,,NaN,,,,,,false,,,,396631.89999985695,396631.7000000477,,396631.2000000477,,396637.121,8,400,,,
break_continue,html.Screen,4_77_2,2023-05-02T17:33:30.949Z,,0,,,NaN,,,,,,false,,,,396632.2000000477,396632.2000000477,,396632.09999990463,,396637.121,8,400,,,
sequence,flow.Sequence,4_77,2023-05-02T17:33:30.949Z,,0,,,6228.662000047683,completion,,,,,false,,,,396632.39999985695,396632.2000000477,390386.872,390392.89999985695,390403.538,396637.121,8,400,,,
trial,html.Screen,4_78_0,2023-05-02T17:33:34.163Z,,0,2,,3209.3790000000154,response,ISIC_7604596.JPG,,ISIC_6606767.JPG,ISIC_6606767.JPG,false,0,keypress(z),500,399846.7999999523,399846.5,396620.455,396632.59999990463,396637.121,399853.659,8,400,29,,ISIC_7604596.JPG
break,html.Screen,4_78_1,2023-05-02T17:33:34.164Z,,0,,,NaN,,,,,,false,,,,399847.7999999523,399847.59999990463,,399847.09999990463,,399853.659,8,400,,,
break_continue,html.Screen,4_78_2,2023-05-02T17:33:34.165Z,,0,,,NaN,,,,,,false,,,,399848.2000000477,399848.09999990463,,399848,,399853.659,8,400,,,
sequence,flow.Sequence,4_78,2023-05-02T17:33:34.165Z,,0,,,3210.978999904648,completion,,,,,false,,,,399848.39999985695,399848.09999990463,396620.455,396632.39999985695,396637.121,399853.659,8,400,,,
trial,html.Screen,4_79_0,2023-05-02T17:33:37.052Z,,0,2,,2881.4409999046475,response,ISIC_0293086.JPG,,ISIC_0031034.JPG,ISIC_0293086.JPG,false,1,keypress(m),500,402735.5,402735.09999990463,399836.993,399848.5,399853.659,402736.877,8,400,30,,ISIC_0031034.JPG
break,html.Screen,4_79_1,2023-05-02T17:33:37.053Z,,0,,,NaN,,,,,,false,,,,402736.39999985695,402736.2999999523,,402735.89999985695,,402736.877,8,400,,,
break_continue,html.Screen,4_79_2,2023-05-02T17:33:37.053Z,,0,,,NaN,,,,,,false,,,,402736.7000000477,402736.59999990463,,402736.5,,402736.877,8,400,,,
sequence,flow.Sequence,4_79,2023-05-02T17:33:37.053Z,,0,,,2882.9409999046475,completion,,,,,false,,,,402736.7999999523,402736.59999990463,399836.993,399848.5,399853.659,402736.877,8,400,,,
trial,html.Screen,4_80_0,2023-05-02T17:33:40.826Z,,0,2,,3772.4229999523377,response,ISIC_6531118.JPG,,ISIC_2440407.JPG,ISIC_6531118.JPG,false,1,keypress(m),500,406509.7000000477,406509.2999999523,402720.211,402736.89999985695,402736.877,406520.059,8,400,31,,ISIC_2440407.JPG
break,html.Screen,4_80_1,2023-05-02T17:33:40.827Z,,0,,,NaN,,,,,,false,,,,406510.7000000477,406510.5,,406510,,406520.059,8,400,,,
break_continue,html.Screen,4_80_2,2023-05-02T17:33:40.827Z,,0,,,NaN,,,,,,false,,,,406511.09999990463,406510.89999985695,,406510.7999999523,,406520.059,8,400,,,
sequence,flow.Sequence,4_80,2023-05-02T17:33:40.828Z,,0,,,3774.0229998569703,completion,,,,,false,,,,406511.2000000477,406510.89999985695,402720.211,402736.89999985695,402736.877,406520.059,8,400,,,
trial,html.Screen,4_81_0,2023-05-02T17:33:43.829Z,,0,2,,2991.9409999999916,response,ISIC_8036175.JPG,,ISIC_0360988.JPG,ISIC_8036175.JPG,false,1,keypress(m),500,409512.39999985695,409512,406503.393,406511.2999999523,406520.059,409520.339,8,400,32,,ISIC_0360988.JPG
break,html.Screen,4_81_1,2023-05-02T17:33:43.830Z,,0,,,NaN,,,,,,false,,,,409513.39999985695,409513.2000000477,,409512.7000000477,,409520.339,8,400,,,
break_continue,html.Screen,4_81_2,2023-05-02T17:33:43.830Z,,0,,,NaN,,,,,,false,,,,409513.7999999523,409513.7000000477,,409513.5,,409520.339,8,400,,,
sequence,flow.Sequence,4_81,2023-05-02T17:33:43.830Z,,0,,,2993.6410000476753,completion,,,,,false,,,,409514,409513.7000000477,406503.393,406511.2999999523,406520.059,409520.339,8,400,,,
trial,html.Screen,4_82_0,2023-05-02T17:33:46.595Z,,0,2,,2758.0609998569707,response,ISIC_2772616.JPG,,ISIC_0064023.JPG,ISIC_2772616.JPG,false,1,keypress(m),500,412278.89999985695,412278.39999985695,409503.673,409514.09999990463,409520.339,412286.895,8,400,33,,ISIC_0064023.JPG
break,html.Screen,4_82_1,2023-05-02T17:33:46.596Z,,0,,,NaN,,,,,,false,,,,412280,412279.59999990463,,412279.2000000477,,412286.895,8,400,,,
break_continue,html.Screen,4_82_2,2023-05-02T17:33:46.597Z,,0,,,NaN,,,,,,false,,,,412280.2999999523,412280.2000000477,,412280.09999990463,,412286.895,8,400,,,
sequence,flow.Sequence,4_82,2023-05-02T17:33:46.597Z,,0,,,2759.8610000477056,completion,,,,,false,,,,412280.5,412280.2000000477,409503.673,409514.09999990463,409520.339,412286.895,8,400,,,
trial,html.Screen,4_83_0,2023-05-02T17:33:49.468Z,,0,2,,2863.9049999522977,response,ISIC_0032913.JPG,,ISIC_4193253.JPG,ISIC_4193253.JPG,false,0,keypress(z),500,415151.2000000477,415150.7999999523,412270.229,412280.7000000477,412286.895,415153.447,8,400,34,,ISIC_0032913.JPG
break,html.Screen,4_83_1,2023-05-02T17:33:49.469Z,,0,,,NaN,,,,,,false,,,,415152.09999990463,415152,,415151.5,,415153.447,8,400,,,
break_continue,html.Screen,4_83_2,2023-05-02T17:33:49.469Z,,0,,,NaN,,,,,,false,,,,415152.5,415152.39999985695,,415152.2999999523,,415153.447,8,400,,,
sequence,flow.Sequence,4_83,2023-05-02T17:33:49.469Z,,0,,,2865.50499985693,completion,,,,,false,,,,415152.7000000477,415152.39999985695,412270.229,412280.59999990463,412286.895,415153.447,8,400,,,
trial,html.Screen,4_84_0,2023-05-02T17:33:54.789Z,,0,2,,5318.553000000014,response,ISIC_0011943.JPG,,ISIC_0000310.JPG,ISIC_0011943.JPG,false,1,keypress(m),500,420472.5,420472,415136.781,415152.7999999523,415153.447,420486.947,8,400,35,,ISIC_0000310.JPG
break,html.Screen,4_84_1,2023-05-02T17:33:54.790Z,,0,,,NaN,,,,,,false,,,,420473.5,420473.2999999523,,420472.7999999523,,420486.947,8,400,,,
break_continue,html.Screen,4_84_2,2023-05-02T17:33:54.790Z,,0,,,NaN,,,,,,false,,,,420473.7999999523,420473.7000000477,,420473.5,,420486.947,8,400,,,
sequence,flow.Sequence,4_84,2023-05-02T17:33:54.790Z,,0,,,5320.253000047698,completion,,,,,false,,,,420474,420473.7000000477,415136.781,415152.7999999523,415153.447,420486.947,8,400,,,
trial,html.Screen,4_85_0,2023-05-02T17:33:58.732Z,,0,2,,3927.8529999523307,response,ISIC_3418245.JPG,,ISIC_2535541.JPG,ISIC_3418245.JPG,false,1,keypress(m),500,424415.2999999523,424414.7999999523,420470.281,420474.09999990463,420486.947,424420.123,8,400,36,,ISIC_2535541.JPG
break,html.Screen,4_85_1,2023-05-02T17:33:58.733Z,,0,,,NaN,,,,,,false,,,,424416.39999985695,424416.09999990463,,424415.7000000477,,424420.123,8,400,,,
break_continue,html.Screen,4_85_2,2023-05-02T17:33:58.733Z,,0,,,NaN,,,,,,false,,,,424416.7000000477,424416.59999990463,,424416.5,,424420.123,8,400,,,
sequence,flow.Sequence,4_85,2023-05-02T17:33:58.733Z,,0,,,3929.652999904647,completion,,,,,false,,,,424416.89999985695,424416.59999990463,420470.281,420474.09999990463,420486.947,424420.123,8,400,,,
trial,html.Screen,4_86_0,2023-05-02T17:34:01.930Z,,0,2,,3193.176999952295,response,ISIC_7565128.JPG,,ISIC_5369000.JPG,ISIC_7565128.JPG,false,1,keypress(m),500,427613.7999999523,427613.2999999523,424403.457,424417,424420.123,427620.361,8,400,37,,ISIC_5369000.JPG
break,html.Screen,4_86_1,2023-05-02T17:34:01.931Z,,0,,,NaN,,,,,,false,,,,427614.7000000477,427614.5,,427614,,427620.361,8,400,,,
break_continue,html.Screen,4_86_2,2023-05-02T17:34:01.932Z,,0,,,NaN,,,,,,false,,,,427615.09999990463,427615,,427614.89999985695,,427620.361,8,400,,,
sequence,flow.Sequence,4_86,2023-05-02T17:34:01.932Z,,0,,,3194.8769999999786,completion,,,,,false,,,,427615.2999999523,427615,424403.457,424417,424420.123,427620.361,8,400,,,
trial,html.Screen,4_87_0,2023-05-02T17:34:05.509Z,,0,2,,3571.6390000000247,response,ISIC_0030694.JPG,,ISIC_0011717.JPG,ISIC_0011717.JPG,false,0,keypress(z),500,431192.5,431192,427603.695,427615.39999985695,427620.361,431203.551,8,400,38,,ISIC_0030694.JPG
break,html.Screen,4_87_1,2023-05-02T17:34:05.510Z,,0,,,NaN,,,,,,false,,,,431193.2999999523,431193.09999990463,,431192.7000000477,,431203.551,8,400,,,
break_continue,html.Screen,4_87_2,2023-05-02T17:34:05.510Z,,0,,,NaN,,,,,,false,,,,431193.7000000477,431193.59999990463,,431193.5,,431203.551,8,400,,,
sequence,flow.Sequence,4_87,2023-05-02T17:34:05.510Z,,0,,,3573.2389999046572,completion,,,,,false,,,,431193.89999985695,431193.59999990463,427603.695,427615.2999999523,427620.361,431203.551,8,400,,,
trial,html.Screen,4_88_0,2023-05-02T17:34:08.947Z,,0,2,,3426.848999856971,response,ISIC_3278303.JPG,,ISIC_0200153.JPG,ISIC_0200153.JPG,false,0,keypress(z),500,434630.89999985695,434630.39999985695,431186.885,431194,431203.551,434636.747,8,400,39,,ISIC_3278303.JPG
break,html.Screen,4_88_1,2023-05-02T17:34:08.948Z,,0,,,NaN,,,,,,false,,,,434631.7999999523,434631.59999990463,,434631.09999990463,,434636.747,8,400,,,
break_continue,html.Screen,4_88_2,2023-05-02T17:34:08.949Z,,0,,,NaN,,,,,,false,,,,434632.2000000477,434632.09999990463,,434631.89999985695,,434636.747,8,400,,,
sequence,flow.Sequence,4_88,2023-05-02T17:34:08.949Z,,0,,,3428.548999904655,completion,,,,,false,,,,434632.2999999523,434632.09999990463,431186.885,431194,431203.551,434636.747,8,400,,,
trial,html.Screen,4_89_0,2023-05-02T17:34:12.435Z,,0,2,,3481.652999856975,response,ISIC_0009048.JPG,,ISIC_0000283.JPG,ISIC_0009048.JPG,false,1,keypress(m),500,438118.7999999523,438118.39999985695,434620.081,434632.39999985695,434636.747,438120.324,8,400,40,,ISIC_0000283.JPG
break,html.Screen,4_89_1,2023-05-02T17:34:12.436Z,,0,,,NaN,,,,,,false,,,,438119.7999999523,438119.59999990463,,438119.09999990463,,438120.324,8,400,,,
break_continue,html.Screen,4_89_2,2023-05-02T17:34:12.437Z,,0,,,NaN,,,,,,false,,,,438120.2000000477,438120.09999990463,,438120,,438120.324,8,400,,,
sequence,flow.Sequence,4_89,2023-05-02T17:34:12.437Z,,0,,,3483.3529999046586,completion,,,,,false,,,,438120.2999999523,438120.09999990463,434620.081,434632.39999985695,434636.747,438120.324,8,400,,,
trial,html.Screen,4_90_0,2023-05-02T17:34:16.659Z,,0,2,,4222.0759998569265,response,ISIC_7586566.JPG,,ISIC_0060585.JPG,ISIC_0060585.JPG,false,0,keypress(z),500,442343,442342.39999985695,438103.658,438120.5,438120.324,442353.488,8,400,41,,ISIC_7586566.JPG
break,html.Screen,4_90_1,2023-05-02T17:34:16.660Z,,0,,,NaN,,,,,,false,,,,442343.89999985695,442343.7999999523,,442343.2999999523,,442353.488,8,400,,,
break_continue,html.Screen,4_90_2,2023-05-02T17:34:16.661Z,,0,,,NaN,,,,,,false,,,,442344.39999985695,442344.2000000477,,442344.09999990463,,442353.488,8,400,,,
sequence,flow.Sequence,4_90,2023-05-02T17:34:16.661Z,,0,,,4223.876000047661,completion,,,,,false,,,,442344.5,442344.2000000477,438103.658,438120.39999985695,438120.324,442353.488,8,400,,,
trial,html.Screen,4_91_0,2023-05-02T17:34:20.227Z,,0,2,,3556.9119998569367,response,ISIC_0025231.JPG,,ISIC_7545432.JPG,ISIC_7545432.JPG,false,0,keypress(z),500,445910.89999985695,445910.39999985695,442336.822,442344.7000000477,442353.488,445920.012,8,400,42,,ISIC_0025231.JPG
break,html.Screen,4_91_1,2023-05-02T17:34:20.228Z,,0,,,NaN,,,,,,false,,,,445911.89999985695,445911.59999990463,,445911.2000000477,,445920.012,8,400,,,
break_continue,html.Screen,4_91_2,2023-05-02T17:34:20.229Z,,0,,,NaN,,,,,,false,,,,445912.2999999523,445912,,445911.89999985695,,445920.012,8,400,,,
sequence,flow.Sequence,4_91,2023-05-02T17:34:20.229Z,,0,,,3558.511999999988,completion,,,,,false,,,,445912.39999985695,445912,442336.822,442344.59999990463,442353.488,445920.012,8,400,,,
trial,html.Screen,4_92_0,2023-05-02T17:34:23.084Z,,0,2,,2846.7879999523284,response,ISIC_5754023.JPG,,ISIC_1552232.JPG,ISIC_5754023.JPG,false,1,keypress(m),500,448767.2000000477,448766.7999999523,445903.346,445912.59999990463,445920.012,448770.321,8,400,43,,ISIC_1552232.JPG
break,html.Screen,4_92_1,2023-05-02T17:34:23.085Z,,0,,,NaN,,,,,,false,,,,448768.2000000477,448767.89999985695,,448767.5,,448770.321,8,400,,,
break_continue,html.Screen,4_92_2,2023-05-02T17:34:23.085Z,,0,,,NaN,,,,,,false,,,,448768.5,448768.39999985695,,448768.2999999523,,448770.321,8,400,,,
sequence,flow.Sequence,4_92,2023-05-02T17:34:23.085Z,,0,,,2848.387999856961,completion,,,,,false,,,,448768.7000000477,448768.39999985695,445903.346,445912.39999985695,445920.012,448770.321,8,400,,,
trial,html.Screen,4_93_0,2023-05-02T17:34:26.315Z,,0,2,,3228.0789998569526,response,ISIC_5048571.JPG,,ISIC_1072321.JPG,ISIC_1072321.JPG,false,0,keypress(z),500,451998.7000000477,451998.39999985695,448753.655,448768.7999999523,448770.321,452003.525,8,400,44,,ISIC_5048571.JPG
break,html.Screen,4_93_1,2023-05-02T17:34:26.316Z,,0,,,NaN,,,,,,false,,,,451999.7999999523,451999.5,,451999,,452003.525,8,400,,,
break_continue,html.Screen,4_93_2,2023-05-02T17:34:26.317Z,,0,,,NaN,,,,,,false,,,,452000,452000,,451999.89999985695,,452003.525,8,400,,,
sequence,flow.Sequence,4_93,2023-05-02T17:34:26.317Z,,0,,,3229.6790000000037,completion,,,,,false,,,,452000.2999999523,452000,448753.655,448768.7999999523,448770.321,452003.525,8,400,,,
trial,html.Screen,4_94_0,2023-05-02T17:34:29.066Z,,0,2,,2745.6750000476604,response,ISIC_0024739.JPG,,ISIC_8127394.JPG,ISIC_8127394.JPG,false,0,keypress(z),500,454749.59999990463,454749.2000000477,451986.859,452000.39999985695,452003.525,454753.415,8,400,45,,ISIC_0024739.JPG
break,html.Screen,4_94_1,2023-05-02T17:34:29.067Z,,0,,,NaN,,,,,,false,,,,454750.59999990463,454750.39999985695,,454749.89999985695,,454753.415,8,400,,,
break_continue,html.Screen,4_94_2,2023-05-02T17:34:29.067Z,,0,,,NaN,,,,,,false,,,,454751,454750.89999985695,,454750.7999999523,,454753.415,8,400,,,
sequence,flow.Sequence,4_94,2023-05-02T17:34:29.068Z,,0,,,2747.3749998569256,completion,,,,,false,,,,454751.09999990463,454750.89999985695,451986.859,452000.39999985695,452003.525,454753.415,8,400,,,
trial,html.Screen,4_95_0,2023-05-02T17:34:31.781Z,,0,2,,2710.48499985697,response,ISIC_3365692.JPG,,ISIC_8990907.JPG,ISIC_3365692.JPG,false,1,keypress(m),500,457464.2000000477,457463.89999985695,454736.749,454751.2999999523,454753.415,457469.973,8,400,46,,ISIC_8990907.JPG
break,html.Screen,4_95_1,2023-05-02T17:34:31.782Z,,0,,,NaN,,,,,,false,,,,457465.2999999523,457465.09999990463,,457464.59999990463,,457469.973,8,400,,,
break_continue,html.Screen,4_95_2,2023-05-02T17:34:31.782Z,,0,,,NaN,,,,,,false,,,,457465.59999990463,457465.5,,457465.39999985695,,457469.973,8,400,,,
sequence,flow.Sequence,4_95,2023-05-02T17:34:31.782Z,,0,,,2712.085000000021,completion,,,,,false,,,,457465.7999999523,457465.5,454736.749,454751.2999999523,454753.415,457469.973,8,400,,,
trial,html.Screen,4_96_0,2023-05-02T17:34:34.700Z,,0,2,,2912.826999952318,response,ISIC_1234463.JPG,,ISIC_7539727.JPG,ISIC_1234463.JPG,false,1,keypress(m),500,460383.09999990463,460382.7999999523,457453.307,457466,457469.973,460386.901,8,400,47,,ISIC_7539727.JPG
break,html.Screen,4_96_1,2023-05-02T17:34:34.701Z,,0,,,NaN,,,,,,false,,,,460384.2000000477,460384,,460383.39999985695,,460386.901,8,400,,,
break_continue,html.Screen,4_96_2,2023-05-02T17:34:34.701Z,,0,,,NaN,,,,,,false,,,,460384.5,460384.39999985695,,460384.2999999523,,460386.901,8,400,,,
sequence,flow.Sequence,4_96,2023-05-02T17:34:34.701Z,,0,,,2914.4269998569507,completion,,,,,false,,,,460384.7000000477,460384.39999985695,457453.307,457465.89999985695,457469.973,460386.901,8,400,,,
trial,html.Screen,4_97_0,2023-05-02T17:34:37.589Z,,0,2,,2884.9989998569363,response,ISIC_0062869.JPG,,ISIC_8646115.JPG,ISIC_8646115.JPG,false,0,keypress(z),500,463272.2999999523,463271.89999985695,460370.235,460384.7999999523,460386.901,463286.785,8,400,48,,ISIC_0062869.JPG
break,html.Screen,4_97_1,2023-05-02T17:34:37.590Z,,0,,,NaN,,,,,,false,,,,463273.2999999523,463273.09999990463,,463272.59999990463,,463286.785,8,400,,,
break_continue,html.Screen,4_97_2,2023-05-02T17:34:37.590Z,,0,,,NaN,,,,,,false,,,,463273.7000000477,463273.59999990463,,463273.39999985695,,463286.785,8,400,,,
sequence,flow.Sequence,4_97,2023-05-02T17:34:37.590Z,,0,,,2886.69899990462,completion,,,,,false,,,,463273.89999985695,463273.59999990463,460370.235,460384.7999999523,460386.901,463286.785,8,400,,,
trial,html.Screen,4_98_0,2023-05-02T17:34:40.300Z,,0,2,,2696.014999952342,response,ISIC_0061751.JPG,,ISIC_9879693.JPG,ISIC_9879693.JPG,false,0,keypress(z),500,465983.2000000477,465982.7999999523,463270.119,463274,463286.785,465986.677,8,400,49,,ISIC_0061751.JPG
break,html.Screen,4_98_1,2023-05-02T17:34:40.301Z,,0,,,NaN,,,,,,false,,,,465984.2000000477,465983.89999985695,,465983.39999985695,,465986.677,8,400,,,
break_continue,html.Screen,4_98_2,2023-05-02T17:34:40.301Z,,0,,,NaN,,,,,,false,,,,465984.59999990463,465984.39999985695,,465984.2999999523,,465986.677,8,400,,,
sequence,flow.Sequence,4_98,2023-05-02T17:34:40.301Z,,0,,,2697.6149998569745,completion,,,,,false,,,,465984.7000000477,465984.39999985695,463270.119,463273.89999985695,463286.785,465986.677,8,400,,,
trial,html.Screen,4_99_0,2023-05-02T17:34:43.429Z,,0,2,,3125.4229999046074,response,ISIC_7837503.JPG,,ISIC_9859495.JPG,ISIC_9859495.JPG,false,0,keypress(z),500,469112.5,469112.09999990463,465970.011,465984.89999985695,465986.677,469120.259,8,400,50,,ISIC_7837503.JPG
break,html.Screen,4_99_1,2023-05-02T17:34:48.424Z,,0,,,4999.799999999988,timeout,,,,,false,,,,474107.59999990463,474103.393,469103.593,469112.7999999523,469120.259,474120.059,8,400,,,
break_continue,html.Screen,4_99_2,2023-05-02T17:34:50.267Z,,0,,,1815.5409999046242,response,,,,,false,continue,keypress(Space),,475950.39999985695,475935.59999990463,474103.393,474107.7999999523,474120.059,475953.319,8,400,,,
sequence,flow.Sequence,4_99,2023-05-02T17:34:50.267Z,,0,,,9948.922999904607,completion,,,,,false,,,,475950.59999990463,475935.59999990463,465970.011,465984.7999999523,465986.677,475953.319,8,400,,,
trial,html.Screen,4_100_0,2023-05-02T17:34:53.525Z,,0,3,,3254.580999856931,response,ISIC_5468164.JPG,,ISIC_0073135.JPG,ISIC_5468164.JPG,false,1,keypress(m),500,479208.39999985695,479207.89999985695,475936.653,475950.7000000477,475953.319,479220.229,8,400,1,,ISIC_0073135.JPG
break,html.Screen,4_100_1,2023-05-02T17:34:53.526Z,,0,,,NaN,,,,,,false,,,,479209.39999985695,479209.09999990463,,479208.7000000477,,479220.229,8,400,,,
break_continue,html.Screen,4_100_2,2023-05-02T17:34:53.526Z,,0,,,NaN,,,,,,false,,,,479209.89999985695,479209.7000000477,,479209.59999990463,,479220.229,8,400,,,
sequence,flow.Sequence,4_100,2023-05-02T17:34:53.527Z,,0,,,3256.381000047666,completion,,,,,false,,,,479210,479209.7000000477,475936.653,475950.7000000477,475953.319,479220.229,8,400,,,
trial,html.Screen,4_101_0,2023-05-02T17:34:56.435Z,,0,3,,2898.1709998569568,response,ISIC_0519719.JPG,,ISIC_3545622.JPG,ISIC_3545622.JPG,false,0,keypress(z),500,482118.7999999523,482118.39999985695,479203.563,479210.09999990463,479220.229,482120.113,8,400,2,,ISIC_0519719.JPG
break,html.Screen,4_101_1,2023-05-02T17:34:56.436Z,,0,,,NaN,,,,,,false,,,,482119.7999999523,482119.5,,482119.09999990463,,482120.113,8,400,,,
break_continue,html.Screen,4_101_2,2023-05-02T17:34:56.437Z,,0,,,NaN,,,,,,false,,,,482120.2000000477,482120.09999990463,,482120,,482120.113,8,400,,,
sequence,flow.Sequence,4_101,2023-05-02T17:34:56.437Z,,0,,,2899.8709999046405,completion,,,,,false,,,,482120.2999999523,482120.09999990463,479203.563,479210.09999990463,479220.229,482120.113,8,400,,,
trial,html.Screen,4_102_0,2023-05-02T17:34:59.660Z,,0,3,,3222.686999952304,response,ISIC_0024401.JPG,,ISIC_7693611.JPG,ISIC_7693611.JPG,false,0,keypress(z),500,485343.2000000477,485342.7999999523,482103.447,482120.5,482120.113,485353.317,8,400,3,,ISIC_0024401.JPG
break,html.Screen,4_102_1,2023-05-02T17:34:59.661Z,,0,,,NaN,,,,,,false,,,,485344.09999990463,485343.89999985695,,485343.39999985695,,485353.317,8,400,,,
break_continue,html.Screen,4_102_2,2023-05-02T17:34:59.661Z,,0,,,NaN,,,,,,false,,,,485344.5,485344.2999999523,,485344.2999999523,,485353.317,8,400,,,
sequence,flow.Sequence,4_102,2023-05-02T17:34:59.661Z,,0,,,3224.186999952304,completion,,,,,false,,,,485344.59999990463,485344.2999999523,482103.447,482120.5,482120.113,485353.317,8,400,,,
trial,html.Screen,4_103_0,2023-05-02T17:35:03.306Z,,0,3,,3635.883000047703,response,ISIC_1426331.JPG,,ISIC_6478506.JPG,ISIC_1426331.JPG,false,1,keypress(m),500,488989.59999990463,488989.2000000477,485336.651,485344.7999999523,485353.317,489003.171,8,400,4,,ISIC_6478506.JPG
break,html.Screen,4_103_1,2023-05-02T17:35:03.307Z,,0,,,NaN,,,,,,false,,,,488990.5,488990.2999999523,,488989.89999985695,,489003.171,8,400,,,
break_continue,html.Screen,4_103_2,2023-05-02T17:35:03.307Z,,0,,,NaN,,,,,,false,,,,488990.89999985695,488990.7999999523,,488990.59999990463,,489003.171,8,400,,,
sequence,flow.Sequence,4_103,2023-05-02T17:35:03.308Z,,0,,,3637.4829999523354,completion,,,,,false,,,,488991,488990.7999999523,485336.651,485344.7000000477,485353.317,489003.171,8,400,,,
trial,html.Screen,4_104_0,2023-05-02T17:35:07.877Z,,0,3,,4556.728999856976,response,ISIC_7131359.JPG,,ISIC_8316125.JPG,ISIC_8316125.JPG,false,0,keypress(z),500,493560.2999999523,493559.89999985695,488986.505,488991.2000000477,489003.171,493570.07,8,400,5,,ISIC_7131359.JPG
break,html.Screen,4_104_1,2023-05-02T17:35:07.878Z,,0,,,NaN,,,,,,false,,,,493561.2000000477,493561,,493560.59999990463,,493570.07,8,400,,,
break_continue,html.Screen,4_104_2,2023-05-02T17:35:07.878Z,,0,,,NaN,,,,,,false,,,,493561.5,493561.39999985695,,493561.2999999523,,493570.07,8,400,,,
sequence,flow.Sequence,4_104,2023-05-02T17:35:07.878Z,,0,,,4558.228999856976,completion,,,,,false,,,,493561.7000000477,493561.39999985695,488986.505,488991.2000000477,489003.171,493570.07,8,400,,,
trial,html.Screen,4_105_0,2023-05-02T17:35:10.780Z,,0,3,,2892.7299999523093,response,ISIC_0059786.JPG,,ISIC_0027492.JPG,ISIC_0027492.JPG,false,0,keypress(z),500,496463.2000000477,496462.7999999523,493553.404,493561.89999985695,493570.07,496469.954,8,400,6,,ISIC_0059786.JPG
break,html.Screen,4_105_1,2023-05-02T17:35:10.781Z,,0,,,NaN,,,,,,false,,,,496464,496463.7999999523,,496463.39999985695,,496469.954,8,400,,,
break_continue,html.Screen,4_105_2,2023-05-02T17:35:10.781Z,,0,,,NaN,,,,,,false,,,,496464.5,496464.2999999523,,496464.2000000477,,496469.954,8,400,,,
sequence,flow.Sequence,4_105,2023-05-02T17:35:10.781Z,,0,,,2894.2299999523093,completion,,,,,false,,,,496464.59999990463,496464.2999999523,493553.404,493561.7999999523,493570.07,496469.954,8,400,,,
trial,html.Screen,4_106_0,2023-05-02T17:35:13.642Z,,0,3,,2855.2460000476567,response,ISIC_5736292.JPG,,ISIC_3959570.JPG,ISIC_3959570.JPG,false,0,keypress(z),500,499325.59999990463,499325.2000000477,496453.288,496464.7000000477,496469.954,499336.506,8,400,7,,ISIC_5736292.JPG
break,html.Screen,4_106_1,2023-05-02T17:35:13.643Z,,0,,,NaN,,,,,,false,,,,499326.5,499326.2999999523,,499325.89999985695,,499336.506,8,400,,,
break_continue,html.Screen,4_106_2,2023-05-02T17:35:13.643Z,,0,,,NaN,,,,,,false,,,,499326.7999999523,499326.7000000477,,499326.59999990463,,499336.506,8,400,,,
sequence,flow.Sequence,4_106,2023-05-02T17:35:13.644Z,,0,,,2856.7460000476567,completion,,,,,false,,,,499327,499326.7000000477,496453.288,496464.59999990463,496469.954,499336.506,8,400,,,
trial,html.Screen,4_107_0,2023-05-02T17:35:16.469Z,,0,3,,2815.2939999523223,response,ISIC_0071434.JPG,,ISIC_0033621.JPG,ISIC_0033621.JPG,false,0,keypress(z),500,502152.2000000477,502151.7999999523,499319.84,499327.09999990463,499336.506,502153.448,8,400,8,,ISIC_0071434.JPG
break,html.Screen,4_107_1,2023-05-02T17:35:16.470Z,,0,,,NaN,,,,,,false,,,,502153.09999990463,502152.7999999523,,502152.5,,502153.448,8,400,,,
break_continue,html.Screen,4_107_2,2023-05-02T17:35:16.470Z,,0,,,NaN,,,,,,false,,,,502153.5,502153.2999999523,,502153.2000000477,,502153.448,8,400,,,
sequence,flow.Sequence,4_107,2023-05-02T17:35:16.470Z,,0,,,2816.7939999523223,completion,,,,,false,,,,502153.59999990463,502153.2999999523,499319.84,499327,499336.506,502153.448,8,400,,,
trial,html.Screen,4_108_0,2023-05-02T17:35:19.308Z,,0,3,,2837.3519999523414,response,ISIC_0015166.JPG,,ISIC_8023705.JPG,ISIC_8023705.JPG,false,0,keypress(z),500,504991.2000000477,504990.7999999523,502136.782,502153.7000000477,502153.448,505003.334,8,400,9,,ISIC_0015166.JPG
break,html.Screen,4_108_1,2023-05-02T17:35:19.309Z,,0,,,NaN,,,,,,false,,,,504992.09999990463,504991.89999985695,,504991.5,,505003.334,8,400,,,
break_continue,html.Screen,4_108_2,2023-05-02T17:35:19.309Z,,0,,,NaN,,,,,,false,,,,504992.39999985695,504992.2999999523,,504992.2000000477,,505003.334,8,400,,,
sequence,flow.Sequence,4_108,2023-05-02T17:35:19.309Z,,0,,,2838.8519999523414,completion,,,,,false,,,,504992.59999990463,504992.2999999523,502136.782,502153.7000000477,502153.448,505003.334,8,400,,,
trial,html.Screen,4_109_0,2023-05-02T17:35:22.810Z,,0,3,,3489.965999952343,response,ISIC_3779093.JPG,,ISIC_1883330.JPG,ISIC_3779093.JPG,false,1,keypress(m),500,508493.7000000477,508493.2999999523,504986.668,504992.7999999523,505003.334,508503.194,8,400,10,,ISIC_1883330.JPG
break,html.Screen,4_109_1,2023-05-02T17:35:22.811Z,,0,,,NaN,,,,,,false,,,,508494.59999990463,508494.2999999523,,508493.89999985695,,508503.194,8,400,,,
break_continue,html.Screen,4_109_2,2023-05-02T17:35:22.812Z,,0,,,NaN,,,,,,false,,,,508494.89999985695,508494.7999999523,,508494.59999990463,,508503.194,8,400,,,
sequence,flow.Sequence,4_109,2023-05-02T17:35:22.812Z,,0,,,3491.465999952343,completion,,,,,false,,,,508495.09999990463,508494.7999999523,504986.668,504992.7000000477,505003.334,508503.194,8,400,,,
trial,html.Screen,4_110_0,2023-05-02T17:35:25.941Z,,0,3,,3120.705999856931,response,ISIC_9047184.JPG,,ISIC_0031184.JPG,ISIC_9047184.JPG,false,1,keypress(m),500,511624.2999999523,511623.89999985695,508486.528,508495.2000000477,508503.194,511636.764,8,400,11,,ISIC_0031184.JPG
break,html.Screen,4_110_1,2023-05-02T17:35:25.942Z,,0,,,NaN,,,,,,false,,,,511625.2000000477,511624.89999985695,,511624.59999990463,,511636.764,8,400,,,
break_continue,html.Screen,4_110_2,2023-05-02T17:35:25.942Z,,0,,,NaN,,,,,,false,,,,511625.59999990463,511625.39999985695,,511625.2999999523,,511636.764,8,400,,,
sequence,flow.Sequence,4_110,2023-05-02T17:35:25.942Z,,0,,,3122.205999856931,completion,,,,,false,,,,511625.7000000477,511625.39999985695,508486.528,508495.2000000477,508503.194,511636.764,8,400,,,
trial,html.Screen,4_111_0,2023-05-02T17:35:28.908Z,,0,3,,2954.0359999522916,response,ISIC_3893354.JPG,,ISIC_0062980.JPG,ISIC_3893354.JPG,false,1,keypress(m),500,514591.09999990463,514590.7999999523,511620.098,511625.89999985695,511636.764,514603.312,8,400,12,,ISIC_0062980.JPG
break,html.Screen,4_111_1,2023-05-02T17:35:28.909Z,,0,,,NaN,,,,,,false,,,,514592.09999990463,514591.89999985695,,514591.39999985695,,514603.312,8,400,,,
break_continue,html.Screen,4_111_2,2023-05-02T17:35:28.909Z,,0,,,NaN,,,,,,false,,,,514592.5,514592.2999999523,,514592.2000000477,,514603.312,8,400,,,
sequence,flow.Sequence,4_111,2023-05-02T17:35:28.909Z,,0,,,2955.5359999522916,completion,,,,,false,,,,514592.7000000477,514592.2999999523,511620.098,511625.7999999523,511636.764,514603.312,8,400,,,
trial,html.Screen,4_112_0,2023-05-02T17:35:31.845Z,,0,3,,2924.5879998569726,response,ISIC_4938791.JPG,,ISIC_0066882.JPG,ISIC_4938791.JPG,false,1,keypress(m),500,517528.2999999523,517527.89999985695,514586.646,514592.7999999523,514603.312,517536.528,8,400,13,,ISIC_0066882.JPG
break,html.Screen,4_112_1,2023-05-02T17:35:31.846Z,,0,,,NaN,,,,,,false,,,,517529.2000000477,517529,,517528.59999990463,,517536.528,8,400,,,
break_continue,html.Screen,4_112_2,2023-05-02T17:35:31.846Z,,0,,,NaN,,,,,,false,,,,517529.5,517529.5,,517529.2999999523,,517536.528,8,400,,,
sequence,flow.Sequence,4_112,2023-05-02T17:35:31.846Z,,0,,,2926.1880000000237,completion,,,,,false,,,,517529.7000000477,517529.5,514586.646,514592.7000000477,514603.312,517536.528,8,400,,,
trial,html.Screen,4_113_0,2023-05-02T17:35:35.411Z,,0,3,,3557.8719998569577,response,ISIC_0064463.JPG,,ISIC_0028543.JPG,ISIC_0064463.JPG,false,1,keypress(m),500,521094.7999999523,521094.39999985695,517519.862,517529.89999985695,517536.528,521103.446,8,400,14,,ISIC_0028543.JPG
break,html.Screen,4_113_1,2023-05-02T17:35:35.412Z,,0,,,NaN,,,,,,false,,,,521095.7000000477,521095.5,,521095.09999990463,,521103.446,8,400,,,
break_continue,html.Screen,4_113_2,2023-05-02T17:35:35.413Z,,0,,,NaN,,,,,,false,,,,521096.09999990463,521095.89999985695,,521095.7999999523,,521103.446,8,400,,,
sequence,flow.Sequence,4_113,2023-05-02T17:35:35.413Z,,0,,,3559.3719998569577,completion,,,,,false,,,,521096.2000000477,521095.89999985695,517519.862,517529.7999999523,517536.528,521103.446,8,400,,,
trial,html.Screen,4_114_0,2023-05-02T17:35:38.140Z,,0,3,,2719.35399995232,response,ISIC_0027187.JPG,,ISIC_0063053.JPG,ISIC_0063053.JPG,false,0,keypress(z),500,523823.2000000477,523822.7999999523,521086.78,521096.39999985695,521103.446,523836.67,8,400,15,,ISIC_0027187.JPG
break,html.Screen,4_114_1,2023-05-02T17:35:38.141Z,,0,,,NaN,,,,,,false,,,,523824.09999990463,523823.89999985695,,523823.5,,523836.67,8,400,,,
break_continue,html.Screen,4_114_2,2023-05-02T17:35:38.141Z,,0,,,NaN,,,,,,false,,,,523824.5,523824.2999999523,,523824.2999999523,,523836.67,8,400,,,
sequence,flow.Sequence,4_114,2023-05-02T17:35:38.141Z,,0,,,2720.85399995232,completion,,,,,false,,,,523824.7000000477,523824.2999999523,521086.78,521096.2999999523,521103.446,523836.67,8,400,,,
trial,html.Screen,4_115_0,2023-05-02T17:35:41.754Z,,0,3,,3600.6299999523326,response,ISIC_2532544.JPG,,ISIC_0027109.JPG,ISIC_2532544.JPG,false,1,keypress(m),500,527437.5999999046,527437.2999999523,523820.004,523824.7999999523,523836.67,527453.192,8,400,16,,ISIC_0027109.JPG
break,html.Screen,4_115_1,2023-05-02T17:35:41.755Z,,0,,,NaN,,,,,,false,,,,527438.5999999046,527438.2999999523,,527437.899999857,,527453.192,8,400,,,
break_continue,html.Screen,4_115_2,2023-05-02T17:35:41.756Z,,0,,,NaN,,,,,,false,,,,527438.899999857,527438.7999999523,,527438.7000000477,,527453.192,8,400,,,
sequence,flow.Sequence,4_115,2023-05-02T17:35:41.756Z,,0,,,3602.1299999523326,completion,,,,,false,,,,527439.0999999046,527438.7999999523,523820.004,523824.7999999523,523836.67,527453.192,8,400,,,
trial,html.Screen,4_116_0,2023-05-02T17:35:44.677Z,,0,3,,2906.7079998569097,response,ISIC_2151178.JPG,,ISIC_0028031.JPG,ISIC_2151178.JPG,false,1,keypress(m),500,530360.2999999523,530359.899999857,527436.526,527439.2000000477,527453.192,530369.742,8,400,17,,ISIC_0028031.JPG
break,html.Screen,4_116_1,2023-05-02T17:35:44.678Z,,0,,,NaN,,,,,,false,,,,530361.2000000477,530361.0999999046,,530360.5999999046,,530369.742,8,400,,,
break_continue,html.Screen,4_116_2,2023-05-02T17:35:44.678Z,,0,,,NaN,,,,,,false,,,,530361.5999999046,530361.5,,530361.399999857,,530369.742,8,400,,,
sequence,flow.Sequence,4_116,2023-05-02T17:35:44.679Z,,0,,,2908.307999999961,completion,,,,,false,,,,530361.7999999523,530361.5,527436.526,527439.2000000477,527453.192,530369.742,8,400,,,
trial,html.Screen,4_117_0,2023-05-02T17:35:49.476Z,,0,3,,4788.65799985698,response,ISIC_8929288.JPG,,ISIC_0005304.JPG,ISIC_0005304.JPG,false,0,keypress(z),500,535158.899999857,535158.399999857,530353.076,530361.899999857,530369.742,535169.976,8,400,18,,ISIC_8929288.JPG
break,html.Screen,4_117_1,2023-05-02T17:35:49.477Z,,0,,,NaN,,,,,,false,,,,535159.7999999523,535159.5999999046,,535159.0999999046,,535169.976,8,400,,,
break_continue,html.Screen,4_117_2,2023-05-02T17:35:49.477Z,,0,,,NaN,,,,,,false,,,,535160.2000000477,535160,,535159.899999857,,535169.976,8,400,,,
sequence,flow.Sequence,4_117,2023-05-02T17:35:49.477Z,,0,,,4790.258000000031,completion,,,,,false,,,,535160.399999857,535160,530353.076,530361.899999857,530369.742,535169.976,8,400,,,
trial,html.Screen,4_118_0,2023-05-02T17:35:52.524Z,,0,3,,3036.823999952292,response,ISIC_0024779.JPG,,ISIC_8785329.JPG,ISIC_0024779.JPG,false,1,keypress(m),500,538207.2000000477,538206.7999999523,535153.31,535160.5,535169.976,538219.854,8,400,19,,ISIC_8785329.JPG
break,html.Screen,4_118_1,2023-05-02T17:35:52.525Z,,0,,,NaN,,,,,,false,,,,538208.0999999046,538207.899999857,,538207.5,,538219.854,8,400,,,
break_continue,html.Screen,4_118_2,2023-05-02T17:35:52.525Z,,0,,,NaN,,,,,,false,,,,538208.5,538208.2999999523,,538208.2999999523,,538219.854,8,400,,,
sequence,flow.Sequence,4_118,2023-05-02T17:35:52.525Z,,0,,,3038.323999952292,completion,,,,,false,,,,538208.5999999046,538208.2999999523,535153.31,535160.5,535169.976,538219.854,8,400,,,
trial,html.Screen,4_119_0,2023-05-02T17:35:56.901Z,,0,3,,4364.045999856899,response,ISIC_0063180.JPG,,ISIC_3346045.JPG,ISIC_0063180.JPG,false,1,keypress(m),500,542584.2999999523,542583.899999857,538203.188,538208.7999999523,538219.854,542586.695,8,400,20,,ISIC_3346045.JPG
break,html.Screen,4_119_1,2023-05-02T17:35:56.902Z,,0,,,NaN,,,,,,false,,,,542585.399999857,542585.0999999046,,542584.5999999046,,542586.695,8,400,,,
break_continue,html.Screen,4_119_2,2023-05-02T17:35:56.903Z,,0,,,NaN,,,,,,false,,,,542585.7999999523,542585.7000000477,,542585.5,,542586.695,8,400,,,
sequence,flow.Sequence,4_119,2023-05-02T17:35:56.903Z,,0,,,4365.846000047633,completion,,,,,false,,,,542586,542585.7000000477,538203.188,538208.7000000477,538219.854,542586.695,8,400,,,
trial,html.Screen,4_120_0,2023-05-02T17:36:00.116Z,,0,3,,3211.704999857,response,ISIC_0033668.JPG,,ISIC_0070852.JPG,ISIC_0070852.JPG,false,0,keypress(z),500,545798.899999857,545798.399999857,542570.029,542586.0999999046,542586.695,545803.233,8,400,21,,ISIC_0033668.JPG
break,html.Screen,4_120_1,2023-05-02T17:36:00.117Z,,0,,,NaN,,,,,,false,,,,545799.7000000477,545799.5999999046,,545799.0999999046,,545803.233,8,400,,,
break_continue,html.Screen,4_120_2,2023-05-02T17:36:00.117Z,,0,,,NaN,,,,,,false,,,,545800.2000000477,545800,,545799.899999857,,545803.233,8,400,,,
sequence,flow.Sequence,4_120,2023-05-02T17:36:00.117Z,,0,,,3213.305000000051,completion,,,,,false,,,,545800.2999999523,545800,542570.029,542586,542586.695,545803.233,8,400,,,
trial,html.Screen,4_121_0,2023-05-02T17:36:02.988Z,,0,3,,2867.566999952309,response,ISIC_6937199.JPG,,ISIC_8409262.JPG,ISIC_6937199.JPG,false,1,keypress(m),500,548671.2000000477,548670.7999999523,545786.567,545800.5,545803.233,548686.451,8,400,22,,ISIC_8409262.JPG
break,html.Screen,4_121_1,2023-05-02T17:36:02.989Z,,0,,,NaN,,,,,,false,,,,548672,548671.7999999523,,548671.399999857,,548686.451,8,400,,,
break_continue,html.Screen,4_121_2,2023-05-02T17:36:02.989Z,,0,,,NaN,,,,,,false,,,,548672.399999857,548672.2999999523,,548672.2000000477,,548686.451,8,400,,,
sequence,flow.Sequence,4_121,2023-05-02T17:36:02.989Z,,0,,,2869.066999952309,completion,,,,,false,,,,548672.5999999046,548672.2999999523,545786.567,545800.399999857,545803.233,548686.451,8,400,,,
trial,html.Screen,4_122_0,2023-05-02T17:36:05.733Z,,0,3,,2729.548999999999,response,ISIC_0028129.JPG,,ISIC_3717983.JPG,ISIC_3717983.JPG,false,0,keypress(z),500,551416.399999857,551416,548669.785,548672.7999999523,548686.451,551419.675,8,400,23,,ISIC_0028129.JPG
break,html.Screen,4_122_1,2023-05-02T17:36:05.734Z,,0,,,NaN,,,,,,false,,,,551417.5,551417.2999999523,,551416.7999999523,,551419.675,8,400,,,
break_continue,html.Screen,4_122_2,2023-05-02T17:36:05.735Z,,0,,,NaN,,,,,,false,,,,551417.899999857,551417.7000000477,,551417.5999999046,,551419.675,8,400,,,
sequence,flow.Sequence,4_122,2023-05-02T17:36:05.735Z,,0,,,2731.249000047683,completion,,,,,false,,,,551418,551417.7000000477,548669.785,548672.7000000477,548686.451,551419.675,8,400,,,
trial,html.Screen,4_123_0,2023-05-02T17:36:08.668Z,,0,3,,2931.2249998569023,response,ISIC_0030002.JPG,,ISIC_5568834.JPG,ISIC_5568834.JPG,false,0,keypress(z),500,554351.2999999523,554350.899999857,551403.009,551418.0999999046,551419.675,554353.335,8,400,24,,ISIC_0030002.JPG
break,html.Screen,4_123_1,2023-05-02T17:36:08.669Z,,0,,,NaN,,,,,,false,,,,554352.5,554352.2000000477,,554351.5999999046,,554353.335,8,400,,,
break_continue,html.Screen,4_123_2,2023-05-02T17:36:08.670Z,,0,,,NaN,,,,,,false,,,,554352.7999999523,554352.5999999046,,554352.5,,554353.335,8,400,,,
sequence,flow.Sequence,4_123,2023-05-02T17:36:08.670Z,,0,,,2932.924999904586,completion,,,,,false,,,,554352.899999857,554352.5999999046,551403.009,551418.0999999046,551419.675,554353.335,8,400,,,
trial,html.Screen,4_124_0,2023-05-02T17:36:12.037Z,,0,3,,3366.6650000000373,response,ISIC_4701063.JPG,,ISIC_4332846.JPG,ISIC_4332846.JPG,false,0,keypress(z),500,557720.5,557720,554336.669,554353,554353.335,557736.533,8,400,25,,ISIC_4701063.JPG
break,html.Screen,4_124_1,2023-05-02T17:36:12.038Z,,0,,,NaN,,,,,,false,,,,557721.5,557721.2000000477,,557720.7000000477,,557736.533,8,400,,,
break_continue,html.Screen,4_124_2,2023-05-02T17:36:12.039Z,,0,,,NaN,,,,,,false,,,,557721.899999857,557721.7000000477,,557721.5999999046,,557736.533,8,400,,,
sequence,flow.Sequence,4_124,2023-05-02T17:36:12.039Z,,0,,,3368.365000047721,completion,,,,,false,,,,557722,557721.7000000477,554336.669,554353,554353.335,557736.533,8,400,,,
trial,html.Screen,4_125_0,2023-05-02T17:36:15.316Z,,0,3,,3261.966999999946,response,ISIC_0031985.JPG,,ISIC_0062559.JPG,ISIC_0062559.JPG,false,0,keypress(z),500,560998.899999857,560998.5,557719.867,557722.2000000477,557736.533,561003.069,8,400,26,,ISIC_0031985.JPG
break,html.Screen,4_125_1,2023-05-02T17:36:15.317Z,,0,,,NaN,,,,,,false,,,,560999.899999857,560999.7000000477,,560999.2000000477,,561003.069,8,400,,,
break_continue,html.Screen,4_125_2,2023-05-02T17:36:15.317Z,,0,,,NaN,,,,,,false,,,,561000.399999857,561000.2000000477,,561000.0999999046,,561003.069,8,400,,,
sequence,flow.Sequence,4_125,2023-05-02T17:36:15.317Z,,0,,,3263.6670000476297,completion,,,,,false,,,,561000.399999857,561000.2000000477,557719.867,557722.2000000477,557736.533,561003.069,8,400,,,
