sender,sender_type,sender_id,timestamp,meta,,blockNo,condition,duration,ended_on,img_left,img_reveal,img_right,loser,practice,response,response_action,selection_duration,time_commit,time_end,time_render,time_run,time_show,time_switch,total_blocks,total_trials,trialNo,url,winner
informed_consent,html.Screen,0,2023-09-15T04:27:25.490Z,"{""labjs_version"":""20.2.4"",""labjs_build"":{""flavor"":""production"",""commit"":""f5b4a49f956347addd546a832a3327688c2c0fef""},""location"":""https://run.pavlovia.org/MurrayBennett/melanoma-2afc/?participant=67375&platform=sona"",""userAgent"":""Mozilla/5.0 (Windows NT 10.0; Win64; x64) AppleWebKit/537.36 (KHTML, like Gecko) Chrome/116.0.0.0 Safari/537.36"",""platform"":""Win32"",""language"":""en-US"",""locale"":""en-US"",""timeZone"":""America/Chicago"",""timezoneOffset"":300,""screen_width"":1536,""screen_height"":960,""scroll_width"":1536,""scroll_height"":787,""window_innerWidth"":1536,""window_innerHeight"":835,""devicePixelRatio"":1.25}",,,,9571.401000095368,response,,,,,,consent,click button,,13101.400000095367,13099.400000095367,3477.954,3510.5,3527.999,13117.867,,,,"{""participant"":""67375"",""platform"":""sona""}",
Welcome,html.Screen,1,2023-09-15T04:27:28.873Z,,,,asymmetry,3365.633,response,,,,,,continue,click button,,16484.60000014305,16483.5,13101.194,13101.600000143051,13117.867,16503.559,,,,,
trial,html.Screen,2_0_0,2023-09-15T04:27:37.231Z,,0,0,,8339.341000095366,response,ISIC_6997061.JPG,,ISIC_0069348.JPG,ISIC_6997061.JPG,true,1,keypress(m),500,24843.200000047684,24842.900000095367,16486.876,16484.900000095367,16503.559,24859.294,1,6,1,,ISIC_0069348.JPG
sequence,flow.Sequence,2_0,2023-09-15T04:27:37.232Z,,0,,,8339.341000095366,completion,,,,,true,,,,24843.299999952316,24842.900000095367,16486.876,16484.900000095367,16503.559,24859.294,1,6,,,
trial,html.Screen,2_1_0,2023-09-15T04:27:45.634Z,,0,0,,8385.705999999998,response,ISIC_0057368.JPG,,ISIC_0009529.JPG,ISIC_0009529.JPG,true,0,keypress(z),500,33245.299999952316,33245,24842.722,24843.400000095367,24859.294,33265.026,1,6,2,,ISIC_0057368.JPG
sequence,flow.Sequence,2_1,2023-09-15T04:27:45.634Z,,0,,,8385.705999999998,completion,,,,,true,,,,33245.60000014305,33245,24842.722,24843.299999952316,24859.294,33265.026,1,6,,,
trial,html.Screen,2_2_0,2023-09-15T04:27:51.092Z,,0,0,,5438.074000143053,response,ISIC_9758671.JPG,,ISIC_0064954.JPG,ISIC_0064954.JPG,true,0,keypress(z),500,38703.299999952316,38703.10000014305,33248.449,33245.799999952316,33265.026,38735.578,1,6,3,,ISIC_9758671.JPG
sequence,flow.Sequence,2_2,2023-09-15T04:27:51.092Z,,0,,,5438.074000143053,completion,,,,,true,,,,38703.60000014305,38703.10000014305,33248.449,33245.700000047684,33265.026,38735.578,1,6,,,
trial,html.Screen,2_3_0,2023-09-15T04:27:56.939Z,,0,0,,5814.52200014305,response,ISIC_0000080.JPG,,ISIC_0005785.JPG,ISIC_0000080.JPG,true,1,keypress(m),500,44550.5,44550.10000014305,38718.862,38703.799999952316,38735.578,44572.89,1,6,4,,ISIC_0005785.JPG
sequence,flow.Sequence,2_3,2023-09-15T04:27:56.939Z,,0,,,5814.52200014305,completion,,,,,true,,,,44550.90000009537,44550.10000014305,38718.862,38703.700000047684,38735.578,44572.89,1,6,,,
trial,html.Screen,2_4_0,2023-09-15T04:27:59.839Z,,0,0,,2877.7100001430517,response,ISIC_7944028.JPG,,ISIC_5390060.JPG,ISIC_7944028.JPG,true,1,keypress(m),500,47450.90000009537,47450.60000014305,44556.214,44551.10000014305,44572.89,47474.86,1,6,5,,ISIC_5390060.JPG
sequence,flow.Sequence,2_4,2023-09-15T04:27:59.839Z,,0,,,2877.7100001430517,completion,,,,,true,,,,47451,47450.60000014305,44556.214,44551,44572.89,47474.86,1,6,,,
trial,html.Screen,2_5_0,2023-09-15T04:28:02.888Z,,0,0,,3024.7400001430506,response,ISIC_0010188.JPG,,ISIC_0794216.JPG,ISIC_0794216.JPG,true,0,keypress(z),500,50499.799999952316,50499.60000014305,47458.069,47451.10000014305,47474.86,50527.016,1,6,6,,ISIC_0010188.JPG
sequence,flow.Sequence,2_5,2023-09-15T04:28:02.888Z,,0,,,3024.7400001430506,completion,,,,,true,,,,50500,50499.60000014305,47458.069,47451.10000014305,47474.86,50527.016,1,6,,,
loop,flow.Loop,2,2023-09-15T04:28:02.888Z,,,,,33996.04100014305,completion,,,,,true,,,,50500.10000014305,50499.60000014305,16486.876,16484.900000095367,16503.559,50527.016,1,6,,,
exp_instructions,html.Screen,3,2023-09-15T04:28:05.018Z,,,,,2101.884000095364,response,,,,,,continue,keypress(Space),,52629.40000009537,52628.90000009537,50510.285,50500.200000047684,50527.016,52661.736,,,,,
trial,html.Screen,4_0_0,2023-09-15T04:28:08.445Z,,0,1,,3394.864000143054,response,ISIC_7277310.JPG,6,ISIC_5552381.JPG,ISIC_7277310.JPG,false,1,keypress(m),500,56056.799999952316,56056.60000014305,52645.006,52629.700000047684,52661.736,56080.685,8,400,1,,ISIC_5552381.JPG
break,html.Screen,4_0_1,2023-09-15T04:28:08.446Z,,0,,,NaN,,,,,,false,,,,56057.90000009537,56057.60000014305,,56057,,56080.685,8,400,,,
break_continue,html.Screen,4_0_2,2023-09-15T04:28:08.447Z,,0,,,NaN,,,,,,false,,,,56058.5,56058.40000009537,,56058,,56080.685,8,400,,,
sequence,flow.Sequence,4_0,2023-09-15T04:28:08.447Z,,0,,,3396.6640000953703,completion,,,,,false,,,,56058.700000047684,56058.40000009537,52645.006,52629.700000047684,52661.736,56080.685,8,400,,,
trial,html.Screen,4_1_0,2023-09-15T04:28:11.288Z,,0,1,,2819.015000047686,response,ISIC_4375524.JPG,5,ISIC_0058594.JPG,ISIC_4375524.JPG,false,1,keypress(m),500,58900,58899.700000047684,56064.053,56058.700000047684,56080.685,58916.08,8,400,2,,ISIC_0058594.JPG
break,html.Screen,4_1_1,2023-09-15T04:28:11.289Z,,0,,,NaN,,,,,,false,,,,58900.60000014305,58900.40000009537,,58900.10000014305,,58916.08,8,400,,,
break_continue,html.Screen,4_1_2,2023-09-15T04:28:11.289Z,,0,,,NaN,,,,,,false,,,,58900.90000009537,58900.90000009537,,58900.700000047684,,58916.08,8,400,,,
sequence,flow.Sequence,4_1,2023-09-15T04:28:11.289Z,,0,,,2820.2150000953698,completion,,,,,false,,,,58901,58900.90000009537,56064.053,56058.700000047684,56080.685,58916.08,8,400,,,
trial,html.Screen,4_2_0,2023-09-15T04:28:14.236Z,,0,1,,2930.3200000953657,response,ISIC_1452314.JPG,5,ISIC_0054357.JPG,ISIC_1452314.JPG,false,1,keypress(m),500,61846.700000047684,61846.40000009537,58899.354,58901.10000014305,58916.08,61868.111,8,400,3,,ISIC_0054357.JPG
break,html.Screen,4_2_1,2023-09-15T04:28:14.237Z,,0,,,NaN,,,,,,false,,,,61848.200000047684,61847.799999952316,,61847,,61868.111,8,400,,,
break_continue,html.Screen,4_2_2,2023-09-15T04:28:14.238Z,,0,,,NaN,,,,,,false,,,,61848.60000014305,61848.60000014305,,61848.200000047684,,61868.111,8,400,,,
sequence,flow.Sequence,4_2,2023-09-15T04:28:14.238Z,,0,,,2932.5200001430494,completion,,,,,false,,,,61848.799999952316,61848.60000014305,58899.354,58901.10000014305,58916.08,61868.111,8,400,,,
trial,html.Screen,4_3_0,2023-09-15T04:28:17.430Z,,0,1,,3172.688999952319,response,ISIC_0031224.JPG,4,ISIC_4375524.JPG,ISIC_4375524.JPG,false,0,keypress(z),500,65041,65040.799999952316,61851.32,61848.90000009537,61868.111,65070.249,8,400,4,,ISIC_0031224.JPG
break,html.Screen,4_3_1,2023-09-15T04:28:17.431Z,,0,,,NaN,,,,,,false,,,,65042,65041.799999952316,,65041.200000047684,,65070.249,8,400,,,
break_continue,html.Screen,4_3_2,2023-09-15T04:28:17.431Z,,0,,,NaN,,,,,,false,,,,65042.200000047684,65042.10000014305,,65042,,65070.249,8,400,,,
sequence,flow.Sequence,4_3,2023-09-15T04:28:17.431Z,,0,,,3173.989000143054,completion,,,,,false,,,,65042.299999952316,65042.10000014305,61851.32,61848.90000009537,61868.111,65070.249,8,400,,,
trial,html.Screen,4_4_0,2023-09-15T04:28:28.952Z,,0,1,,11524.487000000001,timeout,ISIC_0010295.JPG,6,ISIC_0069432.JPG,,false,,,500,76562.5,76562.29999995232,65053.565,65042.40000009537,65070.249,76594.736,8,400,5,,
break,html.Screen,4_4_1,2023-09-15T04:28:28.953Z,,0,,,NaN,,,,,,false,,,,76563.70000004768,76563.29999995232,,76562.70000004768,,76594.736,8,400,,,
break_continue,html.Screen,4_4_2,2023-09-15T04:28:28.953Z,,0,,,NaN,,,,,,false,,,,76564.20000004768,76564.10000014305,,76563.79999995232,,76594.736,8,400,,,
sequence,flow.Sequence,4_4,2023-09-15T04:28:28.954Z,,0,,,11493.851000143048,completion,,,,,false,,,,76564.5,76564.10000014305,65053.565,65042.299999952316,65070.249,76594.736,8,400,,,
trial,html.Screen,4_5_0,2023-09-15T04:28:32.589Z,,0,1,,3604.8640001430467,response,ISIC_0000078.JPG,4,ISIC_3401631.JPG,ISIC_0000078.JPG,false,1,keypress(m),500,80199.70000004768,80199.60000014305,76578.2,76564.60000014305,76594.736,80230.517,8,400,6,,ISIC_3401631.JPG
break,html.Screen,4_5_1,2023-09-15T04:28:32.589Z,,0,,,NaN,,,,,,false,,,,80200.40000009537,80200.20000004768,,80199.90000009537,,80230.517,8,400,,,
break_continue,html.Screen,4_5_2,2023-09-15T04:28:32.590Z,,0,,,NaN,,,,,,false,,,,80200.79999995232,80200.70000004768,,80200.40000009537,,80230.517,8,400,,,
sequence,flow.Sequence,4_5,2023-09-15T04:28:32.590Z,,0,,,3605.9640000476793,completion,,,,,false,,,,80200.90000009537,80200.70000004768,76578.2,76564.5,76594.736,80230.517,8,400,,,
trial,html.Screen,4_6_0,2023-09-15T04:28:35.423Z,,0,1,,2803.482999999993,response,ISIC_0429825.JPG,5,ISIC_8789051.JPG,ISIC_0429825.JPG,false,1,keypress(m),500,83034.20000004768,83034,80213.896,80200.90000009537,80230.517,83065.833,8,400,7,,ISIC_8789051.JPG
break,html.Screen,4_6_1,2023-09-15T04:28:35.424Z,,0,,,NaN,,,,,,false,,,,83034.70000004768,83034.60000014305,,83034.20000004768,,83065.833,8,400,,,
break_continue,html.Screen,4_6_2,2023-09-15T04:28:35.424Z,,0,,,NaN,,,,,,false,,,,83034.90000009537,83034.79999995232,,83034.70000004768,,83065.833,8,400,,,
sequence,flow.Sequence,4_6,2023-09-15T04:28:35.424Z,,0,,,2804.282999952309,completion,,,,,false,,,,83035,83034.79999995232,80213.896,80200.90000009537,80230.517,83065.833,8,400,,,
trial,html.Screen,4_7_0,2023-09-15T04:28:39.363Z,,0,1,,3907.5670000953687,response,ISIC_6557642.JPG,6,ISIC_0031221.JPG,ISIC_0031221.JPG,false,0,keypress(z),500,86973.60000014305,86973.40000009537,83049.174,83035,83065.833,87001.924,8,400,8,,ISIC_6557642.JPG
break,html.Screen,4_7_1,2023-09-15T04:28:39.364Z,,0,,,NaN,,,,,,false,,,,86974.29999995232,86974.10000014305,,86973.79999995232,,87001.924,8,400,,,
break_continue,html.Screen,4_7_2,2023-09-15T04:28:39.364Z,,0,,,NaN,,,,,,false,,,,86974.70000004768,86974.60000014305,,86974.5,,87001.924,8,400,,,
sequence,flow.Sequence,4_7,2023-09-15T04:28:39.364Z,,0,,,3908.7670001430524,completion,,,,,false,,,,86974.79999995232,86974.60000014305,83049.174,83035,83065.833,87001.924,8,400,,,
trial,html.Screen,4_8_0,2023-09-15T04:28:44.566Z,,0,1,,5174.875999952317,response,ISIC_7831274.JPG,4,ISIC_2528656.JPG,ISIC_2528656.JPG,false,0,keypress(z),500,92177,92176.79999995232,86985.277,86974.90000009537,87001.924,92205.558,8,400,9,,ISIC_7831274.JPG
break,html.Screen,4_8_1,2023-09-15T04:28:44.567Z,,0,,,NaN,,,,,,false,,,,92177.40000009537,92177.40000009537,,92177.10000014305,,92205.558,8,400,,,
break_continue,html.Screen,4_8_2,2023-09-15T04:28:44.567Z,,0,,,NaN,,,,,,false,,,,92177.70000004768,92177.60000014305,,92177.5,,92205.558,8,400,,,
sequence,flow.Sequence,4_8,2023-09-15T04:28:44.567Z,,0,,,5175.676000143052,completion,,,,,false,,,,92177.70000004768,92177.60000014305,86985.277,86974.90000009537,87001.924,92205.558,8,400,,,
trial,html.Screen,4_9_0,2023-09-15T04:28:49.899Z,,0,1,,5304.241999952312,response,ISIC_5316803.JPG,5,ISIC_7533216.JPG,ISIC_7533216.JPG,false,0,keypress(z),500,97510.20000004768,97509.79999995232,92188.877,92177.79999995232,92205.558,97542.459,8,400,10,,ISIC_5316803.JPG
break,html.Screen,4_9_1,2023-09-15T04:28:49.901Z,,0,,,NaN,,,,,,false,,,,97512.20000004768,97511.40000009537,,97510.5,,97542.459,8,400,,,
break_continue,html.Screen,4_9_2,2023-09-15T04:28:49.902Z,,0,,,NaN,,,,,,false,,,,97512.60000014305,97512.5,,97512.29999995232,,97542.459,8,400,,,
sequence,flow.Sequence,4_9,2023-09-15T04:28:49.902Z,,0,,,5306.9419999999955,completion,,,,,false,,,,97512.90000009537,97512.5,92188.877,92177.79999995232,92205.558,97542.459,8,400,,,
trial,html.Screen,4_10_0,2023-09-15T04:28:55.111Z,,0,1,,5178.641000143049,response,ISIC_0014325.JPG,4,ISIC_0034209.JPG,ISIC_0034209.JPG,false,0,keypress(z),500,102721.40000009537,102721.10000014305,97525.754,97513,97542.459,102746.048,8,400,11,,ISIC_0014325.JPG
break,html.Screen,4_10_1,2023-09-15T04:28:55.112Z,,0,,,NaN,,,,,,false,,,,102722.60000014305,102722.20000004768,,102721.60000014305,,102746.048,8,400,,,
break_continue,html.Screen,4_10_2,2023-09-15T04:28:55.112Z,,0,,,NaN,,,,,,false,,,,102723.10000014305,102723,,102722.70000004768,,102746.048,8,400,,,
sequence,flow.Sequence,4_10,2023-09-15T04:28:55.112Z,,0,,,5180.540999999997,completion,,,,,false,,,,102723.20000004768,102723,97525.754,97513,97542.459,102746.048,8,400,,,
trial,html.Screen,4_11_0,2023-09-15T04:28:58.859Z,,0,1,,3723.552000143056,response,ISIC_1504257.JPG,5,ISIC_9317483.JPG,ISIC_1504257.JPG,false,1,keypress(m),500,106469.70000004768,106469.60000014305,102729.375,102723.40000009537,102746.048,106498.664,8,400,12,,ISIC_9317483.JPG
break,html.Screen,4_11_1,2023-09-15T04:28:58.860Z,,0,,,NaN,,,,,,false,,,,106470.5,106470.20000004768,,106469.90000009537,,106498.664,8,400,,,
break_continue,html.Screen,4_11_2,2023-09-15T04:28:58.860Z,,0,,,NaN,,,,,,false,,,,106470.79999995232,106470.70000004768,,106470.60000014305,,106498.664,8,400,,,
sequence,flow.Sequence,4_11,2023-09-15T04:28:58.860Z,,0,,,3724.6520000476885,completion,,,,,false,,,,106470.90000009537,106470.70000004768,102729.375,102723.40000009537,102746.048,106498.664,8,400,,,
trial,html.Screen,4_12_0,2023-09-15T04:29:01.619Z,,0,1,,2731.135999952312,response,ISIC_2507845.JPG,6,ISIC_4672131.JPG,ISIC_2507845.JPG,false,1,keypress(m),500,109229.90000009537,109229.79999995232,106481.896,106471.10000014305,106498.664,109250.472,8,400,13,,ISIC_4672131.JPG
break,html.Screen,4_12_1,2023-09-15T04:29:01.620Z,,0,,,NaN,,,,,,false,,,,109230.29999995232,109230.20000004768,,109229.90000009537,,109250.472,8,400,,,
break_continue,html.Screen,4_12_2,2023-09-15T04:29:01.620Z,,0,,,NaN,,,,,,false,,,,109230.60000014305,109230.60000014305,,109230.5,,109250.472,8,400,,,
sequence,flow.Sequence,4_12,2023-09-15T04:29:01.620Z,,0,,,2731.936000143047,completion,,,,,false,,,,109230.70000004768,109230.60000014305,106481.896,106471,106498.664,109250.472,8,400,,,
trial,html.Screen,4_13_0,2023-09-15T04:29:04.646Z,,0,1,,3006.628000143057,response,ISIC_0011094.JPG,4,ISIC_0059350.JPG,ISIC_0059350.JPG,false,0,keypress(z),500,112257.29999995232,112257.10000014305,109233.731,109230.70000004768,109250.472,112285.861,8,400,14,,ISIC_0011094.JPG
break,html.Screen,4_13_1,2023-09-15T04:29:04.647Z,,0,,,NaN,,,,,,false,,,,112257.90000009537,112257.79999995232,,112257.40000009537,,112285.861,8,400,,,
break_continue,html.Screen,4_13_2,2023-09-15T04:29:04.647Z,,0,,,NaN,,,,,,false,,,,112258.10000014305,112258.10000014305,,112258,,112285.861,8,400,,,
sequence,flow.Sequence,4_13,2023-09-15T04:29:04.647Z,,0,,,3007.628000143057,completion,,,,,false,,,,112258.20000004768,112258.10000014305,109233.731,109230.70000004768,109250.472,112285.861,8,400,,,
trial,html.Screen,4_14_0,2023-09-15T04:29:08.830Z,,0,1,,4154.739000143047,response,ISIC_0543351.JPG,6,ISIC_0029906.JPG,ISIC_0543351.JPG,false,1,keypress(m),500,116440.90000009537,116440.60000014305,112269.175,112258.29999995232,112285.861,116472.051,8,400,15,,ISIC_0029906.JPG
break,html.Screen,4_14_1,2023-09-15T04:29:08.831Z,,0,,,NaN,,,,,,false,,,,116441.90000009537,116441.70000004768,,116441.20000004768,,116472.051,8,400,,,
break_continue,html.Screen,4_14_2,2023-09-15T04:29:08.831Z,,0,,,NaN,,,,,,false,,,,116442.10000014305,116442.10000014305,,116441.90000009537,,116472.051,8,400,,,
sequence,flow.Sequence,4_14,2023-09-15T04:29:08.831Z,,0,,,4156.239000143047,completion,,,,,false,,,,116442.20000004768,116442.10000014305,112269.175,112258.29999995232,112285.861,116472.051,8,400,,,
trial,html.Screen,4_15_0,2023-09-15T04:29:12.899Z,,0,1,,4037.149000047677,response,ISIC_3750329.JPG,4,ISIC_1784255.JPG,ISIC_1784255.JPG,false,0,keypress(z),500,120509.40000009537,120509.20000004768,116455.4,116442.20000004768,116472.051,120541.469,8,400,16,,ISIC_3750329.JPG
break,html.Screen,4_15_1,2023-09-15T04:29:12.899Z,,0,,,NaN,,,,,,false,,,,120510.20000004768,120510,,120509.5,,120541.469,8,400,,,
break_continue,html.Screen,4_15_2,2023-09-15T04:29:12.900Z,,0,,,NaN,,,,,,false,,,,120510.70000004768,120510.60000014305,,120510.40000009537,,120541.469,8,400,,,
sequence,flow.Sequence,4_15,2023-09-15T04:29:12.900Z,,0,,,4038.5490001430444,completion,,,,,false,,,,120510.79999995232,120510.60000014305,116455.4,116442.20000004768,116472.051,120541.469,8,400,,,
trial,html.Screen,4_16_0,2023-09-15T04:29:17.720Z,,0,1,,4789.031000000003,response,ISIC_0031463.JPG,6,ISIC_0014542.JPG,ISIC_0014542.JPG,false,0,keypress(z),500,125330.60000014305,125330.5,120524.791,120511,120541.469,125361.514,8,400,17,,ISIC_0031463.JPG
break,html.Screen,4_16_1,2023-09-15T04:29:17.720Z,,0,,,NaN,,,,,,false,,,,125331.20000004768,125331.10000014305,,125330.79999995232,,125361.514,8,400,,,
break_continue,html.Screen,4_16_2,2023-09-15T04:29:17.721Z,,0,,,NaN,,,,,,false,,,,125331.70000004768,125331.60000014305,,125331.40000009537,,125361.514,8,400,,,
sequence,flow.Sequence,4_16,2023-09-15T04:29:17.721Z,,0,,,4790.131000143054,completion,,,,,false,,,,125331.90000009537,125331.60000014305,120524.791,120511,120541.469,125361.514,8,400,,,
trial,html.Screen,4_17_0,2023-09-15T04:29:23.930Z,,0,1,,6179.186000047688,response,ISIC_0011268.JPG,5,ISIC_0011564.JPG,ISIC_0011564.JPG,false,0,keypress(z),500,131541,131540.70000004768,125344.793,125332,125361.514,131565.841,8,400,18,,ISIC_0011268.JPG
break,html.Screen,4_17_1,2023-09-15T04:29:23.931Z,,0,,,NaN,,,,,,false,,,,131541.90000009537,131541.70000004768,,131541.20000004768,,131565.841,8,400,,,
break_continue,html.Screen,4_17_2,2023-09-15T04:29:23.931Z,,0,,,NaN,,,,,,false,,,,131542.29999995232,131542.20000004768,,131542,,131565.841,8,400,,,
sequence,flow.Sequence,4_17,2023-09-15T04:29:23.932Z,,0,,,6180.686000047688,completion,,,,,false,,,,131542.40000009537,131542.20000004768,125344.793,125331.90000009537,125361.514,131565.841,8,400,,,
trial,html.Screen,4_18_0,2023-09-15T04:29:28.445Z,,0,1,,4489.759000143065,response,ISIC_0207349.JPG,5,ISIC_7642591.JPG,ISIC_7642591.JPG,false,0,keypress(z),500,136055.79999995232,136055.60000014305,131549.07,131542.60000014305,131565.841,136085.445,8,400,19,,ISIC_0207349.JPG
break,html.Screen,4_18_1,2023-09-15T04:29:28.446Z,,0,,,NaN,,,,,,false,,,,136056.60000014305,136056.40000009537,,136056,,136085.445,8,400,,,
break_continue,html.Screen,4_18_2,2023-09-15T04:29:28.446Z,,0,,,NaN,,,,,,false,,,,136056.90000009537,136056.79999995232,,136056.70000004768,,136085.445,8,400,,,
sequence,flow.Sequence,4_18,2023-09-15T04:29:28.446Z,,0,,,4490.9589999523305,completion,,,,,false,,,,136057.10000014305,136056.79999995232,131549.07,131542.60000014305,131565.841,136085.445,8,400,,,
trial,html.Screen,4_19_0,2023-09-15T04:29:31.798Z,,0,1,,3323.655000143044,response,ISIC_9182492.JPG,6,ISIC_4936610.JPG,ISIC_4936610.JPG,false,0,keypress(z),500,139409.40000009537,139409.10000014305,136068.843,136057.10000014305,136085.445,139437.755,8,400,20,,ISIC_9182492.JPG
break,html.Screen,4_19_1,2023-09-15T04:29:31.799Z,,0,,,NaN,,,,,,false,,,,139410.10000014305,139409.90000009537,,139409.60000014305,,139437.755,8,400,,,
break_continue,html.Screen,4_19_2,2023-09-15T04:29:31.800Z,,0,,,NaN,,,,,,false,,,,139410.40000009537,139410.29999995232,,139410.20000004768,,139437.755,8,400,,,
sequence,flow.Sequence,4_19,2023-09-15T04:29:31.800Z,,0,,,3324.8549999523093,completion,,,,,false,,,,139410.5,139410.29999995232,136068.843,136057.10000014305,136085.445,139437.755,8,400,,,
trial,html.Screen,4_20_0,2023-09-15T04:29:35.530Z,,0,1,,3703.0449999523116,response,ISIC_0032001.JPG,5,ISIC_8713330.JPG,ISIC_0032001.JPG,false,1,keypress(m),500,143141,143140.79999995232,139421.123,139410.60000014305,139437.755,143156.965,8,400,21,,ISIC_8713330.JPG
break,html.Screen,4_20_1,2023-09-15T04:29:35.531Z,,0,,,NaN,,,,,,false,,,,143142.10000014305,143141.79999995232,,143141.20000004768,,143156.965,8,400,,,
break_continue,html.Screen,4_20_2,2023-09-15T04:29:35.532Z,,0,,,NaN,,,,,,false,,,,143142.79999995232,143142.60000014305,,143142.20000004768,,143156.965,8,400,,,
sequence,flow.Sequence,4_20,2023-09-15T04:29:35.532Z,,0,,,3704.8450001430465,completion,,,,,false,,,,143143.10000014305,143142.60000014305,139421.123,139410.60000014305,139437.755,143156.965,8,400,,,
trial,html.Screen,4_21_0,2023-09-15T04:29:38.750Z,,0,1,,3203.5350000000035,response,ISIC_1009042.JPG,6,ISIC_0013898.JPG,ISIC_0013898.JPG,false,0,keypress(z),500,146360.70000004768,146360.5,143140.288,143143.20000004768,143156.965,146392.566,8,400,22,,ISIC_1009042.JPG
break,html.Screen,4_21_1,2023-09-15T04:29:38.751Z,,0,,,NaN,,,,,,false,,,,146361.40000009537,146361.10000014305,,146360.70000004768,,146392.566,8,400,,,
break_continue,html.Screen,4_21_2,2023-09-15T04:29:38.751Z,,0,,,NaN,,,,,,false,,,,146361.70000004768,146361.60000014305,,146361.40000009537,,146392.566,8,400,,,
sequence,flow.Sequence,4_21,2023-09-15T04:29:38.751Z,,0,,,3204.6350001430546,completion,,,,,false,,,,146361.79999995232,146361.60000014305,143140.288,143143.10000014305,143156.965,146392.566,8,400,,,
trial,html.Screen,4_22_0,2023-09-15T04:29:42.688Z,,0,1,,3906.5340001430595,response,ISIC_0030470.JPG,6,ISIC_0008636.JPG,ISIC_0008636.JPG,false,0,keypress(z),500,150299.29999995232,150299.10000014305,146375.841,146361.90000009537,146392.566,150328.555,8,400,23,,ISIC_0030470.JPG
break,html.Screen,4_22_1,2023-09-15T04:29:42.690Z,,0,,,NaN,,,,,,false,,,,150300.40000009537,150300,,150299.5,,150328.555,8,400,,,
break_continue,html.Screen,4_22_2,2023-09-15T04:29:42.690Z,,0,,,NaN,,,,,,false,,,,150300.90000009537,150300.70000004768,,150300.5,,150328.555,8,400,,,
sequence,flow.Sequence,4_22,2023-09-15T04:29:42.690Z,,0,,,3908.134000047692,completion,,,,,false,,,,150301.10000014305,150300.70000004768,146375.841,146361.79999995232,146392.566,150328.555,8,400,,,
trial,html.Screen,4_23_0,2023-09-15T04:29:46.692Z,,0,1,,3974.545000143058,response,ISIC_0027263.JPG,5,ISIC_9547089.JPG,ISIC_9547089.JPG,false,0,keypress(z),500,154303.29999995232,154303.10000014305,150311.907,150301.20000004768,150328.555,154331.332,8,400,24,,ISIC_0027263.JPG
break,html.Screen,4_23_1,2023-09-15T04:29:46.693Z,,0,,,NaN,,,,,,false,,,,154303.70000004768,154303.70000004768,,154303.29999995232,,154331.332,8,400,,,
break_continue,html.Screen,4_23_2,2023-09-15T04:29:46.693Z,,0,,,NaN,,,,,,false,,,,154303.90000009537,154303.90000009537,,154303.79999995232,,154331.332,8,400,,,
sequence,flow.Sequence,4_23,2023-09-15T04:29:46.693Z,,0,,,3975.3450000953744,completion,,,,,false,,,,154304.10000014305,154303.90000009537,150311.907,150301.20000004768,150328.555,154331.332,8,400,,,
trial,html.Screen,4_24_0,2023-09-15T04:29:51.286Z,,0,1,,4565.868000047689,response,ISIC_0497390.JPG,4,ISIC_0067511.JPG,ISIC_0497390.JPG,false,1,keypress(m),500,158897.29999995232,158897.20000004768,154314.756,154304.10000014305,154331.332,158917.75,8,400,25,,ISIC_0067511.JPG
break,html.Screen,4_24_1,2023-09-15T04:29:51.287Z,,0,,,NaN,,,,,,false,,,,158897.90000009537,158897.79999995232,,158897.5,,158917.75,8,400,,,
break_continue,html.Screen,4_24_2,2023-09-15T04:29:51.287Z,,0,,,NaN,,,,,,false,,,,158898.20000004768,158898.20000004768,,158898,,158917.75,8,400,,,
sequence,flow.Sequence,4_24,2023-09-15T04:29:51.287Z,,0,,,4566.868000047689,completion,,,,,false,,,,158898.29999995232,158898.20000004768,154314.756,154304.10000014305,154331.332,158917.75,8,400,,,
trial,html.Screen,4_25_0,2023-09-15T04:29:55.501Z,,0,1,,4193.650000095367,response,ISIC_9854454.JPG,4,ISIC_0845105.JPG,ISIC_0845105.JPG,false,0,keypress(z),500,163111.79999995232,163111.40000009537,158901.143,158898.29999995232,158917.75,163137.521,8,400,26,,ISIC_9854454.JPG
break,html.Screen,4_25_1,2023-09-15T04:29:55.502Z,,0,,,NaN,,,,,,false,,,,163112.90000009537,163112.60000014305,,163112,,163137.521,8,400,,,
break_continue,html.Screen,4_25_2,2023-09-15T04:29:55.503Z,,0,,,NaN,,,,,,false,,,,163113.40000009537,163113.29999995232,,163113,,163137.521,8,400,,,
sequence,flow.Sequence,4_25,2023-09-15T04:29:55.503Z,,0,,,4195.549999952316,completion,,,,,false,,,,163113.60000014305,163113.29999995232,158901.143,158898.29999995232,158917.75,163137.521,8,400,,,
trial,html.Screen,4_26_0,2023-09-15T04:29:59.504Z,,0,1,,3977.478999999992,response,ISIC_0046626.JPG,4,ISIC_7460111.JPG,ISIC_0046626.JPG,false,1,keypress(m),500,167115.20000004768,167115,163120.726,163113.79999995232,163137.521,167140.054,8,400,27,,ISIC_7460111.JPG
break,html.Screen,4_26_1,2023-09-15T04:29:59.505Z,,0,,,NaN,,,,,,false,,,,167115.90000009537,167115.60000014305,,167115.29999995232,,167140.054,8,400,,,
break_continue,html.Screen,4_26_2,2023-09-15T04:29:59.505Z,,0,,,NaN,,,,,,false,,,,167116.29999995232,167116.10000014305,,167116,,167140.054,8,400,,,
sequence,flow.Sequence,4_26,2023-09-15T04:29:59.506Z,,0,,,3978.5790001430432,completion,,,,,false,,,,167116.40000009537,167116.10000014305,163120.726,163113.70000004768,163137.521,167140.054,8,400,,,
trial,html.Screen,4_27_0,2023-09-15T04:30:02.741Z,,0,1,,3211.3460000953637,response,ISIC_6785041.JPG,6,ISIC_0027305.JPG,ISIC_6785041.JPG,false,1,keypress(m),500,170351.70000004768,170351.40000009537,167123.369,167116.5,167140.054,170375.728,8,400,28,,ISIC_0027305.JPG
break,html.Screen,4_27_1,2023-09-15T04:30:02.742Z,,0,,,NaN,,,,,,false,,,,170353,170352.70000004768,,170352,,170375.728,8,400,,,
break_continue,html.Screen,4_27_2,2023-09-15T04:30:02.743Z,,0,,,NaN,,,,,,false,,,,170353.5,170353.40000009537,,170353.20000004768,,170375.728,8,400,,,
sequence,flow.Sequence,4_27,2023-09-15T04:30:02.743Z,,0,,,3213.3460000953637,completion,,,,,false,,,,170353.79999995232,170353.40000009537,167123.369,167116.5,167140.054,170375.728,8,400,,,
trial,html.Screen,4_28_0,2023-09-15T04:30:09.451Z,,0,1,,6686.172000095365,response,ISIC_0033886.JPG,142,ISIC_0011779.JPG,ISIC_0011779.JPG,false,0,keypress(z),500,177062.10000014305,177061.90000009537,170359.019,170354,170375.728,177113.697,8,400,29,,ISIC_0033886.JPG
break,html.Screen,4_28_1,2023-09-15T04:30:09.452Z,,0,,,NaN,,,,,,false,,,,177063.29999995232,177063,,177062.40000009537,,177113.697,8,400,,,
break_continue,html.Screen,4_28_2,2023-09-15T04:30:09.453Z,,0,,,NaN,,,,,,false,,,,177064.10000014305,177063.90000009537,,177063.40000009537,,177113.697,8,400,,,
sequence,flow.Sequence,4_28,2023-09-15T04:30:09.453Z,,0,,,6688.172000095365,completion,,,,,false,,,,177064.29999995232,177063.90000009537,170359.019,170353.90000009537,170375.728,177113.697,8,400,,,
trial,html.Screen,4_29_0,2023-09-15T04:30:13.217Z,,0,1,,3714.3030000000144,response,ISIC_9425937.JPG,5,ISIC_0879097.JPG,ISIC_9425937.JPG,false,1,keypress(m),500,180828.20000004768,180828,177080.309,177064.5,177113.697,180882.911,8,400,30,,ISIC_0879097.JPG
break,html.Screen,4_29_1,2023-09-15T04:30:13.218Z,,0,,,NaN,,,,,,false,,,,180829.20000004768,180828.90000009537,,180828.40000009537,,180882.911,8,400,,,
break_continue,html.Screen,4_29_2,2023-09-15T04:30:13.219Z,,0,,,NaN,,,,,,false,,,,180829.79999995232,180829.60000014305,,180829.40000009537,,180882.911,8,400,,,
sequence,flow.Sequence,4_29,2023-09-15T04:30:13.219Z,,0,,,3715.9030001430656,completion,,,,,false,,,,180829.90000009537,180829.60000014305,177080.309,177064.40000009537,177113.697,180882.911,8,400,,,
trial,html.Screen,4_30_0,2023-09-15T04:30:20.533Z,,0,1,,7260.8889999523235,response,ISIC_0030952.JPG,5,ISIC_4243283.JPG,ISIC_0030952.JPG,false,1,keypress(m),500,188144.20000004768,188143.79999995232,180849.52,180830.10000014305,180882.911,188171.217,8,400,31,,ISIC_4243283.JPG
break,html.Screen,4_30_1,2023-09-15T04:30:20.535Z,,0,,,NaN,,,,,,false,,,,188145.70000004768,188145.29999995232,,188144.60000014305,,188171.217,8,400,,,
break_continue,html.Screen,4_30_2,2023-09-15T04:30:20.535Z,,0,,,NaN,,,,,,false,,,,188146.29999995232,188146.10000014305,,188145.79999995232,,188171.217,8,400,,,
sequence,flow.Sequence,4_30,2023-09-15T04:30:20.536Z,,0,,,7263.189000143058,completion,,,,,false,,,,188146.60000014305,188146.10000014305,180849.52,180830,180882.911,188171.217,8,400,,,
trial,html.Screen,4_31_0,2023-09-15T04:30:26.482Z,,0,1,,5921.683000095363,response,ISIC_0025369.JPG,6,ISIC_5948805.JPG,ISIC_5948805.JPG,false,0,keypress(z),500,194093.29999995232,194092.90000009537,188154.556,188146.70000004768,188171.217,194125.307,8,400,32,,ISIC_0025369.JPG
break,html.Screen,4_31_1,2023-09-15T04:30:26.484Z,,0,,,NaN,,,,,,false,,,,194095,194094.40000009537,,194093.70000004768,,194125.307,8,400,,,
break_continue,html.Screen,4_31_2,2023-09-15T04:30:26.485Z,,0,,,NaN,,,,,,false,,,,194095.70000004768,194095.60000014305,,194095.20000004768,,194125.307,8,400,,,
sequence,flow.Sequence,4_31,2023-09-15T04:30:26.485Z,,0,,,5924.383000143047,completion,,,,,false,,,,194096,194095.60000014305,188154.556,188146.70000004768,188171.217,194125.307,8,400,,,
trial,html.Screen,4_32_0,2023-09-15T04:30:30.456Z,,0,1,,3941.1929999999993,response,ISIC_0064986.JPG,5,ISIC_4985027.JPG,ISIC_4985027.JPG,false,0,keypress(z),500,198066.60000014305,198066.5,194108.642,194096.20000004768,194125.307,198094.691,8,400,33,,ISIC_0064986.JPG
break,html.Screen,4_32_1,2023-09-15T04:30:30.456Z,,0,,,NaN,,,,,,false,,,,198067.20000004768,198067,,198066.70000004768,,198094.691,8,400,,,
break_continue,html.Screen,4_32_2,2023-09-15T04:30:30.457Z,,0,,,NaN,,,,,,false,,,,198067.5,198067.40000009537,,198067.29999995232,,198094.691,8,400,,,
sequence,flow.Sequence,4_32,2023-09-15T04:30:30.457Z,,0,,,3942.0930000953667,completion,,,,,false,,,,198067.60000014305,198067.40000009537,194108.642,194096.10000014305,194125.307,198094.691,8,400,,,
trial,html.Screen,4_33_0,2023-09-15T04:30:35.418Z,,0,1,,4934.4090001430595,response,ISIC_0054350.JPG,4,ISIC_8935085.JPG,ISIC_0054350.JPG,false,1,keypress(m),500,203029.29999995232,203029.10000014305,198077.953,198067.60000014305,198094.691,203048.22,8,400,34,,ISIC_8935085.JPG
break,html.Screen,4_33_1,2023-09-15T04:30:35.419Z,,0,,,NaN,,,,,,false,,,,203030.40000009537,203030.20000004768,,203029.60000014305,,203048.22,8,400,,,
break_continue,html.Screen,4_33_2,2023-09-15T04:30:35.420Z,,0,,,NaN,,,,,,false,,,,203031.10000014305,203030.79999995232,,203030.60000014305,,203048.22,8,400,,,
sequence,flow.Sequence,4_33,2023-09-15T04:30:35.420Z,,0,,,4936.108999952325,completion,,,,,false,,,,203031.29999995232,203030.79999995232,198077.953,198067.60000014305,198094.691,203048.22,8,400,,,
trial,html.Screen,4_34_0,2023-09-15T04:30:39.056Z,,0,1,,3617.9800000476826,response,ISIC_6809586.JPG,4,ISIC_5857303.JPG,ISIC_5857303.JPG,false,0,keypress(z),500,206666.5,206666.20000004768,203031.365,203031.5,203048.22,206683.897,8,400,35,,ISIC_6809586.JPG
break,html.Screen,4_34_1,2023-09-15T04:30:39.057Z,,0,,,NaN,,,,,,false,,,,206668,206667.60000014305,,206666.79999995232,,206683.897,8,400,,,
break_continue,html.Screen,4_34_2,2023-09-15T04:30:39.058Z,,0,,,NaN,,,,,,false,,,,206668.70000004768,206668.5,,206668.29999995232,,206683.897,8,400,,,
sequence,flow.Sequence,4_34,2023-09-15T04:30:39.058Z,,0,,,3620.279999999999,completion,,,,,false,,,,206668.90000009537,206668.5,203031.365,203031.40000009537,203048.22,206683.897,8,400,,,
trial,html.Screen,4_35_0,2023-09-15T04:30:42.868Z,,0,1,,3794.902999952319,response,ISIC_7596681.JPG,4,ISIC_8020153.JPG,ISIC_7596681.JPG,false,1,keypress(m),500,210479.10000014305,210478.79999995232,206667.175,206669.10000014305,206683.897,210503.3,8,400,36,,ISIC_8020153.JPG
break,html.Screen,4_35_1,2023-09-15T04:30:42.869Z,,0,,,NaN,,,,,,false,,,,210480,210479.70000004768,,210479.29999995232,,210503.3,8,400,,,
break_continue,html.Screen,4_35_2,2023-09-15T04:30:42.870Z,,0,,,NaN,,,,,,false,,,,210480.5,210480.40000009537,,210480.10000014305,,210503.3,8,400,,,
sequence,flow.Sequence,4_35,2023-09-15T04:30:42.870Z,,0,,,3796.50300009537,completion,,,,,false,,,,210480.70000004768,210480.40000009537,206667.175,206669,206683.897,210503.3,8,400,,,
trial,html.Screen,4_36_0,2023-09-15T04:30:49.550Z,,0,1,,6657.900000047695,response,ISIC_1223849.JPG,5,ISIC_9545819.JPG,ISIC_9545819.JPG,false,0,keypress(z),500,217161.40000009537,217161.20000004768,210486.592,210480.90000009537,210503.3,217191.142,8,400,37,,ISIC_1223849.JPG
break,html.Screen,4_36_1,2023-09-15T04:30:49.551Z,,0,,,NaN,,,,,,false,,,,217162.29999995232,217162.10000014305,,217161.60000014305,,217191.142,8,400,,,
break_continue,html.Screen,4_36_2,2023-09-15T04:30:49.552Z,,0,,,NaN,,,,,,false,,,,217162.79999995232,217162.70000004768,,217162.40000009537,,217191.142,8,400,,,
sequence,flow.Sequence,4_36,2023-09-15T04:30:49.552Z,,0,,,6659.400000047695,completion,,,,,false,,,,217162.90000009537,217162.70000004768,210486.592,210480.79999995232,210503.3,217191.142,8,400,,,
trial,html.Screen,4_37_0,2023-09-15T04:30:53.410Z,,0,1,,3830.058000047691,response,ISIC_0260290.JPG,4,ISIC_0055905.JPG,ISIC_0055905.JPG,false,0,keypress(z),500,221021.40000009537,221021.20000004768,217174.442,217163.10000014305,217191.142,221043.672,8,400,38,,ISIC_0260290.JPG
break,html.Screen,4_37_1,2023-09-15T04:30:53.411Z,,0,,,NaN,,,,,,false,,,,221021.90000009537,221021.79999995232,,221021.5,,221043.672,8,400,,,
break_continue,html.Screen,4_37_2,2023-09-15T04:30:53.411Z,,0,,,NaN,,,,,,false,,,,221022.10000014305,221022.10000014305,,221022,,221043.672,8,400,,,
sequence,flow.Sequence,4_37,2023-09-15T04:30:53.411Z,,0,,,3830.9580001430586,completion,,,,,false,,,,221022.29999995232,221022.10000014305,217174.442,217163,217191.142,221043.672,8,400,,,
trial,html.Screen,4_38_0,2023-09-15T04:30:57.093Z,,0,1,,3659.8280000000086,response,ISIC_0070351.JPG,5,ISIC_0016050.JPG,ISIC_0016050.JPG,false,0,keypress(z),500,224703.70000004768,224703.5,221027.055,221022.29999995232,221043.672,224729.669,8,400,39,,ISIC_0070351.JPG
break,html.Screen,4_38_1,2023-09-15T04:30:57.094Z,,0,,,NaN,,,,,,false,,,,224705.10000014305,224704.70000004768,,224704,,224729.669,8,400,,,
break_continue,html.Screen,4_38_2,2023-09-15T04:30:57.095Z,,0,,,NaN,,,,,,false,,,,224705.60000014305,224705.5,,224705.29999995232,,224729.669,8,400,,,
sequence,flow.Sequence,4_38,2023-09-15T04:30:57.095Z,,0,,,3661.8280000000086,completion,,,,,false,,,,224705.79999995232,224705.5,221027.055,221022.29999995232,221043.672,224729.669,8,400,,,
trial,html.Screen,4_39_0,2023-09-15T04:30:59.983Z,,0,1,,2863.5310000476893,response,ISIC_0012681.JPG,4,ISIC_8389361.JPG,ISIC_0012681.JPG,false,1,keypress(m),500,227593.40000009537,227593.20000004768,224712.96,224705.90000009537,224729.669,227614.908,8,400,40,,ISIC_8389361.JPG
break,html.Screen,4_39_1,2023-09-15T04:30:59.984Z,,0,,,NaN,,,,,,false,,,,227594.5,227594.20000004768,,227593.70000004768,,227614.908,8,400,,,
break_continue,html.Screen,4_39_2,2023-09-15T04:30:59.984Z,,0,,,NaN,,,,,,false,,,,227595.20000004768,227595,,227594.79999995232,,227614.908,8,400,,,
sequence,flow.Sequence,4_39,2023-09-15T04:30:59.984Z,,0,,,2865.3310000000056,completion,,,,,false,,,,227595.40000009537,227595,224712.96,224705.90000009537,224729.669,227614.908,8,400,,,
trial,html.Screen,4_40_0,2023-09-15T04:31:03.955Z,,0,1,,3950.792000047688,response,ISIC_0024999.JPG,6,ISIC_8425541.JPG,ISIC_8425541.JPG,false,0,keypress(z),500,231566.10000014305,231565.70000004768,227598.318,227595.5,227614.908,231584.318,8,400,41,,ISIC_0024999.JPG
break,html.Screen,4_40_1,2023-09-15T04:31:03.956Z,,0,,,NaN,,,,,,false,,,,231567.10000014305,231566.79999995232,,231566.29999995232,,231584.318,8,400,,,
break_continue,html.Screen,4_40_2,2023-09-15T04:31:03.957Z,,0,,,NaN,,,,,,false,,,,231567.5,231567.40000009537,,231567.20000004768,,231584.318,8,400,,,
sequence,flow.Sequence,4_40,2023-09-15T04:31:03.957Z,,0,,,3952.4920000953716,completion,,,,,false,,,,231567.70000004768,231567.40000009537,227598.318,227595.5,227614.908,231584.318,8,400,,,
trial,html.Screen,4_41_0,2023-09-15T04:31:07.783Z,,0,1,,3809.481999952317,response,ISIC_7536704.JPG,4,ISIC_8843592.JPG,ISIC_8843592.JPG,false,0,keypress(z),500,235394,235393.79999995232,231567.671,231567.90000009537,231584.318,235420.246,8,400,42,,ISIC_7536704.JPG
break,html.Screen,4_41_1,2023-09-15T04:31:07.784Z,,0,,,NaN,,,,,,false,,,,235395,235394.60000014305,,235394.20000004768,,235420.246,8,400,,,
break_continue,html.Screen,4_41_2,2023-09-15T04:31:07.784Z,,0,,,NaN,,,,,,false,,,,235395.40000009537,235395.29999995232,,235395.10000014305,,235420.246,8,400,,,
sequence,flow.Sequence,4_41,2023-09-15T04:31:07.785Z,,0,,,3810.981999952317,completion,,,,,false,,,,235395.60000014305,235395.29999995232,231567.671,231567.79999995232,231584.318,235420.246,8,400,,,
trial,html.Screen,4_42_0,2023-09-15T04:31:11.467Z,,0,1,,3657.1540000953537,response,ISIC_6592334.JPG,5,ISIC_2483825.JPG,ISIC_6592334.JPG,false,1,keypress(m),500,239077.79999995232,239077.40000009537,235403.555,235395.70000004768,235420.246,239106.156,8,400,43,,ISIC_2483825.JPG
break,html.Screen,4_42_1,2023-09-15T04:31:11.468Z,,0,,,NaN,,,,,,false,,,,239078.90000009537,239078.60000014305,,239078,,239106.156,8,400,,,
break_continue,html.Screen,4_42_2,2023-09-15T04:31:11.468Z,,0,,,NaN,,,,,,false,,,,239079.40000009537,239079.29999995232,,239079,,239106.156,8,400,,,
sequence,flow.Sequence,4_42,2023-09-15T04:31:11.469Z,,0,,,3659.0539999523025,completion,,,,,false,,,,239079.60000014305,239079.29999995232,235403.555,235395.70000004768,235420.246,239106.156,8,400,,,
trial,html.Screen,4_43_0,2023-09-15T04:31:16.158Z,,0,1,,4663.044000047696,response,ISIC_8363485.JPG,5,ISIC_9336830.JPG,ISIC_8363485.JPG,false,1,keypress(m),500,243769.5,243769.20000004768,239089.547,239079.79999995232,239106.156,243792.692,8,400,44,,ISIC_9336830.JPG
break,html.Screen,4_43_1,2023-09-15T04:31:16.160Z,,0,,,NaN,,,,,,false,,,,243771.10000014305,243770.60000014305,,243769.79999995232,,243792.692,8,400,,,
break_continue,html.Screen,4_43_2,2023-09-15T04:31:16.161Z,,0,,,NaN,,,,,,false,,,,243771.79999995232,243771.60000014305,,243771.29999995232,,243792.692,8,400,,,
sequence,flow.Sequence,4_43,2023-09-15T04:31:16.161Z,,0,,,4665.444000143063,completion,,,,,false,,,,243772,243771.60000014305,239089.547,239079.79999995232,239106.156,243792.692,8,400,,,
trial,html.Screen,4_44_0,2023-09-15T04:31:19.751Z,,0,1,,3569.408000143041,response,ISIC_0058255.JPG,4,ISIC_1805602.JPG,ISIC_0058255.JPG,false,1,keypress(m),500,247362.60000014305,247362.10000014305,243776.027,243772.20000004768,243792.692,247378.668,8,400,45,,ISIC_1805602.JPG
break,html.Screen,4_44_1,2023-09-15T04:31:19.753Z,,0,,,NaN,,,,,,false,,,,247363.90000009537,247363.60000014305,,247362.79999995232,,247378.668,8,400,,,
break_continue,html.Screen,4_44_2,2023-09-15T04:31:19.753Z,,0,,,NaN,,,,,,false,,,,247364.40000009537,247364.29999995232,,247364.10000014305,,247378.668,8,400,,,
sequence,flow.Sequence,4_44,2023-09-15T04:31:19.754Z,,0,,,3571.6079999523063,completion,,,,,false,,,,247364.70000004768,247364.29999995232,243776.027,243772.10000014305,243792.692,247378.668,8,400,,,
trial,html.Screen,4_45_0,2023-09-15T04:31:23.580Z,,0,1,,3812.0320000476786,response,ISIC_4223734.JPG,4,ISIC_8348712.JPG,ISIC_4223734.JPG,false,1,keypress(m),500,251190.90000009537,251190.70000004768,247361.886,247364.90000009537,247378.668,251214.474,8,400,46,,ISIC_8348712.JPG
break,html.Screen,4_45_1,2023-09-15T04:31:23.581Z,,0,,,NaN,,,,,,false,,,,251192.5,251192.10000014305,,251191.40000009537,,251214.474,8,400,,,
break_continue,html.Screen,4_45_2,2023-09-15T04:31:23.582Z,,0,,,NaN,,,,,,false,,,,251193,251192.90000009537,,251192.60000014305,,251214.474,8,400,,,
sequence,flow.Sequence,4_45,2023-09-15T04:31:23.582Z,,0,,,3814.2320000953623,completion,,,,,false,,,,251193.20000004768,251192.90000009537,247361.886,247364.79999995232,247378.668,251214.474,8,400,,,
trial,html.Screen,4_46_0,2023-09-15T04:31:26.912Z,,0,1,,3308.6260001430637,response,ISIC_6577632.JPG,5,ISIC_4707475.JPG,ISIC_4707475.JPG,false,0,keypress(z),500,254523.40000009537,254523.10000014305,251197.745,251193.40000009537,251214.474,254550.083,8,400,47,,ISIC_6577632.JPG
break,html.Screen,4_46_1,2023-09-15T04:31:26.914Z,,0,,,NaN,,,,,,false,,,,254524.90000009537,254524.60000014305,,254523.70000004768,,254550.083,8,400,,,
break_continue,html.Screen,4_46_2,2023-09-15T04:31:26.914Z,,0,,,NaN,,,,,,false,,,,254525.5,254525.40000009537,,254525.10000014305,,254550.083,8,400,,,
sequence,flow.Sequence,4_46,2023-09-15T04:31:26.915Z,,0,,,3310.92600009538,completion,,,,,false,,,,254525.70000004768,254525.40000009537,251197.745,251193.29999995232,251214.474,254550.083,8,400,,,
trial,html.Screen,4_47_0,2023-09-15T04:31:32.645Z,,0,1,,5705.817000095354,response,ISIC_0025277.JPG,4,ISIC_0062286.JPG,ISIC_0062286.JPG,false,0,keypress(z),500,260256.29999995232,260255.90000009537,254533.391,254525.90000009537,254550.083,260287.407,8,400,48,,ISIC_0025277.JPG
break,html.Screen,4_47_1,2023-09-15T04:31:32.647Z,,0,,,NaN,,,,,,false,,,,260257.79999995232,260257.40000009537,,260256.70000004768,,260287.407,8,400,,,
break_continue,html.Screen,4_47_2,2023-09-15T04:31:32.647Z,,0,,,NaN,,,,,,false,,,,260258.5,260258.5,,260258.10000014305,,260287.407,8,400,,,
sequence,flow.Sequence,4_47,2023-09-15T04:31:32.648Z,,0,,,5708.416999999987,completion,,,,,false,,,,260258.70000004768,260258.5,254533.391,254525.90000009537,254550.083,260287.407,8,400,,,
trial,html.Screen,4_48_0,2023-09-15T04:31:37.471Z,,0,1,,4794.193000143045,response,ISIC_0029863.JPG,4,ISIC_0071180.JPG,ISIC_0071180.JPG,false,0,keypress(z),500,265081.90000009537,265081.60000014305,260270.804,260258.90000009537,260287.407,265107.175,8,400,49,,ISIC_0029863.JPG
break,html.Screen,4_48_1,2023-09-15T04:31:37.472Z,,0,,,NaN,,,,,,false,,,,265082.7999999523,265082.5,,265082,,265107.175,8,400,,,
break_continue,html.Screen,4_48_2,2023-09-15T04:31:37.472Z,,0,,,NaN,,,,,,false,,,,265083.2999999523,265083.2000000477,,265083,,265107.175,8,400,,,
sequence,flow.Sequence,4_48,2023-09-15T04:31:37.472Z,,0,,,4795.793000047677,completion,,,,,false,,,,265083.5,265083.2000000477,260270.804,260258.90000009537,260287.407,265107.175,8,400,,,
trial,html.Screen,4_49_0,2023-09-15T04:31:40.338Z,,0,1,,2842.3250000000116,response,ISIC_0055147.JPG,5,ISIC_4781223.JPG,ISIC_0055147.JPG,false,1,keypress(m),500,267949.60000014305,267949.5,265090.496,265083.5,265107.175,267975.842,8,400,50,,ISIC_4781223.JPG
break,html.Screen,4_49_1,2023-09-15T04:31:50.356Z,,0,,,10006.974999999977,timeout,,,,,false,,,,277967,277966.049,267959.144,267949.7000000477,267975.842,277982.817,8,400,,,
break_continue,html.Screen,4_49_2,2023-09-15T04:31:52.376Z,,0,,,1998.0830000953865,response,,,,,false,continue,keypress(Space),,279986.7000000477,279980.90000009537,277966.049,277967.10000014305,277982.817,280000.814,8,400,,,
sequence,flow.Sequence,4_49,2023-09-15T04:31:52.376Z,,0,,,14873.725000095379,completion,,,,,false,,,,279986.7999999523,279980.90000009537,265090.496,265083.5,265107.175,280000.814,8,400,,,
trial,html.Screen,4_50_0,2023-09-15T04:31:56.640Z,,0,2,,4250.386000047671,response,ISIC_3072382.JPG,5,ISIC_6001716.JPG,ISIC_6001716.JPG,false,0,keypress(z),500,284251.60000014305,284251.2000000477,279984.021,279986.90000009537,280000.814,284270.393,8,400,1,,ISIC_3072382.JPG
break,html.Screen,4_50_1,2023-09-15T04:31:56.641Z,,0,,,NaN,,,,,,false,,,,284252.5,284252.2999999523,,284251.7999999523,,284270.393,8,400,,,
break_continue,html.Screen,4_50_2,2023-09-15T04:31:56.642Z,,0,,,NaN,,,,,,false,,,,284252.90000009537,284252.7999999523,,284252.60000014305,,284270.393,8,400,,,
sequence,flow.Sequence,4_50,2023-09-15T04:31:56.642Z,,0,,,4251.985999952303,completion,,,,,false,,,,284253,284252.7999999523,279984.021,279986.90000009537,280000.814,284270.393,8,400,,,
trial,html.Screen,4_51_0,2023-09-15T04:32:00.342Z,,0,2,,3682.807000047702,response,ISIC_0068966.JPG,5,ISIC_4678416.JPG,ISIC_4678416.JPG,false,0,keypress(z),500,287953.5,287953.2000000477,284253.672,284253.10000014305,284270.393,287972.992,8,400,2,,ISIC_0068966.JPG
break,html.Screen,4_51_1,2023-09-15T04:32:00.343Z,,0,,,NaN,,,,,,false,,,,287954.5,287954.2000000477,,287953.7000000477,,287972.992,8,400,,,
break_continue,html.Screen,4_51_2,2023-09-15T04:32:00.344Z,,0,,,NaN,,,,,,false,,,,287955,287954.90000009537,,287954.60000014305,,287972.992,8,400,,,
sequence,flow.Sequence,4_51,2023-09-15T04:32:00.344Z,,0,,,3684.5070000953856,completion,,,,,false,,,,287955.2000000477,287954.90000009537,284253.672,284253.10000014305,284270.393,287972.992,8,400,,,
trial,html.Screen,4_52_0,2023-09-15T04:32:04.141Z,,0,2,,3779.307999952289,response,ISIC_3386656.JPG,5,ISIC_0884550.JPG,ISIC_0884550.JPG,false,0,keypress(z),500,291752.5,291752.2999999523,287956.216,287955.2999999523,287972.992,291775.491,8,400,3,,ISIC_3386656.JPG
break,html.Screen,4_52_1,2023-09-15T04:32:04.143Z,,0,,,NaN,,,,,,false,,,,291753.60000014305,291753.2999999523,,291752.7999999523,,291775.491,8,400,,,
break_continue,html.Screen,4_52_2,2023-09-15T04:32:04.143Z,,0,,,NaN,,,,,,false,,,,291754.2000000477,291754,,291753.7999999523,,291775.491,8,400,,,
sequence,flow.Sequence,4_52,2023-09-15T04:32:04.143Z,,0,,,3781.0079999999725,completion,,,,,false,,,,291754.5,291754,287956.216,287955.2000000477,287972.992,291775.491,8,400,,,
trial,html.Screen,4_53_0,2023-09-15T04:32:13.603Z,,0,2,,9438.109000143071,response,ISIC_0027063.JPG,6,ISIC_5559165.JPG,ISIC_0027063.JPG,false,1,keypress(m),500,301213.7999999523,301213.60000014305,291758.819,291754.60000014305,291775.491,301231.948,8,400,4,,ISIC_5559165.JPG
break,html.Screen,4_53_1,2023-09-15T04:32:13.604Z,,0,,,NaN,,,,,,false,,,,301214.90000009537,301214.60000014305,,301214,,301231.948,8,400,,,
break_continue,html.Screen,4_53_2,2023-09-15T04:32:13.604Z,,0,,,NaN,,,,,,false,,,,301215.60000014305,301215.2999999523,,301215,,301231.948,8,400,,,
sequence,flow.Sequence,4_53,2023-09-15T04:32:13.605Z,,0,,,9439.808999952336,completion,,,,,false,,,,301215.90000009537,301215.2999999523,291758.819,291754.60000014305,291775.491,301231.948,8,400,,,
trial,html.Screen,4_54_0,2023-09-15T04:32:17.319Z,,0,2,,3697.9520000953926,response,ISIC_9667297.JPG,6,ISIC_0027276.JPG,ISIC_9667297.JPG,false,1,keypress(m),500,304930.10000014305,304929.90000009537,301215.288,301216.10000014305,301231.948,304951.168,8,400,5,,ISIC_0027276.JPG
break,html.Screen,4_54_1,2023-09-15T04:32:17.320Z,,0,,,NaN,,,,,,false,,,,304931,304930.7000000477,,304930.40000009537,,304951.168,8,400,,,
break_continue,html.Screen,4_54_2,2023-09-15T04:32:17.320Z,,0,,,NaN,,,,,,false,,,,304931.2999999523,304931.2999999523,,304931.10000014305,,304951.168,8,400,,,
sequence,flow.Sequence,4_54,2023-09-15T04:32:17.320Z,,0,,,3699.3519999523414,completion,,,,,false,,,,304931.5,304931.2999999523,301215.288,301216,301231.948,304951.168,8,400,,,
trial,html.Screen,4_55_0,2023-09-15T04:32:20.301Z,,0,2,,2960.932000143046,response,ISIC_3440004.JPG,5,ISIC_0015023.JPG,ISIC_0015023.JPG,false,0,keypress(z),500,307912.40000009537,307912.10000014305,304934.518,304931.5,304951.168,307936.571,8,400,6,,ISIC_3440004.JPG
break,html.Screen,4_55_1,2023-09-15T04:32:20.302Z,,0,,,NaN,,,,,,false,,,,307913.2000000477,307913,,307912.60000014305,,307936.571,8,400,,,
break_continue,html.Screen,4_55_2,2023-09-15T04:32:20.302Z,,0,,,NaN,,,,,,false,,,,307913.60000014305,307913.5,,307913.40000009537,,307936.571,8,400,,,
sequence,flow.Sequence,4_55,2023-09-15T04:32:20.303Z,,0,,,2962.331999999995,completion,,,,,false,,,,307913.7999999523,307913.5,304934.518,304931.5,304951.168,307936.571,8,400,,,
trial,html.Screen,4_56_0,2023-09-15T04:32:23.905Z,,0,2,,3579.22899995232,response,ISIC_0001831.JPG,6,ISIC_6269543.JPG,ISIC_0001831.JPG,false,1,keypress(m),500,311516,311515.7999999523,307919.94,307913.90000009537,307936.571,311539.067,8,400,7,,ISIC_6269543.JPG
break,html.Screen,4_56_1,2023-09-15T04:32:23.906Z,,0,,,NaN,,,,,,false,,,,311517.2999999523,311516.7999999523,,311516.2000000477,,311539.067,8,400,,,
break_continue,html.Screen,4_56_2,2023-09-15T04:32:23.907Z,,0,,,NaN,,,,,,false,,,,311517.7000000477,311517.60000014305,,311517.40000009537,,311539.067,8,400,,,
sequence,flow.Sequence,4_56,2023-09-15T04:32:23.907Z,,0,,,3581.029000143055,completion,,,,,false,,,,311518,311517.60000014305,307919.94,307913.90000009537,307936.571,311539.067,8,400,,,
trial,html.Screen,4_57_0,2023-09-15T04:32:27.158Z,,0,2,,3230.0330001430702,response,ISIC_0283506.JPG,5,ISIC_0024853.JPG,ISIC_0283506.JPG,false,1,keypress(m),500,314769.2999999523,314769.10000014305,311522.384,311518,311539.067,314791.253,8,400,8,,ISIC_0024853.JPG
break,html.Screen,4_57_1,2023-09-15T04:32:27.159Z,,0,,,NaN,,,,,,false,,,,314770.2999999523,314770.10000014305,,314769.5,,314791.253,8,400,,,
break_continue,html.Screen,4_57_2,2023-09-15T04:32:27.160Z,,0,,,NaN,,,,,,false,,,,314770.90000009537,314770.7000000477,,314770.5,,314791.253,8,400,,,
sequence,flow.Sequence,4_57,2023-09-15T04:32:27.160Z,,0,,,3231.633000047703,completion,,,,,false,,,,314771,314770.7000000477,311522.384,311518,311539.067,314791.253,8,400,,,
trial,html.Screen,4_58_0,2023-09-15T04:32:30.681Z,,0,2,,3501.1470000953414,response,ISIC_5092834.JPG,4,ISIC_5049165.JPG,ISIC_5049165.JPG,false,0,keypress(z),500,318292.60000014305,318292.40000009537,314774.587,314771.10000014305,314791.253,318310.487,8,400,9,,ISIC_5092834.JPG
break,html.Screen,4_58_1,2023-09-15T04:32:30.682Z,,0,,,NaN,,,,,,false,,,,318293.60000014305,318293.40000009537,,318292.90000009537,,318310.487,8,400,,,
break_continue,html.Screen,4_58_2,2023-09-15T04:32:30.683Z,,0,,,NaN,,,,,,false,,,,318294.2000000477,318294,,318293.7000000477,,318310.487,8,400,,,
sequence,flow.Sequence,4_58,2023-09-15T04:32:30.683Z,,0,,,3502.746999999974,completion,,,,,false,,,,318294.2999999523,318294,314774.587,314771.10000014305,314791.253,318310.487,8,400,,,
trial,html.Screen,4_59_0,2023-09-15T04:32:35.484Z,,0,2,,4785.012999999977,response,ISIC_0033512.JPG,5,ISIC_0030101.JPG,ISIC_0033512.JPG,false,1,keypress(m),500,323095.7999999523,323095.5,318293.757,318294.2999999523,318310.487,323113.793,8,400,10,,ISIC_0030101.JPG
break,html.Screen,4_59_1,2023-09-15T04:32:35.485Z,,0,,,NaN,,,,,,false,,,,323096.5,323096.2999999523,,323095.90000009537,,323113.793,8,400,,,
break_continue,html.Screen,4_59_2,2023-09-15T04:32:35.486Z,,0,,,NaN,,,,,,false,,,,323096.7999999523,323096.7000000477,,323096.5,,323113.793,8,400,,,
sequence,flow.Sequence,4_59,2023-09-15T04:32:35.486Z,,0,,,4786.213000047661,completion,,,,,false,,,,323097,323096.7000000477,318293.757,318294.2999999523,318310.487,323113.793,8,400,,,
trial,html.Screen,4_60_0,2023-09-15T04:32:39.922Z,,0,2,,4418.807000143046,response,ISIC_6497135.JPG,6,ISIC_9439034.JPG,ISIC_6497135.JPG,false,1,keypress(m),500,327532.90000009537,327532.60000014305,323096.987,323097.10000014305,323113.793,327550.015,8,400,11,,ISIC_9439034.JPG
break,html.Screen,4_60_1,2023-09-15T04:32:39.923Z,,0,,,NaN,,,,,,false,,,,327534.10000014305,327533.7999999523,,327533.10000014305,,327550.015,8,400,,,
break_continue,html.Screen,4_60_2,2023-09-15T04:32:39.923Z,,0,,,NaN,,,,,,false,,,,327534.60000014305,327534.5,,327534.2000000477,,327550.015,8,400,,,
sequence,flow.Sequence,4_60,2023-09-15T04:32:39.924Z,,0,,,4420.706999999995,completion,,,,,false,,,,327534.7999999523,327534.5,323096.987,323097.10000014305,323113.793,327550.015,8,400,,,
trial,html.Screen,4_61_0,2023-09-15T04:32:43.311Z,,0,2,,3372.085000143037,response,ISIC_1641823.JPG,5,ISIC_0034188.JPG,ISIC_0034188.JPG,false,0,keypress(z),500,330922.5,330922.10000014305,327533.315,327535.10000014305,327550.015,330952.347,8,400,12,,ISIC_1641823.JPG
break,html.Screen,4_61_1,2023-09-15T04:32:43.313Z,,0,,,NaN,,,,,,false,,,,330923.7999999523,330923.2999999523,,330922.60000014305,,330952.347,8,400,,,
break_continue,html.Screen,4_61_2,2023-09-15T04:32:43.313Z,,0,,,NaN,,,,,,false,,,,330924.2000000477,330924.10000014305,,330923.7999999523,,330952.347,8,400,,,
sequence,flow.Sequence,4_61,2023-09-15T04:32:43.313Z,,0,,,3374.085000143037,completion,,,,,false,,,,330924.2999999523,330924.10000014305,327533.315,327535,327550.015,330952.347,8,400,,,
trial,html.Screen,4_62_0,2023-09-15T04:32:46.951Z,,0,2,,3609.9529999523074,response,ISIC_9278685.JPG,5,ISIC_8790198.JPG,ISIC_9278685.JPG,false,1,keypress(m),500,334562.5,334562.2999999523,330935.752,330924.40000009537,330952.347,334588.208,8,400,13,,ISIC_8790198.JPG
break,html.Screen,4_62_1,2023-09-15T04:32:46.952Z,,0,,,NaN,,,,,,false,,,,334563.40000009537,334563.10000014305,,334562.60000014305,,334588.208,8,400,,,
break_continue,html.Screen,4_62_2,2023-09-15T04:32:46.952Z,,0,,,NaN,,,,,,false,,,,334563.7999999523,334563.60000014305,,334563.5,,334588.208,8,400,,,
sequence,flow.Sequence,4_62,2023-09-15T04:32:46.953Z,,0,,,3611.2530001430423,completion,,,,,false,,,,334563.90000009537,334563.60000014305,330935.752,330924.40000009537,330952.347,334588.208,8,400,,,
trial,html.Screen,4_63_0,2023-09-15T04:32:50.622Z,,0,2,,3644.392000143067,response,ISIC_7492682.JPG,5,ISIC_5028203.JPG,ISIC_5028203.JPG,false,0,keypress(z),500,338232.90000009537,338232.60000014305,334571.456,334564,334588.208,338257.52,8,400,14,,ISIC_7492682.JPG
break,html.Screen,4_63_1,2023-09-15T04:32:50.623Z,,0,,,NaN,,,,,,false,,,,338233.7999999523,338233.60000014305,,338233.10000014305,,338257.52,8,400,,,
break_continue,html.Screen,4_63_2,2023-09-15T04:32:50.623Z,,0,,,NaN,,,,,,false,,,,338234.2999999523,338234.10000014305,,338233.90000009537,,338257.52,8,400,,,
sequence,flow.Sequence,4_63,2023-09-15T04:32:50.623Z,,0,,,3645.892000143067,completion,,,,,false,,,,338234.5,338234.10000014305,334571.456,334564,334588.208,338257.52,8,400,,,
trial,html.Screen,4_64_0,2023-09-15T04:32:54.417Z,,0,2,,3770.2799999522977,response,ISIC_4477599.JPG,5,ISIC_0055393.JPG,ISIC_4477599.JPG,false,1,keypress(m),500,342027.90000009537,342027.7999999523,338240.752,338234.5,338257.52,342059.926,8,400,15,,ISIC_0055393.JPG
break,html.Screen,4_64_1,2023-09-15T04:32:54.417Z,,0,,,NaN,,,,,,false,,,,342028.7000000477,342028.5,,342028.10000014305,,342059.926,8,400,,,
break_continue,html.Screen,4_64_2,2023-09-15T04:32:54.418Z,,0,,,NaN,,,,,,false,,,,342029.2000000477,342029,,342028.90000009537,,342059.926,8,400,,,
sequence,flow.Sequence,4_64,2023-09-15T04:32:54.418Z,,0,,,3771.4799999999814,completion,,,,,false,,,,342029.2000000477,342029,338240.752,338234.5,338257.52,342059.926,8,400,,,
trial,html.Screen,4_65_0,2023-09-15T04:32:57.971Z,,0,2,,3522.274000047706,response,ISIC_6001936.JPG,5,ISIC_6909624.JPG,ISIC_6001936.JPG,false,1,keypress(m),500,345582.5,345582.2000000477,342043.307,342029.2999999523,342059.926,345612.428,8,400,16,,ISIC_6909624.JPG
break,html.Screen,4_65_1,2023-09-15T04:32:57.972Z,,0,,,NaN,,,,,,false,,,,345583.5,345583.2000000477,,345582.7000000477,,345612.428,8,400,,,
break_continue,html.Screen,4_65_2,2023-09-15T04:32:57.973Z,,0,,,NaN,,,,,,false,,,,345583.90000009537,345583.7999999523,,345583.60000014305,,345612.428,8,400,,,
sequence,flow.Sequence,4_65,2023-09-15T04:32:57.973Z,,0,,,3523.8739999523386,completion,,,,,false,,,,345584.10000014305,345583.7999999523,342043.307,342029.2999999523,342059.926,345612.428,8,400,,,
trial,html.Screen,4_66_0,2023-09-15T04:33:01.271Z,,0,2,,3269.7720000476693,response,ISIC_6685513.JPG,5,ISIC_2031626.JPG,ISIC_6685513.JPG,false,1,keypress(m),500,348882.5,348882.2000000477,345595.662,345584.2000000477,345612.428,348914.834,8,400,17,,ISIC_2031626.JPG
break,html.Screen,4_66_1,2023-09-15T04:33:01.272Z,,0,,,NaN,,,,,,false,,,,348883.5,348883.2999999523,,348882.7000000477,,348914.834,8,400,,,
break_continue,html.Screen,4_66_2,2023-09-15T04:33:01.273Z,,0,,,NaN,,,,,,false,,,,348884.2999999523,348883.90000009537,,348883.7000000477,,348914.834,8,400,,,
sequence,flow.Sequence,4_66,2023-09-15T04:33:01.273Z,,0,,,3271.472000095353,completion,,,,,false,,,,348884.5,348883.90000009537,345595.662,345584.2000000477,345612.428,348914.834,8,400,,,
trial,html.Screen,4_67_0,2023-09-15T04:33:05.323Z,,0,2,,4019.566000095394,response,ISIC_4958006.JPG,5,ISIC_2517072.JPG,ISIC_4958006.JPG,false,1,keypress(m),500,352934.7000000477,352934.40000009537,348898.069,348884.7000000477,348914.834,352950.709,8,400,18,,ISIC_2517072.JPG
break,html.Screen,4_67_1,2023-09-15T04:33:05.324Z,,0,,,NaN,,,,,,false,,,,352935.7000000477,352935.40000009537,,352934.90000009537,,352950.709,8,400,,,
break_continue,html.Screen,4_67_2,2023-09-15T04:33:05.325Z,,0,,,NaN,,,,,,false,,,,352936.2999999523,352936.2000000477,,352936,,352950.709,8,400,,,
sequence,flow.Sequence,4_67,2023-09-15T04:33:05.325Z,,0,,,4021.3660000477103,completion,,,,,false,,,,352936.40000009537,352936.2000000477,348898.069,348884.60000014305,348914.834,352950.709,8,400,,,
trial,html.Screen,4_68_0,2023-09-15T04:33:12.583Z,,0,2,,7242.891000143078,response,ISIC_0066412.JPG,5,ISIC_0047003.JPG,ISIC_0047003.JPG,false,0,keypress(z),500,360193.90000009537,360193.60000014305,352934.064,352936.60000014305,352950.709,360222.456,8,400,19,,ISIC_0066412.JPG
break,html.Screen,4_68_1,2023-09-15T04:33:12.584Z,,0,,,NaN,,,,,,false,,,,360194.90000009537,360194.60000014305,,360194.2000000477,,360222.456,8,400,,,
break_continue,html.Screen,4_68_2,2023-09-15T04:33:12.584Z,,0,,,NaN,,,,,,false,,,,360195.2999999523,360195.2999999523,,360195,,360222.456,8,400,,,
sequence,flow.Sequence,4_68,2023-09-15T04:33:12.584Z,,0,,,7244.590999952343,completion,,,,,false,,,,360195.5,360195.2999999523,352934.064,352936.60000014305,352950.709,360222.456,8,400,,,
trial,html.Screen,4_69_0,2023-09-15T04:33:17.594Z,,0,2,,4982.343999952311,response,ISIC_0032558.JPG,5,ISIC_8562820.JPG,ISIC_0032558.JPG,false,1,keypress(m),500,365205.2000000477,365204.7999999523,360205.704,360195.5,360222.456,365225.814,8,400,20,,ISIC_8562820.JPG
break,html.Screen,4_69_1,2023-09-15T04:33:17.595Z,,0,,,NaN,,,,,,false,,,,365206.2000000477,365206,,365205.2999999523,,365225.814,8,400,,,
break_continue,html.Screen,4_69_2,2023-09-15T04:33:17.596Z,,0,,,NaN,,,,,,false,,,,365206.7999999523,365206.60000014305,,365206.2999999523,,365225.814,8,400,,,
sequence,flow.Sequence,4_69,2023-09-15T04:33:17.596Z,,0,,,4984.144000143046,completion,,,,,false,,,,365206.90000009537,365206.60000014305,360205.704,360195.5,360222.456,365225.814,8,400,,,
trial,html.Screen,4_70_0,2023-09-15T04:33:22.063Z,,0,2,,4447.786000143038,response,ISIC_4836699.JPG,4,ISIC_6320497.JPG,ISIC_6320497.JPG,false,0,keypress(z),500,369673.90000009537,369673.60000014305,365209.095,365207,365225.814,369695.589,8,400,21,,ISIC_4836699.JPG
break,html.Screen,4_70_1,2023-09-15T04:33:22.064Z,,0,,,NaN,,,,,,false,,,,369675.10000014305,369674.7000000477,,369674.2000000477,,369695.589,8,400,,,
break_continue,html.Screen,4_70_2,2023-09-15T04:33:22.064Z,,0,,,NaN,,,,,,false,,,,369675.7000000477,369675.5,,369675.2999999523,,369695.589,8,400,,,
sequence,flow.Sequence,4_70,2023-09-15T04:33:22.065Z,,0,,,4449.685999999987,completion,,,,,false,,,,369675.7999999523,369675.5,365209.095,365207,365225.814,369695.589,8,400,,,
trial,html.Screen,4_71_0,2023-09-15T04:33:25.554Z,,0,2,,3469.911000000022,response,ISIC_5537876.JPG,5,ISIC_0029026.JPG,ISIC_0029026.JPG,false,0,keypress(z),500,373165.60000014305,373165.5,369678.892,369676,369695.589,373197.979,8,400,22,,ISIC_5537876.JPG
break,html.Screen,4_71_1,2023-09-15T04:33:25.555Z,,0,,,NaN,,,,,,false,,,,373166.40000009537,373166.2000000477,,373165.7999999523,,373197.979,8,400,,,
break_continue,html.Screen,4_71_2,2023-09-15T04:33:25.556Z,,0,,,NaN,,,,,,false,,,,373166.90000009537,373166.7999999523,,373166.60000014305,,373197.979,8,400,,,
sequence,flow.Sequence,4_71,2023-09-15T04:33:25.556Z,,0,,,3471.210999952338,completion,,,,,false,,,,373167.10000014305,373166.7999999523,369678.892,369676,369695.589,373197.979,8,400,,,
trial,html.Screen,4_72_0,2023-09-15T04:33:31.430Z,,0,2,,5842.721000047692,response,ISIC_7098141.JPG,5,ISIC_0014395.JPG,ISIC_7098141.JPG,false,1,keypress(m),500,379040.90000009537,379040.7000000477,373181.24,373167.2999999523,373197.979,379068.655,8,400,23,,ISIC_0014395.JPG
break,html.Screen,4_72_1,2023-09-15T04:33:31.431Z,,0,,,NaN,,,,,,false,,,,379041.90000009537,379041.7000000477,,379041.2000000477,,379068.655,8,400,,,
break_continue,html.Screen,4_72_2,2023-09-15T04:33:31.431Z,,0,,,NaN,,,,,,false,,,,379042.2999999523,379042.2000000477,,379042,,379068.655,8,400,,,
sequence,flow.Sequence,4_72,2023-09-15T04:33:31.431Z,,0,,,5844.221000047692,completion,,,,,false,,,,379042.5,379042.2000000477,373181.24,373167.2999999523,373197.979,379068.655,8,400,,,
trial,html.Screen,4_73_0,2023-09-15T04:33:37.066Z,,0,2,,5608.7450000953395,response,ISIC_9276931.JPG,6,ISIC_0011627.JPG,ISIC_0011627.JPG,false,0,keypress(z),500,384677.5,384677.40000009537,379051.918,379042.60000014305,379068.655,384705.773,8,400,24,,ISIC_9276931.JPG
break,html.Screen,4_73_1,2023-09-15T04:33:37.067Z,,0,,,NaN,,,,,,false,,,,384678.60000014305,384678.2999999523,,384677.7999999523,,384705.773,8,400,,,
break_continue,html.Screen,4_73_2,2023-09-15T04:33:37.068Z,,0,,,NaN,,,,,,false,,,,384679,384678.90000009537,,384678.7000000477,,384705.773,8,400,,,
sequence,flow.Sequence,4_73,2023-09-15T04:33:37.068Z,,0,,,5610.2450000953395,completion,,,,,false,,,,384679.2999999523,384678.90000009537,379051.918,379042.5,379068.655,384705.773,8,400,,,
trial,html.Screen,4_74_0,2023-09-15T04:33:41.006Z,,0,2,,3911.02699995233,response,ISIC_0031417.JPG,5,ISIC_1396767.JPG,ISIC_0031417.JPG,false,1,keypress(m),500,388617,388616.7999999523,384689.185,384679.40000009537,384705.773,388641.948,8,400,25,,ISIC_1396767.JPG
break,html.Screen,4_74_1,2023-09-15T04:33:41.006Z,,0,,,NaN,,,,,,false,,,,388617.7000000477,388617.40000009537,,388617,,388641.948,8,400,,,
break_continue,html.Screen,4_74_2,2023-09-15T04:33:41.007Z,,0,,,NaN,,,,,,false,,,,388618,388617.90000009537,,388617.7999999523,,388641.948,8,400,,,
sequence,flow.Sequence,4_74,2023-09-15T04:33:41.007Z,,0,,,3912.127000095381,completion,,,,,false,,,,388618.10000014305,388617.90000009537,384689.185,384679.40000009537,384705.773,388641.948,8,400,,,
trial,html.Screen,4_75_0,2023-09-15T04:33:44.484Z,,0,2,,3452.4520000953926,response,ISIC_4566439.JPG,5,ISIC_0010050.JPG,ISIC_4566439.JPG,false,1,keypress(m),500,392094.7999999523,392094.40000009537,388625.133,388618.2000000477,388641.948,392110.927,8,400,26,,ISIC_0010050.JPG
break,html.Screen,4_75_1,2023-09-15T04:33:44.485Z,,0,,,NaN,,,,,,false,,,,392096.10000014305,392095.7000000477,,392095.10000014305,,392110.927,8,400,,,
break_continue,html.Screen,4_75_2,2023-09-15T04:33:44.485Z,,0,,,NaN,,,,,,false,,,,392096.7000000477,392096.5,,392096.2000000477,,392110.927,8,400,,,
sequence,flow.Sequence,4_75,2023-09-15T04:33:44.486Z,,0,,,3454.552000000025,completion,,,,,false,,,,392096.7999999523,392096.5,388625.133,388618.2000000477,388641.948,392110.927,8,400,,,
trial,html.Screen,4_76_0,2023-09-15T04:33:50.013Z,,0,2,,5512.473000095342,response,ISIC_5569091.JPG,4,ISIC_3230874.JPG,ISIC_3230874.JPG,false,0,keypress(z),500,397623.7000000477,397623.40000009537,392094.219,392096.90000009537,392110.927,397648.04,8,400,27,,ISIC_5569091.JPG
break,html.Screen,4_76_1,2023-09-15T04:33:50.014Z,,0,,,NaN,,,,,,false,,,,397624.7000000477,397624.5,,397623.90000009537,,397648.04,8,400,,,
break_continue,html.Screen,4_76_2,2023-09-15T04:33:50.014Z,,0,,,NaN,,,,,,false,,,,397625.2000000477,397625,,397624.90000009537,,397648.04,8,400,,,
sequence,flow.Sequence,4_76,2023-09-15T04:33:50.014Z,,0,,,5514.072999999975,completion,,,,,false,,,,397625.2999999523,397625,392094.219,392096.90000009537,392110.927,397648.04,8,400,,,
trial,html.Screen,4_77_0,2023-09-15T04:33:53.905Z,,0,2,,3867.3600000953884,response,ISIC_1834920.JPG,4,ISIC_1807276.JPG,ISIC_1834920.JPG,false,1,keypress(m),500,401515.7000000477,401515.40000009537,397631.372,397625.40000009537,397648.04,401534.048,8,400,28,,ISIC_1807276.JPG
break,html.Screen,4_77_1,2023-09-15T04:33:53.906Z,,0,,,NaN,,,,,,false,,,,401516.7000000477,401516.5,,401515.90000009537,,401534.048,8,400,,,
break_continue,html.Screen,4_77_2,2023-09-15T04:33:53.906Z,,0,,,NaN,,,,,,false,,,,401517.2000000477,401517,,401516.7999999523,,401534.048,8,400,,,
sequence,flow.Sequence,4_77,2023-09-15T04:33:53.906Z,,0,,,3868.960000000021,completion,,,,,false,,,,401517.40000009537,401517,397631.372,397625.40000009537,397648.04,401534.048,8,400,,,
trial,html.Screen,4_78_0,2023-09-15T04:33:58.740Z,,0,2,,4817.052000143041,response,ISIC_0028505.JPG,5,ISIC_0013972.JPG,ISIC_0013972.JPG,false,0,keypress(z),500,406351.2000000477,406351.10000014305,401517.374,401517.40000009537,401534.048,406370.669,8,400,29,,ISIC_0028505.JPG
break,html.Screen,4_78_1,2023-09-15T04:33:58.741Z,,0,,,NaN,,,,,,false,,,,406351.7999999523,406351.7000000477,,406351.2999999523,,406370.669,8,400,,,
break_continue,html.Screen,4_78_2,2023-09-15T04:33:58.741Z,,0,,,NaN,,,,,,false,,,,406352.10000014305,406352,,406351.90000009537,,406370.669,8,400,,,
sequence,flow.Sequence,4_78,2023-09-15T04:33:58.741Z,,0,,,4817.95199999999,completion,,,,,false,,,,406352.2000000477,406352,401517.374,401517.40000009537,401534.048,406370.669,8,400,,,
trial,html.Screen,4_79_0,2023-09-15T04:34:01.686Z,,0,2,,2926.630999952322,response,ISIC_0010098.JPG,5,ISIC_6806124.JPG,ISIC_6806124.JPG,false,0,keypress(z),500,409297.7000000477,409297.2999999523,406354.082,406352.2999999523,406370.669,409322.74,8,400,30,,ISIC_0010098.JPG
break,html.Screen,4_79_1,2023-09-15T04:34:01.687Z,,0,,,NaN,,,,,,false,,,,409298.7000000477,409298.40000009537,,409297.90000009537,,409322.74,8,400,,,
break_continue,html.Screen,4_79_2,2023-09-15T04:34:01.690Z,,0,,,NaN,,,,,,false,,,,409301,409300.90000009537,,409300.40000009537,,409322.74,8,400,,,
sequence,flow.Sequence,4_79,2023-09-15T04:34:01.690Z,,0,,,2930.231000095373,completion,,,,,false,,,,409301.2000000477,409300.90000009537,406354.082,406352.2999999523,406370.669,409322.74,8,400,,,
trial,html.Screen,4_80_0,2023-09-15T04:34:05.424Z,,0,2,,3712.5599999523256,response,ISIC_0016081.JPG,5,ISIC_6620748.JPG,ISIC_6620748.JPG,false,0,keypress(z),500,413035.60000014305,413035.2999999523,409306.112,409301.40000009537,409322.74,413058.627,8,400,31,,ISIC_0016081.JPG
break,html.Screen,4_80_1,2023-09-15T04:34:05.425Z,,0,,,NaN,,,,,,false,,,,413036.60000014305,413036.40000009537,,413035.7999999523,,413058.627,8,400,,,
break_continue,html.Screen,4_80_2,2023-09-15T04:34:05.426Z,,0,,,NaN,,,,,,false,,,,413037.10000014305,413037,,413036.7999999523,,413058.627,8,400,,,
sequence,flow.Sequence,4_80,2023-09-15T04:34:05.426Z,,0,,,3714.2600000000093,completion,,,,,false,,,,413037.2999999523,413037,409306.112,409301.40000009537,409322.74,413058.627,8,400,,,
trial,html.Screen,4_81_0,2023-09-15T04:34:16.903Z,,0,2,,11455.573000047705,response,ISIC_6265473.JPG,4,ISIC_0030780.JPG,ISIC_6265473.JPG,false,1,keypress(m),500,424514.40000009537,424514.2000000477,413041.963,413037.40000009537,413058.627,424533.125,8,400,32,,ISIC_0030780.JPG
break,html.Screen,4_81_1,2023-09-15T04:34:16.904Z,,0,,,NaN,,,,,,false,,,,424515.40000009537,424515.10000014305,,424514.60000014305,,424533.125,8,400,,,
break_continue,html.Screen,4_81_2,2023-09-15T04:34:16.904Z,,0,,,NaN,,,,,,false,,,,424515.7999999523,424515.7000000477,,424515.5,,424533.125,8,400,,,
sequence,flow.Sequence,4_81,2023-09-15T04:34:16.904Z,,0,,,11457.073000047705,completion,,,,,false,,,,424516,424515.7000000477,413041.963,413037.2999999523,413058.627,424533.125,8,400,,,
trial,html.Screen,4_82_0,2023-09-15T04:34:20.186Z,,0,2,,3264.6749999523163,response,ISIC_0234248.JPG,5,ISIC_0029086.JPG,ISIC_0234248.JPG,false,1,keypress(m),500,427798,427797.7999999523,424516.467,424516.10000014305,424533.125,427818.732,8,400,33,,ISIC_0029086.JPG
break,html.Screen,4_82_1,2023-09-15T04:34:20.187Z,,0,,,NaN,,,,,,false,,,,427799,427798.7999999523,,427798.2000000477,,427818.732,8,400,,,
break_continue,html.Screen,4_82_2,2023-09-15T04:34:20.188Z,,0,,,NaN,,,,,,false,,,,427799.40000009537,427799.2999999523,,427799.2000000477,,427818.732,8,400,,,
sequence,flow.Sequence,4_82,2023-09-15T04:34:20.188Z,,0,,,3266.1749999523163,completion,,,,,false,,,,427799.60000014305,427799.2999999523,424516.467,424516.10000014305,424533.125,427818.732,8,400,,,
trial,html.Screen,4_83_0,2023-09-15T04:34:24.447Z,,0,2,,4239.468000047666,response,ISIC_6899527.JPG,6,ISIC_6604862.JPG,ISIC_6604862.JPG,false,0,keypress(z),500,432058.40000009537,432058.2000000477,427802.07,427799.7999999523,427818.732,432088.359,8,400,34,,ISIC_6899527.JPG
break,html.Screen,4_83_1,2023-09-15T04:34:24.448Z,,0,,,NaN,,,,,,false,,,,432059.2000000477,432059,,432058.60000014305,,432088.359,8,400,,,
break_continue,html.Screen,4_83_2,2023-09-15T04:34:24.448Z,,0,,,NaN,,,,,,false,,,,432059.60000014305,432059.5,,432059.2999999523,,432088.359,8,400,,,
sequence,flow.Sequence,4_83,2023-09-15T04:34:24.448Z,,0,,,4240.767999999982,completion,,,,,false,,,,432059.7000000477,432059.5,427802.07,427799.7999999523,427818.732,432088.359,8,400,,,
trial,html.Screen,4_84_0,2023-09-15T04:34:27.971Z,,0,2,,3493.5410000953707,response,ISIC_0013165.JPG,4,ISIC_0066476.JPG,ISIC_0013165.JPG,false,1,keypress(m),500,435582.10000014305,435581.90000009537,432071.594,432059.7999999523,432088.359,435607.399,8,400,35,,ISIC_0066476.JPG
break,html.Screen,4_84_1,2023-09-15T04:34:27.972Z,,0,,,NaN,,,,,,false,,,,435583.2000000477,435582.90000009537,,435582.2999999523,,435607.399,8,400,,,
break_continue,html.Screen,4_84_2,2023-09-15T04:34:27.972Z,,0,,,NaN,,,,,,false,,,,435583.7000000477,435583.5,,435583.2999999523,,435607.399,8,400,,,
sequence,flow.Sequence,4_84,2023-09-15T04:34:27.972Z,,0,,,3495.1410000000033,completion,,,,,false,,,,435583.7999999523,435583.5,432071.594,432059.7999999523,432088.359,435607.399,8,400,,,
trial,html.Screen,4_85_0,2023-09-15T04:34:31.446Z,,0,2,,3450.2010001430754,response,ISIC_0053473.JPG,6,ISIC_0054284.JPG,ISIC_0054284.JPG,false,0,keypress(z),500,439057.90000009537,439057.60000014305,435590.828,435584,435607.399,439076.539,8,400,36,,ISIC_0053473.JPG
break,html.Screen,4_85_1,2023-09-15T04:34:31.447Z,,0,,,NaN,,,,,,false,,,,439059,439058.7000000477,,439058.10000014305,,439076.539,8,400,,,
break_continue,html.Screen,4_85_2,2023-09-15T04:34:31.448Z,,0,,,NaN,,,,,,false,,,,439059.2999999523,439059.2000000477,,439059,,439076.539,8,400,,,
sequence,flow.Sequence,4_85,2023-09-15T04:34:31.448Z,,0,,,3451.801000047708,completion,,,,,false,,,,439059.40000009537,439059.2000000477,435590.828,435583.90000009537,435607.399,439076.539,8,400,,,
trial,html.Screen,4_86_0,2023-09-15T04:34:35.353Z,,0,2,,3888.0610001430614,response,ISIC_3979826.JPG,6,ISIC_0025355.JPG,ISIC_0025355.JPG,false,0,keypress(z),500,442964.90000009537,442964.60000014305,439059.816,439059.5,439076.539,442995.878,8,400,37,,ISIC_3979826.JPG
break,html.Screen,4_86_1,2023-09-15T04:34:35.354Z,,0,,,NaN,,,,,,false,,,,442965.5,442965.2999999523,,442965,,442995.878,8,400,,,
break_continue,html.Screen,4_86_2,2023-09-15T04:34:35.354Z,,0,,,NaN,,,,,,false,,,,442965.7999999523,442965.7000000477,,442965.60000014305,,442995.878,8,400,,,
sequence,flow.Sequence,4_86,2023-09-15T04:34:35.354Z,,0,,,3889.161000047694,completion,,,,,false,,,,442965.90000009537,442965.7000000477,439059.816,439059.5,439076.539,442995.878,8,400,,,
trial,html.Screen,4_87_0,2023-09-15T04:34:38.943Z,,0,2,,3558.222000143025,response,ISIC_4642695.JPG,5,ISIC_2957732.JPG,ISIC_2957732.JPG,false,0,keypress(z),500,446554.40000009537,446554.10000014305,442979.061,442966,442995.878,446581.582,8,400,38,,ISIC_4642695.JPG
break,html.Screen,4_87_1,2023-09-15T04:34:38.944Z,,0,,,NaN,,,,,,false,,,,446555.7000000477,446555.40000009537,,446554.7000000477,,446581.582,8,400,,,
break_continue,html.Screen,4_87_2,2023-09-15T04:34:38.945Z,,0,,,NaN,,,,,,false,,,,446556.5,446556.2999999523,,446555.7999999523,,446581.582,8,400,,,
sequence,flow.Sequence,4_87,2023-09-15T04:34:38.945Z,,0,,,3560.42199995229,completion,,,,,false,,,,446556.7000000477,446556.2999999523,442979.061,442966,442995.878,446581.582,8,400,,,
trial,html.Screen,4_88_0,2023-09-15T04:34:42.631Z,,0,2,,3660.918000000005,response,ISIC_5797404.JPG,5,ISIC_2457024.JPG,ISIC_2457024.JPG,false,0,keypress(z),500,450242.7000000477,450242.5,446564.978,446556.90000009537,446581.582,450267.439,8,400,39,,ISIC_5797404.JPG
break,html.Screen,4_88_1,2023-09-15T04:34:42.632Z,,0,,,NaN,,,,,,false,,,,450243.60000014305,450243.40000009537,,450242.90000009537,,450267.439,8,400,,,
break_continue,html.Screen,4_88_2,2023-09-15T04:34:42.633Z,,0,,,NaN,,,,,,false,,,,450244,450243.90000009537,,450243.7999999523,,450267.439,8,400,,,
sequence,flow.Sequence,4_88,2023-09-15T04:34:42.633Z,,0,,,3662.3180000953726,completion,,,,,false,,,,450244.2000000477,450243.90000009537,446564.978,446556.7999999523,446581.582,450267.439,8,400,,,
trial,html.Screen,4_89_0,2023-09-15T04:34:47.882Z,,0,2,,5226.461000095354,response,ISIC_0015045.JPG,5,ISIC_0069967.JPG,ISIC_0015045.JPG,false,1,keypress(m),500,455494,455493.90000009537,450250.658,450244.40000009537,450267.439,455521.031,8,400,40,,ISIC_0069967.JPG
break,html.Screen,4_89_1,2023-09-15T04:34:47.883Z,,0,,,NaN,,,,,,false,,,,455494.60000014305,455494.40000009537,,455494.2000000477,,455521.031,8,400,,,
break_continue,html.Screen,4_89_2,2023-09-15T04:34:47.883Z,,0,,,NaN,,,,,,false,,,,455494.7000000477,455494.60000014305,,455494.60000014305,,455521.031,8,400,,,
sequence,flow.Sequence,4_89,2023-09-15T04:34:47.883Z,,0,,,5227.161000143038,completion,,,,,false,,,,455494.7999999523,455494.60000014305,450250.658,450244.2999999523,450267.439,455521.031,8,400,,,
trial,html.Screen,4_90_0,2023-09-15T04:34:54.014Z,,0,2,,6104.569000143034,response,ISIC_8278458.JPG,5,ISIC_1945381.JPG,ISIC_1945381.JPG,false,0,keypress(z),500,461625.7999999523,461625.60000014305,455504.393,455494.7999999523,455521.031,461641.857,8,400,41,,ISIC_8278458.JPG
break,html.Screen,4_90_1,2023-09-15T04:34:54.015Z,,0,,,NaN,,,,,,false,,,,461626.90000009537,461626.60000014305,,461626.10000014305,,461641.857,8,400,,,
break_continue,html.Screen,4_90_2,2023-09-15T04:34:54.016Z,,0,,,NaN,,,,,,false,,,,461627.40000009537,461627.2999999523,,461627,,461641.857,8,400,,,
sequence,flow.Sequence,4_90,2023-09-15T04:34:54.016Z,,0,,,6106.268999952299,completion,,,,,false,,,,461627.60000014305,461627.2999999523,455504.393,455494.7999999523,455521.031,461641.857,8,400,,,
trial,html.Screen,4_91_0,2023-09-15T04:34:57.096Z,,0,2,,3065.642999999982,response,ISIC_0063190.JPG,5,ISIC_0073227.JPG,ISIC_0063190.JPG,false,1,keypress(m),500,464707.7999999523,464707.5,461625.263,461627.7000000477,461641.857,464727.317,8,400,42,,ISIC_0073227.JPG
break,html.Screen,4_91_1,2023-09-15T04:34:57.097Z,,0,,,NaN,,,,,,false,,,,464708.7999999523,464708.5,,464708,,464727.317,8,400,,,
break_continue,html.Screen,4_91_2,2023-09-15T04:34:57.098Z,,0,,,NaN,,,,,,false,,,,464709.2999999523,464709.10000014305,,464708.90000009537,,464727.317,8,400,,,
sequence,flow.Sequence,4_91,2023-09-15T04:34:57.098Z,,0,,,3067.243000143033,completion,,,,,false,,,,464709.40000009537,464709.10000014305,461625.263,461627.7000000477,461641.857,464727.317,8,400,,,
trial,html.Screen,4_92_0,2023-09-15T04:35:00.114Z,,0,2,,2998.0830000953865,response,ISIC_0072612.JPG,6,ISIC_9810276.JPG,ISIC_9810276.JPG,false,0,keypress(z),500,467725.7999999523,467725.40000009537,464710.653,464709.60000014305,464727.317,467746.049,8,400,43,,ISIC_0072612.JPG
break,html.Screen,4_92_1,2023-09-15T04:35:00.116Z,,0,,,NaN,,,,,,false,,,,467727.10000014305,467726.7000000477,,467726.10000014305,,467746.049,8,400,,,
break_continue,html.Screen,4_92_2,2023-09-15T04:35:00.116Z,,0,,,NaN,,,,,,false,,,,467727.7000000477,467727.60000014305,,467727.2999999523,,467746.049,8,400,,,
sequence,flow.Sequence,4_92,2023-09-15T04:35:00.116Z,,0,,,3000.2830001430702,completion,,,,,false,,,,467727.90000009537,467727.60000014305,464710.653,464709.60000014305,464727.317,467746.049,8,400,,,
trial,html.Screen,4_93_0,2023-09-15T04:35:03.904Z,,0,2,,3769.451000000001,response,ISIC_5994645.JPG,5,ISIC_0033174.JPG,ISIC_0033174.JPG,false,0,keypress(z),500,471515.7999999523,471515.5,467729.38,467728.10000014305,467746.049,471532.007,8,400,44,,ISIC_5994645.JPG
break,html.Screen,4_93_1,2023-09-15T04:35:03.905Z,,0,,,NaN,,,,,,false,,,,471517,471516.7000000477,,471516,,471532.007,8,400,,,
break_continue,html.Screen,4_93_2,2023-09-15T04:35:03.906Z,,0,,,NaN,,,,,,false,,,,471517.40000009537,471517.2999999523,,471517.10000014305,,471532.007,8,400,,,
sequence,flow.Sequence,4_93,2023-09-15T04:35:03.906Z,,0,,,3771.250999952317,completion,,,,,false,,,,471517.60000014305,471517.2999999523,467729.38,467728,467746.049,471532.007,8,400,,,
trial,html.Screen,4_94_0,2023-09-15T04:35:07.542Z,,0,2,,3621.393000095384,response,ISIC_0072516.JPG,6,ISIC_0011931.JPG,ISIC_0011931.JPG,false,0,keypress(z),500,475153.60000014305,475153.40000009537,471515.289,471517.7000000477,471532.007,475184.511,8,400,45,,ISIC_0072516.JPG
break,html.Screen,4_94_1,2023-09-15T04:35:07.543Z,,0,,,NaN,,,,,,false,,,,475154.7000000477,475154.5,,475153.90000009537,,475184.511,8,400,,,
break_continue,html.Screen,4_94_2,2023-09-15T04:35:07.544Z,,0,,,NaN,,,,,,false,,,,475155.2000000477,475155.10000014305,,475154.90000009537,,475184.511,8,400,,,
sequence,flow.Sequence,4_94,2023-09-15T04:35:07.544Z,,0,,,3623.093000143068,completion,,,,,false,,,,475155.40000009537,475155.10000014305,471515.289,471517.7000000477,471532.007,475184.511,8,400,,,
trial,html.Screen,4_95_0,2023-09-15T04:35:10.586Z,,0,2,,3012.7889999523177,response,ISIC_0011648.JPG,4,ISIC_7132685.JPG,ISIC_7132685.JPG,false,0,keypress(z),500,478197.5,478197.2999999523,475167.874,475155.60000014305,475184.511,478219.888,8,400,46,,ISIC_0011648.JPG
break,html.Screen,4_95_1,2023-09-15T04:35:10.587Z,,0,,,NaN,,,,,,false,,,,478198.40000009537,478198.2999999523,,478197.7000000477,,478219.888,8,400,,,
break_continue,html.Screen,4_95_2,2023-09-15T04:35:10.587Z,,0,,,NaN,,,,,,false,,,,478198.7999999523,478198.60000014305,,478198.5,,478219.888,8,400,,,
sequence,flow.Sequence,4_95,2023-09-15T04:35:10.587Z,,0,,,3014.0890001430525,completion,,,,,false,,,,478199,478198.60000014305,475167.874,475155.5,475184.511,478219.888,8,400,,,
trial,html.Screen,4_96_0,2023-09-15T04:35:14.804Z,,0,2,,4194.612000000023,response,ISIC_0000513.JPG,5,ISIC_5300774.JPG,ISIC_0000513.JPG,false,1,keypress(m),500,482414.7999999523,482414.5,478203.245,478199.10000014305,478219.888,482439.406,8,400,47,,ISIC_5300774.JPG
break,html.Screen,4_96_1,2023-09-15T04:35:14.804Z,,0,,,NaN,,,,,,false,,,,482415.60000014305,482415.2999999523,,482414.90000009537,,482439.406,8,400,,,
break_continue,html.Screen,4_96_2,2023-09-15T04:35:14.805Z,,0,,,NaN,,,,,,false,,,,482416,482415.90000009537,,482415.7000000477,,482439.406,8,400,,,
sequence,flow.Sequence,4_96,2023-09-15T04:35:14.805Z,,0,,,4196.01200009539,completion,,,,,false,,,,482416.2000000477,482415.90000009537,478203.245,478199,478219.888,482439.406,8,400,,,
trial,html.Screen,4_97_0,2023-09-15T04:35:18.316Z,,0,2,,3487.2940000476665,response,ISIC_0065233.JPG,4,ISIC_1805163.JPG,ISIC_0065233.JPG,false,1,keypress(m),500,485927.10000014305,485926.7000000477,482422.713,482416.2999999523,482439.406,485958.638,8,400,48,,ISIC_1805163.JPG
break,html.Screen,4_97_1,2023-09-15T04:35:18.317Z,,0,,,NaN,,,,,,false,,,,485928.2999999523,485928,,485927.40000009537,,485958.638,8,400,,,
break_continue,html.Screen,4_97_2,2023-09-15T04:35:18.318Z,,0,,,NaN,,,,,,false,,,,485928.90000009537,485928.7000000477,,485928.5,,485958.638,8,400,,,
sequence,flow.Sequence,4_97,2023-09-15T04:35:18.318Z,,0,,,3489.2940000476665,completion,,,,,false,,,,485929.10000014305,485928.7000000477,482422.713,482416.2999999523,482439.406,485958.638,8,400,,,
trial,html.Screen,4_98_0,2023-09-15T04:35:21.680Z,,0,2,,3332.5620000477065,response,ISIC_4564163.JPG,5,ISIC_2914160.JPG,ISIC_2914160.JPG,false,0,keypress(z),500,489291.40000009537,489291.2000000477,485941.925,485929.2000000477,485958.638,489310.837,8,400,49,,ISIC_4564163.JPG
break,html.Screen,4_98_1,2023-09-15T04:35:21.682Z,,0,,,NaN,,,,,,false,,,,489292.90000009537,489292.40000009537,,489291.60000014305,,489310.837,8,400,,,
break_continue,html.Screen,4_98_2,2023-09-15T04:35:21.682Z,,0,,,NaN,,,,,,false,,,,489293.7000000477,489293.5,,489293.10000014305,,489310.837,8,400,,,
sequence,flow.Sequence,4_98,2023-09-15T04:35:21.683Z,,0,,,3334.862000000023,completion,,,,,false,,,,489293.90000009537,489293.5,485941.925,485929.10000014305,485958.638,489310.837,8,400,,,
trial,html.Screen,4_99_0,2023-09-15T04:35:25.322Z,,0,2,,3622.2630001430516,response,ISIC_3084322.JPG,6,ISIC_0065714.JPG,ISIC_0065714.JPG,false,0,keypress(z),500,492933.2999999523,492933.10000014305,489294.101,489294,489310.837,492963.331,8,400,50,,ISIC_3084322.JPG
break,html.Screen,4_99_1,2023-09-15T04:35:35.343Z,,0,,,10006.837999999989,timeout,,,,,false,,,,502954.40000009537,502953.512,492946.563,492933.40000009537,492963.331,502970.169,8,400,,,
break_continue,html.Screen,4_99_2,2023-09-15T04:35:37.621Z,,0,,,2252.630999952322,response,,,,,false,continue,keypress(Space),,505232.60000014305,505222.7999999523,502953.512,502954.60000014305,502970.169,505255.006,8,400,,,
sequence,flow.Sequence,4_99,2023-09-15T04:35:37.622Z,,0,,,15911.962999952317,completion,,,,,false,,,,505232.7000000477,505222.7999999523,489294.101,489294,489310.837,505255.006,8,400,,,
trial,html.Screen,4_100_0,2023-09-15T04:35:41.049Z,,0,3,,3404.2939999523223,response,ISIC_8194371.JPG,4,ISIC_3301933.JPG,ISIC_3301933.JPG,false,0,keypress(z),500,508660,508659.2999999523,505238.354,505232.7999999523,505255.006,508690.959,8,400,1,,ISIC_8194371.JPG
break,html.Screen,4_100_1,2023-09-15T04:35:41.051Z,,0,,,NaN,,,,,,false,,,,508662.40000009537,508661.60000014305,,508660.40000009537,,508690.959,8,400,,,
break_continue,html.Screen,4_100_2,2023-09-15T04:35:41.052Z,,0,,,NaN,,,,,,false,,,,508663.5,508663.2000000477,,508662.7000000477,,508690.959,8,400,,,
sequence,flow.Sequence,4_100,2023-09-15T04:35:41.053Z,,0,,,3408.1940000476898,completion,,,,,false,,,,508663.90000009537,508663.2000000477,505238.354,505232.7999999523,505255.006,508690.959,8,400,,,
trial,html.Screen,4_101_0,2023-09-15T04:35:44.096Z,,0,3,,3015.7410000477103,response,ISIC_9181399.JPG,5,ISIC_2268341.JPG,ISIC_9181399.JPG,false,1,keypress(m),500,511706.90000009537,511706.7000000477,508674.163,508664.2000000477,508690.959,511726.201,8,400,2,,ISIC_2268341.JPG
break,html.Screen,4_101_1,2023-09-15T04:35:44.097Z,,0,,,NaN,,,,,,false,,,,511707.90000009537,511707.60000014305,,511707.10000014305,,511726.201,8,400,,,
break_continue,html.Screen,4_101_2,2023-09-15T04:35:44.097Z,,0,,,NaN,,,,,,false,,,,511708.40000009537,511708.2000000477,,511708.10000014305,,511726.201,8,400,,,
sequence,flow.Sequence,4_101,2023-09-15T04:35:44.097Z,,0,,,3017.2410000477103,completion,,,,,false,,,,511708.60000014305,511708.2000000477,508674.163,508664.10000014305,508690.959,511726.201,8,400,,,
trial,html.Screen,4_102_0,2023-09-15T04:35:47.652Z,,0,3,,3537.1990000953665,response,ISIC_5520533.JPG,5,ISIC_0028501.JPG,ISIC_5520533.JPG,false,1,keypress(m),500,515263.5,515263.40000009537,511709.515,511708.7000000477,511726.201,515295.425,8,400,3,,ISIC_0028501.JPG
break,html.Screen,4_102_1,2023-09-15T04:35:47.653Z,,0,,,NaN,,,,,,false,,,,515264.40000009537,515264.10000014305,,515263.7000000477,,515295.425,8,400,,,
break_continue,html.Screen,4_102_2,2023-09-15T04:35:47.654Z,,0,,,NaN,,,,,,false,,,,515264.7999999523,515264.7000000477,,515264.5,,515295.425,8,400,,,
sequence,flow.Sequence,4_102,2023-09-15T04:35:47.654Z,,0,,,3538.499000047683,completion,,,,,false,,,,515265,515264.7000000477,511709.515,511708.7000000477,511726.201,515295.425,8,400,,,
trial,html.Screen,4_103_0,2023-09-15T04:35:50.583Z,,0,3,,2898.874999952328,response,ISIC_0066321.JPG,5,ISIC_0054573.JPG,ISIC_0066321.JPG,false,1,keypress(m),500,518194.60000014305,518194.2999999523,515278.652,515265.10000014305,515295.425,518213.948,8,400,4,,ISIC_0054573.JPG
break,html.Screen,4_103_1,2023-09-15T04:35:50.584Z,,0,,,NaN,,,,,,false,,,,518195.60000014305,518195.2999999523,,518194.7999999523,,518213.948,8,400,,,
break_continue,html.Screen,4_103_2,2023-09-15T04:35:50.585Z,,0,,,NaN,,,,,,false,,,,518196,518196,,518195.7000000477,,518213.948,8,400,,,
sequence,flow.Sequence,4_103,2023-09-15T04:35:50.585Z,,0,,,2900.5750000000116,completion,,,,,false,,,,518196.2999999523,518196,515278.652,515265,515295.425,518213.948,8,400,,,
trial,html.Screen,4_104_0,2023-09-15T04:35:54.013Z,,0,3,,3410.1520001430763,response,ISIC_2545299.JPG,5,ISIC_0063191.JPG,ISIC_0063191.JPG,false,0,keypress(z),500,521624.40000009537,521624.10000014305,518197.254,518196.40000009537,518213.948,521649.647,8,400,5,,ISIC_2545299.JPG
break,html.Screen,4_104_1,2023-09-15T04:35:54.014Z,,0,,,NaN,,,,,,false,,,,521625.5,521625.2000000477,,521624.60000014305,,521649.647,8,400,,,
break_continue,html.Screen,4_104_2,2023-09-15T04:35:54.015Z,,0,,,NaN,,,,,,false,,,,521626,521625.7999999523,,521625.60000014305,,521649.647,8,400,,,
sequence,flow.Sequence,4_104,2023-09-15T04:35:54.015Z,,0,,,3411.8519999523414,completion,,,,,false,,,,521626.10000014305,521625.7999999523,518197.254,518196.40000009537,518213.948,521649.647,8,400,,,
trial,html.Screen,4_105_0,2023-09-15T04:35:57.334Z,,0,3,,3295.652999952319,response,ISIC_0067601.JPG,4,ISIC_0386664.JPG,ISIC_0386664.JPG,false,0,keypress(z),500,524945.5,524945.2999999523,521632.951,521626.2000000477,521649.647,524968.607,8,400,6,,ISIC_0067601.JPG
break,html.Screen,4_105_1,2023-09-15T04:35:57.335Z,,0,,,NaN,,,,,,false,,,,524946.600000143,524946.2999999523,,524945.7000000477,,524968.607,8,400,,,
break_continue,html.Screen,4_105_2,2023-09-15T04:35:57.336Z,,0,,,NaN,,,,,,false,,,,524947,524947,,524946.7000000477,,524968.607,8,400,,,
sequence,flow.Sequence,4_105,2023-09-15T04:35:57.336Z,,0,,,3297.353000000003,completion,,,,,false,,,,524947.2000000477,524947,521632.951,521626.2000000477,521649.647,524968.607,8,400,,,
trial,html.Screen,4_106_0,2023-09-15T04:35:59.985Z,,0,3,,2627.0930000477238,response,ISIC_0013840.JPG,5,ISIC_8630818.JPG,ISIC_8630818.JPG,false,0,keypress(z),500,527596,527595.7000000477,524951.89,524947.4000000954,524968.607,527620.498,8,400,7,,ISIC_0013840.JPG
break,html.Screen,4_106_1,2023-09-15T04:35:59.986Z,,0,,,NaN,,,,,,false,,,,527597,527596.7999999523,,527596.100000143,,527620.498,8,400,,,
break_continue,html.Screen,4_106_2,2023-09-15T04:35:59.986Z,,0,,,NaN,,,,,,false,,,,527597.600000143,527597.5,,527597.2000000477,,527620.498,8,400,,,
sequence,flow.Sequence,4_106,2023-09-15T04:35:59.987Z,,0,,,2628.89300000004,completion,,,,,false,,,,527597.7999999523,527597.5,524951.89,524947.2999999523,524968.607,527620.498,8,400,,,
trial,html.Screen,4_107_0,2023-09-15T04:36:03.445Z,,0,3,,3435.6020001430297,response,ISIC_0011512.JPG,5,ISIC_0057913.JPG,ISIC_0057913.JPG,false,0,keypress(z),500,531056.4000000954,531056.100000143,527603.836,527597.9000000954,527620.498,531072.841,8,400,8,,ISIC_0011512.JPG
break,html.Screen,4_107_1,2023-09-15T04:36:03.446Z,,0,,,NaN,,,,,,false,,,,531057.600000143,531057.2999999523,,531056.7000000477,,531072.841,8,400,,,
break_continue,html.Screen,4_107_2,2023-09-15T04:36:03.447Z,,0,,,NaN,,,,,,false,,,,531058.100000143,531057.9000000954,,531057.7000000477,,531072.841,8,400,,,
sequence,flow.Sequence,4_107,2023-09-15T04:36:03.447Z,,0,,,3437.402000095346,completion,,,,,false,,,,531058.2000000477,531057.9000000954,527603.836,527597.9000000954,527620.498,531072.841,8,400,,,
trial,html.Screen,4_108_0,2023-09-15T04:36:06.345Z,,0,3,,2882.7590001430362,response,ISIC_0034199.JPG,4,ISIC_5296963.JPG,ISIC_5296963.JPG,false,0,keypress(z),500,533955.7999999523,533955.600000143,531056.09,531058.2999999523,531072.841,533974.751,8,400,9,,ISIC_0034199.JPG
break,html.Screen,4_108_1,2023-09-15T04:36:06.346Z,,0,,,NaN,,,,,,false,,,,533956.7999999523,533956.600000143,,533956,,533974.751,8,400,,,
break_continue,html.Screen,4_108_2,2023-09-15T04:36:06.346Z,,0,,,NaN,,,,,,false,,,,533957.2999999523,533957.100000143,,533956.9000000954,,533974.751,8,400,,,
sequence,flow.Sequence,4_108,2023-09-15T04:36:06.346Z,,0,,,2884.2590001430362,completion,,,,,false,,,,533957.4000000954,533957.100000143,531056.09,531058.2999999523,531072.841,533974.751,8,400,,,
trial,html.Screen,4_109_0,2023-09-15T04:36:09.263Z,,0,3,,2899.64900009532,response,ISIC_0072604.JPG,5,ISIC_0001137.JPG,ISIC_0072604.JPG,false,1,keypress(m),500,536874.7000000477,536874.4000000954,533958.074,533957.600000143,533974.751,536893.667,8,400,10,,ISIC_0001137.JPG
break,html.Screen,4_109_1,2023-09-15T04:36:09.265Z,,0,,,NaN,,,,,,false,,,,536875.9000000954,536875.7000000477,,536874.9000000954,,536893.667,8,400,,,
break_continue,html.Screen,4_109_2,2023-09-15T04:36:09.265Z,,0,,,NaN,,,,,,false,,,,536876.7000000477,536876.4000000954,,536876.100000143,,536893.667,8,400,,,
sequence,flow.Sequence,4_109,2023-09-15T04:36:09.266Z,,0,,,2901.64900009532,completion,,,,,false,,,,536876.9000000954,536876.4000000954,533958.074,533957.5,533974.751,536893.667,8,400,,,
trial,html.Screen,4_110_0,2023-09-15T04:36:12.685Z,,0,3,,3401.832999999984,response,ISIC_0057481.JPG,4,ISIC_7140778.JPG,ISIC_7140778.JPG,false,0,keypress(z),500,540295.7000000477,540295.5,536876.933,536877,536893.667,540312.425,8,400,11,,ISIC_0057481.JPG
break,html.Screen,4_110_1,2023-09-15T04:36:12.686Z,,0,,,NaN,,,,,,false,,,,540296.9000000954,540296.600000143,,540296,,540312.425,8,400,,,
break_continue,html.Screen,4_110_2,2023-09-15T04:36:12.686Z,,0,,,NaN,,,,,,false,,,,540297.4000000954,540297.2999999523,,540297.100000143,,540312.425,8,400,,,
sequence,flow.Sequence,4_110,2023-09-15T04:36:12.686Z,,0,,,3403.6329999523005,completion,,,,,false,,,,540297.600000143,540297.2999999523,536876.933,536876.9000000954,536893.667,540312.425,8,400,,,
trial,html.Screen,4_111_0,2023-09-15T04:36:16.754Z,,0,3,,4052.3749999522697,response,ISIC_1774797.JPG,5,ISIC_8006094.JPG,ISIC_1774797.JPG,false,1,keypress(m),500,544365.2000000477,544364.7999999523,540295.808,540297.7000000477,540312.425,544381.894,8,400,12,,ISIC_8006094.JPG
break,html.Screen,4_111_1,2023-09-15T04:36:16.755Z,,0,,,NaN,,,,,,false,,,,544366.100000143,544365.9000000954,,544365.2999999523,,544381.894,8,400,,,
break_continue,html.Screen,4_111_2,2023-09-15T04:36:16.755Z,,0,,,NaN,,,,,,false,,,,544366.2999999523,544366.2999999523,,544366.2000000477,,544381.894,8,400,,,
sequence,flow.Sequence,4_111,2023-09-15T04:36:16.755Z,,0,,,4053.8749999522697,completion,,,,,false,,,,544366.5,544366.2999999523,540295.808,540297.7000000477,540312.425,544381.894,8,400,,,
trial,html.Screen,4_112_0,2023-09-15T04:36:19.478Z,,0,3,,2706.606000000029,response,ISIC_0067206.JPG,5,ISIC_0071906.JPG,ISIC_0067206.JPG,false,1,keypress(m),500,547088.7999999523,547088.5,544365.308,544366.600000143,544381.894,547117.104,8,400,13,,ISIC_0071906.JPG
break,html.Screen,4_112_1,2023-09-15T04:36:19.479Z,,0,,,NaN,,,,,,false,,,,547090,547089.600000143,,547089,,547117.104,8,400,,,
break_continue,html.Screen,4_112_2,2023-09-15T04:36:19.479Z,,0,,,NaN,,,,,,false,,,,547090.4000000954,547090.2999999523,,547090.100000143,,547117.104,8,400,,,
sequence,flow.Sequence,4_112,2023-09-15T04:36:19.479Z,,0,,,2708.405999952345,completion,,,,,false,,,,547090.600000143,547090.2999999523,544365.308,544366.600000143,544381.894,547117.104,8,400,,,
trial,html.Screen,4_113_0,2023-09-15T04:36:23.433Z,,0,3,,3926.996000143001,response,ISIC_8843901.JPG,4,ISIC_1674754.JPG,ISIC_1674754.JPG,false,0,keypress(z),500,551044.4000000954,551044.100000143,547100.428,547090.7999999523,547117.104,551069.872,8,400,14,,ISIC_8843901.JPG
break,html.Screen,4_113_1,2023-09-15T04:36:23.434Z,,0,,,NaN,,,,,,false,,,,551045.2999999523,551045.100000143,,551044.600000143,,551069.872,8,400,,,
break_continue,html.Screen,4_113_2,2023-09-15T04:36:23.435Z,,0,,,NaN,,,,,,false,,,,551045.7999999523,551045.600000143,,551045.5,,551069.872,8,400,,,
sequence,flow.Sequence,4_113,2023-09-15T04:36:23.435Z,,0,,,3928.496000143001,completion,,,,,false,,,,551046,551045.600000143,547100.428,547090.7999999523,547117.104,551069.872,8,400,,,
trial,html.Screen,4_114_0,2023-09-15T04:36:28.301Z,,0,3,,4841.82800004771,response,ISIC_0233487.JPG,5,ISIC_1949126.JPG,ISIC_1949126.JPG,false,0,keypress(z),500,555912,555911.7000000477,551053.288,551046.100000143,551069.872,555939.807,8,400,15,,ISIC_0233487.JPG
break,html.Screen,4_114_1,2023-09-15T04:36:28.302Z,,0,,,NaN,,,,,,false,,,,555912.9000000954,555912.7000000477,,555912.100000143,,555939.807,8,400,,,
break_continue,html.Screen,4_114_2,2023-09-15T04:36:28.302Z,,0,,,NaN,,,,,,false,,,,555913.2999999523,555913.2999999523,,555913,,555939.807,8,400,,,
sequence,flow.Sequence,4_114,2023-09-15T04:36:28.302Z,,0,,,4843.427999952342,completion,,,,,false,,,,555913.5,555913.2999999523,551053.288,551046.100000143,551069.872,555939.807,8,400,,,
trial,html.Screen,4_115_0,2023-09-15T04:36:31.696Z,,0,3,,3366.9929999522865,response,ISIC_8190708.JPG,5,ISIC_9223679.JPG,ISIC_8190708.JPG,false,1,keypress(m),500,559307,559306.7999999523,555923.174,555913.600000143,555939.807,559325.402,8,400,16,,ISIC_9223679.JPG
break,html.Screen,4_115_1,2023-09-15T04:36:31.697Z,,0,,,NaN,,,,,,false,,,,559308.100000143,559307.7999999523,,559307.2000000477,,559325.402,8,400,,,
break_continue,html.Screen,4_115_2,2023-09-15T04:36:31.697Z,,0,,,NaN,,,,,,false,,,,559308.5,559308.4000000954,,559308.100000143,,559325.402,8,400,,,
sequence,flow.Sequence,4_115,2023-09-15T04:36:31.697Z,,0,,,3368.5930000953376,completion,,,,,false,,,,559308.600000143,559308.4000000954,555923.174,555913.600000143,555939.807,559325.402,8,400,,,
trial,html.Screen,4_116_0,2023-09-15T04:36:34.664Z,,0,3,,2949.4980000953656,response,ISIC_3209501.JPG,5,ISIC_0011858.JPG,ISIC_3209501.JPG,false,1,keypress(m),500,562275.100000143,562274.9000000954,559308.835,559308.7999999523,559325.402,562294.284,8,400,17,,ISIC_0011858.JPG
break,html.Screen,4_116_1,2023-09-15T04:36:34.665Z,,0,,,NaN,,,,,,false,,,,562276,562275.7000000477,,562275.4000000954,,562294.284,8,400,,,
break_continue,html.Screen,4_116_2,2023-09-15T04:36:34.666Z,,0,,,NaN,,,,,,false,,,,562276.7999999523,562276.7000000477,,562276.2999999523,,562294.284,8,400,,,
sequence,flow.Sequence,4_116,2023-09-15T04:36:34.666Z,,0,,,2951.298000047682,completion,,,,,false,,,,562276.9000000954,562276.7000000477,559308.835,559308.7000000477,559325.402,562294.284,8,400,,,
trial,html.Screen,4_117_0,2023-09-15T04:36:38.828Z,,0,3,,4144.216000000015,response,ISIC_7768567.JPG,6,ISIC_9301346.JPG,ISIC_9301346.JPG,false,0,keypress(z),500,566438.7999999523,566438.5,562277.505,562277,562294.284,566463.775,8,400,18,,ISIC_7768567.JPG
break,html.Screen,4_117_1,2023-09-15T04:36:38.829Z,,0,,,NaN,,,,,,false,,,,566439.7999999523,566439.600000143,,566438.9000000954,,566463.775,8,400,,,
break_continue,html.Screen,4_117_2,2023-09-15T04:36:38.829Z,,0,,,NaN,,,,,,false,,,,566440.5,566440.2999999523,,566440,,566463.775,8,400,,,
sequence,flow.Sequence,4_117,2023-09-15T04:36:38.829Z,,0,,,4146.015999952331,completion,,,,,false,,,,566440.7000000477,566440.2999999523,562277.505,562277,562294.284,566463.775,8,400,,,
trial,html.Screen,4_118_0,2023-09-15T04:36:42.015Z,,0,3,,3162.2249999999767,response,ISIC_3729849.JPG,5,ISIC_3251773.JPG,ISIC_3729849.JPG,false,1,keypress(m),500,569626.2000000477,569626,566447.022,566440.7000000477,566463.775,569649.22,8,400,19,,ISIC_3251773.JPG
break,html.Screen,4_118_1,2023-09-15T04:36:42.016Z,,0,,,NaN,,,,,,false,,,,569627,569626.7999999523,,569626.2999999523,,569649.22,8,400,,,
break_continue,html.Screen,4_118_2,2023-09-15T04:36:42.016Z,,0,,,NaN,,,,,,false,,,,569627.4000000954,569627.2999999523,,569627.2000000477,,569649.22,8,400,,,
sequence,flow.Sequence,4_118,2023-09-15T04:36:42.016Z,,0,,,3163.524999952293,completion,,,,,false,,,,569627.5,569627.2999999523,566447.022,566440.7000000477,566463.775,569649.22,8,400,,,
trial,html.Screen,4_119_0,2023-09-15T04:36:45.335Z,,0,3,,3296.6800000953954,response,ISIC_0010400.JPG,5,ISIC_7104307.JPG,ISIC_0010400.JPG,false,1,keypress(m),500,572946.2000000477,572945.9000000954,569632.574,569627.600000143,569649.22,572968.224,8,400,20,,ISIC_7104307.JPG
break,html.Screen,4_119_1,2023-09-15T04:36:45.336Z,,0,,,NaN,,,,,,false,,,,572947.2000000477,572946.9000000954,,572946.4000000954,,572968.224,8,400,,,
break_continue,html.Screen,4_119_2,2023-09-15T04:36:45.336Z,,0,,,NaN,,,,,,false,,,,572947.7000000477,572947.600000143,,572947.4000000954,,572968.224,8,400,,,
sequence,flow.Sequence,4_119,2023-09-15T04:36:45.337Z,,0,,,3298.380000143079,completion,,,,,false,,,,572947.9000000954,572947.600000143,569632.574,569627.600000143,569649.22,572968.224,8,400,,,
trial,html.Screen,4_120_0,2023-09-15T04:36:48.427Z,,0,3,,3069.5759999522706,response,ISIC_1782545.JPG,5,ISIC_0069087.JPG,ISIC_1782545.JPG,false,1,keypress(m),500,576038.100000143,576037.7999999523,572951.558,572948,572968.224,576070.378,8,400,21,,ISIC_0069087.JPG
break,html.Screen,4_120_1,2023-09-15T04:36:48.428Z,,0,,,NaN,,,,,,false,,,,576039,576038.7000000477,,576038.2999999523,,576070.378,8,400,,,
break_continue,html.Screen,4_120_2,2023-09-15T04:36:48.428Z,,0,,,NaN,,,,,,false,,,,576039.5,576039.2999999523,,576039.100000143,,576070.378,8,400,,,
sequence,flow.Sequence,4_120,2023-09-15T04:36:48.428Z,,0,,,3071.0759999522706,completion,,,,,false,,,,576039.600000143,576039.2999999523,572951.558,572948,572968.224,576070.378,8,400,,,
trial,html.Screen,4_121_0,2023-09-15T04:36:51.794Z,,0,3,,3334.621999999974,response,ISIC_4043580.JPG,5,ISIC_7164403.JPG,ISIC_7164403.JPG,false,0,keypress(z),500,579405.2999999523,579405,576053.739,576039.7999999523,576070.378,579422.569,8,400,22,,ISIC_4043580.JPG
break,html.Screen,4_121_1,2023-09-15T04:36:51.795Z,,0,,,NaN,,,,,,false,,,,579406.4000000954,579406,,579405.4000000954,,579422.569,8,400,,,
break_continue,html.Screen,4_121_2,2023-09-15T04:36:51.796Z,,0,,,NaN,,,,,,false,,,,579407,579406.7999999523,,579406.600000143,,579422.569,8,400,,,
sequence,flow.Sequence,4_121,2023-09-15T04:36:51.796Z,,0,,,3336.42199995229,completion,,,,,false,,,,579407.2999999523,579406.7999999523,576053.739,576039.7000000477,576070.378,579422.569,8,400,,,
trial,html.Screen,4_122_0,2023-09-15T04:36:54.877Z,,0,3,,3065.131000047666,response,ISIC_0028444.JPG,5,ISIC_0026352.JPG,ISIC_0028444.JPG,false,1,keypress(m),500,582487.9000000954,582487.7000000477,579406.003,579407.4000000954,579422.569,582508.052,8,400,23,,ISIC_0026352.JPG
break,html.Screen,4_122_1,2023-09-15T04:36:54.878Z,,0,,,NaN,,,,,,false,,,,582488.9000000954,582488.5,,582488.100000143,,582508.052,8,400,,,
break_continue,html.Screen,4_122_2,2023-09-15T04:36:54.878Z,,0,,,NaN,,,,,,false,,,,582489.4000000954,582489.2000000477,,582489,,582508.052,8,400,,,
sequence,flow.Sequence,4_122,2023-09-15T04:36:54.878Z,,0,,,3066.631000047666,completion,,,,,false,,,,582489.600000143,582489.2000000477,579406.003,579407.2999999523,579422.569,582508.052,8,400,,,
trial,html.Screen,4_123_0,2023-09-15T04:36:57.573Z,,0,3,,2676.247999952291,response,ISIC_8357415.JPG,5,ISIC_0000040.JPG,ISIC_8357415.JPG,false,1,keypress(m),500,585184.5,585184.2999999523,582491.378,582489.7000000477,582508.052,585209.962,8,400,24,,ISIC_0000040.JPG
break,html.Screen,4_123_1,2023-09-15T04:36:57.574Z,,0,,,NaN,,,,,,false,,,,585185.600000143,585185.2000000477,,585184.7000000477,,585209.962,8,400,,,
break_continue,html.Screen,4_123_2,2023-09-15T04:36:57.575Z,,0,,,NaN,,,,,,false,,,,585186,585185.9000000954,,585185.7000000477,,585209.962,8,400,,,
sequence,flow.Sequence,4_123,2023-09-15T04:36:57.575Z,,0,,,2677.8480000953423,completion,,,,,false,,,,585186.2000000477,585185.9000000954,582491.378,582489.7000000477,582508.052,585209.962,8,400,,,
trial,html.Screen,4_124_0,2023-09-15T04:37:00.472Z,,0,3,,2873.5379999999423,response,ISIC_0884550.JPG,5,ISIC_0046223.JPG,ISIC_0884550.JPG,false,1,keypress(m),500,588083.7000000477,588083.5,585193.215,585186.2999999523,585209.962,588111.862,8,400,25,,ISIC_0046223.JPG
break,html.Screen,4_124_1,2023-09-15T04:37:00.474Z,,0,,,NaN,,,,,,false,,,,588085,588084.5,,588083.9000000954,,588111.862,8,400,,,
break_continue,html.Screen,4_124_2,2023-09-15T04:37:00.474Z,,0,,,NaN,,,,,,false,,,,588085.5,588085.2999999523,,588085,,588111.862,8,400,,,
sequence,flow.Sequence,4_124,2023-09-15T04:37:00.474Z,,0,,,2875.3379999522585,completion,,,,,false,,,,588085.7000000477,588085.2999999523,585193.215,585186.2999999523,585209.962,588111.862,8,400,,,
trial,html.Screen,4_125_0,2023-09-15T04:37:03.601Z,,0,3,,3099.838000047719,response,ISIC_0072730.JPG,5,ISIC_0012883.JPG,ISIC_0012883.JPG,false,0,keypress(z),500,591212,591211.7000000477,588095.284,588085.7999999523,588111.862,591230.845,8,400,26,,ISIC_0072730.JPG
break,html.Screen,4_125_1,2023-09-15T04:37:03.602Z,,0,,,NaN,,,,,,false,,,,591213.5,591213.100000143,,591212.4000000954,,591230.845,8,400,,,
break_continue,html.Screen,4_125_2,2023-09-15T04:37:03.603Z,,0,,,NaN,,,,,,false,,,,591214.100000143,591213.9000000954,,591213.7000000477,,591230.845,8,400,,,
