sender,sender_type,sender_id,timestamp,meta,,blockNo,condition,duration,ended_on,img_left,img_reveal,img_right,loser,practice,response,response_action,selection_duration,time_commit,time_end,time_render,time_run,time_show,time_switch,total_blocks,total_trials,trialNo,url,winner
informed_consent,html.Screen,0,2023-09-06T19:42:40.536Z,"{""labjs_version"":""20.2.4"",""labjs_build"":{""flavor"":""production"",""commit"":""f5b4a49f956347addd546a832a3327688c2c0fef""},""location"":""https://run.pavlovia.org/MurrayBennett/melanoma-2afc/?participant=6296ecaf7ea72c4951583ffd&STUDY_ID=64f8c92207ba404bcb356c90&SESSION_ID=64f8d6202f9eebb6899fa11a&platform=prolific"",""userAgent"":""Mozilla/5.0 (Macintosh; Intel Mac OS X 10_15_7) AppleWebKit/605.1.15 (KHTML, like Gecko) Version/16.6 Safari/605.1.15"",""platform"":""MacIntel"",""language"":""en-US"",""locale"":""en-US"",""timeZone"":""America/New_York"",""timezoneOffset"":240,""screen_width"":1920,""screen_height"":1080,""scroll_width"":1920,""scroll_height"":927,""window_innerWidth"":1920,""window_innerHeight"":975,""devicePixelRatio"":2}",,,,9507,response,,,,,,consent,click button,,11297,11298,1791,1787.0000000000002,1819,11327,,,,"{""participant"":""6296ecaf7ea72c4951583ffd"",""STUDY_ID"":""64f8c92207ba404bcb356c90"",""SESSION_ID"":""64f8d6202f9eebb6899fa11a"",""platform"":""prolific""}",
Welcome,html.Screen,1,2023-09-06T19:43:02.282Z,,,,colourful,21712,response,,,,,,continue,click button,,33044.00000000001,33023,11311,11297,11327,33075,,,,,
trial,html.Screen,2_0_0,2023-09-06T19:43:06.953Z,,0,0,,4657,response,ISIC_0063388.JPG,,ISIC_0025593.JPG,ISIC_0063388.JPG,true,1,keypress(m),500,37716,37716,33059,33044.00000000001,33075,37741,1,6,1,,ISIC_0025593.JPG
sequence,flow.Sequence,2_0,2023-09-06T19:43:06.954Z,,0,,,4641,completion,,,,,true,,,,37716,37716,33059,33044.00000000001,33075,37741,1,6,,,
trial,html.Screen,2_1_0,2023-09-06T19:43:10.626Z,,0,0,,3665,response,ISIC_0028178.JPG,,ISIC_1309015.JPG,ISIC_0028178.JPG,true,1,keypress(m),500,41389,41389,37724,37716,37741,41425,1,6,2,,ISIC_1309015.JPG
sequence,flow.Sequence,2_1,2023-09-06T19:43:10.627Z,,0,,,3648,completion,,,,,true,,,,41389,41389,37724,37716,37741,41425,1,6,,,
trial,html.Screen,2_2_0,2023-09-06T19:43:13.664Z,,0,0,,3020,response,ISIC_3314853.JPG,,ISIC_0031128.JPG,ISIC_0031128.JPG,true,0,keypress(z),500,44427,44427,41407,41389,41425,44457,1,6,3,,ISIC_3314853.JPG
sequence,flow.Sequence,2_2,2023-09-06T19:43:13.665Z,,0,,,3002,completion,,,,,true,,,,44427,44427,41407,41389,41425,44457,1,6,,,
trial,html.Screen,2_3_0,2023-09-06T19:43:17.482Z,,0,0,,3804.0000000000073,response,ISIC_8980141.JPG,,ISIC_0031612.JPG,ISIC_8980141.JPG,true,1,keypress(m),500,48245.00000000001,48245.00000000001,44441,44427,44457,48274,1,6,4,,ISIC_0031612.JPG
sequence,flow.Sequence,2_3,2023-09-06T19:43:17.483Z,,0,,,3788.0000000000073,completion,,,,,true,,,,48245.00000000001,48245.00000000001,44441,44427,44457,48274,1,6,,,
trial,html.Screen,2_4_0,2023-09-06T19:43:21.941Z,,0,0,,4447,response,ISIC_1197737.JPG,,ISIC_9721604.JPG,ISIC_9721604.JPG,true,0,keypress(z),500,52704,52704,48257,48246,48274,52739,1,6,5,,ISIC_1197737.JPG
sequence,flow.Sequence,2_4,2023-09-06T19:43:21.941Z,,0,,,4430,completion,,,,,true,,,,52704,52704,48257,48245.00000000001,48274,52739,1,6,,,
trial,html.Screen,2_5_0,2023-09-06T19:43:24.872Z,,0,0,,2912,response,ISIC_0010681.JPG,,ISIC_0025346.JPG,ISIC_0010681.JPG,true,1,keypress(m),500,55635,55635,52723,52704,52739,55673,1,6,6,,ISIC_0025346.JPG
sequence,flow.Sequence,2_5,2023-09-06T19:43:24.872Z,,0,,,2896,completion,,,,,true,,,,55636,55635,52723,52704,52739,55673,1,6,,,
loop,flow.Loop,2,2023-09-06T19:43:24.873Z,,,,,22560,completion,,,,,true,,,,55636,55635,33059,33044.00000000001,33075,55673,1,6,,,
exp_instructions,html.Screen,3,2023-09-06T19:43:31.586Z,,,,,6698,response,,,,,,continue,keypress(Space),,62350,62354,55656,55636,55673,62371,,,,,
trial,html.Screen,4_0_0,2023-09-06T19:43:35.036Z,,0,1,,3445,response,ISIC_0030860.JPG,4,ISIC_4680417.JPG,ISIC_0030860.JPG,false,1,keypress(m),500,65800,65800,62355,62350,62371,65822,8,400,1,,ISIC_4680417.JPG
break,html.Screen,4_0_1,2023-09-06T19:43:35.037Z,,0,,,NaN,,,,,,false,,,,65801,65801,,65800,,65822,8,400,,,
break_continue,html.Screen,4_0_2,2023-09-06T19:43:35.037Z,,0,,,NaN,,,,,,false,,,,65801,65801,,65801,,65822,8,400,,,
sequence,flow.Sequence,4_0,2023-09-06T19:43:35.038Z,,0,,,3430,completion,,,,,false,,,,65801,65801,62355,62350,62371,65822,8,400,,,
trial,html.Screen,4_1_0,2023-09-06T19:43:38.330Z,,0,1,,3289.0000000000146,response,ISIC_6254731.JPG,13,ISIC_7844565.JPG,ISIC_7844565.JPG,false,0,keypress(z),500,69094.00000000001,69094.00000000001,65805,65801,65822,69121,8,400,2,,ISIC_6254731.JPG
break,html.Screen,4_1_1,2023-09-06T19:43:38.331Z,,0,,,NaN,,,,,,false,,,,69094.00000000001,69094.00000000001,,69094.00000000001,,69121,8,400,,,
break_continue,html.Screen,4_1_2,2023-09-06T19:43:38.331Z,,0,,,NaN,,,,,,false,,,,69095,69095,,69095,,69121,8,400,,,
sequence,flow.Sequence,4_1,2023-09-06T19:43:38.331Z,,0,,,3273,completion,,,,,false,,,,69095,69095,65805,65801,65822,69121,8,400,,,
trial,html.Screen,4_2_0,2023-09-06T19:43:41.500Z,,0,1,,3160,response,ISIC_0066739.JPG,9,ISIC_0032440.JPG,ISIC_0032440.JPG,false,0,keypress(z),500,72264,72264,69104,69095,69121,72286,8,400,3,,ISIC_0066739.JPG
break,html.Screen,4_2_1,2023-09-06T19:43:41.501Z,,0,,,NaN,,,,,,false,,,,72265,72265,,72264,,72286,8,400,,,
break_continue,html.Screen,4_2_2,2023-09-06T19:43:41.501Z,,0,,,NaN,,,,,,false,,,,72265,72265,,72265,,72286,8,400,,,
sequence,flow.Sequence,4_2,2023-09-06T19:43:41.501Z,,0,,,3144,completion,,,,,false,,,,72265,72265,69104,69095,69121,72286,8,400,,,
trial,html.Screen,4_3_0,2023-09-06T19:43:44.731Z,,0,1,,3225,response,ISIC_9317483.JPG,8,ISIC_1684829.JPG,ISIC_1684829.JPG,false,0,keypress(z),500,75495,75495,72270,72265,72286,75521,8,400,4,,ISIC_9317483.JPG
break,html.Screen,4_3_1,2023-09-06T19:43:44.732Z,,0,,,NaN,,,,,,false,,,,75496,75496,,75495,,75521,8,400,,,
break_continue,html.Screen,4_3_2,2023-09-06T19:43:44.732Z,,0,,,NaN,,,,,,false,,,,75496,75496,,75496,,75521,8,400,,,
sequence,flow.Sequence,4_3,2023-09-06T19:43:44.732Z,,0,,,3210,completion,,,,,false,,,,75496,75496,72270,72265,72286,75521,8,400,,,
trial,html.Screen,4_4_0,2023-09-06T19:43:47.966Z,,0,1,,3226,response,ISIC_0033117.JPG,8,ISIC_0032797.JPG,ISIC_0032797.JPG,false,0,keypress(z),500,78730,78730,75504,75497,75521,78754,8,400,5,,ISIC_0033117.JPG
break,html.Screen,4_4_1,2023-09-06T19:43:47.967Z,,0,,,NaN,,,,,,false,,,,78731,78731,,78730,,78754,8,400,,,
break_continue,html.Screen,4_4_2,2023-09-06T19:43:47.967Z,,0,,,NaN,,,,,,false,,,,78731,78731,,78731,,78754,8,400,,,
sequence,flow.Sequence,4_4,2023-09-06T19:43:47.967Z,,0,,,3210,completion,,,,,false,,,,78731,78731,75504,75497,75521,78754,8,400,,,
trial,html.Screen,4_5_0,2023-09-06T19:43:50.743Z,,0,1,,2771,response,ISIC_0056152.JPG,11,ISIC_0062158.JPG,ISIC_0056152.JPG,false,1,keypress(m),500,81507,81507,78736,78732,78754,81536,8,400,6,,ISIC_0062158.JPG
break,html.Screen,4_5_1,2023-09-06T19:43:50.743Z,,0,,,NaN,,,,,,false,,,,81507,81507,,81507,,81536,8,400,,,
break_continue,html.Screen,4_5_2,2023-09-06T19:43:50.743Z,,0,,,NaN,,,,,,false,,,,81508,81508,,81508,,81536,8,400,,,
sequence,flow.Sequence,4_5,2023-09-06T19:43:50.744Z,,0,,,2754,completion,,,,,false,,,,81508,81508,78736,78732,78754,81536,8,400,,,
trial,html.Screen,4_6_0,2023-09-06T19:43:53.511Z,,0,1,,2755,response,ISIC_0000424.JPG,2,ISIC_6067430.JPG,ISIC_6067430.JPG,false,0,keypress(z),500,84276,84275,81520,81508,81536,84302,8,400,7,,ISIC_0000424.JPG
break,html.Screen,4_6_1,2023-09-06T19:43:53.512Z,,0,,,NaN,,,,,,false,,,,84276,84276,,84276,,84302,8,400,,,
break_continue,html.Screen,4_6_2,2023-09-06T19:43:53.512Z,,0,,,NaN,,,,,,false,,,,84277,84277,,84276,,84302,8,400,,,
sequence,flow.Sequence,4_6,2023-09-06T19:43:53.512Z,,0,,,2741,completion,,,,,false,,,,84277,84277,81520,81508,81536,84302,8,400,,,
trial,html.Screen,4_7_0,2023-09-06T19:43:56.601Z,,0,1,,3080,response,ISIC_9417173.JPG,8,ISIC_0000459.JPG,ISIC_0000459.JPG,false,0,keypress(z),500,87365,87365,84285,84277,84302,87402,8,400,8,,ISIC_9417173.JPG
break,html.Screen,4_7_1,2023-09-06T19:43:56.601Z,,0,,,NaN,,,,,,false,,,,87366,87365,,87365,,87402,8,400,,,
break_continue,html.Screen,4_7_2,2023-09-06T19:43:56.601Z,,0,,,NaN,,,,,,false,,,,87366,87366,,87366,,87402,8,400,,,
sequence,flow.Sequence,4_7,2023-09-06T19:43:56.601Z,,0,,,3064,completion,,,,,false,,,,87366,87366,84285,84277,84302,87402,8,400,,,
trial,html.Screen,4_8_0,2023-09-06T19:43:59.952Z,,0,1,,3331.0000000000146,response,ISIC_0047004.JPG,2,ISIC_9047184.JPG,ISIC_9047184.JPG,false,0,keypress(z),500,90717,90716.00000000001,87385,87366,87402,90752,8,400,9,,ISIC_0047004.JPG
break,html.Screen,4_8_1,2023-09-06T19:43:59.952Z,,0,,,NaN,,,,,,false,,,,90717,90717,,90717,,90752,8,400,,,
break_continue,html.Screen,4_8_2,2023-09-06T19:43:59.953Z,,0,,,NaN,,,,,,false,,,,90717,90717,,90717,,90752,8,400,,,
sequence,flow.Sequence,4_8,2023-09-06T19:43:59.953Z,,0,,,3315,completion,,,,,false,,,,90717,90717,87385,87366,87402,90752,8,400,,,
trial,html.Screen,4_9_0,2023-09-06T19:44:03.111Z,,0,1,,3140,response,ISIC_9227392.JPG,1,ISIC_9723646.JPG,ISIC_9227392.JPG,false,1,keypress(m),500,93876,93876,90736,90718,90752,93902,8,400,10,,ISIC_9723646.JPG
break,html.Screen,4_9_1,2023-09-06T19:44:03.112Z,,0,,,NaN,,,,,,false,,,,93877,93876,,93876,,93902,8,400,,,
break_continue,html.Screen,4_9_2,2023-09-06T19:44:03.112Z,,0,,,NaN,,,,,,false,,,,93877,93877,,93877,,93902,8,400,,,
sequence,flow.Sequence,4_9,2023-09-06T19:44:03.112Z,,0,,,3125,completion,,,,,false,,,,93877,93877,90736,90718,90752,93902,8,400,,,
trial,html.Screen,4_10_0,2023-09-06T19:44:06.278Z,,0,1,,3157,response,ISIC_0011798.JPG,5,ISIC_0553565.JPG,ISIC_0553565.JPG,false,0,keypress(z),500,97043,97042,93885,93877,93902,97068,8,400,11,,ISIC_0011798.JPG
break,html.Screen,4_10_1,2023-09-06T19:44:06.278Z,,0,,,NaN,,,,,,false,,,,97043,97043,,97043,,97068,8,400,,,
break_continue,html.Screen,4_10_2,2023-09-06T19:44:06.278Z,,0,,,NaN,,,,,,false,,,,97043,97043,,97043,,97068,8,400,,,
sequence,flow.Sequence,4_10,2023-09-06T19:44:06.278Z,,0,,,3141,completion,,,,,false,,,,97043,97043,93885,93877,93902,97068,8,400,,,
trial,html.Screen,4_11_0,2023-09-06T19:44:09.810Z,,0,1,,3525,response,ISIC_5581936.JPG,7,ISIC_3424207.JPG,ISIC_5581936.JPG,false,1,keypress(m),500,100575,100575,97050,97043,97068,100600,8,400,12,,ISIC_3424207.JPG
break,html.Screen,4_11_1,2023-09-06T19:44:09.811Z,,0,,,NaN,,,,,,false,,,,100576.00000000001,100576.00000000001,,100575,,100600,8,400,,,
break_continue,html.Screen,4_11_2,2023-09-06T19:44:09.811Z,,0,,,NaN,,,,,,false,,,,100576.00000000001,100576.00000000001,,100576.00000000001,,100600,8,400,,,
sequence,flow.Sequence,4_11,2023-09-06T19:44:09.811Z,,0,,,3508.0000000000146,completion,,,,,false,,,,100576.00000000001,100576.00000000001,97050,97043,97068,100600,8,400,,,
trial,html.Screen,4_12_0,2023-09-06T19:44:13.108Z,,0,1,,3289,response,ISIC_8504479.JPG,6,ISIC_0010432.JPG,ISIC_0010432.JPG,false,0,keypress(z),500,103873,103873,100584,100576.00000000001,100600,103901,8,400,13,,ISIC_8504479.JPG
break,html.Screen,4_12_1,2023-09-06T19:44:13.108Z,,0,,,NaN,,,,,,false,,,,103873,103873,,103873,,103901,8,400,,,
break_continue,html.Screen,4_12_2,2023-09-06T19:44:13.108Z,,0,,,NaN,,,,,,false,,,,103874,103874,,103874,,103901,8,400,,,
sequence,flow.Sequence,4_12,2023-09-06T19:44:13.109Z,,0,,,3274,completion,,,,,false,,,,103874,103874,100584,100576.00000000001,100600,103901,8,400,,,
trial,html.Screen,4_13_0,2023-09-06T19:44:16.072Z,,0,1,,2953,response,ISIC_4848047.JPG,8,ISIC_0027327.JPG,ISIC_4848047.JPG,false,1,keypress(m),500,106838.00000000001,106837,103884,103874,103901,106866,8,400,14,,ISIC_0027327.JPG
break,html.Screen,4_13_1,2023-09-06T19:44:16.073Z,,0,,,NaN,,,,,,false,,,,106839,106838.00000000001,,106838.00000000001,,106866,8,400,,,
break_continue,html.Screen,4_13_2,2023-09-06T19:44:16.074Z,,0,,,NaN,,,,,,false,,,,106839,106839,,106839,,106866,8,400,,,
sequence,flow.Sequence,4_13,2023-09-06T19:44:16.074Z,,0,,,2938,completion,,,,,false,,,,106839,106839,103884,103874,103901,106866,8,400,,,
trial,html.Screen,4_14_0,2023-09-06T19:44:19.157Z,,0,1,,3072,response,ISIC_3084213.JPG,7,ISIC_8702237.JPG,ISIC_8702237.JPG,false,0,keypress(z),500,109922,109922,106850,106839,106866,109950,8,400,15,,ISIC_3084213.JPG
break,html.Screen,4_14_1,2023-09-06T19:44:19.158Z,,0,,,NaN,,,,,,false,,,,109923,109923,,109923,,109950,8,400,,,
break_continue,html.Screen,4_14_2,2023-09-06T19:44:19.158Z,,0,,,NaN,,,,,,false,,,,109923,109923,,109923,,109950,8,400,,,
sequence,flow.Sequence,4_14,2023-09-06T19:44:19.158Z,,0,,,3057,completion,,,,,false,,,,109923,109923,106850,106839,106866,109950,8,400,,,
trial,html.Screen,4_15_0,2023-09-06T19:44:22.096Z,,0,1,,2928,response,ISIC_8693637.JPG,3,ISIC_2772616.JPG,ISIC_8693637.JPG,false,1,keypress(m),500,112861,112861,109933,109923,109950,112882,8,400,16,,ISIC_2772616.JPG
break,html.Screen,4_15_1,2023-09-06T19:44:22.096Z,,0,,,NaN,,,,,,false,,,,112862.00000000001,112862.00000000001,,112862.00000000001,,112882,8,400,,,
break_continue,html.Screen,4_15_2,2023-09-06T19:44:22.097Z,,0,,,NaN,,,,,,false,,,,112862.00000000001,112862.00000000001,,112862.00000000001,,112882,8,400,,,
sequence,flow.Sequence,4_15,2023-09-06T19:44:22.097Z,,0,,,2912.0000000000146,completion,,,,,false,,,,112863,112862.00000000001,109933,109923,109950,112882,8,400,,,
trial,html.Screen,4_16_0,2023-09-06T19:44:25.346Z,,0,1,,3246,response,ISIC_0004996.JPG,5,ISIC_0057669.JPG,ISIC_0004996.JPG,false,1,keypress(m),500,116111,116111,112865,112863,112882,116133,8,400,17,,ISIC_0057669.JPG
break,html.Screen,4_16_1,2023-09-06T19:44:25.346Z,,0,,,NaN,,,,,,false,,,,116112.00000000001,116112.00000000001,,116111,,116133,8,400,,,
break_continue,html.Screen,4_16_2,2023-09-06T19:44:25.346Z,,0,,,NaN,,,,,,false,,,,116112.00000000001,116112.00000000001,,116112.00000000001,,116133,8,400,,,
sequence,flow.Sequence,4_16,2023-09-06T19:44:25.346Z,,0,,,3230.0000000000146,completion,,,,,false,,,,116112.00000000001,116112.00000000001,112865,112863,112882,116133,8,400,,,
trial,html.Screen,4_17_0,2023-09-06T19:44:28.337Z,,0,1,,2987.0000000000146,response,ISIC_8535943.JPG,5,ISIC_0069395.JPG,ISIC_8535943.JPG,false,1,keypress(m),500,119103.00000000001,119103.00000000001,116116,116112.00000000001,116133,119132,8,400,18,,ISIC_0069395.JPG
break,html.Screen,4_17_1,2023-09-06T19:44:28.338Z,,0,,,NaN,,,,,,false,,,,119104,119104,,119103.00000000001,,119132,8,400,,,
break_continue,html.Screen,4_17_2,2023-09-06T19:44:28.338Z,,0,,,NaN,,,,,,false,,,,119104,119104,,119104,,119132,8,400,,,
sequence,flow.Sequence,4_17,2023-09-06T19:44:28.338Z,,0,,,2971,completion,,,,,false,,,,119104,119104,116116,116112.00000000001,116133,119132,8,400,,,
trial,html.Screen,4_18_0,2023-09-06T19:44:31.756Z,,0,1,,3406,response,ISIC_6546903.JPG,8,ISIC_0058079.JPG,ISIC_6546903.JPG,false,1,keypress(m),500,122522,122522,119116,119104,119132,122547,8,400,19,,ISIC_0058079.JPG
break,html.Screen,4_18_1,2023-09-06T19:44:31.756Z,,0,,,NaN,,,,,,false,,,,122522,122522,,122522,,122547,8,400,,,
break_continue,html.Screen,4_18_2,2023-09-06T19:44:31.757Z,,0,,,NaN,,,,,,false,,,,122523,122523,,122523,,122547,8,400,,,
sequence,flow.Sequence,4_18,2023-09-06T19:44:31.757Z,,0,,,3391,completion,,,,,false,,,,122523,122523,119116,119104,119132,122547,8,400,,,
trial,html.Screen,4_19_0,2023-09-06T19:44:35.364Z,,0,1,,3598.0000000000146,response,ISIC_5122220.JPG,5,ISIC_0010442.JPG,ISIC_5122220.JPG,false,1,keypress(m),500,126130.00000000001,126130.00000000001,122532,122523,122547,126149,8,400,20,,ISIC_0010442.JPG
break,html.Screen,4_19_1,2023-09-06T19:44:35.364Z,,0,,,NaN,,,,,,false,,,,126130.00000000001,126130.00000000001,,126130.00000000001,,126149,8,400,,,
break_continue,html.Screen,4_19_2,2023-09-06T19:44:35.364Z,,0,,,NaN,,,,,,false,,,,126131,126131,,126130.00000000001,,126149,8,400,,,
sequence,flow.Sequence,4_19,2023-09-06T19:44:35.365Z,,0,,,3584,completion,,,,,false,,,,126131,126131,122532,122523,122547,126149,8,400,,,
trial,html.Screen,4_20_0,2023-09-06T19:44:38.753Z,,0,1,,3387,response,ISIC_0057892.JPG,1,ISIC_0058408.JPG,ISIC_0058408.JPG,false,0,keypress(z),500,129519,129519,126132,126131,126149,129548,8,400,21,,ISIC_0057892.JPG
break,html.Screen,4_20_1,2023-09-06T19:44:38.753Z,,0,,,NaN,,,,,,false,,,,129520.00000000001,129520.00000000001,,129519,,129548,8,400,,,
break_continue,html.Screen,4_20_2,2023-09-06T19:44:38.754Z,,0,,,NaN,,,,,,false,,,,129520.00000000001,129520.00000000001,,129520.00000000001,,129548,8,400,,,
sequence,flow.Sequence,4_20,2023-09-06T19:44:38.754Z,,0,,,3371.0000000000146,completion,,,,,false,,,,129520.00000000001,129520.00000000001,126132,126131,126149,129548,8,400,,,
trial,html.Screen,4_21_0,2023-09-06T19:44:41.705Z,,0,1,,2940,response,ISIC_0061244.JPG,5,ISIC_5026709.JPG,ISIC_5026709.JPG,false,0,keypress(z),500,132471,132471,129531,129520.00000000001,129548,132497,8,400,22,,ISIC_0061244.JPG
break,html.Screen,4_21_1,2023-09-06T19:44:41.705Z,,0,,,NaN,,,,,,false,,,,132472,132471,,132471,,132497,8,400,,,
break_continue,html.Screen,4_21_2,2023-09-06T19:44:41.705Z,,0,,,NaN,,,,,,false,,,,132472,132472,,132472,,132497,8,400,,,
sequence,flow.Sequence,4_21,2023-09-06T19:44:41.705Z,,0,,,2924,completion,,,,,false,,,,132472,132472,129531,129520.00000000001,129548,132497,8,400,,,
trial,html.Screen,4_22_0,2023-09-06T19:44:44.756Z,,0,1,,3042,response,ISIC_0024806.JPG,7,ISIC_0033211.JPG,ISIC_0033211.JPG,false,0,keypress(z),500,135523,135523,132481,132472,132497,135547,8,400,23,,ISIC_0024806.JPG
break,html.Screen,4_22_1,2023-09-06T19:44:44.757Z,,0,,,NaN,,,,,,false,,,,135523,135523,,135523,,135547,8,400,,,
break_continue,html.Screen,4_22_2,2023-09-06T19:44:44.757Z,,0,,,NaN,,,,,,false,,,,135524,135524,,135523,,135547,8,400,,,
sequence,flow.Sequence,4_22,2023-09-06T19:44:44.757Z,,0,,,3027,completion,,,,,false,,,,135524,135524,132481,132472,132497,135547,8,400,,,
trial,html.Screen,4_23_0,2023-09-06T19:44:47.623Z,,0,1,,2860.000000000029,response,ISIC_0065740.JPG,10,ISIC_0032945.JPG,ISIC_0065740.JPG,false,1,keypress(m),500,138390.00000000003,138390.00000000003,135530,135524,135547,138412,8,400,24,,ISIC_0032945.JPG
break,html.Screen,4_23_1,2023-09-06T19:44:47.624Z,,0,,,NaN,,,,,,false,,,,138391,138390.00000000003,,138390.00000000003,,138412,8,400,,,
break_continue,html.Screen,4_23_2,2023-09-06T19:44:47.624Z,,0,,,NaN,,,,,,false,,,,138391,138391,,138391,,138412,8,400,,,
sequence,flow.Sequence,4_23,2023-09-06T19:44:47.624Z,,0,,,2844,completion,,,,,false,,,,138391,138391,135530,135524,135547,138412,8,400,,,
trial,html.Screen,4_24_0,2023-09-06T19:44:50.625Z,,0,1,,2996,response,ISIC_0061705.JPG,3,ISIC_0063445.JPG,ISIC_0061705.JPG,false,1,keypress(m),500,141392,141392,138396,138391,138412,141413,8,400,25,,ISIC_0063445.JPG
break,html.Screen,4_24_1,2023-09-06T19:44:50.626Z,,0,,,NaN,,,,,,false,,,,141392,141392,,141392,,141413,8,400,,,
break_continue,html.Screen,4_24_2,2023-09-06T19:44:50.626Z,,0,,,NaN,,,,,,false,,,,141393,141393,,141393,,141413,8,400,,,
sequence,flow.Sequence,4_24,2023-09-06T19:44:50.626Z,,0,,,2981,completion,,,,,false,,,,141393,141393,138396,138391,138412,141413,8,400,,,
trial,html.Screen,4_25_0,2023-09-06T19:44:53.874Z,,0,1,,3245,response,ISIC_6557642.JPG,0,ISIC_1979534.JPG,ISIC_6557642.JPG,false,1,keypress(m),500,144641,144641,141396,141393,141413,144662,8,400,26,,ISIC_1979534.JPG
break,html.Screen,4_25_1,2023-09-06T19:44:53.875Z,,0,,,NaN,,,,,,false,,,,144642,144642,,144641,,144662,8,400,,,
break_continue,html.Screen,4_25_2,2023-09-06T19:44:53.875Z,,0,,,NaN,,,,,,false,,,,144642,144642,,144642,,144662,8,400,,,
sequence,flow.Sequence,4_25,2023-09-06T19:44:53.875Z,,0,,,3229,completion,,,,,false,,,,144642,144642,141396,141393,141413,144662,8,400,,,
trial,html.Screen,4_26_0,2023-09-06T19:44:56.634Z,,0,1,,2756,response,ISIC_0029056.JPG,7,ISIC_0024745.JPG,ISIC_0024745.JPG,false,0,keypress(z),500,147402.00000000003,147401,144645,144642,144662,147428,8,400,27,,ISIC_0029056.JPG
break,html.Screen,4_26_1,2023-09-06T19:44:56.635Z,,0,,,NaN,,,,,,false,,,,147402.00000000003,147402.00000000003,,147402.00000000003,,147428,8,400,,,
break_continue,html.Screen,4_26_2,2023-09-06T19:44:56.635Z,,0,,,NaN,,,,,,false,,,,147402.00000000003,147402.00000000003,,147402.00000000003,,147428,8,400,,,
sequence,flow.Sequence,4_26,2023-09-06T19:44:56.635Z,,0,,,2740.000000000029,completion,,,,,false,,,,147402.00000000003,147402.00000000003,144645,144642,144662,147428,8,400,,,
trial,html.Screen,4_27_0,2023-09-06T19:44:59.630Z,,0,1,,2985,response,ISIC_0026611.JPG,2,ISIC_7980339.JPG,ISIC_0026611.JPG,false,1,keypress(m),500,150397,150397,147412,147403,147428,150428,8,400,28,,ISIC_7980339.JPG
break,html.Screen,4_27_1,2023-09-06T19:44:59.630Z,,0,,,NaN,,,,,,false,,,,150398,150397,,150397,,150428,8,400,,,
break_continue,html.Screen,4_27_2,2023-09-06T19:44:59.631Z,,0,,,NaN,,,,,,false,,,,150398,150398,,150398,,150428,8,400,,,
sequence,flow.Sequence,4_27,2023-09-06T19:44:59.631Z,,0,,,2970,completion,,,,,false,,,,150398,150398,147412,147403,147428,150428,8,400,,,
trial,html.Screen,4_28_0,2023-09-06T19:45:02.921Z,,0,1,,3276.000000000029,response,ISIC_0013831.JPG,15,ISIC_0024263.JPG,ISIC_0013831.JPG,false,1,keypress(m),500,153688.00000000003,153688.00000000003,150412,150398,150428,153711,8,400,29,,ISIC_0024263.JPG
break,html.Screen,4_28_1,2023-09-06T19:45:02.922Z,,0,,,NaN,,,,,,false,,,,153689,153689,,153688.00000000003,,153711,8,400,,,
break_continue,html.Screen,4_28_2,2023-09-06T19:45:02.922Z,,0,,,NaN,,,,,,false,,,,153689,153689,,153689,,153711,8,400,,,
sequence,flow.Sequence,4_28,2023-09-06T19:45:02.922Z,,0,,,3261,completion,,,,,false,,,,153689,153689,150412,150398,150428,153711,8,400,,,
trial,html.Screen,4_29_0,2023-09-06T19:45:06.112Z,,0,1,,3184,response,ISIC_1008609.JPG,6,ISIC_0028297.JPG,ISIC_1008609.JPG,false,1,keypress(m),500,156879,156879,153695,153689,153711,156910,8,400,30,,ISIC_0028297.JPG
break,html.Screen,4_29_1,2023-09-06T19:45:06.112Z,,0,,,NaN,,,,,,false,,,,156880,156879,,156879,,156910,8,400,,,
break_continue,html.Screen,4_29_2,2023-09-06T19:45:06.112Z,,0,,,NaN,,,,,,false,,,,156880,156880,,156880,,156910,8,400,,,
sequence,flow.Sequence,4_29,2023-09-06T19:45:06.112Z,,0,,,3169,completion,,,,,false,,,,156880,156880,153695,153689,153711,156910,8,400,,,
trial,html.Screen,4_30_0,2023-09-06T19:45:09.404Z,,0,1,,3279,response,ISIC_0031642.JPG,4,ISIC_0072294.JPG,ISIC_0072294.JPG,false,0,keypress(z),500,160172,160172,156893,156880,156910,160194,8,400,31,,ISIC_0031642.JPG
break,html.Screen,4_30_1,2023-09-06T19:45:09.405Z,,0,,,NaN,,,,,,false,,,,160173,160172,,160172,,160194,8,400,,,
break_continue,html.Screen,4_30_2,2023-09-06T19:45:09.405Z,,0,,,NaN,,,,,,false,,,,160173,160173,,160173,,160194,8,400,,,
sequence,flow.Sequence,4_30,2023-09-06T19:45:09.405Z,,0,,,3263,completion,,,,,false,,,,160173,160173,156893,156880,156910,160194,8,400,,,
trial,html.Screen,4_31_0,2023-09-06T19:45:12.063Z,,0,1,,2653,response,ISIC_5564757.JPG,2,ISIC_7833008.JPG,ISIC_7833008.JPG,false,0,keypress(z),500,162831.00000000003,162830,160177,160173,160194,162860,8,400,32,,ISIC_5564757.JPG
break,html.Screen,4_31_1,2023-09-06T19:45:12.063Z,,0,,,NaN,,,,,,false,,,,162831.00000000003,162831.00000000003,,162831.00000000003,,162860,8,400,,,
break_continue,html.Screen,4_31_2,2023-09-06T19:45:12.063Z,,0,,,NaN,,,,,,false,,,,162831.00000000003,162831.00000000003,,162831.00000000003,,162860,8,400,,,
sequence,flow.Sequence,4_31,2023-09-06T19:45:12.064Z,,0,,,2637.000000000029,completion,,,,,false,,,,162831.00000000003,162831.00000000003,160177,160173,160194,162860,8,400,,,
trial,html.Screen,4_32_0,2023-09-06T19:45:15.401Z,,0,1,,3325,response,ISIC_0808203.JPG,13,ISIC_0054651.JPG,ISIC_0808203.JPG,false,1,keypress(m),500,166169,166169,162844,162831.00000000003,162860,166193,8,400,33,,ISIC_0054651.JPG
break,html.Screen,4_32_1,2023-09-06T19:45:15.402Z,,0,,,NaN,,,,,,false,,,,166170.00000000003,166170.00000000003,,166169,,166193,8,400,,,
break_continue,html.Screen,4_32_2,2023-09-06T19:45:15.402Z,,0,,,NaN,,,,,,false,,,,166170.00000000003,166170.00000000003,,166170.00000000003,,166193,8,400,,,
sequence,flow.Sequence,4_32,2023-09-06T19:45:15.402Z,,0,,,3310.000000000029,completion,,,,,false,,,,166170.00000000003,166170.00000000003,162844,162831.00000000003,162860,166193,8,400,,,
trial,html.Screen,4_33_0,2023-09-06T19:45:18.702Z,,0,1,,3292,response,ISIC_0034075.JPG,6,ISIC_8709211.JPG,ISIC_8709211.JPG,false,0,keypress(z),500,169470,169469,166177,166170.00000000003,166193,169493,8,400,34,,ISIC_0034075.JPG
break,html.Screen,4_33_1,2023-09-06T19:45:18.702Z,,0,,,NaN,,,,,,false,,,,169470,169470,,169470,,169493,8,400,,,
break_continue,html.Screen,4_33_2,2023-09-06T19:45:18.702Z,,0,,,NaN,,,,,,false,,,,169470,169470,,169470,,169493,8,400,,,
sequence,flow.Sequence,4_33,2023-09-06T19:45:18.703Z,,0,,,3277,completion,,,,,false,,,,169471,169470,166177,166170.00000000003,166193,169493,8,400,,,
trial,html.Screen,4_34_0,2023-09-06T19:45:21.458Z,,0,1,,2750,response,ISIC_0437978.JPG,10,ISIC_3449290.JPG,ISIC_0437978.JPG,false,1,keypress(m),500,172226,172226,169476,169471,169493,172259,8,400,35,,ISIC_3449290.JPG
break,html.Screen,4_34_1,2023-09-06T19:45:21.459Z,,0,,,NaN,,,,,,false,,,,172227,172227,,172227,,172259,8,400,,,
break_continue,html.Screen,4_34_2,2023-09-06T19:45:21.459Z,,0,,,NaN,,,,,,false,,,,172227,172227,,172227,,172259,8,400,,,
sequence,flow.Sequence,4_34,2023-09-06T19:45:21.459Z,,0,,,2734,completion,,,,,false,,,,172227,172227,169476,169471,169493,172259,8,400,,,
trial,html.Screen,4_35_0,2023-09-06T19:45:24.171Z,,0,1,,2696,response,ISIC_0064120.JPG,0,ISIC_8066660.JPG,ISIC_8066660.JPG,false,0,keypress(z),500,174940,174939,172243,172227,172259,174976,8,400,36,,ISIC_0064120.JPG
break,html.Screen,4_35_1,2023-09-06T19:45:24.172Z,,0,,,NaN,,,,,,false,,,,174940,174940,,174940,,174976,8,400,,,
break_continue,html.Screen,4_35_2,2023-09-06T19:45:24.172Z,,0,,,NaN,,,,,,false,,,,174940,174940,,174940,,174976,8,400,,,
sequence,flow.Sequence,4_35,2023-09-06T19:45:24.172Z,,0,,,2681,completion,,,,,false,,,,174941,174940,172243,172227,172259,174976,8,400,,,
trial,html.Screen,4_36_0,2023-09-06T19:45:26.814Z,,0,1,,2623,response,ISIC_0067170.JPG,2,ISIC_3195720.JPG,ISIC_3195720.JPG,false,0,keypress(z),500,177582,177582,174959,174941,174976,177609,8,400,37,,ISIC_0067170.JPG
break,html.Screen,4_36_1,2023-09-06T19:45:26.814Z,,0,,,NaN,,,,,,false,,,,177583,177583,,177582,,177609,8,400,,,
break_continue,html.Screen,4_36_2,2023-09-06T19:45:26.815Z,,0,,,NaN,,,,,,false,,,,177583,177583,,177583,,177609,8,400,,,
sequence,flow.Sequence,4_36,2023-09-06T19:45:26.815Z,,0,,,2607,completion,,,,,false,,,,177583,177583,174959,174941,174976,177609,8,400,,,
trial,html.Screen,4_37_0,2023-09-06T19:45:29.504Z,,0,1,,2681,response,ISIC_0067873.JPG,11,ISIC_0001923.JPG,ISIC_0001923.JPG,false,0,keypress(z),500,180273,180273,177592,177583,177609,180308,8,400,38,,ISIC_0067873.JPG
break,html.Screen,4_37_1,2023-09-06T19:45:29.505Z,,0,,,NaN,,,,,,false,,,,180273,180273,,180273,,180308,8,400,,,
break_continue,html.Screen,4_37_2,2023-09-06T19:45:29.505Z,,0,,,NaN,,,,,,false,,,,180273,180273,,180273,,180308,8,400,,,
sequence,flow.Sequence,4_37,2023-09-06T19:45:29.505Z,,0,,,2664,completion,,,,,false,,,,180273,180273,177592,177583,177609,180308,8,400,,,
trial,html.Screen,4_38_0,2023-09-06T19:45:32.187Z,,0,1,,2663,response,ISIC_0056679.JPG,7,ISIC_0010651.JPG,ISIC_0010651.JPG,false,0,keypress(z),500,182955,182955,180292,180274,180308,182991,8,400,39,,ISIC_0056679.JPG
break,html.Screen,4_38_1,2023-09-06T19:45:32.187Z,,0,,,NaN,,,,,,false,,,,182956.00000000003,182956.00000000003,,182955,,182991,8,400,,,
break_continue,html.Screen,4_38_2,2023-09-06T19:45:32.187Z,,0,,,NaN,,,,,,false,,,,182956.00000000003,182956.00000000003,,182956.00000000003,,182991,8,400,,,
sequence,flow.Sequence,4_38,2023-09-06T19:45:32.187Z,,0,,,2648.000000000029,completion,,,,,false,,,,182956.00000000003,182956.00000000003,180292,180274,180308,182991,8,400,,,
trial,html.Screen,4_39_0,2023-09-06T19:45:35.386Z,,0,1,,3181,response,ISIC_9564379.JPG,5,ISIC_0057594.JPG,ISIC_9564379.JPG,false,1,keypress(m),500,186155,186155,182974,182956.00000000003,182991,186191,8,400,40,,ISIC_0057594.JPG
break,html.Screen,4_39_1,2023-09-06T19:45:35.387Z,,0,,,NaN,,,,,,false,,,,186155,186155,,186155,,186191,8,400,,,
break_continue,html.Screen,4_39_2,2023-09-06T19:45:35.387Z,,0,,,NaN,,,,,,false,,,,186156,186155,,186155,,186191,8,400,,,
sequence,flow.Sequence,4_39,2023-09-06T19:45:35.387Z,,0,,,3164,completion,,,,,false,,,,186156,186155,182974,182956.00000000003,182991,186191,8,400,,,
trial,html.Screen,4_40_0,2023-09-06T19:45:38.157Z,,0,1,,2751,response,ISIC_4189981.JPG,6,ISIC_3389695.JPG,ISIC_3389695.JPG,false,0,keypress(z),500,188926.00000000003,188925,186174,186156,186191,188958,8,400,41,,ISIC_4189981.JPG
break,html.Screen,4_40_1,2023-09-06T19:45:38.157Z,,0,,,NaN,,,,,,false,,,,188926.00000000003,188926.00000000003,,188926.00000000003,,188958,8,400,,,
break_continue,html.Screen,4_40_2,2023-09-06T19:45:38.157Z,,0,,,NaN,,,,,,false,,,,188926.00000000003,188926.00000000003,,188926.00000000003,,188958,8,400,,,
sequence,flow.Sequence,4_40,2023-09-06T19:45:38.158Z,,0,,,2735.000000000029,completion,,,,,false,,,,188926.00000000003,188926.00000000003,186174,186156,186191,188958,8,400,,,
trial,html.Screen,4_41_0,2023-09-06T19:45:40.837Z,,0,1,,2665,response,ISIC_5994007.JPG,8,ISIC_9337570.JPG,ISIC_5994007.JPG,false,1,keypress(m),500,191606,191606,188941,188926.00000000003,188958,191641,8,400,42,,ISIC_9337570.JPG
break,html.Screen,4_41_1,2023-09-06T19:45:40.838Z,,0,,,NaN,,,,,,false,,,,191607,191606,,191606,,191641,8,400,,,
break_continue,html.Screen,4_41_2,2023-09-06T19:45:40.838Z,,0,,,NaN,,,,,,false,,,,191607,191607,,191607,,191641,8,400,,,
sequence,flow.Sequence,4_41,2023-09-06T19:45:40.838Z,,0,,,2649,completion,,,,,false,,,,191607,191607,188941,188926.00000000003,188958,191641,8,400,,,
trial,html.Screen,4_42_0,2023-09-06T19:45:43.668Z,,0,1,,2813,response,ISIC_0030437.JPG,8,ISIC_7287303.JPG,ISIC_7287303.JPG,false,0,keypress(z),500,194437,194437,191624,191607,191641,194473,8,400,43,,ISIC_0030437.JPG
break,html.Screen,4_42_1,2023-09-06T19:45:43.668Z,,0,,,NaN,,,,,,false,,,,194437,194437,,194437,,194473,8,400,,,
break_continue,html.Screen,4_42_2,2023-09-06T19:45:43.669Z,,0,,,NaN,,,,,,false,,,,194438.00000000003,194438.00000000003,,194438.00000000003,,194473,8,400,,,
sequence,flow.Sequence,4_42,2023-09-06T19:45:43.669Z,,0,,,2797.000000000029,completion,,,,,false,,,,194438.00000000003,194438.00000000003,191624,191607,191641,194473,8,400,,,
trial,html.Screen,4_43_0,2023-09-06T19:45:46.660Z,,0,1,,2973,response,ISIC_0026963.JPG,12,ISIC_7835257.JPG,ISIC_0026963.JPG,false,1,keypress(m),500,197429,197429,194456,194438.00000000003,194473,197456,8,400,44,,ISIC_7835257.JPG
break,html.Screen,4_43_1,2023-09-06T19:45:46.661Z,,0,,,NaN,,,,,,false,,,,197430,197430,,197429,,197456,8,400,,,
break_continue,html.Screen,4_43_2,2023-09-06T19:45:46.661Z,,0,,,NaN,,,,,,false,,,,197430,197430,,197430,,197456,8,400,,,
sequence,flow.Sequence,4_43,2023-09-06T19:45:46.661Z,,0,,,2957,completion,,,,,false,,,,197430,197430,194456,194438.00000000003,194473,197456,8,400,,,
trial,html.Screen,4_44_0,2023-09-06T19:45:49.342Z,,0,1,,2671,response,ISIC_0030077.JPG,9,ISIC_7336383.JPG,ISIC_7336383.JPG,false,0,keypress(z),500,200111,200111,197440,197430,197456,200139,8,400,45,,ISIC_0030077.JPG
break,html.Screen,4_44_1,2023-09-06T19:45:49.342Z,,0,,,NaN,,,,,,false,,,,200112,200112,,200111,,200139,8,400,,,
break_continue,html.Screen,4_44_2,2023-09-06T19:45:49.343Z,,0,,,NaN,,,,,,false,,,,200112,200112,,200112,,200139,8,400,,,
sequence,flow.Sequence,4_44,2023-09-06T19:45:49.343Z,,0,,,2656,completion,,,,,false,,,,200112,200112,197440,197430,197456,200139,8,400,,,
trial,html.Screen,4_45_0,2023-09-06T19:45:52.132Z,,0,1,,2778,response,ISIC_8742407.JPG,9,ISIC_0031101.JPG,ISIC_0031101.JPG,false,0,keypress(z),500,202902.00000000003,202901,200123,200112,200139,202939,8,400,46,,ISIC_8742407.JPG
break,html.Screen,4_45_1,2023-09-06T19:45:52.133Z,,0,,,NaN,,,,,,false,,,,202902.00000000003,202902.00000000003,,202902.00000000003,,202939,8,400,,,
break_continue,html.Screen,4_45_2,2023-09-06T19:45:52.133Z,,0,,,NaN,,,,,,false,,,,202902.00000000003,202902.00000000003,,202902.00000000003,,202939,8,400,,,
sequence,flow.Sequence,4_45,2023-09-06T19:45:52.133Z,,0,,,2763.000000000029,completion,,,,,false,,,,202902.00000000003,202902.00000000003,200123,200112,200139,202939,8,400,,,
trial,html.Screen,4_46_0,2023-09-06T19:45:55.060Z,,0,1,,2908,response,ISIC_9203914.JPG,1,ISIC_0009735.JPG,ISIC_0009735.JPG,false,0,keypress(z),500,205829,205829,202921,202902.00000000003,202939,205856,8,400,47,,ISIC_9203914.JPG
break,html.Screen,4_46_1,2023-09-06T19:45:55.060Z,,0,,,NaN,,,,,,false,,,,205830,205830,,205829,,205856,8,400,,,
break_continue,html.Screen,4_46_2,2023-09-06T19:45:55.061Z,,0,,,NaN,,,,,,false,,,,205830,205830,,205830,,205856,8,400,,,
sequence,flow.Sequence,4_46,2023-09-06T19:45:55.061Z,,0,,,2891,completion,,,,,false,,,,205830,205830,202921,202902.00000000003,202939,205856,8,400,,,
trial,html.Screen,4_47_0,2023-09-06T19:45:58.136Z,,0,1,,3067,response,ISIC_1881133.JPG,8,ISIC_0012107.JPG,ISIC_1881133.JPG,false,1,keypress(m),500,208906,208906,205839,205830,205856,208939,8,400,48,,ISIC_0012107.JPG
break,html.Screen,4_47_1,2023-09-06T19:45:58.137Z,,0,,,NaN,,,,,,false,,,,208906,208906,,208906,,208939,8,400,,,
break_continue,html.Screen,4_47_2,2023-09-06T19:45:58.137Z,,0,,,NaN,,,,,,false,,,,208907,208907,,208907,,208939,8,400,,,
sequence,flow.Sequence,4_47,2023-09-06T19:45:58.137Z,,0,,,3051,completion,,,,,false,,,,208907,208907,205839,205830,205856,208939,8,400,,,
trial,html.Screen,4_48_0,2023-09-06T19:46:00.774Z,,0,1,,2622,response,ISIC_0066240.JPG,14,ISIC_0032517.JPG,ISIC_0032517.JPG,false,0,keypress(z),500,211544,211544,208922,208907,208939,211572,8,400,49,,ISIC_0066240.JPG
break,html.Screen,4_48_1,2023-09-06T19:46:00.775Z,,0,,,NaN,,,,,,false,,,,211545.00000000003,211545.00000000003,,211544,,211572,8,400,,,
break_continue,html.Screen,4_48_2,2023-09-06T19:46:00.775Z,,0,,,NaN,,,,,,false,,,,211545.00000000003,211545.00000000003,,211545.00000000003,,211572,8,400,,,
sequence,flow.Sequence,4_48,2023-09-06T19:46:00.775Z,,0,,,2606.000000000029,completion,,,,,false,,,,211545.00000000003,211545.00000000003,208922,208907,208939,211572,8,400,,,
trial,html.Screen,4_49_0,2023-09-06T19:46:03.862Z,,0,1,,3077,response,ISIC_2046891.JPG,7,ISIC_5046340.JPG,ISIC_2046891.JPG,false,1,keypress(m),500,214632,214632,211555,211545.00000000003,211572,214655,8,400,50,,ISIC_5046340.JPG
break,html.Screen,4_49_1,2023-09-06T19:46:13.867Z,,0,,,9998,timeout,,,,,false,,,,224637,224637,214637,214632,214655,224653,8,400,,,
break_continue,html.Screen,4_49_2,2023-09-06T19:46:14.520Z,,0,,,663,response,,,,,false,continue,keypress(Space),,225290,225300,224637,224637,224653,225320,8,400,,,
sequence,flow.Sequence,4_49,2023-09-06T19:46:14.520Z,,0,,,13728,completion,,,,,false,,,,225291,225300,211555,211545.00000000003,211572,225320,8,400,,,
trial,html.Screen,4_50_0,2023-09-06T19:46:17.309Z,,0,2,,2776,response,ISIC_7196249.JPG,3,ISIC_0009187.JPG,ISIC_0009187.JPG,false,0,keypress(z),500,228080,228080,225304,225291,225320,228102,8,400,1,,ISIC_7196249.JPG
break,html.Screen,4_50_1,2023-09-06T19:46:17.310Z,,0,,,NaN,,,,,,false,,,,228080,228080,,228080,,228102,8,400,,,
break_continue,html.Screen,4_50_2,2023-09-06T19:46:17.310Z,,0,,,NaN,,,,,,false,,,,228081.00000000003,228080,,228080,,228102,8,400,,,
sequence,flow.Sequence,4_50,2023-09-06T19:46:17.310Z,,0,,,2760,completion,,,,,false,,,,228081.00000000003,228080,225304,225291,225320,228102,8,400,,,
trial,html.Screen,4_51_0,2023-09-06T19:46:20.068Z,,0,2,,2754,response,ISIC_8222254.JPG,8,ISIC_7227223.JPG,ISIC_7227223.JPG,false,0,keypress(z),500,230839,230839,228085,228081.00000000003,228102,230869,8,400,2,,ISIC_8222254.JPG
break,html.Screen,4_51_1,2023-09-06T19:46:20.069Z,,0,,,NaN,,,,,,false,,,,230840,230839,,230839,,230869,8,400,,,
break_continue,html.Screen,4_51_2,2023-09-06T19:46:20.069Z,,0,,,NaN,,,,,,false,,,,230840,230840,,230840,,230869,8,400,,,
sequence,flow.Sequence,4_51,2023-09-06T19:46:20.069Z,,0,,,2738,completion,,,,,false,,,,230840,230840,228085,228081.00000000003,228102,230869,8,400,,,
trial,html.Screen,4_52_0,2023-09-06T19:46:23.027Z,,0,2,,2945,response,ISIC_0031671.JPG,11,ISIC_8503961.JPG,ISIC_8503961.JPG,false,0,keypress(z),500,233798,233798,230853,230840,230869,233835,8,400,3,,ISIC_0031671.JPG
break,html.Screen,4_52_1,2023-09-06T19:46:23.028Z,,0,,,NaN,,,,,,false,,,,233799,233799,,233798,,233835,8,400,,,
break_continue,html.Screen,4_52_2,2023-09-06T19:46:23.028Z,,0,,,NaN,,,,,,false,,,,233799,233799,,233799,,233835,8,400,,,
sequence,flow.Sequence,4_52,2023-09-06T19:46:23.028Z,,0,,,2930,completion,,,,,false,,,,233799,233799,230853,230840,230869,233835,8,400,,,
trial,html.Screen,4_53_0,2023-09-06T19:46:25.914Z,,0,2,,2867,response,ISIC_6666329.JPG,9,ISIC_0065807.JPG,ISIC_6666329.JPG,false,1,keypress(m),500,236685,236685,233818,233799,233835,236719,8,400,4,,ISIC_0065807.JPG
break,html.Screen,4_53_1,2023-09-06T19:46:25.915Z,,0,,,NaN,,,,,,false,,,,236685,236685,,236685,,236719,8,400,,,
break_continue,html.Screen,4_53_2,2023-09-06T19:46:25.915Z,,0,,,NaN,,,,,,false,,,,236686,236686,,236686,,236719,8,400,,,
sequence,flow.Sequence,4_53,2023-09-06T19:46:25.915Z,,0,,,2851,completion,,,,,false,,,,236686,236686,233818,233799,233835,236719,8,400,,,
trial,html.Screen,4_54_0,2023-09-06T19:46:28.466Z,,0,2,,2534,response,ISIC_0055412.JPG,1,ISIC_9939963.JPG,ISIC_9939963.JPG,false,0,keypress(z),500,239237,239237,236703,236686,236719,239269,8,400,5,,ISIC_0055412.JPG
break,html.Screen,4_54_1,2023-09-06T19:46:28.466Z,,0,,,NaN,,,,,,false,,,,239237,239237,,239237,,239269,8,400,,,
break_continue,html.Screen,4_54_2,2023-09-06T19:46:28.467Z,,0,,,NaN,,,,,,false,,,,239238,239238,,239238,,239269,8,400,,,
sequence,flow.Sequence,4_54,2023-09-06T19:46:28.467Z,,0,,,2519,completion,,,,,false,,,,239238,239238,236703,236686,236719,239269,8,400,,,
trial,html.Screen,4_55_0,2023-09-06T19:46:31.311Z,,0,2,,2830,response,ISIC_0010145.JPG,5,ISIC_0000459.JPG,ISIC_0000459.JPG,false,0,keypress(z),500,242082,242082,239252,239238,239269,242117,8,400,6,,ISIC_0010145.JPG
break,html.Screen,4_55_1,2023-09-06T19:46:31.312Z,,0,,,NaN,,,,,,false,,,,242083,242083,,242082,,242117,8,400,,,
break_continue,html.Screen,4_55_2,2023-09-06T19:46:31.312Z,,0,,,NaN,,,,,,false,,,,242083,242083,,242083,,242117,8,400,,,
sequence,flow.Sequence,4_55,2023-09-06T19:46:31.312Z,,0,,,2814,completion,,,,,false,,,,242083,242083,239252,239238,239269,242117,8,400,,,
trial,html.Screen,4_56_0,2023-09-06T19:46:33.940Z,,0,2,,2610,response,ISIC_0012222.JPG,7,ISIC_6985859.JPG,ISIC_6985859.JPG,false,0,keypress(z),500,244712.00000000003,244711,242101,242083,242117,244734,8,400,7,,ISIC_0012222.JPG
break,html.Screen,4_56_1,2023-09-06T19:46:33.941Z,,0,,,NaN,,,,,,false,,,,244712.00000000003,244712.00000000003,,244712.00000000003,,244734,8,400,,,
break_continue,html.Screen,4_56_2,2023-09-06T19:46:33.941Z,,0,,,NaN,,,,,,false,,,,244712.00000000003,244712.00000000003,,244712.00000000003,,244734,8,400,,,
sequence,flow.Sequence,4_56,2023-09-06T19:46:33.941Z,,0,,,2595.000000000029,completion,,,,,false,,,,244712.00000000003,244712.00000000003,242101,242083,242117,244734,8,400,,,
trial,html.Screen,4_57_0,2023-09-06T19:46:36.809Z,,0,2,,2864.000000000029,response,ISIC_0027022.JPG,6,ISIC_3392433.JPG,ISIC_3392433.JPG,false,0,keypress(z),500,247581.00000000003,247581.00000000003,244717,244712.00000000003,244734,247617,8,400,8,,ISIC_0027022.JPG
break,html.Screen,4_57_1,2023-09-06T19:46:36.810Z,,0,,,NaN,,,,,,false,,,,247581.00000000003,247581.00000000003,,247581.00000000003,,247617,8,400,,,
break_continue,html.Screen,4_57_2,2023-09-06T19:46:36.810Z,,0,,,NaN,,,,,,false,,,,247582,247581.00000000003,,247581.00000000003,,247617,8,400,,,
sequence,flow.Sequence,4_57,2023-09-06T19:46:36.810Z,,0,,,2847.000000000029,completion,,,,,false,,,,247582,247581.00000000003,244717,244712.00000000003,244734,247617,8,400,,,
trial,html.Screen,4_58_0,2023-09-06T19:46:39.628Z,,0,2,,2799,response,ISIC_6427157.JPG,16,ISIC_0033393.JPG,ISIC_6427157.JPG,false,1,keypress(m),500,250399,250399,247600,247582,247617,250434,8,400,9,,ISIC_0033393.JPG
break,html.Screen,4_58_1,2023-09-06T19:46:39.628Z,,0,,,NaN,,,,,,false,,,,250400,250399,,250399,,250434,8,400,,,
break_continue,html.Screen,4_58_2,2023-09-06T19:46:39.628Z,,0,,,NaN,,,,,,false,,,,250400,250400,,250400,,250434,8,400,,,
sequence,flow.Sequence,4_58,2023-09-06T19:46:39.628Z,,0,,,2783,completion,,,,,false,,,,250400,250400,247600,247582,247617,250434,8,400,,,
trial,html.Screen,4_59_0,2023-09-06T19:46:42.514Z,,0,2,,2868,response,ISIC_0029963.JPG,16,ISIC_0054239.JPG,ISIC_0029963.JPG,false,1,keypress(m),500,253286,253286,250418,250400,250434,253317,8,400,10,,ISIC_0054239.JPG
break,html.Screen,4_59_1,2023-09-06T19:46:42.515Z,,0,,,NaN,,,,,,false,,,,253286,253286,,253286,,253317,8,400,,,
break_continue,html.Screen,4_59_2,2023-09-06T19:46:42.515Z,,0,,,NaN,,,,,,false,,,,253287,253287,,253286,,253317,8,400,,,
sequence,flow.Sequence,4_59,2023-09-06T19:46:42.515Z,,0,,,2853,completion,,,,,false,,,,253287,253287,250418,250400,250434,253317,8,400,,,
trial,html.Screen,4_60_0,2023-09-06T19:46:45.377Z,,0,2,,2848.000000000029,response,ISIC_6759173.JPG,7,ISIC_0694677.JPG,ISIC_0694677.JPG,false,0,keypress(z),500,256149,256148.00000000003,253300,253287,253317,256183,8,400,11,,ISIC_6759173.JPG
break,html.Screen,4_60_1,2023-09-06T19:46:45.377Z,,0,,,NaN,,,,,,false,,,,256149,256149,,256149,,256183,8,400,,,
break_continue,html.Screen,4_60_2,2023-09-06T19:46:45.378Z,,0,,,NaN,,,,,,false,,,,256149,256149,,256149,,256183,8,400,,,
sequence,flow.Sequence,4_60,2023-09-06T19:46:45.378Z,,0,,,2832,completion,,,,,false,,,,256149,256149,253300,253287,253317,256183,8,400,,,
trial,html.Screen,4_61_0,2023-09-06T19:46:48.363Z,,0,2,,2968,response,ISIC_0034068.JPG,0,ISIC_5737704.JPG,ISIC_0034068.JPG,false,1,keypress(m),500,259135,259135,256167,256149.99999999997,256183,259166,8,400,12,,ISIC_5737704.JPG
break,html.Screen,4_61_1,2023-09-06T19:46:48.364Z,,0,,,NaN,,,,,,false,,,,259136.00000000003,259136.00000000003,,259135,,259166,8,400,,,
break_continue,html.Screen,4_61_2,2023-09-06T19:46:48.364Z,,0,,,NaN,,,,,,false,,,,259136.00000000003,259136.00000000003,,259136.00000000003,,259166,8,400,,,
sequence,flow.Sequence,4_61,2023-09-06T19:46:48.364Z,,0,,,2953.000000000029,completion,,,,,false,,,,259136.00000000003,259136.00000000003,256167,256149,256183,259166,8,400,,,
trial,html.Screen,4_62_0,2023-09-06T19:46:51.285Z,,0,2,,2908.000000000029,response,ISIC_0024892.JPG,5,ISIC_0072691.JPG,ISIC_0024892.JPG,false,1,keypress(m),500,262057.00000000003,262057.00000000003,259149,259136.00000000003,259166,262082,8,400,13,,ISIC_0072691.JPG
break,html.Screen,4_62_1,2023-09-06T19:46:51.286Z,,0,,,NaN,,,,,,false,,,,262058,262058,,262057.00000000003,,262082,8,400,,,
break_continue,html.Screen,4_62_2,2023-09-06T19:46:51.286Z,,0,,,NaN,,,,,,false,,,,262058,262058,,262058,,262082,8,400,,,
sequence,flow.Sequence,4_62,2023-09-06T19:46:51.286Z,,0,,,2892,completion,,,,,false,,,,262058,262058,259149,259136.00000000003,259166,262082,8,400,,,
trial,html.Screen,4_63_0,2023-09-06T19:46:55.023Z,,0,2,,3730,response,ISIC_0033524.JPG,9,ISIC_9028726.JPG,ISIC_0033524.JPG,false,1,keypress(m),500,265795,265795,262065,262058,262082,265831,8,400,14,,ISIC_9028726.JPG
break,html.Screen,4_63_1,2023-09-06T19:46:55.024Z,,0,,,NaN,,,,,,false,,,,265796,265796,,265795,,265831,8,400,,,
break_continue,html.Screen,4_63_2,2023-09-06T19:46:55.024Z,,0,,,NaN,,,,,,false,,,,265796,265796,,265796,,265831,8,400,,,
sequence,flow.Sequence,4_63,2023-09-06T19:46:55.024Z,,0,,,3714,completion,,,,,false,,,,265796,265796,262065,262058,262082,265831,8,400,,,
trial,html.Screen,4_64_0,2023-09-06T19:46:57.956Z,,0,2,,2913,response,ISIC_0054941.JPG,6,ISIC_0000056.JPG,ISIC_0000056.JPG,false,0,keypress(z),500,268728,268728,265815,265796,265831,268764,8,400,15,,ISIC_0054941.JPG
break,html.Screen,4_64_1,2023-09-06T19:46:57.957Z,,0,,,NaN,,,,,,false,,,,268729,268729,,268728,,268764,8,400,,,
break_continue,html.Screen,4_64_2,2023-09-06T19:46:57.957Z,,0,,,NaN,,,,,,false,,,,268729,268729,,268729,,268764,8,400,,,
sequence,flow.Sequence,4_64,2023-09-06T19:46:57.957Z,,0,,,2898,completion,,,,,false,,,,268729,268729,265815,265796,265831,268764,8,400,,,
trial,html.Screen,4_65_0,2023-09-06T19:47:01.768Z,,0,2,,3793,response,ISIC_3761253.JPG,12,ISIC_0024958.JPG,ISIC_3761253.JPG,false,1,keypress(m),500,272540,272540,268747,268729,268764,272564,8,400,16,,ISIC_0024958.JPG
break,html.Screen,4_65_1,2023-09-06T19:47:01.768Z,,0,,,NaN,,,,,,false,,,,272541,272541,,272540,,272564,8,400,,,
break_continue,html.Screen,4_65_2,2023-09-06T19:47:01.768Z,,0,,,NaN,,,,,,false,,,,272541,272541,,272541,,272564,8,400,,,
sequence,flow.Sequence,4_65,2023-09-06T19:47:01.769Z,,0,,,3777,completion,,,,,false,,,,272541,272541,268747,268729,268764,272564,8,400,,,
trial,html.Screen,4_66_0,2023-09-06T19:47:05.039Z,,0,2,,3264,response,ISIC_6707990.JPG,3,ISIC_8820668.JPG,ISIC_8820668.JPG,false,0,keypress(z),500,275811,275811,272547,272541,272564,275831,8,400,17,,ISIC_6707990.JPG
break,html.Screen,4_66_1,2023-09-06T19:47:05.039Z,,0,,,NaN,,,,,,false,,,,275812,275811,,275811,,275831,8,400,,,
break_continue,html.Screen,4_66_2,2023-09-06T19:47:05.039Z,,0,,,NaN,,,,,,false,,,,275812,275812,,275812,,275831,8,400,,,
sequence,flow.Sequence,4_66,2023-09-06T19:47:05.039Z,,0,,,3248,completion,,,,,false,,,,275812,275812,272547,272541,272564,275831,8,400,,,
trial,html.Screen,4_67_0,2023-09-06T19:47:07.725Z,,0,2,,2684,response,ISIC_4266157.JPG,2,ISIC_7798358.JPG,ISIC_7798358.JPG,false,0,keypress(z),500,278498,278497,275813,275812,275831,278531,8,400,18,,ISIC_4266157.JPG
break,html.Screen,4_67_1,2023-09-06T19:47:07.725Z,,0,,,NaN,,,,,,false,,,,278498,278498,,278498,,278531,8,400,,,
break_continue,html.Screen,4_67_2,2023-09-06T19:47:07.726Z,,0,,,NaN,,,,,,false,,,,278498,278498,,278498,,278531,8,400,,,
sequence,flow.Sequence,4_67,2023-09-06T19:47:07.726Z,,0,,,2667,completion,,,,,false,,,,278498,278498,275813,275812,275831,278531,8,400,,,
trial,html.Screen,4_68_0,2023-09-06T19:47:10.955Z,,0,2,,3215,response,ISIC_7534592.JPG,15,ISIC_5536710.JPG,ISIC_7534592.JPG,false,1,keypress(m),500,281728,281728,278513,278498,278531,281763,8,400,19,,ISIC_5536710.JPG
break,html.Screen,4_68_1,2023-09-06T19:47:10.956Z,,0,,,NaN,,,,,,false,,,,281729,281729,,281728,,281763,8,400,,,
break_continue,html.Screen,4_68_2,2023-09-06T19:47:10.956Z,,0,,,NaN,,,,,,false,,,,281729,281729,,281729,,281763,8,400,,,
sequence,flow.Sequence,4_68,2023-09-06T19:47:10.956Z,,0,,,3198,completion,,,,,false,,,,281729,281729,278513,278498,278531,281763,8,400,,,
trial,html.Screen,4_69_0,2023-09-06T19:47:14.144Z,,0,2,,3170.000000000058,response,ISIC_0055136.JPG,4,ISIC_7295035.JPG,ISIC_7295035.JPG,false,0,keypress(z),500,284917.00000000006,284917.00000000006,281747,281729,281763,284947,8,400,20,,ISIC_0055136.JPG
break,html.Screen,4_69_1,2023-09-06T19:47:14.145Z,,0,,,NaN,,,,,,false,,,,284918,284918,,284917.00000000006,,284947,8,400,,,
break_continue,html.Screen,4_69_2,2023-09-06T19:47:14.145Z,,0,,,NaN,,,,,,false,,,,284918,284918,,284918,,284947,8,400,,,
sequence,flow.Sequence,4_69,2023-09-06T19:47:14.145Z,,0,,,3155,completion,,,,,false,,,,284918,284918,281747,281729,281763,284947,8,400,,,
trial,html.Screen,4_70_0,2023-09-06T19:47:16.902Z,,0,2,,2745,response,ISIC_0005028.JPG,7,ISIC_3979826.JPG,ISIC_0005028.JPG,false,1,keypress(m),500,287675,287675,284930,284918,284947,287696,8,400,21,,ISIC_3979826.JPG
break,html.Screen,4_70_1,2023-09-06T19:47:16.902Z,,0,,,NaN,,,,,,false,,,,287676,287675,,287675,,287696,8,400,,,
break_continue,html.Screen,4_70_2,2023-09-06T19:47:16.903Z,,0,,,NaN,,,,,,false,,,,287676,287676,,287676,,287696,8,400,,,
sequence,flow.Sequence,4_70,2023-09-06T19:47:16.903Z,,0,,,2729,completion,,,,,false,,,,287676,287676,284930,284918,284947,287696,8,400,,,
trial,html.Screen,4_71_0,2023-09-06T19:47:19.467Z,,0,2,,2561,response,ISIC_0054364.JPG,2,ISIC_2426937.JPG,ISIC_2426937.JPG,false,0,keypress(z),500,290240,290240,287679,287676,287696,290263,8,400,22,,ISIC_0054364.JPG
break,html.Screen,4_71_1,2023-09-06T19:47:19.467Z,,0,,,NaN,,,,,,false,,,,290241,290241,,290240,,290263,8,400,,,
break_continue,html.Screen,4_71_2,2023-09-06T19:47:19.468Z,,0,,,NaN,,,,,,false,,,,290241,290241,,290241,,290263,8,400,,,
sequence,flow.Sequence,4_71,2023-09-06T19:47:19.468Z,,0,,,2545,completion,,,,,false,,,,290241,290241,287679,287676,287696,290263,8,400,,,
trial,html.Screen,4_72_0,2023-09-06T19:47:22.304Z,,0,2,,2832,response,ISIC_0013244.JPG,8,ISIC_0061583.JPG,ISIC_0013244.JPG,false,1,keypress(m),500,293078.00000000006,293077,290245,290241,290263,293112,8,400,23,,ISIC_0061583.JPG
break,html.Screen,4_72_1,2023-09-06T19:47:22.305Z,,0,,,NaN,,,,,,false,,,,293078.00000000006,293078.00000000006,,293078.00000000006,,293112,8,400,,,
break_continue,html.Screen,4_72_2,2023-09-06T19:47:22.305Z,,0,,,NaN,,,,,,false,,,,293078.00000000006,293078.00000000006,,293078.00000000006,,293112,8,400,,,
sequence,flow.Sequence,4_72,2023-09-06T19:47:22.305Z,,0,,,2815.000000000058,completion,,,,,false,,,,293078.00000000006,293078.00000000006,290245,290241,290263,293112,8,400,,,
trial,html.Screen,4_73_0,2023-09-06T19:47:24.973Z,,0,2,,2650,response,ISIC_0010684.JPG,1,ISIC_3975133.JPG,ISIC_0010684.JPG,false,1,keypress(m),500,295746,295746,293096,293079,293112,295779,8,400,24,,ISIC_3975133.JPG
break,html.Screen,4_73_1,2023-09-06T19:47:24.974Z,,0,,,NaN,,,,,,false,,,,295747,295747,,295747,,295779,8,400,,,
break_continue,html.Screen,4_73_2,2023-09-06T19:47:24.974Z,,0,,,NaN,,,,,,false,,,,295747,295747,,295747,,295779,8,400,,,
sequence,flow.Sequence,4_73,2023-09-06T19:47:24.974Z,,0,,,2635,completion,,,,,false,,,,295747,295747,293096,293078.00000000006,293112,295779,8,400,,,
trial,html.Screen,4_74_0,2023-09-06T19:47:28.086Z,,0,2,,3098,response,ISIC_0064472.JPG,7,ISIC_9402324.JPG,ISIC_0064472.JPG,false,1,keypress(m),500,298859,298859,295761,295747,295779,298894,8,400,25,,ISIC_9402324.JPG
break,html.Screen,4_74_1,2023-09-06T19:47:28.086Z,,0,,,NaN,,,,,,false,,,,298860,298860,,298859,,298894,8,400,,,
break_continue,html.Screen,4_74_2,2023-09-06T19:47:28.086Z,,0,,,NaN,,,,,,false,,,,298860,298860,,298860,,298894,8,400,,,
sequence,flow.Sequence,4_74,2023-09-06T19:47:28.086Z,,0,,,3081,completion,,,,,false,,,,298860,298860,295761,295747,295779,298894,8,400,,,
trial,html.Screen,4_75_0,2023-09-06T19:47:31.002Z,,0,2,,2899,response,ISIC_1924949.JPG,6,ISIC_4653503.JPG,ISIC_4653503.JPG,false,0,keypress(z),500,301776,301776,298877,298860,298894,301812,8,400,26,,ISIC_1924949.JPG
break,html.Screen,4_75_1,2023-09-06T19:47:31.003Z,,0,,,NaN,,,,,,false,,,,301776,301776,,301776,,301812,8,400,,,
break_continue,html.Screen,4_75_2,2023-09-06T19:47:31.003Z,,0,,,NaN,,,,,,false,,,,301777,301777,,301776,,301812,8,400,,,
sequence,flow.Sequence,4_75,2023-09-06T19:47:31.003Z,,0,,,2883,completion,,,,,false,,,,301777,301777,298877,298860,298894,301812,8,400,,,
trial,html.Screen,4_76_0,2023-09-06T19:47:33.650Z,,0,2,,2629,response,ISIC_0060089.JPG,3,ISIC_0060585.JPG,ISIC_0060089.JPG,false,1,keypress(m),500,304423,304423,301794,301777,301812,304460,8,400,27,,ISIC_0060585.JPG
break,html.Screen,4_76_1,2023-09-06T19:47:33.650Z,,0,,,NaN,,,,,,false,,,,304424,304424,,304424,,304460,8,400,,,
break_continue,html.Screen,4_76_2,2023-09-06T19:47:33.650Z,,0,,,NaN,,,,,,false,,,,304424,304424,,304424,,304460,8,400,,,
sequence,flow.Sequence,4_76,2023-09-06T19:47:33.650Z,,0,,,2612,completion,,,,,false,,,,304424,304424,301794,301777,301812,304460,8,400,,,
trial,html.Screen,4_77_0,2023-09-06T19:47:36.320Z,,0,2,,2650,response,ISIC_6220953.JPG,14,ISIC_0060972.JPG,ISIC_6220953.JPG,false,1,keypress(m),500,307094,307094,304444,304424,304460,307127,8,400,28,,ISIC_0060972.JPG
break,html.Screen,4_77_1,2023-09-06T19:47:36.321Z,,0,,,NaN,,,,,,false,,,,307095,307094,,307094,,307127,8,400,,,
break_continue,html.Screen,4_77_2,2023-09-06T19:47:36.321Z,,0,,,NaN,,,,,,false,,,,307095,307095,,307095,,307127,8,400,,,
sequence,flow.Sequence,4_77,2023-09-06T19:47:36.321Z,,0,,,2635,completion,,,,,false,,,,307095,307095,304444,304424,304460,307127,8,400,,,
trial,html.Screen,4_78_0,2023-09-06T19:47:39.298Z,,0,2,,2962,response,ISIC_0026392.JPG,15,ISIC_9286292.JPG,ISIC_0026392.JPG,false,1,keypress(m),500,310072,310072,307110,307095,307127,310093,8,400,29,,ISIC_9286292.JPG
break,html.Screen,4_78_1,2023-09-06T19:47:39.298Z,,0,,,NaN,,,,,,false,,,,310072,310072,,310072,,310093,8,400,,,
break_continue,html.Screen,4_78_2,2023-09-06T19:47:39.298Z,,0,,,NaN,,,,,,false,,,,310072,310072,,310072,,310093,8,400,,,
sequence,flow.Sequence,4_78,2023-09-06T19:47:39.298Z,,0,,,2945,completion,,,,,false,,,,310072,310072,307110,307095,307127,310093,8,400,,,
trial,html.Screen,4_79_0,2023-09-06T19:47:41.996Z,,0,2,,2694,response,ISIC_0025219.JPG,11,ISIC_0010543.JPG,ISIC_0010543.JPG,false,0,keypress(z),500,312770,312770,310076,310072,310093,312793,8,400,30,,ISIC_0025219.JPG
break,html.Screen,4_79_1,2023-09-06T19:47:41.997Z,,0,,,NaN,,,,,,false,,,,312771,312771,,312770,,312793,8,400,,,
break_continue,html.Screen,4_79_2,2023-09-06T19:47:41.997Z,,0,,,NaN,,,,,,false,,,,312771,312771,,312771,,312793,8,400,,,
sequence,flow.Sequence,4_79,2023-09-06T19:47:41.997Z,,0,,,2678,completion,,,,,false,,,,312771,312771,310076,310072,310093,312793,8,400,,,
trial,html.Screen,4_80_0,2023-09-06T19:47:44.786Z,,0,2,,2784,response,ISIC_6019374.JPG,9,ISIC_0056444.JPG,ISIC_6019374.JPG,false,1,keypress(m),500,315560,315560,312776,312771,312793,315593,8,400,31,,ISIC_0056444.JPG
break,html.Screen,4_80_1,2023-09-06T19:47:44.786Z,,0,,,NaN,,,,,,false,,,,315560,315560,,315560,,315593,8,400,,,
break_continue,html.Screen,4_80_2,2023-09-06T19:47:44.786Z,,0,,,NaN,,,,,,false,,,,315561,315561,,315561,,315593,8,400,,,
sequence,flow.Sequence,4_80,2023-09-06T19:47:44.787Z,,0,,,2768,completion,,,,,false,,,,315561,315561,312776,312771,312793,315593,8,400,,,
trial,html.Screen,4_81_0,2023-09-06T19:47:47.676Z,,0,2,,2873,response,ISIC_4523565.JPG,6,ISIC_0015079.JPG,ISIC_0015079.JPG,false,0,keypress(z),500,318450,318450,315577,315561,315593,318476,8,400,32,,ISIC_4523565.JPG
break,html.Screen,4_81_1,2023-09-06T19:47:47.676Z,,0,,,NaN,,,,,,false,,,,318451,318450,,318450,,318476,8,400,,,
break_continue,html.Screen,4_81_2,2023-09-06T19:47:47.676Z,,0,,,NaN,,,,,,false,,,,318451,318451,,318451,,318476,8,400,,,
sequence,flow.Sequence,4_81,2023-09-06T19:47:47.676Z,,0,,,2858,completion,,,,,false,,,,318451,318451,315577,315561,315593,318476,8,400,,,
trial,html.Screen,4_82_0,2023-09-06T19:47:50.349Z,,0,2,,2664,response,ISIC_0025437.JPG,8,ISIC_0032981.JPG,ISIC_0025437.JPG,false,1,keypress(m),500,321123,321123,318459,318451,318476,321159,8,400,33,,ISIC_0032981.JPG
break,html.Screen,4_82_1,2023-09-06T19:47:50.349Z,,0,,,NaN,,,,,,false,,,,321124,321124,,321123,,321159,8,400,,,
break_continue,html.Screen,4_82_2,2023-09-06T19:47:50.349Z,,0,,,NaN,,,,,,false,,,,321124,321124,,321124,,321159,8,400,,,
sequence,flow.Sequence,4_82,2023-09-06T19:47:50.350Z,,0,,,2648,completion,,,,,false,,,,321124,321124,318459,318451,318476,321159,8,400,,,
trial,html.Screen,4_83_0,2023-09-06T19:47:52.953Z,,0,2,,2586,response,ISIC_5065245.JPG,6,ISIC_0024792.JPG,ISIC_5065245.JPG,false,1,keypress(m),500,323728,323728,321142,321124,321159,323758,8,400,34,,ISIC_0024792.JPG
break,html.Screen,4_83_1,2023-09-06T19:47:52.954Z,,0,,,NaN,,,,,,false,,,,323728,323728,,323728,,323758,8,400,,,
break_continue,html.Screen,4_83_2,2023-09-06T19:47:52.954Z,,0,,,NaN,,,,,,false,,,,323728,323728,,323728,,323758,8,400,,,
sequence,flow.Sequence,4_83,2023-09-06T19:47:52.954Z,,0,,,2569,completion,,,,,false,,,,323729,323728,321142,321124,321159,323758,8,400,,,
trial,html.Screen,4_84_0,2023-09-06T19:47:56.487Z,,0,2,,3520,response,ISIC_0030889.JPG,6,ISIC_0011964.JPG,ISIC_0011964.JPG,false,0,keypress(z),500,327262,327262,323742,323729,323758,327291,8,400,35,,ISIC_0030889.JPG
break,html.Screen,4_84_1,2023-09-06T19:47:56.487Z,,0,,,NaN,,,,,,false,,,,327262,327262,,327262,,327291,8,400,,,
break_continue,html.Screen,4_84_2,2023-09-06T19:47:56.488Z,,0,,,NaN,,,,,,false,,,,327262,327262,,327262,,327291,8,400,,,
sequence,flow.Sequence,4_84,2023-09-06T19:47:56.488Z,,0,,,3504,completion,,,,,false,,,,327263.00000000006,327262,323742,323729,323758,327291,8,400,,,
trial,html.Screen,4_85_0,2023-09-06T19:47:59.733Z,,0,2,,3232,response,ISIC_3448546.JPG,9,ISIC_0029729.JPG,ISIC_3448546.JPG,false,1,keypress(m),500,330508,330507,327275,327263.00000000006,327291,330542,8,400,36,,ISIC_0029729.JPG
break,html.Screen,4_85_1,2023-09-06T19:47:59.736Z,,0,,,NaN,,,,,,false,,,,330511,330510,,330510,,330542,8,400,,,
break_continue,html.Screen,4_85_2,2023-09-06T19:47:59.736Z,,0,,,NaN,,,,,,false,,,,330511,330511,,330511,,330542,8,400,,,
sequence,flow.Sequence,4_85,2023-09-06T19:47:59.736Z,,0,,,3220,completion,,,,,false,,,,330511,330511,327275,327263.00000000006,327291,330542,8,400,,,
trial,html.Screen,4_86_0,2023-09-06T19:48:02.668Z,,0,2,,2918,response,ISIC_5239856.JPG,16,ISIC_0063295.JPG,ISIC_0063295.JPG,false,0,keypress(z),500,333443,333443,330525,330511,330542,333474,8,400,37,,ISIC_5239856.JPG
break,html.Screen,4_86_1,2023-09-06T19:48:02.669Z,,0,,,NaN,,,,,,false,,,,333444,333443,,333443,,333474,8,400,,,
break_continue,html.Screen,4_86_2,2023-09-06T19:48:02.669Z,,0,,,NaN,,,,,,false,,,,333444,333444,,333444,,333474,8,400,,,
sequence,flow.Sequence,4_86,2023-09-06T19:48:02.669Z,,0,,,2902,completion,,,,,false,,,,333444,333444,330525,330511,330542,333474,8,400,,,
trial,html.Screen,4_87_0,2023-09-06T19:48:05.137Z,,0,2,,2454.000000000058,response,ISIC_4894929.JPG,11,ISIC_2740756.JPG,ISIC_4894929.JPG,false,1,keypress(m),500,335912.00000000006,335912.00000000006,333458,333444,333474,335941,8,400,38,,ISIC_2740756.JPG
break,html.Screen,4_87_1,2023-09-06T19:48:05.137Z,,0,,,NaN,,,,,,false,,,,335912.00000000006,335912.00000000006,,335912.00000000006,,335941,8,400,,,
break_continue,html.Screen,4_87_2,2023-09-06T19:48:05.137Z,,0,,,NaN,,,,,,false,,,,335913,335912.00000000006,,335912.00000000006,,335941,8,400,,,
sequence,flow.Sequence,4_87,2023-09-06T19:48:05.137Z,,0,,,2438.000000000058,completion,,,,,false,,,,335913,335912.00000000006,333458,333444,333474,335941,8,400,,,
trial,html.Screen,4_88_0,2023-09-06T19:48:08.216Z,,0,2,,3067,response,ISIC_0013096.JPG,6,ISIC_8393181.JPG,ISIC_8393181.JPG,false,0,keypress(z),500,338991,338991,335924,335913,335941,339024,8,400,39,,ISIC_0013096.JPG
break,html.Screen,4_88_1,2023-09-06T19:48:08.216Z,,0,,,NaN,,,,,,false,,,,338992,338992,,338991,,339024,8,400,,,
break_continue,html.Screen,4_88_2,2023-09-06T19:48:08.217Z,,0,,,NaN,,,,,,false,,,,338992,338992,,338992,,339024,8,400,,,
sequence,flow.Sequence,4_88,2023-09-06T19:48:08.217Z,,0,,,3051,completion,,,,,false,,,,338992,338992,335924,335913,335941,339024,8,400,,,
trial,html.Screen,4_89_0,2023-09-06T19:48:11.398Z,,0,2,,3166,response,ISIC_9978498.JPG,12,ISIC_0029163.JPG,ISIC_0029163.JPG,false,0,keypress(z),500,342173,342173,339007,338992,339024,342206,8,400,40,,ISIC_9978498.JPG
break,html.Screen,4_89_1,2023-09-06T19:48:11.398Z,,0,,,NaN,,,,,,false,,,,342174.00000000006,342174.00000000006,,342173,,342206,8,400,,,
break_continue,html.Screen,4_89_2,2023-09-06T19:48:11.399Z,,0,,,NaN,,,,,,false,,,,342174.00000000006,342174.00000000006,,342174.00000000006,,342206,8,400,,,
sequence,flow.Sequence,4_89,2023-09-06T19:48:11.399Z,,0,,,3150.000000000058,completion,,,,,false,,,,342174.00000000006,342174.00000000006,339007,338992,339024,342206,8,400,,,
trial,html.Screen,4_90_0,2023-09-06T19:48:15.003Z,,0,2,,3590,response,ISIC_8956001.JPG,14,ISIC_2948896.JPG,ISIC_8956001.JPG,false,1,keypress(m),500,345779,345779,342189,342174.00000000006,342206,345806,8,400,41,,ISIC_2948896.JPG
break,html.Screen,4_90_1,2023-09-06T19:48:15.003Z,,0,,,NaN,,,,,,false,,,,345779,345779,,345779,,345806,8,400,,,
break_continue,html.Screen,4_90_2,2023-09-06T19:48:15.004Z,,0,,,NaN,,,,,,false,,,,345779,345779,,345779,,345806,8,400,,,
sequence,flow.Sequence,4_90,2023-09-06T19:48:15.004Z,,0,,,3573,completion,,,,,false,,,,345779,345779,342189,342174.00000000006,342206,345806,8,400,,,
trial,html.Screen,4_91_0,2023-09-06T19:48:18.131Z,,0,2,,3117,response,ISIC_7071944.JPG,0,ISIC_0026659.JPG,ISIC_7071944.JPG,false,1,keypress(m),500,348906,348906,345789,345779,345806,348939,8,400,42,,ISIC_0026659.JPG
break,html.Screen,4_91_1,2023-09-06T19:48:18.131Z,,0,,,NaN,,,,,,false,,,,348907,348907,,348906,,348939,8,400,,,
break_continue,html.Screen,4_91_2,2023-09-06T19:48:18.131Z,,0,,,NaN,,,,,,false,,,,348907,348907,,348907,,348939,8,400,,,
sequence,flow.Sequence,4_91,2023-09-06T19:48:18.131Z,,0,,,3101,completion,,,,,false,,,,348907,348907,345789,345779,345806,348939,8,400,,,
trial,html.Screen,4_92_0,2023-09-06T19:48:21.327Z,,0,2,,3180,response,ISIC_3679789.JPG,0,ISIC_0010319.JPG,ISIC_3679789.JPG,false,1,keypress(m),500,352103,352103,348923,348907,348939,352122,8,400,43,,ISIC_0010319.JPG
break,html.Screen,4_92_1,2023-09-06T19:48:21.328Z,,0,,,NaN,,,,,,false,,,,352103,352103,,352103,,352122,8,400,,,
break_continue,html.Screen,4_92_2,2023-09-06T19:48:21.328Z,,0,,,NaN,,,,,,false,,,,352104,352104,,352104,,352122,8,400,,,
sequence,flow.Sequence,4_92,2023-09-06T19:48:21.328Z,,0,,,3165,completion,,,,,false,,,,352104,352104,348923,348907,348939,352122,8,400,,,
trial,html.Screen,4_93_0,2023-09-06T19:48:24.147Z,,0,2,,2818,response,ISIC_0011697.JPG,10,ISIC_6581765.JPG,ISIC_6581765.JPG,false,0,keypress(z),500,354923,354923,352105,352104,352122,354955,8,400,44,,ISIC_0011697.JPG
break,html.Screen,4_93_1,2023-09-06T19:48:24.148Z,,0,,,NaN,,,,,,false,,,,354924.00000000006,354923,,354923,,354955,8,400,,,
break_continue,html.Screen,4_93_2,2023-09-06T19:48:24.148Z,,0,,,NaN,,,,,,false,,,,354924.00000000006,354924.00000000006,,354924.00000000006,,354955,8,400,,,
sequence,flow.Sequence,4_93,2023-09-06T19:48:24.148Z,,0,,,2802.000000000058,completion,,,,,false,,,,354924.00000000006,354924.00000000006,352105,352104,352122,354955,8,400,,,
trial,html.Screen,4_94_0,2023-09-06T19:48:27.793Z,,0,2,,3630,response,ISIC_6404049.JPG,1,ISIC_0033957.JPG,ISIC_6404049.JPG,false,1,keypress(m),500,358569,358569,354939,354924.00000000006,354955,358605,8,400,45,,ISIC_0033957.JPG
break,html.Screen,4_94_1,2023-09-06T19:48:27.794Z,,0,,,NaN,,,,,,false,,,,358570,358570,,358569,,358605,8,400,,,
break_continue,html.Screen,4_94_2,2023-09-06T19:48:27.794Z,,0,,,NaN,,,,,,false,,,,358570,358570,,358570,,358605,8,400,,,
sequence,flow.Sequence,4_94,2023-09-06T19:48:27.794Z,,0,,,3615,completion,,,,,false,,,,358570,358570,354939,354924.00000000006,354955,358605,8,400,,,
trial,html.Screen,4_95_0,2023-09-06T19:48:30.543Z,,0,2,,2731,response,ISIC_6692344.JPG,0,ISIC_0000371.JPG,ISIC_6692344.JPG,false,1,keypress(m),500,361319,361319,358588,358570,358605,361355,8,400,46,,ISIC_0000371.JPG
break,html.Screen,4_95_1,2023-09-06T19:48:30.543Z,,0,,,NaN,,,,,,false,,,,361319,361319,,361319,,361355,8,400,,,
break_continue,html.Screen,4_95_2,2023-09-06T19:48:30.543Z,,0,,,NaN,,,,,,false,,,,361319,361319,,361319,,361355,8,400,,,
sequence,flow.Sequence,4_95,2023-09-06T19:48:30.543Z,,0,,,2714,completion,,,,,false,,,,361320,361319,358588,358570,358605,361355,8,400,,,
trial,html.Screen,4_96_0,2023-09-06T19:48:33.599Z,,0,2,,3038,response,ISIC_0011295.JPG,3,ISIC_5787312.JPG,ISIC_5787312.JPG,false,0,keypress(z),500,364375,364375,361337,361320,361355,364403,8,400,47,,ISIC_0011295.JPG
break,html.Screen,4_96_1,2023-09-06T19:48:33.599Z,,0,,,NaN,,,,,,false,,,,364376.00000000006,364375,,364375,,364403,8,400,,,
break_continue,html.Screen,4_96_2,2023-09-06T19:48:33.599Z,,0,,,NaN,,,,,,false,,,,364376.00000000006,364376.00000000006,,364376.00000000006,,364403,8,400,,,
sequence,flow.Sequence,4_96,2023-09-06T19:48:33.600Z,,0,,,3021.000000000058,completion,,,,,false,,,,364376.00000000006,364376.00000000006,361337,361320,361355,364403,8,400,,,
trial,html.Screen,4_97_0,2023-09-06T19:48:36.748Z,,0,2,,3139.000000000058,response,ISIC_8013225.JPG,3,ISIC_5247508.JPG,ISIC_8013225.JPG,false,1,keypress(m),500,367525.00000000006,367525.00000000006,364386,364376.00000000006,364403,367554,8,400,48,,ISIC_5247508.JPG
break,html.Screen,4_97_1,2023-09-06T19:48:36.749Z,,0,,,NaN,,,,,,false,,,,367525.00000000006,367525.00000000006,,367525.00000000006,,367554,8,400,,,
break_continue,html.Screen,4_97_2,2023-09-06T19:48:36.749Z,,0,,,NaN,,,,,,false,,,,367526,367526,,367525.00000000006,,367554,8,400,,,
sequence,flow.Sequence,4_97,2023-09-06T19:48:36.749Z,,0,,,3123,completion,,,,,false,,,,367526,367526,364386,364376.00000000006,364403,367554,8,400,,,
trial,html.Screen,4_98_0,2023-09-06T19:48:40.216Z,,0,2,,3453,response,ISIC_0028018.JPG,5,ISIC_2085855.JPG,ISIC_2085855.JPG,false,0,keypress(z),500,370993,370990,367537,367526,367554,371020,8,400,49,,ISIC_0028018.JPG
break,html.Screen,4_98_1,2023-09-06T19:48:40.217Z,,0,,,NaN,,,,,,false,,,,370993,370993,,370993,,371020,8,400,,,
break_continue,html.Screen,4_98_2,2023-09-06T19:48:40.217Z,,0,,,NaN,,,,,,false,,,,370993,370993,,370993,,371020,8,400,,,
sequence,flow.Sequence,4_98,2023-09-06T19:48:40.217Z,,0,,,3439,completion,,,,,false,,,,370994,370993,367537,367526,367554,371020,8,400,,,
trial,html.Screen,4_99_0,2023-09-06T19:48:43.307Z,,0,2,,3080,response,ISIC_5336548.JPG,8,ISIC_0025081.JPG,ISIC_5336548.JPG,false,1,keypress(m),500,374084,374084,371004,370994,371020,374119,8,400,50,,ISIC_0025081.JPG
break,html.Screen,4_99_1,2023-09-06T19:48:53.324Z,,0,,,10000,timeout,,,,,false,,,,384101,384101,374103,374084,374119,384119,8,400,,,
break_continue,html.Screen,4_99_2,2023-09-06T19:48:54.396Z,,0,,,1088,response,,,,,false,continue,keypress(Space),,385173,385189,384101,384101,384119,385201,8,400,,,
sequence,flow.Sequence,4_99,2023-09-06T19:48:54.396Z,,0,,,14169,completion,,,,,false,,,,385173,385189,371004,370994,371020,385201,8,400,,,
trial,html.Screen,4_100_0,2023-09-06T19:48:57.646Z,,0,3,,3238,response,ISIC_8779142.JPG,5,ISIC_0046222.JPG,ISIC_8779142.JPG,false,1,keypress(m),500,388423,388423,385185,385173,385201,388450,8,400,1,,ISIC_0046222.JPG
break,html.Screen,4_100_1,2023-09-06T19:48:57.646Z,,0,,,NaN,,,,,,false,,,,388424.00000000006,388424.00000000006,,388423,,388450,8,400,,,
break_continue,html.Screen,4_100_2,2023-09-06T19:48:57.647Z,,0,,,NaN,,,,,,false,,,,388424.00000000006,388424.00000000006,,388424.00000000006,,388450,8,400,,,
sequence,flow.Sequence,4_100,2023-09-06T19:48:57.647Z,,0,,,3223.000000000058,completion,,,,,false,,,,388424.00000000006,388424.00000000006,385185,385173,385201,388450,8,400,,,
trial,html.Screen,4_101_0,2023-09-06T19:49:00.435Z,,0,3,,2778,response,ISIC_0055297.JPG,3,ISIC_0010655.JPG,ISIC_0010655.JPG,false,0,keypress(z),500,391212,391212,388434,388424.00000000006,388450,391234,8,400,2,,ISIC_0055297.JPG
break,html.Screen,4_101_1,2023-09-06T19:49:00.435Z,,0,,,NaN,,,,,,false,,,,391213,391213,,391212,,391234,8,400,,,
break_continue,html.Screen,4_101_2,2023-09-06T19:49:00.436Z,,0,,,NaN,,,,,,false,,,,391213,391213,,391213,,391234,8,400,,,
sequence,flow.Sequence,4_101,2023-09-06T19:49:00.436Z,,0,,,2763,completion,,,,,false,,,,391213,391213,388434,388424.00000000006,388450,391234,8,400,,,
trial,html.Screen,4_102_0,2023-09-06T19:49:03.287Z,,0,3,,2848,response,ISIC_0057032.JPG,5,ISIC_0011508.JPG,ISIC_0057032.JPG,false,1,keypress(m),500,394065,394065,391217,391213,391234,394101,8,400,3,,ISIC_0011508.JPG
break,html.Screen,4_102_1,2023-09-06T19:49:03.288Z,,0,,,NaN,,,,,,false,,,,394065,394065,,394065,,394101,8,400,,,
break_continue,html.Screen,4_102_2,2023-09-06T19:49:03.288Z,,0,,,NaN,,,,,,false,,,,394066.00000000006,394066.00000000006,,394065,,394101,8,400,,,
sequence,flow.Sequence,4_102,2023-09-06T19:49:03.288Z,,0,,,2832.000000000058,completion,,,,,false,,,,394066.00000000006,394066.00000000006,391217,391213,391234,394101,8,400,,,
trial,html.Screen,4_103_0,2023-09-06T19:49:05.821Z,,0,3,,2515,response,ISIC_0024898.JPG,14,ISIC_9574101.JPG,ISIC_9574101.JPG,false,0,keypress(z),500,396599,396599,394084,394066.00000000006,394101,396634,8,400,4,,ISIC_0024898.JPG
break,html.Screen,4_103_1,2023-09-06T19:49:05.822Z,,0,,,NaN,,,,,,false,,,,396600,396599,,396599,,396634,8,400,,,
break_continue,html.Screen,4_103_2,2023-09-06T19:49:05.822Z,,0,,,NaN,,,,,,false,,,,396600,396600,,396600,,396634,8,400,,,
sequence,flow.Sequence,4_103,2023-09-06T19:49:05.822Z,,0,,,2499,completion,,,,,false,,,,396600,396600,394084,394066.00000000006,394101,396634,8,400,,,
trial,html.Screen,4_104_0,2023-09-06T19:49:08.653Z,,0,3,,2813,response,ISIC_0053916.JPG,0,ISIC_0011388.JPG,ISIC_0011388.JPG,false,0,keypress(z),500,399431,399431,396618,396600,396634,399466,8,400,5,,ISIC_0053916.JPG
break,html.Screen,4_104_1,2023-09-06T19:49:08.654Z,,0,,,NaN,,,,,,false,,,,399431,399431,,399431,,399466,8,400,,,
break_continue,html.Screen,4_104_2,2023-09-06T19:49:08.654Z,,0,,,NaN,,,,,,false,,,,399432,399432,,399432,,399466,8,400,,,
sequence,flow.Sequence,4_104,2023-09-06T19:49:08.654Z,,0,,,2798,completion,,,,,false,,,,399432,399432,396618,396600,396634,399466,8,400,,,
trial,html.Screen,4_105_0,2023-09-06T19:49:11.563Z,,0,3,,2891,response,ISIC_0013530.JPG,11,ISIC_0063950.JPG,ISIC_0013530.JPG,false,1,keypress(m),500,402341,402341,399450,399432,399466,402366,8,400,6,,ISIC_0063950.JPG
break,html.Screen,4_105_1,2023-09-06T19:49:11.564Z,,0,,,NaN,,,,,,false,,,,402342,402342,,402341,,402366,8,400,,,
break_continue,html.Screen,4_105_2,2023-09-06T19:49:11.564Z,,0,,,NaN,,,,,,false,,,,402342,402342,,402342,,402366,8,400,,,
sequence,flow.Sequence,4_105,2023-09-06T19:49:11.564Z,,0,,,2876,completion,,,,,false,,,,402342,402342,399450,399432,399466,402366,8,400,,,
trial,html.Screen,4_106_0,2023-09-06T19:49:14.577Z,,0,3,,3005,response,ISIC_0765584.JPG,6,ISIC_0047004.JPG,ISIC_0765584.JPG,false,1,keypress(m),500,405355,405355,402350,402342,402366,405383,8,400,7,,ISIC_0047004.JPG
break,html.Screen,4_106_1,2023-09-06T19:49:14.578Z,,0,,,NaN,,,,,,false,,,,405356,405356,,405355,,405383,8,400,,,
break_continue,html.Screen,4_106_2,2023-09-06T19:49:14.578Z,,0,,,NaN,,,,,,false,,,,405356,405356,,405356,,405383,8,400,,,
sequence,flow.Sequence,4_106,2023-09-06T19:49:14.578Z,,0,,,2990,completion,,,,,false,,,,405356,405356,402350,402342,402366,405383,8,400,,,
trial,html.Screen,4_107_0,2023-09-06T19:49:17.194Z,,0,3,,2606.000000000058,response,ISIC_0527350.JPG,8,ISIC_5651106.JPG,ISIC_5651106.JPG,false,0,keypress(z),500,407972.00000000006,407972.00000000006,405366,405356,405383,407999,8,400,8,,ISIC_0527350.JPG
break,html.Screen,4_107_1,2023-09-06T19:49:17.194Z,,0,,,NaN,,,,,,false,,,,407973,407973,,407972.00000000006,,407999,8,400,,,
break_continue,html.Screen,4_107_2,2023-09-06T19:49:17.195Z,,0,,,NaN,,,,,,false,,,,407973,407973,,407973,,407999,8,400,,,
sequence,flow.Sequence,4_107,2023-09-06T19:49:17.195Z,,0,,,2590,completion,,,,,false,,,,407973,407973,405366,405356,405383,407999,8,400,,,
trial,html.Screen,4_108_0,2023-09-06T19:49:19.973Z,,0,3,,2769.000000000058,response,ISIC_0062325.JPG,8,ISIC_0033224.JPG,ISIC_0033224.JPG,false,0,keypress(z),500,410751.00000000006,410751.00000000006,407982,407973,407999,410782,8,400,9,,ISIC_0062325.JPG
break,html.Screen,4_108_1,2023-09-06T19:49:19.973Z,,0,,,NaN,,,,,,false,,,,410751.00000000006,410751.00000000006,,410751.00000000006,,410782,8,400,,,
break_continue,html.Screen,4_108_2,2023-09-06T19:49:19.973Z,,0,,,NaN,,,,,,false,,,,410751.00000000006,410751.00000000006,,410751.00000000006,,410782,8,400,,,
sequence,flow.Sequence,4_108,2023-09-06T19:49:19.973Z,,0,,,2752.000000000058,completion,,,,,false,,,,410752,410751.00000000006,407982,407973,407999,410782,8,400,,,
trial,html.Screen,4_109_0,2023-09-06T19:49:22.626Z,,0,3,,2638,response,ISIC_3352962.JPG,7,ISIC_0024661.JPG,ISIC_0024661.JPG,false,0,keypress(z),500,413404,413404,410766,410752,410782,413431,8,400,10,,ISIC_3352962.JPG
break,html.Screen,4_109_1,2023-09-06T19:49:22.626Z,,0,,,NaN,,,,,,false,,,,413405.00000000006,413404,,413404,,413431,8,400,,,
break_continue,html.Screen,4_109_2,2023-09-06T19:49:22.626Z,,0,,,NaN,,,,,,false,,,,413405.00000000006,413405.00000000006,,413405.00000000006,,413431,8,400,,,
sequence,flow.Sequence,4_109,2023-09-06T19:49:22.626Z,,0,,,2623.000000000058,completion,,,,,false,,,,413405.00000000006,413405.00000000006,410766,410752,410782,413431,8,400,,,
trial,html.Screen,4_110_0,2023-09-06T19:49:25.380Z,,0,3,,2744,response,ISIC_0011343.JPG,2,ISIC_8033373.JPG,ISIC_8033373.JPG,false,0,keypress(z),500,416159,416159,413415,413405.00000000006,413431,416181,8,400,11,,ISIC_0011343.JPG
break,html.Screen,4_110_1,2023-09-06T19:49:25.381Z,,0,,,NaN,,,,,,false,,,,416159,416159,,416159,,416181,8,400,,,
break_continue,html.Screen,4_110_2,2023-09-06T19:49:25.381Z,,0,,,NaN,,,,,,false,,,,416159,416159,,416159,,416181,8,400,,,
sequence,flow.Sequence,4_110,2023-09-06T19:49:25.381Z,,0,,,2728,completion,,,,,false,,,,416159,416159,413415,413405.00000000006,413431,416181,8,400,,,
trial,html.Screen,4_111_0,2023-09-06T19:49:28.255Z,,0,3,,2869,response,ISIC_0032856.JPG,8,ISIC_0011099.JPG,ISIC_0032856.JPG,false,1,keypress(m),500,419033,419033,416164,416160,416181,419065,8,400,12,,ISIC_0011099.JPG
break,html.Screen,4_111_1,2023-09-06T19:49:28.255Z,,0,,,NaN,,,,,,false,,,,419034,419034,,419033,,419065,8,400,,,
break_continue,html.Screen,4_111_2,2023-09-06T19:49:28.255Z,,0,,,NaN,,,,,,false,,,,419034,419034,,419034,,419065,8,400,,,
sequence,flow.Sequence,4_111,2023-09-06T19:49:28.255Z,,0,,,2853,completion,,,,,false,,,,419034,419034,416164,416160,416181,419065,8,400,,,
trial,html.Screen,4_112_0,2023-09-06T19:49:31.364Z,,0,3,,3096,response,ISIC_0000459.JPG,5,ISIC_3238687.JPG,ISIC_3238687.JPG,false,0,keypress(z),500,422143,422143,419047,419034,419065,422164,8,400,13,,ISIC_0000459.JPG
break,html.Screen,4_112_1,2023-09-06T19:49:31.364Z,,0,,,NaN,,,,,,false,,,,422143,422143,,422143,,422164,8,400,,,
break_continue,html.Screen,4_112_2,2023-09-06T19:49:31.365Z,,0,,,NaN,,,,,,false,,,,422144,422143,,422143,,422164,8,400,,,
sequence,flow.Sequence,4_112,2023-09-06T19:49:31.365Z,,0,,,3078,completion,,,,,false,,,,422144,422143,419047,419034,419065,422164,8,400,,,
trial,html.Screen,4_113_0,2023-09-06T19:49:34.134Z,,0,3,,2766,response,ISIC_9969907.JPG,6,ISIC_1398618.JPG,ISIC_9969907.JPG,false,1,keypress(m),500,424913,424913,422147,422144,422164,424947,8,400,14,,ISIC_1398618.JPG
break,html.Screen,4_113_1,2023-09-06T19:49:34.135Z,,0,,,NaN,,,,,,false,,,,424914,424914,,424913,,424947,8,400,,,
break_continue,html.Screen,4_113_2,2023-09-06T19:49:34.135Z,,0,,,NaN,,,,,,false,,,,424914,424914,,424914,,424947,8,400,,,
sequence,flow.Sequence,4_113,2023-09-06T19:49:34.135Z,,0,,,2750,completion,,,,,false,,,,424914,424914,422147,422144,422164,424947,8,400,,,
trial,html.Screen,4_114_0,2023-09-06T19:49:36.825Z,,0,3,,2673,response,ISIC_9260499.JPG,6,ISIC_0032685.JPG,ISIC_9260499.JPG,false,1,keypress(m),500,427604,427604,424931,424914,424947,427630,8,400,15,,ISIC_0032685.JPG
break,html.Screen,4_114_1,2023-09-06T19:49:36.825Z,,0,,,NaN,,,,,,false,,,,427604,427604,,427604,,427630,8,400,,,
break_continue,html.Screen,4_114_2,2023-09-06T19:49:36.826Z,,0,,,NaN,,,,,,false,,,,427605,427605,,427605,,427630,8,400,,,
sequence,flow.Sequence,4_114,2023-09-06T19:49:36.826Z,,0,,,2658,completion,,,,,false,,,,427605,427605,424931,424914,424947,427630,8,400,,,
trial,html.Screen,4_115_0,2023-09-06T19:49:39.885Z,,0,3,,3050,response,ISIC_0001140.JPG,8,ISIC_0011380.JPG,ISIC_0011380.JPG,false,0,keypress(z),500,430664,430664,427614,427605,427630,430696,8,400,16,,ISIC_0001140.JPG
break,html.Screen,4_115_1,2023-09-06T19:49:39.885Z,,0,,,NaN,,,,,,false,,,,430664,430664,,430664,,430696,8,400,,,
break_continue,html.Screen,4_115_2,2023-09-06T19:49:39.885Z,,0,,,NaN,,,,,,false,,,,430665,430664,,430664,,430696,8,400,,,
sequence,flow.Sequence,4_115,2023-09-06T19:49:39.885Z,,0,,,3034,completion,,,,,false,,,,430665,430664,427614,427605,427630,430696,8,400,,,
trial,html.Screen,4_116_0,2023-09-06T19:49:42.992Z,,0,3,,3092,response,ISIC_3760796.JPG,1,ISIC_8733745.JPG,ISIC_8733745.JPG,false,0,keypress(z),500,433772,433772,430680,430665,430696,433796,8,400,17,,ISIC_3760796.JPG
break,html.Screen,4_116_1,2023-09-06T19:49:42.993Z,,0,,,NaN,,,,,,false,,,,433772,433772,,433772,,433796,8,400,,,
break_continue,html.Screen,4_116_2,2023-09-06T19:49:42.993Z,,0,,,NaN,,,,,,false,,,,433772,433772,,433772,,433796,8,400,,,
sequence,flow.Sequence,4_116,2023-09-06T19:49:42.993Z,,0,,,3076,completion,,,,,false,,,,433772,433772,430680,430665,430696,433796,8,400,,,
trial,html.Screen,4_117_0,2023-09-06T19:49:45.669Z,,0,3,,2669.000000000058,response,ISIC_5247383.JPG,5,ISIC_0025093.JPG,ISIC_5247383.JPG,false,1,keypress(m),500,436448.00000000006,436448.00000000006,433779,433773,433796,436479,8,400,18,,ISIC_0025093.JPG
break,html.Screen,4_117_1,2023-09-06T19:49:45.669Z,,0,,,NaN,,,,,,false,,,,436449,436449,,436448.00000000006,,436479,8,400,,,
break_continue,html.Screen,4_117_2,2023-09-06T19:49:45.669Z,,0,,,NaN,,,,,,false,,,,436449,436449,,436449,,436479,8,400,,,
sequence,flow.Sequence,4_117,2023-09-06T19:49:45.670Z,,0,,,2653,completion,,,,,false,,,,436449,436449,433779,433773,433796,436479,8,400,,,
trial,html.Screen,4_118_0,2023-09-06T19:49:48.383Z,,0,3,,2700.000000000058,response,ISIC_0013702.JPG,6,ISIC_0011702.JPG,ISIC_0013702.JPG,false,1,keypress(m),500,439163,439162.00000000006,436462,436449,436479,439196,8,400,19,,ISIC_0011702.JPG
break,html.Screen,4_118_1,2023-09-06T19:49:48.384Z,,0,,,NaN,,,,,,false,,,,439163,439163,,439163,,439196,8,400,,,
break_continue,html.Screen,4_118_2,2023-09-06T19:49:48.384Z,,0,,,NaN,,,,,,false,,,,439163,439163,,439163,,439196,8,400,,,
sequence,flow.Sequence,4_118,2023-09-06T19:49:48.384Z,,0,,,2684,completion,,,,,false,,,,439163,439163,436462,436449,436479,439196,8,400,,,
trial,html.Screen,4_119_0,2023-09-06T19:49:50.936Z,,0,3,,2536.000000000058,response,ISIC_1251811.JPG,6,ISIC_0030193.JPG,ISIC_0030193.JPG,false,0,keypress(z),500,441716,441715.00000000006,439179,439163,439196,441746,8,400,20,,ISIC_1251811.JPG
break,html.Screen,4_119_1,2023-09-06T19:49:50.936Z,,0,,,NaN,,,,,,false,,,,441716,441716,,441716,,441746,8,400,,,
break_continue,html.Screen,4_119_2,2023-09-06T19:49:50.936Z,,0,,,NaN,,,,,,false,,,,441716,441716,,441716,,441746,8,400,,,
sequence,flow.Sequence,4_119,2023-09-06T19:49:50.937Z,,0,,,2520,completion,,,,,false,,,,441716,441716,439179,439163,439196,441746,8,400,,,
trial,html.Screen,4_120_0,2023-09-06T19:49:53.784Z,,0,3,,2834,response,ISIC_0010649.JPG,12,ISIC_5768602.JPG,ISIC_0010649.JPG,false,1,keypress(m),500,444563,444563,441729,441716,441746,444595,8,400,21,,ISIC_5768602.JPG
break,html.Screen,4_120_1,2023-09-06T19:49:53.784Z,,0,,,NaN,,,,,,false,,,,444564,444564,,444563,,444595,8,400,,,
break_continue,html.Screen,4_120_2,2023-09-06T19:49:53.784Z,,0,,,NaN,,,,,,false,,,,444564,444564,,444564,,444595,8,400,,,
sequence,flow.Sequence,4_120,2023-09-06T19:49:53.784Z,,0,,,2818,completion,,,,,false,,,,444564,444564,441729,441716,441746,444595,8,400,,,
trial,html.Screen,4_121_0,2023-09-06T19:49:56.474Z,,0,3,,2676,response,ISIC_4328662.JPG,5,ISIC_9041897.JPG,ISIC_4328662.JPG,false,1,keypress(m),500,447254,447254,444578,444564,444595,447278,8,400,22,,ISIC_9041897.JPG
break,html.Screen,4_121_1,2023-09-06T19:49:56.475Z,,0,,,NaN,,,,,,false,,,,447255,447255,,447254,,447278,8,400,,,
break_continue,html.Screen,4_121_2,2023-09-06T19:49:56.475Z,,0,,,NaN,,,,,,false,,,,447255,447255,,447255,,447278,8,400,,,
sequence,flow.Sequence,4_121,2023-09-06T19:49:56.475Z,,0,,,2660,completion,,,,,false,,,,447255,447255,444578,444564,444595,447278,8,400,,,
trial,html.Screen,4_122_0,2023-09-06T19:49:59.941Z,,0,3,,3460,response,ISIC_0066740.JPG,3,ISIC_6284312.JPG,ISIC_6284312.JPG,false,0,keypress(z),500,450721,450721,447261,447255,447278,450744,8,400,23,,ISIC_0066740.JPG
break,html.Screen,4_122_1,2023-09-06T19:49:59.941Z,,0,,,NaN,,,,,,false,,,,450721,450721,,450721,,450744,8,400,,,
break_continue,html.Screen,4_122_2,2023-09-06T19:49:59.941Z,,0,,,NaN,,,,,,false,,,,450721,450721,,450721,,450744,8,400,,,
sequence,flow.Sequence,4_122,2023-09-06T19:49:59.941Z,,0,,,3443,completion,,,,,false,,,,450721,450721,447261,447255,447278,450744,8,400,,,
trial,html.Screen,4_123_0,2023-09-06T19:50:02.856Z,,0,3,,2909,response,ISIC_2161819.JPG,5,ISIC_0056089.JPG,ISIC_2161819.JPG,false,1,keypress(m),500,453636,453636,450727,450722.00000000006,450744,453660,8,400,24,,ISIC_0056089.JPG
break,html.Screen,4_123_1,2023-09-06T19:50:02.856Z,,0,,,NaN,,,,,,false,,,,453636,453636,,453636,,453660,8,400,,,
break_continue,html.Screen,4_123_2,2023-09-06T19:50:02.856Z,,0,,,NaN,,,,,,false,,,,453636,453636,,453636,,453660,8,400,,,
sequence,flow.Sequence,4_123,2023-09-06T19:50:02.856Z,,0,,,2892,completion,,,,,false,,,,453636,453636,450727,450722.00000000006,450744,453660,8,400,,,
trial,html.Screen,4_124_0,2023-09-06T19:50:05.953Z,,0,3,,3090,response,ISIC_0059722.JPG,6,ISIC_0005655.JPG,ISIC_0005655.JPG,false,0,keypress(z),500,456733,456733,453643,453637,453660,456761,8,400,25,,ISIC_0059722.JPG
break,html.Screen,4_124_1,2023-09-06T19:50:05.954Z,,0,,,NaN,,,,,,false,,,,456734.00000000006,456734.00000000006,,456733,,456761,8,400,,,
break_continue,html.Screen,4_124_2,2023-09-06T19:50:05.954Z,,0,,,NaN,,,,,,false,,,,456734.00000000006,456734.00000000006,,456734.00000000006,,456761,8,400,,,
sequence,flow.Sequence,4_124,2023-09-06T19:50:05.954Z,,0,,,3074.000000000058,completion,,,,,false,,,,456734.00000000006,456734.00000000006,453643,453637,453660,456761,8,400,,,
trial,html.Screen,4_125_0,2023-09-06T19:50:08.745Z,,0,3,,2782,response,ISIC_0065882.JPG,10,ISIC_6384927.JPG,ISIC_6384927.JPG,false,0,keypress(z),500,459526,459526,456744,456734.00000000006,456761,459560,8,400,26,,ISIC_0065882.JPG
break,html.Screen,4_125_1,2023-09-06T19:50:08.746Z,,0,,,NaN,,,,,,false,,,,459526,459526,,459526,,459560,8,400,,,
break_continue,html.Screen,4_125_2,2023-09-06T19:50:08.746Z,,0,,,NaN,,,,,,false,,,,459527,459527,,459526,,459560,8,400,,,
sequence,flow.Sequence,4_125,2023-09-06T19:50:08.746Z,,0,,,2766,completion,,,,,false,,,,459527,459527,456744,456734.00000000006,456761,459560,8,400,,,
trial,html.Screen,4_126_0,2023-09-06T19:50:12.651Z,,0,3,,3889,response,ISIC_9152137.JPG,13,ISIC_8368872.JPG,ISIC_8368872.JPG,false,0,keypress(z),500,463432,463432,459543,459527,459560,463459,8,400,27,,ISIC_9152137.JPG
break,html.Screen,4_126_1,2023-09-06T19:50:12.652Z,,0,,,NaN,,,,,,false,,,,463432,463432,,463432,,463459,8,400,,,
break_continue,html.Screen,4_126_2,2023-09-06T19:50:12.652Z,,0,,,NaN,,,,,,false,,,,463433,463433,,463432,,463459,8,400,,,
sequence,flow.Sequence,4_126,2023-09-06T19:50:12.652Z,,0,,,3873,completion,,,,,false,,,,463433,463433,459543,459527,459560,463459,8,400,,,
trial,html.Screen,4_127_0,2023-09-06T19:50:15.705Z,,0,3,,3043,response,ISIC_3230874.JPG,3,ISIC_0033804.JPG,ISIC_3230874.JPG,false,1,keypress(m),500,466486,466486,463443,463433,463459,466509,8,400,28,,ISIC_0033804.JPG
break,html.Screen,4_127_1,2023-09-06T19:50:15.706Z,,0,,,NaN,,,,,,false,,,,466486,466486,,466486,,466509,8,400,,,
break_continue,html.Screen,4_127_2,2023-09-06T19:50:15.706Z,,0,,,NaN,,,,,,false,,,,466486,466486,,466486,,466509,8,400,,,
sequence,flow.Sequence,4_127,2023-09-06T19:50:15.706Z,,0,,,3027,completion,,,,,false,,,,466487,466486,463443,463433,463459,466509,8,400,,,
trial,html.Screen,4_128_0,2023-09-06T19:50:18.427Z,,0,3,,2716,response,ISIC_0011348.JPG,3,ISIC_0059571.JPG,ISIC_0011348.JPG,false,1,keypress(m),500,469208,469208,466492,466487,466509,469242,8,400,29,,ISIC_0059571.JPG
break,html.Screen,4_128_1,2023-09-06T19:50:18.428Z,,0,,,NaN,,,,,,false,,,,469209,469209,,469208,,469242,8,400,,,
break_continue,html.Screen,4_128_2,2023-09-06T19:50:18.428Z,,0,,,NaN,,,,,,false,,,,469209,469209,,469209,,469242,8,400,,,
sequence,flow.Sequence,4_128,2023-09-06T19:50:18.428Z,,0,,,2700,completion,,,,,false,,,,469209,469209,466492,466487,466509,469242,8,400,,,
trial,html.Screen,4_129_0,2023-09-06T19:50:21.365Z,,0,3,,2922,response,ISIC_8630818.JPG,8,ISIC_0009721.JPG,ISIC_0009721.JPG,false,0,keypress(z),500,472146,472146,469224,469209,469242,472176,8,400,30,,ISIC_8630818.JPG
break,html.Screen,4_129_1,2023-09-06T19:50:21.365Z,,0,,,NaN,,,,,,false,,,,472146,472146,,472146,,472176,8,400,,,
break_continue,html.Screen,4_129_2,2023-09-06T19:50:21.366Z,,0,,,NaN,,,,,,false,,,,472147,472146,,472146,,472176,8,400,,,
sequence,flow.Sequence,4_129,2023-09-06T19:50:21.366Z,,0,,,2904,completion,,,,,false,,,,472147,472146,469224,469209,469242,472176,8,400,,,
trial,html.Screen,4_130_0,2023-09-06T19:50:23.894Z,,0,3,,2517,response,ISIC_0064095.JPG,1,ISIC_0026666.JPG,ISIC_0026666.JPG,false,0,keypress(z),500,474675,474675,472158,472147,472176,474708,8,400,31,,ISIC_0064095.JPG
break,html.Screen,4_130_1,2023-09-06T19:50:23.894Z,,0,,,NaN,,,,,,false,,,,474675,474675,,474675,,474708,8,400,,,
break_continue,html.Screen,4_130_2,2023-09-06T19:50:23.895Z,,0,,,NaN,,,,,,false,,,,474676,474676,,474676,,474708,8,400,,,
sequence,flow.Sequence,4_130,2023-09-06T19:50:23.895Z,,0,,,2500,completion,,,,,false,,,,474676,474676,472158,472147,472176,474708,8,400,,,
trial,html.Screen,4_131_0,2023-09-06T19:50:26.727Z,,0,3,,2817.000000000058,response,ISIC_0031248.JPG,8,ISIC_9254641.JPG,ISIC_9254641.JPG,false,0,keypress(z),500,477508.00000000006,477508.00000000006,474691,474676,474708,477541,8,400,32,,ISIC_0031248.JPG
break,html.Screen,4_131_1,2023-09-06T19:50:26.728Z,,0,,,NaN,,,,,,false,,,,477509,477509,,477508.00000000006,,477541,8,400,,,
break_continue,html.Screen,4_131_2,2023-09-06T19:50:26.728Z,,0,,,NaN,,,,,,false,,,,477509,477509,,477509,,477541,8,400,,,
sequence,flow.Sequence,4_131,2023-09-06T19:50:26.728Z,,0,,,2801,completion,,,,,false,,,,477509,477509,474691,474676,474708,477541,8,400,,,
trial,html.Screen,4_132_0,2023-09-06T19:50:29.560Z,,0,3,,2816,response,ISIC_0068184.JPG,11,ISIC_3613012.JPG,ISIC_3613012.JPG,false,0,keypress(z),500,480341,480341,477525,477509,477541,480374,8,400,33,,ISIC_0068184.JPG
break,html.Screen,4_132_1,2023-09-06T19:50:29.560Z,,0,,,NaN,,,,,,false,,,,480342,480342,,480341,,480374,8,400,,,
break_continue,html.Screen,4_132_2,2023-09-06T19:50:29.561Z,,0,,,NaN,,,,,,false,,,,480342,480342,,480342,,480374,8,400,,,
sequence,flow.Sequence,4_132,2023-09-06T19:50:29.561Z,,0,,,2801,completion,,,,,false,,,,480342,480342,477525,477509,477541,480374,8,400,,,
trial,html.Screen,4_133_0,2023-09-06T19:50:32.231Z,,0,3,,2656.000000000058,response,ISIC_0031752.JPG,7,ISIC_0000513.JPG,ISIC_0000513.JPG,false,0,keypress(z),500,483013.00000000006,483013.00000000006,480357,480342,480374,483040,8,400,34,,ISIC_0031752.JPG
break,html.Screen,4_133_1,2023-09-06T19:50:32.232Z,,0,,,NaN,,,,,,false,,,,483013.00000000006,483013.00000000006,,483013.00000000006,,483040,8,400,,,
break_continue,html.Screen,4_133_2,2023-09-06T19:50:32.232Z,,0,,,NaN,,,,,,false,,,,483014,483013.00000000006,,483013.00000000006,,483040,8,400,,,
sequence,flow.Sequence,4_133,2023-09-06T19:50:32.232Z,,0,,,2639.000000000058,completion,,,,,false,,,,483014,483013.00000000006,480357,480342,480374,483040,8,400,,,
trial,html.Screen,4_134_0,2023-09-06T19:50:35.240Z,,0,3,,2997,response,ISIC_0261253.JPG,7,ISIC_1870309.JPG,ISIC_1870309.JPG,false,0,keypress(z),500,486021,486021,483024,483014,483040,486056,8,400,35,,ISIC_0261253.JPG
break,html.Screen,4_134_1,2023-09-06T19:50:35.240Z,,0,,,NaN,,,,,,false,,,,486022,486022,,486021,,486056,8,400,,,
break_continue,html.Screen,4_134_2,2023-09-06T19:50:35.240Z,,0,,,NaN,,,,,,false,,,,486022,486022,,486022,,486056,8,400,,,
sequence,flow.Sequence,4_134,2023-09-06T19:50:35.241Z,,0,,,2982,completion,,,,,false,,,,486022,486022,483024,483014,483040,486056,8,400,,,
trial,html.Screen,4_135_0,2023-09-06T19:50:38.221Z,,0,3,,2962,response,ISIC_0031118.JPG,13,ISIC_3425388.JPG,ISIC_3425388.JPG,false,0,keypress(z),500,489002,489002,486040,486022,486056,489040,8,400,36,,ISIC_0031118.JPG
break,html.Screen,4_135_1,2023-09-06T19:50:38.221Z,,0,,,NaN,,,,,,false,,,,489003,489003,,489002,,489040,8,400,,,
break_continue,html.Screen,4_135_2,2023-09-06T19:50:38.221Z,,0,,,NaN,,,,,,false,,,,489003,489003,,489003,,489040,8,400,,,
sequence,flow.Sequence,4_135,2023-09-06T19:50:38.221Z,,0,,,2947,completion,,,,,false,,,,489003,489003,486040,486022,486056,489040,8,400,,,
trial,html.Screen,4_136_0,2023-09-06T19:50:40.786Z,,0,3,,2545,response,ISIC_2412888.JPG,2,ISIC_0011032.JPG,ISIC_2412888.JPG,false,1,keypress(m),500,491567,491567,489022,489003,489040,491589,8,400,37,,ISIC_0011032.JPG
break,html.Screen,4_136_1,2023-09-06T19:50:40.786Z,,0,,,NaN,,,,,,false,,,,491568,491568,,491568,,491589,8,400,,,
break_continue,html.Screen,4_136_2,2023-09-06T19:50:40.786Z,,0,,,NaN,,,,,,false,,,,491568,491568,,491568,,491589,8,400,,,
sequence,flow.Sequence,4_136,2023-09-06T19:50:40.787Z,,0,,,2528,completion,,,,,false,,,,491568,491568,489022,489003,489040,491589,8,400,,,
trial,html.Screen,4_137_0,2023-09-06T19:50:43.670Z,,0,3,,2879,response,ISIC_0014867.JPG,2,ISIC_8866651.JPG,ISIC_0014867.JPG,false,1,keypress(m),500,494452,494452,491573,491568,491589,494489,8,400,38,,ISIC_8866651.JPG
break,html.Screen,4_137_1,2023-09-06T19:50:43.671Z,,0,,,NaN,,,,,,false,,,,494453.00000000006,494453.00000000006,,494452,,494489,8,400,,,
break_continue,html.Screen,4_137_2,2023-09-06T19:50:43.671Z,,0,,,NaN,,,,,,false,,,,494453.00000000006,494453.00000000006,,494453.00000000006,,494489,8,400,,,
sequence,flow.Sequence,4_137,2023-09-06T19:50:43.671Z,,0,,,2864.000000000058,completion,,,,,false,,,,494453.00000000006,494453.00000000006,491573,491568,491589,494489,8,400,,,
trial,html.Screen,4_138_0,2023-09-06T19:50:47.136Z,,0,3,,3446,response,ISIC_6334958.JPG,2,ISIC_0169604.JPG,ISIC_0169604.JPG,false,0,keypress(z),500,497918,497918,494472,494453.00000000006,494489,497955,8,400,39,,ISIC_6334958.JPG
break,html.Screen,4_138_1,2023-09-06T19:50:47.137Z,,0,,,NaN,,,,,,false,,,,497919,497919,,497919,,497955,8,400,,,
break_continue,html.Screen,4_138_2,2023-09-06T19:50:47.137Z,,0,,,NaN,,,,,,false,,,,497919,497919,,497919,,497955,8,400,,,
sequence,flow.Sequence,4_138,2023-09-06T19:50:47.137Z,,0,,,3430,completion,,,,,false,,,,497919,497919,494472,494453.00000000006,494489,497955,8,400,,,
trial,html.Screen,4_139_0,2023-09-06T19:50:49.894Z,,0,3,,2738,response,ISIC_2772581.JPG,1,ISIC_6991849.JPG,ISIC_6991849.JPG,false,0,keypress(z),500,500676,500676,497938,497919,497955,500705,8,400,40,,ISIC_2772581.JPG
break,html.Screen,4_139_1,2023-09-06T19:50:49.895Z,,0,,,NaN,,,,,,false,,,,500677,500677,,500676,,500705,8,400,,,
break_continue,html.Screen,4_139_2,2023-09-06T19:50:49.895Z,,0,,,NaN,,,,,,false,,,,500677,500677,,500677,,500705,8,400,,,
sequence,flow.Sequence,4_139,2023-09-06T19:50:49.895Z,,0,,,2722,completion,,,,,false,,,,500677,500677,497938,497919,497955,500705,8,400,,,
trial,html.Screen,4_140_0,2023-09-06T19:50:52.462Z,,0,3,,2556,response,ISIC_0054087.JPG,9,ISIC_9259989.JPG,ISIC_9259989.JPG,false,0,keypress(z),500,503244,503244,500688,500677,500705,503272,8,400,41,,ISIC_0054087.JPG
break,html.Screen,4_140_1,2023-09-06T19:50:52.462Z,,0,,,NaN,,,,,,false,,,,503245,503244,,503244,,503272,8,400,,,
break_continue,html.Screen,4_140_2,2023-09-06T19:50:52.462Z,,0,,,NaN,,,,,,false,,,,503245,503245,,503245,,503272,8,400,,,
sequence,flow.Sequence,4_140,2023-09-06T19:50:52.463Z,,0,,,2540,completion,,,,,false,,,,503245,503245,500688,500677,500705,503272,8,400,,,
trial,html.Screen,4_141_0,2023-09-06T19:50:55.041Z,,0,3,,2568.000000000058,response,ISIC_0063516.JPG,10,ISIC_0008816.JPG,ISIC_0008816.JPG,false,0,keypress(z),500,505823.00000000006,505823.00000000006,503255,503245,503272,505855,8,400,42,,ISIC_0063516.JPG
break,html.Screen,4_141_1,2023-09-06T19:50:55.041Z,,0,,,NaN,,,,,,false,,,,505824,505824,,505823.00000000006,,505855,8,400,,,
break_continue,html.Screen,4_141_2,2023-09-06T19:50:55.042Z,,0,,,NaN,,,,,,false,,,,505824,505824,,505824,,505855,8,400,,,
sequence,flow.Sequence,4_141,2023-09-06T19:50:55.042Z,,0,,,2552,completion,,,,,false,,,,505824,505824,503255,503245,503272,505855,8,400,,,
trial,html.Screen,4_142_0,2023-09-06T19:50:57.914Z,,0,3,,2860,response,ISIC_4043580.JPG,4,ISIC_8479913.JPG,ISIC_4043580.JPG,false,1,keypress(m),500,508697,508697,505837,505824,505855,508720,8,400,43,,ISIC_8479913.JPG
break,html.Screen,4_142_1,2023-09-06T19:50:57.915Z,,0,,,NaN,,,,,,false,,,,508697,508697,,508697,,508720,8,400,,,
break_continue,html.Screen,4_142_2,2023-09-06T19:50:57.915Z,,0,,,NaN,,,,,,false,,,,508698.00000000006,508698.00000000006,,508697,,508720,8,400,,,
sequence,flow.Sequence,4_142,2023-09-06T19:50:57.915Z,,0,,,2843.000000000058,completion,,,,,false,,,,508698.00000000006,508698.00000000006,505837,505824,505855,508720,8,400,,,
trial,html.Screen,4_143_0,2023-09-06T19:51:01.086Z,,0,3,,3166,response,ISIC_8822738.JPG,3,ISIC_3728352.JPG,ISIC_3728352.JPG,false,0,keypress(z),500,511869,511869,508703,508698.00000000006,508720,511904,8,400,44,,ISIC_8822738.JPG
break,html.Screen,4_143_1,2023-09-06T19:51:01.087Z,,0,,,NaN,,,,,,false,,,,511869,511869,,511869,,511904,8,400,,,
break_continue,html.Screen,4_143_2,2023-09-06T19:51:01.087Z,,0,,,NaN,,,,,,false,,,,511869,511869,,511869,,511904,8,400,,,
sequence,flow.Sequence,4_143,2023-09-06T19:51:01.087Z,,0,,,3149,completion,,,,,false,,,,511870,511869,508703,508698.00000000006,508720,511904,8,400,,,
trial,html.Screen,4_144_0,2023-09-06T19:51:04.086Z,,0,3,,2981,response,ISIC_9303594.JPG,3,ISIC_0773096.JPG,ISIC_9303594.JPG,false,1,keypress(m),500,514869,514869,511888,511870,511904,514903,8,400,45,,ISIC_0773096.JPG
break,html.Screen,4_144_1,2023-09-06T19:51:04.086Z,,0,,,NaN,,,,,,false,,,,514869,514869,,514869,,514903,8,400,,,
break_continue,html.Screen,4_144_2,2023-09-06T19:51:04.086Z,,0,,,NaN,,,,,,false,,,,514869,514869,,514869,,514903,8,400,,,
sequence,flow.Sequence,4_144,2023-09-06T19:51:04.086Z,,0,,,2965,completion,,,,,false,,,,514869,514869,511888,511870,511904,514903,8,400,,,
trial,html.Screen,4_145_0,2023-09-06T19:51:07.129Z,,0,3,,3025.000000000058,response,ISIC_9974613.JPG,8,ISIC_4243283.JPG,ISIC_9974613.JPG,false,1,keypress(m),500,517911.00000000006,517911.00000000006,514886,514869,514903,517936,8,400,46,,ISIC_4243283.JPG
break,html.Screen,4_145_1,2023-09-06T19:51:07.129Z,,0,,,NaN,,,,,,false,,,,517912.00000000006,517912.00000000006,,517912.00000000006,,517936,8,400,,,
break_continue,html.Screen,4_145_2,2023-09-06T19:51:07.129Z,,0,,,NaN,,,,,,false,,,,517912.00000000006,517912.00000000006,,517912.00000000006,,517936,8,400,,,
sequence,flow.Sequence,4_145,2023-09-06T19:51:07.129Z,,0,,,3009.000000000058,completion,,,,,false,,,,517912.00000000006,517912.00000000006,514886,514869,514903,517936,8,400,,,
trial,html.Screen,4_146_0,2023-09-06T19:51:09.908Z,,0,3,,2772.000000000058,response,ISIC_6870208.JPG,7,ISIC_0025165.JPG,ISIC_6870208.JPG,false,1,keypress(m),500,520691.00000000006,520691.00000000006,517919,517912.00000000006,517936,520719,8,400,47,,ISIC_0025165.JPG
break,html.Screen,4_146_1,2023-09-06T19:51:09.909Z,,0,,,NaN,,,,,,false,,,,520692,520692,,520691.00000000006,,520719,8,400,,,
break_continue,html.Screen,4_146_2,2023-09-06T19:51:09.909Z,,0,,,NaN,,,,,,false,,,,520692,520692,,520692,,520719,8,400,,,
sequence,flow.Sequence,4_146,2023-09-06T19:51:09.909Z,,0,,,2756,completion,,,,,false,,,,520692,520692,517919,517912.00000000006,517936,520719,8,400,,,
trial,html.Screen,4_147_0,2023-09-06T19:51:13.575Z,,0,3,,3655.0000000001164,response,ISIC_0536321.JPG,7,ISIC_0004509.JPG,ISIC_0004509.JPG,false,0,keypress(z),500,524358.0000000001,524358.0000000001,520703,520692,520719,524385,8,400,48,,ISIC_0536321.JPG
break,html.Screen,4_147_1,2023-09-06T19:51:13.575Z,,0,,,NaN,,,,,,false,,,,524359,524358.0000000001,,524358.0000000001,,524385,8,400,,,
break_continue,html.Screen,4_147_2,2023-09-06T19:51:13.576Z,,0,,,NaN,,,,,,false,,,,524359,524359,,524359,,524385,8,400,,,
sequence,flow.Sequence,4_147,2023-09-06T19:51:13.576Z,,0,,,3640,completion,,,,,false,,,,524359,524359,520703,520692,520719,524385,8,400,,,
trial,html.Screen,4_148_0,2023-09-06T19:51:16.327Z,,0,3,,2741,response,ISIC_9713706.JPG,8,ISIC_1102391.JPG,ISIC_1102391.JPG,false,0,keypress(z),500,527110,527110,524369,524359,524385,527136,8,400,49,,ISIC_9713706.JPG
break,html.Screen,4_148_1,2023-09-06T19:51:16.327Z,,0,,,NaN,,,,,,false,,,,527110,527110,,527110,,527136,8,400,,,
break_continue,html.Screen,4_148_2,2023-09-06T19:51:16.327Z,,0,,,NaN,,,,,,false,,,,527111,527111,,527111,,527136,8,400,,,
sequence,flow.Sequence,4_148,2023-09-06T19:51:16.327Z,,0,,,2726,completion,,,,,false,,,,527111,527111,524369,524359,524385,527136,8,400,,,
trial,html.Screen,4_149_0,2023-09-06T19:51:19.166Z,,0,3,,2828,response,ISIC_4601527.JPG,1,ISIC_4938638.JPG,ISIC_4601527.JPG,false,1,keypress(m),500,529949,529947,527119,527111,527136,529985,8,400,50,,ISIC_4938638.JPG
break,html.Screen,4_149_1,2023-09-06T19:51:29.183Z,,0,,,9998,timeout,,,,,false,,,,539967,539967,529969,529949,529985,539983,8,400,,,
break_continue,html.Screen,4_149_2,2023-09-06T19:51:31.605Z,,0,,,2443,response,,,,,false,continue,keypress(Space),,542389,542410,539967,539967,539983,542417,8,400,,,
sequence,flow.Sequence,4_149,2023-09-06T19:51:31.605Z,,0,,,15274,completion,,,,,false,,,,542389,542410,527119,527111,527136,542417,8,400,,,
trial,html.Screen,4_150_0,2023-09-06T19:51:34.801Z,,0,4,,3184,response,ISIC_0021442.JPG,9,ISIC_0004857.JPG,ISIC_0004857.JPG,false,0,keypress(z),500,545585,545585,542401,542389,542417,545616,8,400,1,,ISIC_0021442.JPG
break,html.Screen,4_150_1,2023-09-06T19:51:34.802Z,,0,,,NaN,,,,,,false,,,,545586,545586,,545585,,545616,8,400,,,
break_continue,html.Screen,4_150_2,2023-09-06T19:51:34.802Z,,0,,,NaN,,,,,,false,,,,545586,545586,,545586,,545616,8,400,,,
sequence,flow.Sequence,4_150,2023-09-06T19:51:34.802Z,,0,,,3169,completion,,,,,false,,,,545586,545586,542401,542389,542417,545616,8,400,,,
trial,html.Screen,4_151_0,2023-09-06T19:51:39.534Z,,0,4,,4718,response,ISIC_5566396.JPG,8,ISIC_0069192.JPG,ISIC_5566396.JPG,false,1,keypress(m),500,550319,550318,545600,545586,545616,550349,8,400,2,,ISIC_0069192.JPG
break,html.Screen,4_151_1,2023-09-06T19:51:39.535Z,,0,,,NaN,,,,,,false,,,,550319,550319,,550319,,550349,8,400,,,
break_continue,html.Screen,4_151_2,2023-09-06T19:51:39.535Z,,0,,,NaN,,,,,,false,,,,550319,550319,,550319,,550349,8,400,,,
sequence,flow.Sequence,4_151,2023-09-06T19:51:39.535Z,,0,,,4703,completion,,,,,false,,,,550319,550319,545600,545586,545616,550349,8,400,,,
trial,html.Screen,4_152_0,2023-09-06T19:51:42.290Z,,0,4,,2742,response,ISIC_0056900.JPG,6,ISIC_0029970.JPG,ISIC_0056900.JPG,false,1,keypress(m),500,553074,553074,550332,550319,550349,553099,8,400,3,,ISIC_0029970.JPG
break,html.Screen,4_152_1,2023-09-06T19:51:42.290Z,,0,,,NaN,,,,,,false,,,,553075,553075,,553074,,553099,8,400,,,
break_continue,html.Screen,4_152_2,2023-09-06T19:51:42.290Z,,0,,,NaN,,,,,,false,,,,553075,553075,,553075,,553099,8,400,,,
sequence,flow.Sequence,4_152,2023-09-06T19:51:42.291Z,,0,,,2726,completion,,,,,false,,,,553075,553075,550332,550319,550349,553099,8,400,,,
trial,html.Screen,4_153_0,2023-09-06T19:51:45.850Z,,0,4,,3553,response,ISIC_5931552.JPG,13,ISIC_4810485.JPG,ISIC_4810485.JPG,false,0,keypress(z),500,556634,556634,553081,553075,553099,556665,8,400,4,,ISIC_5931552.JPG
break,html.Screen,4_153_1,2023-09-06T19:51:45.850Z,,0,,,NaN,,,,,,false,,,,556635,556635,,556634,,556665,8,400,,,
break_continue,html.Screen,4_153_2,2023-09-06T19:51:45.850Z,,0,,,NaN,,,,,,false,,,,556635,556635,,556635,,556665,8,400,,,
sequence,flow.Sequence,4_153,2023-09-06T19:51:45.850Z,,0,,,3536,completion,,,,,false,,,,556635,556635,553081,553075,553099,556665,8,400,,,
trial,html.Screen,4_154_0,2023-09-06T19:51:48.826Z,,0,4,,2961,response,ISIC_0025267.JPG,7,ISIC_0000551.JPG,ISIC_0000551.JPG,false,0,keypress(z),500,559611,559610,556649,556635,556665,559631,8,400,5,,ISIC_0025267.JPG
break,html.Screen,4_154_1,2023-09-06T19:51:48.826Z,,0,,,NaN,,,,,,false,,,,559611,559611,,559611,,559631,8,400,,,
break_continue,html.Screen,4_154_2,2023-09-06T19:51:48.827Z,,0,,,NaN,,,,,,false,,,,559611,559611,,559611,,559631,8,400,,,
sequence,flow.Sequence,4_154,2023-09-06T19:51:48.827Z,,0,,,2946,completion,,,,,false,,,,559611,559611,556649,556635,556665,559631,8,400,,,
trial,html.Screen,4_155_0,2023-09-06T19:51:51.648Z,,0,4,,2818,response,ISIC_0057481.JPG,6,ISIC_0057821.JPG,ISIC_0057481.JPG,false,1,keypress(m),500,562433,562432,559614,559611,559631,562465,8,400,6,,ISIC_0057821.JPG
break,html.Screen,4_155_1,2023-09-06T19:51:51.648Z,,0,,,NaN,,,,,,false,,,,562433,562433,,562433,,562465,8,400,,,
