sender,sender_type,sender_id,timestamp,meta,,blockNo,condition,duration,ended_on,img_left,img_reveal,img_right,loser,practice,response,response_action,selection_duration,time_commit,time_end,time_render,time_run,time_show,time_switch,total_blocks,total_trials,trialNo,url,winner
informed_consent,html.Screen,0,2023-09-08T18:43:39.514Z,"{""labjs_version"":""20.2.4"",""labjs_build"":{""flavor"":""production"",""commit"":""f5b4a49f956347addd546a832a3327688c2c0fef""},""location"":""https://run.pavlovia.org/MurrayBennett/melanoma-2afc/?participant=559e82dffdf99b7a9a124180&STUDY_ID=64f8c92207ba404bcb356c90&SESSION_ID=64fb6b3cf3b6a4aec83f55f3&platform=prolific"",""userAgent"":""Mozilla/5.0 (Windows NT 10.0; Win64; x64) AppleWebKit/537.36 (KHTML, like Gecko) Chrome/116.0.0.0 Safari/537.36"",""platform"":""Win32"",""language"":""en-US"",""locale"":""en-US"",""timeZone"":""America/Los_Angeles"",""timezoneOffset"":420,""screen_width"":1536,""screen_height"":864,""scroll_width"":1704,""scroll_height"":1061,""window_innerWidth"":1704,""window_innerHeight"":1108,""devicePixelRatio"":0.8333333730697632}",,,,4423.693999998512,response,,,,,,consent,click button,,27940.19999999553,27937.39999999851,23497.026,3618.89999999851,23513.706,28615.2,,,,"{""participant"":""559e82dffdf99b7a9a124180"",""STUDY_ID"":""64f8c92207ba404bcb356c90"",""SESSION_ID"":""64fb6b3cf3b6a4aec83f55f3"",""platform"":""prolific""}",
Welcome,html.Screen,1,2023-09-08T18:44:55.713Z,,,,symmetry,75522.59999999702,response,,,,,,continue,click button,,104139,104137.79999999702,27931.607,27940.39999999851,28615.2,104151.971,,,,,
trial,html.Screen,2_0_0,2023-09-08T18:44:59.316Z,,0,0,,3590.028999999995,response,ISIC_0069348.JPG,,ISIC_6997061.JPG,ISIC_0069348.JPG,true,1,keypress(m),500,107742.59999999404,107742,104135.298,104139.19999999553,104151.971,107753.294,1,6,1,,ISIC_6997061.JPG
sequence,flow.Sequence,2_0,2023-09-08T18:44:59.317Z,,0,,,3590.028999999995,completion,,,,,true,,,,107743.5,107742,104135.298,104139.19999999553,104151.971,107753.294,1,6,,,
trial,html.Screen,2_1_0,2023-09-08T18:45:02.568Z,,0,0,,3241.2060000000056,response,ISIC_0009529.JPG,,ISIC_0057368.JPG,ISIC_0057368.JPG,true,0,keypress(z),500,110994.69999999553,110994.5,107736.621,107743.79999999702,107753.294,111003.948,1,6,2,,ISIC_0009529.JPG
sequence,flow.Sequence,2_1,2023-09-08T18:45:02.569Z,,0,,,3241.2060000000056,completion,,,,,true,,,,110995,110994.5,107736.621,107743.69999999553,107753.294,111003.948,1,6,,,
trial,html.Screen,2_2_0,2023-09-08T18:45:06.427Z,,0,0,,3849.051999999996,response,ISIC_9758671.JPG,,ISIC_0064954.JPG,ISIC_9758671.JPG,true,1,keypress(m),500,114853.39999999851,114853,110987.275,110995.29999999702,111003.948,114871.611,1,6,3,,ISIC_0064954.JPG
sequence,flow.Sequence,2_2,2023-09-08T18:45:06.428Z,,0,,,3849.051999999996,completion,,,,,true,,,,114854,114853,110987.275,110995.19999999553,111003.948,114871.611,1,6,,,
trial,html.Screen,2_3_0,2023-09-08T18:45:10.223Z,,0,0,,3776.8889999999956,response,ISIC_0005785.JPG,,ISIC_0000080.JPG,ISIC_0005785.JPG,true,1,keypress(m),500,118649,118648.5,114854.892,114854.5,114871.611,118656.001,1,6,4,,ISIC_0000080.JPG
sequence,flow.Sequence,2_3,2023-09-08T18:45:10.223Z,,0,,,3776.8889999999956,completion,,,,,true,,,,118649.59999999404,118648.5,114854.892,114854.29999999702,114871.611,118656.001,1,6,,,
trial,html.Screen,2_4_0,2023-09-08T18:45:13.267Z,,0,0,,3036.198999995526,response,ISIC_5390060.JPG,,ISIC_7944028.JPG,ISIC_5390060.JPG,true,1,keypress(m),500,121692.79999999702,121692.19999999553,118639.328,118650,118656.001,121706.814,1,6,5,,ISIC_7944028.JPG
sequence,flow.Sequence,2_4,2023-09-08T18:45:13.267Z,,0,,,3036.198999995526,completion,,,,,true,,,,121693.5,121692.19999999553,118639.328,118649.89999999851,118656.001,121706.814,1,6,,,
trial,html.Screen,2_5_0,2023-09-08T18:45:16.759Z,,0,0,,3477.4859999970213,response,ISIC_0010188.JPG,,ISIC_0794216.JPG,ISIC_0010188.JPG,true,1,keypress(m),500,125184.79999999702,125184.29999999702,121690.141,121694,121706.814,125190.869,1,6,6,,ISIC_0794216.JPG
sequence,flow.Sequence,2_5,2023-09-08T18:45:16.759Z,,0,,,3477.4859999970213,completion,,,,,true,,,,125185.39999999851,125184.29999999702,121690.141,121693.79999999702,121706.814,125190.869,1,6,,,
loop,flow.Loop,2,2023-09-08T18:45:16.760Z,,,,,21032.328999997015,completion,,,,,true,,,,125185.79999999702,125184.29999999702,104135.298,104139.19999999553,104151.971,125190.869,1,6,,,
exp_instructions,html.Screen,3,2023-09-08T18:45:28.876Z,,,,,12110.530999998504,response,,,,,,continue,keypress(Space),,137302.19999999553,137301.3999999985,125174.196,125185.89999999851,125190.869,137312,,,,,
trial,html.Screen,4_0_0,2023-09-08T18:45:32.130Z,,0,1,,3243.5,response,ISIC_2134975.JPG,6,ISIC_8674332.JPG,ISIC_8674332.JPG,false,0,keypress(z),500,140556,140555.5,137295.327,137302.5,137312,140561.753,8,400,1,,ISIC_2134975.JPG
break,html.Screen,4_0_1,2023-09-08T18:45:32.133Z,,0,,,NaN,,,,,,false,,,,140558.69999999553,140558.09999999404,,140556.5,,140561.753,8,400,,,
break_continue,html.Screen,4_0_2,2023-09-08T18:45:32.134Z,,0,,,NaN,,,,,,false,,,,140560.5,140560.09999999404,,140559.19999999553,,140561.753,8,400,,,
sequence,flow.Sequence,4_0,2023-09-08T18:45:32.135Z,,0,,,3248.0999999940395,completion,,,,,false,,,,140560.8999999985,140560.09999999404,137295.327,137302.5,137312,140561.753,8,400,,,
trial,html.Screen,4_1_0,2023-09-08T18:45:35.034Z,,0,1,,2897.646999998513,response,ISIC_0025015.JPG,5,ISIC_0030259.JPG,ISIC_0030259.JPG,false,0,keypress(z),500,143459.79999999702,143459.3999999985,140545.08,140561.19999999553,140561.753,143462.593,8,400,2,,ISIC_0025015.JPG
break,html.Screen,4_1_1,2023-09-08T18:45:35.035Z,,0,,,NaN,,,,,,false,,,,143461.5,143461,,143460.09999999404,,143462.593,8,400,,,
break_continue,html.Screen,4_1_2,2023-09-08T18:45:35.036Z,,0,,,NaN,,,,,,false,,,,143462.5,143462.19999999553,,143461.69999999553,,143462.593,8,400,,,
sequence,flow.Sequence,4_1,2023-09-08T18:45:35.037Z,,0,,,2900.4469999955327,completion,,,,,false,,,,143462.79999999702,143462.19999999553,140545.08,140561.09999999404,140561.753,143462.593,8,400,,,
trial,html.Screen,4_2_0,2023-09-08T18:45:38.496Z,,0,1,,3459.606999995536,response,ISIC_3087402.JPG,4,ISIC_0198331.JPG,ISIC_3087402.JPG,false,1,keypress(m),500,146922.19999999553,146922.19999999553,143445.92,143463.09999999404,143462.593,146930.152,8,400,3,,ISIC_0198331.JPG
break,html.Screen,4_2_1,2023-09-08T18:45:38.497Z,,0,,,NaN,,,,,,false,,,,146922.69999999553,146922.59999999404,,146922.3999999985,,146930.152,8,400,,,
break_continue,html.Screen,4_2_2,2023-09-08T18:45:38.497Z,,0,,,NaN,,,,,,false,,,,146923,146922.8999999985,,146922.79999999702,,146930.152,8,400,,,
sequence,flow.Sequence,4_2,2023-09-08T18:45:38.497Z,,0,,,3460.3069999985164,completion,,,,,false,,,,146923.09999999404,146922.8999999985,143445.92,143463,143462.593,146930.152,8,400,,,
trial,html.Screen,4_3_0,2023-09-08T18:45:42.291Z,,0,1,,3786.547999995528,response,ISIC_3352799.JPG,5,ISIC_0014079.JPG,ISIC_3352799.JPG,false,1,keypress(m),500,150716.79999999702,150716.69999999553,146913.479,146923.19999999553,146930.152,150731.179,8,400,4,,ISIC_0014079.JPG
break,html.Screen,4_3_1,2023-09-08T18:45:42.291Z,,0,,,NaN,,,,,,false,,,,150717.59999999404,150717.29999999702,,150716.8999999985,,150731.179,8,400,,,
break_continue,html.Screen,4_3_2,2023-09-08T18:45:42.292Z,,0,,,NaN,,,,,,false,,,,150718,150717.79999999702,,150717.69999999553,,150731.179,8,400,,,
sequence,flow.Sequence,4_3,2023-09-08T18:45:42.292Z,,0,,,3787.647999997018,completion,,,,,false,,,,150718.09999999404,150717.79999999702,146913.479,146923.09999999404,146930.152,150731.179,8,400,,,
trial,html.Screen,4_4_0,2023-09-08T18:45:46.077Z,,0,1,,3771.720999998506,response,ISIC_9175856.JPG,5,ISIC_0257447.JPG,ISIC_0257447.JPG,false,0,keypress(z),500,154503.29999999702,154502.8999999985,150714.469,150718.19999999553,150731.179,154515.588,8,400,5,,ISIC_9175856.JPG
break,html.Screen,4_4_1,2023-09-08T18:45:46.079Z,,0,,,NaN,,,,,,false,,,,154505.09999999404,154504.5,,154503.69999999553,,154515.588,8,400,,,
break_continue,html.Screen,4_4_2,2023-09-08T18:45:46.080Z,,0,,,NaN,,,,,,false,,,,154505.8999999985,154505.79999999702,,154505.29999999702,,154515.588,8,400,,,
sequence,flow.Sequence,4_4,2023-09-08T18:45:46.080Z,,0,,,3774.620999997016,completion,,,,,false,,,,154506.29999999702,154505.79999999702,150714.469,150718.19999999553,150731.179,154515.588,8,400,,,
trial,html.Screen,4_5_0,2023-09-08T18:45:49.691Z,,0,1,,3600.811999998521,response,ISIC_0034118.JPG,5,ISIC_0028135.JPG,ISIC_0034118.JPG,false,1,keypress(m),500,158116.59999999404,158116.3999999985,154498.915,154506.59999999404,154515.588,158133.153,8,400,6,,ISIC_0028135.JPG
break,html.Screen,4_5_1,2023-09-08T18:45:49.692Z,,0,,,NaN,,,,,,false,,,,158118,158117.59999999404,,158116.8999999985,,158133.153,8,400,,,
break_continue,html.Screen,4_5_2,2023-09-08T18:45:49.693Z,,0,,,NaN,,,,,,false,,,,158118.69999999553,158118.5,,158118.19999999553,,158133.153,8,400,,,
sequence,flow.Sequence,4_5,2023-09-08T18:45:49.693Z,,0,,,3602.912000000011,completion,,,,,false,,,,158119,158118.5,154498.915,154506.5,154515.588,158133.153,8,400,,,
trial,html.Screen,4_6_0,2023-09-08T18:45:53.157Z,,0,1,,3449.347000000009,response,ISIC_4701063.JPG,6,ISIC_4049598.JPG,ISIC_4049598.JPG,false,0,keypress(z),500,161582.8999999985,161582.5,158116.48,158119.29999999702,158133.153,161600.798,8,400,7,,ISIC_4701063.JPG
break,html.Screen,4_6_1,2023-09-08T18:45:53.159Z,,0,,,NaN,,,,,,false,,,,161584.69999999553,161584.19999999553,,161583.3999999985,,161600.798,8,400,,,
break_continue,html.Screen,4_6_2,2023-09-08T18:45:53.160Z,,0,,,NaN,,,,,,false,,,,161585.69999999553,161585.3999999985,,161585,,161600.798,8,400,,,
sequence,flow.Sequence,4_6,2023-09-08T18:45:53.160Z,,0,,,3452.2469999985187,completion,,,,,false,,,,161586,161585.3999999985,158116.48,158119.09999999404,158133.153,161600.798,8,400,,,
trial,html.Screen,4_7_0,2023-09-08T18:45:56.730Z,,0,1,,3555.6019999985,response,ISIC_4564163.JPG,5,ISIC_8760203.JPG,ISIC_4564163.JPG,false,1,keypress(m),500,165156.59999999404,165156.3999999985,161584.125,161586.29999999702,161600.798,165168.483,8,400,8,,ISIC_8760203.JPG
break,html.Screen,4_7_1,2023-09-08T18:45:56.731Z,,0,,,NaN,,,,,,false,,,,165157.3999999985,165157.09999999404,,165156.69999999553,,165168.483,8,400,,,
break_continue,html.Screen,4_7_2,2023-09-08T18:45:56.732Z,,0,,,NaN,,,,,,false,,,,165157.8999999985,165157.69999999553,,165157.5,,165168.483,8,400,,,
sequence,flow.Sequence,4_7,2023-09-08T18:45:56.732Z,,0,,,3556.90199999552,completion,,,,,false,,,,165158,165157.69999999553,161584.125,161586.19999999553,161600.798,165168.483,8,400,,,
trial,html.Screen,4_8_0,2023-09-08T18:46:00.322Z,,0,1,,3579.616999994032,response,ISIC_6324832.JPG,5,ISIC_1331993.JPG,ISIC_1331993.JPG,false,0,keypress(z),500,168748.5,168748.09999999404,165151.81,165158.09999999404,165168.483,168752.578,8,400,9,,ISIC_6324832.JPG
break,html.Screen,4_8_1,2023-09-08T18:46:00.324Z,,0,,,NaN,,,,,,false,,,,168750.59999999404,168749.79999999702,,168748.8999999985,,168752.578,8,400,,,
break_continue,html.Screen,4_8_2,2023-09-08T18:46:00.326Z,,0,,,NaN,,,,,,false,,,,168751.8999999985,168751.5,,168751,,168752.578,8,400,,,
sequence,flow.Sequence,4_8,2023-09-08T18:46:00.326Z,,0,,,3583.0169999999925,completion,,,,,false,,,,168752.29999999702,168751.5,165151.81,165158.09999999404,165168.483,168752.578,8,400,,,
trial,html.Screen,4_9_0,2023-09-08T18:46:05.071Z,,0,1,,4744.121999995521,response,ISIC_3597812.JPG,5,ISIC_0541345.JPG,ISIC_0541345.JPG,false,0,keypress(z),500,173497,173496.69999999553,168735.905,168752.69999999553,168752.578,173503.809,8,400,10,,ISIC_3597812.JPG
break,html.Screen,4_9_1,2023-09-08T18:46:05.072Z,,0,,,NaN,,,,,,false,,,,173497.69999999553,173497.59999999404,,173497.09999999404,,173503.809,8,400,,,
break_continue,html.Screen,4_9_2,2023-09-08T18:46:05.072Z,,0,,,NaN,,,,,,false,,,,173498.5,173497.8999999985,,173497.79999999702,,173503.809,8,400,,,
sequence,flow.Sequence,4_9,2023-09-08T18:46:05.072Z,,0,,,4745.321999998501,completion,,,,,false,,,,173498.59999999404,173497.8999999985,168735.905,168752.59999999404,168752.578,173503.809,8,400,,,
trial,html.Screen,4_10_0,2023-09-08T18:46:08.947Z,,0,1,,3868.9909999970114,response,ISIC_0059093.JPG,4,ISIC_0033454.JPG,ISIC_0059093.JPG,false,1,keypress(m),500,177372.8999999985,177372.79999999702,173487.136,173498.59999999404,173503.809,177388.245,8,400,11,,ISIC_0033454.JPG
break,html.Screen,4_10_1,2023-09-08T18:46:08.947Z,,0,,,NaN,,,,,,false,,,,177373.3999999985,177373.29999999702,,177373.09999999404,,177388.245,8,400,,,
break_continue,html.Screen,4_10_2,2023-09-08T18:46:08.948Z,,0,,,NaN,,,,,,false,,,,177373.59999999404,177373.59999999404,,177373.3999999985,,177388.245,8,400,,,
sequence,flow.Sequence,4_10,2023-09-08T18:46:08.948Z,,0,,,3869.790999994031,completion,,,,,false,,,,177373.69999999553,177373.59999999404,173487.136,173498.59999999404,173503.809,177388.245,8,400,,,
trial,html.Screen,4_11_0,2023-09-08T18:46:12.124Z,,0,1,,3161.5549999970244,response,ISIC_0026802.JPG,5,ISIC_0071388.JPG,ISIC_0071388.JPG,false,0,keypress(z),500,180550,180549.79999999702,177371.572,177373.79999999702,177388.245,180555.635,8,400,12,,ISIC_0026802.JPG
break,html.Screen,4_11_1,2023-09-08T18:46:12.125Z,,0,,,NaN,,,,,,false,,,,180550.69999999553,180550.3999999985,,180550.09999999404,,180555.635,8,400,,,
break_continue,html.Screen,4_11_2,2023-09-08T18:46:12.125Z,,0,,,NaN,,,,,,false,,,,180551.09999999404,180551,,180550.79999999702,,180555.635,8,400,,,
sequence,flow.Sequence,4_11,2023-09-08T18:46:12.125Z,,0,,,3162.7550000000047,completion,,,,,false,,,,180551.19999999553,180551,177371.572,177373.79999999702,177388.245,180555.635,8,400,,,
trial,html.Screen,4_12_0,2023-09-08T18:46:15.136Z,,0,1,,3005.96499999403,response,ISIC_5879789.JPG,4,ISIC_0071043.JPG,ISIC_0071043.JPG,false,0,keypress(z),500,183562,183561.59999999404,180538.962,180551.29999999702,180555.635,183573.185,8,400,13,,ISIC_5879789.JPG
break,html.Screen,4_12_1,2023-09-08T18:46:15.137Z,,0,,,NaN,,,,,,false,,,,183563.5,183563.09999999404,,183562.29999999702,,183573.185,8,400,,,
break_continue,html.Screen,4_12_2,2023-09-08T18:46:15.138Z,,0,,,NaN,,,,,,false,,,,183564.29999999702,183564.09999999404,,183563.69999999553,,183573.185,8,400,,,
sequence,flow.Sequence,4_12,2023-09-08T18:46:15.139Z,,0,,,3008.46499999403,completion,,,,,false,,,,183564.59999999404,183564.09999999404,180538.962,180551.29999999702,180555.635,183573.185,8,400,,,
trial,html.Screen,4_13_0,2023-09-08T18:46:18.662Z,,0,1,,3514.114999997022,response,ISIC_2396791.JPG,5,ISIC_0027935.JPG,ISIC_2396791.JPG,false,1,keypress(m),500,187087.69999999553,187087.29999999702,183556.512,183564.79999999702,183573.185,187090.841,8,400,14,,ISIC_0027935.JPG
break,html.Screen,4_13_1,2023-09-08T18:46:18.663Z,,0,,,NaN,,,,,,false,,,,187089.19999999553,187088.79999999702,,187088,,187090.841,8,400,,,
break_continue,html.Screen,4_13_2,2023-09-08T18:46:18.664Z,,0,,,NaN,,,,,,false,,,,187089.8999999985,187089.69999999553,,187089.3999999985,,187090.841,8,400,,,
sequence,flow.Sequence,4_13,2023-09-08T18:46:18.664Z,,0,,,3516.514999995532,completion,,,,,false,,,,187090.09999999404,187089.69999999553,183556.512,183564.79999999702,183573.185,187090.841,8,400,,,
trial,html.Screen,4_14_0,2023-09-08T18:46:22.379Z,,0,1,,3714.159000000014,response,ISIC_0030623.JPG,4,ISIC_6458982.JPG,ISIC_6458982.JPG,false,0,keypress(z),500,190805.29999999702,190805,187074.168,187090.3999999985,187090.841,190808.631,8,400,15,,ISIC_0030623.JPG
break,html.Screen,4_14_1,2023-09-08T18:46:22.381Z,,0,,,NaN,,,,,,false,,,,190807.09999999404,190806.5,,190805.69999999553,,190808.631,8,400,,,
break_continue,html.Screen,4_14_2,2023-09-08T18:46:22.382Z,,0,,,NaN,,,,,,false,,,,190807.8999999985,190807.69999999553,,190807.29999999702,,190808.631,8,400,,,
sequence,flow.Sequence,4_14,2023-09-08T18:46:22.382Z,,0,,,3716.858999995544,completion,,,,,false,,,,190808.19999999553,190807.69999999553,187074.168,187090.3999999985,187090.841,190808.631,8,400,,,
trial,html.Screen,4_15_0,2023-09-08T18:46:26.225Z,,0,1,,3842.0689999955357,response,ISIC_0561634.JPG,6,ISIC_1014075.JPG,ISIC_1014075.JPG,false,0,keypress(z),500,194650.69999999553,194650.69999999553,190791.958,190808.3999999985,190808.631,194659.34,8,400,16,,ISIC_0561634.JPG
break,html.Screen,4_15_1,2023-09-08T18:46:26.225Z,,0,,,NaN,,,,,,false,,,,194651.3999999985,194651.19999999553,,194650.8999999985,,194659.34,8,400,,,
break_continue,html.Screen,4_15_2,2023-09-08T18:46:26.226Z,,0,,,NaN,,,,,,false,,,,194651.79999999702,194651.79999999702,,194651.59999999404,,194659.34,8,400,,,
sequence,flow.Sequence,4_15,2023-09-08T18:46:26.226Z,,0,,,3843.168999997026,completion,,,,,false,,,,194651.8999999985,194651.79999999702,190791.958,190808.3999999985,190808.631,194659.34,8,400,,,
trial,html.Screen,4_16_0,2023-09-08T18:46:29.815Z,,0,1,,3581.259999994043,response,ISIC_0011198.JPG,6,ISIC_0009908.JPG,ISIC_0009908.JPG,false,0,keypress(z),500,198240.69999999553,198240.59999999404,194642.606,194652,194659.34,198243.66,8,400,17,,ISIC_0011198.JPG
break,html.Screen,4_16_1,2023-09-08T18:46:29.816Z,,0,,,NaN,,,,,,false,,,,198241.29999999702,198241.19999999553,,198240.79999999702,,198243.66,8,400,,,
break_continue,html.Screen,4_16_2,2023-09-08T18:46:29.816Z,,0,,,NaN,,,,,,false,,,,198241.69999999553,198241.59999999404,,198241.3999999985,,198243.66,8,400,,,
sequence,flow.Sequence,4_16,2023-09-08T18:46:29.816Z,,0,,,3582.259999994043,completion,,,,,false,,,,198241.79999999702,198241.59999999404,194642.606,194652,194659.34,198243.66,8,400,,,
trial,html.Screen,4_17_0,2023-09-08T18:46:33.825Z,,0,1,,4006.7399999985064,response,ISIC_3031937.JPG,5,ISIC_5738369.JPG,ISIC_3031937.JPG,false,1,keypress(m),500,202250.59999999404,202250.3999999985,198226.987,198241.79999999702,198243.66,202261.56,8,400,18,,ISIC_5738369.JPG
break,html.Screen,4_17_1,2023-09-08T18:46:33.826Z,,0,,,NaN,,,,,,false,,,,202251.29999999702,202251.09999999404,,202250.69999999553,,202261.56,8,400,,,
break_continue,html.Screen,4_17_2,2023-09-08T18:46:33.826Z,,0,,,NaN,,,,,,false,,,,202251.59999999404,202251.5,,202251.29999999702,,202261.56,8,400,,,
sequence,flow.Sequence,4_17,2023-09-08T18:46:33.827Z,,0,,,4007.8399999999965,completion,,,,,false,,,,202251.69999999553,202251.5,198226.987,198241.79999999702,198243.66,202261.56,8,400,,,
trial,html.Screen,4_18_0,2023-09-08T18:46:37.447Z,,0,1,,3610.739999997022,response,ISIC_9384835.JPG,5,ISIC_0064072.JPG,ISIC_0064072.JPG,false,0,keypress(z),500,205872.69999999553,205872.29999999702,202244.887,202251.79999999702,202261.56,205879.201,8,400,19,,ISIC_9384835.JPG
break,html.Screen,4_18_1,2023-09-08T18:46:37.449Z,,0,,,NaN,,,,,,false,,,,205874.5,205873.8999999985,,205873.19999999553,,205879.201,8,400,,,
break_continue,html.Screen,4_18_2,2023-09-08T18:46:37.450Z,,0,,,NaN,,,,,,false,,,,205875.3999999985,205875.19999999553,,205874.69999999553,,205879.201,8,400,,,
sequence,flow.Sequence,4_18,2023-09-08T18:46:37.451Z,,0,,,3613.639999995532,completion,,,,,false,,,,205875.8999999985,205875.19999999553,202244.887,202251.79999999702,202261.56,205879.201,8,400,,,
trial,html.Screen,4_19_0,2023-09-08T18:46:41.262Z,,0,1,,3807.198999998509,response,ISIC_0000173.JPG,5,ISIC_0033545.JPG,ISIC_0000173.JPG,false,1,keypress(m),500,209686.79999999702,209686.3999999985,205862.528,205876.5,205879.201,209696.935,8,400,20,,ISIC_0033545.JPG
break,html.Screen,4_19_1,2023-09-08T18:46:41.263Z,,0,,,NaN,,,,,,false,,,,209688.5,209688,,209687.19999999553,,209696.935,8,400,,,
break_continue,html.Screen,4_19_2,2023-09-08T18:46:41.264Z,,0,,,NaN,,,,,,false,,,,209689.19999999553,209689,,209688.79999999702,,209696.935,8,400,,,
sequence,flow.Sequence,4_19,2023-09-08T18:46:41.264Z,,0,,,3809.798999999999,completion,,,,,false,,,,209689.5,209689,205862.528,205876.29999999702,205879.201,209696.935,8,400,,,
trial,html.Screen,4_20_0,2023-09-08T18:46:46.883Z,,0,1,,5610.664999994042,response,ISIC_8769415.JPG,4,ISIC_9072567.JPG,ISIC_9072567.JPG,false,0,keypress(z),500,215308,215307.59999999404,209680.262,209689.79999999702,209696.935,215315.224,8,400,21,,ISIC_8769415.JPG
break,html.Screen,4_20_1,2023-09-08T18:46:46.884Z,,0,,,NaN,,,,,,false,,,,215309.59999999404,215309.09999999404,,215308.29999999702,,215315.224,8,400,,,
break_continue,html.Screen,4_20_2,2023-09-08T18:46:46.885Z,,0,,,NaN,,,,,,false,,,,215310.29999999702,215310.09999999404,,215309.79999999702,,215315.224,8,400,,,
sequence,flow.Sequence,4_20,2023-09-08T18:46:46.885Z,,0,,,5613.164999994042,completion,,,,,false,,,,215310.59999999404,215310.09999999404,209680.262,209689.69999999553,209696.935,215315.224,8,400,,,
trial,html.Screen,4_21_0,2023-09-08T18:46:51.161Z,,0,1,,4270.276000000013,response,ISIC_0025217.JPG,4,ISIC_2804864.JPG,ISIC_0025217.JPG,false,1,keypress(m),500,219585.79999999702,219585.5,215298.551,215310.8999999985,215315.224,219616.275,8,400,22,,ISIC_2804864.JPG
break,html.Screen,4_21_1,2023-09-08T18:46:51.162Z,,0,,,NaN,,,,,,false,,,,219587.3999999985,219587,,219586.19999999553,,219616.275,8,400,,,
break_continue,html.Screen,4_21_2,2023-09-08T18:46:51.163Z,,0,,,NaN,,,,,,false,,,,219588.19999999553,219587.8999999985,,219587.59999999404,,219616.275,8,400,,,
sequence,flow.Sequence,4_21,2023-09-08T18:46:51.163Z,,0,,,4272.6759999985225,completion,,,,,false,,,,219588.5,219587.8999999985,215298.551,215310.79999999702,215315.224,219616.275,8,400,,,
trial,html.Screen,4_22_0,2023-09-08T18:46:55.471Z,,0,1,,4279.9249999955355,response,ISIC_7293518.JPG,5,ISIC_4620425.JPG,ISIC_7293518.JPG,false,1,keypress(m),500,223896.29999999702,223896.19999999553,219599.602,219588.69999999553,219616.275,223900.749,8,400,23,,ISIC_4620425.JPG
break,html.Screen,4_22_1,2023-09-08T18:46:55.472Z,,0,,,NaN,,,,,,false,,,,223896.79999999702,223896.69999999553,,223896.3999999985,,223900.749,8,400,,,
break_continue,html.Screen,4_22_2,2023-09-08T18:46:55.472Z,,0,,,NaN,,,,,,false,,,,223897,223897,,223896.8999999985,,223900.749,8,400,,,
sequence,flow.Sequence,4_22,2023-09-08T18:46:55.472Z,,0,,,4280.725000000006,completion,,,,,false,,,,223897.09999999404,223897,219599.602,219588.69999999553,219616.275,223900.749,8,400,,,
trial,html.Screen,4_23_0,2023-09-08T18:46:58.770Z,,0,1,,3294.150999998499,response,ISIC_0011463.JPG,5,ISIC_2214766.JPG,ISIC_0011463.JPG,false,1,keypress(m),500,227195,227194.8999999985,223884.076,223897.09999999404,223900.749,227201.506,8,400,24,,ISIC_2214766.JPG
break,html.Screen,4_23_1,2023-09-08T18:46:58.770Z,,0,,,NaN,,,,,,false,,,,227195.59999999404,227195.3999999985,,227195.09999999404,,227201.506,8,400,,,
break_continue,html.Screen,4_23_2,2023-09-08T18:46:58.771Z,,0,,,NaN,,,,,,false,,,,227195.8999999985,227195.8999999985,,227195.69999999553,,227201.506,8,400,,,
sequence,flow.Sequence,4_23,2023-09-08T18:46:58.771Z,,0,,,3295.150999998499,completion,,,,,false,,,,227196.09999999404,227195.8999999985,223884.076,223897.09999999404,223900.749,227201.506,8,400,,,
trial,html.Screen,4_24_0,2023-09-08T18:47:02.612Z,,0,1,,3835.393999998516,response,ISIC_7428248.JPG,5,ISIC_8578732.JPG,ISIC_8578732.JPG,false,0,keypress(z),500,231036.8999999985,231036.8999999985,227184.833,227196.09999999404,227201.506,231052.272,8,400,25,,ISIC_7428248.JPG
break,html.Screen,4_24_1,2023-09-08T18:47:02.612Z,,0,,,NaN,,,,,,false,,,,231037.5,231037.29999999702,,231037,,231052.272,8,400,,,
break_continue,html.Screen,4_24_2,2023-09-08T18:47:02.612Z,,0,,,NaN,,,,,,false,,,,231037.79999999702,231037.59999999404,,231037.5,,231052.272,8,400,,,
sequence,flow.Sequence,4_24,2023-09-08T18:47:02.613Z,,0,,,3836.0939999940456,completion,,,,,false,,,,231037.79999999702,231037.59999999404,227184.833,227196.09999999404,227201.506,231052.272,8,400,,,
trial,html.Screen,4_25_0,2023-09-08T18:47:07.815Z,,0,1,,5187.728000000003,response,ISIC_0313507.JPG,5,ISIC_0071257.JPG,ISIC_0071257.JPG,false,0,keypress(z),500,236240.09999999404,236240,231035.592,231037.8999999985,231052.272,236253.872,8,400,26,,ISIC_0313507.JPG
break,html.Screen,4_25_1,2023-09-08T18:47:07.815Z,,0,,,NaN,,,,,,false,,,,236240.5,236240.3999999985,,236240.19999999553,,236253.872,8,400,,,
break_continue,html.Screen,4_25_2,2023-09-08T18:47:07.816Z,,0,,,NaN,,,,,,false,,,,236240.79999999702,236240.69999999553,,236240.59999999404,,236253.872,8,400,,,
sequence,flow.Sequence,4_25,2023-09-08T18:47:07.816Z,,0,,,5188.427999995532,completion,,,,,false,,,,236240.8999999985,236240.69999999553,231035.592,231037.79999999702,231052.272,236253.872,8,400,,,
trial,html.Screen,4_26_0,2023-09-08T18:47:12.409Z,,0,1,,4580.2279999940365,response,ISIC_0027263.JPG,5,ISIC_7666224.JPG,ISIC_0027263.JPG,false,1,keypress(m),500,240834.3999999985,240834.09999999404,236237.199,236240.8999999985,236253.872,240838.512,8,400,27,,ISIC_7666224.JPG
break,html.Screen,4_26_1,2023-09-08T18:47:12.410Z,,0,,,NaN,,,,,,false,,,,240835.59999999404,240835,,240834.5,,240838.512,8,400,,,
break_continue,html.Screen,4_26_2,2023-09-08T18:47:12.411Z,,0,,,NaN,,,,,,false,,,,240836,240835.8999999985,,240835.79999999702,,240838.512,8,400,,,
sequence,flow.Sequence,4_26,2023-09-08T18:47:12.411Z,,0,,,4582.027999998507,completion,,,,,false,,,,240836.09999999404,240835.8999999985,236237.199,236240.8999999985,236253.872,240838.512,8,400,,,
trial,html.Screen,4_27_0,2023-09-08T18:47:16.563Z,,0,1,,4149.387999998522,response,ISIC_7681490.JPG,5,ISIC_0060308.JPG,ISIC_0060308.JPG,false,0,keypress(z),500,244988,244987.8999999985,240821.839,240836.09999999404,240838.512,244989.627,8,400,28,,ISIC_7681490.JPG
break,html.Screen,4_27_1,2023-09-08T18:47:16.563Z,,0,,,NaN,,,,,,false,,,,244988.5,244988.3999999985,,244988.09999999404,,244989.627,8,400,,,
break_continue,html.Screen,4_27_2,2023-09-08T18:47:16.563Z,,0,,,NaN,,,,,,false,,,,244988.79999999702,244988.59999999404,,244988.5,,244989.627,8,400,,,
sequence,flow.Sequence,4_27,2023-09-08T18:47:16.564Z,,0,,,4150.087999994052,completion,,,,,false,,,,244988.79999999702,244988.59999999404,240821.839,240836.09999999404,240838.512,244989.627,8,400,,,
trial,html.Screen,4_28_0,2023-09-08T18:47:20.523Z,,0,1,,3958.572999995522,response,ISIC_0062827.JPG,5,ISIC_1004416.JPG,ISIC_0062827.JPG,false,1,keypress(m),500,248948.29999999702,248948.19999999553,244972.954,244988.8999999985,244989.627,248957.263,8,400,29,,ISIC_1004416.JPG
break,html.Screen,4_28_1,2023-09-08T18:47:20.524Z,,0,,,NaN,,,,,,false,,,,248948.79999999702,248948.69999999553,,248948.3999999985,,248957.263,8,400,,,
break_continue,html.Screen,4_28_2,2023-09-08T18:47:20.524Z,,0,,,NaN,,,,,,false,,,,248949,248948.8999999985,,248948.79999999702,,248957.263,8,400,,,
sequence,flow.Sequence,4_28,2023-09-08T18:47:20.524Z,,0,,,3959.272999998502,completion,,,,,false,,,,248949,248948.8999999985,244972.954,244988.8999999985,244989.627,248957.263,8,400,,,
trial,html.Screen,4_29_0,2023-09-08T18:47:24.259Z,,0,1,,3726.8369999940332,response,ISIC_0015185.JPG,5,ISIC_0046647.JPG,ISIC_0015185.JPG,false,1,keypress(m),500,252684.5,252684.09999999404,248940.59,248949.19999999553,248957.263,252691.546,8,400,30,,ISIC_0046647.JPG
break,html.Screen,4_29_1,2023-09-08T18:47:24.261Z,,0,,,NaN,,,,,,false,,,,252686.19999999553,252685.69999999553,,252684.79999999702,,252691.546,8,400,,,
break_continue,html.Screen,4_29_2,2023-09-08T18:47:24.263Z,,0,,,NaN,,,,,,false,,,,252687.79999999702,252687.3999999985,,252686.69999999553,,252691.546,8,400,,,
sequence,flow.Sequence,4_29,2023-09-08T18:47:24.263Z,,0,,,3730.1369999985036,completion,,,,,false,,,,252688.19999999553,252687.3999999985,248940.59,248949.19999999553,248957.263,252691.546,8,400,,,
trial,html.Screen,4_30_0,2023-09-08T18:47:28.048Z,,0,1,,3780.953999999998,response,ISIC_7249063.JPG,5,ISIC_0702876.JPG,ISIC_7249063.JPG,false,1,keypress(m),500,256472.79999999702,256472.5,252674.873,252688.5,252691.546,256475.99,8,400,31,,ISIC_0702876.JPG
break,html.Screen,4_30_1,2023-09-08T18:47:28.049Z,,0,,,NaN,,,,,,false,,,,256474.5,256474,,256473.09999999404,,256475.99,8,400,,,
break_continue,html.Screen,4_30_2,2023-09-08T18:47:28.050Z,,0,,,NaN,,,,,,false,,,,256475.59999999404,256475.29999999702,,256474.79999999702,,256475.99,8,400,,,
sequence,flow.Sequence,4_30,2023-09-08T18:47:28.051Z,,0,,,3783.7539999970177,completion,,,,,false,,,,256475.8999999985,256475.29999999702,252674.873,252688.3999999985,252691.546,256475.99,8,400,,,
trial,html.Screen,4_31_0,2023-09-08T18:47:32.102Z,,0,1,,4050.309999997029,response,ISIC_0072473.JPG,6,ISIC_0026247.JPG,ISIC_0072473.JPG,false,1,keypress(m),500,260526.5,260526.29999999702,256459.317,256476.29999999702,256475.99,260527.118,8,400,32,,ISIC_0026247.JPG
break,html.Screen,4_31_1,2023-09-08T18:47:32.102Z,,0,,,NaN,,,,,,false,,,,260527.09999999404,260526.8999999985,,260526.59999999404,,260527.118,8,400,,,
break_continue,html.Screen,4_31_2,2023-09-08T18:47:32.102Z,,0,,,NaN,,,,,,false,,,,260527.3999999985,260527.29999999702,,260527.19999999553,,260527.118,8,400,,,
sequence,flow.Sequence,4_31,2023-09-08T18:47:32.103Z,,0,,,4051.309999997029,completion,,,,,false,,,,260527.5,260527.29999999702,256459.317,256476.09999999404,256475.99,260527.118,8,400,,,
trial,html.Screen,4_32_0,2023-09-08T18:47:35.770Z,,0,1,,3667.081999995542,response,ISIC_0438136.JPG,5,ISIC_8978290.JPG,ISIC_0438136.JPG,false,1,keypress(m),500,264194.5,264194.19999999553,260510.445,260527.5,260527.118,264211.354,8,400,33,,ISIC_8978290.JPG
break,html.Screen,4_32_1,2023-09-08T18:47:35.771Z,,0,,,NaN,,,,,,false,,,,264195.799999997,264195.5,,264194.799999997,,264211.354,8,400,,,
break_continue,html.Screen,4_32_2,2023-09-08T18:47:35.772Z,,0,,,NaN,,,,,,false,,,,264196.59999999404,264196.3999999985,,264196.09999999404,,264211.354,8,400,,,
sequence,flow.Sequence,4_32,2023-09-08T18:47:35.772Z,,0,,,3669.281999998522,completion,,,,,false,,,,264196.8999999985,264196.3999999985,260510.445,260527.5,260527.118,264211.354,8,400,,,
trial,html.Screen,4_33_0,2023-09-08T18:47:39.295Z,,0,1,,3508.045999998518,response,ISIC_0057997.JPG,5,ISIC_0071892.JPG,ISIC_0071892.JPG,false,0,keypress(z),500,267719.799999997,267719.3999999985,264194.62,264197.19999999553,264211.354,267728.963,8,400,34,,ISIC_0057997.JPG
break,html.Screen,4_33_1,2023-09-08T18:47:39.296Z,,0,,,NaN,,,,,,false,,,,267721.299999997,267720.8999999985,,267720.09999999404,,267728.963,8,400,,,
break_continue,html.Screen,4_33_2,2023-09-08T18:47:39.297Z,,0,,,NaN,,,,,,false,,,,267722.09999999404,267721.8999999985,,267721.5,,267728.963,8,400,,,
sequence,flow.Sequence,4_33,2023-09-08T18:47:39.297Z,,0,,,3510.545999998518,completion,,,,,false,,,,267722.5,267721.8999999985,264194.62,264197.09999999404,264211.354,267728.963,8,400,,,
trial,html.Screen,4_34_0,2023-09-08T18:47:42.772Z,,0,1,,3467.736999995541,response,ISIC_0061334.JPG,4,ISIC_0034265.JPG,ISIC_0061334.JPG,false,1,keypress(m),500,271197.09999999404,271196.69999999553,267712.29,267722.69999999553,267728.963,271213.243,8,400,35,,ISIC_0034265.JPG
break,html.Screen,4_34_1,2023-09-08T18:47:42.774Z,,0,,,NaN,,,,,,false,,,,271198.5,271198.09999999404,,271197.299999997,,271213.243,8,400,,,
break_continue,html.Screen,4_34_2,2023-09-08T18:47:42.774Z,,0,,,NaN,,,,,,false,,,,271199.3999999985,271199.09999999404,,271198.69999999553,,271213.243,8,400,,,
sequence,flow.Sequence,4_34,2023-09-08T18:47:42.775Z,,0,,,3470.1369999940507,completion,,,,,false,,,,271199.59999999404,271199.09999999404,267712.29,267722.59999999404,267728.963,271213.243,8,400,,,
trial,html.Screen,4_35_0,2023-09-08T18:47:48.857Z,,0,1,,6068.656999998493,response,ISIC_6741865.JPG,5,ISIC_9566964.JPG,ISIC_9566964.JPG,false,0,keypress(z),500,277282.299999997,277281.8999999985,271196.57,271199.8999999985,271213.243,277298.583,8,400,36,,ISIC_6741865.JPG
break,html.Screen,4_35_1,2023-09-08T18:47:48.859Z,,0,,,NaN,,,,,,false,,,,277283.8999999985,277283.59999999404,,277282.59999999404,,277298.583,8,400,,,
break_continue,html.Screen,4_35_2,2023-09-08T18:47:48.860Z,,0,,,NaN,,,,,,false,,,,277284.799999997,277284.5,,277284.09999999404,,277298.583,8,400,,,
sequence,flow.Sequence,4_35,2023-09-08T18:47:48.860Z,,0,,,6071.256999999983,completion,,,,,false,,,,277285,277284.5,271196.57,271199.799999997,271213.243,277298.583,8,400,,,
trial,html.Screen,4_36_0,2023-09-08T18:47:54.208Z,,0,1,,5333.716999997036,response,ISIC_0001578.JPG,4,ISIC_0030974.JPG,ISIC_0001578.JPG,false,1,keypress(m),500,282632.59999999404,282632.299999997,277281.91,277285.299999997,277298.583,282649.81,8,400,37,,ISIC_0030974.JPG
break,html.Screen,4_36_1,2023-09-08T18:47:54.209Z,,0,,,NaN,,,,,,false,,,,282634.299999997,282633.69999999553,,282632.8999999985,,282649.81,8,400,,,
break_continue,html.Screen,4_36_2,2023-09-08T18:47:54.210Z,,0,,,NaN,,,,,,false,,,,282635.19999999553,282635,,282634.59999999404,,282649.81,8,400,,,
sequence,flow.Sequence,4_36,2023-09-08T18:47:54.211Z,,0,,,5336.417000000016,completion,,,,,false,,,,282635.59999999404,282635,277281.91,277285.299999997,277298.583,282649.81,8,400,,,
trial,html.Screen,4_37_0,2023-09-08T18:47:58.102Z,,0,1,,3876.389999995532,response,ISIC_7507286.JPG,5,ISIC_0027666.JPG,ISIC_7507286.JPG,false,1,keypress(m),500,286526.5,286526.19999999553,282633.137,282635.799999997,282649.81,286533.966,8,400,38,,ISIC_0027666.JPG
break,html.Screen,4_37_1,2023-09-08T18:47:58.103Z,,0,,,NaN,,,,,,false,,,,286527.59999999404,286527.299999997,,286526.799999997,,286533.966,8,400,,,
break_continue,html.Screen,4_37_2,2023-09-08T18:47:58.103Z,,0,,,NaN,,,,,,false,,,,286528.09999999404,286528,,286527.69999999553,,286533.966,8,400,,,
sequence,flow.Sequence,4_37,2023-09-08T18:47:58.103Z,,0,,,3878.1900000000023,completion,,,,,false,,,,286528.299999997,286528,282633.137,282635.69999999553,282649.81,286533.966,8,400,,,
trial,html.Screen,4_38_0,2023-09-08T18:48:01.870Z,,0,1,,3760.7339999955148,response,ISIC_0005572.JPG,5,ISIC_0071118.JPG,ISIC_0071118.JPG,false,0,keypress(z),500,290294.799999997,290294.69999999553,286517.293,286528.5,286533.966,290301.669,8,400,39,,ISIC_0005572.JPG
break,html.Screen,4_38_1,2023-09-08T18:48:01.871Z,,0,,,NaN,,,,,,false,,,,290295.5,290295.3999999985,,290295,,290301.669,8,400,,,
break_continue,html.Screen,4_38_2,2023-09-08T18:48:01.871Z,,0,,,NaN,,,,,,false,,,,290295.8999999985,290295.69999999553,,290295.59999999404,,290301.669,8,400,,,
sequence,flow.Sequence,4_38,2023-09-08T18:48:01.871Z,,0,,,3761.7339999955148,completion,,,,,false,,,,290295.8999999985,290295.69999999553,286517.293,286528.3999999985,286533.966,290301.669,8,400,,,
trial,html.Screen,4_39_0,2023-09-08T18:48:06.112Z,,0,1,,4235.331000000006,response,ISIC_7797655.JPG,5,ISIC_0027387.JPG,ISIC_7797655.JPG,false,1,keypress(m),500,294537.09999999404,294537,290284.996,290296,290301.669,294552.757,8,400,40,,ISIC_0027387.JPG
break,html.Screen,4_39_1,2023-09-08T18:48:06.113Z,,0,,,NaN,,,,,,false,,,,294537.69999999553,294537.5,,294537.299999997,,294552.757,8,400,,,
break_continue,html.Screen,4_39_2,2023-09-08T18:48:06.113Z,,0,,,NaN,,,,,,false,,,,294537.8999999985,294537.799999997,,294537.69999999553,,294552.757,8,400,,,
sequence,flow.Sequence,4_39,2023-09-08T18:48:06.113Z,,0,,,4236.130999997025,completion,,,,,false,,,,294537.8999999985,294537.799999997,290284.996,290296,290301.669,294552.757,8,400,,,
trial,html.Screen,4_40_0,2023-09-08T18:48:09.619Z,,0,1,,3491.0429999970365,response,ISIC_1043267.JPG,5,ISIC_0066935.JPG,ISIC_0066935.JPG,false,0,keypress(z),500,298044.19999999553,298043.799999997,294536.084,294538.09999999404,294552.757,298053.549,8,400,41,,ISIC_1043267.JPG
break,html.Screen,4_40_1,2023-09-08T18:48:09.621Z,,0,,,NaN,,,,,,false,,,,298045.69999999553,298045.19999999553,,298044.3999999985,,298053.549,8,400,,,
break_continue,html.Screen,4_40_2,2023-09-08T18:48:09.622Z,,0,,,NaN,,,,,,false,,,,298046.5,298046.299999997,,298045.8999999985,,298053.549,8,400,,,
sequence,flow.Sequence,4_40,2023-09-08T18:48:09.622Z,,0,,,3493.5429999970365,completion,,,,,false,,,,298046.799999997,298046.299999997,294536.084,294538,294552.757,298053.549,8,400,,,
trial,html.Screen,4_41_0,2023-09-08T18:48:12.568Z,,0,1,,2939.451000000001,response,ISIC_0055526.JPG,5,ISIC_0033320.JPG,ISIC_0055526.JPG,false,1,keypress(m),500,300993.19999999553,300993,298036.876,298047.09999999404,298053.549,301004.306,8,400,42,,ISIC_0033320.JPG
break,html.Screen,4_41_1,2023-09-08T18:48:12.569Z,,0,,,NaN,,,,,,false,,,,300994.299999997,300994,,300993.3999999985,,301004.306,8,400,,,
break_continue,html.Screen,4_41_2,2023-09-08T18:48:12.570Z,,0,,,NaN,,,,,,false,,,,300994.799999997,300994.69999999553,,300994.5,,301004.306,8,400,,,
sequence,flow.Sequence,4_41,2023-09-08T18:48:12.570Z,,0,,,2941.1509999955306,completion,,,,,false,,,,300995.09999999404,300994.69999999553,298036.876,298047,298053.549,301004.306,8,400,,,
trial,html.Screen,4_42_0,2023-09-08T18:48:16.797Z,,0,1,,4217.093999998528,response,ISIC_0033157.JPG,5,ISIC_0966527.JPG,ISIC_0966527.JPG,false,0,keypress(z),500,305221.69999999553,305221.3999999985,300987.626,300995.299999997,301004.306,305238.977,8,400,43,,ISIC_0033157.JPG
break,html.Screen,4_42_1,2023-09-08T18:48:16.798Z,,0,,,NaN,,,,,,false,,,,305223.299999997,305222.799999997,,305222.09999999404,,305238.977,8,400,,,
break_continue,html.Screen,4_42_2,2023-09-08T18:48:16.799Z,,0,,,NaN,,,,,,false,,,,305224.09999999404,305223.799999997,,305223.3999999985,,305238.977,8,400,,,
sequence,flow.Sequence,4_42,2023-09-08T18:48:16.799Z,,0,,,4219.4939999970375,completion,,,,,false,,,,305224.3999999985,305223.799999997,300987.626,300995.299999997,301004.306,305238.977,8,400,,,
trial,html.Screen,4_43_0,2023-09-08T18:48:20.787Z,,0,1,,3972.4229999984964,response,ISIC_6483504.JPG,5,ISIC_0030751.JPG,ISIC_0030751.JPG,false,0,keypress(z),500,309211.69999999553,309211.3999999985,305222.304,305224.5,305238.977,309223.267,8,400,44,,ISIC_6483504.JPG
break,html.Screen,4_43_1,2023-09-08T18:48:20.788Z,,0,,,NaN,,,,,,false,,,,309213.19999999553,309212.799999997,,309212,,309223.267,8,400,,,
break_continue,html.Screen,4_43_2,2023-09-08T18:48:20.789Z,,0,,,NaN,,,,,,false,,,,309213.8999999985,309213.799999997,,309213.3999999985,,309223.267,8,400,,,
sequence,flow.Sequence,4_43,2023-09-08T18:48:20.789Z,,0,,,3974.8229999970063,completion,,,,,false,,,,309214.299999997,309213.799999997,305222.304,305224.5,305238.977,309223.267,8,400,,,
trial,html.Screen,4_44_0,2023-09-08T18:48:24.201Z,,0,1,,3402.432999995537,response,ISIC_2967024.JPG,4,ISIC_4715386.JPG,ISIC_2967024.JPG,false,1,keypress(m),500,312626,312625.69999999553,309206.594,309214.5,309223.267,312640.841,8,400,45,,ISIC_4715386.JPG
break,html.Screen,4_44_1,2023-09-08T18:48:24.203Z,,0,,,NaN,,,,,,false,,,,312627.59999999404,312627.09999999404,,312626.299999997,,312640.841,8,400,,,
break_continue,html.Screen,4_44_2,2023-09-08T18:48:24.203Z,,0,,,NaN,,,,,,false,,,,312628.299999997,312628.09999999404,,312627.799999997,,312640.841,8,400,,,
sequence,flow.Sequence,4_44,2023-09-08T18:48:24.204Z,,0,,,3404.832999994047,completion,,,,,false,,,,312628.69999999553,312628.09999999404,309206.594,309214.5,309223.267,312640.841,8,400,,,
trial,html.Screen,4_45_0,2023-09-08T18:48:27.187Z,,0,1,,2970.458999997005,response,ISIC_0046323.JPG,4,ISIC_0026043.JPG,ISIC_0026043.JPG,false,0,keypress(z),500,315611.69999999553,315611.299999997,312624.168,312628.799999997,312640.841,315624.883,8,400,46,,ISIC_0046323.JPG
break,html.Screen,4_45_1,2023-09-08T18:48:27.188Z,,0,,,NaN,,,,,,false,,,,315613.19999999553,315612.799999997,,315612.09999999404,,315624.883,8,400,,,
break_continue,html.Screen,4_45_2,2023-09-08T18:48:27.189Z,,0,,,NaN,,,,,,false,,,,315614,315613.799999997,,315613.5,,315624.883,8,400,,,
sequence,flow.Sequence,4_45,2023-09-08T18:48:27.189Z,,0,,,2972.958999997005,completion,,,,,false,,,,315614.3999999985,315613.799999997,312624.168,312628.799999997,312640.841,315624.883,8,400,,,
trial,html.Screen,4_46_0,2023-09-08T18:48:30.487Z,,0,1,,3287.1170000000275,response,ISIC_0057199.JPG,5,ISIC_5220698.JPG,ISIC_0057199.JPG,false,1,keypress(m),500,318912.09999999404,318912,315608.199,315614.59999999404,315624.883,318925.938,8,400,47,,ISIC_5220698.JPG
break,html.Screen,4_46_1,2023-09-08T18:48:30.488Z,,0,,,NaN,,,,,,false,,,,318912.59999999404,318912.5,,318912.19999999553,,318925.938,8,400,,,
break_continue,html.Screen,4_46_2,2023-09-08T18:48:30.488Z,,0,,,NaN,,,,,,false,,,,318913.09999999404,318912.8999999985,,318912.69999999553,,318925.938,8,400,,,
sequence,flow.Sequence,4_46,2023-09-08T18:48:30.489Z,,0,,,3288.0169999985374,completion,,,,,false,,,,318913.19999999553,318912.8999999985,315608.199,315614.59999999404,315624.883,318925.938,8,400,,,
trial,html.Screen,4_47_0,2023-09-08T18:48:34.095Z,,0,1,,3593.261999995506,response,ISIC_0000444.JPG,6,ISIC_5403296.JPG,ISIC_5403296.JPG,false,0,keypress(z),500,322519.299999997,322519.19999999553,318909.265,318913.299999997,318925.938,322543.565,8,400,48,,ISIC_0000444.JPG
break,html.Screen,4_47_1,2023-09-08T18:48:34.095Z,,0,,,NaN,,,,,,false,,,,322519.8999999985,322519.69999999553,,322519.3999999985,,322543.565,8,400,,,
break_continue,html.Screen,4_47_2,2023-09-08T18:48:34.095Z,,0,,,NaN,,,,,,false,,,,322520.19999999553,322520,,322520,,322543.565,8,400,,,
sequence,flow.Sequence,4_47,2023-09-08T18:48:34.096Z,,0,,,3594.0619999999763,completion,,,,,false,,,,322520.299999997,322520,318909.265,318913.299999997,318925.938,322543.565,8,400,,,
trial,html.Screen,4_48_0,2023-09-08T18:48:37.122Z,,0,1,,3002.7349999970174,response,ISIC_0026008.JPG,5,ISIC_2426937.JPG,ISIC_0026008.JPG,false,1,keypress(m),500,325546.799999997,325546.299999997,322526.892,322520.299999997,322543.565,325577.707,8,400,49,,ISIC_2426937.JPG
break,html.Screen,4_48_1,2023-09-08T18:48:37.124Z,,0,,,NaN,,,,,,false,,,,325548.3999999985,325547.8999999985,,325547.19999999553,,325577.707,8,400,,,
break_continue,html.Screen,4_48_2,2023-09-08T18:48:37.125Z,,0,,,NaN,,,,,,false,,,,325549.299999997,325549.09999999404,,325548.59999999404,,325577.707,8,400,,,
sequence,flow.Sequence,4_48,2023-09-08T18:48:37.125Z,,0,,,3005.534999994037,completion,,,,,false,,,,325549.5,325549.09999999404,322526.892,322520.299999997,322543.565,325577.707,8,400,,,
trial,html.Screen,4_49_0,2023-09-08T18:48:40.551Z,,0,1,,3397.992999995535,response,ISIC_0063845.JPG,4,ISIC_0034042.JPG,ISIC_0063845.JPG,false,1,keypress(m),500,328975.799999997,328975.69999999553,325561.034,325549.69999999553,325577.707,328978.574,8,400,50,,ISIC_0034042.JPG
break,html.Screen,4_49_1,2023-09-08T18:48:50.541Z,,0,,,10002.462999999989,timeout,,,,,false,,,,338965.299999997,338964.364,328961.901,328975.8999999985,328978.574,338981.037,8,400,,,
break_continue,html.Screen,4_49_2,2023-09-08T18:48:52.354Z,,0,,,1786.2629999970086,response,,,,,false,continue,keypress(Space),,340778.799999997,340767.299999997,338964.364,338965.59999999404,338981.037,340781.63,8,400,,,
sequence,flow.Sequence,4_49,2023-09-08T18:48:52.354Z,,0,,,15189.592999997025,completion,,,,,false,,,,340779,340767.299999997,325561.034,325549.59999999404,325577.707,340781.63,8,400,,,
trial,html.Screen,4_50_0,2023-09-08T18:48:55.691Z,,0,2,,3333.569999995525,response,ISIC_8478591.JPG,5,ISIC_1640823.JPG,ISIC_8478591.JPG,false,1,keypress(m),500,344115.299999997,344115.19999999553,340764.957,340779,340781.63,344115.888,8,400,1,,ISIC_1640823.JPG
break,html.Screen,4_50_1,2023-09-08T18:48:55.691Z,,0,,,NaN,,,,,,false,,,,344115.799999997,344115.69999999553,,344115.3999999985,,344115.888,8,400,,,
break_continue,html.Screen,4_50_2,2023-09-08T18:48:55.691Z,,0,,,NaN,,,,,,false,,,,344115.8999999985,344115.8999999985,,344115.799999997,,344115.888,8,400,,,
sequence,flow.Sequence,4_50,2023-09-08T18:48:55.691Z,,0,,,3334.269999998505,completion,,,,,false,,,,344116.09999999404,344115.8999999985,340764.957,340779,340781.63,344115.888,8,400,,,
trial,html.Screen,4_51_0,2023-09-08T18:48:58.676Z,,0,2,,2984.612000000023,response,ISIC_9301346.JPG,5,ISIC_0758797.JPG,ISIC_0758797.JPG,false,0,keypress(z),500,347100.69999999553,347100.5,344099.215,344116.09999999404,344115.888,347116.675,8,400,2,,ISIC_9301346.JPG
break,html.Screen,4_51_1,2023-09-08T18:48:58.677Z,,0,,,NaN,,,,,,false,,,,347101.5,347101.19999999553,,347100.799999997,,347116.675,8,400,,,
break_continue,html.Screen,4_51_2,2023-09-08T18:48:58.677Z,,0,,,NaN,,,,,,false,,,,347101.799999997,347101.69999999553,,347101.5,,347116.675,8,400,,,
sequence,flow.Sequence,4_51,2023-09-08T18:48:58.678Z,,0,,,2985.8119999955525,completion,,,,,false,,,,347102.5,347101.69999999553,344099.215,344116.09999999404,344115.888,347116.675,8,400,,,
trial,html.Screen,4_52_0,2023-09-08T18:49:02.286Z,,0,2,,3593.7249999985215,response,ISIC_3256116.JPG,6,ISIC_0028781.JPG,ISIC_3256116.JPG,false,1,keypress(m),500,350710.799999997,350710.3999999985,347100.002,347102.69999999553,347116.675,350717.717,8,400,3,,ISIC_0028781.JPG
break,html.Screen,4_52_1,2023-09-08T18:49:02.288Z,,0,,,NaN,,,,,,false,,,,350712.69999999553,350712.19999999553,,350711.19999999553,,350717.717,8,400,,,
break_continue,html.Screen,4_52_2,2023-09-08T18:49:02.289Z,,0,,,NaN,,,,,,false,,,,350713.69999999553,350713.3999999985,,350713,,350717.717,8,400,,,
sequence,flow.Sequence,4_52,2023-09-08T18:49:02.289Z,,0,,,3596.7249999985215,completion,,,,,false,,,,350714.19999999553,350713.3999999985,347100.002,347102.69999999553,347116.675,350717.717,8,400,,,
trial,html.Screen,4_53_0,2023-09-08T18:49:06.950Z,,0,2,,4656.382999994035,response,ISIC_1945381.JPG,4,ISIC_0010981.JPG,ISIC_0010981.JPG,false,0,keypress(z),500,355374.5,355374.09999999404,350701.044,350714.5,350717.717,355385.699,8,400,4,,ISIC_1945381.JPG
break,html.Screen,4_53_1,2023-09-08T18:49:06.951Z,,0,,,NaN,,,,,,false,,,,355375.799999997,355375.5,,355374.8999999985,,355385.699,8,400,,,
break_continue,html.Screen,4_53_2,2023-09-08T18:49:06.952Z,,0,,,NaN,,,,,,false,,,,355376.3999999985,355376.19999999553,,355375.8999999985,,355385.699,8,400,,,
sequence,flow.Sequence,4_53,2023-09-08T18:49:06.952Z,,0,,,4658.4829999955255,completion,,,,,false,,,,355376.59999999404,355376.19999999553,350701.044,350714.3999999985,350717.717,355385.699,8,400,,,
trial,html.Screen,4_54_0,2023-09-08T18:49:10.459Z,,0,2,,3497.7009999984875,response,ISIC_4764568.JPG,5,ISIC_0071458.JPG,ISIC_4764568.JPG,false,1,keypress(m),500,358883.59999999404,358883.3999999985,355369.026,355376.69999999553,355385.699,358886.653,8,400,5,,ISIC_0071458.JPG
break,html.Screen,4_54_1,2023-09-08T18:49:10.460Z,,0,,,NaN,,,,,,false,,,,358884.3999999985,358884.09999999404,,358883.799999997,,358886.653,8,400,,,
break_continue,html.Screen,4_54_2,2023-09-08T18:49:10.460Z,,0,,,NaN,,,,,,false,,,,358884.69999999553,358884.59999999404,,358884.3999999985,,358886.653,8,400,,,
sequence,flow.Sequence,4_54,2023-09-08T18:49:10.460Z,,0,,,3498.900999994017,completion,,,,,false,,,,358884.799999997,358884.59999999404,355369.026,355376.69999999553,355385.699,358886.653,8,400,,,
trial,html.Screen,4_55_0,2023-09-08T18:49:13.198Z,,0,2,,2735.6469999970286,response,ISIC_2829088.JPG,5,ISIC_0058666.JPG,ISIC_0058666.JPG,false,0,keypress(z),500,361622.69999999553,361622.299999997,358869.98,358884.799999997,358886.653,361637.203,8,400,6,,ISIC_2829088.JPG
break,html.Screen,4_55_1,2023-09-08T18:49:13.200Z,,0,,,NaN,,,,,,false,,,,361624.299999997,361623.799999997,,361623.09999999404,,361637.203,8,400,,,
break_continue,html.Screen,4_55_2,2023-09-08T18:49:13.201Z,,0,,,NaN,,,,,,false,,,,361625.299999997,361625.09999999404,,361624.59999999404,,361637.203,8,400,,,
sequence,flow.Sequence,4_55,2023-09-08T18:49:13.201Z,,0,,,2738.4469999940484,completion,,,,,false,,,,361625.59999999404,361625.09999999404,358869.98,358884.799999997,358886.653,361637.203,8,400,,,
trial,html.Screen,4_56_0,2023-09-08T18:49:16.715Z,,0,2,,3501.5969999970403,response,ISIC_0025500.JPG,5,ISIC_0463755.JPG,ISIC_0025500.JPG,false,1,keypress(m),500,365139.19999999553,365138.799999997,361620.53,361625.799999997,361637.203,365154.762,8,400,7,,ISIC_0463755.JPG
break,html.Screen,4_56_1,2023-09-08T18:49:16.716Z,,0,,,NaN,,,,,,false,,,,365140.799999997,365140.3999999985,,365139.59999999404,,365154.762,8,400,,,
break_continue,html.Screen,4_56_2,2023-09-08T18:49:16.717Z,,0,,,NaN,,,,,,false,,,,365141.69999999553,365141.5,,365141.09999999404,,365154.762,8,400,,,
sequence,flow.Sequence,4_56,2023-09-08T18:49:16.717Z,,0,,,3504.2970000000205,completion,,,,,false,,,,365142,365141.5,361620.53,361625.799999997,361637.203,365154.762,8,400,,,
trial,html.Screen,4_57_0,2023-09-08T18:49:20.096Z,,0,2,,3365.537999997032,response,ISIC_0293086.JPG,6,ISIC_0033204.JPG,ISIC_0033204.JPG,false,0,keypress(z),500,368520.3999999985,368520.299999997,365138.089,365142.299999997,365154.762,368522.332,8,400,8,,ISIC_0293086.JPG
break,html.Screen,4_57_1,2023-09-08T18:49:20.096Z,,0,,,NaN,,,,,,false,,,,368521,368520.799999997,,368520.5,,368522.332,8,400,,,
break_continue,html.Screen,4_57_2,2023-09-08T18:49:20.096Z,,0,,,NaN,,,,,,false,,,,368521.09999999404,368521.09999999404,,368521,,368522.332,8,400,,,
sequence,flow.Sequence,4_57,2023-09-08T18:49:20.097Z,,0,,,3366.3379999940516,completion,,,,,false,,,,368521.19999999553,368521.09999999404,365138.089,365142.299999997,365154.762,368522.332,8,400,,,
trial,html.Screen,4_58_0,2023-09-08T18:49:24.249Z,,0,2,,4150.867999995535,response,ISIC_0027971.JPG,6,ISIC_0029056.JPG,ISIC_0029056.JPG,false,0,keypress(z),500,372673.59999999404,372673.19999999553,368505.659,368521.19999999553,368522.332,372690.205,8,400,9,,ISIC_0027971.JPG
break,html.Screen,4_58_1,2023-09-08T18:49:24.250Z,,0,,,NaN,,,,,,false,,,,372675.19999999553,372674.69999999553,,372673.8999999985,,372690.205,8,400,,,
break_continue,html.Screen,4_58_2,2023-09-08T18:49:24.251Z,,0,,,NaN,,,,,,false,,,,372676.09999999404,372675.799999997,,372675.3999999985,,372690.205,8,400,,,
sequence,flow.Sequence,4_58,2023-09-08T18:49:24.252Z,,0,,,4153.467999997025,completion,,,,,false,,,,372676.3999999985,372675.799999997,368505.659,368521.19999999553,368522.332,372690.205,8,400,,,
trial,html.Screen,4_59_0,2023-09-08T18:49:28.431Z,,0,2,,4165.394999994023,response,ISIC_6435644.JPG,6,ISIC_0024236.JPG,ISIC_0024236.JPG,false,0,keypress(z),500,376855.799999997,376855.59999999404,372673.532,372676.69999999553,372690.205,376857.975,8,400,10,,ISIC_6435644.JPG
break,html.Screen,4_59_1,2023-09-08T18:49:28.432Z,,0,,,NaN,,,,,,false,,,,376856.19999999553,376856.09999999404,,376855.799999997,,376857.975,8,400,,,
break_continue,html.Screen,4_59_2,2023-09-08T18:49:28.432Z,,0,,,NaN,,,,,,false,,,,376856.3999999985,376856.3999999985,,376856.299999997,,376857.975,8,400,,,
sequence,flow.Sequence,4_59,2023-09-08T18:49:28.432Z,,0,,,4166.194999998494,completion,,,,,false,,,,376856.59999999404,376856.3999999985,372673.532,372676.59999999404,372690.205,376857.975,8,400,,,
trial,html.Screen,4_60_0,2023-09-08T18:49:32.019Z,,0,2,,3584.724999995553,response,ISIC_0011528.JPG,5,ISIC_8866651.JPG,ISIC_8866651.JPG,false,0,keypress(z),500,380442.8999999985,380442.69999999553,376841.302,376856.59999999404,376857.975,380458.948,8,400,11,,ISIC_0011528.JPG
break,html.Screen,4_60_1,2023-09-08T18:49:32.019Z,,0,,,NaN,,,,,,false,,,,380443.69999999553,380443.5,,380443.09999999404,,380458.948,8,400,,,
break_continue,html.Screen,4_60_2,2023-09-08T18:49:32.020Z,,0,,,NaN,,,,,,false,,,,380444.09999999404,380443.8999999985,,380443.799999997,,380458.948,8,400,,,
sequence,flow.Sequence,4_60,2023-09-08T18:49:32.020Z,,0,,,3585.924999998533,completion,,,,,false,,,,380444.09999999404,380443.8999999985,376841.302,376856.59999999404,376857.975,380458.948,8,400,,,
trial,html.Screen,4_61_0,2023-09-08T18:49:35.338Z,,0,2,,3302.851999997045,response,ISIC_8181142.JPG,5,ISIC_0008952.JPG,ISIC_8181142.JPG,false,1,keypress(m),500,383762.299999997,383761.799999997,380442.275,380444.299999997,380458.948,383776.592,8,400,12,,ISIC_0008952.JPG
break,html.Screen,4_61_1,2023-09-08T18:49:35.340Z,,0,,,NaN,,,,,,false,,,,383764.3999999985,383764,,383762.799999997,,383776.592,8,400,,,
break_continue,html.Screen,4_61_2,2023-09-08T18:49:35.341Z,,0,,,NaN,,,,,,false,,,,383765.3999999985,383765.09999999404,,383764.69999999553,,383776.592,8,400,,,
sequence,flow.Sequence,4_61,2023-09-08T18:49:35.341Z,,0,,,3306.1519999940647,completion,,,,,false,,,,383765.69999999553,383765.09999999404,380442.275,380444.19999999553,380458.948,383776.592,8,400,,,
trial,html.Screen,4_62_0,2023-09-08T18:49:39.208Z,,0,2,,3855.6079999955255,response,ISIC_8224270.JPG,5,ISIC_0070050.JPG,ISIC_0070050.JPG,false,0,keypress(z),500,387632.59999999404,387632.19999999553,383759.794,383766,383776.592,387644.272,8,400,13,,ISIC_8224270.JPG
break,html.Screen,4_62_1,2023-09-08T18:49:39.210Z,,0,,,NaN,,,,,,false,,,,387634.3999999985,387633.799999997,,387633,,387644.272,8,400,,,
break_continue,html.Screen,4_62_2,2023-09-08T18:49:39.211Z,,0,,,NaN,,,,,,false,,,,387635.299999997,387635,,387634.59999999404,,387644.272,8,400,,,
sequence,flow.Sequence,4_62,2023-09-08T18:49:39.211Z,,0,,,3858.407999999996,completion,,,,,false,,,,387635.69999999553,387635,383759.794,383765.8999999985,383776.592,387644.272,8,400,,,
trial,html.Screen,4_63_0,2023-09-08T18:49:43.426Z,,0,2,,4205.527999997023,response,ISIC_0071208.JPG,5,ISIC_0065714.JPG,ISIC_0071208.JPG,false,1,keypress(m),500,391850,391849.799999997,387627.599,387636,387644.272,391862.045,8,400,14,,ISIC_0065714.JPG
break,html.Screen,4_63_1,2023-09-08T18:49:43.427Z,,0,,,NaN,,,,,,false,,,,391851.09999999404,391850.799999997,,391850.19999999553,,391862.045,8,400,,,
break_continue,html.Screen,4_63_2,2023-09-08T18:49:43.427Z,,0,,,NaN,,,,,,false,,,,391851.59999999404,391851.5,,391851.19999999553,,391862.045,8,400,,,
sequence,flow.Sequence,4_63,2023-09-08T18:49:43.427Z,,0,,,4207.228000000003,completion,,,,,false,,,,391851.799999997,391851.5,387627.599,387635.8999999985,387644.272,391862.045,8,400,,,
trial,html.Screen,4_64_0,2023-09-08T18:49:46.716Z,,0,2,,3277.654999995546,response,ISIC_0010653.JPG,6,ISIC_1781273.JPG,ISIC_0010653.JPG,false,1,keypress(m),500,395140,395139.69999999553,391845.372,391852,391862.045,395145.998,8,400,15,,ISIC_1781273.JPG
break,html.Screen,4_64_1,2023-09-08T18:49:46.717Z,,0,,,NaN,,,,,,false,,,,395140.8999999985,395140.59999999404,,395140.19999999553,,395145.998,8,400,,,
break_continue,html.Screen,4_64_2,2023-09-08T18:49:46.717Z,,0,,,NaN,,,,,,false,,,,395141.3999999985,395141.299999997,,395141,,395145.998,8,400,,,
sequence,flow.Sequence,4_64,2023-09-08T18:49:46.717Z,,0,,,3279.254999997036,completion,,,,,false,,,,395141.5,395141.299999997,391845.372,391851.8999999985,391862.045,395145.998,8,400,,,
trial,html.Screen,4_65_0,2023-09-08T18:49:50.207Z,,0,2,,3485.7019999955082,response,ISIC_0055474.JPG,6,ISIC_0000801.JPG,ISIC_0055474.JPG,false,1,keypress(m),500,398631.799999997,398631.69999999553,395129.325,395141.69999999553,395145.998,398646.874,8,400,16,,ISIC_0000801.JPG
break,html.Screen,4_65_1,2023-09-08T18:49:50.208Z,,0,,,NaN,,,,,,false,,,,398632.5,398632.299999997,,398631.8999999985,,398646.874,8,400,,,
break_continue,html.Screen,4_65_2,2023-09-08T18:49:50.208Z,,0,,,NaN,,,,,,false,,,,398632.799999997,398632.59999999404,,398632.5,,398646.874,8,400,,,
sequence,flow.Sequence,4_65,2023-09-08T18:49:50.208Z,,0,,,3486.601999994018,completion,,,,,false,,,,398632.8999999985,398632.59999999404,395129.325,395141.59999999404,395145.998,398646.874,8,400,,,
trial,html.Screen,4_66_0,2023-09-08T18:49:53.897Z,,0,2,,3674.825999995519,response,ISIC_0028930.JPG,4,ISIC_0026344.JPG,ISIC_0028930.JPG,false,1,keypress(m),500,402321.799999997,402321.69999999553,398630.178,398632.8999999985,398646.874,402331.151,8,400,17,,ISIC_0026344.JPG
break,html.Screen,4_66_1,2023-09-08T18:49:53.898Z,,0,,,NaN,,,,,,false,,,,402322.299999997,402322.09999999404,,402321.8999999985,,402331.151,8,400,,,
break_continue,html.Screen,4_66_2,2023-09-08T18:49:53.898Z,,0,,,NaN,,,,,,false,,,,402322.5,402322.5,,402322.299999997,,402331.151,8,400,,,
sequence,flow.Sequence,4_66,2023-09-08T18:49:53.898Z,,0,,,3675.6259999999893,completion,,,,,false,,,,402322.59999999404,402322.5,398630.178,398632.8999999985,398646.874,402331.151,8,400,,,
trial,html.Screen,4_67_0,2023-09-08T18:49:57.828Z,,0,2,,3920.7489999984973,response,ISIC_5405889.JPG,5,ISIC_0655635.JPG,ISIC_0655635.JPG,false,0,keypress(z),500,406252,406251.8999999985,402314.478,402322.59999999404,402331.151,406265.838,8,400,18,,ISIC_5405889.JPG
break,html.Screen,4_67_1,2023-09-08T18:49:57.828Z,,0,,,NaN,,,,,,false,,,,406252.5,406252.3999999985,,406252.09999999404,,406265.838,8,400,,,
break_continue,html.Screen,4_67_2,2023-09-08T18:49:57.828Z,,0,,,NaN,,,,,,false,,,,406252.69999999553,406252.59999999404,,406252.5,,406265.838,8,400,,,
sequence,flow.Sequence,4_67,2023-09-08T18:49:57.828Z,,0,,,3921.448999994027,completion,,,,,false,,,,406252.799999997,406252.59999999404,402314.478,402322.59999999404,402331.151,406265.838,8,400,,,
trial,html.Screen,4_68_0,2023-09-08T18:50:00.998Z,,0,2,,3156.2619999940507,response,ISIC_7833178.JPG,5,ISIC_0032918.JPG,ISIC_0032918.JPG,false,0,keypress(z),500,409422.5,409422.09999999404,406249.165,406252.8999999985,406265.838,409433.419,8,400,19,,ISIC_7833178.JPG
break,html.Screen,4_68_1,2023-09-08T18:50:01.000Z,,0,,,NaN,,,,,,false,,,,409424.299999997,409423.69999999553,,409422.8999999985,,409433.419,8,400,,,
break_continue,html.Screen,4_68_2,2023-09-08T18:50:01.001Z,,0,,,NaN,,,,,,false,,,,409425.19999999553,409424.8999999985,,409424.5,,409433.419,8,400,,,
sequence,flow.Sequence,4_68,2023-09-08T18:50:01.001Z,,0,,,3159.061999998521,completion,,,,,false,,,,409425.5,409424.8999999985,406249.165,406252.8999999985,406265.838,409433.419,8,400,,,
trial,html.Screen,4_69_0,2023-09-08T18:50:04.908Z,,0,2,,3899.3809999970254,response,ISIC_0071735.JPG,5,ISIC_0025491.JPG,ISIC_0025491.JPG,false,0,keypress(z),500,413332.799999997,413332.799999997,409416.746,409425.799999997,409433.419,413334.334,8,400,20,,ISIC_0071735.JPG
break,html.Screen,4_69_1,2023-09-08T18:50:04.909Z,,0,,,NaN,,,,,,false,,,,413333.5,413333.299999997,,413333,,413334.334,8,400,,,
break_continue,html.Screen,4_69_2,2023-09-08T18:50:04.909Z,,0,,,NaN,,,,,,false,,,,413333.69999999553,413333.59999999404,,413333.5,,413334.334,8,400,,,
sequence,flow.Sequence,4_69,2023-09-08T18:50:04.909Z,,0,,,3900.180999994045,completion,,,,,false,,,,413333.799999997,413333.59999999404,409416.746,409425.799999997,409433.419,413334.334,8,400,,,
trial,html.Screen,4_70_0,2023-09-08T18:50:08.239Z,,0,2,,3328.6660000000265,response,ISIC_0028984.JPG,4,ISIC_3288342.JPG,ISIC_0028984.JPG,false,1,keypress(m),500,416663.09999999404,416663,413317.661,413333.799999997,413334.334,416668.532,8,400,21,,ISIC_3288342.JPG
break,html.Screen,4_70_1,2023-09-08T18:50:08.240Z,,0,,,NaN,,,,,,false,,,,416663.8999999985,416663.69999999553,,416663.3999999985,,416668.532,8,400,,,
break_continue,html.Screen,4_70_2,2023-09-08T18:50:08.240Z,,0,,,NaN,,,,,,false,,,,416664.3999999985,416664.299999997,,416664,,416668.532,8,400,,,
sequence,flow.Sequence,4_70,2023-09-08T18:50:08.240Z,,0,,,3329.9659999970463,completion,,,,,false,,,,416664.5,416664.299999997,413317.661,413333.799999997,413334.334,416668.532,8,400,,,
trial,html.Screen,4_71_0,2023-09-08T18:50:12.418Z,,0,2,,4173.867999998503,response,ISIC_4659355.JPG,4,ISIC_6993129.JPG,ISIC_4659355.JPG,false,1,keypress(m),500,420842.799999997,420842.3999999985,416651.859,416664.59999999404,416668.532,420853.065,8,400,22,,ISIC_6993129.JPG
break,html.Screen,4_71_1,2023-09-08T18:50:12.420Z,,0,,,NaN,,,,,,false,,,,420844.5,420844.09999999404,,420843.19999999553,,420853.065,8,400,,,
break_continue,html.Screen,4_71_2,2023-09-08T18:50:12.421Z,,0,,,NaN,,,,,,false,,,,420845.3999999985,420845.09999999404,,420844.799999997,,420853.065,8,400,,,
sequence,flow.Sequence,4_71,2023-09-08T18:50:12.421Z,,0,,,4176.567999994033,completion,,,,,false,,,,420845.69999999553,420845.09999999404,416651.859,416664.5,416668.532,420853.065,8,400,,,
trial,html.Screen,4_72_0,2023-09-08T18:50:15.608Z,,0,2,,3178.9349999999977,response,ISIC_0067077.JPG,6,ISIC_2519121.JPG,ISIC_0067077.JPG,false,1,keypress(m),500,424032.299999997,424032,420836.392,420845.799999997,420853.065,424037.105,8,400,23,,ISIC_2519121.JPG
break,html.Screen,4_72_1,2023-09-08T18:50:15.609Z,,0,,,NaN,,,,,,false,,,,424033.799999997,424033.299999997,,424032.59999999404,,424037.105,8,400,,,
break_continue,html.Screen,4_72_2,2023-09-08T18:50:15.610Z,,0,,,NaN,,,,,,false,,,,424034.5,424034.299999997,,424034,,424037.105,8,400,,,
sequence,flow.Sequence,4_72,2023-09-08T18:50:15.610Z,,0,,,3181.2349999970174,completion,,,,,false,,,,424034.799999997,424034.299999997,420836.392,420845.799999997,420853.065,424037.105,8,400,,,
trial,html.Screen,4_73_0,2023-09-08T18:50:20.388Z,,0,2,,4775.594999995548,response,ISIC_0034086.JPG,5,ISIC_0030592.JPG,ISIC_0034086.JPG,false,1,keypress(m),500,428812.799999997,428812.69999999553,424020.432,424035,424037.105,428821.882,8,400,24,,ISIC_0030592.JPG
break,html.Screen,4_73_1,2023-09-08T18:50:20.389Z,,0,,,NaN,,,,,,false,,,,428813.5,428813.299999997,,428813,,428821.882,8,400,,,
break_continue,html.Screen,4_73_2,2023-09-08T18:50:20.389Z,,0,,,NaN,,,,,,false,,,,428813.799999997,428813.69999999553,,428813.59999999404,,428821.882,8,400,,,
sequence,flow.Sequence,4_73,2023-09-08T18:50:20.390Z,,0,,,4776.594999995548,completion,,,,,false,,,,428814,428813.69999999553,424020.432,424034.8999999985,424037.105,428821.882,8,400,,,
trial,html.Screen,4_74_0,2023-09-08T18:50:24.536Z,,0,2,,4138.517999998527,response,ISIC_0025891.JPG,6,ISIC_2291059.JPG,ISIC_2291059.JPG,false,0,keypress(z),500,432960.59999999404,432960.3999999985,428805.209,428814,428821.882,432972.86,8,400,25,,ISIC_0025891.JPG
break,html.Screen,4_74_1,2023-09-08T18:50:24.538Z,,0,,,NaN,,,,,,false,,,,432962,432961.59999999404,,432960.8999999985,,432972.86,8,400,,,
break_continue,html.Screen,4_74_2,2023-09-08T18:50:24.538Z,,0,,,NaN,,,,,,false,,,,432962.69999999553,432962.5,,432962.19999999553,,432972.86,8,400,,,
sequence,flow.Sequence,4_74,2023-09-08T18:50:24.539Z,,0,,,4140.618000000017,completion,,,,,false,,,,432963,432962.5,428805.209,428814,428821.882,432972.86,8,400,,,
trial,html.Screen,4_75_0,2023-09-08T18:50:28.276Z,,0,2,,3727.2399999940535,response,ISIC_8295306.JPG,5,ISIC_0024864.JPG,ISIC_8295306.JPG,false,1,keypress(m),500,436700.5,436700.09999999404,432956.187,432963.19999999553,432972.86,436707.187,8,400,26,,ISIC_0024864.JPG
break,html.Screen,4_75_1,2023-09-08T18:50:28.278Z,,0,,,NaN,,,,,,false,,,,436702.19999999553,436701.69999999553,,436700.8999999985,,436707.187,8,400,,,
break_continue,html.Screen,4_75_2,2023-09-08T18:50:28.279Z,,0,,,NaN,,,,,,false,,,,436703.19999999553,436702.8999999985,,436702.3999999985,,436707.187,8,400,,,
sequence,flow.Sequence,4_75,2023-09-08T18:50:28.279Z,,0,,,3730.039999998524,completion,,,,,false,,,,436703.5,436702.8999999985,432956.187,432963.09999999404,432972.86,436707.187,8,400,,,
trial,html.Screen,4_76_0,2023-09-08T18:50:31.554Z,,0,2,,3270.6129999970435,response,ISIC_1161370.JPG,5,ISIC_0011463.JPG,ISIC_0011463.JPG,false,0,keypress(z),500,439978.299999997,439977.799999997,436690.514,436703.69999999553,436707.187,439991.408,8,400,27,,ISIC_1161370.JPG
break,html.Screen,4_76_1,2023-09-08T18:50:31.556Z,,0,,,NaN,,,,,,false,,,,439979.8999999985,439979.5,,439978.69999999553,,439991.408,8,400,,,
break_continue,html.Screen,4_76_2,2023-09-08T18:50:31.557Z,,0,,,NaN,,,,,,false,,,,439980.799999997,439980.5,,439980.19999999553,,439991.408,8,400,,,
sequence,flow.Sequence,4_76,2023-09-08T18:50:31.557Z,,0,,,3273.3130000000237,completion,,,,,false,,,,439981.09999999404,439980.5,436690.514,436703.69999999553,436707.187,439991.408,8,400,,,
trial,html.Screen,4_77_0,2023-09-08T18:50:35.224Z,,0,2,,3656.6919999940437,response,ISIC_0011137.JPG,5,ISIC_2161819.JPG,ISIC_2161819.JPG,false,0,keypress(z),500,443648.299999997,443648.09999999404,439974.688,439981.5,439991.408,443659.109,8,400,28,,ISIC_0011137.JPG
break,html.Screen,4_77_1,2023-09-08T18:50:35.225Z,,0,,,NaN,,,,,,false,,,,443649.09999999404,443648.799999997,,443648.5,,443659.109,8,400,,,
break_continue,html.Screen,4_77_2,2023-09-08T18:50:35.225Z,,0,,,NaN,,,,,,false,,,,443649.5,443649.3999999985,,443649.19999999553,,443659.109,8,400,,,
sequence,flow.Sequence,4_77,2023-09-08T18:50:35.225Z,,0,,,3657.991999998514,completion,,,,,false,,,,443649.59999999404,443649.3999999985,439974.688,439981.3999999985,439991.408,443659.109,8,400,,,
trial,html.Screen,4_78_0,2023-09-08T18:50:38.476Z,,0,2,,3241.290999998513,response,ISIC_0062765.JPG,4,ISIC_4136351.JPG,ISIC_0062765.JPG,false,1,keypress(m),500,446900.59999999404,446900.3999999985,443642.436,443649.59999999404,443659.109,446909.807,8,400,29,,ISIC_4136351.JPG
break,html.Screen,4_78_1,2023-09-08T18:50:38.477Z,,0,,,NaN,,,,,,false,,,,446901.299999997,446901.19999999553,,446900.799999997,,446909.807,8,400,,,
break_continue,html.Screen,4_78_2,2023-09-08T18:50:38.478Z,,0,,,NaN,,,,,,false,,,,446901.799999997,446901.59999999404,,446901.3999999985,,446909.807,8,400,,,
sequence,flow.Sequence,4_78,2023-09-08T18:50:38.478Z,,0,,,3242.490999994043,completion,,,,,false,,,,446901.8999999985,446901.59999999404,443642.436,443649.59999999404,443659.109,446909.807,8,400,,,
trial,html.Screen,4_79_0,2023-09-08T18:50:41.711Z,,0,2,,3225.392999995558,response,ISIC_0218575.JPG,5,ISIC_0033570.JPG,ISIC_0033570.JPG,false,0,keypress(z),500,450135.3999999985,450135.19999999553,446893.134,446902,446909.807,450144.081,8,400,30,,ISIC_0218575.JPG
break,html.Screen,4_79_1,2023-09-08T18:50:41.712Z,,0,,,NaN,,,,,,false,,,,450136,450135.799999997,,450135.5,,450144.081,8,400,,,
break_continue,html.Screen,4_79_2,2023-09-08T18:50:41.712Z,,0,,,NaN,,,,,,false,,,,450136.3999999985,450136.299999997,,450136.09999999404,,450144.081,8,400,,,
sequence,flow.Sequence,4_79,2023-09-08T18:50:41.712Z,,0,,,3226.492999997048,completion,,,,,false,,,,450136.3999999985,450136.299999997,446893.134,446902,446909.807,450144.081,8,400,,,
trial,html.Screen,4_80_0,2023-09-08T18:50:44.825Z,,0,2,,3105.218999997014,response,ISIC_0067562.JPG,4,ISIC_6644834.JPG,ISIC_0067562.JPG,false,1,keypress(m),500,453249.799999997,453249.299999997,450127.349,450136.5,450144.081,453261.786,8,400,31,,ISIC_6644834.JPG
break,html.Screen,4_80_1,2023-09-08T18:50:44.827Z,,0,,,NaN,,,,,,false,,,,453251.5,453250.8999999985,,453250.09999999404,,453261.786,8,400,,,
break_continue,html.Screen,4_80_2,2023-09-08T18:50:44.828Z,,0,,,NaN,,,,,,false,,,,453252.5,453252.19999999553,,453251.69999999553,,453261.786,8,400,,,
sequence,flow.Sequence,4_80,2023-09-08T18:50:44.829Z,,0,,,3108.118999995524,completion,,,,,false,,,,453252.8999999985,453252.19999999553,450127.349,450136.5,450144.081,453261.786,8,400,,,
trial,html.Screen,4_81_0,2023-09-08T18:50:47.872Z,,0,2,,3034.013999996998,response,ISIC_4358550.JPG,4,ISIC_9130157.JPG,ISIC_4358550.JPG,false,1,keypress(m),500,456296.19999999553,456295.799999997,453245.113,453253.09999999404,453261.786,456312.457,8,400,32,,ISIC_9130157.JPG
break,html.Screen,4_81_1,2023-09-08T18:50:47.873Z,,0,,,NaN,,,,,,false,,,,456297.69999999553,456297.299999997,,456296.5,,456312.457,8,400,,,
break_continue,html.Screen,4_81_2,2023-09-08T18:50:47.874Z,,0,,,NaN,,,,,,false,,,,456298.5,456298.299999997,,456297.8999999985,,456312.457,8,400,,,
sequence,flow.Sequence,4_81,2023-09-08T18:50:47.875Z,,0,,,3036.513999996998,completion,,,,,false,,,,456298.799999997,456298.299999997,453245.113,453253,453261.786,456312.457,8,400,,,
trial,html.Screen,4_82_0,2023-09-08T18:50:51.333Z,,0,2,,3445.043000000005,response,ISIC_7555812.JPG,4,ISIC_0030704.JPG,ISIC_7555812.JPG,false,1,keypress(m),500,459757.69999999553,459757.5,456295.784,456299,456312.457,459763.264,8,400,33,,ISIC_0030704.JPG
break,html.Screen,4_82_1,2023-09-08T18:50:51.334Z,,0,,,NaN,,,,,,false,,,,459758.69999999553,459758.3999999985,,459757.8999999985,,459763.264,8,400,,,
break_continue,html.Screen,4_82_2,2023-09-08T18:50:51.335Z,,0,,,NaN,,,,,,false,,,,459759.09999999404,459759,,459758.69999999553,,459763.264,8,400,,,
sequence,flow.Sequence,4_82,2023-09-08T18:50:51.335Z,,0,,,3446.543000000005,completion,,,,,false,,,,459759.299999997,459759,456295.784,456299,456312.457,459763.264,8,400,,,
trial,html.Screen,4_83_0,2023-09-08T18:50:55.625Z,,0,2,,4285.935999995505,response,ISIC_0029572.JPG,6,ISIC_7240424.JPG,ISIC_0029572.JPG,false,1,keypress(m),500,464049.5,464049.19999999553,459746.591,459759.299999997,459763.264,464064.504,8,400,34,,ISIC_7240424.JPG
break,html.Screen,4_83_1,2023-09-08T18:50:55.627Z,,0,,,NaN,,,,,,false,,,,464051.19999999553,464050.799999997,,464050,,464064.504,8,400,,,
break_continue,html.Screen,4_83_2,2023-09-08T18:50:55.628Z,,0,,,NaN,,,,,,false,,,,464052.09999999404,464051.8999999985,,464051.5,,464064.504,8,400,,,
sequence,flow.Sequence,4_83,2023-09-08T18:50:55.628Z,,0,,,4288.635999998485,completion,,,,,false,,,,464052.3999999985,464051.8999999985,459746.591,459759.299999997,459763.264,464064.504,8,400,,,
trial,html.Screen,4_84_0,2023-09-08T18:50:59.186Z,,0,2,,3545.7959999970044,response,ISIC_9829436.JPG,5,ISIC_0069859.JPG,ISIC_0069859.JPG,false,0,keypress(z),500,467610.59999999404,467610.299999997,464047.831,464052.69999999553,464064.504,467615.616,8,400,35,,ISIC_9829436.JPG
break,html.Screen,4_84_1,2023-09-08T18:50:59.188Z,,0,,,NaN,,,,,,false,,,,467612.09999999404,467611.69999999553,,467611,,467615.616,8,400,,,
break_continue,html.Screen,4_84_2,2023-09-08T18:50:59.188Z,,0,,,NaN,,,,,,false,,,,467612.799999997,467612.69999999553,,467612.19999999553,,467615.616,8,400,,,
sequence,flow.Sequence,4_84,2023-09-08T18:50:59.189Z,,0,,,3548.1959999955143,completion,,,,,false,,,,467612.8999999985,467612.69999999553,464047.831,464052.69999999553,464064.504,467615.616,8,400,,,
trial,html.Screen,4_85_0,2023-09-08T18:51:02.103Z,,0,2,,2911.78399999853,response,ISIC_0001126.JPG,4,ISIC_6511689.JPG,ISIC_0001126.JPG,false,1,keypress(m),500,470527.69999999553,470527.3999999985,467598.847,467612.8999999985,467615.616,470532.885,8,400,36,,ISIC_6511689.JPG
break,html.Screen,4_85_1,2023-09-08T18:51:02.105Z,,0,,,NaN,,,,,,false,,,,470529.299999997,470528.8999999985,,470528,,470532.885,8,400,,,
break_continue,html.Screen,4_85_2,2023-09-08T18:51:02.106Z,,0,,,NaN,,,,,,false,,,,470530.09999999404,470529.8999999985,,470529.5,,470532.885,8,400,,,
sequence,flow.Sequence,4_85,2023-09-08T18:51:02.106Z,,0,,,2914.28399999853,completion,,,,,false,,,,470530.3999999985,470529.8999999985,467598.847,467612.8999999985,467615.616,470532.885,8,400,,,
trial,html.Screen,4_86_0,2023-09-08T18:51:05.181Z,,0,2,,3072.5149999985006,response,ISIC_0072473.JPG,5,ISIC_2520840.JPG,ISIC_0072473.JPG,false,1,keypress(m),500,473605.69999999553,473605.3999999985,470516.212,470530.59999999404,470532.885,473616.944,8,400,37,,ISIC_2520840.JPG
break,html.Screen,4_86_1,2023-09-08T18:51:05.183Z,,0,,,NaN,,,,,,false,,,,473607.19999999553,473606.799999997,,473606,,473616.944,8,400,,,
break_continue,html.Screen,4_86_2,2023-09-08T18:51:05.184Z,,0,,,NaN,,,,,,false,,,,473608.09999999404,473607.8999999985,,473607.5,,473616.944,8,400,,,
sequence,flow.Sequence,4_86,2023-09-08T18:51:05.184Z,,0,,,3075.0149999985006,completion,,,,,false,,,,473608.3999999985,473607.8999999985,470516.212,470530.5,470532.885,473616.944,8,400,,,
trial,html.Screen,4_87_0,2023-09-08T18:51:09.988Z,,0,2,,4794.555999999982,response,ISIC_6967143.JPG,4,ISIC_0032717.JPG,ISIC_0032717.JPG,false,0,keypress(z),500,478411.8999999985,478411.5,473600.271,473608.59999999404,473616.944,478418.404,8,400,38,,ISIC_6967143.JPG
break,html.Screen,4_87_1,2023-09-08T18:51:09.989Z,,0,,,NaN,,,,,,false,,,,478413.5,478413.09999999404,,478412.299999997,,478418.404,8,400,,,
break_continue,html.Screen,4_87_2,2023-09-08T18:51:09.990Z,,0,,,NaN,,,,,,false,,,,478414.5,478414.19999999553,,478413.799999997,,478418.404,8,400,,,
sequence,flow.Sequence,4_87,2023-09-08T18:51:09.991Z,,0,,,4797.255999995512,completion,,,,,false,,,,478414.799999997,478414.19999999553,473600.271,473608.59999999404,473616.944,478418.404,8,400,,,
trial,html.Screen,4_88_0,2023-09-08T18:51:13.912Z,,0,2,,3917.9959999985294,response,ISIC_3812485.JPG,5,ISIC_0032047.JPG,ISIC_0032047.JPG,false,0,keypress(z),500,482336.59999999404,482336.3999999985,478401.731,478415.09999999404,478418.404,482352.749,8,400,39,,ISIC_3812485.JPG
break,html.Screen,4_88_1,2023-09-08T18:51:13.913Z,,0,,,NaN,,,,,,false,,,,482337.5,482337.19999999553,,482336.799999997,,482352.749,8,400,,,
break_continue,html.Screen,4_88_2,2023-09-08T18:51:13.914Z,,0,,,NaN,,,,,,false,,,,482337.8999999985,482337.799999997,,482337.59999999404,,482352.749,8,400,,,
sequence,flow.Sequence,4_88,2023-09-08T18:51:13.914Z,,0,,,3919.3959999970393,completion,,,,,false,,,,482338.09999999404,482337.799999997,478401.731,478415,478418.404,482352.749,8,400,,,
trial,html.Screen,4_89_0,2023-09-08T18:51:17.068Z,,0,2,,3139.2509999999893,response,ISIC_0031303.JPG,4,ISIC_5768032.JPG,ISIC_0031303.JPG,false,1,keypress(m),500,485492.09999999404,485492,482336.076,482338.19999999553,482352.749,485503.454,8,400,40,,ISIC_5768032.JPG
break,html.Screen,4_89_1,2023-09-08T18:51:17.068Z,,0,,,NaN,,,,,,false,,,,485492.5,485492.3999999985,,485492.09999999404,,485503.454,8,400,,,
break_continue,html.Screen,4_89_2,2023-09-08T18:51:17.069Z,,0,,,NaN,,,,,,false,,,,485492.8999999985,485492.799999997,,485492.69999999553,,485503.454,8,400,,,
sequence,flow.Sequence,4_89,2023-09-08T18:51:17.069Z,,0,,,3140.050999997009,completion,,,,,false,,,,485493,485492.799999997,482336.076,482338.09999999404,482352.749,485503.454,8,400,,,
trial,html.Screen,4_90_0,2023-09-08T18:51:21.315Z,,0,2,,4234.945999998483,response,ISIC_6674653.JPG,5,ISIC_0014171.JPG,ISIC_0014171.JPG,false,0,keypress(z),500,489738.8999999985,489738.3999999985,485486.781,485493,485503.454,489754.745,8,400,41,,ISIC_6674653.JPG
break,html.Screen,4_90_1,2023-09-08T18:51:21.316Z,,0,,,NaN,,,,,,false,,,,489740.5,489740,,489739.299999997,,489754.745,8,400,,,
break_continue,html.Screen,4_90_2,2023-09-08T18:51:21.317Z,,0,,,NaN,,,,,,false,,,,489741.3999999985,489741.19999999553,,489740.69999999553,,489754.745,8,400,,,
sequence,flow.Sequence,4_90,2023-09-08T18:51:21.317Z,,0,,,4237.745999995503,completion,,,,,false,,,,489741.799999997,489741.19999999553,485486.781,485493,485503.454,489754.745,8,400,,,
trial,html.Screen,4_91_0,2023-09-08T18:51:25.048Z,,0,2,,3717.1549999985145,response,ISIC_8789051.JPG,4,ISIC_8539990.JPG,ISIC_8789051.JPG,false,1,keypress(m),500,493472,493471.8999999985,489738.072,489742,489754.745,493488.999,8,400,42,,ISIC_8539990.JPG
break,html.Screen,4_91_1,2023-09-08T18:51:25.048Z,,0,,,NaN,,,,,,false,,,,493472.3999999985,493472.299999997,,493472.19999999553,,493488.999,8,400,,,
break_continue,html.Screen,4_91_2,2023-09-08T18:51:25.048Z,,0,,,NaN,,,,,,false,,,,493472.69999999553,493472.59999999404,,493472.5,,493488.999,8,400,,,
sequence,flow.Sequence,4_91,2023-09-08T18:51:25.048Z,,0,,,3717.854999994044,completion,,,,,false,,,,493472.799999997,493472.59999999404,489738.072,489741.8999999985,489754.745,493488.999,8,400,,,
trial,html.Screen,4_92_0,2023-09-08T18:51:28.266Z,,0,2,,3201.200999995519,response,ISIC_0029698.JPG,4,ISIC_0027247.JPG,ISIC_0029698.JPG,false,1,keypress(m),500,496690.299999997,496690.19999999553,493472.326,493472.8999999985,493488.999,496706.489,8,400,43,,ISIC_0027247.JPG
break,html.Screen,4_92_1,2023-09-08T18:51:28.267Z,,0,,,NaN,,,,,,false,,,,496690.8999999985,496690.69999999553,,496690.3999999985,,496706.489,8,400,,,
break_continue,html.Screen,4_92_2,2023-09-08T18:51:28.267Z,,0,,,NaN,,,,,,false,,,,496691.19999999553,496691.09999999404,,496690.8999999985,,496706.489,8,400,,,
sequence,flow.Sequence,4_92,2023-09-08T18:51:28.267Z,,0,,,3202.100999994029,completion,,,,,false,,,,496691.19999999553,496691.09999999404,493472.326,493472.799999997,493488.999,496706.489,8,400,,,
trial,html.Screen,4_93_0,2023-09-08T18:51:31.633Z,,0,2,,3350.110999994038,response,ISIC_0000546.JPG,6,ISIC_0015136.JPG,ISIC_0015136.JPG,false,0,keypress(z),500,500057,500056.59999999404,496689.808,496691.299999997,496706.489,500074.079,8,400,44,,ISIC_0000546.JPG
break,html.Screen,4_93_1,2023-09-08T18:51:31.634Z,,0,,,NaN,,,,,,false,,,,500058.3999999985,500058.09999999404,,500057.19999999553,,500074.079,8,400,,,
break_continue,html.Screen,4_93_2,2023-09-08T18:51:31.635Z,,0,,,NaN,,,,,,false,,,,500059.19999999553,500059,,500058.59999999404,,500074.079,8,400,,,
sequence,flow.Sequence,4_93,2023-09-08T18:51:31.635Z,,0,,,3352.5109999999986,completion,,,,,false,,,,500059.5,500059,496689.808,496691.299999997,496706.489,500074.079,8,400,,,
trial,html.Screen,4_94_0,2023-09-08T18:51:34.907Z,,0,2,,3256.2209999969928,response,ISIC_5377693.JPG,4,ISIC_8357679.JPG,ISIC_5377693.JPG,false,1,keypress(m),500,503330.59999999404,503330.299999997,500057.406,500059.59999999404,500074.079,503358.203,8,400,45,,ISIC_8357679.JPG
break,html.Screen,4_94_1,2023-09-08T18:51:34.908Z,,0,,,NaN,,,,,,false,,,,503332.09999999404,503331.799999997,,503331,,503358.203,8,400,,,
break_continue,html.Screen,4_94_2,2023-09-08T18:51:34.909Z,,0,,,NaN,,,,,,false,,,,503333,503332.799999997,,503332.3999999985,,503358.203,8,400,,,
sequence,flow.Sequence,4_94,2023-09-08T18:51:34.909Z,,0,,,3258.7209999969928,completion,,,,,false,,,,503333.5,503332.799999997,500057.406,500059.59999999404,500074.079,503358.203,8,400,,,
trial,html.Screen,4_95_0,2023-09-08T18:51:38.209Z,,0,2,,3274.7970000000205,response,ISIC_0010171.JPG,5,ISIC_5343231.JPG,ISIC_5343231.JPG,false,0,keypress(z),500,506633.299999997,506633,503341.53,503333.59999999404,503358.203,506659.083,8,400,46,,ISIC_0010171.JPG
break,html.Screen,4_95_1,2023-09-08T18:51:38.211Z,,0,,,NaN,,,,,,false,,,,506635,506634.5,,506633.799999997,,506659.083,8,400,,,
break_continue,html.Screen,4_95_2,2023-09-08T18:51:38.212Z,,0,,,NaN,,,,,,false,,,,506635.799999997,506635.59999999404,,506635.19999999553,,506659.083,8,400,,,
sequence,flow.Sequence,4_95,2023-09-08T18:51:38.212Z,,0,,,3277.39699999406,completion,,,,,false,,,,506636.09999999404,506635.59999999404,503341.53,503333.59999999404,503358.203,506659.083,8,400,,,
trial,html.Screen,4_96_0,2023-09-08T18:51:41.900Z,,0,2,,3664.7169999970356,response,ISIC_1083681.JPG,5,ISIC_0189336.JPG,ISIC_1083681.JPG,false,1,keypress(m),500,510324,510323.799999997,506642.41,506636.299999997,506659.083,510326.861,8,400,47,,ISIC_0189336.JPG
break,html.Screen,4_96_1,2023-09-08T18:51:41.901Z,,0,,,NaN,,,,,,false,,,,510324.69999999553,510324.3999999985,,510324.09999999404,,510326.861,8,400,,,
break_continue,html.Screen,4_96_2,2023-09-08T18:51:41.901Z,,0,,,NaN,,,,,,false,,,,510325.09999999404,510324.8999999985,,510324.799999997,,510326.861,8,400,,,
sequence,flow.Sequence,4_96,2023-09-08T18:51:41.901Z,,0,,,3665.8169999985257,completion,,,,,false,,,,510325.09999999404,510324.8999999985,506642.41,506636.299999997,506659.083,510326.861,8,400,,,
trial,html.Screen,4_97_0,2023-09-08T18:51:45.007Z,,0,2,,3104.4389999970444,response,ISIC_0011375.JPG,5,ISIC_0894785.JPG,ISIC_0011375.JPG,false,1,keypress(m),500,513431.5,513431.299999997,510310.188,510325.19999999553,510326.861,513444.183,8,400,48,,ISIC_0894785.JPG
break,html.Screen,4_97_1,2023-09-08T18:51:45.008Z,,0,,,NaN,,,,,,false,,,,513431.8999999985,513431.799999997,,513431.59999999404,,513444.183,8,400,,,
break_continue,html.Screen,4_97_2,2023-09-08T18:51:45.008Z,,0,,,NaN,,,,,,false,,,,513432.19999999553,513432.19999999553,,513432.09999999404,,513444.183,8,400,,,
sequence,flow.Sequence,4_97,2023-09-08T18:51:45.008Z,,0,,,3105.3389999955543,completion,,,,,false,,,,513432.299999997,513432.19999999553,510310.188,510325.19999999553,510326.861,513444.183,8,400,,,
trial,html.Screen,4_98_0,2023-09-08T18:51:48.114Z,,0,2,,3093.4169999940204,response,ISIC_1739667.JPG,5,ISIC_0034316.JPG,ISIC_0034316.JPG,false,0,keypress(z),500,516538,516537.59999999404,513427.51,513432.299999997,513444.183,516561.696,8,400,49,,ISIC_1739667.JPG
break,html.Screen,4_98_1,2023-09-08T18:51:48.116Z,,0,,,NaN,,,,,,false,,,,516539.5,516539.09999999404,,516538.3999999985,,516561.696,8,400,,,
break_continue,html.Screen,4_98_2,2023-09-08T18:51:48.116Z,,0,,,NaN,,,,,,false,,,,516540.09999999404,516540.09999999404,,516539.799999997,,516561.696,8,400,,,
sequence,flow.Sequence,4_98,2023-09-08T18:51:48.116Z,,0,,,3095.9169999940204,completion,,,,,false,,,,516540.19999999553,516540.09999999404,513427.51,513432.299999997,513444.183,516561.696,8,400,,,
trial,html.Screen,4_99_0,2023-09-08T18:51:52.134Z,,0,2,,3996.1039999970235,response,ISIC_7833008.JPG,5,ISIC_7575957.JPG,ISIC_7575957.JPG,false,0,keypress(z),500,520558,520557.799999997,516545.023,516540.299999997,516561.696,520562.908,8,400,50,,ISIC_7833008.JPG
break,html.Screen,4_99_1,2023-09-08T18:52:02.127Z,,0,,,10002.40200000006,timeout,,,,,false,,,,530550.6999999955,530548.64,520546.235,520558.19999999553,520562.908,530565.31,8,400,,,
break_continue,html.Screen,4_99_2,2023-09-08T18:52:03.559Z,,0,,,1391.589999998454,response,,,,,false,continue,keypress(Space),,531983.3999999985,531956.8999999985,530548.64,530551,530565.31,531999.21,8,400,,,
sequence,flow.Sequence,4_99,2023-09-08T18:52:03.560Z,,0,,,15395.203999998514,completion,,,,,false,,,,531983.5,531956.8999999985,516545.023,516540.299999997,516561.696,531999.21,8,400,,,
trial,html.Screen,4_100_0,2023-09-08T18:52:06.697Z,,0,3,,3122.089999997057,response,ISIC_0064113.JPG,5,ISIC_0054422.JPG,ISIC_0064113.JPG,false,1,keypress(m),500,535121.3999999985,535121.299999997,531982.515,531983.599999994,531999.21,535133.269,8,400,1,,ISIC_0054422.JPG
break,html.Screen,4_100_1,2023-09-08T18:52:06.698Z,,0,,,NaN,,,,,,false,,,,535122.099999994,535121.799999997,,535121.5,,535133.269,8,400,,,
break_continue,html.Screen,4_100_2,2023-09-08T18:52:06.698Z,,0,,,NaN,,,,,,false,,,,535122.299999997,535122.299999997,,535122.1999999955,,535133.269,8,400,,,
sequence,flow.Sequence,4_100,2023-09-08T18:52:06.698Z,,0,,,3123.089999997057,completion,,,,,false,,,,535122.3999999985,535122.299999997,531982.515,531983.599999994,531999.21,535133.269,8,400,,,
trial,html.Screen,4_101_0,2023-09-08T18:52:09.699Z,,0,3,,2989.731000000029,response,ISIC_0008630.JPG,5,ISIC_0062364.JPG,ISIC_0062364.JPG,false,0,keypress(z),500,538123.299999997,538123,535116.579,535122.5,535133.269,538134.05,8,400,2,,ISIC_0008630.JPG
break,html.Screen,4_101_1,2023-09-08T18:52:09.700Z,,0,,,NaN,,,,,,false,,,,538124.099999994,538123.8999999985,,538123.3999999985,,538134.05,8,400,,,
break_continue,html.Screen,4_101_2,2023-09-08T18:52:09.701Z,,0,,,NaN,,,,,,false,,,,538124.599999994,538124.3999999985,,538124.1999999955,,538134.05,8,400,,,
sequence,flow.Sequence,4_101,2023-09-08T18:52:09.701Z,,0,,,2991.1309999985388,completion,,,,,false,,,,538124.6999999955,538124.3999999985,535116.579,535122.5,535133.269,538134.05,8,400,,,
trial,html.Screen,4_102_0,2023-09-08T18:52:13.894Z,,0,3,,4184.149999995483,response,ISIC_0011699.JPG,5,ISIC_4475268.JPG,ISIC_4475268.JPG,false,0,keypress(Z),500,542318.5,542318.1999999955,538117.377,538124.799999997,538134.05,542335.191,8,400,3,,ISIC_0011699.JPG
break,html.Screen,4_102_1,2023-09-08T18:52:13.895Z,,0,,,NaN,,,,,,false,,,,542319.1999999955,542319,,542318.599999994,,542335.191,8,400,,,
break_continue,html.Screen,4_102_2,2023-09-08T18:52:13.896Z,,0,,,NaN,,,,,,false,,,,542319.799999997,542319.599999994,,542319.5,,542335.191,8,400,,,
sequence,flow.Sequence,4_102,2023-09-08T18:52:13.896Z,,0,,,4185.549999993993,completion,,,,,false,,,,542319.799999997,542319.599999994,538117.377,538124.799999997,538134.05,542335.191,8,400,,,
trial,html.Screen,4_103_0,2023-09-08T18:52:21.514Z,,0,3,,7602.608999997028,response,ISIC_6448654.JPG,6,ISIC_1584535.JPG,ISIC_1584535.JPG,false,0,keypress(Z),500,549938,549937.799999997,542318.518,542319.8999999985,542335.191,549954.47,8,400,4,,ISIC_6448654.JPG
break,html.Screen,4_103_1,2023-09-08T18:52:21.515Z,,0,,,NaN,,,,,,false,,,,549939.3999999985,549939.099999994,,549938.3999999985,,549954.47,8,400,,,
break_continue,html.Screen,4_103_2,2023-09-08T18:52:21.516Z,,0,,,NaN,,,,,,false,,,,549940.1999999955,549940,,549939.6999999955,,549954.47,8,400,,,
sequence,flow.Sequence,4_103,2023-09-08T18:52:21.517Z,,0,,,7604.809000000008,completion,,,,,false,,,,549940.599999994,549940,542318.518,542319.8999999985,542335.191,549954.47,8,400,,,
trial,html.Screen,4_104_0,2023-09-08T18:52:24.879Z,,0,3,,3348.6299999940675,response,ISIC_0028612.JPG,5,ISIC_0033164.JPG,ISIC_0033164.JPG,false,0,keypress(Z),500,553303.3999999985,553303.099999994,549937.797,549940.799999997,549954.47,553304.833,8,400,5,,ISIC_0028612.JPG
break,html.Screen,4_104_1,2023-09-08T18:52:24.881Z,,0,,,NaN,,,,,,false,,,,553304.5,553304.1999999955,,553303.599999994,,553304.833,8,400,,,
break_continue,html.Screen,4_104_2,2023-09-08T18:52:24.881Z,,0,,,NaN,,,,,,false,,,,553305.099999994,553304.8999999985,,553304.6999999955,,553304.833,8,400,,,
sequence,flow.Sequence,4_104,2023-09-08T18:52:24.881Z,,0,,,3350.429999998538,completion,,,,,false,,,,553305.3999999985,553304.8999999985,549937.797,549940.799999997,549954.47,553304.833,8,400,,,
trial,html.Screen,4_105_0,2023-09-08T18:52:30.248Z,,0,3,,5366.066999998526,response,ISIC_0010432.JPG,5,ISIC_3278303.JPG,ISIC_3278303.JPG,false,0,keypress(Z),500,558671.299999997,558670.8999999985,553288.16,553305.599999994,553304.833,558673.233,8,400,6,,ISIC_0010432.JPG
break,html.Screen,4_105_1,2023-09-08T18:52:30.249Z,,0,,,NaN,,,,,,false,,,,558672.8999999985,558672.3999999985,,558671.6999999955,,558673.233,8,400,,,
break_continue,html.Screen,4_105_2,2023-09-08T18:52:30.250Z,,0,,,NaN,,,,,,false,,,,558673.6999999955,558673.5,,558673.099999994,,558673.233,8,400,,,
sequence,flow.Sequence,4_105,2023-09-08T18:52:30.250Z,,0,,,5368.667000000016,completion,,,,,false,,,,558674,558673.5,553288.16,553305.3999999985,553304.833,558673.233,8,400,,,
trial,html.Screen,4_106_0,2023-09-08T18:52:38.371Z,,0,3,,8121.466999995522,response,ISIC_5933341.JPG,5,ISIC_3460125.JPG,ISIC_3460125.JPG,false,0,keypress(Z),500,566795.099999994,566794.6999999955,558656.56,558674.299999997,558673.233,566808.696,8,400,7,,ISIC_5933341.JPG
break,html.Screen,4_106_1,2023-09-08T18:52:38.373Z,,0,,,NaN,,,,,,false,,,,566796.599999994,566796.299999997,,566795.3999999985,,566808.696,8,400,,,
break_continue,html.Screen,4_106_2,2023-09-08T18:52:38.374Z,,0,,,NaN,,,,,,false,,,,566797.5,566797.1999999955,,566796.8999999985,,566808.696,8,400,,,
sequence,flow.Sequence,4_106,2023-09-08T18:52:38.374Z,,0,,,8123.966999995522,completion,,,,,false,,,,566797.799999997,566797.1999999955,558656.56,558674.299999997,558673.233,566808.696,8,400,,,
trial,html.Screen,4_107_0,2023-09-08T18:52:41.137Z,,0,3,,2752.3040000000037,response,ISIC_1615485.JPG,5,ISIC_0060386.JPG,ISIC_1615485.JPG,false,1,keypress(m),500,569561.1999999955,569561,566792.023,566798.099999994,566808.696,569575.849,8,400,8,,ISIC_0060386.JPG
break,html.Screen,4_107_1,2023-09-08T18:52:41.138Z,,0,,,NaN,,,,,,false,,,,569561.799999997,569561.599999994,,569561.299999997,,569575.849,8,400,,,
break_continue,html.Screen,4_107_2,2023-09-08T18:52:41.138Z,,0,,,NaN,,,,,,false,,,,569562.099999994,569562,,569561.8999999985,,569575.849,8,400,,,
sequence,flow.Sequence,4_107,2023-09-08T18:52:41.139Z,,0,,,2753.3040000000037,completion,,,,,false,,,,569562.299999997,569562,566792.023,566798,566808.696,569575.849,8,400,,,
trial,html.Screen,4_108_0,2023-09-08T18:52:43.996Z,,0,3,,2844.0509999984642,response,ISIC_0025956.JPG,5,ISIC_0011744.JPG,ISIC_0011744.JPG,false,0,keypress(z),500,572420.099999994,572419.8999999985,569559.064,569562.3999999985,569575.849,572426.721,8,400,9,,ISIC_0025956.JPG
break,html.Screen,4_108_1,2023-09-08T18:52:43.997Z,,0,,,NaN,,,,,,false,,,,572420.8999999985,572420.6999999955,,572420.299999997,,572426.721,8,400,,,
break_continue,html.Screen,4_108_2,2023-09-08T18:52:43.998Z,,0,,,NaN,,,,,,false,,,,572421.299999997,572421.1999999955,,572421,,572426.721,8,400,,,
sequence,flow.Sequence,4_108,2023-09-08T18:52:43.998Z,,0,,,2845.350999995484,completion,,,,,false,,,,572421.3999999985,572421.1999999955,569559.064,569562.299999997,569575.849,572426.721,8,400,,,
trial,html.Screen,4_109_0,2023-09-08T18:52:46.736Z,,0,3,,2732.578999997,response,ISIC_2133938.JPG,5,ISIC_1020968.JPG,ISIC_2133938.JPG,false,1,keypress(m),500,575159.6999999955,575159.299999997,572410.048,572421.5,572426.721,575177.31,8,400,10,,ISIC_1020968.JPG
break,html.Screen,4_109_1,2023-09-08T18:52:46.737Z,,0,,,NaN,,,,,,false,,,,575161.099999994,575160.6999999955,,575159.8999999985,,575177.31,8,400,,,
break_continue,html.Screen,4_109_2,2023-09-08T18:52:46.738Z,,0,,,NaN,,,,,,false,,,,575161.8999999985,575161.6999999955,,575161.299999997,,575177.31,8,400,,,
sequence,flow.Sequence,4_109,2023-09-08T18:52:46.738Z,,0,,,2734.97899999551,completion,,,,,false,,,,575162.099999994,575161.6999999955,572410.048,572421.5,572426.721,575177.31,8,400,,,
trial,html.Screen,4_110_0,2023-09-08T18:52:50.837Z,,0,3,,4082.8899999954738,response,ISIC_0065727.JPG,5,ISIC_0007740.JPG,ISIC_0065727.JPG,false,1,keypress(m),500,579260.299999997,579260.1999999955,575160.637,575162.3999999985,575177.31,579261.856,8,400,11,,ISIC_0007740.JPG
break,html.Screen,4_110_1,2023-09-08T18:52:50.837Z,,0,,,NaN,,,,,,false,,,,579261.099999994,579260.8999999985,,579260.5,,579261.856,8,400,,,
break_continue,html.Screen,4_110_2,2023-09-08T18:52:50.838Z,,0,,,NaN,,,,,,false,,,,579261.599999994,579261.5,,579261.299999997,,579261.856,8,400,,,
sequence,flow.Sequence,4_110,2023-09-08T18:52:50.838Z,,0,,,4084.189999999944,completion,,,,,false,,,,579261.6999999955,579261.5,575160.637,575162.299999997,575177.31,579261.856,8,400,,,
trial,html.Screen,4_111_0,2023-09-08T18:52:54.377Z,,0,3,,3538.443999996991,response,ISIC_0013243.JPG,6,ISIC_0013580.JPG,ISIC_0013243.JPG,false,1,keypress(m),500,582800.599999994,582800.299999997,579245.183,579261.799999997,579261.856,582812.76,8,400,12,,ISIC_0013580.JPG
break,html.Screen,4_111_1,2023-09-08T18:52:54.378Z,,0,,,NaN,,,,,,false,,,,582802,582801.599999994,,582800.8999999985,,582812.76,8,400,,,
break_continue,html.Screen,4_111_2,2023-09-08T18:52:54.379Z,,0,,,NaN,,,,,,false,,,,582802.799999997,582802.599999994,,582802.299999997,,582812.76,8,400,,,
sequence,flow.Sequence,4_111,2023-09-08T18:52:54.380Z,,0,,,3540.7439999940107,completion,,,,,false,,,,582803.1999999955,582802.599999994,579245.183,579261.799999997,579261.856,582812.76,8,400,,,
trial,html.Screen,4_112_0,2023-09-08T18:52:59.010Z,,0,3,,4620.739999999991,response,ISIC_0032590.JPG,5,ISIC_0879097.JPG,ISIC_0879097.JPG,false,0,keypress(z),500,587433.8999999985,587433.5,582796.087,582803.5,582812.76,587447.398,8,400,13,,ISIC_0032590.JPG
break,html.Screen,4_112_1,2023-09-08T18:52:59.012Z,,0,,,NaN,,,,,,false,,,,587435.599999994,587435.099999994,,587434.299999997,,587447.398,8,400,,,
break_continue,html.Screen,4_112_2,2023-09-08T18:52:59.013Z,,0,,,NaN,,,,,,false,,,,587436.5,587436.299999997,,587435.8999999985,,587447.398,8,400,,,
sequence,flow.Sequence,4_112,2023-09-08T18:52:59.013Z,,0,,,4623.53999999701,completion,,,,,false,,,,587436.799999997,587436.299999997,582796.087,582803.3999999985,582812.76,587447.398,8,400,,,
trial,html.Screen,4_113_0,2023-09-08T18:53:01.817Z,,0,3,,2792.901999996975,response,ISIC_0011460.JPG,5,ISIC_9196033.JPG,ISIC_0011460.JPG,false,1,keypress(m),500,590240.5,590240.299999997,587430.725,587437.099999994,587447.398,590247.881,8,400,14,,ISIC_9196033.JPG
break,html.Screen,4_113_1,2023-09-08T18:53:01.818Z,,0,,,NaN,,,,,,false,,,,590241.6999999955,590241.299999997,,590240.799999997,,590247.881,8,400,,,
break_continue,html.Screen,4_113_2,2023-09-08T18:53:01.819Z,,0,,,NaN,,,,,,false,,,,590242.1999999955,590242,,590241.799999997,,590247.881,8,400,,,
sequence,flow.Sequence,4_113,2023-09-08T18:53:01.819Z,,0,,,2794.6019999999553,completion,,,,,false,,,,590242.3999999985,590242,587430.725,587437,587447.398,590247.881,8,400,,,
trial,html.Screen,4_114_0,2023-09-08T18:53:05.198Z,,0,3,,3373.118999999948,response,ISIC_3039880.JPG,5,ISIC_7533983.JPG,ISIC_3039880.JPG,false,1,keypress(m),500,593621.1999999955,593621,590231.208,590242.599999994,590247.881,593632.379,8,400,15,,ISIC_7533983.JPG
break,html.Screen,4_114_1,2023-09-08T18:53:05.198Z,,0,,,NaN,,,,,,false,,,,593621.6999999955,593621.599999994,,593621.299999997,,593632.379,8,400,,,
break_continue,html.Screen,4_114_2,2023-09-08T18:53:05.198Z,,0,,,NaN,,,,,,false,,,,593621.799999997,593621.799999997,,593621.6999999955,,593632.379,8,400,,,
sequence,flow.Sequence,4_114,2023-09-08T18:53:05.198Z,,0,,,3373.9189999969676,completion,,,,,false,,,,593621.8999999985,593621.799999997,590231.208,590242.5,590247.881,593632.379,8,400,,,
trial,html.Screen,4_115_0,2023-09-08T18:53:08.431Z,,0,3,,3222.4209999970626,response,ISIC_9301346.JPG,4,ISIC_0046642.JPG,ISIC_0046642.JPG,false,0,keypress(z),500,596854.8999999985,596854.799999997,593615.706,593622,593632.379,596866.29,8,400,16,,ISIC_9301346.JPG
break,html.Screen,4_115_1,2023-09-08T18:53:08.432Z,,0,,,NaN,,,,,,false,,,,596855.599999994,596855.299999997,,596855,,596866.29,8,400,,,
break_continue,html.Screen,4_115_2,2023-09-08T18:53:08.432Z,,0,,,NaN,,,,,,false,,,,596856,596855.8999999985,,596855.599999994,,596866.29,8,400,,,
sequence,flow.Sequence,4_115,2023-09-08T18:53:08.432Z,,0,,,3223.5209999985527,completion,,,,,false,,,,596856.099999994,596855.8999999985,593615.706,593621.8999999985,593632.379,596866.29,8,400,,,
trial,html.Screen,4_116_0,2023-09-08T18:53:11.429Z,,0,3,,2986.2099999999627,response,ISIC_1102391.JPG,5,ISIC_5415749.JPG,ISIC_5415749.JPG,false,0,keypress(z),500,599852.799999997,599852.5,596849.557,596856.1999999955,596866.29,599867.171,8,400,17,,ISIC_1102391.JPG
break,html.Screen,4_116_1,2023-09-08T18:53:11.431Z,,0,,,NaN,,,,,,false,,,,599854.3999999985,599853.8999999985,,599853.1999999955,,599867.171,8,400,,,
break_continue,html.Screen,4_116_2,2023-09-08T18:53:11.431Z,,0,,,NaN,,,,,,false,,,,599855.1999999955,599854.8999999985,,599854.599999994,,599867.171,8,400,,,
sequence,flow.Sequence,4_116,2023-09-08T18:53:11.432Z,,0,,,2988.6099999984726,completion,,,,,false,,,,599855.5,599854.8999999985,596849.557,596856.1999999955,596866.29,599867.171,8,400,,,
trial,html.Screen,4_117_0,2023-09-08T18:53:14.460Z,,0,3,,3015.9289999940665,response,ISIC_0698821.JPG,5,ISIC_7320371.JPG,ISIC_7320371.JPG,false,0,keypress(z),500,602883.1999999955,602883.099999994,599850.498,599855.599999994,599867.171,602884.6,8,400,18,,ISIC_0698821.JPG
break,html.Screen,4_117_1,2023-09-08T18:53:14.460Z,,0,,,NaN,,,,,,false,,,,602883.799999997,602883.599999994,,602883.3999999985,,602884.6,8,400,,,
break_continue,html.Screen,4_117_2,2023-09-08T18:53:14.460Z,,0,,,NaN,,,,,,false,,,,602884.099999994,602884.099999994,,602883.8999999985,,602884.6,8,400,,,
sequence,flow.Sequence,4_117,2023-09-08T18:53:14.461Z,,0,,,3016.9289999940665,completion,,,,,false,,,,602884.299999997,602884.099999994,599850.498,599855.599999994,599867.171,602884.6,8,400,,,
trial,html.Screen,4_118_0,2023-09-08T18:53:17.167Z,,0,3,,2705.599999995553,response,ISIC_0281179.JPG,4,ISIC_6298726.JPG,ISIC_0281179.JPG,false,1,keypress(m),500,605590.3999999985,605590.1999999955,602867.927,602884.299999997,602884.6,605602.157,8,400,19,,ISIC_6298726.JPG
break,html.Screen,4_118_1,2023-09-08T18:53:17.167Z,,0,,,NaN,,,,,,false,,,,605590.799999997,605590.6999999955,,605590.3999999985,,605602.157,8,400,,,
break_continue,html.Screen,4_118_2,2023-09-08T18:53:17.167Z,,0,,,NaN,,,,,,false,,,,605591.099999994,605591,,605590.8999999985,,605602.157,8,400,,,
sequence,flow.Sequence,4_118,2023-09-08T18:53:17.167Z,,0,,,2706.4000000000233,completion,,,,,false,,,,605591.099999994,605591,602867.927,602884.299999997,602884.6,605602.157,8,400,,,
trial,html.Screen,4_119_0,2023-09-08T18:53:19.928Z,,0,3,,2748.7429999985034,response,ISIC_7947847.JPG,5,ISIC_0028366.JPG,ISIC_0028366.JPG,false,0,keypress(z),500,608351.299999997,608350.8999999985,605585.484,605591.1999999955,605602.157,608352.776,8,400,20,,ISIC_7947847.JPG
break,html.Screen,4_119_1,2023-09-08T18:53:19.929Z,,0,,,NaN,,,,,,false,,,,608352.799999997,608352.3999999985,,608351.6999999955,,608352.776,8,400,,,
break_continue,html.Screen,4_119_2,2023-09-08T18:53:19.930Z,,0,,,NaN,,,,,,false,,,,608353.599999994,608353.299999997,,608353,,608352.776,8,400,,,
sequence,flow.Sequence,4_119,2023-09-08T18:53:19.930Z,,0,,,2751.1429999970132,completion,,,,,false,,,,608353.8999999985,608353.299999997,605585.484,605591.1999999955,605602.157,608352.776,8,400,,,
trial,html.Screen,4_120_0,2023-09-08T18:53:22.641Z,,0,3,,2712.0239999970654,response,ISIC_0056119.JPG,5,ISIC_0024591.JPG,ISIC_0056119.JPG,false,1,keypress(m),500,611065,611064.799999997,608336.103,608353.8999999985,608352.776,611070.162,8,400,21,,ISIC_0024591.JPG
break,html.Screen,4_120_1,2023-09-08T18:53:22.642Z,,0,,,NaN,,,,,,false,,,,611065.799999997,611065.5,,611065.099999994,,611070.162,8,400,,,
break_continue,html.Screen,4_120_2,2023-09-08T18:53:22.642Z,,0,,,NaN,,,,,,false,,,,611066.1999999955,611066.099999994,,611065.8999999985,,611070.162,8,400,,,
sequence,flow.Sequence,4_120,2023-09-08T18:53:22.643Z,,0,,,2713.323999994085,completion,,,,,false,,,,611066.299999997,611066.099999994,608336.103,608353.8999999985,608352.776,611070.162,8,400,,,
trial,html.Screen,4_121_0,2023-09-08T18:53:26.136Z,,0,3,,3489.1379999970086,response,ISIC_0068314.JPG,5,ISIC_0028061.JPG,ISIC_0068314.JPG,false,1,keypress(m),500,614559.5,614559.299999997,611053.4,611066.3999999985,611070.162,614571.145,8,400,22,,ISIC_0028061.JPG
break,html.Screen,4_121_1,2023-09-08T18:53:26.137Z,,0,,,NaN,,,,,,false,,,,614561,614560.599999994,,614559.8999999985,,614571.145,8,400,,,
break_continue,html.Screen,4_121_2,2023-09-08T18:53:26.138Z,,0,,,NaN,,,,,,false,,,,614561.6999999955,614561.5,,614561.099999994,,614571.145,8,400,,,
sequence,flow.Sequence,4_121,2023-09-08T18:53:26.138Z,,0,,,3491.337999999989,completion,,,,,false,,,,614562.099999994,614561.5,611053.4,611066.299999997,611070.162,614571.145,8,400,,,
trial,html.Screen,4_122_0,2023-09-08T18:53:29.662Z,,0,3,,3513.7549999984913,response,ISIC_0029693.JPG,5,ISIC_4606646.JPG,ISIC_0029693.JPG,false,1,keypress(m),500,618085.299999997,618084.8999999985,614554.472,614562.299999997,614571.145,618088.952,8,400,23,,ISIC_4606646.JPG
break,html.Screen,4_122_1,2023-09-08T18:53:29.664Z,,0,,,NaN,,,,,,false,,,,618087.299999997,618086.6999999955,,618085.799999997,,618088.952,8,400,,,
break_continue,html.Screen,4_122_2,2023-09-08T18:53:29.665Z,,0,,,NaN,,,,,,false,,,,618088.1999999955,618088,,618087.599999994,,618088.952,8,400,,,
sequence,flow.Sequence,4_122,2023-09-08T18:53:29.665Z,,0,,,3516.8549999999814,completion,,,,,false,,,,618088.5,618088,614554.472,614562.299999997,614571.145,618088.952,8,400,,,
trial,html.Screen,4_123_0,2023-09-08T18:53:34.042Z,,0,3,,4376.247999995481,response,ISIC_6423964.JPG,6,ISIC_9622250.JPG,ISIC_9622250.JPG,false,0,keypress(z),500,622465.5,622465.1999999955,618072.279,618088.799999997,618088.952,622473.423,8,400,24,,ISIC_6423964.JPG
break,html.Screen,4_123_1,2023-09-08T18:53:34.044Z,,0,,,NaN,,,,,,false,,,,622467,622466.5,,622465.799999997,,622473.423,8,400,,,
break_continue,html.Screen,4_123_2,2023-09-08T18:53:34.044Z,,0,,,NaN,,,,,,false,,,,622467.799999997,622467.599999994,,622467.299999997,,622473.423,8,400,,,
sequence,flow.Sequence,4_123,2023-09-08T18:53:34.045Z,,0,,,4378.647999993991,completion,,,,,false,,,,622468.099999994,622467.599999994,618072.279,618088.599999994,618088.952,622473.423,8,400,,,
trial,html.Screen,4_124_0,2023-09-08T18:53:37.392Z,,0,3,,3342.276999995578,response,ISIC_7454512.JPG,5,ISIC_0010777.JPG,ISIC_7454512.JPG,false,1,keypress(m),500,625816,625815.6999999955,622456.75,622468.299999997,622473.423,625824.139,8,400,25,,ISIC_0010777.JPG
break,html.Screen,4_124_1,2023-09-08T18:53:37.394Z,,0,,,NaN,,,,,,false,,,,625817.5,625817,,625816.299999997,,625824.139,8,400,,,
break_continue,html.Screen,4_124_2,2023-09-08T18:53:37.395Z,,0,,,NaN,,,,,,false,,,,625818.299999997,625818.099999994,,625817.6999999955,,625824.139,8,400,,,
sequence,flow.Sequence,4_124,2023-09-08T18:53:37.395Z,,0,,,3344.676999994088,completion,,,,,false,,,,625818.599999994,625818.099999994,622456.75,622468.299999997,622473.423,625824.139,8,400,,,
trial,html.Screen,4_125_0,2023-09-08T18:53:40.219Z,,0,3,,2818.460999994073,response,ISIC_0015436.JPG,4,ISIC_0071754.JPG,ISIC_0015436.JPG,false,1,keypress(m),500,628642.8999999985,628642.599999994,625807.466,625818.8999999985,625824.139,628658.139,8,400,26,,ISIC_0071754.JPG
break,html.Screen,4_125_1,2023-09-08T18:53:40.221Z,,0,,,NaN,,,,,,false,,,,628644.299999997,628643.8999999985,,628643.299999997,,628658.139,8,400,,,
break_continue,html.Screen,4_125_2,2023-09-08T18:53:40.221Z,,0,,,NaN,,,,,,false,,,,628645,628644.8999999985,,628644.599999994,,628658.139,8,400,,,
sequence,flow.Sequence,4_125,2023-09-08T18:53:40.222Z,,0,,,2820.7609999985434,completion,,,,,false,,,,628645,628644.8999999985,625807.466,625818.799999997,625824.139,628658.139,8,400,,,
