sender,sender_type,sender_id,timestamp,meta,,blockNo,condition,duration,ended_on,img_left,img_reveal,img_right,loser,practice,response,response_action,selection_duration,time_commit,time_end,time_render,time_run,time_show,time_switch,total_blocks,total_trials,trialNo,url,winner
informed_consent,html.Screen,0,2023-09-15T19:11:10.331Z,"{""labjs_version"":""20.2.4"",""labjs_build"":{""flavor"":""production"",""commit"":""f5b4a49f956347addd546a832a3327688c2c0fef""},""location"":""https://run.pavlovia.org/MurrayBennett/melanoma-2afc/?participant=66990&platform=sona"",""userAgent"":""Mozilla/5.0 (Macintosh; Intel Mac OS X 10_15_7) AppleWebKit/537.36 (KHTML, like Gecko) Chrome/116.0.0.0 Safari/537.36"",""platform"":""MacIntel"",""language"":""en-US"",""locale"":""en-US"",""timeZone"":""America/Chicago"",""timezoneOffset"":300,""screen_width"":1440,""screen_height"":900,""scroll_width"":1440,""scroll_height"":663,""window_innerWidth"":1440,""window_innerHeight"":711,""devicePixelRatio"":2}",,,,84164.24800004768,response,,,,,,consent,click button,,86265.60000002384,86261.20000004768,1713.634,2107.7000000476837,2096.952,86286.555,,,,"{""participant"":""66990"",""platform"":""sona""}",
Welcome,html.Screen,1,2023-09-15T19:13:33.507Z,,,,symmetry,143151.445,response,,,,,,continue,click button,,229441.20000004768,229438,86253.223,86266,86286.555,229448.242,,,,,
trial,html.Screen,2_0_0,2023-09-15T19:13:39.611Z,,0,0,,6096.458000047685,response,ISIC_0069348.JPG,,ISIC_6997061.JPG,ISIC_0069348.JPG,true,1,keypress(m),500,235545.10000002384,235544.70000004768,229431.576,229441.60000002384,229448.242,235555.302,1,6,1,,ISIC_6997061.JPG
sequence,flow.Sequence,2_0,2023-09-15T19:13:39.611Z,,0,,,6096.458000047685,completion,,,,,true,,,,235545.60000002384,235544.70000004768,229431.576,229441.5,229448.242,235555.302,1,6,,,
trial,html.Screen,2_1_0,2023-09-15T19:13:44.990Z,,0,0,,5369.198000000004,response,ISIC_0009529.JPG,,ISIC_0057368.JPG,ISIC_0057368.JPG,true,0,keypress(z),500,240924.80000001192,240924.5,235538.636,235545.80000001192,235555.302,240938.42,1,6,2,,ISIC_0009529.JPG
sequence,flow.Sequence,2_1,2023-09-15T19:13:44.991Z,,0,,,5369.198000000004,completion,,,,,true,,,,240925.20000004768,240924.5,235538.636,235545.80000001192,235555.302,240938.42,1,6,,,
trial,html.Screen,2_2_0,2023-09-15T19:13:49.804Z,,0,0,,4799.880000011908,response,ISIC_0064954.JPG,,ISIC_9758671.JPG,ISIC_9758671.JPG,true,0,keypress(z),500,245738.60000002384,245738.30000001192,240921.754,240925.5,240938.42,245748.992,1,6,3,,ISIC_0064954.JPG
sequence,flow.Sequence,2_2,2023-09-15T19:13:49.805Z,,0,,,4799.880000011908,completion,,,,,true,,,,245739,245738.30000001192,240921.754,240925.30000001192,240938.42,245748.992,1,6,,,
trial,html.Screen,2_3_0,2023-09-15T19:13:53.921Z,,0,0,,4106.6080000238435,response,ISIC_0005785.JPG,,ISIC_0000080.JPG,ISIC_0005785.JPG,true,1,keypress(m),500,249855.90000003576,249855.60000002384,245732.326,245739.30000001192,245748.992,249865.494,1,6,4,,ISIC_0000080.JPG
sequence,flow.Sequence,2_3,2023-09-15T19:13:53.922Z,,0,,,4106.6080000238435,completion,,,,,true,,,,249856.40000003576,249855.60000002384,245732.326,245739.30000001192,245748.992,249865.494,1,6,,,
trial,html.Screen,2_4_0,2023-09-15T19:13:57.542Z,,0,0,,3611.106000023836,response,ISIC_7944028.JPG,,ISIC_5390060.JPG,ISIC_5390060.JPG,true,0,keypress(z),500,253476.90000003576,253476.60000002384,249848.828,249856.70000004768,249865.494,253482.016,1,6,5,,ISIC_7944028.JPG
sequence,flow.Sequence,2_4,2023-09-15T19:13:57.543Z,,0,,,3611.106000023836,completion,,,,,true,,,,253477.30000001192,253476.60000002384,249848.828,249856.5,249865.494,253482.016,1,6,,,
trial,html.Screen,2_5_0,2023-09-15T19:14:01.290Z,,0,0,,3742.2840000119177,response,ISIC_0794216.JPG,,ISIC_0010188.JPG,ISIC_0010188.JPG,true,0,keypress(z),500,257224.70000004768,257224.30000001192,253465.35,253477.60000002384,253482.016,257231.23,1,6,6,,ISIC_0794216.JPG
sequence,flow.Sequence,2_5,2023-09-15T19:14:01.291Z,,0,,,3742.2840000119177,completion,,,,,true,,,,257225.10000002384,257224.30000001192,253465.35,253477.5,253482.016,257231.23,1,6,,,
loop,flow.Loop,2,2023-09-15T19:14:01.291Z,,,,,27776.058000011923,completion,,,,,true,,,,257225.40000003576,257224.30000001192,229431.576,229441.5,229448.242,257231.23,1,6,,,
exp_instructions,html.Screen,3,2023-09-15T19:14:17.966Z,,,,,16661.970000047673,response,,,,,,continue,keypress(Space),,273900.2000000477,273893.2000000477,257214.564,257225.5,257231.23,273904.848,,,,,
trial,html.Screen,4_0_0,2023-09-15T19:14:24.466Z,,0,1,,6495.452000011923,response,ISIC_3401777.JPG,5,ISIC_2178689.JPG,ISIC_2178689.JPG,false,0,keypress(z),500,280400.60000002384,280400.3000000119,273888.182,273900.5,273904.848,280407.553,8,400,1,,ISIC_3401777.JPG
break,html.Screen,4_0_1,2023-09-15T19:14:24.467Z,,0,,,NaN,,,,,,false,,,,280401.7000000477,280401.5,,280400.8000000119,,280407.553,8,400,,,
break_continue,html.Screen,4_0_2,2023-09-15T19:14:24.468Z,,0,,,NaN,,,,,,false,,,,280402.3000000119,280402.10000002384,,280401.90000003576,,280407.553,8,400,,,
sequence,flow.Sequence,4_0,2023-09-15T19:14:24.468Z,,0,,,6497.252000023844,completion,,,,,false,,,,280402.5,280402.10000002384,273888.182,273900.40000003576,273904.848,280407.553,8,400,,,
trial,html.Screen,4_1_0,2023-09-15T19:14:29.739Z,,0,1,,5265.7470000119065,response,ISIC_1501483.JPG,6,ISIC_1923467.JPG,ISIC_1501483.JPG,false,1,keypress(m),500,285673.5,285673.3000000119,280390.887,280402.7000000477,280407.553,285690.675,8,400,2,,ISIC_1923467.JPG
break,html.Screen,4_1_1,2023-09-15T19:14:29.740Z,,0,,,NaN,,,,,,false,,,,285674.5,285674.3000000119,,285673.8000000119,,285690.675,8,400,,,
break_continue,html.Screen,4_1_2,2023-09-15T19:14:29.740Z,,0,,,NaN,,,,,,false,,,,285675,285674.8000000119,,285674.7000000477,,285690.675,8,400,,,
sequence,flow.Sequence,4_1,2023-09-15T19:14:29.741Z,,0,,,5267.2470000119065,completion,,,,,false,,,,285675.10000002384,285674.8000000119,280390.887,280402.60000002384,280407.553,285690.675,8,400,,,
trial,html.Screen,4_2_0,2023-09-15T19:14:35.229Z,,0,1,,5472.4250000238535,response,ISIC_0011343.JPG,7,ISIC_0982757.JPG,ISIC_0011343.JPG,false,1,keypress(m),500,291163.5,291163.10000002384,285674.009,285675.3000000119,285690.675,291168.567,8,400,3,,ISIC_0982757.JPG
break,html.Screen,4_2_1,2023-09-15T19:14:35.230Z,,0,,,NaN,,,,,,false,,,,291164.3000000119,291164,,291163.7000000477,,291168.567,8,400,,,
break_continue,html.Screen,4_2_2,2023-09-15T19:14:35.230Z,,0,,,NaN,,,,,,false,,,,291164.8000000119,291164.60000002384,,291164.5,,291168.567,8,400,,,
sequence,flow.Sequence,4_2,2023-09-15T19:14:35.230Z,,0,,,5473.9250000238535,completion,,,,,false,,,,291165,291164.60000002384,285674.009,285675.2000000477,285690.675,291168.567,8,400,,,
trial,html.Screen,4_3_0,2023-09-15T19:14:39.187Z,,0,1,,3952.633000047703,response,ISIC_0011370.JPG,9,ISIC_1208705.JPG,ISIC_0011370.JPG,false,1,keypress(m),500,295121.5,295121.2000000477,291151.901,291165.10000002384,291168.567,295135.075,8,400,4,,ISIC_1208705.JPG
break,html.Screen,4_3_1,2023-09-15T19:14:39.188Z,,0,,,NaN,,,,,,false,,,,295122.40000003576,295122.2000000477,,295121.7000000477,,295135.075,8,400,,,
break_continue,html.Screen,4_3_2,2023-09-15T19:14:39.188Z,,0,,,NaN,,,,,,false,,,,295122.8000000119,295122.7000000477,,295122.60000002384,,295135.075,8,400,,,
sequence,flow.Sequence,4_3,2023-09-15T19:14:39.189Z,,0,,,3954.133000047703,completion,,,,,false,,,,295123,295122.7000000477,291151.901,291165.10000002384,291168.567,295135.075,8,400,,,
trial,html.Screen,4_4_0,2023-09-15T19:14:43.572Z,,0,1,,4371.02500002383,response,ISIC_0011378.JPG,10,ISIC_6176182.JPG,ISIC_6176182.JPG,false,0,keypress(z),500,299506.3000000119,299506.10000002384,295118.409,295123.2000000477,295135.075,299518.233,8,400,5,,ISIC_0011378.JPG
break,html.Screen,4_4_1,2023-09-15T19:14:43.573Z,,0,,,NaN,,,,,,false,,,,299507.3000000119,299507,,299506.7000000477,,299518.233,8,400,,,
break_continue,html.Screen,4_4_2,2023-09-15T19:14:43.573Z,,0,,,NaN,,,,,,false,,,,299507.7000000477,299507.5,,299507.40000003576,,299518.233,8,400,,,
sequence,flow.Sequence,4_4,2023-09-15T19:14:43.573Z,,0,,,4372.424999999988,completion,,,,,false,,,,299507.90000003576,299507.5,295118.409,295123.10000002384,295135.075,299518.233,8,400,,,
trial,html.Screen,4_5_0,2023-09-15T19:14:47.109Z,,0,1,,3525.0670000119135,response,ISIC_3289574.JPG,6,ISIC_9081663.JPG,ISIC_3289574.JPG,false,1,keypress(m),500,303043.5,303043.3000000119,299501.567,299508.10000002384,299518.233,303057.501,8,400,6,,ISIC_9081663.JPG
break,html.Screen,4_5_1,2023-09-15T19:14:47.110Z,,0,,,NaN,,,,,,false,,,,303044.5,303044.40000003576,,303043.90000003576,,303057.501,8,400,,,
break_continue,html.Screen,4_5_2,2023-09-15T19:14:47.111Z,,0,,,NaN,,,,,,false,,,,303045.10000002384,303044.90000003576,,303044.8000000119,,303057.501,8,400,,,
sequence,flow.Sequence,4_5,2023-09-15T19:14:47.111Z,,0,,,3526.6670000357553,completion,,,,,false,,,,303045.3000000119,303044.90000003576,299501.567,299508,299518.233,303057.501,8,400,,,
trial,html.Screen,4_6_0,2023-09-15T19:14:51.500Z,,0,1,,4376.8990000357735,response,ISIC_0046626.JPG,8,ISIC_0010580.JPG,ISIC_0010580.JPG,false,0,keypress(z),500,307434.7000000477,307434.40000003576,303040.835,303045.40000003576,303057.501,307440.659,8,400,7,,ISIC_0046626.JPG
break,html.Screen,4_6_1,2023-09-15T19:14:51.501Z,,0,,,NaN,,,,,,false,,,,307435.60000002384,307435.40000003576,,307434.90000003576,,307440.659,8,400,,,
break_continue,html.Screen,4_6_2,2023-09-15T19:14:51.501Z,,0,,,NaN,,,,,,false,,,,307436,307435.90000003576,,307435.7000000477,,307440.659,8,400,,,
sequence,flow.Sequence,4_6,2023-09-15T19:14:51.502Z,,0,,,4378.3990000357735,completion,,,,,false,,,,307436.2000000477,307435.90000003576,303040.835,303045.40000003576,303057.501,307440.659,8,400,,,
trial,html.Screen,4_7_0,2023-09-15T19:14:57.917Z,,0,1,,6410.641000011936,response,ISIC_9302863.JPG,6,ISIC_0027986.JPG,ISIC_0027986.JPG,false,0,keypress(z),500,313851.5,313851.3000000119,307423.993,307436.3000000119,307440.659,313862.105,8,400,8,,ISIC_9302863.JPG
break,html.Screen,4_7_1,2023-09-15T19:14:57.918Z,,0,,,NaN,,,,,,false,,,,313852.3000000119,313852.10000002384,,313851.7000000477,,313862.105,8,400,,,
break_continue,html.Screen,4_7_2,2023-09-15T19:14:57.918Z,,0,,,NaN,,,,,,false,,,,313852.7000000477,313852.60000002384,,313852.60000002384,,313862.105,8,400,,,
sequence,flow.Sequence,4_7,2023-09-15T19:14:57.918Z,,0,,,6411.941000023857,completion,,,,,false,,,,313853,313852.60000002384,307423.993,307436.3000000119,307440.659,313862.105,8,400,,,
trial,html.Screen,4_8_0,2023-09-15T19:15:01.996Z,,0,1,,4068.2950000357814,response,ISIC_0250064.JPG,6,ISIC_0011855.JPG,ISIC_0011855.JPG,false,0,keypress(z),500,317930.60000002384,317930.40000003576,313845.439,313853.10000002384,313862.105,317945.275,8,400,9,,ISIC_0250064.JPG
break,html.Screen,4_8_1,2023-09-15T19:15:01.997Z,,0,,,NaN,,,,,,false,,,,317931.5,317931.3000000119,,317930.90000003576,,317945.275,8,400,,,
break_continue,html.Screen,4_8_2,2023-09-15T19:15:01.997Z,,0,,,NaN,,,,,,false,,,,317932,317931.90000003576,,317931.7000000477,,317945.275,8,400,,,
sequence,flow.Sequence,4_8,2023-09-15T19:15:01.998Z,,0,,,4069.7950000357814,completion,,,,,false,,,,317932.2000000477,317931.90000003576,313845.439,313853,313862.105,317945.275,8,400,,,
trial,html.Screen,4_9_0,2023-09-15T19:15:06.028Z,,0,1,,4017.1250000357395,response,ISIC_1714941.JPG,6,ISIC_8935085.JPG,ISIC_8935085.JPG,false,0,keypress(z),500,321962.7000000477,321962.40000003576,317928.609,317932.3000000119,317945.275,321978.447,8,400,10,,ISIC_1714941.JPG
break,html.Screen,4_9_1,2023-09-15T19:15:06.029Z,,0,,,NaN,,,,,,false,,,,321963.60000002384,321963.3000000119,,321962.90000003576,,321978.447,8,400,,,
break_continue,html.Screen,4_9_2,2023-09-15T19:15:06.029Z,,0,,,NaN,,,,,,false,,,,321964,321963.8000000119,,321963.7000000477,,321978.447,8,400,,,
sequence,flow.Sequence,4_9,2023-09-15T19:15:06.030Z,,0,,,4018.5250000118976,completion,,,,,false,,,,321964.10000002384,321963.8000000119,317928.609,317932.3000000119,317945.275,321978.447,8,400,,,
trial,html.Screen,4_10_0,2023-09-15T19:15:11.841Z,,0,1,,5797.353000011935,response,ISIC_6366631.JPG,6,ISIC_4232756.JPG,ISIC_4232756.JPG,false,0,keypress(z),500,327776.10000002384,327775.8000000119,321961.781,321964.2000000477,321978.447,327785.549,8,400,11,,ISIC_6366631.JPG
break,html.Screen,4_10_1,2023-09-15T19:15:11.842Z,,0,,,NaN,,,,,,false,,,,327776.90000003576,327776.7000000477,,327776.3000000119,,327785.549,8,400,,,
break_continue,html.Screen,4_10_2,2023-09-15T19:15:11.843Z,,0,,,NaN,,,,,,false,,,,327777.40000003576,327777.2000000477,,327777.10000002384,,327785.549,8,400,,,
sequence,flow.Sequence,4_10,2023-09-15T19:15:11.843Z,,0,,,5798.753000047698,completion,,,,,false,,,,327777.5,327777.2000000477,321961.781,321964.2000000477,321978.447,327785.549,8,400,,,
trial,html.Screen,4_11_0,2023-09-15T19:15:16.998Z,,0,1,,5146.451000000001,response,ISIC_7528996.JPG,7,ISIC_0013672.JPG,ISIC_0013672.JPG,false,0,keypress(z),500,332932.40000003576,332932,327768.883,327777.7000000477,327785.549,332935.343,8,400,12,,ISIC_7528996.JPG
break,html.Screen,4_11_1,2023-09-15T19:15:16.999Z,,0,,,NaN,,,,,,false,,,,332933.2000000477,332933,,332932.60000002384,,332935.343,8,400,,,
break_continue,html.Screen,4_11_2,2023-09-15T19:15:16.999Z,,0,,,NaN,,,,,,false,,,,332933.7000000477,332933.5,,332933.40000003576,,332935.343,8,400,,,
sequence,flow.Sequence,4_11,2023-09-15T19:15:16.999Z,,0,,,5147.951000000001,completion,,,,,false,,,,332933.90000003576,332933.5,327768.883,327777.60000002384,327785.549,332935.343,8,400,,,
trial,html.Screen,4_12_0,2023-09-15T19:15:21.716Z,,0,1,,4715.057000035769,response,ISIC_0031079.JPG,8,ISIC_7084553.JPG,ISIC_0031079.JPG,false,1,keypress(m),500,337650.7000000477,337650.40000003576,332918.677,332934.10000002384,332935.343,337664.28,8,400,13,,ISIC_7084553.JPG
break,html.Screen,4_12_1,2023-09-15T19:15:21.717Z,,0,,,NaN,,,,,,false,,,,337651.5,337651.3000000119,,337650.90000003576,,337664.28,8,400,,,
break_continue,html.Screen,4_12_2,2023-09-15T19:15:21.717Z,,0,,,NaN,,,,,,false,,,,337651.8000000119,337651.8000000119,,337651.60000002384,,337664.28,8,400,,,
sequence,flow.Sequence,4_12,2023-09-15T19:15:21.717Z,,0,,,4716.457000011927,completion,,,,,false,,,,337652.10000002384,337651.8000000119,332918.677,332934,332935.343,337664.28,8,400,,,
trial,html.Screen,4_13_0,2023-09-15T19:15:25.739Z,,0,1,,4008.719999999972,response,ISIC_0904712.JPG,8,ISIC_4220326.JPG,ISIC_4220326.JPG,false,0,keypress(z),500,341673.2000000477,341673,337647.614,337652.2000000477,337664.28,341680.786,8,400,14,,ISIC_0904712.JPG
break,html.Screen,4_13_1,2023-09-15T19:15:25.740Z,,0,,,NaN,,,,,,false,,,,341674.40000003576,341674.2000000477,,341673.7000000477,,341680.786,8,400,,,
break_continue,html.Screen,4_13_2,2023-09-15T19:15:25.740Z,,0,,,NaN,,,,,,false,,,,341674.90000003576,341674.7000000477,,341674.60000002384,,341680.786,8,400,,,
sequence,flow.Sequence,4_13,2023-09-15T19:15:25.740Z,,0,,,4010.420000047656,completion,,,,,false,,,,341675,341674.7000000477,337647.614,337652.2000000477,337664.28,341680.786,8,400,,,
trial,html.Screen,4_14_0,2023-09-15T19:15:31.611Z,,0,1,,5865.014000011899,response,ISIC_0063672.JPG,8,ISIC_0027712.JPG,ISIC_0027712.JPG,false,0,keypress(z),500,347546,347545.8000000119,341664.12,341675.2000000477,341680.786,347567.013,8,400,15,,ISIC_0063672.JPG
break,html.Screen,4_14_1,2023-09-15T19:15:31.612Z,,0,,,NaN,,,,,,false,,,,347546.5,347546.40000003576,,347546.2000000477,,347567.013,8,400,,,
break_continue,html.Screen,4_14_2,2023-09-15T19:15:31.612Z,,0,,,NaN,,,,,,false,,,,347546.8000000119,347546.7000000477,,347546.7000000477,,347567.013,8,400,,,
sequence,flow.Sequence,4_14,2023-09-15T19:15:31.612Z,,0,,,5865.914000047662,completion,,,,,false,,,,347547,347546.7000000477,341664.12,341675.10000002384,341680.786,347567.013,8,400,,,
trial,html.Screen,4_15_0,2023-09-15T19:15:37.521Z,,0,1,,5888.287000011944,response,ISIC_2847555.JPG,8,ISIC_9228729.JPG,ISIC_9228729.JPG,false,0,keypress(z),500,353455.5,353455.3000000119,347550.347,347547.10000002384,347567.013,353466.777,8,400,16,,ISIC_2847555.JPG
break,html.Screen,4_15_1,2023-09-15T19:15:37.522Z,,0,,,NaN,,,,,,false,,,,353456.3000000119,353456.2000000477,,353455.7000000477,,353466.777,8,400,,,
break_continue,html.Screen,4_15_2,2023-09-15T19:15:37.522Z,,0,,,NaN,,,,,,false,,,,353456.8000000119,353456.7000000477,,353456.5,,353466.777,8,400,,,
sequence,flow.Sequence,4_15,2023-09-15T19:15:37.522Z,,0,,,5889.6870000477065,completion,,,,,false,,,,353457,353456.7000000477,347550.347,347547.10000002384,347567.013,353466.777,8,400,,,
trial,html.Screen,4_16_0,2023-09-15T19:15:41.815Z,,0,1,,4282.32300002384,response,ISIC_0054767.JPG,7,ISIC_6069236.JPG,ISIC_0054767.JPG,false,1,keypress(m),500,357749.40000003576,357749.10000002384,353450.111,353457.10000002384,353466.777,357762.122,8,400,17,,ISIC_6069236.JPG
break,html.Screen,4_16_1,2023-09-15T19:15:41.816Z,,0,,,NaN,,,,,,false,,,,357750.2000000477,357750,,357749.60000002384,,357762.122,8,400,,,
break_continue,html.Screen,4_16_2,2023-09-15T19:15:41.816Z,,0,,,NaN,,,,,,false,,,,357750.60000002384,357750.5,,357750.40000003576,,357762.122,8,400,,,
sequence,flow.Sequence,4_16,2023-09-15T19:15:41.816Z,,0,,,4283.722999999998,completion,,,,,false,,,,357750.8000000119,357750.5,353450.111,353457.10000002384,353466.777,357762.122,8,400,,,
trial,html.Screen,4_17_0,2023-09-15T19:15:45.892Z,,0,1,,4063.978000023868,response,ISIC_0011460.JPG,7,ISIC_0065480.JPG,ISIC_0011460.JPG,false,1,keypress(m),500,361826.3000000119,361826.10000002384,357745.456,357751.10000002384,357762.122,361828.626,8,400,18,,ISIC_0065480.JPG
break,html.Screen,4_17_1,2023-09-15T19:15:45.893Z,,0,,,NaN,,,,,,false,,,,361827.2000000477,361827,,361826.60000002384,,361828.626,8,400,,,
break_continue,html.Screen,4_17_2,2023-09-15T19:15:45.893Z,,0,,,NaN,,,,,,false,,,,361827.60000002384,361827.5,,361827.3000000119,,361828.626,8,400,,,
sequence,flow.Sequence,4_17,2023-09-15T19:15:45.893Z,,0,,,4065.378000000026,completion,,,,,false,,,,361827.8000000119,361827.5,357745.456,357750.90000003576,357762.122,361828.626,8,400,,,
trial,html.Screen,4_18_0,2023-09-15T19:15:49.380Z,,0,1,,3485.5740000476944,response,ISIC_0011793.JPG,5,ISIC_7629589.JPG,ISIC_7629589.JPG,false,0,keypress(z),500,365314.5,365314.2000000477,361811.96,361828,361828.626,365328.486,8,400,19,,ISIC_0011793.JPG
break,html.Screen,4_18_1,2023-09-15T19:15:49.381Z,,0,,,NaN,,,,,,false,,,,365315.40000003576,365315.2000000477,,365314.8000000119,,365328.486,8,400,,,
break_continue,html.Screen,4_18_2,2023-09-15T19:15:49.381Z,,0,,,NaN,,,,,,false,,,,365315.90000003576,365315.8000000119,,365315.60000002384,,365328.486,8,400,,,
sequence,flow.Sequence,4_18,2023-09-15T19:15:49.381Z,,0,,,3487.1740000119316,completion,,,,,false,,,,365316.10000002384,365315.8000000119,361811.96,361827.90000003576,361828.626,365328.486,8,400,,,
trial,html.Screen,4_19_0,2023-09-15T19:15:55.978Z,,0,1,,6583.514000000025,response,ISIC_0026360.JPG,9,ISIC_0071196.JPG,ISIC_0026360.JPG,false,1,keypress(m),500,371912.2000000477,371912,365311.82,365316.3000000119,365328.486,371913.534,8,400,20,,ISIC_0071196.JPG
break,html.Screen,4_19_1,2023-09-15T19:15:55.978Z,,0,,,NaN,,,,,,false,,,,371913.10000002384,371912.90000003576,,371912.40000003576,,371913.534,8,400,,,
break_continue,html.Screen,4_19_2,2023-09-15T19:15:55.979Z,,0,,,NaN,,,,,,false,,,,371913.5,371913.3000000119,,371913.2000000477,,371913.534,8,400,,,
sequence,flow.Sequence,4_19,2023-09-15T19:15:55.979Z,,0,,,6584.814000011946,completion,,,,,false,,,,371913.7000000477,371913.3000000119,365311.82,365316.2000000477,365328.486,371913.534,8,400,,,
trial,html.Screen,4_20_0,2023-09-15T19:16:02.940Z,,0,1,,6961.166000047699,response,ISIC_0046633.JPG,7,ISIC_0054292.JPG,ISIC_0046633.JPG,false,1,keypress(m),500,378874.90000003576,378874.7000000477,371896.868,371913.8000000119,371913.534,378885.998,8,400,21,,ISIC_0054292.JPG
break,html.Screen,4_20_1,2023-09-15T19:16:02.941Z,,0,,,NaN,,,,,,false,,,,378875.8000000119,378875.60000002384,,378875.2000000477,,378885.998,8,400,,,
break_continue,html.Screen,4_20_2,2023-09-15T19:16:02.942Z,,0,,,NaN,,,,,,false,,,,378876.3000000119,378876.10000002384,,378876,,378885.998,8,400,,,
sequence,flow.Sequence,4_20,2023-09-15T19:16:02.942Z,,0,,,6962.566000023857,completion,,,,,false,,,,378876.5,378876.10000002384,371896.868,371913.8000000119,371913.534,378885.998,8,400,,,
trial,html.Screen,4_21_0,2023-09-15T19:16:09.011Z,,0,1,,6059.501999999979,response,ISIC_9210086.JPG,8,ISIC_0003851.JPG,ISIC_9210086.JPG,false,1,keypress(m),500,384945.8000000119,384945.5,378869.332,378876.60000002384,378885.998,384952.422,8,400,22,,ISIC_0003851.JPG
break,html.Screen,4_21_1,2023-09-15T19:16:09.012Z,,0,,,NaN,,,,,,false,,,,384946.60000002384,384946.40000003576,,384946,,384952.422,8,400,,,
break_continue,html.Screen,4_21_2,2023-09-15T19:16:09.012Z,,0,,,NaN,,,,,,false,,,,384947,384946.90000003576,,384946.8000000119,,384952.422,8,400,,,
sequence,flow.Sequence,4_21,2023-09-15T19:16:09.013Z,,0,,,6060.902000035741,completion,,,,,false,,,,384947.3000000119,384946.90000003576,378869.332,378876.60000002384,378885.998,384952.422,8,400,,,
trial,html.Screen,4_22_0,2023-09-15T19:16:12.522Z,,0,1,,3503.778000047663,response,ISIC_0064261.JPG,5,ISIC_0033603.JPG,ISIC_0064261.JPG,false,1,keypress(m),500,388456.40000003576,388456.2000000477,384935.756,384947.40000003576,384952.422,388468.948,8,400,23,,ISIC_0033603.JPG
break,html.Screen,4_22_1,2023-09-15T19:16:12.523Z,,0,,,NaN,,,,,,false,,,,388457.2000000477,388457,,388456.60000002384,,388468.948,8,400,,,
break_continue,html.Screen,4_22_2,2023-09-15T19:16:12.523Z,,0,,,NaN,,,,,,false,,,,388457.7000000477,388457.5,,388457.40000003576,,388468.948,8,400,,,
sequence,flow.Sequence,4_22,2023-09-15T19:16:12.523Z,,0,,,3505.0779999999795,completion,,,,,false,,,,388457.90000003576,388457.5,384935.756,384947.40000003576,384952.422,388468.948,8,400,,,
trial,html.Screen,4_23_0,2023-09-15T19:16:16.992Z,,0,1,,4457.352000011946,response,ISIC_0058998.JPG,8,ISIC_1473511.JPG,ISIC_0058998.JPG,false,1,keypress(m),500,392926.60000002384,392926.3000000119,388452.282,388458,388468.948,392939.946,8,400,24,,ISIC_1473511.JPG
break,html.Screen,4_23_1,2023-09-15T19:16:16.993Z,,0,,,NaN,,,,,,false,,,,392927.5,392927.3000000119,,392926.90000003576,,392939.946,8,400,,,
break_continue,html.Screen,4_23_2,2023-09-15T19:16:16.993Z,,0,,,NaN,,,,,,false,,,,392928,392927.8000000119,,392927.7000000477,,392939.946,8,400,,,
sequence,flow.Sequence,4_23,2023-09-15T19:16:16.993Z,,0,,,4458.852000011946,completion,,,,,false,,,,392928.10000002384,392927.8000000119,388452.282,388458,388468.948,392939.946,8,400,,,
trial,html.Screen,4_24_0,2023-09-15T19:16:20.742Z,,0,1,,3736.1540000238456,response,ISIC_6927363.JPG,8,ISIC_0031611.JPG,ISIC_6927363.JPG,false,1,keypress(m),500,396676.3000000119,396676.10000002384,392923.28,392928.3000000119,392939.946,396689.796,8,400,25,,ISIC_0031611.JPG
break,html.Screen,4_24_1,2023-09-15T19:16:20.743Z,,0,,,NaN,,,,,,false,,,,396677.3000000119,396677,,396676.60000002384,,396689.796,8,400,,,
break_continue,html.Screen,4_24_2,2023-09-15T19:16:20.743Z,,0,,,NaN,,,,,,false,,,,396677.8000000119,396677.7000000477,,396677.5,,396689.796,8,400,,,
sequence,flow.Sequence,4_24,2023-09-15T19:16:20.743Z,,0,,,3737.7540000476874,completion,,,,,false,,,,396678.10000002384,396677.7000000477,392923.28,392928.2000000477,392939.946,396689.796,8,400,,,
trial,html.Screen,4_25_0,2023-09-15T19:16:26.299Z,,0,1,,5543.904000047711,response,ISIC_6661904.JPG,8,ISIC_9527051.JPG,ISIC_9527051.JPG,false,0,keypress(z),500,402233.90000003576,402233.7000000477,396673.13,396678.2000000477,396689.796,402234.868,8,400,26,,ISIC_6661904.JPG
break,html.Screen,4_25_1,2023-09-15T19:16:26.300Z,,0,,,NaN,,,,,,false,,,,402234.8000000119,402234.60000002384,,402234.10000002384,,402234.868,8,400,,,
break_continue,html.Screen,4_25_2,2023-09-15T19:16:26.300Z,,0,,,NaN,,,,,,false,,,,402235.2000000477,402235.10000002384,,402234.90000003576,,402234.868,8,400,,,
sequence,flow.Sequence,4_25,2023-09-15T19:16:26.301Z,,0,,,5545.304000023869,completion,,,,,false,,,,402235.3000000119,402235.10000002384,396673.13,396678.2000000477,396689.796,402234.868,8,400,,,
trial,html.Screen,4_26_0,2023-09-15T19:16:30.751Z,,0,1,,4450.932000011904,response,ISIC_6942437.JPG,6,ISIC_0033429.JPG,ISIC_0033429.JPG,false,0,keypress(z),500,406686.10000002384,406685.8000000119,402218.202,402235.5,402234.868,406701.356,8,400,27,,ISIC_6942437.JPG
break,html.Screen,4_26_1,2023-09-15T19:16:30.752Z,,0,,,NaN,,,,,,false,,,,406687.10000002384,406686.8000000119,,406686.40000003576,,406701.356,8,400,,,
break_continue,html.Screen,4_26_2,2023-09-15T19:16:30.753Z,,0,,,NaN,,,,,,false,,,,406687.5,406687.40000003576,,406687.3000000119,,406701.356,8,400,,,
sequence,flow.Sequence,4_26,2023-09-15T19:16:30.753Z,,0,,,4452.532000035746,completion,,,,,false,,,,406687.7000000477,406687.40000003576,402218.202,402235.5,402234.868,406701.356,8,400,,,
trial,html.Screen,4_27_0,2023-09-15T19:16:34.491Z,,0,1,,3723.744000023813,response,ISIC_0558485.JPG,8,ISIC_9072034.JPG,ISIC_9072034.JPG,false,0,keypress(z),500,410425.3000000119,410425.10000002384,406684.69,406687.90000003576,406701.356,410426.584,8,400,28,,ISIC_0558485.JPG
break,html.Screen,4_27_1,2023-09-15T19:16:34.491Z,,0,,,NaN,,,,,,false,,,,410426.2000000477,410426,,410425.60000002384,,410426.584,8,400,,,
break_continue,html.Screen,4_27_2,2023-09-15T19:16:34.492Z,,0,,,NaN,,,,,,false,,,,410426.7000000477,410426.5,,410426.40000003576,,410426.584,8,400,,,
sequence,flow.Sequence,4_27,2023-09-15T19:16:34.492Z,,0,,,3725.143999999971,completion,,,,,false,,,,410426.90000003576,410426.5,406684.69,406687.90000003576,406701.356,410426.584,8,400,,,
trial,html.Screen,4_28_0,2023-09-15T19:16:39.537Z,,0,1,,5045.11600004771,response,ISIC_8654660.JPG,8,ISIC_0000452.JPG,ISIC_0000452.JPG,false,0,keypress(z),500,415472,415471.7000000477,410409.918,410426.90000003576,410426.584,415476.382,8,400,29,,ISIC_8654660.JPG
break,html.Screen,4_28_1,2023-09-15T19:16:39.538Z,,0,,,NaN,,,,,,false,,,,415472.90000003576,415472.60000002384,,415472.2000000477,,415476.382,8,400,,,
break_continue,html.Screen,4_28_2,2023-09-15T19:16:39.539Z,,0,,,NaN,,,,,,false,,,,415473.3000000119,415473.2000000477,,415473,,415476.382,8,400,,,
sequence,flow.Sequence,4_28,2023-09-15T19:16:39.539Z,,0,,,5046.61600004771,completion,,,,,false,,,,415473.5,415473.2000000477,410409.918,410426.90000003576,410426.584,415476.382,8,400,,,
trial,html.Screen,4_29_0,2023-09-15T19:16:43.115Z,,0,1,,3573.0180000357796,response,ISIC_3236964.JPG,6,ISIC_6581765.JPG,ISIC_3236964.JPG,false,1,keypress(m),500,419049.8000000119,419049.40000003576,415459.716,415473.7000000477,415476.382,419059.572,8,400,30,,ISIC_6581765.JPG
break,html.Screen,4_29_1,2023-09-15T19:16:43.116Z,,0,,,NaN,,,,,,false,,,,419050.5,419050.3000000119,,419050,,419059.572,8,400,,,
break_continue,html.Screen,4_29_2,2023-09-15T19:16:43.116Z,,0,,,NaN,,,,,,false,,,,419050.90000003576,419050.8000000119,,419050.7000000477,,419059.572,8,400,,,
sequence,flow.Sequence,4_29,2023-09-15T19:16:43.116Z,,0,,,3574.4180000119377,completion,,,,,false,,,,419051.2000000477,419050.8000000119,415459.716,415473.60000002384,415476.382,419059.572,8,400,,,
trial,html.Screen,4_30_0,2023-09-15T19:16:48.754Z,,0,1,,5628.828000035777,response,ISIC_6323420.JPG,9,ISIC_5298608.JPG,ISIC_6323420.JPG,false,1,keypress(m),500,424688.7000000477,424688.40000003576,419042.906,419051.3000000119,419059.572,424698.411,8,400,31,,ISIC_5298608.JPG
break,html.Screen,4_30_1,2023-09-15T19:16:48.755Z,,0,,,NaN,,,,,,false,,,,424689.5,424689.3000000119,,424688.90000003576,,424698.411,8,400,,,
break_continue,html.Screen,4_30_2,2023-09-15T19:16:48.755Z,,0,,,NaN,,,,,,false,,,,424690,424689.8000000119,,424689.7000000477,,424698.411,8,400,,,
sequence,flow.Sequence,4_30,2023-09-15T19:16:48.755Z,,0,,,5630.228000011935,completion,,,,,false,,,,424690.2000000477,424689.8000000119,419042.906,419051.2000000477,419059.572,424698.411,8,400,,,
trial,html.Screen,4_31_0,2023-09-15T19:16:52.677Z,,0,1,,3912.789000047662,response,ISIC_0031417.JPG,6,ISIC_0027431.JPG,ISIC_0027431.JPG,false,0,keypress(z),500,428611.5,428611.2000000477,424681.745,424690.40000003576,424698.411,428614.921,8,400,32,,ISIC_0031417.JPG
break,html.Screen,4_31_1,2023-09-15T19:16:52.678Z,,0,,,NaN,,,,,,false,,,,428612.3000000119,428612.10000002384,,428611.7000000477,,428614.921,8,400,,,
break_continue,html.Screen,4_31_2,2023-09-15T19:16:52.678Z,,0,,,NaN,,,,,,false,,,,428612.7000000477,428612.60000002384,,428612.5,,428614.921,8,400,,,
sequence,flow.Sequence,4_31,2023-09-15T19:16:52.678Z,,0,,,3914.18900002382,completion,,,,,false,,,,428613,428612.60000002384,424681.745,424690.2000000477,424698.411,428614.921,8,400,,,
trial,html.Screen,4_32_0,2023-09-15T19:16:57.076Z,,0,1,,4395.379000011948,response,ISIC_0010208.JPG,8,ISIC_0021271.JPG,ISIC_0010208.JPG,false,1,keypress(m),500,433010.60000002384,433010.3000000119,428598.255,428613.10000002384,428614.921,433012.504,8,400,33,,ISIC_0021271.JPG
break,html.Screen,4_32_1,2023-09-15T19:16:57.077Z,,0,,,NaN,,,,,,false,,,,433011.5,433011.3000000119,,433010.90000003576,,433012.504,8,400,,,
break_continue,html.Screen,4_32_2,2023-09-15T19:16:57.077Z,,0,,,NaN,,,,,,false,,,,433011.90000003576,433011.8000000119,,433011.60000002384,,433012.504,8,400,,,
sequence,flow.Sequence,4_32,2023-09-15T19:16:57.077Z,,0,,,4396.879000011948,completion,,,,,false,,,,433012.10000002384,433011.8000000119,428598.255,428613.10000002384,428614.921,433012.504,8,400,,,
trial,html.Screen,4_33_0,2023-09-15T19:17:01.781Z,,0,1,,4702.995999999985,response,ISIC_0011633.JPG,8,ISIC_2532544.JPG,ISIC_0011633.JPG,false,1,keypress(m),500,437715.7000000477,437715.5,432995.838,433012.2000000477,433012.504,437728.982,8,400,34,,ISIC_2532544.JPG
break,html.Screen,4_33_1,2023-09-15T19:17:01.782Z,,0,,,NaN,,,,,,false,,,,437716.5,437716.40000003576,,437716,,437728.982,8,400,,,
break_continue,html.Screen,4_33_2,2023-09-15T19:17:01.782Z,,0,,,NaN,,,,,,false,,,,437717,437716.90000003576,,437716.7000000477,,437728.982,8,400,,,
sequence,flow.Sequence,4_33,2023-09-15T19:17:01.782Z,,0,,,4704.396000035747,completion,,,,,false,,,,437717.3000000119,437716.90000003576,432995.838,433012.2000000477,433012.504,437728.982,8,400,,,
trial,html.Screen,4_34_0,2023-09-15T19:17:05.753Z,,0,1,,3959.017999999982,response,ISIC_6119208.JPG,8,ISIC_0063243.JPG,ISIC_0063243.JPG,false,0,keypress(z),500,441688.3000000119,441688,437712.316,437717.40000003576,437728.982,441694.953,8,400,35,,ISIC_6119208.JPG
break,html.Screen,4_34_1,2023-09-15T19:17:05.754Z,,0,,,NaN,,,,,,false,,,,441689.10000002384,441688.90000003576,,441688.5,,441694.953,8,400,,,
break_continue,html.Screen,4_34_2,2023-09-15T19:17:05.755Z,,0,,,NaN,,,,,,false,,,,441689.5,441689.40000003576,,441689.3000000119,,441694.953,8,400,,,
sequence,flow.Sequence,4_34,2023-09-15T19:17:05.755Z,,0,,,3960.4180000357446,completion,,,,,false,,,,441689.7000000477,441689.40000003576,437712.316,437717.3000000119,437728.982,441694.953,8,400,,,
trial,html.Screen,4_35_0,2023-09-15T19:17:09.645Z,,0,1,,3884.247000047704,response,ISIC_0032993.JPG,9,ISIC_0011510.JPG,ISIC_0011510.JPG,false,0,keypress(z),500,445579.40000003576,445579.2000000477,441678.287,441689.90000003576,441694.953,445594.797,8,400,36,,ISIC_0032993.JPG
break,html.Screen,4_35_1,2023-09-15T19:17:09.646Z,,0,,,NaN,,,,,,false,,,,445580.40000003576,445580.10000002384,,445579.7000000477,,445594.797,8,400,,,
break_continue,html.Screen,4_35_2,2023-09-15T19:17:09.646Z,,0,,,NaN,,,,,,false,,,,445580.90000003576,445580.7000000477,,445580.60000002384,,445594.797,8,400,,,
sequence,flow.Sequence,4_35,2023-09-15T19:17:09.646Z,,0,,,3885.747000047704,completion,,,,,false,,,,445581,445580.7000000477,441678.287,441689.8000000119,441694.953,445594.797,8,400,,,
trial,html.Screen,4_36_0,2023-09-15T19:17:13.165Z,,0,1,,3504.6030000357423,response,ISIC_5132214.JPG,9,ISIC_5854552.JPG,ISIC_5132214.JPG,false,1,keypress(m),500,449099.7000000477,449099.40000003576,445578.131,445581.2000000477,445594.797,449111.323,8,400,37,,ISIC_5854552.JPG
break,html.Screen,4_36_1,2023-09-15T19:17:13.166Z,,0,,,NaN,,,,,,false,,,,449100.5,449100.3000000119,,449099.90000003576,,449111.323,8,400,,,
break_continue,html.Screen,4_36_2,2023-09-15T19:17:13.166Z,,0,,,NaN,,,,,,false,,,,449100.90000003576,449100.8000000119,,449100.7000000477,,449111.323,8,400,,,
sequence,flow.Sequence,4_36,2023-09-15T19:17:13.166Z,,0,,,3506.0030000119004,completion,,,,,false,,,,449101.10000002384,449100.8000000119,445578.131,445581.2000000477,445594.797,449111.323,8,400,,,
trial,html.Screen,4_37_0,2023-09-15T19:17:16.945Z,,0,1,,3768.477000011946,response,ISIC_0005028.JPG,7,ISIC_0061915.JPG,ISIC_0061915.JPG,false,0,keypress(z),500,452880.10000002384,452879.8000000119,449094.657,449101.3000000119,449111.323,452892.766,8,400,38,,ISIC_0005028.JPG
break,html.Screen,4_37_1,2023-09-15T19:17:16.946Z,,0,,,NaN,,,,,,false,,,,452880.90000003576,452880.60000002384,,452880.40000003576,,452892.766,8,400,,,
break_continue,html.Screen,4_37_2,2023-09-15T19:17:16.946Z,,0,,,NaN,,,,,,false,,,,452881.3000000119,452881.2000000477,,452881,,452892.766,8,400,,,
sequence,flow.Sequence,4_37,2023-09-15T19:17:16.947Z,,0,,,3769.877000047709,completion,,,,,false,,,,452881.5,452881.2000000477,449094.657,449101.2000000477,449111.323,452892.766,8,400,,,
trial,html.Screen,4_38_0,2023-09-15T19:17:20.550Z,,0,1,,3591.5340000119177,response,ISIC_5296963.JPG,7,ISIC_2957732.JPG,ISIC_5296963.JPG,false,1,keypress(m),500,456484.60000002384,456484.3000000119,452876.1,452881.7000000477,452892.766,456492.622,8,400,39,,ISIC_2957732.JPG
break,html.Screen,4_38_1,2023-09-15T19:17:20.551Z,,0,,,NaN,,,,,,false,,,,456485.5,456485.2000000477,,456484.8000000119,,456492.622,8,400,,,
break_continue,html.Screen,4_38_2,2023-09-15T19:17:20.551Z,,0,,,NaN,,,,,,false,,,,456485.90000003576,456485.7000000477,,456485.60000002384,,456492.622,8,400,,,
sequence,flow.Sequence,4_38,2023-09-15T19:17:20.551Z,,0,,,3592.9340000476805,completion,,,,,false,,,,456486,456485.7000000477,452876.1,452881.60000002384,452892.766,456492.622,8,400,,,
trial,html.Screen,4_39_0,2023-09-15T19:17:24.493Z,,0,1,,3934.778000035789,response,ISIC_0057371.JPG,7,ISIC_0786233.JPG,ISIC_0786233.JPG,false,0,keypress(z),500,460427.7000000477,460427.40000003576,456475.956,456486.2000000477,456492.622,460442.464,8,400,40,,ISIC_0057371.JPG
break,html.Screen,4_39_1,2023-09-15T19:17:24.494Z,,0,,,NaN,,,,,,false,,,,460428.5,460428.3000000119,,460427.90000003576,,460442.464,8,400,,,
break_continue,html.Screen,4_39_2,2023-09-15T19:17:24.494Z,,0,,,NaN,,,,,,false,,,,460428.90000003576,460428.8000000119,,460428.7000000477,,460442.464,8,400,,,
sequence,flow.Sequence,4_39,2023-09-15T19:17:24.494Z,,0,,,3936.178000011947,completion,,,,,false,,,,460429.2000000477,460428.8000000119,456475.956,456486.10000002384,456492.622,460442.464,8,400,,,
trial,html.Screen,4_40_0,2023-09-15T19:17:28.533Z,,0,1,,4024.6360000238637,response,ISIC_0033444.JPG,9,ISIC_0029944.JPG,ISIC_0029944.JPG,false,0,keypress(z),500,464467.40000003576,464467.10000002384,460425.798,460429.2000000477,460442.464,464471.489,8,400,41,,ISIC_0033444.JPG
break,html.Screen,4_40_1,2023-09-15T19:17:28.533Z,,0,,,NaN,,,,,,false,,,,464468.2000000477,464467.90000003576,,464467.7000000477,,464471.489,8,400,,,
break_continue,html.Screen,4_40_2,2023-09-15T19:17:28.534Z,,0,,,NaN,,,,,,false,,,,464468.7000000477,464468.5,,464468.40000003576,,464471.489,8,400,,,
sequence,flow.Sequence,4_40,2023-09-15T19:17:28.534Z,,0,,,4026.036000000022,completion,,,,,false,,,,464468.8000000119,464468.5,460425.798,460429.2000000477,460442.464,464471.489,8,400,,,
trial,html.Screen,4_41_0,2023-09-15T19:17:34.555Z,,0,1,,6018.1110000238405,response,ISIC_0030129.JPG,7,ISIC_5563553.JPG,ISIC_5563553.JPG,false,0,keypress(z),500,470489.90000003576,470489.60000002384,464454.823,464469,464471.489,470504.581,8,400,42,,ISIC_0030129.JPG
break,html.Screen,4_41_1,2023-09-15T19:17:34.556Z,,0,,,NaN,,,,,,false,,,,470490.7000000477,470490.5,,470490.10000002384,,470504.581,8,400,,,
break_continue,html.Screen,4_41_2,2023-09-15T19:17:34.556Z,,0,,,NaN,,,,,,false,,,,470491.2000000477,470491,,470491,,470504.581,8,400,,,
sequence,flow.Sequence,4_41,2023-09-15T19:17:34.556Z,,0,,,6019.510999999999,completion,,,,,false,,,,470491.3000000119,470491,464454.823,464468.90000003576,464471.489,470504.581,8,400,,,
trial,html.Screen,4_42_0,2023-09-15T19:17:38.353Z,,0,1,,3783.2190000119153,response,ISIC_0033090.JPG,8,ISIC_2513481.JPG,ISIC_2513481.JPG,false,0,keypress(z),500,474288.10000002384,474287.8000000119,470487.915,470491.5,470504.581,474297.327,8,400,43,,ISIC_0033090.JPG
break,html.Screen,4_42_1,2023-09-15T19:17:38.354Z,,0,,,NaN,,,,,,false,,,,474288.8000000119,474288.7000000477,,474288.3000000119,,474297.327,8,400,,,
break_continue,html.Screen,4_42_2,2023-09-15T19:17:38.354Z,,0,,,NaN,,,,,,false,,,,474289.3000000119,474289.10000002384,,474289.10000002384,,474297.327,8,400,,,
sequence,flow.Sequence,4_42,2023-09-15T19:17:38.355Z,,0,,,3784.5190000238363,completion,,,,,false,,,,474289.5,474289.10000002384,470487.915,470491.5,470504.581,474297.327,8,400,,,
trial,html.Screen,4_43_0,2023-09-15T19:17:42.811Z,,0,1,,4447.773000023852,response,ISIC_3232329.JPG,6,ISIC_0032313.JPG,ISIC_3232329.JPG,false,1,keypress(m),500,478745.40000003576,478745.10000002384,474280.661,474289.60000002384,474297.327,478747.149,8,400,44,,ISIC_0032313.JPG
break,html.Screen,4_43_1,2023-09-15T19:17:42.811Z,,0,,,NaN,,,,,,false,,,,478746.2000000477,478746,,478745.7000000477,,478747.149,8,400,,,
break_continue,html.Screen,4_43_2,2023-09-15T19:17:42.812Z,,0,,,NaN,,,,,,false,,,,478746.7000000477,478746.5,,478746.40000003576,,478747.149,8,400,,,
sequence,flow.Sequence,4_43,2023-09-15T19:17:42.812Z,,0,,,4449.17300000001,completion,,,,,false,,,,478746.8000000119,478746.5,474280.661,474289.60000002384,474297.327,478747.149,8,400,,,
trial,html.Screen,4_44_0,2023-09-15T19:17:47.214Z,,0,1,,4401.951000023866,response,ISIC_0069952.JPG,7,ISIC_1350519.JPG,ISIC_1350519.JPG,false,0,keypress(z),500,483149.3000000119,483149.10000002384,478730.483,478747,478747.149,483163.11,8,400,45,,ISIC_0069952.JPG
break,html.Screen,4_44_1,2023-09-15T19:17:47.215Z,,0,,,NaN,,,,,,false,,,,483150.2000000477,483150,,483149.60000002384,,483163.11,8,400,,,
break_continue,html.Screen,4_44_2,2023-09-15T19:17:47.216Z,,0,,,NaN,,,,,,false,,,,483150.7000000477,483150.40000003576,,483150.3000000119,,483163.11,8,400,,,
sequence,flow.Sequence,4_44,2023-09-15T19:17:47.216Z,,0,,,4403.251000035787,completion,,,,,false,,,,483150.8000000119,483150.40000003576,478730.483,478747,478747.149,483163.11,8,400,,,
trial,html.Screen,4_45_0,2023-09-15T19:17:51.669Z,,0,1,,4440.790000035777,response,ISIC_5555140.JPG,8,ISIC_8733745.JPG,ISIC_8733745.JPG,false,0,keypress(z),500,487604.2000000477,487603.90000003576,483146.444,483150.90000003576,483163.11,487612.932,8,400,46,,ISIC_5555140.JPG
break,html.Screen,4_45_1,2023-09-15T19:17:51.670Z,,0,,,NaN,,,,,,false,,,,487605,487604.8000000119,,487604.40000003576,,487612.932,8,400,,,
break_continue,html.Screen,4_45_2,2023-09-15T19:17:51.671Z,,0,,,NaN,,,,,,false,,,,487605.5,487605.3000000119,,487605.2000000477,,487612.932,8,400,,,
sequence,flow.Sequence,4_45,2023-09-15T19:17:51.671Z,,0,,,4442.190000011935,completion,,,,,false,,,,487605.60000002384,487605.3000000119,483146.444,483150.90000003576,483163.11,487612.932,8,400,,,
trial,html.Screen,4_46_0,2023-09-15T19:17:56.316Z,,0,1,,4637.568000000028,response,ISIC_8263741.JPG,8,ISIC_0011709.JPG,ISIC_8263741.JPG,false,1,keypress(m),500,492250.7000000477,492250.5,487596.266,487605.7000000477,487612.932,492262.746,8,400,47,,ISIC_0011709.JPG
break,html.Screen,4_46_1,2023-09-15T19:17:56.317Z,,0,,,NaN,,,,,,false,,,,492251.5,492251.40000003576,,492250.90000003576,,492262.746,8,400,,,
break_continue,html.Screen,4_46_2,2023-09-15T19:17:56.317Z,,0,,,NaN,,,,,,false,,,,492251.90000003576,492251.90000003576,,492251.8000000119,,492262.746,8,400,,,
sequence,flow.Sequence,4_46,2023-09-15T19:17:56.317Z,,0,,,4638.968000035791,completion,,,,,false,,,,492252.2000000477,492251.90000003576,487596.266,487605.7000000477,487612.932,492262.746,8,400,,,
trial,html.Screen,4_47_0,2023-09-15T19:17:59.921Z,,0,1,,3593.0540000119363,response,ISIC_7482149.JPG,8,ISIC_4764568.JPG,ISIC_7482149.JPG,false,1,keypress(m),500,495856,495855.8000000119,492246.08,492252.3000000119,492262.746,495868.054,8,400,48,,ISIC_4764568.JPG
break,html.Screen,4_47_1,2023-09-15T19:17:59.922Z,,0,,,NaN,,,,,,false,,,,495856.90000003576,495856.60000002384,,495856.3000000119,,495868.054,8,400,,,
break_continue,html.Screen,4_47_2,2023-09-15T19:17:59.922Z,,0,,,NaN,,,,,,false,,,,495857.3000000119,495857.2000000477,,495857,,495868.054,8,400,,,
sequence,flow.Sequence,4_47,2023-09-15T19:17:59.923Z,,0,,,3594.454000047699,completion,,,,,false,,,,495857.60000002384,495857.2000000477,492246.08,492252.3000000119,492262.746,495868.054,8,400,,,
trial,html.Screen,4_48_0,2023-09-15T19:18:04.875Z,,0,1,,4941.64600004768,response,ISIC_0028565.JPG,7,ISIC_0485417.JPG,ISIC_0028565.JPG,false,1,keypress(m),500,500809.90000003576,500809.7000000477,495851.388,495857.7000000477,495868.054,500817.856,8,400,49,,ISIC_0485417.JPG
break,html.Screen,4_48_1,2023-09-15T19:18:04.876Z,,0,,,NaN,,,,,,false,,,,500810.90000003576,500810.60000002384,,500810.2000000477,,500817.856,8,400,,,
break_continue,html.Screen,4_48_2,2023-09-15T19:18:04.876Z,,0,,,NaN,,,,,,false,,,,500811.3000000119,500811.10000002384,,500811,,500817.856,8,400,,,
sequence,flow.Sequence,4_48,2023-09-15T19:18:04.877Z,,0,,,4943.046000023838,completion,,,,,false,,,,500811.5,500811.10000002384,495851.388,495857.7000000477,495868.054,500817.856,8,400,,,
trial,html.Screen,4_49_0,2023-09-15T19:18:08.844Z,,0,1,,3961.244000023813,response,ISIC_0000239.JPG,6,ISIC_0066588.JPG,ISIC_0066588.JPG,false,0,keypress(z),500,504779.40000003576,504779.10000002384,500801.19,500811.7000000477,500817.856,504785.621,8,400,50,,ISIC_0000239.JPG
break,html.Screen,4_49_1,2023-09-15T19:18:18.831Z,,0,,,9995.607000000018,timeout,,,,,false,,,,514766,514764.562,504768.955,504779.60000002384,504785.621,514781.228,8,400,,,
break_continue,html.Screen,4_49_2,2023-09-15T19:18:21.134Z,,0,,,2272.972000047681,response,,,,,false,continue,keypress(Space),,517068.7000000477,517054.2000000477,514764.562,514766.10000002384,514781.228,517081.136,8,400,,,
sequence,flow.Sequence,4_49,2023-09-15T19:18:21.134Z,,0,,,16236.344000047655,completion,,,,,false,,,,517069,517054.2000000477,500801.19,500811.60000002384,500817.856,517081.136,8,400,,,
trial,html.Screen,4_50_0,2023-09-15T19:18:25.676Z,,0,2,,4529.364000000001,response,ISIC_0063180.JPG,6,ISIC_0009992.JPG,ISIC_0009992.JPG,false,0,keypress(z),500,521610.7000000477,521610.5,517064.47,517069.10000002384,517081.136,521614.288,8,400,1,,ISIC_0063180.JPG
break,html.Screen,4_50_1,2023-09-15T19:18:25.677Z,,0,,,NaN,,,,,,false,,,,521611.60000002384,521611.40000003576,,521610.90000003576,,521614.288,8,400,,,
break_continue,html.Screen,4_50_2,2023-09-15T19:18:25.677Z,,0,,,NaN,,,,,,false,,,,521612,521611.90000003576,,521611.8000000119,,521614.288,8,400,,,
sequence,flow.Sequence,4_50,2023-09-15T19:18:25.677Z,,0,,,4530.764000035764,completion,,,,,false,,,,521612.2000000477,521611.90000003576,517064.47,517069,517081.136,521614.288,8,400,,,
trial,html.Screen,4_51_0,2023-09-15T19:18:29.868Z,,0,2,,4188.112000035762,response,ISIC_0695029.JPG,7,ISIC_0025132.JPG,ISIC_0025132.JPG,false,0,keypress(z),500,525802.7000000477,525802.4000000358,521597.622,521612.3000000119,521614.288,525817.221,8,400,2,,ISIC_0695029.JPG
break,html.Screen,4_51_1,2023-09-15T19:18:29.869Z,,0,,,NaN,,,,,,false,,,,525803.5,525803.4000000358,,525802.9000000358,,525817.221,8,400,,,
break_continue,html.Screen,4_51_2,2023-09-15T19:18:29.869Z,,0,,,NaN,,,,,,false,,,,525803.9000000358,525803.8000000119,,525803.7000000477,,525817.221,8,400,,,
sequence,flow.Sequence,4_51,2023-09-15T19:18:29.869Z,,0,,,4189.5120000119205,completion,,,,,false,,,,525804.1000000238,525803.8000000119,521597.622,521612.3000000119,521614.288,525817.221,8,400,,,
trial,html.Screen,4_52_0,2023-09-15T19:18:34.380Z,,0,2,,4497.179000035743,response,ISIC_3361955.JPG,8,ISIC_0032709.JPG,ISIC_3361955.JPG,false,1,keypress(m),500,530314.6000000238,530314.4000000358,525800.555,525804.3000000119,525817.221,530317.041,8,400,3,,ISIC_0032709.JPG
break,html.Screen,4_52_1,2023-09-15T19:18:34.381Z,,0,,,NaN,,,,,,false,,,,530315.5,530315.3000000119,,530314.9000000358,,530317.041,8,400,,,
break_continue,html.Screen,4_52_2,2023-09-15T19:18:34.381Z,,0,,,NaN,,,,,,false,,,,530315.9000000358,530315.8000000119,,530315.7000000477,,530317.041,8,400,,,
sequence,flow.Sequence,4_52,2023-09-15T19:18:34.381Z,,0,,,4498.579000011901,completion,,,,,false,,,,530316.2000000477,530315.8000000119,525800.555,525804.2000000477,525817.221,530317.041,8,400,,,
trial,html.Screen,4_53_0,2023-09-15T19:18:37.987Z,,0,2,,3604.3590000357945,response,ISIC_0069633.JPG,7,ISIC_0013232.JPG,ISIC_0013232.JPG,false,0,keypress(z),500,533921.6000000238,533921.4000000358,530300.375,530316.4000000358,530317.041,533933.563,8,400,4,,ISIC_0069633.JPG
break,html.Screen,4_53_1,2023-09-15T19:18:37.987Z,,0,,,NaN,,,,,,false,,,,533922.5,533922.2000000477,,533921.9000000358,,533933.563,8,400,,,
break_continue,html.Screen,4_53_2,2023-09-15T19:18:37.988Z,,0,,,NaN,,,,,,false,,,,533922.9000000358,533922.7000000477,,533922.6000000238,,533933.563,8,400,,,
sequence,flow.Sequence,4_53,2023-09-15T19:18:37.988Z,,0,,,3605.6590000477154,completion,,,,,false,,,,533923.1000000238,533922.7000000477,530300.375,530316.3000000119,530317.041,533933.563,8,400,,,
trial,html.Screen,4_54_0,2023-09-15T19:18:41.910Z,,0,2,,3911.637000047718,response,ISIC_0012211.JPG,5,ISIC_7045042.JPG,ISIC_7045042.JPG,false,0,keypress(z),500,537845.4000000358,537845.2000000477,533916.897,533923.3000000119,533933.563,537858.813,8,400,5,,ISIC_0012211.JPG
break,html.Screen,4_54_1,2023-09-15T19:18:41.911Z,,0,,,NaN,,,,,,false,,,,537846.2000000477,537846,,537845.7000000477,,537858.813,8,400,,,
break_continue,html.Screen,4_54_2,2023-09-15T19:18:41.912Z,,0,,,NaN,,,,,,false,,,,537846.6000000238,537846.5,,537846.4000000358,,537858.813,8,400,,,
sequence,flow.Sequence,4_54,2023-09-15T19:18:41.912Z,,0,,,3912.9370000000345,completion,,,,,false,,,,537846.8000000119,537846.5,533916.897,533923.2000000477,533933.563,537858.813,8,400,,,
trial,html.Screen,4_55_0,2023-09-15T19:18:45.405Z,,0,2,,3480.9870000119554,response,ISIC_0027125.JPG,8,ISIC_4185719.JPG,ISIC_4185719.JPG,false,0,keypress(z),500,541340,541339.8000000119,537842.147,537847,537858.813,541342.007,8,400,6,,ISIC_0027125.JPG
break,html.Screen,4_55_1,2023-09-15T19:18:45.406Z,,0,,,NaN,,,,,,false,,,,541340.9000000358,541340.7000000477,,541340.3000000119,,541342.007,8,400,,,
break_continue,html.Screen,4_55_2,2023-09-15T19:18:45.406Z,,0,,,NaN,,,,,,false,,,,541341.3000000119,541341.1000000238,,541341.1000000238,,541342.007,8,400,,,
sequence,flow.Sequence,4_55,2023-09-15T19:18:45.406Z,,0,,,3482.2870000238763,completion,,,,,false,,,,541341.5,541341.1000000238,537842.147,537847,537858.813,541342.007,8,400,,,
trial,html.Screen,4_56_0,2023-09-15T19:18:48.843Z,,0,2,,3435.9930000000168,response,ISIC_9017110.JPG,8,ISIC_7062293.JPG,ISIC_7062293.JPG,false,0,keypress(z),500,544778.2000000477,544778,541325.341,541341.6000000238,541342.007,544791.869,8,400,7,,ISIC_9017110.JPG
break,html.Screen,4_56_1,2023-09-15T19:18:48.844Z,,0,,,NaN,,,,,,false,,,,544779,544778.8000000119,,544778.4000000358,,544791.869,8,400,,,
break_continue,html.Screen,4_56_2,2023-09-15T19:18:48.844Z,,0,,,NaN,,,,,,false,,,,544779.5,544779.3000000119,,544779.2000000477,,544791.869,8,400,,,
sequence,flow.Sequence,4_56,2023-09-15T19:18:48.845Z,,0,,,3437.2930000119377,completion,,,,,false,,,,544779.6000000238,544779.3000000119,541325.341,541341.6000000238,541342.007,544791.869,8,400,,,
trial,html.Screen,4_57_0,2023-09-15T19:18:53.393Z,,0,2,,4536.131000000052,response,ISIC_0058836.JPG,7,ISIC_0067120.JPG,ISIC_0067120.JPG,false,0,keypress(z),500,549328.3000000119,549328,544775.203,544779.8000000119,544791.869,549333.297,8,400,8,,ISIC_0058836.JPG
break,html.Screen,4_57_1,2023-09-15T19:18:53.394Z,,0,,,NaN,,,,,,false,,,,549329.2000000477,549328.9000000358,,549328.5,,549333.297,8,400,,,
break_continue,html.Screen,4_57_2,2023-09-15T19:18:53.395Z,,0,,,NaN,,,,,,false,,,,549329.6000000238,549329.4000000358,,549329.3000000119,,549333.297,8,400,,,
sequence,flow.Sequence,4_57,2023-09-15T19:18:53.395Z,,0,,,4537.531000035815,completion,,,,,false,,,,549329.7000000477,549329.4000000358,544775.203,544779.8000000119,544791.869,549333.297,8,400,,,
trial,html.Screen,4_58_0,2023-09-15T19:18:57.974Z,,0,2,,4575.803000023821,response,ISIC_0030929.JPG,6,ISIC_0071681.JPG,ISIC_0030929.JPG,false,1,keypress(m),500,553909.3000000119,553909.1000000238,549316.631,549329.9000000358,549333.297,553916.447,8,400,9,,ISIC_0071681.JPG
break,html.Screen,4_58_1,2023-09-15T19:18:57.975Z,,0,,,NaN,,,,,,false,,,,553910.2000000477,553910,,553909.6000000238,,553916.447,8,400,,,
break_continue,html.Screen,4_58_2,2023-09-15T19:18:57.976Z,,0,,,NaN,,,,,,false,,,,553910.5,553910.4000000358,,553910.3000000119,,553916.447,8,400,,,
sequence,flow.Sequence,4_58,2023-09-15T19:18:57.976Z,,0,,,4577.103000035742,completion,,,,,false,,,,553910.8000000119,553910.4000000358,549316.631,549329.9000000358,549333.297,553916.447,8,400,,,
trial,html.Screen,4_59_0,2023-09-15T19:19:01.491Z,,0,2,,3509.653000023798,response,ISIC_0028618.JPG,6,ISIC_4064936.JPG,ISIC_0028618.JPG,false,1,keypress(m),500,557426.4000000358,557426.1000000238,553899.781,553910.9000000358,553916.447,557433.033,8,400,10,,ISIC_4064936.JPG
break,html.Screen,4_59_1,2023-09-15T19:19:01.492Z,,0,,,NaN,,,,,,false,,,,557427.3000000119,557427,,557426.6000000238,,557433.033,8,400,,,
break_continue,html.Screen,4_59_2,2023-09-15T19:19:01.493Z,,0,,,NaN,,,,,,false,,,,557427.7000000477,557427.6000000238,,557427.4000000358,,557433.033,8,400,,,
sequence,flow.Sequence,4_59,2023-09-15T19:19:01.493Z,,0,,,3511.153000023798,completion,,,,,false,,,,557427.9000000358,557427.6000000238,553899.781,553910.8000000119,553916.447,557433.033,8,400,,,
trial,html.Screen,4_60_0,2023-09-15T19:19:05.386Z,,0,2,,3887.966999999946,response,ISIC_0025085.JPG,7,ISIC_6127074.JPG,ISIC_6127074.JPG,false,0,keypress(z),500,561321.4000000358,561321,557416.367,557428.1000000238,557433.033,561332.877,8,400,11,,ISIC_0025085.JPG
break,html.Screen,4_60_1,2023-09-15T19:19:05.387Z,,0,,,NaN,,,,,,false,,,,561322.1000000238,561321.9000000358,,561321.5,,561332.877,8,400,,,
break_continue,html.Screen,4_60_2,2023-09-15T19:19:05.388Z,,0,,,NaN,,,,,,false,,,,561322.6000000238,561322.4000000358,,561322.3000000119,,561332.877,8,400,,,
sequence,flow.Sequence,4_60,2023-09-15T19:19:05.388Z,,0,,,3889.3670000357088,completion,,,,,false,,,,561322.8000000119,561322.4000000358,557416.367,557428,557433.033,561332.877,8,400,,,
trial,html.Screen,4_61_0,2023-09-15T19:19:09.089Z,,0,2,,3690.523000035784,response,ISIC_6661904.JPG,8,ISIC_8145260.JPG,ISIC_8145260.JPG,false,0,keypress(z),500,565023.8000000119,565023.4000000358,561316.211,561322.9000000358,561332.877,565032.729,8,400,12,,ISIC_6661904.JPG
break,html.Screen,4_61_1,2023-09-15T19:19:09.090Z,,0,,,NaN,,,,,,false,,,,565024.6000000238,565024.4000000358,,565024,,565032.729,8,400,,,
break_continue,html.Screen,4_61_2,2023-09-15T19:19:09.090Z,,0,,,NaN,,,,,,false,,,,565025,565024.8000000119,,565024.8000000119,,565032.729,8,400,,,
sequence,flow.Sequence,4_61,2023-09-15T19:19:09.090Z,,0,,,3691.9230000119423,completion,,,,,false,,,,565025.2000000477,565024.8000000119,561316.211,561322.9000000358,561332.877,565032.729,8,400,,,
trial,html.Screen,4_62_0,2023-09-15T19:19:12.294Z,,0,2,,3196.3710000237916,response,ISIC_6734679.JPG,7,ISIC_0024321.JPG,ISIC_0024321.JPG,false,0,keypress(z),500,568229.4000000358,568229.1000000238,565016.063,565025.3000000119,565032.729,568242.141,8,400,13,,ISIC_6734679.JPG
break,html.Screen,4_62_1,2023-09-15T19:19:12.295Z,,0,,,NaN,,,,,,false,,,,568230.2000000477,568230,,568229.6000000238,,568242.141,8,400,,,
break_continue,html.Screen,4_62_2,2023-09-15T19:19:12.296Z,,0,,,NaN,,,,,,false,,,,568230.6000000238,568230.5,,568230.4000000358,,568242.141,8,400,,,
sequence,flow.Sequence,4_62,2023-09-15T19:19:12.296Z,,0,,,3197.7709999999497,completion,,,,,false,,,,568230.9000000358,568230.5,565016.063,565025.3000000119,565032.729,568242.141,8,400,,,
trial,html.Screen,4_63_0,2023-09-15T19:19:16.547Z,,0,2,,4239.759000035818,response,ISIC_0071069.JPG,6,ISIC_0032140.JPG,ISIC_0071069.JPG,false,1,keypress(m),500,572482.2000000477,572481.9000000358,568225.475,568230.9000000358,568242.141,572491.971,8,400,14,,ISIC_0032140.JPG
break,html.Screen,4_63_1,2023-09-15T19:19:16.548Z,,0,,,NaN,,,,,,false,,,,572483,572482.8000000119,,572482.4000000358,,572491.971,8,400,,,
break_continue,html.Screen,4_63_2,2023-09-15T19:19:16.548Z,,0,,,NaN,,,,,,false,,,,572483.5,572483.4000000358,,572483.2000000477,,572491.971,8,400,,,
sequence,flow.Sequence,4_63,2023-09-15T19:19:16.549Z,,0,,,4241.259000035818,completion,,,,,false,,,,572483.7000000477,572483.4000000358,568225.475,568230.9000000358,568242.141,572491.971,8,400,,,
trial,html.Screen,4_64_0,2023-09-15T19:19:20.106Z,,0,2,,3548.8290000119014,response,ISIC_0033594.JPG,9,ISIC_4229473.JPG,ISIC_4229473.JPG,false,0,keypress(z),500,576041.1000000238,576040.8000000119,572475.305,572483.8000000119,572491.971,576058.495,8,400,15,,ISIC_0033594.JPG
break,html.Screen,4_64_1,2023-09-15T19:19:20.107Z,,0,,,NaN,,,,,,false,,,,576041.9000000358,576041.7000000477,,576041.3000000119,,576058.495,8,400,,,
break_continue,html.Screen,4_64_2,2023-09-15T19:19:20.107Z,,0,,,NaN,,,,,,false,,,,576042.3000000119,576042.2000000477,,576042.1000000238,,576058.495,8,400,,,
sequence,flow.Sequence,4_64,2023-09-15T19:19:20.107Z,,0,,,3550.229000047664,completion,,,,,false,,,,576042.6000000238,576042.2000000477,572475.305,572483.7000000477,572491.971,576058.495,8,400,,,
trial,html.Screen,4_65_0,2023-09-15T19:19:23.281Z,,0,2,,3157.3050000119256,response,ISIC_4343836.JPG,8,ISIC_0054671.JPG,ISIC_4343836.JPG,false,1,keypress(m),500,579216.1000000238,579215.8000000119,576041.829,576042.7000000477,576058.495,579232.042,8,400,16,,ISIC_0054671.JPG
break,html.Screen,4_65_1,2023-09-15T19:19:23.282Z,,0,,,NaN,,,,,,false,,,,579216.9000000358,579216.7000000477,,579216.3000000119,,579232.042,8,400,,,
break_continue,html.Screen,4_65_2,2023-09-15T19:19:23.282Z,,0,,,NaN,,,,,,false,,,,579217.3000000119,579217.1000000238,,579217,,579232.042,8,400,,,
sequence,flow.Sequence,4_65,2023-09-15T19:19:23.282Z,,0,,,3158.6050000238465,completion,,,,,false,,,,579217.5,579217.1000000238,576041.829,576042.7000000477,576058.495,579232.042,8,400,,,
trial,html.Screen,4_66_0,2023-09-15T19:19:27.413Z,,0,2,,4115.957999999984,response,ISIC_4038618.JPG,7,ISIC_9785077.JPG,ISIC_4038618.JPG,false,1,keypress(m),500,583348.3000000119,583348,579215.376,579217.7000000477,579232.042,583365.21,8,400,17,,ISIC_9785077.JPG
break,html.Screen,4_66_1,2023-09-15T19:19:27.414Z,,0,,,NaN,,,,,,false,,,,583349.2000000477,583349,,583348.5,,583365.21,8,400,,,
break_continue,html.Screen,4_66_2,2023-09-15T19:19:27.415Z,,0,,,NaN,,,,,,false,,,,583349.6000000238,583349.5,,583349.4000000358,,583365.21,8,400,,,
sequence,flow.Sequence,4_66,2023-09-15T19:19:27.415Z,,0,,,4117.457999999984,completion,,,,,false,,,,583349.9000000358,583349.5,579215.376,579217.6000000238,579232.042,583365.21,8,400,,,
trial,html.Screen,4_67_0,2023-09-15T19:19:31.571Z,,0,2,,4140.1900000358,response,ISIC_0026694.JPG,7,ISIC_1920685.JPG,ISIC_0026694.JPG,false,1,keypress(m),500,587505.7000000477,587505.4000000358,583348.544,583350.1000000238,583365.21,587515.044,8,400,18,,ISIC_1920685.JPG
break,html.Screen,4_67_1,2023-09-15T19:19:31.571Z,,0,,,NaN,,,,,,false,,,,587506.5,587506.3000000119,,587505.9000000358,,587515.044,8,400,,,
break_continue,html.Screen,4_67_2,2023-09-15T19:19:31.572Z,,0,,,NaN,,,,,,false,,,,587506.9000000358,587506.8000000119,,587506.7000000477,,587515.044,8,400,,,
sequence,flow.Sequence,4_67,2023-09-15T19:19:31.572Z,,0,,,4141.590000011958,completion,,,,,false,,,,587507.2000000477,587506.8000000119,583348.544,583350.1000000238,583365.21,587515.044,8,400,,,
trial,html.Screen,4_68_0,2023-09-15T19:19:37.220Z,,0,2,,5640.2560000119265,response,ISIC_0010304.JPG,5,ISIC_3559222.JPG,ISIC_0010304.JPG,false,1,keypress(m),500,593155.6000000238,593155.3000000119,587498.378,587507.2000000477,587515.044,593171.246,8,400,19,,ISIC_3559222.JPG
break,html.Screen,4_68_1,2023-09-15T19:19:37.221Z,,0,,,NaN,,,,,,false,,,,593156.4000000358,593156.2000000477,,593155.8000000119,,593171.246,8,400,,,
break_continue,html.Screen,4_68_2,2023-09-15T19:19:37.222Z,,0,,,NaN,,,,,,false,,,,593156.9000000358,593156.7000000477,,593156.6000000238,,593171.246,8,400,,,
sequence,flow.Sequence,4_68,2023-09-15T19:19:37.222Z,,0,,,5641.656000047689,completion,,,,,false,,,,593157,593156.7000000477,587498.378,587507.2000000477,587515.044,593171.246,8,400,,,
trial,html.Screen,4_69_0,2023-09-15T19:19:41.257Z,,0,2,,4020.15400003572,response,ISIC_2299749.JPG,8,ISIC_4863784.JPG,ISIC_2299749.JPG,false,1,keypress(m),500,597191.7000000477,597191.4000000358,593154.58,593157.2000000477,593171.246,597204.418,8,400,20,,ISIC_4863784.JPG
break,html.Screen,4_69_1,2023-09-15T19:19:41.257Z,,0,,,NaN,,,,,,false,,,,597192.5,597192.2000000477,,597191.9000000358,,597204.418,8,400,,,
break_continue,html.Screen,4_69_2,2023-09-15T19:19:41.258Z,,0,,,NaN,,,,,,false,,,,597192.9000000358,597192.8000000119,,597192.6000000238,,597204.418,8,400,,,
sequence,flow.Sequence,4_69,2023-09-15T19:19:41.258Z,,0,,,4021.554000011878,completion,,,,,false,,,,597193.1000000238,597192.8000000119,593154.58,593157.1000000238,593171.246,597204.418,8,400,,,
trial,html.Screen,4_70_0,2023-09-15T19:19:47.326Z,,0,2,,6056.282000047737,response,ISIC_6767569.JPG,9,ISIC_1948545.JPG,ISIC_1948545.JPG,false,0,keypress(z),500,603261,603260.7000000477,597187.752,597193.2000000477,597204.418,603264.572,8,400,21,,ISIC_6767569.JPG
break,html.Screen,4_70_1,2023-09-15T19:19:47.327Z,,0,,,NaN,,,,,,false,,,,603261.9000000358,603261.7000000477,,603261.2000000477,,603264.572,8,400,,,
break_continue,html.Screen,4_70_2,2023-09-15T19:19:47.327Z,,0,,,NaN,,,,,,false,,,,603262.2000000477,603262.1000000238,,603261.9000000358,,603264.572,8,400,,,
sequence,flow.Sequence,4_70,2023-09-15T19:19:47.327Z,,0,,,6057.682000023895,completion,,,,,false,,,,603262.5,603262.1000000238,597187.752,597193.1000000238,597204.418,603264.572,8,400,,,
trial,html.Screen,4_71_0,2023-09-15T19:19:50.859Z,,0,2,,3529.728000011877,response,ISIC_6090057.JPG,9,ISIC_0011744.JPG,ISIC_0011744.JPG,false,0,keypress(z),500,606794.6000000238,606794.3000000119,603247.906,603262.6000000238,603264.572,606797.764,8,400,22,,ISIC_6090057.JPG
break,html.Screen,4_71_1,2023-09-15T19:19:50.860Z,,0,,,NaN,,,,,,false,,,,606795.4000000358,606795.2000000477,,606794.8000000119,,606797.764,8,400,,,
break_continue,html.Screen,4_71_2,2023-09-15T19:19:50.861Z,,0,,,NaN,,,,,,false,,,,606795.8000000119,606795.7000000477,,606795.6000000238,,606797.764,8,400,,,
sequence,flow.Sequence,4_71,2023-09-15T19:19:50.861Z,,0,,,3531.12800004764,completion,,,,,false,,,,606796,606795.7000000477,603247.906,603262.6000000238,603264.572,606797.764,8,400,,,
trial,html.Screen,4_72_0,2023-09-15T19:19:54.418Z,,0,2,,3555.0360000119545,response,ISIC_8651765.JPG,7,ISIC_0024929.JPG,ISIC_0024929.JPG,false,0,keypress(z),500,610353.1000000238,610352.8000000119,606781.098,606796.1000000238,606797.764,610358.367,8,400,23,,ISIC_8651765.JPG
break,html.Screen,4_72_1,2023-09-15T19:19:54.419Z,,0,,,NaN,,,,,,false,,,,610353.9000000358,610353.6000000238,,610353.2000000477,,610358.367,8,400,,,
break_continue,html.Screen,4_72_2,2023-09-15T19:19:54.419Z,,0,,,NaN,,,,,,false,,,,610354.3000000119,610354.2000000477,,610354,,610358.367,8,400,,,
sequence,flow.Sequence,4_72,2023-09-15T19:19:54.419Z,,0,,,3556.4360000477172,completion,,,,,false,,,,610354.5,610354.2000000477,606781.098,606796.1000000238,606797.764,610358.367,8,400,,,
trial,html.Screen,4_73_0,2023-09-15T19:19:57.751Z,,0,2,,3327.8330000477144,response,ISIC_0033194.JPG,8,ISIC_1450548.JPG,ISIC_0033194.JPG,false,1,keypress(m),500,613686.5,613686.2000000477,610341.701,610354.7000000477,610358.367,613691.567,8,400,24,,ISIC_1450548.JPG
break,html.Screen,4_73_1,2023-09-15T19:19:57.752Z,,0,,,NaN,,,,,,false,,,,613687.4000000358,613687.2000000477,,613686.8000000119,,613691.567,8,400,,,
break_continue,html.Screen,4_73_2,2023-09-15T19:19:57.753Z,,0,,,NaN,,,,,,false,,,,613687.8000000119,613687.7000000477,,613687.6000000238,,613691.567,8,400,,,
sequence,flow.Sequence,4_73,2023-09-15T19:19:57.753Z,,0,,,3329.3330000477144,completion,,,,,false,,,,613688,613687.7000000477,610341.701,610354.6000000238,610358.367,613691.567,8,400,,,
trial,html.Screen,4_74_0,2023-09-15T19:20:02.124Z,,0,2,,4366.932999999961,response,ISIC_2916754.JPG,9,ISIC_9336830.JPG,ISIC_2916754.JPG,false,1,keypress(m),500,618058.8000000119,618058.5,613674.901,613688.2000000477,613691.567,618074.725,8,400,25,,ISIC_9336830.JPG
break,html.Screen,4_74_1,2023-09-15T19:20:02.124Z,,0,,,NaN,,,,,,false,,,,618059.5,618059.4000000358,,618059,,618074.725,8,400,,,
break_continue,html.Screen,4_74_2,2023-09-15T19:20:02.125Z,,0,,,NaN,,,,,,false,,,,618059.9000000358,618059.8000000119,,618059.6000000238,,618074.725,8,400,,,
sequence,flow.Sequence,4_74,2023-09-15T19:20:02.125Z,,0,,,4368.233000011882,completion,,,,,false,,,,618060.1000000238,618059.8000000119,613674.901,613688.1000000238,613691.567,618074.725,8,400,,,
trial,html.Screen,4_75_0,2023-09-15T19:20:06.418Z,,0,2,,4278.575000011944,response,ISIC_4850678.JPG,6,ISIC_0068961.JPG,ISIC_0068961.JPG,false,0,keypress(z),500,622353.6000000238,622353.3000000119,618058.059,618060.3000000119,618074.725,622364.114,8,400,26,,ISIC_4850678.JPG
break,html.Screen,4_75_1,2023-09-15T19:20:06.419Z,,0,,,NaN,,,,,,false,,,,622354.4000000358,622354.2000000477,,622353.9000000358,,622364.114,8,400,,,
break_continue,html.Screen,4_75_2,2023-09-15T19:20:06.420Z,,0,,,NaN,,,,,,false,,,,622354.9000000358,622354.8000000119,,622354.6000000238,,622364.114,8,400,,,
sequence,flow.Sequence,4_75,2023-09-15T19:20:06.420Z,,0,,,4280.075000011944,completion,,,,,false,,,,622355.1000000238,622354.8000000119,618058.059,618060.2000000477,618074.725,622364.114,8,400,,,
trial,html.Screen,4_76_0,2023-09-15T19:20:10.329Z,,0,2,,3899.886000000057,response,ISIC_0058199.JPG,4,ISIC_9304022.JPG,ISIC_9304022.JPG,false,0,keypress(z),500,626264.3000000119,626264,622347.448,622355.2000000477,622364.114,626280.624,8,400,27,,ISIC_0058199.JPG
break,html.Screen,4_76_1,2023-09-15T19:20:10.330Z,,0,,,NaN,,,,,,false,,,,626265.3000000119,626265.1000000238,,626264.6000000238,,626280.624,8,400,,,
break_continue,html.Screen,4_76_2,2023-09-15T19:20:10.331Z,,0,,,NaN,,,,,,false,,,,626265.7000000477,626265.6000000238,,626265.5,,626280.624,8,400,,,
sequence,flow.Sequence,4_76,2023-09-15T19:20:10.331Z,,0,,,3901.4860000238987,completion,,,,,false,,,,626265.9000000358,626265.6000000238,622347.448,622355.1000000238,622364.114,626280.624,8,400,,,
trial,html.Screen,4_77_0,2023-09-15T19:20:13.456Z,,0,2,,3109.9760000238894,response,ISIC_9716860.JPG,7,ISIC_0068223.JPG,ISIC_9716860.JPG,false,1,keypress(m),500,629390.9000000358,629390.6000000238,626263.958,626266,626280.624,629397.166,8,400,28,,ISIC_0068223.JPG
break,html.Screen,4_77_1,2023-09-15T19:20:13.456Z,,0,,,NaN,,,,,,false,,,,629391.7000000477,629391.5,,629391.1000000238,,629397.166,8,400,,,
break_continue,html.Screen,4_77_2,2023-09-15T19:20:13.457Z,,0,,,NaN,,,,,,false,,,,629392.1000000238,629392,,629391.8000000119,,629397.166,8,400,,,
sequence,flow.Sequence,4_77,2023-09-15T19:20:13.457Z,,0,,,3111.3760000000475,completion,,,,,false,,,,629392.3000000119,629392,626263.958,626266,626280.624,629397.166,8,400,,,
trial,html.Screen,4_78_0,2023-09-15T19:20:16.938Z,,0,2,,3476.1340000119526,response,ISIC_0060760.JPG,8,ISIC_0013736.JPG,ISIC_0060760.JPG,false,1,keypress(m),500,632873.6000000238,632873.3000000119,629380.5,629392.4000000358,629397.166,632882.135,8,400,29,,ISIC_0013736.JPG
break,html.Screen,4_78_1,2023-09-15T19:20:16.939Z,,0,,,NaN,,,,,,false,,,,632874.5,632874.2000000477,,632873.8000000119,,632882.135,8,400,,,
break_continue,html.Screen,4_78_2,2023-09-15T19:20:16.940Z,,0,,,NaN,,,,,,false,,,,632874.9000000358,632874.7000000477,,632874.6000000238,,632882.135,8,400,,,
sequence,flow.Sequence,4_78,2023-09-15T19:20:16.940Z,,0,,,3477.5340000477154,completion,,,,,false,,,,632875.1000000238,632874.7000000477,629380.5,629392.4000000358,629397.166,632882.135,8,400,,,
trial,html.Screen,4_79_0,2023-09-15T19:20:20.910Z,,0,2,,3962.9650000238325,response,ISIC_0008864.JPG,7,ISIC_0033232.JPG,ISIC_0033232.JPG,false,0,keypress(z),500,636845.4000000358,636845.1000000238,632865.469,632875.1000000238,632882.135,636848.643,8,400,30,,ISIC_0008864.JPG
break,html.Screen,4_79_1,2023-09-15T19:20:20.911Z,,0,,,NaN,,,,,,false,,,,636846.3000000119,636846,,636845.6000000238,,636848.643,8,400,,,
break_continue,html.Screen,4_79_2,2023-09-15T19:20:20.911Z,,0,,,NaN,,,,,,false,,,,636846.6000000238,636846.5,,636846.4000000358,,636848.643,8,400,,,
sequence,flow.Sequence,4_79,2023-09-15T19:20:20.912Z,,0,,,3964.3649999999907,completion,,,,,false,,,,636846.8000000119,636846.5,632865.469,632875.1000000238,632882.135,636848.643,8,400,,,
trial,html.Screen,4_80_0,2023-09-15T19:20:24.676Z,,0,2,,3762.5570000476437,response,ISIC_6366631.JPG,8,ISIC_0031977.JPG,ISIC_6366631.JPG,false,1,keypress(m),500,640611.5,640611.2000000477,636831.977,636846.9000000358,636848.643,640615.159,8,400,31,,ISIC_0031977.JPG
break,html.Screen,4_80_1,2023-09-15T19:20:24.677Z,,0,,,NaN,,,,,,false,,,,640612.3000000119,640612,,640611.7000000477,,640615.159,8,400,,,
break_continue,html.Screen,4_80_2,2023-09-15T19:20:24.678Z,,0,,,NaN,,,,,,false,,,,640612.8000000119,640612.6000000238,,640612.5,,640615.159,8,400,,,
sequence,flow.Sequence,4_80,2023-09-15T19:20:24.678Z,,0,,,3763.957000023802,completion,,,,,false,,,,640612.9000000358,640612.6000000238,636831.977,636846.9000000358,636848.643,640615.159,8,400,,,
trial,html.Screen,4_81_0,2023-09-15T19:20:28.900Z,,0,2,,4219.741000035778,response,ISIC_4518384.JPG,7,ISIC_0053485.JPG,ISIC_0053485.JPG,false,0,keypress(z),500,644835.1000000238,644834.9000000358,640598.493,640613,640615.159,644837.925,8,400,32,,ISIC_4518384.JPG
break,html.Screen,4_81_1,2023-09-15T19:20:28.901Z,,0,,,NaN,,,,,,false,,,,644836,644835.7000000477,,644835.3000000119,,644837.925,8,400,,,
break_continue,html.Screen,4_81_2,2023-09-15T19:20:28.901Z,,0,,,NaN,,,,,,false,,,,644836.4000000358,644836.3000000119,,644836.1000000238,,644837.925,8,400,,,
sequence,flow.Sequence,4_81,2023-09-15T19:20:28.901Z,,0,,,4221.141000011936,completion,,,,,false,,,,644836.6000000238,644836.3000000119,640598.493,640613,640615.159,644837.925,8,400,,,
trial,html.Screen,4_82_0,2023-09-15T19:20:32.548Z,,0,2,,3645.1750000237953,response,ISIC_4692567.JPG,8,ISIC_0011957.JPG,ISIC_0011957.JPG,false,0,keypress(z),500,648483.3000000119,648483.1000000238,644821.259,644836.6000000238,644837.925,648487.779,8,400,33,,ISIC_4692567.JPG
break,html.Screen,4_82_1,2023-09-15T19:20:32.549Z,,0,,,NaN,,,,,,false,,,,648484.1000000238,648483.9000000358,,648483.5,,648487.779,8,400,,,
break_continue,html.Screen,4_82_2,2023-09-15T19:20:32.549Z,,0,,,NaN,,,,,,false,,,,648484.5,648484.5,,648484.3000000119,,648487.779,8,400,,,
sequence,flow.Sequence,4_82,2023-09-15T19:20:32.549Z,,0,,,3646.5749999999534,completion,,,,,false,,,,648484.7000000477,648484.5,644821.259,644836.6000000238,644837.925,648487.779,8,400,,,
trial,html.Screen,4_83_0,2023-09-15T19:20:36.699Z,,0,2,,4146.22100000002,response,ISIC_0010242.JPG,9,ISIC_6670242.JPG,ISIC_0010242.JPG,false,1,keypress(m),500,652634.2000000477,652634,648471.113,648484.9000000358,648487.779,652645.205,8,400,34,,ISIC_6670242.JPG
break,html.Screen,4_83_1,2023-09-15T19:20:36.700Z,,0,,,NaN,,,,,,false,,,,652634.9000000358,652634.7000000477,,652634.4000000358,,652645.205,8,400,,,
break_continue,html.Screen,4_83_2,2023-09-15T19:20:36.700Z,,0,,,NaN,,,,,,false,,,,652635.3000000119,652635.2000000477,,652635.1000000238,,652645.205,8,400,,,
sequence,flow.Sequence,4_83,2023-09-15T19:20:36.700Z,,0,,,4147.421000047703,completion,,,,,false,,,,652635.5,652635.2000000477,648471.113,648484.8000000119,648487.779,652645.205,8,400,,,
trial,html.Screen,4_84_0,2023-09-15T19:20:41.905Z,,0,2,,5194.595000011963,response,ISIC_7967108.JPG,7,ISIC_1334038.JPG,ISIC_1334038.JPG,false,0,keypress(z),500,657840.1000000238,657839.8000000119,652628.539,652635.6000000238,652645.205,657844.997,8,400,35,,ISIC_7967108.JPG
break,html.Screen,4_84_1,2023-09-15T19:20:41.906Z,,0,,,NaN,,,,,,false,,,,657840.8000000119,657840.6000000238,,657840.3000000119,,657844.997,8,400,,,
break_continue,html.Screen,4_84_2,2023-09-15T19:20:41.906Z,,0,,,NaN,,,,,,false,,,,657841.2000000477,657841.1000000238,,657841,,657844.997,8,400,,,
sequence,flow.Sequence,4_84,2023-09-15T19:20:41.906Z,,0,,,5195.895000023884,completion,,,,,false,,,,657841.4000000358,657841.1000000238,652628.539,652635.6000000238,652645.205,657844.997,8,400,,,
trial,html.Screen,4_85_0,2023-09-15T19:20:45.479Z,,0,2,,3569.303000011947,response,ISIC_0504165.JPG,7,ISIC_0912291.JPG,ISIC_0504165.JPG,false,1,keypress(m),500,661414.6000000238,661414.3000000119,657828.331,657841.5,657844.997,661420.174,8,400,36,,ISIC_0912291.JPG
break,html.Screen,4_85_1,2023-09-15T19:20:45.480Z,,0,,,NaN,,,,,,false,,,,661415.5,661415.3000000119,,661414.8000000119,,661420.174,8,400,,,
break_continue,html.Screen,4_85_2,2023-09-15T19:20:45.481Z,,0,,,NaN,,,,,,false,,,,661415.9000000358,661415.8000000119,,661415.6000000238,,661420.174,8,400,,,
sequence,flow.Sequence,4_85,2023-09-15T19:20:45.481Z,,0,,,3570.803000011947,completion,,,,,false,,,,661416.1000000238,661415.8000000119,657828.331,657841.5,657844.997,661420.174,8,400,,,
trial,html.Screen,4_86_0,2023-09-15T19:20:49.979Z,,0,2,,4494.226000035764,response,ISIC_5557025.JPG,6,ISIC_0011137.JPG,ISIC_0011137.JPG,false,0,keypress(z),500,665914.7000000477,665914.4000000358,661403.508,661416.2000000477,661420.174,665919.994,8,400,37,,ISIC_5557025.JPG
break,html.Screen,4_86_1,2023-09-15T19:20:49.980Z,,0,,,NaN,,,,,,false,,,,665915.5,665915.3000000119,,665915,,665919.994,8,400,,,
break_continue,html.Screen,4_86_2,2023-09-15T19:20:49.981Z,,0,,,NaN,,,,,,false,,,,665915.9000000358,665915.8000000119,,665915.7000000477,,665919.994,8,400,,,
sequence,flow.Sequence,4_86,2023-09-15T19:20:49.981Z,,0,,,4495.626000011922,completion,,,,,false,,,,665916.1000000238,665915.8000000119,661403.508,661416.2000000477,661420.174,665919.994,8,400,,,
trial,html.Screen,4_87_0,2023-09-15T19:20:53.938Z,,0,2,,3953.306000011973,response,ISIC_0033027.JPG,5,ISIC_6793603.JPG,ISIC_0033027.JPG,false,1,keypress(m),500,669873.7000000477,669873.3000000119,665903.328,665916.3000000119,665919.994,669886.502,8,400,38,,ISIC_6793603.JPG
break,html.Screen,4_87_1,2023-09-15T19:20:53.939Z,,0,,,NaN,,,,,,false,,,,669874.6000000238,669874.3000000119,,669873.9000000358,,669886.502,8,400,,,
break_continue,html.Screen,4_87_2,2023-09-15T19:20:53.940Z,,0,,,NaN,,,,,,false,,,,669875,669874.8000000119,,669874.7000000477,,669886.502,8,400,,,
sequence,flow.Sequence,4_87,2023-09-15T19:20:53.940Z,,0,,,3954.806000011973,completion,,,,,false,,,,669875.2000000477,669874.8000000119,665903.328,665916.3000000119,665919.994,669886.502,8,400,,,
trial,html.Screen,4_88_0,2023-09-15T19:20:57.251Z,,0,2,,3299.5980000238633,response,ISIC_0067172.JPG,6,ISIC_9865814.JPG,ISIC_9865814.JPG,false,0,keypress(z),500,673186.5,673186.1000000238,669869.836,669875.3000000119,669886.502,673191.494,8,400,39,,ISIC_0067172.JPG
break,html.Screen,4_88_1,2023-09-15T19:20:57.252Z,,0,,,NaN,,,,,,false,,,,673187.3000000119,673187,,673186.7000000477,,673191.494,8,400,,,
break_continue,html.Screen,4_88_2,2023-09-15T19:20:57.252Z,,0,,,NaN,,,,,,false,,,,673187.8000000119,673187.6000000238,,673187.5,,673191.494,8,400,,,
sequence,flow.Sequence,4_88,2023-09-15T19:20:57.253Z,,0,,,3301.0980000238633,completion,,,,,false,,,,673187.9000000358,673187.6000000238,669869.836,669875.3000000119,669886.502,673191.494,8,400,,,
trial,html.Screen,4_89_0,2023-09-15T19:21:00.713Z,,0,2,,3456.706000047736,response,ISIC_8343285.JPG,8,ISIC_6793603.JPG,ISIC_8343285.JPG,false,1,keypress(m),500,676648.5,676648.2000000477,673174.828,673188,673191.494,676658.022,8,400,40,,ISIC_6793603.JPG
break,html.Screen,4_89_1,2023-09-15T19:21:00.714Z,,0,,,NaN,,,,,,false,,,,676649.5,676649.2000000477,,676648.8000000119,,676658.022,8,400,,,
break_continue,html.Screen,4_89_2,2023-09-15T19:21:00.715Z,,0,,,NaN,,,,,,false,,,,676649.9000000358,676649.7000000477,,676649.6000000238,,676658.022,8,400,,,
sequence,flow.Sequence,4_89,2023-09-15T19:21:00.715Z,,0,,,3458.206000047736,completion,,,,,false,,,,676650.1000000238,676649.7000000477,673174.828,673188,673191.494,676658.022,8,400,,,
trial,html.Screen,4_90_0,2023-09-15T19:21:04.386Z,,0,2,,3663.1780000476865,response,ISIC_8503961.JPG,6,ISIC_7915065.JPG,ISIC_8503961.JPG,false,1,keypress(m),500,680321.5,680321.2000000477,676641.356,676650.2000000477,676658.022,680324.542,8,400,41,,ISIC_7915065.JPG
break,html.Screen,4_90_1,2023-09-15T19:21:04.387Z,,0,,,NaN,,,,,,false,,,,680322.4000000358,680322.1000000238,,680321.7000000477,,680324.542,8,400,,,
break_continue,html.Screen,4_90_2,2023-09-15T19:21:04.388Z,,0,,,NaN,,,,,,false,,,,680322.8000000119,680322.7000000477,,680322.5,,680324.542,8,400,,,
sequence,flow.Sequence,4_90,2023-09-15T19:21:04.388Z,,0,,,3664.6780000476865,completion,,,,,false,,,,680323,680322.7000000477,676641.356,676650.1000000238,676658.022,680324.542,8,400,,,
trial,html.Screen,4_91_0,2023-09-15T19:21:07.929Z,,0,2,,3539.658000047668,response,ISIC_3541663.JPG,4,ISIC_6440229.JPG,ISIC_6440229.JPG,false,0,keypress(z),500,683864.5,683864.2000000477,680307.876,680323.2000000477,680324.542,683881.18,8,400,42,,ISIC_3541663.JPG
break,html.Screen,4_91_1,2023-09-15T19:21:07.930Z,,0,,,NaN,,,,,,false,,,,683865.2000000477,683865.1000000238,,683864.7000000477,,683881.18,8,400,,,
break_continue,html.Screen,4_91_2,2023-09-15T19:21:07.930Z,,0,,,NaN,,,,,,false,,,,683865.7000000477,683865.6000000238,,683865.4000000358,,683881.18,8,400,,,
sequence,flow.Sequence,4_91,2023-09-15T19:21:07.931Z,,0,,,3541.058000023826,completion,,,,,false,,,,683865.9000000358,683865.6000000238,680307.876,680323.1000000238,680324.542,683881.18,8,400,,,
trial,html.Screen,4_92_0,2023-09-15T19:21:14.671Z,,0,2,,6725.319999999949,response,ISIC_3926397.JPG,9,ISIC_4314089.JPG,ISIC_3926397.JPG,false,1,keypress(m),500,690606.8000000119,690606.5,683864.514,683866,683881.18,690614.244,8,400,43,,ISIC_4314089.JPG
break,html.Screen,4_92_1,2023-09-15T19:21:14.672Z,,0,,,NaN,,,,,,false,,,,690607.6000000238,690607.4000000358,,690607,,690614.244,8,400,,,
break_continue,html.Screen,4_92_2,2023-09-15T19:21:14.673Z,,0,,,NaN,,,,,,false,,,,690608,690607.9000000358,,690607.8000000119,,690614.244,8,400,,,
sequence,flow.Sequence,4_92,2023-09-15T19:21:14.673Z,,0,,,6726.720000035712,completion,,,,,false,,,,690608.3000000119,690607.9000000358,683864.514,683866,683881.18,690614.244,8,400,,,
trial,html.Screen,4_93_0,2023-09-15T19:21:18.150Z,,0,2,,3470.856000023894,response,ISIC_0183290.JPG,8,ISIC_7145788.JPG,ISIC_7145788.JPG,false,0,keypress(z),500,694085.4000000358,694085.1000000238,690597.578,690608.4000000358,690614.244,694090.686,8,400,44,,ISIC_0183290.JPG
break,html.Screen,4_93_1,2023-09-15T19:21:18.151Z,,0,,,NaN,,,,,,false,,,,694086.2000000477,694086,,694085.6000000238,,694090.686,8,400,,,
break_continue,html.Screen,4_93_2,2023-09-15T19:21:18.151Z,,0,,,NaN,,,,,,false,,,,694086.6000000238,694086.5,,694086.4000000358,,694090.686,8,400,,,
sequence,flow.Sequence,4_93,2023-09-15T19:21:18.151Z,,0,,,3472.256000000052,completion,,,,,false,,,,694086.8000000119,694086.5,690597.578,690608.4000000358,690614.244,694090.686,8,400,,,
trial,html.Screen,4_94_0,2023-09-15T19:21:22.491Z,,0,2,,4335.714000035776,response,ISIC_0071208.JPG,9,ISIC_3058627.JPG,ISIC_0071208.JPG,false,1,keypress(m),500,698426.8000000119,698426.4000000358,694074.02,694087,694090.686,698440.512,8,400,45,,ISIC_3058627.JPG
break,html.Screen,4_94_1,2023-09-15T19:21:22.492Z,,0,,,NaN,,,,,,false,,,,698427.5,698427.3000000119,,698427,,698440.512,8,400,,,
break_continue,html.Screen,4_94_2,2023-09-15T19:21:22.493Z,,0,,,NaN,,,,,,false,,,,698428,698427.8000000119,,698427.7000000477,,698440.512,8,400,,,
sequence,flow.Sequence,4_94,2023-09-15T19:21:22.493Z,,0,,,4337.114000011934,completion,,,,,false,,,,698428.2000000477,698427.8000000119,694074.02,694086.9000000358,694090.686,698440.512,8,400,,,
trial,html.Screen,4_95_0,2023-09-15T19:21:25.852Z,,0,2,,3346.688000047696,response,ISIC_0033175.JPG,7,ISIC_0059065.JPG,ISIC_0059065.JPG,false,0,keypress(z),500,701787.6000000238,701787.2000000477,698423.846,698428.3000000119,698440.512,701790.378,8,400,46,,ISIC_0033175.JPG
break,html.Screen,4_95_1,2023-09-15T19:21:25.853Z,,0,,,NaN,,,,,,false,,,,701788.3000000119,701788.1000000238,,701787.8000000119,,701790.378,8,400,,,
break_continue,html.Screen,4_95_2,2023-09-15T19:21:25.853Z,,0,,,NaN,,,,,,false,,,,701788.7000000477,701788.6000000238,,701788.5,,701790.378,8,400,,,
sequence,flow.Sequence,4_95,2023-09-15T19:21:25.854Z,,0,,,3348.088000023854,completion,,,,,false,,,,701789,701788.6000000238,698423.846,698428.3000000119,698440.512,701790.378,8,400,,,
trial,html.Screen,4_96_0,2023-09-15T19:21:29.457Z,,0,2,,3601.422000011895,response,ISIC_0002566.JPG,6,ISIC_0005239.JPG,ISIC_0005239.JPG,false,0,keypress(z),500,705392.1000000238,705391.8000000119,701773.712,701789.1000000238,701790.378,705396.133,8,400,47,,ISIC_0002566.JPG
break,html.Screen,4_96_1,2023-09-15T19:21:29.458Z,,0,,,NaN,,,,,,false,,,,705392.9000000358,705392.7000000477,,705392.3000000119,,705396.133,8,400,,,
break_continue,html.Screen,4_96_2,2023-09-15T19:21:29.458Z,,0,,,NaN,,,,,,false,,,,705393.3000000119,705393.1000000238,,705393.1000000238,,705396.133,8,400,,,
sequence,flow.Sequence,4_96,2023-09-15T19:21:29.458Z,,0,,,3602.722000023816,completion,,,,,false,,,,705393.4000000358,705393.1000000238,701773.712,701789,701790.378,705396.133,8,400,,,
trial,html.Screen,4_97_0,2023-09-15T19:21:32.731Z,,0,2,,3270.16700001189,response,ISIC_7454512.JPG,8,ISIC_1711134.JPG,ISIC_7454512.JPG,false,1,keypress(m),500,708666.6000000238,708666.3000000119,705379.467,705393.6000000238,705396.133,708679.335,8,400,48,,ISIC_1711134.JPG
break,html.Screen,4_97_1,2023-09-15T19:21:32.732Z,,0,,,NaN,,,,,,false,,,,708667.4000000358,708667.1000000238,,708666.8000000119,,708679.335,8,400,,,
break_continue,html.Screen,4_97_2,2023-09-15T19:21:32.732Z,,0,,,NaN,,,,,,false,,,,708667.8000000119,708667.7000000477,,708667.6000000238,,708679.335,8,400,,,
sequence,flow.Sequence,4_97,2023-09-15T19:21:32.733Z,,0,,,3271.567000047653,completion,,,,,false,,,,708668.1000000238,708667.7000000477,705379.467,705393.5,705396.133,708679.335,8,400,,,
trial,html.Screen,4_98_0,2023-09-15T19:21:36.498Z,,0,2,,3754.0650000358,response,ISIC_0059569.JPG,6,ISIC_6119208.JPG,ISIC_0059569.JPG,false,1,keypress(m),500,712433.7000000477,712433.4000000358,708662.669,708668.2000000477,708679.335,712435.552,8,400,49,,ISIC_6119208.JPG
break,html.Screen,4_98_1,2023-09-15T19:21:36.499Z,,0,,,NaN,,,,,,false,,,,712434.5,712434.3000000119,,712433.9000000358,,712435.552,8,400,,,
break_continue,html.Screen,4_98_2,2023-09-15T19:21:36.500Z,,0,,,NaN,,,,,,false,,,,712435.1000000238,712434.9000000358,,712434.8000000119,,712435.552,8,400,,,
sequence,flow.Sequence,4_98,2023-09-15T19:21:36.500Z,,0,,,3755.5650000358,completion,,,,,false,,,,712435.2000000477,712434.9000000358,708662.669,708668.1000000238,708679.335,712435.552,8,400,,,
trial,html.Screen,4_99_0,2023-09-15T19:21:39.752Z,,0,2,,3251.947999999975,response,ISIC_7724635.JPG,5,ISIC_9747194.JPG,ISIC_7724635.JPG,false,1,keypress(m),500,715687.8000000119,715687.5,712418.886,712435.4000000358,712435.552,715702.088,8,400,50,,ISIC_9747194.JPG
break,html.Screen,4_99_1,2023-09-15T19:21:49.750Z,,0,,,9998.69000000006,timeout,,,,,false,,,,725685.5,725684.112,715685.422,715688.1000000238,715702.088,725700.778,8,400,,,
break_continue,html.Screen,4_99_2,2023-09-15T19:22:05.453Z,,0,,,15671.122000035713,response,,,,,false,continue,keypress(Space),,741388.6000000238,741371.9000000358,725684.112,725685.6000000238,725700.778,741400.15,8,400,,,
sequence,flow.Sequence,4_99,2023-09-15T19:22:05.453Z,,0,,,28936.348000035738,completion,,,,,false,,,,741388.7000000477,741371.9000000358,712418.886,712435.3000000119,712435.552,741400.15,8,400,,,
trial,html.Screen,4_100_0,2023-09-15T19:22:13.042Z,,0,3,,7577.05000004766,response,ISIC_9417173.JPG,6,ISIC_0010376.JPG,ISIC_0010376.JPG,false,0,keypress(z),500,748977.6000000238,748977.2000000477,741383.484,741388.7000000477,741400.15,748979.227,8,400,1,,ISIC_9417173.JPG
break,html.Screen,4_100_1,2023-09-15T19:22:13.043Z,,0,,,NaN,,,,,,false,,,,748978.4000000358,748978.1000000238,,748977.7000000477,,748979.227,8,400,,,
break_continue,html.Screen,4_100_2,2023-09-15T19:22:13.043Z,,0,,,NaN,,,,,,false,,,,748978.7000000477,748978.6000000238,,748978.5,,748979.227,8,400,,,
sequence,flow.Sequence,4_100,2023-09-15T19:22:13.044Z,,0,,,7578.450000023819,completion,,,,,false,,,,748978.9000000358,748978.6000000238,741383.484,741388.7000000477,741400.15,748979.227,8,400,,,
trial,html.Screen,4_101_0,2023-09-15T19:22:18.022Z,,0,3,,4978.073000011966,response,ISIC_0012245.JPG,6,ISIC_5028203.JPG,ISIC_0012245.JPG,false,1,keypress(m),500,753957.6000000238,753957.3000000119,748962.561,748979.1000000238,748979.227,753969.802,8,400,2,,ISIC_5028203.JPG
break,html.Screen,4_101_1,2023-09-15T19:22:18.023Z,,0,,,NaN,,,,,,false,,,,753958.4000000358,753958.1000000238,,753957.7000000477,,753969.802,8,400,,,
break_continue,html.Screen,4_101_2,2023-09-15T19:22:18.023Z,,0,,,NaN,,,,,,false,,,,753958.8000000119,753958.7000000477,,753958.5,,753969.802,8,400,,,
sequence,flow.Sequence,4_101,2023-09-15T19:22:18.024Z,,0,,,4979.473000047728,completion,,,,,false,,,,753959,753958.7000000477,748962.561,748979.1000000238,748979.227,753969.802,8,400,,,
trial,html.Screen,4_102_0,2023-09-15T19:22:21.276Z,,0,3,,3241.3980000476586,response,ISIC_0030423.JPG,7,ISIC_0031517.JPG,ISIC_0030423.JPG,false,1,keypress(m),500,757211.6000000238,757211.2000000477,753953.136,753959.1000000238,753969.802,757219.672,8,400,3,,ISIC_0031517.JPG
break,html.Screen,4_102_1,2023-09-15T19:22:21.277Z,,0,,,NaN,,,,,,false,,,,757212.4000000358,757212.1000000238,,757211.8000000119,,757219.672,8,400,,,
break_continue,html.Screen,4_102_2,2023-09-15T19:22:21.277Z,,0,,,NaN,,,,,,false,,,,757212.7000000477,757212.7000000477,,757212.5,,757219.672,8,400,,,
sequence,flow.Sequence,4_102,2023-09-15T19:22:21.277Z,,0,,,3242.8980000476586,completion,,,,,false,,,,757212.9000000358,757212.7000000477,753953.136,753959.1000000238,753969.802,757219.672,8,400,,,
trial,html.Screen,4_103_0,2023-09-15T19:22:25.155Z,,0,3,,3870.4280000238214,response,ISIC_0071168.JPG,9,ISIC_3687259.JPG,ISIC_3687259.JPG,false,0,keypress(z),500,761090.4000000358,761090.1000000238,757203.006,757213.1000000238,757219.672,761102.85,8,400,4,,ISIC_0071168.JPG
break,html.Screen,4_103_1,2023-09-15T19:22:25.156Z,,0,,,NaN,,,,,,false,,,,761091.3000000119,761091,,761090.7000000477,,761102.85,8,400,,,
break_continue,html.Screen,4_103_2,2023-09-15T19:22:25.156Z,,0,,,NaN,,,,,,false,,,,761091.7000000477,761091.6000000238,,761091.4000000358,,761102.85,8,400,,,
sequence,flow.Sequence,4_103,2023-09-15T19:22:25.156Z,,0,,,3871.9280000238214,completion,,,,,false,,,,761091.9000000358,761091.6000000238,757203.006,757213,757219.672,761102.85,8,400,,,
trial,html.Screen,4_104_0,2023-09-15T19:22:28.730Z,,0,3,,3562.350000047707,response,ISIC_0485996.JPG,8,ISIC_9280171.JPG,ISIC_0485996.JPG,false,1,keypress(m),500,764665.5,764665.2000000477,761086.184,761092,761102.85,764679.657,8,400,5,,ISIC_9280171.JPG
break,html.Screen,4_104_1,2023-09-15T19:22:28.731Z,,0,,,NaN,,,,,,false,,,,764666.4000000358,764666.1000000238,,764665.7000000477,,764679.657,8,400,,,
break_continue,html.Screen,4_104_2,2023-09-15T19:22:28.731Z,,0,,,NaN,,,,,,false,,,,764666.8000000119,764666.7000000477,,764666.6000000238,,764679.657,8,400,,,
sequence,flow.Sequence,4_104,2023-09-15T19:22:28.732Z,,0,,,3563.850000047707,completion,,,,,false,,,,764667.1000000238,764666.7000000477,761086.184,761092,761102.85,764679.657,8,400,,,
trial,html.Screen,4_105_0,2023-09-15T19:22:32.366Z,,0,3,,3621.4430000238353,response,ISIC_8796968.JPG,7,ISIC_0010207.JPG,ISIC_8796968.JPG,false,1,keypress(m),500,768301.3000000119,768301.1000000238,764662.991,764667.2000000477,764679.657,768312.845,8,400,6,,ISIC_0010207.JPG
break,html.Screen,4_105_1,2023-09-15T19:22:32.367Z,,0,,,NaN,,,,,,false,,,,768302.2000000477,768301.9000000358,,768301.6000000238,,768312.845,8,400,,,
break_continue,html.Screen,4_105_2,2023-09-15T19:22:32.367Z,,0,,,NaN,,,,,,false,,,,768302.6000000238,768302.3000000119,,768302.2000000477,,768312.845,8,400,,,
sequence,flow.Sequence,4_105,2023-09-15T19:22:32.367Z,,0,,,3622.6430000119144,completion,,,,,false,,,,768302.6000000238,768302.3000000119,764662.991,764667.2000000477,764679.657,768312.845,8,400,,,
trial,html.Screen,4_106_0,2023-09-15T19:22:35.637Z,,0,3,,3259.155000000028,response,ISIC_0000304.JPG,8,ISIC_6793830.JPG,ISIC_0000304.JPG,false,1,keypress(m),500,771572.3000000119,771572,768296.179,768302.8000000119,768312.845,771579.381,8,400,7,,ISIC_6793830.JPG
break,html.Screen,4_106_1,2023-09-15T19:22:35.638Z,,0,,,NaN,,,,,,false,,,,771573.1000000238,771572.9000000358,,771572.5,,771579.381,8,400,,,
break_continue,html.Screen,4_106_2,2023-09-15T19:22:35.638Z,,0,,,NaN,,,,,,false,,,,771573.5,771573.3000000119,,771573.3000000119,,771579.381,8,400,,,
sequence,flow.Sequence,4_106,2023-09-15T19:22:35.638Z,,0,,,3260.455000011949,completion,,,,,false,,,,771573.7000000477,771573.3000000119,768296.179,768302.8000000119,768312.845,771579.381,8,400,,,
trial,html.Screen,4_107_0,2023-09-15T19:22:39.499Z,,0,3,,3855.0190000357106,response,ISIC_0510617.JPG,8,ISIC_0057287.JPG,ISIC_0510617.JPG,false,1,keypress(m),500,775434.7000000477,775434.4000000358,771562.715,771573.9000000358,771579.381,775441.382,8,400,8,,ISIC_0057287.JPG
break,html.Screen,4_107_1,2023-09-15T19:22:39.500Z,,0,,,NaN,,,,,,false,,,,775435.5,775435.3000000119,,775434.9000000358,,775441.382,8,400,,,
break_continue,html.Screen,4_107_2,2023-09-15T19:22:39.500Z,,0,,,NaN,,,,,,false,,,,775435.9000000358,775435.7000000477,,775435.6000000238,,775441.382,8,400,,,
sequence,flow.Sequence,4_107,2023-09-15T19:22:39.501Z,,0,,,3856.3190000476316,completion,,,,,false,,,,775436.1000000238,775435.7000000477,771562.715,771573.8000000119,771579.381,775441.382,8,400,,,
trial,html.Screen,4_108_0,2023-09-15T19:22:43.516Z,,0,3,,4009.4180000119377,response,ISIC_0031363.JPG,7,ISIC_0065714.JPG,ISIC_0031363.JPG,false,1,keypress(m),500,779451.1000000238,779450.8000000119,775424.716,775436.2000000477,775441.382,779457.888,8,400,9,,ISIC_0065714.JPG
break,html.Screen,4_108_1,2023-09-15T19:22:43.516Z,,0,,,NaN,,,,,,false,,,,779452,779451.7000000477,,779451.4000000358,,779457.888,8,400,,,
break_continue,html.Screen,4_108_2,2023-09-15T19:22:43.517Z,,0,,,NaN,,,,,,false,,,,779452.4000000358,779452.3000000119,,779452.1000000238,,779457.888,8,400,,,
sequence,flow.Sequence,4_108,2023-09-15T19:22:43.517Z,,0,,,4010.9180000119377,completion,,,,,false,,,,779452.6000000238,779452.3000000119,775424.716,775436.2000000477,775441.382,779457.888,8,400,,,
trial,html.Screen,4_109_0,2023-09-15T19:22:46.915Z,,0,3,,3392.0120000357274,response,ISIC_0027751.JPG,6,ISIC_0012183.JPG,ISIC_0027751.JPG,false,1,keypress(m),500,782850.2000000477,782849.9000000358,779441.222,779452.7000000477,779457.888,782857.752,8,400,10,,ISIC_0012183.JPG
break,html.Screen,4_109_1,2023-09-15T19:22:46.916Z,,0,,,NaN,,,,,,false,,,,782851,782850.8000000119,,782850.4000000358,,782857.752,8,400,,,
break_continue,html.Screen,4_109_2,2023-09-15T19:22:46.916Z,,0,,,NaN,,,,,,false,,,,782851.5,782851.3000000119,,782851.2000000477,,782857.752,8,400,,,
sequence,flow.Sequence,4_109,2023-09-15T19:22:46.916Z,,0,,,3393.4120000118855,completion,,,,,false,,,,782851.6000000238,782851.3000000119,779441.222,779452.7000000477,779457.888,782857.752,8,400,,,
trial,html.Screen,4_110_0,2023-09-15T19:22:50.485Z,,0,3,,3562.2480000000214,response,ISIC_0070422.JPG,9,ISIC_5272345.JPG,ISIC_0070422.JPG,false,1,keypress(m),500,786420.1000000238,786420,782841.086,782851.8000000119,782857.752,786434.638,8,400,11,,ISIC_5272345.JPG
break,html.Screen,4_110_1,2023-09-15T19:22:50.485Z,,0,,,NaN,,,,,,false,,,,786420.5,786420.5,,786420.3000000119,,786434.638,8,400,,,
break_continue,html.Screen,4_110_2,2023-09-15T19:22:50.485Z,,0,,,NaN,,,,,,false,,,,786420.7000000477,786420.6000000238,,786420.6000000238,,786434.638,8,400,,,
sequence,flow.Sequence,4_110,2023-09-15T19:22:50.485Z,,0,,,3562.8480000238633,completion,,,,,false,,,,786420.7000000477,786420.6000000238,782841.086,782851.7000000477,782857.752,786434.638,8,400,,,
trial,html.Screen,4_111_0,2023-09-15T19:22:55.379Z,,0,3,,4880.1620000118855,response,ISIC_0034076.JPG,7,ISIC_0027538.JPG,ISIC_0027538.JPG,false,0,keypress(z),500,791315,791314.8000000119,786417.972,786420.8000000119,786434.638,791317.776,8,400,12,,ISIC_0034076.JPG
break,html.Screen,4_111_1,2023-09-15T19:22:55.380Z,,0,,,NaN,,,,,,false,,,,791315.8000000119,791315.6000000238,,791315.2000000477,,791317.776,8,400,,,
break_continue,html.Screen,4_111_2,2023-09-15T19:22:55.381Z,,0,,,NaN,,,,,,false,,,,791316.3000000119,791316.1000000238,,791316,,791317.776,8,400,,,
sequence,flow.Sequence,4_111,2023-09-15T19:22:55.381Z,,0,,,4881.4620000238065,completion,,,,,false,,,,791316.4000000358,791316.1000000238,786417.972,786420.8000000119,786434.638,791317.776,8,400,,,
trial,html.Screen,4_112_0,2023-09-15T19:22:59.347Z,,0,3,,3964.5240000119666,response,ISIC_0010241.JPG,4,ISIC_0010767.JPG,ISIC_0010241.JPG,false,1,keypress(m),500,795282.5,795282.3000000119,791301.11,791316.5,791317.776,795284.284,8,400,13,,ISIC_0010767.JPG
break,html.Screen,4_112_1,2023-09-15T19:22:59.348Z,,0,,,NaN,,,,,,false,,,,795283.3000000119,795283.1000000238,,795282.7000000477,,795284.284,8,400,,,
break_continue,html.Screen,4_112_2,2023-09-15T19:22:59.348Z,,0,,,NaN,,,,,,false,,,,795283.8000000119,795283.7000000477,,795283.5,,795284.284,8,400,,,
sequence,flow.Sequence,4_112,2023-09-15T19:22:59.348Z,,0,,,3965.9240000477294,completion,,,,,false,,,,795284,795283.7000000477,791301.11,791316.5,791317.776,795284.284,8,400,,,
trial,html.Screen,4_113_0,2023-09-15T19:23:02.967Z,,0,3,,3618.4160000476986,response,ISIC_0674746.JPG,7,ISIC_0066671.JPG,ISIC_0674746.JPG,false,1,keypress(m),500,798903,798902.7000000477,795267.618,795284.1000000238,795284.284,798909.789,8,400,14,,ISIC_0066671.JPG
break,html.Screen,4_113_1,2023-09-15T19:23:02.968Z,,0,,,NaN,,,,,,false,,,,798903.8000000119,798903.5,,798903.2000000477,,798909.789,8,400,,,
break_continue,html.Screen,4_113_2,2023-09-15T19:23:02.969Z,,0,,,NaN,,,,,,false,,,,798904.2000000477,798904,,798904,,798909.789,8,400,,,
sequence,flow.Sequence,4_113,2023-09-15T19:23:02.969Z,,0,,,3619.716000000015,completion,,,,,false,,,,798904.4000000358,798904,795267.618,795284.1000000238,795284.284,798909.789,8,400,,,
trial,html.Screen,4_114_0,2023-09-15T19:23:06.605Z,,0,3,,3631.011000011931,response,ISIC_5039895.JPG,5,ISIC_0033287.JPG,ISIC_0033287.JPG,false,0,keypress(z),500,802541.1000000238,802540.8000000119,798893.123,798904.5,798909.789,802542.977,8,400,15,,ISIC_5039895.JPG
break,html.Screen,4_114_1,2023-09-15T19:23:06.606Z,,0,,,NaN,,,,,,false,,,,802541.9000000358,802541.6000000238,,802541.2000000477,,802542.977,8,400,,,
break_continue,html.Screen,4_114_2,2023-09-15T19:23:06.607Z,,0,,,NaN,,,,,,false,,,,802542.3000000119,802542.1000000238,,802542.1000000238,,802542.977,8,400,,,
sequence,flow.Sequence,4_114,2023-09-15T19:23:06.607Z,,0,,,3632.311000023852,completion,,,,,false,,,,802542.5,802542.1000000238,798893.123,798904.5,798909.789,802542.977,8,400,,,
trial,html.Screen,4_115_0,2023-09-15T19:23:10.546Z,,0,3,,3938.3230000119656,response,ISIC_0072990.JPG,5,ISIC_0027941.JPG,ISIC_0072990.JPG,false,1,keypress(m),500,806481.6000000238,806481.3000000119,802526.311,802542.6000000238,802542.977,806497.891,8,400,16,,ISIC_0027941.JPG
break,html.Screen,4_115_1,2023-09-15T19:23:10.547Z,,0,,,NaN,,,,,,false,,,,806482.5,806482.2000000477,,806481.9000000358,,806497.891,8,400,,,
break_continue,html.Screen,4_115_2,2023-09-15T19:23:10.547Z,,0,,,NaN,,,,,,false,,,,806482.9000000358,806482.8000000119,,806482.6000000238,,806497.891,8,400,,,
sequence,flow.Sequence,4_115,2023-09-15T19:23:10.548Z,,0,,,3939.8230000119656,completion,,,,,false,,,,806483.1000000238,806482.8000000119,802526.311,802542.5,802542.977,806497.891,8,400,,,
trial,html.Screen,4_116_0,2023-09-15T19:23:14.389Z,,0,3,,3826.3090000477387,response,ISIC_9470876.JPG,6,ISIC_9183042.JPG,ISIC_9183042.JPG,false,0,keypress(z),500,810324.5,810324.2000000477,806481.225,806483.2000000477,806497.891,810331.071,8,400,17,,ISIC_9470876.JPG
break,html.Screen,4_116_1,2023-09-15T19:23:14.390Z,,0,,,NaN,,,,,,false,,,,810325.3000000119,810325.1000000238,,810324.7000000477,,810331.071,8,400,,,
break_continue,html.Screen,4_116_2,2023-09-15T19:23:14.390Z,,0,,,NaN,,,,,,false,,,,810325.8000000119,810325.7000000477,,810325.6000000238,,810331.071,8,400,,,
sequence,flow.Sequence,4_116,2023-09-15T19:23:14.390Z,,0,,,3827.8090000477387,completion,,,,,false,,,,810326,810325.7000000477,806481.225,806483.2000000477,806497.891,810331.071,8,400,,,
trial,html.Screen,4_117_0,2023-09-15T19:23:18.923Z,,0,3,,4527.529000023846,response,ISIC_3073339.JPG,8,ISIC_0056364.JPG,ISIC_0056364.JPG,false,0,keypress(z),500,814858.9000000358,814858.6000000238,810314.405,810326.1000000238,810331.071,814864.223,8,400,18,,ISIC_3073339.JPG
break,html.Screen,4_117_1,2023-09-15T19:23:18.924Z,,0,,,NaN,,,,,,false,,,,814859.6000000238,814859.5,,814859,,814864.223,8,400,,,
break_continue,html.Screen,4_117_2,2023-09-15T19:23:18.924Z,,0,,,NaN,,,,,,false,,,,814860,814859.9000000358,,814859.8000000119,,814864.223,8,400,,,
sequence,flow.Sequence,4_117,2023-09-15T19:23:18.925Z,,0,,,4528.8290000357665,completion,,,,,false,,,,814860.3000000119,814859.9000000358,810314.405,810326,810331.071,814864.223,8,400,,,
trial,html.Screen,4_118_0,2023-09-15T19:23:22.107Z,,0,3,,3178.1770000357646,response,ISIC_4026540.JPG,4,ISIC_0001151.JPG,ISIC_4026540.JPG,false,1,keypress(m),500,818042.6000000238,818042.4000000358,814847.557,814860.3000000119,814864.223,818053.904,8,400,19,,ISIC_0001151.JPG
break,html.Screen,4_118_1,2023-09-15T19:23:22.108Z,,0,,,NaN,,,,,,false,,,,818043.4000000358,818043.2000000477,,818042.9000000358,,818053.904,8,400,,,
break_continue,html.Screen,4_118_2,2023-09-15T19:23:22.108Z,,0,,,NaN,,,,,,false,,,,818043.8000000119,818043.7000000477,,818043.6000000238,,818053.904,8,400,,,
sequence,flow.Sequence,4_118,2023-09-15T19:23:22.108Z,,0,,,3179.4770000476856,completion,,,,,false,,,,818044,818043.7000000477,814847.557,814860.3000000119,814864.223,818053.904,8,400,,,
trial,html.Screen,4_119_0,2023-09-15T19:23:26.912Z,,0,3,,4793.8960000119405,response,ISIC_6352565.JPG,7,ISIC_1154109.JPG,ISIC_6352565.JPG,false,1,keypress(m),500,822848.1000000238,822847.8000000119,818037.238,818044.2000000477,818053.904,822853.712,8,400,20,,ISIC_1154109.JPG
break,html.Screen,4_119_1,2023-09-15T19:23:26.913Z,,0,,,NaN,,,,,,false,,,,822848.9000000358,822848.7000000477,,822848.3000000119,,822853.712,8,400,,,
break_continue,html.Screen,4_119_2,2023-09-15T19:23:26.914Z,,0,,,NaN,,,,,,false,,,,822849.3000000119,822849.1000000238,,822849,,822853.712,8,400,,,
sequence,flow.Sequence,4_119,2023-09-15T19:23:26.914Z,,0,,,4795.196000023861,completion,,,,,false,,,,822849.4000000358,822849.1000000238,818037.238,818044.1000000238,818053.904,822853.712,8,400,,,
trial,html.Screen,4_120_0,2023-09-15T19:23:30.518Z,,0,3,,3599.388000023784,response,ISIC_5248948.JPG,6,ISIC_0032602.JPG,ISIC_0032602.JPG,false,0,keypress(z),500,826453.4000000358,826453.1000000238,822837.046,822849.6000000238,822853.712,826470.234,8,400,21,,ISIC_5248948.JPG
break,html.Screen,4_120_1,2023-09-15T19:23:30.519Z,,0,,,NaN,,,,,,false,,,,826454.2000000477,826454,,826453.6000000238,,826470.234,8,400,,,
break_continue,html.Screen,4_120_2,2023-09-15T19:23:30.519Z,,0,,,NaN,,,,,,false,,,,826454.6000000238,826454.5,,826454.4000000358,,826470.234,8,400,,,
sequence,flow.Sequence,4_120,2023-09-15T19:23:30.519Z,,0,,,3600.7879999999423,completion,,,,,false,,,,826454.7000000477,826454.5,822837.046,822849.6000000238,822853.712,826470.234,8,400,,,
trial,html.Screen,4_121_0,2023-09-15T19:23:35.371Z,,0,3,,4836.166000035708,response,ISIC_0011987.JPG,6,ISIC_0028944.JPG,ISIC_0011987.JPG,false,1,keypress(m),500,831306.8000000119,831306.4000000358,826453.568,826454.9000000358,826470.234,831319.151,8,400,22,,ISIC_0028944.JPG
break,html.Screen,4_121_1,2023-09-15T19:23:35.372Z,,0,,,NaN,,,,,,false,,,,831307.6000000238,831307.4000000358,,831307,,831319.151,8,400,,,
break_continue,html.Screen,4_121_2,2023-09-15T19:23:35.372Z,,0,,,NaN,,,,,,false,,,,831308,831307.8000000119,,831307.7000000477,,831319.151,8,400,,,
sequence,flow.Sequence,4_121,2023-09-15T19:23:35.373Z,,0,,,4837.566000011866,completion,,,,,false,,,,831308.1000000238,831307.8000000119,826453.568,826454.8000000119,826470.234,831319.151,8,400,,,
trial,html.Screen,4_122_0,2023-09-15T19:23:39.323Z,,0,3,,3939.2490000358084,response,ISIC_7129085.JPG,7,ISIC_3315146.JPG,ISIC_7129085.JPG,false,1,keypress(m),500,835258.7000000477,835258.4000000358,831302.485,831308.3000000119,831319.151,835268.993,8,400,23,,ISIC_3315146.JPG
break,html.Screen,4_122_1,2023-09-15T19:23:39.324Z,,0,,,NaN,,,,,,false,,,,835259.5,835259.2000000477,,835258.9000000358,,835268.993,8,400,,,
break_continue,html.Screen,4_122_2,2023-09-15T19:23:39.324Z,,0,,,NaN,,,,,,false,,,,835260,835259.8000000119,,835259.7000000477,,835268.993,8,400,,,
sequence,flow.Sequence,4_122,2023-09-15T19:23:39.325Z,,0,,,3940.6490000119666,completion,,,,,false,,,,835260.2000000477,835259.8000000119,831302.485,831308.3000000119,831319.151,835268.993,8,400,,,
trial,html.Screen,4_123_0,2023-09-15T19:23:43.087Z,,0,3,,3753.0069999999832,response,ISIC_0027265.JPG,7,ISIC_9351418.JPG,ISIC_0027265.JPG,false,1,keypress(m),500,839022.3000000119,839022,835252.327,835260.2000000477,835268.993,839036.663,8,400,24,,ISIC_9351418.JPG
break,html.Screen,4_123_1,2023-09-15T19:23:43.087Z,,0,,,NaN,,,,,,false,,,,839023.1000000238,839022.9000000358,,839022.5,,839036.663,8,400,,,
break_continue,html.Screen,4_123_2,2023-09-15T19:23:43.088Z,,0,,,NaN,,,,,,false,,,,839023.5,839023.4000000358,,839023.3000000119,,839036.663,8,400,,,
sequence,flow.Sequence,4_123,2023-09-15T19:23:43.088Z,,0,,,3754.407000035746,completion,,,,,false,,,,839023.7000000477,839023.4000000358,835252.327,835260.2000000477,835268.993,839036.663,8,400,,,
trial,html.Screen,4_124_0,2023-09-15T19:23:48.501Z,,0,3,,5399.637000011979,response,ISIC_0024263.JPG,8,ISIC_0011587.JPG,ISIC_0011587.JPG,false,0,keypress(z),500,844436.6000000238,844436.3000000119,839019.997,839023.9000000358,839036.663,844453.113,8,400,25,,ISIC_0024263.JPG
break,html.Screen,4_124_1,2023-09-15T19:23:48.502Z,,0,,,NaN,,,,,,false,,,,844437.4000000358,844437.2000000477,,844436.8000000119,,844453.113,8,400,,,
break_continue,html.Screen,4_124_2,2023-09-15T19:23:48.502Z,,0,,,NaN,,,,,,false,,,,844437.8000000119,844437.7000000477,,844437.6000000238,,844453.113,8,400,,,
sequence,flow.Sequence,4_124,2023-09-15T19:23:48.502Z,,0,,,5401.0370000477415,completion,,,,,false,,,,844438,844437.7000000477,839019.997,839023.8000000119,839036.663,844453.113,8,400,,,
trial,html.Screen,4_125_0,2023-09-15T19:23:52.682Z,,0,3,,4164.386999999988,response,ISIC_0014319.JPG,8,ISIC_0056689.JPG,ISIC_0014319.JPG,false,1,keypress(m),500,848617.7000000477,848617.5,844436.447,844438.1000000238,844453.113,848631.185,8,400,26,,ISIC_0056689.JPG
break,html.Screen,4_125_1,2023-09-15T19:23:52.683Z,,0,,,NaN,,,,,,false,,,,848618.5,848618.2000000477,,848617.9000000358,,848631.185,8,400,,,
break_continue,html.Screen,4_125_2,2023-09-15T19:23:52.683Z,,0,,,NaN,,,,,,false,,,,848618.9000000358,848618.8000000119,,848618.7000000477,,848631.185,8,400,,,
sequence,flow.Sequence,4_125,2023-09-15T19:23:52.683Z,,0,,,4165.687000011909,completion,,,,,false,,,,848619.1000000238,848618.8000000119,844436.447,844438.1000000238,844453.113,848631.185,8,400,,,
