sender,sender_type,sender_id,timestamp,meta,,blockNo,condition,duration,ended_on,img_left,img_reveal,img_right,loser,practice,response,response_action,selection_duration,time_commit,time_end,time_render,time_run,time_show,time_switch,total_blocks,total_trials,trialNo,url,winner
informed_consent,html.Screen,0,2023-05-02T17:51:13.319Z,"{""labjs_version"":""20.2.4"",""labjs_build"":{""flavor"":""production"",""commit"":""f5b4a49f956347addd546a832a3327688c2c0fef""},""location"":""https://run.pavlovia.org/MurrayBennett/melanoma-2afc/?participant=65190"",""userAgent"":""Mozilla/5.0 (Macintosh; Intel Mac OS X 10_15_7) AppleWebKit/605.1.15 (KHTML, like Gecko) Version/16.4 Safari/605.1.15"",""platform"":""MacIntel"",""language"":""en-US"",""locale"":""en-US"",""timeZone"":""America/Chicago"",""timezoneOffset"":300,""screen_width"":820,""screen_height"":1180,""scroll_width"":1180,""scroll_height"":729,""window_innerWidth"":1180,""window_innerHeight"":713,""devicePixelRatio"":2}",,,,2616,response,,,,,,consent,click button,,3163.0000000000005,3150,534,532,542,3178,,,,"{""participant"":""65190""}",
Welcome,html.Screen,1,2023-05-02T17:51:14.799Z,,,,regular,1457,response,,,,,,continue,click button,,4644,4631,3174,3164,3178,4659,,,,,
trial,html.Screen,2_0_0,2023-05-02T17:51:19.718Z,,0,0,,4913,response,ISIC_0061792.JPG,,ISIC_4679428.JPG,ISIC_0061792.JPG,true,1,keypress(m),500,9562,9562,4649,4644,4659,9572,1,6,1,,ISIC_4679428.JPG
sequence,flow.Sequence,2_0,2023-05-02T17:51:19.719Z,,0,,,4903,completion,,,,,true,,,,9563,9562,4649,4644,4659,9572,1,6,,,
trial,html.Screen,2_1_0,2023-05-02T17:51:24.359Z,,0,0,,4637.000000000002,response,ISIC_0776486.JPG,,ISIC_5199497.JPG,ISIC_0776486.JPG,true,1,keypress(m),500,14203.000000000002,14203.000000000002,9566,9564,9572,14212,1,6,2,,ISIC_5199497.JPG
sequence,flow.Sequence,2_1,2023-05-02T17:51:24.360Z,,0,,,4631.000000000002,completion,,,,,true,,,,14204,14203.000000000002,9566,9563,9572,14212,1,6,,,
trial,html.Screen,2_2_0,2023-05-02T17:51:28.740Z,,0,0,,4376,response,ISIC_2556187.JPG,,ISIC_8575776.JPG,ISIC_8575776.JPG,true,0,keypress(z),500,18585,18584,14208,14204,14212,18594,1,6,3,,ISIC_2556187.JPG
sequence,flow.Sequence,2_2,2023-05-02T17:51:28.741Z,,0,,,4372,completion,,,,,true,,,,18586.000000000004,18584,14208,14204,14212,18594,1,6,,,
trial,html.Screen,2_3_0,2023-05-02T17:51:33.157Z,,0,0,,4412,response,ISIC_8141769.JPG,,ISIC_9238366.JPG,ISIC_9238366.JPG,true,0,keypress(z),500,23001,23001,18589,18586.000000000004,18594,23010,1,6,4,,ISIC_8141769.JPG
sequence,flow.Sequence,2_3,2023-05-02T17:51:33.158Z,,0,,,4407,completion,,,,,true,,,,23002,23001,18589,18586.000000000004,18594,23010,1,6,,,
trial,html.Screen,2_4_0,2023-05-02T17:51:38.041Z,,0,0,,4880,response,ISIC_8949026.JPG,,ISIC_9959593.JPG,ISIC_8949026.JPG,true,1,keypress(m),500,27885,27885,23005,23002,23010,27895,1,6,5,,ISIC_9959593.JPG
sequence,flow.Sequence,2_4,2023-05-02T17:51:38.041Z,,0,,,4875,completion,,,,,true,,,,27886,27885,23005,23002,23010,27895,1,6,,,
trial,html.Screen,2_5_0,2023-05-02T17:51:42.070Z,,0,0,,4025,response,ISIC_0010479.JPG,,ISIC_0460240.JPG,ISIC_0460240.JPG,true,0,keypress(z),500,31914,31914,27889,27886,27895,31924,1,6,6,,ISIC_0010479.JPG
sequence,flow.Sequence,2_5,2023-05-02T17:51:42.070Z,,0,,,4019,completion,,,,,true,,,,31915,31914,27889,27886,27895,31924,1,6,,,
loop,flow.Loop,2,2023-05-02T17:51:42.071Z,,,,,27255,completion,,,,,true,,,,31915,31914,4649,4644,4659,31924,1,6,,,
exp_instructions,html.Screen,3,2023-05-02T17:52:07.182Z,,,,,25107,response,,,,,,continue,keypress(Space),,57026,57025,31918,31915,31924,57037,,,,,
trial,html.Screen,4_0_0,2023-05-02T17:52:12.323Z,,0,1,,5136,response,ISIC_3148886.JPG,,ISIC_0014110.JPG,ISIC_3148886.JPG,false,1,keypress(m),500,62168,62167,57031,57027,57037,62177,8,400,1,,ISIC_0014110.JPG
break,html.Screen,4_0_1,2023-05-02T17:52:12.325Z,,0,,,NaN,,,,,,false,,,,62169.00000000001,62169.00000000001,,62168,,62177,8,400,,,
break_continue,html.Screen,4_0_2,2023-05-02T17:52:12.325Z,,0,,,NaN,,,,,,false,,,,62170,62170,,62169.00000000001,,62177,8,400,,,
sequence,flow.Sequence,4_0,2023-05-02T17:52:12.325Z,,0,,,5133,completion,,,,,false,,,,62170,62170,57031,57027,57037,62177,8,400,,,
trial,html.Screen,4_1_0,2023-05-02T17:52:17.779Z,,0,1,,5451,response,ISIC_0009941.JPG,,ISIC_6446753.JPG,ISIC_6446753.JPG,false,0,keypress(z),500,67623,67623,62172,62170,62177,67635,8,400,2,,ISIC_0009941.JPG
break,html.Screen,4_1_1,2023-05-02T17:52:17.780Z,,0,,,NaN,,,,,,false,,,,67625,67624,,67624,,67635,8,400,,,
break_continue,html.Screen,4_1_2,2023-05-02T17:52:17.781Z,,0,,,NaN,,,,,,false,,,,67625,67625,,67625,,67635,8,400,,,
sequence,flow.Sequence,4_1,2023-05-02T17:52:17.782Z,,0,,,5448,completion,,,,,false,,,,67626,67625,62172,62170,62177,67635,8,400,,,
trial,html.Screen,4_2_0,2023-05-02T17:52:22.146Z,,0,1,,4360,response,ISIC_0046642.JPG,,ISIC_0061734.JPG,ISIC_0061734.JPG,false,0,keypress(z),500,71991,71990,67630,67627,67635,72002,8,400,3,,ISIC_0046642.JPG
break,html.Screen,4_2_1,2023-05-02T17:52:22.147Z,,0,,,NaN,,,,,,false,,,,71992,71991,,71991,,72002,8,400,,,
break_continue,html.Screen,4_2_2,2023-05-02T17:52:22.148Z,,0,,,NaN,,,,,,false,,,,71992,71992,,71992,,72002,8,400,,,
sequence,flow.Sequence,4_2,2023-05-02T17:52:22.148Z,,0,,,4357,completion,,,,,false,,,,71992,71992,67630,67627,67635,72002,8,400,,,
trial,html.Screen,4_3_0,2023-05-02T17:52:26.830Z,,0,1,,4679,response,ISIC_0033967.JPG,,ISIC_0031369.JPG,ISIC_0031369.JPG,false,0,keypress(z),500,76676,76675,71996,71992,72002,76689,8,400,4,,ISIC_0033967.JPG
break,html.Screen,4_3_1,2023-05-02T17:52:26.832Z,,0,,,NaN,,,,,,false,,,,76678,76678,,76677,,76689,8,400,,,
break_continue,html.Screen,4_3_2,2023-05-02T17:52:26.833Z,,0,,,NaN,,,,,,false,,,,76679,76679,,76678,,76689,8,400,,,
sequence,flow.Sequence,4_3,2023-05-02T17:52:26.834Z,,0,,,4677,completion,,,,,false,,,,76680,76679,71996,71992,72002,76689,8,400,,,
trial,html.Screen,4_4_0,2023-05-02T17:52:30.976Z,,0,1,,4138,response,ISIC_0033405.JPG,,ISIC_0066749.JPG,ISIC_0033405.JPG,false,1,keypress(m),500,80823.00000000001,80822,76684,76681,76689,80837,8,400,5,,ISIC_0066749.JPG
break,html.Screen,4_4_1,2023-05-02T17:52:30.979Z,,0,,,NaN,,,,,,false,,,,80826.00000000001,80825,,80824,,80837,8,400,,,
break_continue,html.Screen,4_4_2,2023-05-02T17:52:30.980Z,,0,,,NaN,,,,,,false,,,,80827,80826.00000000001,,80826.00000000001,,80837,8,400,,,
sequence,flow.Sequence,4_4,2023-05-02T17:52:30.981Z,,0,,,4137.000000000015,completion,,,,,false,,,,80827,80826.00000000001,76684,76681,76689,80837,8,400,,,
trial,html.Screen,4_5_0,2023-05-02T17:52:35.732Z,,0,1,,4747.000000000015,response,ISIC_0000554.JPG,,ISIC_5147292.JPG,ISIC_5147292.JPG,false,0,keypress(z),500,85580,85579.00000000001,80832,80828,80837,85589,8,400,6,,ISIC_0000554.JPG
break,html.Screen,4_5_1,2023-05-02T17:52:35.734Z,,0,,,NaN,,,,,,false,,,,85582.00000000001,85581,,85580,,85589,8,400,,,
break_continue,html.Screen,4_5_2,2023-05-02T17:52:35.734Z,,0,,,NaN,,,,,,false,,,,85582.00000000001,85582.00000000001,,85582.00000000001,,85589,8,400,,,
sequence,flow.Sequence,4_5,2023-05-02T17:52:35.734Z,,0,,,4745.000000000015,completion,,,,,false,,,,85582.00000000001,85582.00000000001,80832,80828,80837,85589,8,400,,,
trial,html.Screen,4_6_0,2023-05-02T17:52:40.990Z,,0,1,,5253.000000000015,response,ISIC_9895436.JPG,,ISIC_0156642.JPG,ISIC_9895436.JPG,false,1,keypress(m),500,90839,90838.00000000001,85585,85583,85589,90848,8,400,7,,ISIC_0156642.JPG
break,html.Screen,4_6_1,2023-05-02T17:52:40.991Z,,0,,,NaN,,,,,,false,,,,90840,90840,,90839,,90848,8,400,,,
break_continue,html.Screen,4_6_2,2023-05-02T17:52:40.991Z,,0,,,NaN,,,,,,false,,,,90840,90840,,90840,,90848,8,400,,,
sequence,flow.Sequence,4_6,2023-05-02T17:52:40.992Z,,0,,,5251,completion,,,,,false,,,,90840,90840,85585,85582.00000000001,85589,90848,8,400,,,
trial,html.Screen,4_7_0,2023-05-02T17:52:45.692Z,,0,1,,4698,response,ISIC_0032339.JPG,,ISIC_0359307.JPG,ISIC_0032339.JPG,false,1,keypress(m),500,95542,95541,90843,90841.00000000001,90848,95552,8,400,8,,ISIC_0359307.JPG
break,html.Screen,4_7_1,2023-05-02T17:52:45.693Z,,0,,,NaN,,,,,,false,,,,95543,95543,,95542,,95552,8,400,,,
break_continue,html.Screen,4_7_2,2023-05-02T17:52:45.694Z,,0,,,NaN,,,,,,false,,,,95543,95543,,95543,,95552,8,400,,,
sequence,flow.Sequence,4_7,2023-05-02T17:52:45.694Z,,0,,,4695,completion,,,,,false,,,,95543,95543,90843,90841.00000000001,90848,95552,8,400,,,
trial,html.Screen,4_8_0,2023-05-02T17:52:49.455Z,,0,1,,3758,response,ISIC_1471329.JPG,,ISIC_1269461.JPG,ISIC_1269461.JPG,false,0,keypress(z),500,99305,99304,95546,95543,95552,99314,8,400,9,,ISIC_1471329.JPG
break,html.Screen,4_8_1,2023-05-02T17:52:49.456Z,,0,,,NaN,,,,,,false,,,,99306,99305,,99305,,99314,8,400,,,
break_continue,html.Screen,4_8_2,2023-05-02T17:52:49.456Z,,0,,,NaN,,,,,,false,,,,99306,99306,,99306,,99314,8,400,,,
sequence,flow.Sequence,4_8,2023-05-02T17:52:49.457Z,,0,,,3754,completion,,,,,false,,,,99306,99306,95546,95543,95552,99314,8,400,,,
trial,html.Screen,4_9_0,2023-05-02T17:52:54.177Z,,0,1,,4717,response,ISIC_0031021.JPG,,ISIC_4673648.JPG,ISIC_0031021.JPG,false,1,keypress(m),500,104026,104026,99309,99307,99314,104037,8,400,10,,ISIC_4673648.JPG
break,html.Screen,4_9_1,2023-05-02T17:52:54.178Z,,0,,,NaN,,,,,,false,,,,104027,104027,,104027,,104037,8,400,,,
break_continue,html.Screen,4_9_2,2023-05-02T17:52:54.178Z,,0,,,NaN,,,,,,false,,,,104028,104028,,104028,,104037,8,400,,,
sequence,flow.Sequence,4_9,2023-05-02T17:52:54.179Z,,0,,,4714,completion,,,,,false,,,,104029,104028,99309,99306,99314,104037,8,400,,,
trial,html.Screen,4_10_0,2023-05-02T17:52:58.256Z,,0,1,,4073,response,ISIC_0054892.JPG,,ISIC_9181399.JPG,ISIC_9181399.JPG,false,0,keypress(z),500,108106.00000000001,108105,104032,104029,104037,108116,8,400,11,,ISIC_0054892.JPG
break,html.Screen,4_10_1,2023-05-02T17:52:58.257Z,,0,,,NaN,,,,,,false,,,,108107,108107,,108107,,108116,8,400,,,
break_continue,html.Screen,4_10_2,2023-05-02T17:52:58.258Z,,0,,,NaN,,,,,,false,,,,108108,108108,,108108,,108116,8,400,,,
sequence,flow.Sequence,4_10,2023-05-02T17:52:58.258Z,,0,,,4071,completion,,,,,false,,,,108108,108108,104032,104029,104037,108116,8,400,,,
trial,html.Screen,4_11_0,2023-05-02T17:53:02.505Z,,0,1,,4244,response,ISIC_3418978.JPG,,ISIC_3116288.JPG,ISIC_3418978.JPG,false,1,keypress(m),500,112356.00000000001,112355,108111,108108,108116,112366,8,400,12,,ISIC_3116288.JPG
break,html.Screen,4_11_1,2023-05-02T17:53:02.507Z,,0,,,NaN,,,,,,false,,,,112357,112357,,112356.00000000001,,112366,8,400,,,
break_continue,html.Screen,4_11_2,2023-05-02T17:53:02.507Z,,0,,,NaN,,,,,,false,,,,112357,112357,,112357,,112366,8,400,,,
sequence,flow.Sequence,4_11,2023-05-02T17:53:02.507Z,,0,,,4241,completion,,,,,false,,,,112357,112357,108111,108108,108116,112366,8,400,,,
trial,html.Screen,4_12_0,2023-05-02T17:53:06.821Z,,0,1,,4310,response,ISIC_6710082.JPG,,ISIC_5993530.JPG,ISIC_6710082.JPG,false,1,keypress(m),500,116672,116671,112361,112357,112366,116680,8,400,13,,ISIC_5993530.JPG
break,html.Screen,4_12_1,2023-05-02T17:53:06.823Z,,0,,,NaN,,,,,,false,,,,116673,116673,,116672,,116680,8,400,,,
break_continue,html.Screen,4_12_2,2023-05-02T17:53:06.823Z,,0,,,NaN,,,,,,false,,,,116673,116673,,116673,,116680,8,400,,,
sequence,flow.Sequence,4_12,2023-05-02T17:53:06.823Z,,0,,,4307,completion,,,,,false,,,,116673,116673,112361,112357,112366,116680,8,400,,,
trial,html.Screen,4_13_0,2023-05-02T17:53:10.544Z,,0,1,,3718,response,ISIC_1231722.JPG,,ISIC_2631789.JPG,ISIC_2631789.JPG,false,0,keypress(z),500,120395,120394,116676,116673,116680,120403,8,400,14,,ISIC_1231722.JPG
break,html.Screen,4_13_1,2023-05-02T17:53:10.545Z,,0,,,NaN,,,,,,false,,,,120396,120395,,120395,,120403,8,400,,,
break_continue,html.Screen,4_13_2,2023-05-02T17:53:10.545Z,,0,,,NaN,,,,,,false,,,,120396,120396,,120396,,120403,8,400,,,
sequence,flow.Sequence,4_13,2023-05-02T17:53:10.546Z,,0,,,3716,completion,,,,,false,,,,120396,120396,116676,116673,116680,120403,8,400,,,
trial,html.Screen,4_14_0,2023-05-02T17:53:15.519Z,,0,1,,4970,response,ISIC_3315146.JPG,,ISIC_0063601.JPG,ISIC_0063601.JPG,false,0,keypress(z),500,125370,125369,120399,120396,120403,125395,8,400,15,,ISIC_3315146.JPG
break,html.Screen,4_14_1,2023-05-02T17:53:15.521Z,,0,,,NaN,,,,,,false,,,,125372,125371.00000000001,,125370,,125395,8,400,,,
break_continue,html.Screen,4_14_2,2023-05-02T17:53:15.522Z,,0,,,NaN,,,,,,false,,,,125373,125372,,125372,,125395,8,400,,,
sequence,flow.Sequence,4_14,2023-05-02T17:53:15.522Z,,0,,,4969,completion,,,,,false,,,,125373,125372,120399,120396,120403,125395,8,400,,,
trial,html.Screen,4_15_0,2023-05-02T17:53:19.553Z,,0,1,,4024.9999999999854,response,ISIC_0013639.JPG,,ISIC_0031034.JPG,ISIC_0013639.JPG,false,1,keypress(m),500,129402.99999999999,129402.99999999999,125378,125374.00000000001,125395,129414,8,400,16,,ISIC_0031034.JPG
break,html.Screen,4_15_1,2023-05-02T17:53:19.554Z,,0,,,NaN,,,,,,false,,,,129404,129404,,129404,,129414,8,400,,,
break_continue,html.Screen,4_15_2,2023-05-02T17:53:19.554Z,,0,,,NaN,,,,,,false,,,,129405,129405,,129405,,129414,8,400,,,
sequence,flow.Sequence,4_15,2023-05-02T17:53:19.554Z,,0,,,4010,completion,,,,,false,,,,129405,129405,125378,125373,125395,129414,8,400,,,
trial,html.Screen,4_16_0,2023-05-02T17:53:23.423Z,,0,1,,3865,response,ISIC_0645116.JPG,,ISIC_0066094.JPG,ISIC_0645116.JPG,false,1,keypress(m),500,133274,133273,129408,129405,129414,133282,8,400,17,,ISIC_0066094.JPG
break,html.Screen,4_16_1,2023-05-02T17:53:23.425Z,,0,,,NaN,,,,,,false,,,,133275,133275,,133274,,133282,8,400,,,
break_continue,html.Screen,4_16_2,2023-05-02T17:53:23.425Z,,0,,,NaN,,,,,,false,,,,133276,133276,,133275,,133282,8,400,,,
sequence,flow.Sequence,4_16,2023-05-02T17:53:23.425Z,,0,,,3862,completion,,,,,false,,,,133276,133276,129408,129405,129414,133282,8,400,,,
trial,html.Screen,4_17_0,2023-05-02T17:53:27.368Z,,0,1,,3940,response,ISIC_5703909.JPG,,ISIC_0013618.JPG,ISIC_0013618.JPG,false,0,keypress(z),500,137219,137218,133278,133276,133282,137227,8,400,18,,ISIC_5703909.JPG
break,html.Screen,4_17_1,2023-05-02T17:53:27.369Z,,0,,,NaN,,,,,,false,,,,137220,137219,,137219,,137227,8,400,,,
break_continue,html.Screen,4_17_2,2023-05-02T17:53:27.369Z,,0,,,NaN,,,,,,false,,,,137220,137220,,137220,,137227,8,400,,,
sequence,flow.Sequence,4_17,2023-05-02T17:53:27.369Z,,0,,,3938,completion,,,,,false,,,,137220,137220,133278,133276,133282,137227,8,400,,,
trial,html.Screen,4_18_0,2023-05-02T17:53:31.274Z,,0,1,,3902,response,ISIC_0067695.JPG,,ISIC_4620053.JPG,ISIC_4620053.JPG,false,0,keypress(z),500,141125,141124,137222,137220,137227,141135,8,400,19,,ISIC_0067695.JPG
break,html.Screen,4_18_1,2023-05-02T17:53:31.275Z,,0,,,NaN,,,,,,false,,,,141126,141126,,141125,,141135,8,400,,,
break_continue,html.Screen,4_18_2,2023-05-02T17:53:31.276Z,,0,,,NaN,,,,,,false,,,,141126,141126,,141126,,141135,8,400,,,
sequence,flow.Sequence,4_18,2023-05-02T17:53:31.276Z,,0,,,3899,completion,,,,,false,,,,141127,141126,137222,137220,137227,141135,8,400,,,
trial,html.Screen,4_19_0,2023-05-02T17:53:34.793Z,,0,1,,3514,response,ISIC_0056164.JPG,,ISIC_0942056.JPG,ISIC_0942056.JPG,false,0,keypress(z),500,144644,144644,141130,141127,141135,144653,8,400,20,,ISIC_0056164.JPG
break,html.Screen,4_19_1,2023-05-02T17:53:34.795Z,,0,,,NaN,,,,,,false,,,,144646.00000000003,144646.00000000003,,144645,,144653,8,400,,,
break_continue,html.Screen,4_19_2,2023-05-02T17:53:34.795Z,,0,,,NaN,,,,,,false,,,,144646.00000000003,144646.00000000003,,144646.00000000003,,144653,8,400,,,
sequence,flow.Sequence,4_19,2023-05-02T17:53:34.795Z,,0,,,3511.000000000029,completion,,,,,false,,,,144646.00000000003,144646.00000000003,141130,141127,141135,144653,8,400,,,
trial,html.Screen,4_20_0,2023-05-02T17:53:38.789Z,,0,1,,3991,response,ISIC_9109361.JPG,,ISIC_3440004.JPG,ISIC_9109361.JPG,false,1,keypress(m),500,148640.00000000003,148639,144648,144646.00000000003,144653,148649,8,400,21,,ISIC_3440004.JPG
break,html.Screen,4_20_1,2023-05-02T17:53:38.790Z,,0,,,NaN,,,,,,false,,,,148641,148640.00000000003,,148640.00000000003,,148649,8,400,,,
break_continue,html.Screen,4_20_2,2023-05-02T17:53:38.790Z,,0,,,NaN,,,,,,false,,,,148641,148641,,148641,,148649,8,400,,,
sequence,flow.Sequence,4_20,2023-05-02T17:53:38.790Z,,0,,,3988,completion,,,,,false,,,,148641,148641,144648,144646.00000000003,144653,148649,8,400,,,
trial,html.Screen,4_21_0,2023-05-02T17:53:43.122Z,,0,1,,4327,response,ISIC_3002956.JPG,,ISIC_9119549.JPG,ISIC_9119549.JPG,false,0,keypress(z),500,152973,152972,148645,148642,148649,152982,8,400,22,,ISIC_3002956.JPG
break,html.Screen,4_21_1,2023-05-02T17:53:43.123Z,,0,,,NaN,,,,,,false,,,,152974,152973,,152973,,152982,8,400,,,
break_continue,html.Screen,4_21_2,2023-05-02T17:53:43.123Z,,0,,,NaN,,,,,,false,,,,152974,152974,,152974,,152982,8,400,,,
sequence,flow.Sequence,4_21,2023-05-02T17:53:43.123Z,,0,,,4325,completion,,,,,false,,,,152974,152974,148645,148641,148649,152982,8,400,,,
trial,html.Screen,4_22_0,2023-05-02T17:53:47.625Z,,0,1,,4499,response,ISIC_0068223.JPG,,ISIC_6931712.JPG,ISIC_6931712.JPG,false,0,keypress(z),500,157475,157475,152976,152974,152982,157486,8,400,23,,ISIC_0068223.JPG
break,html.Screen,4_22_1,2023-05-02T17:53:47.626Z,,0,,,NaN,,,,,,false,,,,157476,157476,,157476,,157486,8,400,,,
break_continue,html.Screen,4_22_2,2023-05-02T17:53:47.626Z,,0,,,NaN,,,,,,false,,,,157477,157477,,157477,,157486,8,400,,,
sequence,flow.Sequence,4_22,2023-05-02T17:53:47.626Z,,0,,,4495,completion,,,,,false,,,,157477,157477,152976,152974,152982,157486,8,400,,,
trial,html.Screen,4_23_0,2023-05-02T17:53:51.601Z,,0,1,,3970,response,ISIC_1897507.JPG,,ISIC_0032820.JPG,ISIC_1897507.JPG,false,1,keypress(m),500,161452,161451,157481,157477,157486,161460,8,400,24,,ISIC_0032820.JPG
break,html.Screen,4_23_1,2023-05-02T17:53:51.602Z,,0,,,NaN,,,,,,false,,,,161453,161453,,161452,,161460,8,400,,,
break_continue,html.Screen,4_23_2,2023-05-02T17:53:51.602Z,,0,,,NaN,,,,,,false,,,,161453,161453,,161453,,161460,8,400,,,
sequence,flow.Sequence,4_23,2023-05-02T17:53:51.602Z,,0,,,3967,completion,,,,,false,,,,161453,161453,157481,157477,157486,161460,8,400,,,
trial,html.Screen,4_24_0,2023-05-02T17:53:55.816Z,,0,1,,4211,response,ISIC_0033377.JPG,,ISIC_0072087.JPG,ISIC_0072087.JPG,false,0,keypress(z),500,165666,165666,161455,161454,161460,165675,8,400,25,,ISIC_0033377.JPG
break,html.Screen,4_24_1,2023-05-02T17:53:55.817Z,,0,,,NaN,,,,,,false,,,,165668,165667,,165667,,165675,8,400,,,
break_continue,html.Screen,4_24_2,2023-05-02T17:53:55.817Z,,0,,,NaN,,,,,,false,,,,165668,165668,,165668,,165675,8,400,,,
sequence,flow.Sequence,4_24,2023-05-02T17:53:55.817Z,,0,,,4208,completion,,,,,false,,,,165668,165668,161455,161453,161460,165675,8,400,,,
trial,html.Screen,4_25_0,2023-05-02T17:54:00.015Z,,0,1,,4194,response,ISIC_0066314.JPG,,ISIC_0069505.JPG,ISIC_0066314.JPG,false,1,keypress(m),500,169865,169865,165671,165668,165675,169877,8,400,26,,ISIC_0069505.JPG
break,html.Screen,4_25_1,2023-05-02T17:54:00.016Z,,0,,,NaN,,,,,,false,,,,169867,169867,,169866,,169877,8,400,,,
break_continue,html.Screen,4_25_2,2023-05-02T17:54:00.016Z,,0,,,NaN,,,,,,false,,,,169867,169867,,169867,,169877,8,400,,,
sequence,flow.Sequence,4_25,2023-05-02T17:54:00.016Z,,0,,,4192,completion,,,,,false,,,,169867,169867,165671,165668,165675,169877,8,400,,,
trial,html.Screen,4_26_0,2023-05-02T17:54:03.768Z,,0,1,,3749,response,ISIC_9332795.JPG,,ISIC_2778131.JPG,ISIC_2778131.JPG,false,0,keypress(z),500,173619,173619,169870,169867,169877,173628,8,400,27,,ISIC_9332795.JPG
break,html.Screen,4_26_1,2023-05-02T17:54:03.769Z,,0,,,NaN,,,,,,false,,,,173620,173620,,173620,,173628,8,400,,,
break_continue,html.Screen,4_26_2,2023-05-02T17:54:03.770Z,,0,,,NaN,,,,,,false,,,,173621,173621,,173621,,173628,8,400,,,
sequence,flow.Sequence,4_26,2023-05-02T17:54:03.770Z,,0,,,3744,completion,,,,,false,,,,173621,173621,169870,169867,169877,173628,8,400,,,
trial,html.Screen,4_27_0,2023-05-02T17:54:08.284Z,,0,1,,4510,response,ISIC_2720426.JPG,,ISIC_3471815.JPG,ISIC_3471815.JPG,false,0,keypress(z),500,178135,178134,173624,173621,173628,178146,8,400,28,,ISIC_2720426.JPG
break,html.Screen,4_27_1,2023-05-02T17:54:08.285Z,,0,,,NaN,,,,,,false,,,,178136,178136,,178135,,178146,8,400,,,
break_continue,html.Screen,4_27_2,2023-05-02T17:54:08.285Z,,0,,,NaN,,,,,,false,,,,178136,178136,,178136,,178146,8,400,,,
sequence,flow.Sequence,4_27,2023-05-02T17:54:08.286Z,,0,,,4508,completion,,,,,false,,,,178137,178136,173624,173621,173628,178146,8,400,,,
trial,html.Screen,4_28_0,2023-05-02T17:54:14.556Z,,0,1,,6265,response,ISIC_0024259.JPG,,ISIC_0071797.JPG,ISIC_0024259.JPG,false,1,keypress(m),500,184407,184406,178141,178137,178146,184415,8,400,29,,ISIC_0071797.JPG
break,html.Screen,4_28_1,2023-05-02T17:54:14.557Z,,0,,,NaN,,,,,,false,,,,184408.00000000003,184408.00000000003,,184407,,184415,8,400,,,
break_continue,html.Screen,4_28_2,2023-05-02T17:54:14.557Z,,0,,,NaN,,,,,,false,,,,184409,184408.00000000003,,184408.00000000003,,184415,8,400,,,
sequence,flow.Sequence,4_28,2023-05-02T17:54:14.558Z,,0,,,6262.000000000029,completion,,,,,false,,,,184409,184408.00000000003,178141,178137,178146,184415,8,400,,,
trial,html.Screen,4_29_0,2023-05-02T17:54:19.705Z,,0,1,,5145,response,ISIC_0592973.JPG,,ISIC_0056784.JPG,ISIC_0592973.JPG,false,1,keypress(m),500,189556,189556,184411,184409,184415,189565,8,400,30,,ISIC_0056784.JPG
break,html.Screen,4_29_1,2023-05-02T17:54:19.706Z,,0,,,NaN,,,,,,false,,,,189558,189557.00000000003,,189557.00000000003,,189565,8,400,,,
break_continue,html.Screen,4_29_2,2023-05-02T17:54:19.707Z,,0,,,NaN,,,,,,false,,,,189558,189558,,189558,,189565,8,400,,,
sequence,flow.Sequence,4_29,2023-05-02T17:54:19.707Z,,0,,,5143,completion,,,,,false,,,,189558,189558,184411,184409,184415,189565,8,400,,,
trial,html.Screen,4_30_0,2023-05-02T17:54:26.145Z,,0,1,,6436,response,ISIC_0032079.JPG,,ISIC_0027921.JPG,ISIC_0032079.JPG,false,1,keypress(m),500,195997,195996,189560,189558,189565,196005,8,400,31,,ISIC_0027921.JPG
break,html.Screen,4_30_1,2023-05-02T17:54:26.147Z,,0,,,NaN,,,,,,false,,,,195998,195998,,195997,,196005,8,400,,,
break_continue,html.Screen,4_30_2,2023-05-02T17:54:26.147Z,,0,,,NaN,,,,,,false,,,,195998,195998,,195998,,196005,8,400,,,
sequence,flow.Sequence,4_30,2023-05-02T17:54:26.147Z,,0,,,6433,completion,,,,,false,,,,195998,195998,189560,189558,189565,196005,8,400,,,
trial,html.Screen,4_31_0,2023-05-02T17:54:30.947Z,,0,1,,4796,response,ISIC_9699238.JPG,,ISIC_0063672.JPG,ISIC_0063672.JPG,false,0,keypress(z),500,200798,200797,196001,195998,196005,200806,8,400,32,,ISIC_9699238.JPG
break,html.Screen,4_31_1,2023-05-02T17:54:30.948Z,,0,,,NaN,,,,,,false,,,,200799,200799,,200798,,200806,8,400,,,
break_continue,html.Screen,4_31_2,2023-05-02T17:54:30.948Z,,0,,,NaN,,,,,,false,,,,200799,200799,,200799,,200806,8,400,,,
sequence,flow.Sequence,4_31,2023-05-02T17:54:30.948Z,,0,,,4794,completion,,,,,false,,,,200799,200799,196001,195998,196005,200806,8,400,,,
trial,html.Screen,4_32_0,2023-05-02T17:54:35.128Z,,0,1,,4177,response,ISIC_0458561.JPG,,ISIC_0032586.JPG,ISIC_0458561.JPG,false,1,keypress(m),500,204979,204979,200802,200800,200806,204989,8,400,33,,ISIC_0032586.JPG
break,html.Screen,4_32_1,2023-05-02T17:54:35.130Z,,0,,,NaN,,,,,,false,,,,204981,204981,,204980.00000000003,,204989,8,400,,,
break_continue,html.Screen,4_32_2,2023-05-02T17:54:35.130Z,,0,,,NaN,,,,,,false,,,,204981,204981,,204981,,204989,8,400,,,
sequence,flow.Sequence,4_32,2023-05-02T17:54:35.130Z,,0,,,4175,completion,,,,,false,,,,204981,204981,200802,200799,200806,204989,8,400,,,
trial,html.Screen,4_33_0,2023-05-02T17:54:44.032Z,,0,1,,8899,response,ISIC_0011995.JPG,,ISIC_0185547.JPG,ISIC_0011995.JPG,false,1,keypress(m),500,213883,213883,204984,204981,204989,213893,8,400,34,,ISIC_0185547.JPG
break,html.Screen,4_33_1,2023-05-02T17:54:44.033Z,,0,,,NaN,,,,,,false,,,,213884,213884,,213884,,213893,8,400,,,
break_continue,html.Screen,4_33_2,2023-05-02T17:54:44.033Z,,0,,,NaN,,,,,,false,,,,213885,213884,,213884,,213893,8,400,,,
sequence,flow.Sequence,4_33,2023-05-02T17:54:44.034Z,,0,,,8895,completion,,,,,false,,,,213885,213884,204984,204981,204989,213893,8,400,,,
trial,html.Screen,4_34_0,2023-05-02T17:54:49.164Z,,0,1,,5127,response,ISIC_0062517.JPG,,ISIC_0029815.JPG,ISIC_0062517.JPG,false,1,keypress(m),500,219015.00000000003,219014,213887,213885,213893,219025,8,400,35,,ISIC_0029815.JPG
break,html.Screen,4_34_1,2023-05-02T17:54:49.165Z,,0,,,NaN,,,,,,false,,,,219017,219016,,219015.00000000003,,219025,8,400,,,
break_continue,html.Screen,4_34_2,2023-05-02T17:54:49.166Z,,0,,,NaN,,,,,,false,,,,219017,219017,,219017,,219025,8,400,,,
sequence,flow.Sequence,4_34,2023-05-02T17:54:49.167Z,,0,,,5124,completion,,,,,false,,,,219018,219017,213887,213885,213893,219025,8,400,,,
trial,html.Screen,4_35_0,2023-05-02T17:54:53.337Z,,0,1,,4168.000000000029,response,ISIC_9088073.JPG,,ISIC_0746397.JPG,ISIC_0746397.JPG,false,0,keypress(z),500,223189,223188.00000000003,219020,219018,219025,223198,8,400,36,,ISIC_9088073.JPG
break,html.Screen,4_35_1,2023-05-02T17:54:53.338Z,,0,,,NaN,,,,,,false,,,,223190,223189,,223189,,223198,8,400,,,
break_continue,html.Screen,4_35_2,2023-05-02T17:54:53.339Z,,0,,,NaN,,,,,,false,,,,223190,223190,,223190,,223198,8,400,,,
sequence,flow.Sequence,4_35,2023-05-02T17:54:53.339Z,,0,,,4165,completion,,,,,false,,,,223190,223190,219020,219018,219025,223198,8,400,,,
trial,html.Screen,4_36_0,2023-05-02T17:54:57.381Z,,0,1,,4040,response,ISIC_5547318.JPG,,ISIC_3892947.JPG,ISIC_3892947.JPG,false,0,keypress(z),500,227233,227232,223192,223190,223198,227241,8,400,37,,ISIC_5547318.JPG
break,html.Screen,4_36_1,2023-05-02T17:54:57.382Z,,0,,,NaN,,,,,,false,,,,227234,227233,,227233,,227241,8,400,,,
break_continue,html.Screen,4_36_2,2023-05-02T17:54:57.383Z,,0,,,NaN,,,,,,false,,,,227234,227234,,227234,,227241,8,400,,,
sequence,flow.Sequence,4_36,2023-05-02T17:54:57.383Z,,0,,,4036,completion,,,,,false,,,,227234,227234,223192,223190,223198,227241,8,400,,,
trial,html.Screen,4_37_0,2023-05-02T17:55:01.047Z,,0,1,,3662,response,ISIC_0024585.JPG,,ISIC_0028520.JPG,ISIC_0024585.JPG,false,1,keypress(m),500,230899,230898,227236,227234,227241,230910,8,400,38,,ISIC_0028520.JPG
break,html.Screen,4_37_1,2023-05-02T17:55:01.049Z,,0,,,NaN,,,,,,false,,,,230900,230899,,230899,,230910,8,400,,,
break_continue,html.Screen,4_37_2,2023-05-02T17:55:01.049Z,,0,,,NaN,,,,,,false,,,,230900,230900,,230900,,230910,8,400,,,
sequence,flow.Sequence,4_37,2023-05-02T17:55:01.049Z,,0,,,3659,completion,,,,,false,,,,230900,230900,227236,227234,227241,230910,8,400,,,
trial,html.Screen,4_38_0,2023-05-02T17:55:05.015Z,,0,1,,3962,response,ISIC_7162711.JPG,,ISIC_7820005.JPG,ISIC_7820005.JPG,false,0,keypress(z),500,234867.00000000003,234866,230904,230900,230910,234875,8,400,39,,ISIC_7162711.JPG
break,html.Screen,4_38_1,2023-05-02T17:55:05.016Z,,0,,,NaN,,,,,,false,,,,234868,234867.00000000003,,234867.00000000003,,234875,8,400,,,
break_continue,html.Screen,4_38_2,2023-05-02T17:55:05.016Z,,0,,,NaN,,,,,,false,,,,234868,234868,,234868,,234875,8,400,,,
sequence,flow.Sequence,4_38,2023-05-02T17:55:05.017Z,,0,,,3958,completion,,,,,false,,,,234868,234868,230904,230900,230910,234875,8,400,,,
trial,html.Screen,4_39_0,2023-05-02T17:55:08.959Z,,0,1,,3939,response,ISIC_3942075.JPG,,ISIC_9797578.JPG,ISIC_9797578.JPG,false,0,keypress(z),500,238810,238809,234870,234868,234875,238821,8,400,40,,ISIC_3942075.JPG
break,html.Screen,4_39_1,2023-05-02T17:55:08.960Z,,0,,,NaN,,,,,,false,,,,238811,238811,,238810,,238821,8,400,,,
break_continue,html.Screen,4_39_2,2023-05-02T17:55:08.960Z,,0,,,NaN,,,,,,false,,,,238811,238811,,238811,,238821,8,400,,,
sequence,flow.Sequence,4_39,2023-05-02T17:55:08.960Z,,0,,,3936,completion,,,,,false,,,,238811,238811,234870,234868,234875,238821,8,400,,,
trial,html.Screen,4_40_0,2023-05-02T17:55:12.979Z,,0,1,,4016,response,ISIC_7129085.JPG,,ISIC_1974281.JPG,ISIC_7129085.JPG,false,1,keypress(m),500,242831.00000000003,242830,238814,238811,238821,242839,8,400,41,,ISIC_1974281.JPG
break,html.Screen,4_40_1,2023-05-02T17:55:12.980Z,,0,,,NaN,,,,,,false,,,,242832,242831.00000000003,,242831.00000000003,,242839,8,400,,,
break_continue,html.Screen,4_40_2,2023-05-02T17:55:12.981Z,,0,,,NaN,,,,,,false,,,,242832,242832,,242832,,242839,8,400,,,
sequence,flow.Sequence,4_40,2023-05-02T17:55:12.981Z,,0,,,4011,completion,,,,,false,,,,242832,242832,238814,238811,238821,242839,8,400,,,
trial,html.Screen,4_41_0,2023-05-02T17:55:16.581Z,,0,1,,3597,response,ISIC_0403458.JPG,,ISIC_5191344.JPG,ISIC_0403458.JPG,false,1,keypress(m),500,246432.00000000003,246431,242834,242832,242839,246440,8,400,42,,ISIC_5191344.JPG
break,html.Screen,4_41_1,2023-05-02T17:55:16.581Z,,0,,,NaN,,,,,,false,,,,246433,246433,,246432.00000000003,,246440,8,400,,,
break_continue,html.Screen,4_41_2,2023-05-02T17:55:16.582Z,,0,,,NaN,,,,,,false,,,,246433,246433,,246433,,246440,8,400,,,
sequence,flow.Sequence,4_41,2023-05-02T17:55:16.582Z,,0,,,3594,completion,,,,,false,,,,246433,246433,242834,242832,242839,246440,8,400,,,
trial,html.Screen,4_42_0,2023-05-02T17:55:20.864Z,,0,1,,4280,response,ISIC_2196127.JPG,,ISIC_1956504.JPG,ISIC_1956504.JPG,false,0,keypress(z),500,250715,250715,246435,246433,246440,250724,8,400,43,,ISIC_2196127.JPG
break,html.Screen,4_42_1,2023-05-02T17:55:20.864Z,,0,,,NaN,,,,,,false,,,,250716,250716,,250715,,250724,8,400,,,
break_continue,html.Screen,4_42_2,2023-05-02T17:55:20.865Z,,0,,,NaN,,,,,,false,,,,250716,250716,,250716,,250724,8,400,,,
sequence,flow.Sequence,4_42,2023-05-02T17:55:20.865Z,,0,,,4276,completion,,,,,false,,,,250716,250716,246435,246433,246440,250724,8,400,,,
trial,html.Screen,4_43_0,2023-05-02T17:55:24.891Z,,0,1,,4023.000000000029,response,ISIC_0010278.JPG,,ISIC_8021960.JPG,ISIC_8021960.JPG,false,0,keypress(z),500,254742.00000000003,254742.00000000003,250719,250716,250724,254751,8,400,44,,ISIC_0010278.JPG
break,html.Screen,4_43_1,2023-05-02T17:55:24.892Z,,0,,,NaN,,,,,,false,,,,254743,254743,,254742.00000000003,,254751,8,400,,,
break_continue,html.Screen,4_43_2,2023-05-02T17:55:24.892Z,,0,,,NaN,,,,,,false,,,,254744,254743,,254743,,254751,8,400,,,
sequence,flow.Sequence,4_43,2023-05-02T17:55:24.892Z,,0,,,4019,completion,,,,,false,,,,254744,254743,250719,250716,250724,254751,8,400,,,
trial,html.Screen,4_44_0,2023-05-02T17:55:29.207Z,,0,1,,4312,response,ISIC_0061581.JPG,,ISIC_0026879.JPG,ISIC_0061581.JPG,false,1,keypress(m),500,259059.00000000003,259058,254746,254744,254751,259068,8,400,45,,ISIC_0026879.JPG
break,html.Screen,4_44_1,2023-05-02T17:55:29.208Z,,0,,,NaN,,,,,,false,,,,259060,259059.00000000003,,259059.00000000003,,259068,8,400,,,
break_continue,html.Screen,4_44_2,2023-05-02T17:55:29.208Z,,0,,,NaN,,,,,,false,,,,259060,259060,,259060,,259068,8,400,,,
sequence,flow.Sequence,4_44,2023-05-02T17:55:29.209Z,,0,,,4309,completion,,,,,false,,,,259060,259060,254746,254744,254751,259068,8,400,,,
trial,html.Screen,4_45_0,2023-05-02T17:55:33.324Z,,0,1,,4113,response,ISIC_6184891.JPG,,ISIC_1850388.JPG,ISIC_6184891.JPG,false,1,keypress(m),500,263176,263175,259062,259060,259068,263185,8,400,46,,ISIC_1850388.JPG
break,html.Screen,4_45_1,2023-05-02T17:55:33.325Z,,0,,,NaN,,,,,,false,,,,263177,263176,,263176,,263185,8,400,,,
break_continue,html.Screen,4_45_2,2023-05-02T17:55:33.325Z,,0,,,NaN,,,,,,false,,,,263177,263177,,263177,,263185,8,400,,,
sequence,flow.Sequence,4_45,2023-05-02T17:55:33.325Z,,0,,,4109,completion,,,,,false,,,,263177,263177,259062,259060,259068,263185,8,400,,,
trial,html.Screen,4_46_0,2023-05-02T17:55:37.331Z,,0,1,,4001,response,ISIC_1216201.JPG,,ISIC_1323743.JPG,ISIC_1216201.JPG,false,1,keypress(m),500,267182,267181,263180,263177,263185,267190,8,400,47,,ISIC_1323743.JPG
break,html.Screen,4_46_1,2023-05-02T17:55:37.331Z,,0,,,NaN,,,,,,false,,,,267183,267183,,267182,,267190,8,400,,,
break_continue,html.Screen,4_46_2,2023-05-02T17:55:37.332Z,,0,,,NaN,,,,,,false,,,,267183,267183,,267183,,267190,8,400,,,
sequence,flow.Sequence,4_46,2023-05-02T17:55:37.332Z,,0,,,3998,completion,,,,,false,,,,267183,267183,263180,263177,263185,267190,8,400,,,
trial,html.Screen,4_47_0,2023-05-02T17:55:41.741Z,,0,1,,4407,response,ISIC_0010784.JPG,,ISIC_3764173.JPG,ISIC_0010784.JPG,false,1,keypress(m),500,271592,271592,267185,267183,267190,271602,8,400,48,,ISIC_3764173.JPG
break,html.Screen,4_47_1,2023-05-02T17:55:41.742Z,,0,,,NaN,,,,,,false,,,,271594,271594,,271593,,271602,8,400,,,
break_continue,html.Screen,4_47_2,2023-05-02T17:55:41.743Z,,0,,,NaN,,,,,,false,,,,271594,271594,,271594,,271602,8,400,,,
sequence,flow.Sequence,4_47,2023-05-02T17:55:41.743Z,,0,,,4404,completion,,,,,false,,,,271594,271594,267185,267183,267190,271602,8,400,,,
trial,html.Screen,4_48_0,2023-05-02T17:55:45.858Z,,0,1,,4112,response,ISIC_4707475.JPG,,ISIC_4574865.JPG,ISIC_4574865.JPG,false,0,keypress(z),500,275710,275709,271597,271594,271602,275720,8,400,49,,ISIC_4707475.JPG
break,html.Screen,4_48_1,2023-05-02T17:55:45.860Z,,0,,,NaN,,,,,,false,,,,275711,275711,,275710,,275720,8,400,,,
break_continue,html.Screen,4_48_2,2023-05-02T17:55:45.860Z,,0,,,NaN,,,,,,false,,,,275712,275711,,275711,,275720,8,400,,,
sequence,flow.Sequence,4_48,2023-05-02T17:55:45.861Z,,0,,,4109,completion,,,,,false,,,,275712,275711,271597,271594,271602,275720,8,400,,,
trial,html.Screen,4_49_0,2023-05-02T17:55:49.794Z,,0,1,,3930,response,ISIC_0026167.JPG,,ISIC_0031543.JPG,ISIC_0031543.JPG,false,0,keypress(z),500,279646,279645,275715,275712,275720,279660,8,400,50,,ISIC_0026167.JPG
break,html.Screen,4_49_1,2023-05-02T17:55:54.800Z,,0,,,5007,timeout,,,,,false,,,,284651,284651,279648,279646,279660,284667,8,400,,,
break_continue,html.Screen,4_49_2,2023-05-02T17:55:57.177Z,,0,,,2377,response,,,,,false,continue,keypress(Space),,287028,287028,284651,284651,284667,287039,8,400,,,
sequence,flow.Sequence,4_49,2023-05-02T17:55:57.177Z,,0,,,11308,completion,,,,,false,,,,287028,287028,275715,275712,275720,287039,8,400,,,
trial,html.Screen,4_50_0,2023-05-02T17:56:00.692Z,,0,2,,3512,response,ISIC_5458290.JPG,,ISIC_0030873.JPG,ISIC_5458290.JPG,false,1,keypress(m),500,290544,290543,287031,287029,287039,290552,8,400,1,,ISIC_0030873.JPG
break,html.Screen,4_50_1,2023-05-02T17:56:00.693Z,,0,,,NaN,,,,,,false,,,,290544,290544,,290544,,290552,8,400,,,
break_continue,html.Screen,4_50_2,2023-05-02T17:56:00.693Z,,0,,,NaN,,,,,,false,,,,290545,290545,,290544,,290552,8,400,,,
sequence,flow.Sequence,4_50,2023-05-02T17:56:00.693Z,,0,,,3506,completion,,,,,false,,,,290545,290545,287031,287029,287039,290552,8,400,,,
trial,html.Screen,4_51_0,2023-05-02T17:56:04.230Z,,0,2,,3534,response,ISIC_7562175.JPG,,ISIC_0026309.JPG,ISIC_7562175.JPG,false,1,keypress(m),500,294081,294081,290547,290545,290552,294091,8,400,2,,ISIC_0026309.JPG
break,html.Screen,4_51_1,2023-05-02T17:56:04.231Z,,0,,,NaN,,,,,,false,,,,294082,294082,,294081,,294091,8,400,,,
break_continue,html.Screen,4_51_2,2023-05-02T17:56:04.231Z,,0,,,NaN,,,,,,false,,,,294083,294083,,294083,,294091,8,400,,,
sequence,flow.Sequence,4_51,2023-05-02T17:56:04.232Z,,0,,,3531,completion,,,,,false,,,,294083,294083,290547,290545,290552,294091,8,400,,,
trial,html.Screen,4_52_0,2023-05-02T17:56:08.443Z,,0,2,,4208,response,ISIC_0053611.JPG,,ISIC_7809510.JPG,ISIC_7809510.JPG,false,0,keypress(z),500,298294,298294,294086,294083,294091,298302,8,400,3,,ISIC_0053611.JPG
break,html.Screen,4_52_1,2023-05-02T17:56:08.444Z,,0,,,NaN,,,,,,false,,,,298295,298295,,298294,,298302,8,400,,,
break_continue,html.Screen,4_52_2,2023-05-02T17:56:08.444Z,,0,,,NaN,,,,,,false,,,,298295,298295,,298295,,298302,8,400,,,
sequence,flow.Sequence,4_52,2023-05-02T17:56:08.444Z,,0,,,4204,completion,,,,,false,,,,298296,298295,294086,294083,294091,298302,8,400,,,
trial,html.Screen,4_53_0,2023-05-02T17:56:15.359Z,,0,2,,6911,response,ISIC_8431648.JPG,,ISIC_0004217.JPG,ISIC_0004217.JPG,false,0,keypress(z),500,305210,305209,298298,298296,298302,305220,8,400,4,,ISIC_8431648.JPG
break,html.Screen,4_53_1,2023-05-02T17:56:15.360Z,,0,,,NaN,,,,,,false,,,,305212,305212,,305211,,305220,8,400,,,
break_continue,html.Screen,4_53_2,2023-05-02T17:56:15.361Z,,0,,,NaN,,,,,,false,,,,305212,305212,,305212,,305220,8,400,,,
sequence,flow.Sequence,4_53,2023-05-02T17:56:15.361Z,,0,,,6910,completion,,,,,false,,,,305213,305212,298298,298296,298302,305220,8,400,,,
trial,html.Screen,4_54_0,2023-05-02T17:56:19.159Z,,0,2,,3794,response,ISIC_0028969.JPG,,ISIC_0012260.JPG,ISIC_0012260.JPG,false,0,keypress(z),500,309010,309010,305216,305213,305220,309023,8,400,5,,ISIC_0028969.JPG
break,html.Screen,4_54_1,2023-05-02T17:56:19.160Z,,0,,,NaN,,,,,,false,,,,309012,309012,,309011,,309023,8,400,,,
break_continue,html.Screen,4_54_2,2023-05-02T17:56:19.161Z,,0,,,NaN,,,,,,false,,,,309012,309012,,309012,,309023,8,400,,,
sequence,flow.Sequence,4_54,2023-05-02T17:56:19.161Z,,0,,,3792,completion,,,,,false,,,,309013.00000000006,309012,305216,305213,305220,309023,8,400,,,
trial,html.Screen,4_55_0,2023-05-02T17:56:23.412Z,,0,2,,4246.000000000058,response,ISIC_4695051.JPG,,ISIC_4884394.JPG,ISIC_4695051.JPG,false,1,keypress(m),500,313264,313263.00000000006,309017,309013.00000000006,309023,313274,8,400,6,,ISIC_4884394.JPG
break,html.Screen,4_55_1,2023-05-02T17:56:23.413Z,,0,,,NaN,,,,,,false,,,,313264,313264,,313264,,313274,8,400,,,
break_continue,html.Screen,4_55_2,2023-05-02T17:56:23.413Z,,0,,,NaN,,,,,,false,,,,313265,313264,,313264,,313274,8,400,,,
sequence,flow.Sequence,4_55,2023-05-02T17:56:23.413Z,,0,,,4241,completion,,,,,false,,,,313265,313264,309017,309013.00000000006,309023,313274,8,400,,,
trial,html.Screen,4_56_0,2023-05-02T17:56:30.521Z,,0,2,,7104,response,ISIC_0028024.JPG,,ISIC_8325569.JPG,ISIC_0028024.JPG,false,1,keypress(m),500,320373,320372,313268,313265,313274,320380,8,400,7,,ISIC_8325569.JPG
break,html.Screen,4_56_1,2023-05-02T17:56:30.522Z,,0,,,NaN,,,,,,false,,,,320373,320373,,320373,,320380,8,400,,,
break_continue,html.Screen,4_56_2,2023-05-02T17:56:30.522Z,,0,,,NaN,,,,,,false,,,,320374,320374,,320374,,320380,8,400,,,
sequence,flow.Sequence,4_56,2023-05-02T17:56:30.522Z,,0,,,7100,completion,,,,,false,,,,320374,320374,313268,313265,313274,320380,8,400,,,
trial,html.Screen,4_57_0,2023-05-02T17:56:35.529Z,,0,2,,5005,response,ISIC_0032671.JPG,,ISIC_0065477.JPG,ISIC_0032671.JPG,false,1,keypress(m),500,325381,325381,320376,320374,320380,325398,8,400,8,,ISIC_0065477.JPG
break,html.Screen,4_57_1,2023-05-02T17:56:35.530Z,,0,,,NaN,,,,,,false,,,,325382,325382,,325381,,325398,8,400,,,
break_continue,html.Screen,4_57_2,2023-05-02T17:56:35.530Z,,0,,,NaN,,,,,,false,,,,325382,325382,,325382,,325398,8,400,,,
sequence,flow.Sequence,4_57,2023-05-02T17:56:35.530Z,,0,,,5002,completion,,,,,false,,,,325382,325382,320376,320374,320380,325398,8,400,,,
trial,html.Screen,4_58_0,2023-05-02T17:56:40.336Z,,0,2,,4804,response,ISIC_0027836.JPG,,ISIC_0066935.JPG,ISIC_0027836.JPG,false,1,keypress(m),500,330188,330188,325384,325382,325398,330198,8,400,9,,ISIC_0066935.JPG
break,html.Screen,4_58_1,2023-05-02T17:56:40.337Z,,0,,,NaN,,,,,,false,,,,330189,330189,,330188,,330198,8,400,,,
break_continue,html.Screen,4_58_2,2023-05-02T17:56:40.337Z,,0,,,NaN,,,,,,false,,,,330189,330189,,330189,,330198,8,400,,,
sequence,flow.Sequence,4_58,2023-05-02T17:56:40.338Z,,0,,,4791,completion,,,,,false,,,,330190,330189,325384,325382,325398,330198,8,400,,,
trial,html.Screen,4_59_0,2023-05-02T17:56:45.356Z,,0,2,,5015,response,ISIC_5116614.JPG,,ISIC_5920470.JPG,ISIC_5116614.JPG,false,1,keypress(m),500,335208,335208,330193,330190,330198,335217,8,400,10,,ISIC_5920470.JPG
break,html.Screen,4_59_1,2023-05-02T17:56:45.357Z,,0,,,NaN,,,,,,false,,,,335209,335209,,335208,,335217,8,400,,,
break_continue,html.Screen,4_59_2,2023-05-02T17:56:45.357Z,,0,,,NaN,,,,,,false,,,,335209,335209,,335209,,335217,8,400,,,
sequence,flow.Sequence,4_59,2023-05-02T17:56:45.358Z,,0,,,5011,completion,,,,,false,,,,335209,335209,330193,330190,330198,335217,8,400,,,
trial,html.Screen,4_60_0,2023-05-02T17:56:50.552Z,,0,2,,5191,response,ISIC_4718313.JPG,,ISIC_5897799.JPG,ISIC_4718313.JPG,false,1,keypress(m),500,340403,340403,335212,335209,335217,340412,8,400,11,,ISIC_5897799.JPG
break,html.Screen,4_60_1,2023-05-02T17:56:50.552Z,,0,,,NaN,,,,,,false,,,,340404,340404,,340404,,340412,8,400,,,
break_continue,html.Screen,4_60_2,2023-05-02T17:56:50.553Z,,0,,,NaN,,,,,,false,,,,340404,340404,,340404,,340412,8,400,,,
sequence,flow.Sequence,4_60,2023-05-02T17:56:50.553Z,,0,,,5187,completion,,,,,false,,,,340405.00000000006,340404,335212,335209,335217,340412,8,400,,,
trial,html.Screen,4_61_0,2023-05-02T17:56:59.219Z,,0,2,,8664,response,ISIC_0024720.JPG,,ISIC_2153301.JPG,ISIC_2153301.JPG,false,0,keypress(z),500,349071,349070,340406,340405.00000000006,340412,349079,8,400,12,,ISIC_0024720.JPG
break,html.Screen,4_61_1,2023-05-02T17:56:59.220Z,,0,,,NaN,,,,,,false,,,,349072,349071,,349071,,349079,8,400,,,
break_continue,html.Screen,4_61_2,2023-05-02T17:56:59.220Z,,0,,,NaN,,,,,,false,,,,349072,349072,,349072,,349079,8,400,,,
sequence,flow.Sequence,4_61,2023-05-02T17:56:59.220Z,,0,,,8660,completion,,,,,false,,,,349072,349072,340406,340405.00000000006,340412,349079,8,400,,,
trial,html.Screen,4_62_0,2023-05-02T17:57:02.584Z,,0,2,,3361,response,ISIC_8388593.JPG,,ISIC_0032182.JPG,ISIC_8388593.JPG,false,1,keypress(m),500,352436.00000000006,352435,349074,349072,349079,352444,8,400,13,,ISIC_0032182.JPG
break,html.Screen,4_62_1,2023-05-02T17:57:02.585Z,,0,,,NaN,,,,,,false,,,,352437,352437,,352436.00000000006,,352444,8,400,,,
break_continue,html.Screen,4_62_2,2023-05-02T17:57:02.585Z,,0,,,NaN,,,,,,false,,,,352437,352437,,352437,,352444,8,400,,,
sequence,flow.Sequence,4_62,2023-05-02T17:57:02.585Z,,0,,,3358,completion,,,,,false,,,,352437,352437,349074,349072,349079,352444,8,400,,,
trial,html.Screen,4_63_0,2023-05-02T17:57:06.623Z,,0,2,,4035,response,ISIC_0000393.JPG,,ISIC_5391190.JPG,ISIC_0000393.JPG,false,1,keypress(m),500,356474,356474,352439,352437,352444,356483,8,400,14,,ISIC_5391190.JPG
break,html.Screen,4_63_1,2023-05-02T17:57:06.623Z,,0,,,NaN,,,,,,false,,,,356475,356475,,356475,,356483,8,400,,,
break_continue,html.Screen,4_63_2,2023-05-02T17:57:06.624Z,,0,,,NaN,,,,,,false,,,,356476,356475,,356475,,356483,8,400,,,
sequence,flow.Sequence,4_63,2023-05-02T17:57:06.624Z,,0,,,4031,completion,,,,,false,,,,356476,356475,352439,352437,352444,356483,8,400,,,
trial,html.Screen,4_64_0,2023-05-02T17:57:10.484Z,,0,2,,3858,response,ISIC_0028579.JPG,,ISIC_0011950.JPG,ISIC_0028579.JPG,false,1,keypress(m),500,360336,360335,356477,356476,356483,360344,8,400,15,,ISIC_0011950.JPG
break,html.Screen,4_64_1,2023-05-02T17:57:10.485Z,,0,,,NaN,,,,,,false,,,,360337,360337,,360336,,360344,8,400,,,
break_continue,html.Screen,4_64_2,2023-05-02T17:57:10.486Z,,0,,,NaN,,,,,,false,,,,360337,360337,,360337,,360344,8,400,,,
sequence,flow.Sequence,4_64,2023-05-02T17:57:10.486Z,,0,,,3854,completion,,,,,false,,,,360338,360337,356477,356476,356483,360344,8,400,,,
trial,html.Screen,4_65_0,2023-05-02T17:57:15.554Z,,0,2,,5066,response,ISIC_0012245.JPG,,ISIC_1155782.JPG,ISIC_1155782.JPG,false,0,keypress(z),500,365406,365406,360340,360338,360344,365414,8,400,16,,ISIC_0012245.JPG
break,html.Screen,4_65_1,2023-05-02T17:57:15.555Z,,0,,,NaN,,,,,,false,,,,365407,365407,,365406,,365414,8,400,,,
break_continue,html.Screen,4_65_2,2023-05-02T17:57:15.555Z,,0,,,NaN,,,,,,false,,,,365407,365407,,365407,,365414,8,400,,,
sequence,flow.Sequence,4_65,2023-05-02T17:57:15.556Z,,0,,,5063,completion,,,,,false,,,,365407,365407,360340,360338,360344,365414,8,400,,,
trial,html.Screen,4_66_0,2023-05-02T17:57:21.302Z,,0,2,,5744,response,ISIC_0025796.JPG,,ISIC_0046618.JPG,ISIC_0025796.JPG,false,1,keypress(m),500,371154,371153,365409,365408,365414,371164,8,400,17,,ISIC_0046618.JPG
break,html.Screen,4_66_1,2023-05-02T17:57:21.303Z,,0,,,NaN,,,,,,false,,,,371155.00000000006,371155.00000000006,,371154,,371164,8,400,,,
break_continue,html.Screen,4_66_2,2023-05-02T17:57:21.304Z,,0,,,NaN,,,,,,false,,,,371156,371156,,371156,,371164,8,400,,,
sequence,flow.Sequence,4_66,2023-05-02T17:57:21.304Z,,0,,,5742,completion,,,,,false,,,,371156,371156,365409,365407,365414,371164,8,400,,,
trial,html.Screen,4_67_0,2023-05-02T17:57:25.383Z,,0,2,,4075,response,ISIC_2927673.JPG,,ISIC_0011169.JPG,ISIC_2927673.JPG,false,1,keypress(m),500,375235,375234,371159,371157,371164,375245,8,400,18,,ISIC_0011169.JPG
break,html.Screen,4_67_1,2023-05-02T17:57:25.384Z,,0,,,NaN,,,,,,false,,,,375236,375236,,375235,,375245,8,400,,,
break_continue,html.Screen,4_67_2,2023-05-02T17:57:25.385Z,,0,,,NaN,,,,,,false,,,,375236,375236,,375236,,375245,8,400,,,
sequence,flow.Sequence,4_67,2023-05-02T17:57:25.385Z,,0,,,4072,completion,,,,,false,,,,375237,375236,371159,371156,371164,375245,8,400,,,
trial,html.Screen,4_68_0,2023-05-02T17:57:30.256Z,,0,2,,4869,response,ISIC_7418723.JPG,,ISIC_0029803.JPG,ISIC_7418723.JPG,false,1,keypress(m),500,380108,380107,375238,375237,375245,380128,8,400,19,,ISIC_0029803.JPG
break,html.Screen,4_68_1,2023-05-02T17:57:30.257Z,,0,,,NaN,,,,,,false,,,,380109,380109,,380108,,380128,8,400,,,
break_continue,html.Screen,4_68_2,2023-05-02T17:57:30.258Z,,0,,,NaN,,,,,,false,,,,380110,380109,,380109,,380128,8,400,,,
sequence,flow.Sequence,4_68,2023-05-02T17:57:30.258Z,,0,,,4864,completion,,,,,false,,,,380110,380109,375238,375237,375245,380128,8,400,,,
trial,html.Screen,4_69_0,2023-05-02T17:57:34.419Z,,0,2,,4158,response,ISIC_6398283.JPG,,ISIC_0027498.JPG,ISIC_0027498.JPG,false,0,keypress(z),500,384271,384270,380112,380110,380128,384279,8,400,20,,ISIC_6398283.JPG
break,html.Screen,4_69_1,2023-05-02T17:57:34.420Z,,0,,,NaN,,,,,,false,,,,384272,384271,,384271,,384279,8,400,,,
break_continue,html.Screen,4_69_2,2023-05-02T17:57:34.420Z,,0,,,NaN,,,,,,false,,,,384272,384272,,384272,,384279,8,400,,,
sequence,flow.Sequence,4_69,2023-05-02T17:57:34.421Z,,0,,,4144,completion,,,,,false,,,,384273,384272,380112,380110,380128,384279,8,400,,,
trial,html.Screen,4_70_0,2023-05-02T17:57:38.447Z,,0,2,,4024.000000000058,response,ISIC_0065233.JPG,,ISIC_7180096.JPG,ISIC_0065233.JPG,false,1,keypress(m),500,388299.00000000006,388299.00000000006,384275,384273,384279,388309,8,400,21,,ISIC_7180096.JPG
break,html.Screen,4_70_1,2023-05-02T17:57:38.448Z,,0,,,NaN,,,,,,false,,,,388300,388300,,388299.00000000006,,388309,8,400,,,
break_continue,html.Screen,4_70_2,2023-05-02T17:57:38.449Z,,0,,,NaN,,,,,,false,,,,388301,388300,,388300,,388309,8,400,,,
sequence,flow.Sequence,4_70,2023-05-02T17:57:38.449Z,,0,,,4021,completion,,,,,false,,,,388301,388300,384275,384273,384279,388309,8,400,,,
trial,html.Screen,4_71_0,2023-05-02T17:57:42.490Z,,0,2,,4037,response,ISIC_7185036.JPG,,ISIC_6780662.JPG,ISIC_7185036.JPG,false,1,keypress(m),500,392342,392341,388304,388301,388309,392351,8,400,22,,ISIC_6780662.JPG
break,html.Screen,4_71_1,2023-05-02T17:57:42.490Z,,0,,,NaN,,,,,,false,,,,392342,392342,,392342,,392351,8,400,,,
break_continue,html.Screen,4_71_2,2023-05-02T17:57:42.491Z,,0,,,NaN,,,,,,false,,,,392343,392342,,392342,,392351,8,400,,,
sequence,flow.Sequence,4_71,2023-05-02T17:57:42.491Z,,0,,,4033,completion,,,,,false,,,,392343,392342,388304,388301,388309,392351,8,400,,,
trial,html.Screen,4_72_0,2023-05-02T17:57:46.517Z,,0,2,,4023,response,ISIC_0289478.JPG,,ISIC_3289651.JPG,ISIC_0289478.JPG,false,1,keypress(m),500,396369,396369,392346,392343,392351,396377,8,400,23,,ISIC_3289651.JPG
break,html.Screen,4_72_1,2023-05-02T17:57:46.518Z,,0,,,NaN,,,,,,false,,,,396370,396370,,396370,,396377,8,400,,,
break_continue,html.Screen,4_72_2,2023-05-02T17:57:46.518Z,,0,,,NaN,,,,,,false,,,,396370,396370,,396370,,396377,8,400,,,
sequence,flow.Sequence,4_72,2023-05-02T17:57:46.519Z,,0,,,4019,completion,,,,,false,,,,396371,396370,392346,392343,392351,396377,8,400,,,
trial,html.Screen,4_73_0,2023-05-02T17:57:50.274Z,,0,2,,3752,response,ISIC_0000143.JPG,,ISIC_0026781.JPG,ISIC_0026781.JPG,false,0,keypress(z),500,400126.00000000006,400125,396373,396371,396377,400137,8,400,24,,ISIC_0000143.JPG
break,html.Screen,4_73_1,2023-05-02T17:57:50.274Z,,0,,,NaN,,,,,,false,,,,400126.00000000006,400126.00000000006,,400126.00000000006,,400137,8,400,,,
break_continue,html.Screen,4_73_2,2023-05-02T17:57:50.275Z,,0,,,NaN,,,,,,false,,,,400127,400127,,400126.00000000006,,400137,8,400,,,
sequence,flow.Sequence,4_73,2023-05-02T17:57:50.275Z,,0,,,3750,completion,,,,,false,,,,400127,400127,396373,396371,396377,400137,8,400,,,
trial,html.Screen,4_74_0,2023-05-02T17:57:54.298Z,,0,2,,4020.000000000058,response,ISIC_0192893.JPG,,ISIC_3409824.JPG,ISIC_0192893.JPG,false,1,keypress(m),500,404150.00000000006,404150.00000000006,400130,400127,400137,404159,8,400,25,,ISIC_3409824.JPG
break,html.Screen,4_74_1,2023-05-02T17:57:54.299Z,,0,,,NaN,,,,,,false,,,,404151,404151,,404151,,404159,8,400,,,
break_continue,html.Screen,4_74_2,2023-05-02T17:57:54.299Z,,0,,,NaN,,,,,,false,,,,404151,404151,,404151,,404159,8,400,,,
sequence,flow.Sequence,4_74,2023-05-02T17:57:54.299Z,,0,,,4014,completion,,,,,false,,,,404152,404151,400130,400127,400137,404159,8,400,,,
trial,html.Screen,4_75_0,2023-05-02T17:58:00.822Z,,0,2,,6521.000000000058,response,ISIC_3573969.JPG,,ISIC_7233368.JPG,ISIC_3573969.JPG,false,1,keypress(m),500,410674.00000000006,410674.00000000006,404153,404152,404159,410685,8,400,26,,ISIC_7233368.JPG
break,html.Screen,4_75_1,2023-05-02T17:58:00.823Z,,0,,,NaN,,,,,,false,,,,410675,410675,,410675,,410685,8,400,,,
break_continue,html.Screen,4_75_2,2023-05-02T17:58:00.823Z,,0,,,NaN,,,,,,false,,,,410675,410675,,410675,,410685,8,400,,,
sequence,flow.Sequence,4_75,2023-05-02T17:58:00.823Z,,0,,,6516,completion,,,,,false,,,,410676,410675,404153,404152,404159,410685,8,400,,,
trial,html.Screen,4_76_0,2023-05-02T17:58:04.665Z,,0,2,,3839,response,ISIC_0072371.JPG,,ISIC_0055054.JPG,ISIC_0072371.JPG,false,1,keypress(m),500,414517,414516,410677,410676,410685,414526,8,400,27,,ISIC_0055054.JPG
break,html.Screen,4_76_1,2023-05-02T17:58:04.666Z,,0,,,NaN,,,,,,false,,,,414518,414518,,414517,,414526,8,400,,,
break_continue,html.Screen,4_76_2,2023-05-02T17:58:04.666Z,,0,,,NaN,,,,,,false,,,,414518,414518,,414518,,414526,8,400,,,
sequence,flow.Sequence,4_76,2023-05-02T17:58:04.666Z,,0,,,3833,completion,,,,,false,,,,414518,414518,410677,410676,410685,414526,8,400,,,
trial,html.Screen,4_77_0,2023-05-02T17:58:09.882Z,,0,2,,5212,response,ISIC_0027552.JPG,,ISIC_1440063.JPG,ISIC_1440063.JPG,false,0,keypress(z),500,419734,419733,414521,414518,414526,419744,8,400,28,,ISIC_0027552.JPG
break,html.Screen,4_77_1,2023-05-02T17:58:09.883Z,,0,,,NaN,,,,,,false,,,,419735,419735,,419734,,419744,8,400,,,
break_continue,html.Screen,4_77_2,2023-05-02T17:58:09.883Z,,0,,,NaN,,,,,,false,,,,419735,419735,,419735,,419744,8,400,,,
sequence,flow.Sequence,4_77,2023-05-02T17:58:09.883Z,,0,,,5209,completion,,,,,false,,,,419735,419735,414521,414518,414526,419744,8,400,,,
trial,html.Screen,4_78_0,2023-05-02T17:58:14.671Z,,0,2,,4784,response,ISIC_0029651.JPG,,ISIC_0033526.JPG,ISIC_0033526.JPG,false,0,keypress(z),500,424523,424522,419738,419735,419744,424531,8,400,29,,ISIC_0029651.JPG
break,html.Screen,4_78_1,2023-05-02T17:58:14.672Z,,0,,,NaN,,,,,,false,,,,424524,424524,,424523,,424531,8,400,,,
break_continue,html.Screen,4_78_2,2023-05-02T17:58:14.672Z,,0,,,NaN,,,,,,false,,,,424524,424524,,424524,,424531,8,400,,,
sequence,flow.Sequence,4_78,2023-05-02T17:58:14.672Z,,0,,,4780,completion,,,,,false,,,,424524,424524,419738,419735,419744,424531,8,400,,,
trial,html.Screen,4_79_0,2023-05-02T17:58:18.618Z,,0,2,,3943,response,ISIC_7565128.JPG,,ISIC_4471367.JPG,ISIC_4471367.JPG,false,0,keypress(z),500,428470,428469,424526,424524,424531,428478,8,400,30,,ISIC_7565128.JPG
break,html.Screen,4_79_1,2023-05-02T17:58:18.619Z,,0,,,NaN,,,,,,false,,,,428471,428471,,428470,,428478,8,400,,,
break_continue,html.Screen,4_79_2,2023-05-02T17:58:18.619Z,,0,,,NaN,,,,,,false,,,,428471,428471,,428471,,428478,8,400,,,
sequence,flow.Sequence,4_79,2023-05-02T17:58:18.619Z,,0,,,3940,completion,,,,,false,,,,428471,428471,424526,424524,424531,428478,8,400,,,
trial,html.Screen,4_80_0,2023-05-02T17:58:30.105Z,,0,2,,11511,timeout,ISIC_5300774.JPG,,ISIC_4371210.JPG,,false,,,500,439957,439956,428473,428471,428478,439989,8,400,31,,
break,html.Screen,4_80_1,2023-05-02T17:58:30.107Z,,0,,,NaN,,,,,,false,,,,439959,439959,,439958,,439989,8,400,,,
break_continue,html.Screen,4_80_2,2023-05-02T17:58:30.107Z,,0,,,NaN,,,,,,false,,,,439959,439959,,439959,,439989,8,400,,,
sequence,flow.Sequence,4_80,2023-05-02T17:58:30.108Z,,0,,,11481,completion,,,,,false,,,,439960.00000000006,439959,428473,428471,428478,439989,8,400,,,
trial,html.Screen,4_81_0,2023-05-02T17:58:33.812Z,,0,2,,3686,response,ISIC_5127759.JPG,,ISIC_1761799.JPG,ISIC_1761799.JPG,false,0,keypress(z),500,443664,443663,439977,439960.00000000006,439989,443675,8,400,32,,ISIC_5127759.JPG
break,html.Screen,4_81_1,2023-05-02T17:58:33.813Z,,0,,,NaN,,,,,,false,,,,443665,443665,,443665,,443675,8,400,,,
break_continue,html.Screen,4_81_2,2023-05-02T17:58:33.814Z,,0,,,NaN,,,,,,false,,,,443666,443666,,443665,,443675,8,400,,,
sequence,flow.Sequence,4_81,2023-05-02T17:58:33.814Z,,0,,,3677,completion,,,,,false,,,,443666,443666,439977,439960.00000000006,439989,443675,8,400,,,
trial,html.Screen,4_82_0,2023-05-02T17:58:38.512Z,,0,2,,4694.000000000058,response,ISIC_5507066.JPG,,ISIC_4957216.JPG,ISIC_4957216.JPG,false,0,keypress(z),500,448365,448364.00000000006,443670,443667.00000000006,443675,448373,8,400,33,,ISIC_5507066.JPG
break,html.Screen,4_82_1,2023-05-02T17:58:38.513Z,,0,,,NaN,,,,,,false,,,,448366,448365,,448365,,448373,8,400,,,
break_continue,html.Screen,4_82_2,2023-05-02T17:58:38.514Z,,0,,,NaN,,,,,,false,,,,448366,448366,,448366,,448373,8,400,,,
sequence,flow.Sequence,4_82,2023-05-02T17:58:38.514Z,,0,,,4691,completion,,,,,false,,,,448366,448366,443670,443667.00000000006,443675,448373,8,400,,,
trial,html.Screen,4_83_0,2023-05-02T17:58:43.294Z,,0,2,,4777,response,ISIC_0007678.JPG,,ISIC_8535451.JPG,ISIC_0007678.JPG,false,1,keypress(m),500,453146,453145,448368,448366,448373,453156,8,400,34,,ISIC_8535451.JPG
break,html.Screen,4_83_1,2023-05-02T17:58:43.295Z,,0,,,NaN,,,,,,false,,,,453147,453147,,453146,,453156,8,400,,,
break_continue,html.Screen,4_83_2,2023-05-02T17:58:43.295Z,,0,,,NaN,,,,,,false,,,,453148,453147,,453147,,453156,8,400,,,
sequence,flow.Sequence,4_83,2023-05-02T17:58:43.295Z,,0,,,4774,completion,,,,,false,,,,453148,453147,448368,448366,448373,453156,8,400,,,
trial,html.Screen,4_84_0,2023-05-02T17:58:46.928Z,,0,2,,3630.000000000058,response,ISIC_0066328.JPG,,ISIC_0058906.JPG,ISIC_0066328.JPG,false,1,keypress(m),500,456780.00000000006,456780.00000000006,453150,453148,453156,456789,8,400,35,,ISIC_0058906.JPG
break,html.Screen,4_84_1,2023-05-02T17:58:46.929Z,,0,,,NaN,,,,,,false,,,,456782,456781,,456781,,456789,8,400,,,
break_continue,html.Screen,4_84_2,2023-05-02T17:58:46.930Z,,0,,,NaN,,,,,,false,,,,456782,456782,,456782,,456789,8,400,,,
sequence,flow.Sequence,4_84,2023-05-02T17:58:46.930Z,,0,,,3626,completion,,,,,false,,,,456782,456782,453150,453148,453156,456789,8,400,,,
trial,html.Screen,4_85_0,2023-05-02T17:58:51.296Z,,0,2,,4364,response,ISIC_0030183.JPG,,ISIC_0033954.JPG,ISIC_0030183.JPG,false,1,keypress(m),500,461148,461148,456784,456782,456789,461158,8,400,36,,ISIC_0033954.JPG
break,html.Screen,4_85_1,2023-05-02T17:58:51.297Z,,0,,,NaN,,,,,,false,,,,461149,461149,,461148,,461158,8,400,,,
break_continue,html.Screen,4_85_2,2023-05-02T17:58:51.298Z,,0,,,NaN,,,,,,false,,,,461150.00000000006,461150.00000000006,,461150.00000000006,,461158,8,400,,,
sequence,flow.Sequence,4_85,2023-05-02T17:58:51.298Z,,0,,,4361.000000000058,completion,,,,,false,,,,461150.00000000006,461150.00000000006,456784,456782,456789,461158,8,400,,,
trial,html.Screen,4_86_0,2023-05-02T17:58:55.089Z,,0,2,,3789.000000000058,response,ISIC_0033336.JPG,,ISIC_0887792.JPG,ISIC_0887792.JPG,false,0,keypress(z),500,464942,464941.00000000006,461152,461150.00000000006,461158,464950,8,400,37,,ISIC_0033336.JPG
break,html.Screen,4_86_1,2023-05-02T17:58:55.090Z,,0,,,NaN,,,,,,false,,,,464943,464942,,464942,,464950,8,400,,,
break_continue,html.Screen,4_86_2,2023-05-02T17:58:55.091Z,,0,,,NaN,,,,,,false,,,,464943,464943,,464943,,464950,8,400,,,
sequence,flow.Sequence,4_86,2023-05-02T17:58:55.091Z,,0,,,3785,completion,,,,,false,,,,464943,464943,461152,461150.00000000006,461158,464950,8,400,,,
trial,html.Screen,4_87_0,2023-05-02T17:58:59.691Z,,0,2,,4598,response,ISIC_0064125.JPG,,ISIC_4642190.JPG,ISIC_4642190.JPG,false,0,keypress(z),500,469544,469543,464945,464943,464950,469552,8,400,38,,ISIC_0064125.JPG
break,html.Screen,4_87_1,2023-05-02T17:58:59.692Z,,0,,,NaN,,,,,,false,,,,469545,469544,,469544,,469552,8,400,,,
break_continue,html.Screen,4_87_2,2023-05-02T17:58:59.692Z,,0,,,NaN,,,,,,false,,,,469545,469545,,469545,,469552,8,400,,,
sequence,flow.Sequence,4_87,2023-05-02T17:58:59.693Z,,0,,,4595,completion,,,,,false,,,,469545,469545,464945,464943,464950,469552,8,400,,,
trial,html.Screen,4_88_0,2023-05-02T17:59:04.202Z,,0,2,,4507.000000000058,response,ISIC_0015245.JPG,,ISIC_5539001.JPG,ISIC_5539001.JPG,false,0,keypress(z),500,474054.00000000006,474054.00000000006,469547,469545,469552,474063,8,400,39,,ISIC_0015245.JPG
break,html.Screen,4_88_1,2023-05-02T17:59:04.203Z,,0,,,NaN,,,,,,false,,,,474055,474055,,474055,,474063,8,400,,,
break_continue,html.Screen,4_88_2,2023-05-02T17:59:04.203Z,,0,,,NaN,,,,,,false,,,,474055,474055,,474055,,474063,8,400,,,
sequence,flow.Sequence,4_88,2023-05-02T17:59:04.203Z,,0,,,4503,completion,,,,,false,,,,474056,474055,469547,469545,469552,474063,8,400,,,
trial,html.Screen,4_89_0,2023-05-02T17:59:08.180Z,,0,2,,3974,response,ISIC_8496052.JPG,,ISIC_2345504.JPG,ISIC_2345504.JPG,false,0,keypress(z),500,478033,478032,474058,474056,474063,478043,8,400,40,,ISIC_8496052.JPG
break,html.Screen,4_89_1,2023-05-02T17:59:08.182Z,,0,,,NaN,,,,,,false,,,,478034,478034,,478033,,478043,8,400,,,
break_continue,html.Screen,4_89_2,2023-05-02T17:59:08.182Z,,0,,,NaN,,,,,,false,,,,478035,478035,,478035,,478043,8,400,,,
sequence,flow.Sequence,4_89,2023-05-02T17:59:08.183Z,,0,,,3972,completion,,,,,false,,,,478035,478035,474058,474056,474063,478043,8,400,,,
trial,html.Screen,4_90_0,2023-05-02T17:59:11.929Z,,0,2,,3743,response,ISIC_0062087.JPG,,ISIC_0028969.JPG,ISIC_0028969.JPG,false,0,keypress(z),500,481781,481781,478038,478035,478043,481793,8,400,41,,ISIC_0062087.JPG
break,html.Screen,4_90_1,2023-05-02T17:59:11.930Z,,0,,,NaN,,,,,,false,,,,481782,481782,,481782,,481793,8,400,,,
break_continue,html.Screen,4_90_2,2023-05-02T17:59:11.930Z,,0,,,NaN,,,,,,false,,,,481783,481783,,481782,,481793,8,400,,,
sequence,flow.Sequence,4_90,2023-05-02T17:59:11.930Z,,0,,,3740,completion,,,,,false,,,,481783,481783,478038,478035,478043,481793,8,400,,,
trial,html.Screen,4_91_0,2023-05-02T17:59:16.384Z,,0,2,,4449,response,ISIC_9475559.JPG,,ISIC_0024246.JPG,ISIC_9475559.JPG,false,1,keypress(m),500,486236,486236,481787,481784,481793,486246,8,400,42,,ISIC_0024246.JPG
break,html.Screen,4_91_1,2023-05-02T17:59:16.385Z,,0,,,NaN,,,,,,false,,,,486237,486237,,486236,,486246,8,400,,,
break_continue,html.Screen,4_91_2,2023-05-02T17:59:16.385Z,,0,,,NaN,,,,,,false,,,,486237,486237,,486237,,486246,8,400,,,
sequence,flow.Sequence,4_91,2023-05-02T17:59:16.385Z,,0,,,4444,completion,,,,,false,,,,486237,486237,481787,481783,481793,486246,8,400,,,
trial,html.Screen,4_92_0,2023-05-02T17:59:20.626Z,,0,2,,4237,response,ISIC_0024735.JPG,,ISIC_0201767.JPG,ISIC_0201767.JPG,false,0,keypress(z),500,490478,490478,486241,486238,486246,490488,8,400,43,,ISIC_0024735.JPG
break,html.Screen,4_92_1,2023-05-02T17:59:20.627Z,,0,,,NaN,,,,,,false,,,,490480,490479,,490479,,490488,8,400,,,
break_continue,html.Screen,4_92_2,2023-05-02T17:59:20.628Z,,0,,,NaN,,,,,,false,,,,490480,490480,,490480,,490488,8,400,,,
sequence,flow.Sequence,4_92,2023-05-02T17:59:20.628Z,,0,,,4234,completion,,,,,false,,,,490480,490480,486241,486237,486246,490488,8,400,,,
trial,html.Screen,4_93_0,2023-05-02T17:59:24.909Z,,0,2,,4279,response,ISIC_4955457.JPG,,ISIC_4495099.JPG,ISIC_4495099.JPG,false,0,keypress(z),500,494762,494761,490482,490481,490488,494771,8,400,44,,ISIC_4955457.JPG
break,html.Screen,4_93_1,2023-05-02T17:59:24.910Z,,0,,,NaN,,,,,,false,,,,494763.00000000006,494762,,494762,,494771,8,400,,,
break_continue,html.Screen,4_93_2,2023-05-02T17:59:24.910Z,,0,,,NaN,,,,,,false,,,,494763.00000000006,494763.00000000006,,494763.00000000006,,494771,8,400,,,
sequence,flow.Sequence,4_93,2023-05-02T17:59:24.911Z,,0,,,4275.000000000058,completion,,,,,false,,,,494763.00000000006,494763.00000000006,490482,490480,490488,494771,8,400,,,
trial,html.Screen,4_94_0,2023-05-02T17:59:28.430Z,,0,2,,3516,response,ISIC_0030817.JPG,,ISIC_3850432.JPG,ISIC_3850432.JPG,false,0,keypress(z),500,498282,498282,494766,494763.00000000006,494771,498291,8,400,45,,ISIC_0030817.JPG
break,html.Screen,4_94_1,2023-05-02T17:59:28.431Z,,0,,,NaN,,,,,,false,,,,498283,498283,,498282,,498291,8,400,,,
break_continue,html.Screen,4_94_2,2023-05-02T17:59:28.431Z,,0,,,NaN,,,,,,false,,,,498283,498283,,498283,,498291,8,400,,,
sequence,flow.Sequence,4_94,2023-05-02T17:59:28.431Z,,0,,,3512,completion,,,,,false,,,,498284,498283,494766,494763.00000000006,494771,498291,8,400,,,
trial,html.Screen,4_95_0,2023-05-02T17:59:33.063Z,,0,2,,4629,response,ISIC_1834920.JPG,,ISIC_0029007.JPG,ISIC_1834920.JPG,false,1,keypress(m),500,502916,502915,498286,498284,498291,502927,8,400,46,,ISIC_0029007.JPG
break,html.Screen,4_95_1,2023-05-02T17:59:33.065Z,,0,,,NaN,,,,,,false,,,,502917.00000000006,502917.00000000006,,502916,,502927,8,400,,,
break_continue,html.Screen,4_95_2,2023-05-02T17:59:33.066Z,,0,,,NaN,,,,,,false,,,,502918,502918,,502918,,502927,8,400,,,
sequence,flow.Sequence,4_95,2023-05-02T17:59:33.066Z,,0,,,4627,completion,,,,,false,,,,502919,502918,498286,498284,498291,502927,8,400,,,
trial,html.Screen,4_96_0,2023-05-02T17:59:36.706Z,,0,2,,3636,response,ISIC_6993129.JPG,,ISIC_0027604.JPG,ISIC_6993129.JPG,false,1,keypress(m),500,506558,506558,502922,502919,502927,506569,8,400,47,,ISIC_0027604.JPG
break,html.Screen,4_96_1,2023-05-02T17:59:36.707Z,,0,,,NaN,,,,,,false,,,,506559,506559,,506558,,506569,8,400,,,
break_continue,html.Screen,4_96_2,2023-05-02T17:59:36.707Z,,0,,,NaN,,,,,,false,,,,506559,506559,,506559,,506569,8,400,,,
sequence,flow.Sequence,4_96,2023-05-02T17:59:36.707Z,,0,,,3632,completion,,,,,false,,,,506560,506559,502922,502919,502927,506569,8,400,,,
trial,html.Screen,4_97_0,2023-05-02T17:59:41.789Z,,0,2,,5079,response,ISIC_8872225.JPG,,ISIC_0174983.JPG,ISIC_0174983.JPG,false,0,keypress(z),500,511642,511641,506562,506560,506569,511651,8,400,48,,ISIC_8872225.JPG
break,html.Screen,4_97_1,2023-05-02T17:59:41.790Z,,0,,,NaN,,,,,,false,,,,511643,511643,,511642,,511651,8,400,,,
break_continue,html.Screen,4_97_2,2023-05-02T17:59:41.791Z,,0,,,NaN,,,,,,false,,,,511643,511643,,511643,,511651,8,400,,,
sequence,flow.Sequence,4_97,2023-05-02T17:59:41.791Z,,0,,,5074,completion,,,,,false,,,,511644,511643,506562,506560,506569,511651,8,400,,,
trial,html.Screen,4_98_0,2023-05-02T17:59:46.045Z,,0,2,,4252.000000000058,response,ISIC_0027145.JPG,,ISIC_1205826.JPG,ISIC_0027145.JPG,false,1,keypress(m),500,515897.00000000006,515897.00000000006,511645,511644,511651,515908,8,400,49,,ISIC_1205826.JPG
break,html.Screen,4_98_1,2023-05-02T17:59:46.046Z,,0,,,NaN,,,,,,false,,,,515899,515899,,515898,,515908,8,400,,,
break_continue,html.Screen,4_98_2,2023-05-02T17:59:46.047Z,,0,,,NaN,,,,,,false,,,,515900,515899,,515899,,515908,8,400,,,
sequence,flow.Sequence,4_98,2023-05-02T17:59:46.047Z,,0,,,4248,completion,,,,,false,,,,515900,515899,511645,511644,511651,515908,8,400,,,
trial,html.Screen,4_99_0,2023-05-02T17:59:49.528Z,,0,2,,3476,response,ISIC_0057371.JPG,,ISIC_6496370.JPG,ISIC_6496370.JPG,false,0,keypress(z),500,519381,519380,515904,515900,515908,519393,8,400,50,,ISIC_0057371.JPG
break,html.Screen,4_99_1,2023-05-02T17:59:54.531Z,,0,,,5007,timeout,,,,,false,,,,524384,524383,519383,519381,519393,524400,8,400,,,
break_continue,html.Screen,4_99_2,2023-05-02T17:59:55.901Z,,0,,,1370,response,,,,,false,continue,keypress(Space),,525754,525753,524383,524384,524400,525762,8,400,,,
sequence,flow.Sequence,4_99,2023-05-02T17:59:55.901Z,,0,,,9845,completion,,,,,false,,,,525754,525753,515904,515900,515908,525762,8,400,,,
trial,html.Screen,4_100_0,2023-05-02T17:59:59.936Z,,0,3,,4032,response,ISIC_6780662.JPG,,ISIC_3885808.JPG,ISIC_3885808.JPG,false,0,keypress(z),500,529789,529788,525756,525754,525762,529798,8,400,1,,ISIC_6780662.JPG
break,html.Screen,4_100_1,2023-05-02T17:59:59.937Z,,0,,,NaN,,,,,,false,,,,529790,529790,,529789,,529798,8,400,,,
break_continue,html.Screen,4_100_2,2023-05-02T17:59:59.938Z,,0,,,NaN,,,,,,false,,,,529790,529790,,529790,,529798,8,400,,,
sequence,flow.Sequence,4_100,2023-05-02T17:59:59.938Z,,0,,,4028,completion,,,,,false,,,,529790,529790,525756,525754,525762,529798,8,400,,,
trial,html.Screen,4_101_0,2023-05-02T18:00:06.127Z,,0,3,,6187,response,ISIC_2851852.JPG,,ISIC_9742891.JPG,ISIC_2851852.JPG,false,1,keypress(m),500,535979,535979,529792,529791,529798,535988,8,400,2,,ISIC_9742891.JPG
break,html.Screen,4_101_1,2023-05-02T18:00:06.128Z,,0,,,NaN,,,,,,false,,,,535980,535980,,535980,,535988,8,400,,,
break_continue,html.Screen,4_101_2,2023-05-02T18:00:06.128Z,,0,,,NaN,,,,,,false,,,,535981,535980,,535980,,535988,8,400,,,
sequence,flow.Sequence,4_101,2023-05-02T18:00:06.128Z,,0,,,6182,completion,,,,,false,,,,535981,535980,529792,529791,529798,535988,8,400,,,
trial,html.Screen,4_102_0,2023-05-02T18:00:10.411Z,,0,3,,4280,response,ISIC_3361955.JPG,,ISIC_0030492.JPG,ISIC_0030492.JPG,false,0,keypress(z),500,540264,540263,535983,535981,535988,540277,8,400,3,,ISIC_3361955.JPG
break,html.Screen,4_102_1,2023-05-02T18:00:10.412Z,,0,,,NaN,,,,,,false,,,,540265,540265,,540264,,540277,8,400,,,
break_continue,html.Screen,4_102_2,2023-05-02T18:00:10.413Z,,0,,,NaN,,,,,,false,,,,540266,540266,,540265,,540277,8,400,,,
sequence,flow.Sequence,4_102,2023-05-02T18:00:10.414Z,,0,,,4278,completion,,,,,false,,,,540266,540266,535983,535981,535988,540277,8,400,,,
trial,html.Screen,4_103_0,2023-05-02T18:00:14.271Z,,0,3,,3853,response,ISIC_9684318.JPG,,ISIC_0014189.JPG,ISIC_9684318.JPG,false,1,keypress(m),500,544124,544123,540270,540266,540277,544133,8,400,4,,ISIC_0014189.JPG
break,html.Screen,4_103_1,2023-05-02T18:00:14.272Z,,0,,,NaN,,,,,,false,,,,544125,544125,,544124,,544133,8,400,,,
break_continue,html.Screen,4_103_2,2023-05-02T18:00:14.273Z,,0,,,NaN,,,,,,false,,,,544125,544125,,544125,,544133,8,400,,,
sequence,flow.Sequence,4_103,2023-05-02T18:00:14.273Z,,0,,,3848,completion,,,,,false,,,,544125,544125,540270,540266,540277,544133,8,400,,,
trial,html.Screen,4_104_0,2023-05-02T18:00:18.116Z,,0,3,,3840,response,ISIC_0030751.JPG,,ISIC_5960641.JPG,ISIC_5960641.JPG,false,0,keypress(z),500,547968,547968,544128,544126,544133,547976,8,400,5,,ISIC_0030751.JPG
break,html.Screen,4_104_1,2023-05-02T18:00:18.116Z,,0,,,NaN,,,,,,false,,,,547969,547969,,547968,,547976,8,400,,,
break_continue,html.Screen,4_104_2,2023-05-02T18:00:18.117Z,,0,,,NaN,,,,,,false,,,,547969,547969,,547969,,547976,8,400,,,
sequence,flow.Sequence,4_104,2023-05-02T18:00:18.117Z,,0,,,3836,completion,,,,,false,,,,547970,547969,544128,544126,544133,547976,8,400,,,
trial,html.Screen,4_105_0,2023-05-02T18:00:22.277Z,,0,3,,4158,response,ISIC_0011987.JPG,,ISIC_0034012.JPG,ISIC_0034012.JPG,false,0,keypress(z),500,552130,552129,547971,547970,547976,552141,8,400,6,,ISIC_0011987.JPG
break,html.Screen,4_105_1,2023-05-02T18:00:22.278Z,,0,,,NaN,,,,,,false,,,,552131,552131,,552130,,552141,8,400,,,
break_continue,html.Screen,4_105_2,2023-05-02T18:00:22.278Z,,0,,,NaN,,,,,,false,,,,552131,552131,,552131,,552141,8,400,,,
sequence,flow.Sequence,4_105,2023-05-02T18:00:22.278Z,,0,,,4155,completion,,,,,false,,,,552131,552131,547971,547970,547976,552141,8,400,,,
trial,html.Screen,4_106_0,2023-05-02T18:00:25.744Z,,0,3,,3463,response,ISIC_0031221.JPG,,ISIC_0071576.JPG,ISIC_0031221.JPG,false,1,keypress(m),500,555597,555597,552134,552131,552141,555605,8,400,7,,ISIC_0071576.JPG
break,html.Screen,4_106_1,2023-05-02T18:00:25.745Z,,0,,,NaN,,,,,,false,,,,555598,555598,,555597,,555605,8,400,,,
break_continue,html.Screen,4_106_2,2023-05-02T18:00:25.745Z,,0,,,NaN,,,,,,false,,,,555598,555598,,555598,,555605,8,400,,,
sequence,flow.Sequence,4_106,2023-05-02T18:00:25.746Z,,0,,,3457,completion,,,,,false,,,,555598,555598,552134,552131,552141,555605,8,400,,,
trial,html.Screen,4_107_0,2023-05-02T18:00:31.936Z,,0,3,,6188,response,ISIC_1919324.JPG,,ISIC_0519719.JPG,ISIC_1919324.JPG,false,1,keypress(m),500,561789,561788,555600,555598,555605,561799,8,400,8,,ISIC_0519719.JPG
break,html.Screen,4_107_1,2023-05-02T18:00:31.937Z,,0,,,NaN,,,,,,false,,,,561790,561790,,561789,,561799,8,400,,,
break_continue,html.Screen,4_107_2,2023-05-02T18:00:31.937Z,,0,,,NaN,,,,,,false,,,,561790,561790,,561790,,561799,8,400,,,
sequence,flow.Sequence,4_107,2023-05-02T18:00:31.937Z,,0,,,6185,completion,,,,,false,,,,561790,561790,555600,555598,555605,561799,8,400,,,
trial,html.Screen,4_108_0,2023-05-02T18:00:37.190Z,,0,3,,5249,response,ISIC_0066399.JPG,,ISIC_0058946.JPG,ISIC_0058946.JPG,false,0,keypress(z),500,567043,567042,561793,561790,561799,567051,8,400,9,,ISIC_0066399.JPG
break,html.Screen,4_108_1,2023-05-02T18:00:37.191Z,,0,,,NaN,,,,,,false,,,,567044,567044,,567043,,567051,8,400,,,
break_continue,html.Screen,4_108_2,2023-05-02T18:00:37.192Z,,0,,,NaN,,,,,,false,,,,567044,567044,,567044,,567051,8,400,,,
sequence,flow.Sequence,4_108,2023-05-02T18:00:37.192Z,,0,,,5245,completion,,,,,false,,,,567045,567044,561793,561790,561799,567051,8,400,,,
trial,html.Screen,4_109_0,2023-05-02T18:00:42.818Z,,0,3,,5623,response,ISIC_5502342.JPG,,ISIC_5867911.JPG,ISIC_5502342.JPG,false,1,keypress(m),500,572670,572670,567047,567045,567051,572680,8,400,10,,ISIC_5867911.JPG
break,html.Screen,4_109_1,2023-05-02T18:00:42.819Z,,0,,,NaN,,,,,,false,,,,572672,572671,,572671,,572680,8,400,,,
break_continue,html.Screen,4_109_2,2023-05-02T18:00:42.819Z,,0,,,NaN,,,,,,false,,,,572672,572672,,572672,,572680,8,400,,,
sequence,flow.Sequence,4_109,2023-05-02T18:00:42.819Z,,0,,,5621,completion,,,,,false,,,,572672,572672,567047,567045,567051,572680,8,400,,,
trial,html.Screen,4_110_0,2023-05-02T18:00:47.419Z,,0,3,,4596,response,ISIC_8127323.JPG,,ISIC_5400609.JPG,ISIC_8127323.JPG,false,1,keypress(m),500,577272,577271,572675,572672,572680,577280,8,400,11,,ISIC_5400609.JPG
break,html.Screen,4_110_1,2023-05-02T18:00:47.420Z,,0,,,NaN,,,,,,false,,,,577273,577272,,577272,,577280,8,400,,,
break_continue,html.Screen,4_110_2,2023-05-02T18:00:47.420Z,,0,,,NaN,,,,,,false,,,,577273,577273,,577273,,577280,8,400,,,
sequence,flow.Sequence,4_110,2023-05-02T18:00:47.420Z,,0,,,4593,completion,,,,,false,,,,577273,577273,572675,572672,572680,577280,8,400,,,
trial,html.Screen,4_111_0,2023-05-02T18:00:51.340Z,,0,3,,3917,response,ISIC_0013141.JPG,,ISIC_5813642.JPG,ISIC_0013141.JPG,false,1,keypress(m),500,581193,581192,577275,577273,577280,581203,8,400,12,,ISIC_5813642.JPG
break,html.Screen,4_111_1,2023-05-02T18:00:51.341Z,,0,,,NaN,,,,,,false,,,,581194,581193,,581193,,581203,8,400,,,
break_continue,html.Screen,4_111_2,2023-05-02T18:00:51.341Z,,0,,,NaN,,,,,,false,,,,581194,581194,,581194,,581203,8,400,,,
sequence,flow.Sequence,4_111,2023-05-02T18:00:51.341Z,,0,,,3914,completion,,,,,false,,,,581194,581194,577275,577273,577280,581203,8,400,,,
trial,html.Screen,4_112_0,2023-05-02T18:00:55.384Z,,0,3,,4040,response,ISIC_5538169.JPG,,ISIC_0009510.JPG,ISIC_0009510.JPG,false,0,keypress(z),500,585237,585236,581196,581194,581203,585247,8,400,13,,ISIC_5538169.JPG
break,html.Screen,4_112_1,2023-05-02T18:00:55.385Z,,0,,,NaN,,,,,,false,,,,585238,585238,,585237,,585247,8,400,,,
break_continue,html.Screen,4_112_2,2023-05-02T18:00:55.385Z,,0,,,NaN,,,,,,false,,,,585238,585238,,585238,,585247,8,400,,,
sequence,flow.Sequence,4_112,2023-05-02T18:00:55.386Z,,0,,,4035,completion,,,,,false,,,,585239,585238,581196,581194,581203,585247,8,400,,,
trial,html.Screen,4_113_0,2023-05-02T18:00:58.801Z,,0,3,,3412,response,ISIC_2337786.JPG,,ISIC_9668514.JPG,ISIC_9668514.JPG,false,0,keypress(z),500,588653,588653,585241,585239,585247,588663,8,400,14,,ISIC_2337786.JPG
break,html.Screen,4_113_1,2023-05-02T18:00:58.801Z,,0,,,NaN,,,,,,false,,,,588654,588654,,588654,,588663,8,400,,,
break_continue,html.Screen,4_113_2,2023-05-02T18:00:58.802Z,,0,,,NaN,,,,,,false,,,,588655,588655,,588654,,588663,8,400,,,
sequence,flow.Sequence,4_113,2023-05-02T18:00:58.802Z,,0,,,3408,completion,,,,,false,,,,588655,588655,585241,585239,585247,588663,8,400,,,
trial,html.Screen,4_114_0,2023-05-02T18:01:02.421Z,,0,3,,3616,response,ISIC_0027407.JPG,,ISIC_0067296.JPG,ISIC_0027407.JPG,false,1,keypress(m),500,592274,592273,588657,588655,588663,592282,8,400,15,,ISIC_0067296.JPG
break,html.Screen,4_114_1,2023-05-02T18:01:02.422Z,,0,,,NaN,,,,,,false,,,,592275,592275,,592274,,592282,8,400,,,
break_continue,html.Screen,4_114_2,2023-05-02T18:01:02.422Z,,0,,,NaN,,,,,,false,,,,592275,592275,,592275,,592282,8,400,,,
sequence,flow.Sequence,4_114,2023-05-02T18:01:02.422Z,,0,,,3612,completion,,,,,false,,,,592275,592275,588657,588655,588663,592282,8,400,,,
trial,html.Screen,4_115_0,2023-05-02T18:01:06.316Z,,0,3,,3890,response,ISIC_0068966.JPG,,ISIC_3253098.JPG,ISIC_3253098.JPG,false,0,keypress(z),500,596169,596168,592278,592276.0000000001,592282,596177,8,400,16,,ISIC_0068966.JPG
break,html.Screen,4_115_1,2023-05-02T18:01:06.317Z,,0,,,NaN,,,,,,false,,,,596170,596170,,596170,,596177,8,400,,,
break_continue,html.Screen,4_115_2,2023-05-02T18:01:06.318Z,,0,,,NaN,,,,,,false,,,,596171,596170,,596170,,596177,8,400,,,
sequence,flow.Sequence,4_115,2023-05-02T18:01:06.318Z,,0,,,3888,completion,,,,,false,,,,596171,596170,592278,592276.0000000001,592282,596177,8,400,,,
trial,html.Screen,4_116_0,2023-05-02T18:01:10.270Z,,0,3,,3950,response,ISIC_0030457.JPG,,ISIC_2772616.JPG,ISIC_0030457.JPG,false,1,keypress(m),500,600123,600123,596173,596171,596177,600132,8,400,17,,ISIC_2772616.JPG
break,html.Screen,4_116_1,2023-05-02T18:01:10.271Z,,0,,,NaN,,,,,,false,,,,600124,600124,,600124,,600132,8,400,,,
break_continue,html.Screen,4_116_2,2023-05-02T18:01:10.271Z,,0,,,NaN,,,,,,false,,,,600124,600124,,600124,,600132,8,400,,,
sequence,flow.Sequence,4_116,2023-05-02T18:01:10.272Z,,0,,,3947,completion,,,,,false,,,,600125,600124,596173,596171,596177,600132,8,400,,,
trial,html.Screen,4_117_0,2023-05-02T18:01:15.315Z,,0,3,,5041,response,ISIC_0010103.JPG,,ISIC_1615485.JPG,ISIC_1615485.JPG,false,0,keypress(z),500,605168,605168,600127,600125,600132,605177,8,400,18,,ISIC_0010103.JPG
break,html.Screen,4_117_1,2023-05-02T18:01:15.317Z,,0,,,NaN,,,,,,false,,,,605170,605169,,605168,,605177,8,400,,,
break_continue,html.Screen,4_117_2,2023-05-02T18:01:15.317Z,,0,,,NaN,,,,,,false,,,,605170,605170,,605170,,605177,8,400,,,
sequence,flow.Sequence,4_117,2023-05-02T18:01:15.317Z,,0,,,5038,completion,,,,,false,,,,605170,605170,600127,600125,600132,605177,8,400,,,
trial,html.Screen,4_118_0,2023-05-02T18:01:20.032Z,,0,3,,4712,response,ISIC_0046741.JPG,,ISIC_0000283.JPG,ISIC_0046741.JPG,false,1,keypress(m),500,609885,609885,605173,605170,605177,609893,8,400,19,,ISIC_0000283.JPG
break,html.Screen,4_118_1,2023-05-02T18:01:20.033Z,,0,,,NaN,,,,,,false,,,,609886,609886,,609885,,609893,8,400,,,
break_continue,html.Screen,4_118_2,2023-05-02T18:01:20.033Z,,0,,,NaN,,,,,,false,,,,609886,609886,,609886,,609893,8,400,,,
sequence,flow.Sequence,4_118,2023-05-02T18:01:20.033Z,,0,,,4709,completion,,,,,false,,,,609886,609886,605173,605170,605177,609893,8,400,,,
trial,html.Screen,4_119_0,2023-05-02T18:01:25.032Z,,0,3,,4997,response,ISIC_0010372.JPG,,ISIC_0024513.JPG,ISIC_0010372.JPG,false,1,keypress(m),500,614885,614885,609888,609887,609893,614910,8,400,20,,ISIC_0024513.JPG
break,html.Screen,4_119_1,2023-05-02T18:01:25.033Z,,0,,,NaN,,,,,,false,,,,614886,614886,,614885,,614910,8,400,,,
break_continue,html.Screen,4_119_2,2023-05-02T18:01:25.033Z,,0,,,NaN,,,,,,false,,,,614886,614886,,614886,,614910,8,400,,,
sequence,flow.Sequence,4_119,2023-05-02T18:01:25.033Z,,0,,,4993,completion,,,,,false,,,,614886,614886,609888,609886,609893,614910,8,400,,,
trial,html.Screen,4_120_0,2023-05-02T18:01:30.680Z,,0,3,,5640,response,ISIC_0062367.JPG,,ISIC_7335659.JPG,ISIC_7335659.JPG,false,0,keypress(z),500,620534,620533,614893,614886,614910,620542,8,400,21,,ISIC_0062367.JPG
break,html.Screen,4_120_1,2023-05-02T18:01:30.682Z,,0,,,NaN,,,,,,false,,,,620535,620534,,620534,,620542,8,400,,,
break_continue,html.Screen,4_120_2,2023-05-02T18:01:30.682Z,,0,,,NaN,,,,,,false,,,,620535,620535,,620535,,620542,8,400,,,
sequence,flow.Sequence,4_120,2023-05-02T18:01:30.682Z,,0,,,5625,completion,,,,,false,,,,620535,620535,614893,614886,614910,620542,8,400,,,
trial,html.Screen,4_121_0,2023-05-02T18:01:34.406Z,,0,3,,3721,response,ISIC_6640753.JPG,,ISIC_0060893.JPG,ISIC_6640753.JPG,false,1,keypress(m),500,624259,624258,620537,620535,620542,624272,8,400,22,,ISIC_0060893.JPG
break,html.Screen,4_121_1,2023-05-02T18:01:34.407Z,,0,,,NaN,,,,,,false,,,,624260,624260,,624259,,624272,8,400,,,
break_continue,html.Screen,4_121_2,2023-05-02T18:01:34.408Z,,0,,,NaN,,,,,,false,,,,624261,624260,,624260,,624272,8,400,,,
sequence,flow.Sequence,4_121,2023-05-02T18:01:34.408Z,,0,,,3718,completion,,,,,false,,,,624261,624260,620537,620535,620542,624272,8,400,,,
trial,html.Screen,4_122_0,2023-05-02T18:01:38.829Z,,0,3,,4417,response,ISIC_4453506.JPG,,ISIC_6517852.JPG,ISIC_6517852.JPG,false,0,keypress(z),500,628682,628682,624265,624261,624272,628690,8,400,23,,ISIC_4453506.JPG
break,html.Screen,4_122_1,2023-05-02T18:01:38.830Z,,0,,,NaN,,,,,,false,,,,628683,628683,,628683,,628690,8,400,,,
break_continue,html.Screen,4_122_2,2023-05-02T18:01:38.830Z,,0,,,NaN,,,,,,false,,,,628683,628683,,628683,,628690,8,400,,,
sequence,flow.Sequence,4_122,2023-05-02T18:01:38.831Z,,0,,,4411,completion,,,,,false,,,,628684,628683,624265,624261,624272,628690,8,400,,,
trial,html.Screen,4_123_0,2023-05-02T18:01:42.313Z,,0,3,,3480,response,ISIC_0032845.JPG,,ISIC_7329395.JPG,ISIC_7329395.JPG,false,0,keypress(z),500,632166,632165,628685,628684,628690,632176,8,400,24,,ISIC_0032845.JPG
break,html.Screen,4_123_1,2023-05-02T18:01:42.314Z,,0,,,NaN,,,,,,false,,,,632167,632167,,632166,,632176,8,400,,,
break_continue,html.Screen,4_123_2,2023-05-02T18:01:42.314Z,,0,,,NaN,,,,,,false,,,,632167,632167,,632167,,632176,8,400,,,
sequence,flow.Sequence,4_123,2023-05-02T18:01:42.314Z,,0,,,3477,completion,,,,,false,,,,632167,632167,628685,628684,628690,632176,8,400,,,
trial,html.Screen,4_124_0,2023-05-02T18:01:46.080Z,,0,3,,3764,response,ISIC_0900349.JPG,,ISIC_3495113.JPG,ISIC_0900349.JPG,false,1,keypress(m),500,635934,635933,632169,632168,632176,635942,8,400,25,,ISIC_3495113.JPG
break,html.Screen,4_124_1,2023-05-02T18:01:46.081Z,,0,,,NaN,,,,,,false,,,,635934,635934,,635934,,635942,8,400,,,
break_continue,html.Screen,4_124_2,2023-05-02T18:01:46.082Z,,0,,,NaN,,,,,,false,,,,635935.0000000001,635935.0000000001,,635935.0000000001,,635942,8,400,,,
sequence,flow.Sequence,4_124,2023-05-02T18:01:46.082Z,,0,,,3759.0000000001164,completion,,,,,false,,,,635935.0000000001,635935.0000000001,632169,632167,632176,635942,8,400,,,
trial,html.Screen,4_125_0,2023-05-02T18:01:49.970Z,,0,3,,3886,response,ISIC_0058206.JPG,,ISIC_2259190.JPG,ISIC_0058206.JPG,false,1,keypress(m),500,639824.0000000001,639823,635937,635935.0000000001,635942,639835,8,400,26,,ISIC_2259190.JPG
break,html.Screen,4_125_1,2023-05-02T18:01:49.972Z,,0,,,NaN,,,,,,false,,,,639825,639825,,639824.0000000001,,639835,8,400,,,
break_continue,html.Screen,4_125_2,2023-05-02T18:01:49.973Z,,0,,,NaN,,,,,,false,,,,639826,639825,,639825,,639835,8,400,,,
sequence,flow.Sequence,4_125,2023-05-02T18:01:49.973Z,,0,,,3883,completion,,,,,false,,,,639826,639825,635937,635935.0000000001,635942,639835,8,400,,,
trial,html.Screen,4_126_0,2023-05-02T18:01:53.501Z,,0,3,,3523.0000000001164,response,ISIC_0000143.JPG,,ISIC_0003122.JPG,ISIC_0003122.JPG,false,0,keypress(z),500,643354,643353.0000000001,639830,639826,639835,643363,8,400,27,,ISIC_0000143.JPG
break,html.Screen,4_126_1,2023-05-02T18:01:53.502Z,,0,,,NaN,,,,,,false,,,,643355,643355,,643354,,643363,8,400,,,
break_continue,html.Screen,4_126_2,2023-05-02T18:01:53.502Z,,0,,,NaN,,,,,,false,,,,643355,643355,,643355,,643363,8,400,,,
sequence,flow.Sequence,4_126,2023-05-02T18:01:53.502Z,,0,,,3520,completion,,,,,false,,,,643355,643355,639830,639826,639835,643363,8,400,,,
trial,html.Screen,4_127_0,2023-05-02T18:01:57.517Z,,0,3,,4013,response,ISIC_0071904.JPG,,ISIC_8617084.JPG,ISIC_8617084.JPG,false,0,keypress(z),500,647370,647370,643357,643355,643363,647379,8,400,28,,ISIC_0071904.JPG
break,html.Screen,4_127_1,2023-05-02T18:01:57.519Z,,0,,,NaN,,,,,,false,,,,647372,647371,,647371,,647379,8,400,,,
break_continue,html.Screen,4_127_2,2023-05-02T18:01:57.519Z,,0,,,NaN,,,,,,false,,,,647372,647372,,647372,,647379,8,400,,,
sequence,flow.Sequence,4_127,2023-05-02T18:01:57.519Z,,0,,,4009,completion,,,,,false,,,,647372,647372,643357,643355,643363,647379,8,400,,,
trial,html.Screen,4_128_0,2023-05-02T18:02:01.629Z,,0,3,,4107,response,ISIC_0254517.JPG,,ISIC_0060707.JPG,ISIC_0060707.JPG,false,0,keypress(z),500,651482,651481,647374,647372,647379,651490,8,400,29,,ISIC_0254517.JPG
break,html.Screen,4_128_1,2023-05-02T18:02:01.629Z,,0,,,NaN,,,,,,false,,,,651483.0000000001,651482,,651482,,651490,8,400,,,
break_continue,html.Screen,4_128_2,2023-05-02T18:02:01.630Z,,0,,,NaN,,,,,,false,,,,651483.0000000001,651483.0000000001,,651483.0000000001,,651490,8,400,,,
sequence,flow.Sequence,4_128,2023-05-02T18:02:01.630Z,,0,,,4104.000000000116,completion,,,,,false,,,,651483.0000000001,651483.0000000001,647374,647372,647379,651490,8,400,,,
trial,html.Screen,4_129_0,2023-05-02T18:02:05.947Z,,0,3,,4315.000000000116,response,ISIC_9422630.JPG,,ISIC_9690263.JPG,ISIC_9422630.JPG,false,1,keypress(m),500,655800.0000000001,655800.0000000001,651485,651483.0000000001,651490,655808,8,400,30,,ISIC_9690263.JPG
break,html.Screen,4_129_1,2023-05-02T18:02:05.948Z,,0,,,NaN,,,,,,false,,,,655801,655801,,655800.0000000001,,655808,8,400,,,
break_continue,html.Screen,4_129_2,2023-05-02T18:02:05.948Z,,0,,,NaN,,,,,,false,,,,655801,655801,,655801,,655808,8,400,,,
sequence,flow.Sequence,4_129,2023-05-02T18:02:05.948Z,,0,,,4311,completion,,,,,false,,,,655801,655801,651485,651483.0000000001,651490,655808,8,400,,,
trial,html.Screen,4_130_0,2023-05-02T18:02:11.478Z,,0,3,,5527,response,ISIC_0061252.JPG,,ISIC_0024236.JPG,ISIC_0024236.JPG,false,0,keypress(z),500,661331,661330,655803,655801,655808,661343,8,400,31,,ISIC_0061252.JPG
break,html.Screen,4_130_1,2023-05-02T18:02:11.479Z,,0,,,NaN,,,,,,false,,,,661332,661332,,661332,,661343,8,400,,,
break_continue,html.Screen,4_130_2,2023-05-02T18:02:11.479Z,,0,,,NaN,,,,,,false,,,,661333,661333,,661333,,661343,8,400,,,
sequence,flow.Sequence,4_130,2023-05-02T18:02:11.480Z,,0,,,5525,completion,,,,,false,,,,661333,661333,655803,655801,655808,661343,8,400,,,
trial,html.Screen,4_131_0,2023-05-02T18:02:15.531Z,,0,3,,4048,response,ISIC_7601403.JPG,,ISIC_2852805.JPG,ISIC_7601403.JPG,false,1,keypress(m),500,665384,665384,661336,661333,661343,665392,8,400,32,,ISIC_2852805.JPG
break,html.Screen,4_131_1,2023-05-02T18:02:15.532Z,,0,,,NaN,,,,,,false,,,,665385,665385,,665384,,665392,8,400,,,
break_continue,html.Screen,4_131_2,2023-05-02T18:02:15.532Z,,0,,,NaN,,,,,,false,,,,665385,665385,,665385,,665392,8,400,,,
sequence,flow.Sequence,4_131,2023-05-02T18:02:15.532Z,,0,,,4042,completion,,,,,false,,,,665385,665385,661336,661333,661343,665392,8,400,,,
trial,html.Screen,4_132_0,2023-05-02T18:02:20.528Z,,0,3,,4994,response,ISIC_9061511.JPG,,ISIC_0003664.JPG,ISIC_9061511.JPG,false,1,keypress(m),500,670381,670381,665387,665385,665392,670406,8,400,33,,ISIC_0003664.JPG
break,html.Screen,4_132_1,2023-05-02T18:02:20.529Z,,0,,,NaN,,,,,,false,,,,670382.0000000001,670382.0000000001,,670382.0000000001,,670406,8,400,,,
break_continue,html.Screen,4_132_2,2023-05-02T18:02:20.529Z,,0,,,NaN,,,,,,false,,,,670382.0000000001,670382.0000000001,,670382.0000000001,,670406,8,400,,,
sequence,flow.Sequence,4_132,2023-05-02T18:02:20.529Z,,0,,,4990.000000000116,completion,,,,,false,,,,670383,670382.0000000001,665387,665385,665392,670406,8,400,,,
trial,html.Screen,4_133_0,2023-05-02T18:02:23.743Z,,0,3,,3206,response,ISIC_0009989.JPG,,ISIC_3708739.JPG,ISIC_0009989.JPG,false,1,keypress(m),500,673596,673595,670389,670383,670406,673604,8,400,34,,ISIC_3708739.JPG
break,html.Screen,4_133_1,2023-05-02T18:02:23.744Z,,0,,,NaN,,,,,,false,,,,673597,673597,,673596,,673604,8,400,,,
break_continue,html.Screen,4_133_2,2023-05-02T18:02:23.744Z,,0,,,NaN,,,,,,false,,,,673597,673597,,673597,,673604,8,400,,,
sequence,flow.Sequence,4_133,2023-05-02T18:02:23.744Z,,0,,,3191,completion,,,,,false,,,,673598.0000000001,673597,670389,670383,670406,673604,8,400,,,
trial,html.Screen,4_134_0,2023-05-02T18:02:27.766Z,,0,3,,4018,response,ISIC_0000305.JPG,,ISIC_0013577.JPG,ISIC_0013577.JPG,false,0,keypress(z),500,677619,677618,673600,673598.0000000001,673604,677627,8,400,35,,ISIC_0000305.JPG
break,html.Screen,4_134_1,2023-05-02T18:02:27.767Z,,0,,,NaN,,,,,,false,,,,677620,677620,,677619,,677627,8,400,,,
break_continue,html.Screen,4_134_2,2023-05-02T18:02:27.767Z,,0,,,NaN,,,,,,false,,,,677620,677620,,677620,,677627,8,400,,,
sequence,flow.Sequence,4_134,2023-05-02T18:02:27.767Z,,0,,,4016,completion,,,,,false,,,,677621,677620,673600,673598.0000000001,673604,677627,8,400,,,
trial,html.Screen,4_135_0,2023-05-02T18:02:31.649Z,,0,3,,3878,response,ISIC_0001118.JPG,,ISIC_0030089.JPG,ISIC_0030089.JPG,false,0,keypress(z),500,681502.0000000001,681501,677623,677621,677627,681512,8,400,36,,ISIC_0001118.JPG
break,html.Screen,4_135_1,2023-05-02T18:02:31.650Z,,0,,,NaN,,,,,,false,,,,681503,681503,,681502.0000000001,,681512,8,400,,,
break_continue,html.Screen,4_135_2,2023-05-02T18:02:31.650Z,,0,,,NaN,,,,,,false,,,,681503,681503,,681503,,681512,8,400,,,
sequence,flow.Sequence,4_135,2023-05-02T18:02:31.650Z,,0,,,3876,completion,,,,,false,,,,681503,681503,677623,677621,677627,681512,8,400,,,
trial,html.Screen,4_136_0,2023-05-02T18:02:36.284Z,,0,3,,4630,response,ISIC_0066412.JPG,,ISIC_3060145.JPG,ISIC_3060145.JPG,false,0,keypress(z),500,686137,686137,681507,681504,681512,686145,8,400,37,,ISIC_0066412.JPG
break,html.Screen,4_136_1,2023-05-02T18:02:36.285Z,,0,,,NaN,,,,,,false,,,,686138,686138,,686138,,686145,8,400,,,
break_continue,html.Screen,4_136_2,2023-05-02T18:02:36.285Z,,0,,,NaN,,,,,,false,,,,686138,686138,,686138,,686145,8,400,,,
sequence,flow.Sequence,4_136,2023-05-02T18:02:36.285Z,,0,,,4626,completion,,,,,false,,,,686139,686138,681507,681503,681512,686145,8,400,,,
trial,html.Screen,4_137_0,2023-05-02T18:02:40.161Z,,0,3,,3873,response,ISIC_7994337.JPG,,ISIC_2784965.JPG,ISIC_7994337.JPG,false,1,keypress(m),500,690014,690013,686140,686139,686145,690025,8,400,38,,ISIC_2784965.JPG
break,html.Screen,4_137_1,2023-05-02T18:02:40.162Z,,0,,,NaN,,,,,,false,,,,690015,690015,,690014,,690025,8,400,,,
break_continue,html.Screen,4_137_2,2023-05-02T18:02:40.162Z,,0,,,NaN,,,,,,false,,,,690015,690015,,690015,,690025,8,400,,,
sequence,flow.Sequence,4_137,2023-05-02T18:02:40.162Z,,0,,,3870,completion,,,,,false,,,,690015,690015,686140,686139,686145,690025,8,400,,,
trial,html.Screen,4_138_0,2023-05-02T18:02:43.968Z,,0,3,,3802,response,ISIC_4619789.JPG,,ISIC_8159718.JPG,ISIC_4619789.JPG,false,1,keypress(m),500,693822,693821,690019,690015,690025,693830,8,400,39,,ISIC_8159718.JPG
break,html.Screen,4_138_1,2023-05-02T18:02:43.969Z,,0,,,NaN,,,,,,false,,,,693822,693822,,693822,,693830,8,400,,,
break_continue,html.Screen,4_138_2,2023-05-02T18:02:43.969Z,,0,,,NaN,,,,,,false,,,,693823,693823,,693823,,693830,8,400,,,
sequence,flow.Sequence,4_138,2023-05-02T18:02:43.969Z,,0,,,3798,completion,,,,,false,,,,693823,693823,690019,690015,690025,693830,8,400,,,
trial,html.Screen,4_139_0,2023-05-02T18:02:47.618Z,,0,3,,3645,response,ISIC_8853902.JPG,,ISIC_6974830.JPG,ISIC_6974830.JPG,false,0,keypress(z),500,697471,697470,693825,693823,693830,697480,8,400,40,,ISIC_8853902.JPG
break,html.Screen,4_139_1,2023-05-02T18:02:47.618Z,,0,,,NaN,,,,,,false,,,,697472,697472,,697471,,697480,8,400,,,
break_continue,html.Screen,4_139_2,2023-05-02T18:02:47.619Z,,0,,,NaN,,,,,,false,,,,697472,697472,,697472,,697480,8,400,,,
sequence,flow.Sequence,4_139,2023-05-02T18:02:47.619Z,,0,,,3642,completion,,,,,false,,,,697472,697472,693825,693823,693830,697480,8,400,,,
trial,html.Screen,4_140_0,2023-05-02T18:02:51.476Z,,0,3,,3854,response,ISIC_3105924.JPG,,ISIC_0011668.JPG,ISIC_0011668.JPG,false,0,keypress(z),500,701329.0000000001,701328,697474,697472,697480,701339,8,400,41,,ISIC_3105924.JPG
break,html.Screen,4_140_1,2023-05-02T18:02:51.476Z,,0,,,NaN,,,,,,false,,,,701330,701330,,701329.0000000001,,701339,8,400,,,
break_continue,html.Screen,4_140_2,2023-05-02T18:02:51.477Z,,0,,,NaN,,,,,,false,,,,701330,701330,,701330,,701339,8,400,,,
sequence,flow.Sequence,4_140,2023-05-02T18:02:51.477Z,,0,,,3850,completion,,,,,false,,,,701330,701330,697474,697472,697480,701339,8,400,,,
trial,html.Screen,4_141_0,2023-05-02T18:02:55.424Z,,0,3,,3943.0000000001164,response,ISIC_8642938.JPG,,ISIC_4882123.JPG,ISIC_4882123.JPG,false,0,keypress(z),500,705277,705276.0000000001,701333,701330,701339,705290,8,400,42,,ISIC_8642938.JPG
break,html.Screen,4_141_1,2023-05-02T18:02:55.425Z,,0,,,NaN,,,,,,false,,,,705279,705278,,705277,,705290,8,400,,,
break_continue,html.Screen,4_141_2,2023-05-02T18:02:55.426Z,,0,,,NaN,,,,,,false,,,,705279,705279,,705279,,705290,8,400,,,
sequence,flow.Sequence,4_141,2023-05-02T18:02:55.426Z,,0,,,3940,completion,,,,,false,,,,705280,705279,701333,701330,701339,705290,8,400,,,
trial,html.Screen,4_142_0,2023-05-02T18:02:59.514Z,,0,3,,4084,response,ISIC_6809191.JPG,,ISIC_4136663.JPG,ISIC_4136663.JPG,false,0,keypress(z),500,709368,709367,705283,705280,705290,709377,8,400,43,,ISIC_6809191.JPG
break,html.Screen,4_142_1,2023-05-02T18:02:59.515Z,,0,,,NaN,,,,,,false,,,,709369,709368,,709368,,709377,8,400,,,
break_continue,html.Screen,4_142_2,2023-05-02T18:02:59.515Z,,0,,,NaN,,,,,,false,,,,709369,709369,,709369,,709377,8,400,,,
sequence,flow.Sequence,4_142,2023-05-02T18:02:59.516Z,,0,,,4079,completion,,,,,false,,,,709369,709369,705283,705280,705290,709377,8,400,,,
trial,html.Screen,4_143_0,2023-05-02T18:03:03.712Z,,0,3,,4192,response,ISIC_0054048.JPG,,ISIC_0065943.JPG,ISIC_0065943.JPG,false,0,keypress(z),500,713565,713564,709372,709369,709377,713574,8,400,44,,ISIC_0054048.JPG
break,html.Screen,4_143_1,2023-05-02T18:03:03.713Z,,0,,,NaN,,,,,,false,,,,713566,713566,,713565,,713574,8,400,,,
break_continue,html.Screen,4_143_2,2023-05-02T18:03:03.713Z,,0,,,NaN,,,,,,false,,,,713567,713567,,713566,,713574,8,400,,,
sequence,flow.Sequence,4_143,2023-05-02T18:03:03.713Z,,0,,,4190,completion,,,,,false,,,,713567,713567,709372,709369,709377,713574,8,400,,,
trial,html.Screen,4_144_0,2023-05-02T18:03:09.124Z,,0,3,,5408,response,ISIC_5673994.JPG,,ISIC_5498202.JPG,ISIC_5673994.JPG,false,1,keypress(m),500,718978.0000000001,718977,713569,713567,713574,718987,8,400,45,,ISIC_5498202.JPG
break,html.Screen,4_144_1,2023-05-02T18:03:09.126Z,,0,,,NaN,,,,,,false,,,,718979,718979,,718978.0000000001,,718987,8,400,,,
break_continue,html.Screen,4_144_2,2023-05-02T18:03:09.126Z,,0,,,NaN,,,,,,false,,,,718980,718980,,718980,,718987,8,400,,,
sequence,flow.Sequence,4_144,2023-05-02T18:03:09.126Z,,0,,,5406,completion,,,,,false,,,,718980,718980,713569,713567,713574,718987,8,400,,,
trial,html.Screen,4_145_0,2023-05-02T18:03:12.916Z,,0,3,,3787,response,ISIC_2436560.JPG,,ISIC_2412113.JPG,ISIC_2436560.JPG,false,1,keypress(m),500,722769,722769,718982,718980,718987,722778,8,400,46,,ISIC_2412113.JPG
break,html.Screen,4_145_1,2023-05-02T18:03:12.917Z,,0,,,NaN,,,,,,false,,,,722770,722770,,722769,,722778,8,400,,,
break_continue,html.Screen,4_145_2,2023-05-02T18:03:12.917Z,,0,,,NaN,,,,,,false,,,,722771.0000000001,722770,,722770,,722778,8,400,,,
sequence,flow.Sequence,4_145,2023-05-02T18:03:12.917Z,,0,,,3783,completion,,,,,false,,,,722771.0000000001,722770,718982,718980,718987,722778,8,400,,,
trial,html.Screen,4_146_0,2023-05-02T18:03:16.593Z,,0,3,,3674,response,ISIC_0028176.JPG,,ISIC_0057015.JPG,ISIC_0028176.JPG,false,1,keypress(m),500,726447,726446,722772,722771.0000000001,722778,726454,8,400,47,,ISIC_0057015.JPG
break,html.Screen,4_146_1,2023-05-02T18:03:16.594Z,,0,,,NaN,,,,,,false,,,,726447,726447,,726447,,726454,8,400,,,
break_continue,html.Screen,4_146_2,2023-05-02T18:03:16.594Z,,0,,,NaN,,,,,,false,,,,726448,726448,,726448,,726454,8,400,,,
sequence,flow.Sequence,4_146,2023-05-02T18:03:16.594Z,,0,,,3670,completion,,,,,false,,,,726448,726448,722772,722771.0000000001,722778,726454,8,400,,,
trial,html.Screen,4_147_0,2023-05-02T18:03:19.932Z,,0,3,,3335,response,ISIC_0059412.JPG,,ISIC_0028723.JPG,ISIC_0059412.JPG,false,1,keypress(m),500,729786,729785,726450,726448,726454,729795,8,400,48,,ISIC_0028723.JPG
break,html.Screen,4_147_1,2023-05-02T18:03:19.933Z,,0,,,NaN,,,,,,false,,,,729786,729786,,729786,,729795,8,400,,,
break_continue,html.Screen,4_147_2,2023-05-02T18:03:19.933Z,,0,,,NaN,,,,,,false,,,,729787,729787,,729786,,729795,8,400,,,
sequence,flow.Sequence,4_147,2023-05-02T18:03:19.933Z,,0,,,3333,completion,,,,,false,,,,729787,729787,726450,726448,726454,729795,8,400,,,
trial,html.Screen,4_148_0,2023-05-02T18:03:24.095Z,,0,3,,4158,response,ISIC_0013204.JPG,,ISIC_5526879.JPG,ISIC_5526879.JPG,false,0,keypress(z),500,733949.0000000001,733948,729790,729787,729795,733959,8,400,49,,ISIC_0013204.JPG
break,html.Screen,4_148_1,2023-05-02T18:03:24.096Z,,0,,,NaN,,,,,,false,,,,733950,733950,,733949.0000000001,,733959,8,400,,,
break_continue,html.Screen,4_148_2,2023-05-02T18:03:24.096Z,,0,,,NaN,,,,,,false,,,,733950,733950,,733950,,733959,8,400,,,
sequence,flow.Sequence,4_148,2023-05-02T18:03:24.096Z,,0,,,4155,completion,,,,,false,,,,733950,733950,729790,729787,729795,733959,8,400,,,
trial,html.Screen,4_149_0,2023-05-02T18:03:29.356Z,,0,3,,5256.000000000116,response,ISIC_8176449.JPG,,ISIC_3440813.JPG,ISIC_3440813.JPG,false,0,keypress(z),500,739209.0000000001,739209.0000000001,733953,733950,733959,739223,8,400,50,,ISIC_8176449.JPG
break,html.Screen,4_149_1,2023-05-02T18:03:34.347Z,,0,,,4994,timeout,,,,,false,,,,744201,744201,739213,739210,739223,744217,8,400,,,
break_continue,html.Screen,4_149_2,2023-05-02T18:03:35.493Z,,0,,,1145,response,,,,,false,continue,keypress(Space),,745347,745346,744201,744201,744217,745356,8,400,,,
sequence,flow.Sequence,4_149,2023-05-02T18:03:35.493Z,,0,,,11387,completion,,,,,false,,,,745347,745346,733953,733950,733959,745356,8,400,,,
trial,html.Screen,4_150_0,2023-05-02T18:03:39.040Z,,0,4,,3543,response,ISIC_0061606.JPG,,ISIC_0032672.JPG,ISIC_0032672.JPG,false,0,keypress(z),500,748894,748893,745350,745347,745356,748903,8,400,1,,ISIC_0061606.JPG
break,html.Screen,4_150_1,2023-05-02T18:03:39.041Z,,0,,,NaN,,,,,,false,,,,748894,748894,,748894,,748903,8,400,,,
break_continue,html.Screen,4_150_2,2023-05-02T18:03:39.041Z,,0,,,NaN,,,,,,false,,,,748895,748895,,748895,,748903,8,400,,,
sequence,flow.Sequence,4_150,2023-05-02T18:03:39.041Z,,0,,,3539,completion,,,,,false,,,,748895,748895,745350,745347,745356,748903,8,400,,,
trial,html.Screen,4_151_0,2023-05-02T18:03:42.241Z,,0,4,,3197,response,ISIC_6507792.JPG,,ISIC_6101007.JPG,ISIC_6101007.JPG,false,0,keypress(z),500,752095,752094,748897,748895,748903,752105,8,400,2,,ISIC_6507792.JPG
break,html.Screen,4_151_1,2023-05-02T18:03:42.243Z,,0,,,NaN,,,,,,false,,,,752096,752096,,752095,,752105,8,400,,,
break_continue,html.Screen,4_151_2,2023-05-02T18:03:42.243Z,,0,,,NaN,,,,,,false,,,,752097,752097,,752096,,752105,8,400,,,
sequence,flow.Sequence,4_151,2023-05-02T18:03:42.243Z,,0,,,3194,completion,,,,,false,,,,752097,752097,748897,748895,748903,752105,8,400,,,
trial,html.Screen,4_152_0,2023-05-02T18:03:47.187Z,,0,4,,4940,response,ISIC_6208107.JPG,,ISIC_0055361.JPG,ISIC_6208107.JPG,false,1,keypress(m),500,757040,757040,752100,752097,752105,757066,8,400,3,,ISIC_0055361.JPG
break,html.Screen,4_152_1,2023-05-02T18:03:47.188Z,,0,,,NaN,,,,,,false,,,,757041,757041,,757041,,757066,8,400,,,
break_continue,html.Screen,4_152_2,2023-05-02T18:03:47.188Z,,0,,,NaN,,,,,,false,,,,757042,757041,,757041,,757066,8,400,,,
sequence,flow.Sequence,4_152,2023-05-02T18:03:47.188Z,,0,,,4936,completion,,,,,false,,,,757042,757041,752100,752097,752105,757066,8,400,,,
trial,html.Screen,4_153_0,2023-05-02T18:03:50.537Z,,0,4,,3341,response,ISIC_1784255.JPG,,ISIC_0011704.JPG,ISIC_1784255.JPG,false,1,keypress(m),500,760391,760390,757049,757042,757066,760401,8,400,4,,ISIC_0011704.JPG
break,html.Screen,4_153_1,2023-05-02T18:03:50.538Z,,0,,,NaN,,,,,,false,,,,760392,760392,,760391,,760401,8,400,,,
break_continue,html.Screen,4_153_2,2023-05-02T18:03:50.538Z,,0,,,NaN,,,,,,false,,,,760392,760392,,760392,,760401,8,400,,,
sequence,flow.Sequence,4_153,2023-05-02T18:03:50.539Z,,0,,,3326,completion,,,,,false,,,,760392,760392,757049,757042,757066,760401,8,400,,,
trial,html.Screen,4_154_0,2023-05-02T18:03:54.173Z,,0,4,,3630.0000000001164,response,ISIC_6289346.JPG,,ISIC_0031087.JPG,ISIC_0031087.JPG,false,0,keypress(z),500,764026.0000000001,764026.0000000001,760396,760392,760401,764036,8,400,5,,ISIC_6289346.JPG
break,html.Screen,4_154_1,2023-05-02T18:03:54.174Z,,0,,,NaN,,,,,,false,,,,764028,764028,,764027,,764036,8,400,,,
break_continue,html.Screen,4_154_2,2023-05-02T18:03:54.174Z,,0,,,NaN,,,,,,false,,,,764028,764028,,764028,,764036,8,400,,,
sequence,flow.Sequence,4_154,2023-05-02T18:03:54.174Z,,0,,,3627,completion,,,,,false,,,,764028,764028,760396,760392,760401,764036,8,400,,,
trial,html.Screen,4_155_0,2023-05-02T18:03:57.287Z,,0,4,,3110,response,ISIC_0029433.JPG,,ISIC_1681964.JPG,ISIC_1681964.JPG,false,0,keypress(z),500,767141,767140,764030,764028,764036,767150,8,400,6,,ISIC_0029433.JPG
break,html.Screen,4_155_1,2023-05-02T18:03:57.288Z,,0,,,NaN,,,,,,false,,,,767142,767141,,767141,,767150,8,400,,,
break_continue,html.Screen,4_155_2,2023-05-02T18:03:57.288Z,,0,,,NaN,,,,,,false,,,,767142,767142,,767142,,767150,8,400,,,
sequence,flow.Sequence,4_155,2023-05-02T18:03:57.288Z,,0,,,3106,completion,,,,,false,,,,767142,767142,764030,764028,764036,767150,8,400,,,
trial,html.Screen,4_156_0,2023-05-02T18:04:00.718Z,,0,4,,3427,response,ISIC_7340926.JPG,,ISIC_0054527.JPG,ISIC_7340926.JPG,false,1,keypress(m),500,770572,770572,767145,767142,767150,770581,8,400,7,,ISIC_0054527.JPG
break,html.Screen,4_156_1,2023-05-02T18:04:00.719Z,,0,,,NaN,,,,,,false,,,,770573,770573,,770572,,770581,8,400,,,
break_continue,html.Screen,4_156_2,2023-05-02T18:04:00.719Z,,0,,,NaN,,,,,,false,,,,770573,770573,,770573,,770581,8,400,,,
sequence,flow.Sequence,4_156,2023-05-02T18:04:00.720Z,,0,,,3423,completion,,,,,false,,,,770573,770573,767145,767142,767150,770581,8,400,,,
trial,html.Screen,4_157_0,2023-05-02T18:04:03.927Z,,0,4,,3204,response,ISIC_0025648.JPG,,ISIC_2852805.JPG,ISIC_2852805.JPG,false,0,keypress(z),500,773781.0000000001,773780,770576,770574.0000000001,770581,773790,8,400,8,,ISIC_0025648.JPG
break,html.Screen,4_157_1,2023-05-02T18:04:03.928Z,,0,,,NaN,,,,,,false,,,,773782,773782,,773781.0000000001,,773790,8,400,,,
break_continue,html.Screen,4_157_2,2023-05-02T18:04:03.929Z,,0,,,NaN,,,,,,false,,,,773782,773782,,773782,,773790,8,400,,,
sequence,flow.Sequence,4_157,2023-05-02T18:04:03.929Z,,0,,,3201,completion,,,,,false,,,,773782,773782,770576,770573,770581,773790,8,400,,,
trial,html.Screen,4_158_0,2023-05-02T18:04:07.275Z,,0,4,,3343,response,ISIC_2380341.JPG,,ISIC_0067097.JPG,ISIC_2380341.JPG,false,1,keypress(m),500,777128,777128,773785,773783,773790,777137,8,400,9,,ISIC_0067097.JPG
break,html.Screen,4_158_1,2023-05-02T18:04:07.276Z,,0,,,NaN,,,,,,false,,,,777129,777129,,777129,,777137,8,400,,,
break_continue,html.Screen,4_158_2,2023-05-02T18:04:07.276Z,,0,,,NaN,,,,,,false,,,,777130,777129,,777129,,777137,8,400,,,
sequence,flow.Sequence,4_158,2023-05-02T18:04:07.276Z,,0,,,3339,completion,,,,,false,,,,777130,777129,773785,773783,773790,777137,8,400,,,
trial,html.Screen,4_159_0,2023-05-02T18:04:10.588Z,,0,4,,3310,response,ISIC_0067318.JPG,,ISIC_0057997.JPG,ISIC_0067318.JPG,false,1,keypress(m),500,780442,780441,777131,777130,777137,780451,8,400,10,,ISIC_0057997.JPG
break,html.Screen,4_159_1,2023-05-02T18:04:10.589Z,,0,,,NaN,,,,,,false,,,,780442,780442,,780442,,780451,8,400,,,
break_continue,html.Screen,4_159_2,2023-05-02T18:04:10.589Z,,0,,,NaN,,,,,,false,,,,780443,780443,,780442,,780451,8,400,,,
sequence,flow.Sequence,4_159,2023-05-02T18:04:10.589Z,,0,,,3306,completion,,,,,false,,,,780443,780443,777131,777130,777137,780451,8,400,,,
