sender,sender_type,sender_id,timestamp,meta,,blockNo,condition,duration,ended_on,img_left,img_reveal,img_right,loser,practice,response,response_action,selection_duration,time_commit,time_end,time_render,time_run,time_show,time_switch,total_blocks,total_trials,trialNo,url,winner
informed_consent,html.Screen,0,2023-11-02T00:51:19.513Z,"{""labjs_version"":""20.2.4"",""labjs_build"":{""flavor"":""production"",""commit"":""f5b4a49f956347addd546a832a3327688c2c0fef""},""location"":""https://run.pavlovia.org/MurrayBennett/melanoma-2afc/?participant=66788&platform=sona"",""userAgent"":""Mozilla/5.0 (Macintosh; Intel Mac OS X 10_15_7) AppleWebKit/537.36 (KHTML, like Gecko) Chrome/118.0.0.0 Safari/537.36"",""platform"":""MacIntel"",""language"":""en-US"",""locale"":""en-US"",""timeZone"":""America/Chicago"",""timezoneOffset"":300,""screen_width"":1440,""screen_height"":900,""scroll_width"":1426,""scroll_height"":669,""window_innerWidth"":1426,""window_innerHeight"":717,""devicePixelRatio"":2}",,,,2734.349999976158,response,,,,,,consent,click button,,8853.599999964237,8833.899999976158,6082.895,6067.099999964237,6099.55,8880.935,,,,"{""participant"":""66788"",""platform"":""sona""}",
Welcome,html.Screen,1,2023-11-02T00:51:25.220Z,,,,uniform,5665.864999952317,response,,,,,,continue,click button,,14560.799999952316,14546.799999952316,8847.625,8853.799999952316,8880.935,14577.325,,,,,
trial,html.Screen,2_0_0,2023-11-02T00:51:31.559Z,,0,0,,6323.2749999642365,response,ISIC_0025593.JPG,,ISIC_0063388.JPG,ISIC_0025593.JPG,true,1,keypress(m),500,20900.899999976158,20900.599999964237,14560.67,14561,14577.325,20906.643,1,6,1,,ISIC_0063388.JPG
sequence,flow.Sequence,2_0,2023-11-02T00:51:31.560Z,,0,,,6323.2749999642365,completion,,,,,true,,,,20901.299999952316,20900.599999964237,14560.67,14561,14577.325,20906.643,1,6,,,
trial,html.Screen,2_1_0,2023-11-02T00:51:35.954Z,,0,0,,4387.857,response,ISIC_1309015.JPG,,ISIC_0028178.JPG,ISIC_0028178.JPG,true,0,keypress(z),500,25295.799999952316,25294.5,20889.988,20901.399999976158,20906.643,25303.563,1,6,2,,ISIC_1309015.JPG
sequence,flow.Sequence,2_1,2023-11-02T00:51:35.954Z,,0,,,4387.857,completion,,,,,true,,,,25296.099999964237,25294.5,20889.988,20901.299999952316,20906.643,25303.563,1,6,,,
trial,html.Screen,2_2_0,2023-11-02T00:51:39.899Z,,0,0,,3937.736999952318,response,ISIC_0031128.JPG,,ISIC_3314853.JPG,ISIC_0031128.JPG,true,1,keypress(m),500,29241.399999976158,29241.299999952316,25286.908,25296.19999998808,25303.563,29250.798,1,6,3,,ISIC_3314853.JPG
sequence,flow.Sequence,2_2,2023-11-02T00:51:39.900Z,,0,,,3937.736999952318,completion,,,,,true,,,,29241.599999964237,29241.299999952316,25286.908,25296.19999998808,25303.563,29250.798,1,6,,,
trial,html.Screen,2_3_0,2023-11-02T00:51:43.024Z,,0,0,,3115.202000000001,response,ISIC_0031612.JPG,,ISIC_8980141.JPG,ISIC_0031612.JPG,true,1,keypress(m),500,32366.399999976158,32366,29234.143,29241.69999998808,29250.798,32382.327,1,6,4,,ISIC_8980141.JPG
sequence,flow.Sequence,2_3,2023-11-02T00:51:43.025Z,,0,,,3115.202000000001,completion,,,,,true,,,,32367,32366,29234.143,29241.69999998808,29250.798,32382.327,1,6,,,
trial,html.Screen,2_4_0,2023-11-02T00:51:47.002Z,,0,0,,3961.872999988078,response,ISIC_1197737.JPG,,ISIC_9721604.JPG,ISIC_1197737.JPG,true,1,keypress(m),500,36344.39999997616,36344.19999998808,32365.672,32367.299999952316,32382.327,36346.217,1,6,5,,ISIC_9721604.JPG
sequence,flow.Sequence,2_4,2023-11-02T00:51:47.002Z,,0,,,3961.872999988078,completion,,,,,true,,,,36344.69999998808,36344.19999998808,32365.672,32367.299999952316,32382.327,36346.217,1,6,,,
trial,html.Screen,2_5_0,2023-11-02T00:51:50.076Z,,0,0,,3072.482999988082,response,ISIC_0025346.JPG,,ISIC_0010681.JPG,ISIC_0025346.JPG,true,1,keypress(m),500,39418.799999952316,39418.69999998808,36329.562,36344.89999997616,36346.217,39427.392,1,6,6,,ISIC_0010681.JPG
sequence,flow.Sequence,2_5,2023-11-02T00:51:50.077Z,,0,,,3072.482999988082,completion,,,,,true,,,,39419.09999996424,39418.69999998808,36329.562,36344.89999997616,36346.217,39427.392,1,6,,,
loop,flow.Loop,2,2023-11-02T00:51:50.077Z,,,,,24841.37499998808,completion,,,,,true,,,,39419.19999998808,39418.69999998808,14560.67,14560.899999976158,14577.325,39427.392,1,6,,,
exp_instructions,html.Screen,3,2023-11-02T00:51:58.910Z,,,,,8821.007999976158,response,,,,,,continue,keypress(Space),,48253.19999998808,48248.39999997616,39410.737,39419.299999952316,39427.392,48254.962,,,,,
trial,html.Screen,4_0_0,2023-11-02T00:52:02.130Z,,0,1,,3217.4379999761586,response,ISIC_0011437.JPG,5,ISIC_0013972.JPG,ISIC_0013972.JPG,false,0,keypress(z),500,51472.89999997616,51472.39999997616,48238.307,48253.299999952316,48254.962,51486.032,8,400,1,,ISIC_0011437.JPG
break,html.Screen,4_0_1,2023-11-02T00:52:02.132Z,,0,,,NaN,,,,,,false,,,,51474.89999997616,51474.39999997616,,51473.19999998808,,51486.032,8,400,,,
break_continue,html.Screen,4_0_2,2023-11-02T00:52:02.133Z,,0,,,NaN,,,,,,false,,,,51475.89999997616,51475.69999998808,,51475.299999952316,,51486.032,8,400,,,
sequence,flow.Sequence,4_0,2023-11-02T00:52:02.133Z,,0,,,3220.7379999880795,completion,,,,,false,,,,51476.299999952316,51475.69999998808,48238.307,48253.299999952316,48254.962,51486.032,8,400,,,
trial,html.Screen,4_1_0,2023-11-02T00:52:06.847Z,,0,1,,4704.567999964238,response,ISIC_4890201.JPG,7,ISIC_0028969.JPG,ISIC_4890201.JPG,false,1,keypress(m),500,56190.799999952316,56190.59999996424,51469.377,51476.5,51486.032,56199.773,8,400,2,,ISIC_0028969.JPG
break,html.Screen,4_1_1,2023-11-02T00:52:06.848Z,,0,,,NaN,,,,,,false,,,,56191.299999952316,56191.09999996424,,56190.799999952316,,56199.773,8,400,,,
break_continue,html.Screen,4_1_2,2023-11-02T00:52:06.848Z,,0,,,NaN,,,,,,false,,,,56191.5,56191.5,,56191.39999997616,,56199.773,8,400,,,
sequence,flow.Sequence,4_1,2023-11-02T00:52:06.848Z,,0,,,4705.468000000001,completion,,,,,false,,,,56191.59999996424,56191.5,51469.377,51476.39999997616,51486.032,56199.773,8,400,,,
trial,html.Screen,4_2_0,2023-11-02T00:52:10.466Z,,0,1,,3609.226999999999,response,ISIC_8618835.JPG,5,ISIC_0062869.JPG,ISIC_8618835.JPG,false,1,keypress(m),500,59809.19999998808,59809,56183.118,56191.69999998808,56199.773,59813.908,8,400,3,,ISIC_0062869.JPG
break,html.Screen,4_2_1,2023-11-02T00:52:10.467Z,,0,,,NaN,,,,,,false,,,,59810.09999996424,59809.89999997616,,59809.5,,59813.908,8,400,,,
break_continue,html.Screen,4_2_2,2023-11-02T00:52:10.467Z,,0,,,NaN,,,,,,false,,,,59810.59999996424,59810.39999997616,,59810.299999952316,,59813.908,8,400,,,
sequence,flow.Sequence,4_2,2023-11-02T00:52:10.467Z,,0,,,3610.626999976157,completion,,,,,false,,,,59810.69999998808,59810.39999997616,56183.118,56191.69999998808,56199.773,59813.908,8,400,,,
trial,html.Screen,4_3_0,2023-11-02T00:52:14.572Z,,0,1,,4101.491999976155,response,ISIC_0066637.JPG,5,ISIC_0072335.JPG,ISIC_0066637.JPG,false,1,keypress(m),500,63915.59999996424,63915.39999997616,59797.253,59810.799999952316,59813.908,63928.123,8,400,4,,ISIC_0072335.JPG
break,html.Screen,4_3_1,2023-11-02T00:52:14.573Z,,0,,,NaN,,,,,,false,,,,63916.299999952316,63916.09999996424,,63915.799999952316,,63928.123,8,400,,,
break_continue,html.Screen,4_3_2,2023-11-02T00:52:14.573Z,,0,,,NaN,,,,,,false,,,,63916.69999998808,63916.59999996424,,63916.39999997616,,63928.123,8,400,,,
sequence,flow.Sequence,4_3,2023-11-02T00:52:14.573Z,,0,,,4102.691999964234,completion,,,,,false,,,,63916.799999952316,63916.59999996424,59797.253,59810.799999952316,59813.908,63928.123,8,400,,,
trial,html.Screen,4_4_0,2023-11-02T00:52:18.672Z,,0,1,,4086.9769999642376,response,ISIC_0034256.JPG,6,ISIC_0178370.JPG,ISIC_0178370.JPG,false,0,keypress(z),500,68015.5,68015.09999996424,63911.468,63917.799999952316,63928.123,68025.253,8,400,5,,ISIC_0034256.JPG
break,html.Screen,4_4_1,2023-11-02T00:52:18.673Z,,0,,,NaN,,,,,,false,,,,68016.69999998808,68016.5,,68015.89999997616,,68025.253,8,400,,,
break_continue,html.Screen,4_4_2,2023-11-02T00:52:18.673Z,,0,,,NaN,,,,,,false,,,,68017.39999997616,68017.29999995232,,68017,,68025.253,8,400,,,
sequence,flow.Sequence,4_4,2023-11-02T00:52:18.674Z,,0,,,4089.1769999523167,completion,,,,,false,,,,68017.69999998808,68017.29999995232,63911.468,63917.69999998808,63928.123,68025.253,8,400,,,
trial,html.Screen,4_5_0,2023-11-02T00:52:22.232Z,,0,1,,3550.146999976161,response,ISIC_0064936.JPG,6,ISIC_0057656.JPG,ISIC_0057656.JPG,false,0,keypress(z),500,71575.59999996424,71575.39999997616,68008.598,68017.89999997616,68025.253,71589.423,8,400,6,,ISIC_0064936.JPG
break,html.Screen,4_5_1,2023-11-02T00:52:22.232Z,,0,,,NaN,,,,,,false,,,,71576.5,71576.19999998808,,71575.79999995232,,71589.423,8,400,,,
break_continue,html.Screen,4_5_2,2023-11-02T00:52:22.233Z,,0,,,NaN,,,,,,false,,,,71576.89999997616,71576.69999998808,,71576.59999996424,,71589.423,8,400,,,
sequence,flow.Sequence,4_5,2023-11-02T00:52:22.233Z,,0,,,3551.446999988082,completion,,,,,false,,,,71577,71576.69999998808,68008.598,68017.89999997616,68025.253,71589.423,8,400,,,
trial,html.Screen,4_6_0,2023-11-02T00:52:25.585Z,,0,1,,3339.176999964242,response,ISIC_0024459.JPG,6,ISIC_3833013.JPG,ISIC_0024459.JPG,false,1,keypress(m),500,74928.89999997616,74928.59999996424,71572.768,71577.09999996424,71589.423,74937.466,8,400,7,,ISIC_3833013.JPG
break,html.Screen,4_6_1,2023-11-02T00:52:25.586Z,,0,,,NaN,,,,,,false,,,,74930.19999998808,74929.79999995232,,74929.19999998808,,74937.466,8,400,,,
break_continue,html.Screen,4_6_2,2023-11-02T00:52:25.587Z,,0,,,NaN,,,,,,false,,,,74930.89999997616,74930.59999996424,,74930.39999997616,,74937.466,8,400,,,
sequence,flow.Sequence,4_6,2023-11-02T00:52:25.587Z,,0,,,3341.176999964242,completion,,,,,false,,,,74931.09999996424,74930.59999996424,71572.768,71577.09999996424,71589.423,74937.466,8,400,,,
trial,html.Screen,4_7_0,2023-11-02T00:52:28.774Z,,0,1,,3180.7339999880787,response,ISIC_0024779.JPG,6,ISIC_8530010.JPG,ISIC_8530010.JPG,false,0,keypress(z),500,78118.29999995232,78118.19999998808,74920.811,74931.29999995232,74937.466,78135.226,8,400,8,,ISIC_0024779.JPG
break,html.Screen,4_7_1,2023-11-02T00:52:28.774Z,,0,,,NaN,,,,,,false,,,,78118.79999995232,78118.59999996424,,78118.5,,78135.226,8,400,,,
break_continue,html.Screen,4_7_2,2023-11-02T00:52:28.775Z,,0,,,NaN,,,,,,false,,,,78119,78119,,78119,,78135.226,8,400,,,
sequence,flow.Sequence,4_7,2023-11-02T00:52:28.775Z,,0,,,3181.5339999999997,completion,,,,,false,,,,78119.19999998808,78119,74920.811,74931.29999995232,74937.466,78135.226,8,400,,,
trial,html.Screen,4_8_0,2023-11-02T00:52:32.124Z,,0,1,,3332.573999952321,response,ISIC_0032112.JPG,6,ISIC_1008321.JPG,ISIC_1008321.JPG,false,0,keypress(z),500,81468.29999995232,81467.79999995232,78118.571,78119.19999998808,78135.226,81482.881,8,400,9,,ISIC_0032112.JPG
break,html.Screen,4_8_1,2023-11-02T00:52:32.125Z,,0,,,NaN,,,,,,false,,,,81469.5,81469.19999998808,,81468.5,,81482.881,8,400,,,
break_continue,html.Screen,4_8_2,2023-11-02T00:52:32.125Z,,0,,,NaN,,,,,,false,,,,81470,81469.89999997616,,81469.79999995232,,81482.881,8,400,,,
sequence,flow.Sequence,4_8,2023-11-02T00:52:32.126Z,,0,,,3334.673999976163,completion,,,,,false,,,,81470.29999995232,81469.89999997616,78118.571,78119.19999998808,78135.226,81482.881,8,400,,,
trial,html.Screen,4_9_0,2023-11-02T00:52:36.244Z,,0,1,,4105.619000000006,response,ISIC_0060586.JPG,7,ISIC_0296109.JPG,ISIC_0060586.JPG,false,1,keypress(m),500,85588.79999995232,85588.5,81466.226,81470.5,81482.881,85597.048,8,400,10,,ISIC_0296109.JPG
break,html.Screen,4_9_1,2023-11-02T00:52:36.245Z,,0,,,NaN,,,,,,false,,,,85590,85589.69999998808,,85589.09999996424,,85597.048,8,400,,,
break_continue,html.Screen,4_9_2,2023-11-02T00:52:36.246Z,,0,,,NaN,,,,,,false,,,,85590.69999998808,85590.5,,85590.19999998808,,85597.048,8,400,,,
sequence,flow.Sequence,4_9,2023-11-02T00:52:36.246Z,,0,,,4107.619000000006,completion,,,,,false,,,,85590.89999997616,85590.5,81466.226,81470.39999997616,81482.881,85597.048,8,400,,,
trial,html.Screen,4_10_0,2023-11-02T00:52:39.721Z,,0,1,,3468.551999964242,response,ISIC_0004140.JPG,6,ISIC_0014290.JPG,ISIC_0004140.JPG,false,1,keypress(m),500,89066.09999996424,89065.59999996424,85580.393,85591,85597.048,89077.943,8,400,11,,ISIC_0014290.JPG
break,html.Screen,4_10_1,2023-11-02T00:52:39.722Z,,0,,,NaN,,,,,,false,,,,89067.29999995232,89067.09999996424,,89066.29999995232,,89077.943,8,400,,,
break_continue,html.Screen,4_10_2,2023-11-02T00:52:39.723Z,,0,,,NaN,,,,,,false,,,,89067.89999997616,89067.69999998808,,89067.39999997616,,89077.943,8,400,,,
sequence,flow.Sequence,4_10,2023-11-02T00:52:39.723Z,,0,,,3470.651999988084,completion,,,,,false,,,,89068.09999996424,89067.69999998808,85580.393,85591,85597.048,89077.943,8,400,,,
trial,html.Screen,4_11_0,2023-11-02T00:52:43.349Z,,0,1,,3615.856999952317,response,ISIC_0013473.JPG,6,ISIC_6640686.JPG,ISIC_0013473.JPG,false,1,keypress(m),500,92694.19999998808,92693.79999995232,89061.288,89068.19999998808,89077.943,92708.733,8,400,12,,ISIC_6640686.JPG
break,html.Screen,4_11_1,2023-11-02T00:52:43.350Z,,0,,,NaN,,,,,,false,,,,92695.5,92695.19999998808,,92694.5,,92708.733,8,400,,,
break_continue,html.Screen,4_11_2,2023-11-02T00:52:43.351Z,,0,,,NaN,,,,,,false,,,,92696.09999996424,92695.89999997616,,92695.69999998808,,92708.733,8,400,,,
sequence,flow.Sequence,4_11,2023-11-02T00:52:43.351Z,,0,,,3617.956999976159,completion,,,,,false,,,,92696.29999995232,92695.89999997616,89061.288,89068.19999998808,89077.943,92708.733,8,400,,,
trial,html.Screen,4_12_0,2023-11-02T00:52:46.636Z,,0,1,,3271.966999988086,response,ISIC_9307584.JPG,8,ISIC_0013558.JPG,ISIC_9307584.JPG,false,1,keypress(m),500,95981.09999996424,95980.69999998808,92692.078,92696.39999997616,92708.733,95990.145,8,400,13,,ISIC_0013558.JPG
break,html.Screen,4_12_1,2023-11-02T00:52:46.637Z,,0,,,NaN,,,,,,false,,,,95982.29999995232,95982,,95981.39999997616,,95990.145,8,400,,,
break_continue,html.Screen,4_12_2,2023-11-02T00:52:46.638Z,,0,,,NaN,,,,,,false,,,,95983.09999996424,95982.89999997616,,95982.39999997616,,95990.145,8,400,,,
sequence,flow.Sequence,4_12,2023-11-02T00:52:46.638Z,,0,,,3274.1669999761652,completion,,,,,false,,,,95983.39999997616,95982.89999997616,92692.078,92696.29999995232,92708.733,95990.145,8,400,,,
trial,html.Screen,4_13_0,2023-11-02T00:52:50.550Z,,0,1,,3905.454999964233,response,ISIC_0066262.JPG,8,ISIC_0013577.JPG,ISIC_0066262.JPG,false,1,keypress(m),500,99896,99895.59999996424,95973.49,95983.59999996424,95990.145,99904.07,8,400,14,,ISIC_0013577.JPG
break,html.Screen,4_13_1,2023-11-02T00:52:50.552Z,,0,,,NaN,,,,,,false,,,,99897.29999995232,99897.09999996424,,99896.29999995232,,99904.07,8,400,,,
break_continue,html.Screen,4_13_2,2023-11-02T00:52:50.553Z,,0,,,NaN,,,,,,false,,,,99898.09999996424,99897.89999997616,,99897.5,,99904.07,8,400,,,
sequence,flow.Sequence,4_13,2023-11-02T00:52:50.553Z,,0,,,3907.754999976154,completion,,,,,false,,,,99898.29999995232,99897.89999997616,95973.49,95983.5,95990.145,99904.07,8,400,,,
trial,html.Screen,4_14_0,2023-11-02T00:52:54.078Z,,0,1,,3519.2299999523093,response,ISIC_7242312.JPG,7,ISIC_0028319.JPG,ISIC_7242312.JPG,false,1,keypress(m),500,103423.79999995232,103423.29999995232,99887.415,99898.5,99904.07,103434.93,8,400,15,,ISIC_0028319.JPG
break,html.Screen,4_14_1,2023-11-02T00:52:54.079Z,,0,,,NaN,,,,,,false,,,,103425,103424.69999998808,,103424.09999996424,,103434.93,8,400,,,
break_continue,html.Screen,4_14_2,2023-11-02T00:52:54.080Z,,0,,,NaN,,,,,,false,,,,103425.59999996424,103425.5,,103425.19999998808,,103434.93,8,400,,,
sequence,flow.Sequence,4_14,2023-11-02T00:52:54.080Z,,0,,,3521.429999999993,completion,,,,,false,,,,103425.89999997616,103425.5,99887.415,99898.39999997616,99904.07,103434.93,8,400,,,
trial,html.Screen,4_15_0,2023-11-02T00:52:58.195Z,,0,1,,4105.769999988086,response,ISIC_0011219.JPG,6,ISIC_1663144.JPG,ISIC_0011219.JPG,false,1,keypress(m),500,107541,107540.69999998808,103418.275,103426,103434.93,107549.107,8,400,16,,ISIC_1663144.JPG
break,html.Screen,4_15_1,2023-11-02T00:52:58.196Z,,0,,,NaN,,,,,,false,,,,107542.29999995232,107542.09999996424,,107541.39999997616,,107549.107,8,400,,,
break_continue,html.Screen,4_15_2,2023-11-02T00:52:58.197Z,,0,,,NaN,,,,,,false,,,,107543,107542.79999995232,,107542.59999996424,,107549.107,8,400,,,
sequence,flow.Sequence,4_15,2023-11-02T00:52:58.197Z,,0,,,4107.869999952323,completion,,,,,false,,,,107543.19999998808,107542.79999995232,103418.275,103425.89999997616,103434.93,107549.107,8,400,,,
trial,html.Screen,4_16_0,2023-11-02T00:53:01.915Z,,0,1,,3711.8929999999964,response,ISIC_0068413.JPG,6,ISIC_2681497.JPG,ISIC_0068413.JPG,false,1,keypress(m),500,111261.19999998808,111261,107532.452,107543.39999997616,107549.107,111279.827,8,400,17,,ISIC_2681497.JPG
break,html.Screen,4_16_1,2023-11-02T00:53:01.916Z,,0,,,NaN,,,,,,false,,,,111262.29999995232,111262.09999996424,,111261.5,,111279.827,8,400,,,
break_continue,html.Screen,4_16_2,2023-11-02T00:53:01.917Z,,0,,,NaN,,,,,,false,,,,111263.09999996424,111262.79999995232,,111262.5,,111279.827,8,400,,,
sequence,flow.Sequence,4_16,2023-11-02T00:53:01.917Z,,0,,,3713.6929999523127,completion,,,,,false,,,,111263.29999995232,111262.79999995232,107532.452,107543.29999995232,107549.107,111279.827,8,400,,,
trial,html.Screen,4_17_0,2023-11-02T00:53:05.042Z,,0,1,,3108.172999999995,response,ISIC_3844404.JPG,8,ISIC_3481133.JPG,ISIC_3481133.JPG,false,0,keypress(z),500,114388.29999995232,114388,111263.172,111263.39999997616,111279.827,114394.312,8,400,18,,ISIC_3844404.JPG
break,html.Screen,4_17_1,2023-11-02T00:53:05.043Z,,0,,,NaN,,,,,,false,,,,114389.69999998808,114389.29999995232,,114388.69999998808,,114394.312,8,400,,,
break_continue,html.Screen,4_17_2,2023-11-02T00:53:05.044Z,,0,,,NaN,,,,,,false,,,,114390.19999998808,114390.09999996424,,114389.79999995232,,114394.312,8,400,,,
sequence,flow.Sequence,4_17,2023-11-02T00:53:05.044Z,,0,,,3110.2729999642324,completion,,,,,false,,,,114390.5,114390.09999996424,111263.172,111263.39999997616,111279.827,114394.312,8,400,,,
trial,html.Screen,4_18_0,2023-11-02T00:53:08.328Z,,0,1,,3279.8879999880737,response,ISIC_0068015.JPG,4,ISIC_0058594.JPG,ISIC_0058594.JPG,false,0,keypress(z),500,117674.39999997616,117674.19999998808,114377.657,114390.69999998808,114394.312,117692.413,8,400,19,,ISIC_0068015.JPG
break,html.Screen,4_18_1,2023-11-02T00:53:08.330Z,,0,,,NaN,,,,,,false,,,,117675.89999997616,117675.59999996424,,117674.79999995232,,117692.413,8,400,,,
break_continue,html.Screen,4_18_2,2023-11-02T00:53:08.330Z,,0,,,NaN,,,,,,false,,,,117676.39999997616,117676.39999997616,,117676.09999996424,,117692.413,8,400,,,
sequence,flow.Sequence,4_18,2023-11-02T00:53:08.330Z,,0,,,3282.087999976153,completion,,,,,false,,,,117676.59999996424,117676.39999997616,114377.657,114390.59999996424,114394.312,117692.413,8,400,,,
trial,html.Screen,4_19_0,2023-11-02T00:53:12.780Z,,0,1,,4433.986999976158,response,ISIC_0028859.JPG,6,ISIC_0001057.JPG,ISIC_0001057.JPG,false,0,keypress(z),500,122126.79999995232,122126.39999997616,117675.758,117676.79999995232,117692.413,122155.953,8,400,20,,ISIC_0028859.JPG
break,html.Screen,4_19_1,2023-11-02T00:53:12.781Z,,0,,,NaN,,,,,,false,,,,122128.09999996424,122127.69999998808,,122127.09999996424,,122155.953,8,400,,,
break_continue,html.Screen,4_19_2,2023-11-02T00:53:12.782Z,,0,,,NaN,,,,,,false,,,,122128.69999998808,122128.39999997616,,122128.19999998808,,122155.953,8,400,,,
sequence,flow.Sequence,4_19,2023-11-02T00:53:12.782Z,,0,,,4435.986999976158,completion,,,,,false,,,,122128.89999997616,122128.39999997616,117675.758,117676.79999995232,117692.413,122155.953,8,400,,,
trial,html.Screen,4_20_0,2023-11-02T00:53:15.860Z,,0,1,,3050.246999988085,response,ISIC_0053686.JPG,7,ISIC_3787504.JPG,ISIC_0053686.JPG,false,1,keypress(m),500,125206.59999996424,125206.19999998808,122122.643,122129.09999996424,122155.953,125220.473,8,400,21,,ISIC_3787504.JPG
break,html.Screen,4_20_1,2023-11-02T00:53:15.861Z,,0,,,NaN,,,,,,false,,,,125207.89999997616,125207.59999996424,,125207,,125220.473,8,400,,,
break_continue,html.Screen,4_20_2,2023-11-02T00:53:15.862Z,,0,,,NaN,,,,,,false,,,,125209.19999998808,125208.5,,125208.09999996424,,125220.473,8,400,,,
sequence,flow.Sequence,4_20,2023-11-02T00:53:15.863Z,,0,,,3052.547000000006,completion,,,,,false,,,,125209.5,125208.5,122122.643,122129.09999996424,122155.953,125220.473,8,400,,,
trial,html.Screen,4_21_0,2023-11-02T00:53:18.956Z,,0,1,,3082.527000000002,response,ISIC_6255113.JPG,8,ISIC_5101111.JPG,ISIC_6255113.JPG,false,1,keypress(m),500,128303.39999997616,128303,125203.818,125209.69999998808,125220.473,128318.7,8,400,22,,ISIC_5101111.JPG
break,html.Screen,4_21_1,2023-11-02T00:53:18.958Z,,0,,,NaN,,,,,,false,,,,128304.79999995232,128304.5,,128303.79999995232,,128318.7,8,400,,,
break_continue,html.Screen,4_21_2,2023-11-02T00:53:18.958Z,,0,,,NaN,,,,,,false,,,,128305.29999995232,128305.09999996424,,128304.89999997616,,128318.7,8,400,,,
sequence,flow.Sequence,4_21,2023-11-02T00:53:18.959Z,,0,,,3084.626999964239,completion,,,,,false,,,,128305.5,128305.09999996424,125203.818,125209.59999996424,125220.473,128318.7,8,400,,,
trial,html.Screen,4_22_0,2023-11-02T00:53:22.578Z,,0,1,,3605.89999996424,response,ISIC_0029970.JPG,8,ISIC_6771810.JPG,ISIC_0029970.JPG,false,1,keypress(m),500,131925,131924.59999996424,128302.045,128305.79999995232,128318.7,131932.835,8,400,23,,ISIC_6771810.JPG
break,html.Screen,4_22_1,2023-11-02T00:53:22.579Z,,0,,,NaN,,,,,,false,,,,131926.19999998808,131925.89999997616,,131925.29999995232,,131932.835,8,400,,,
break_continue,html.Screen,4_22_2,2023-11-02T00:53:22.580Z,,0,,,NaN,,,,,,false,,,,131926.79999995232,131926.59999996424,,131926.39999997616,,131932.835,8,400,,,
sequence,flow.Sequence,4_22,2023-11-02T00:53:22.580Z,,0,,,3607.89999996424,completion,,,,,false,,,,131927,131926.59999996424,128302.045,128305.79999995232,128318.7,131932.835,8,400,,,
trial,html.Screen,4_23_0,2023-11-02T00:53:25.863Z,,0,1,,3276.9649999523244,response,ISIC_0030003.JPG,6,ISIC_1961064.JPG,ISIC_1961064.JPG,false,0,keypress(z),500,135210.19999998808,135209.79999995232,131916.18,131927.09999996424,131932.835,135230.525,8,400,24,,ISIC_0030003.JPG
break,html.Screen,4_23_1,2023-11-02T00:53:25.864Z,,0,,,NaN,,,,,,false,,,,135211.59999996424,135211.19999998808,,135210.5,,135230.525,8,400,,,
break_continue,html.Screen,4_23_2,2023-11-02T00:53:25.865Z,,0,,,NaN,,,,,,false,,,,135212.09999996424,135212,,135211.79999995232,,135230.525,8,400,,,
sequence,flow.Sequence,4_23,2023-11-02T00:53:25.865Z,,0,,,3279.165000000008,completion,,,,,false,,,,135212.19999998808,135212,131916.18,131927.09999996424,131932.835,135230.525,8,400,,,
trial,html.Screen,4_24_0,2023-11-02T00:53:29.262Z,,0,1,,3377.975000000006,response,ISIC_7642591.JPG,5,ISIC_0296109.JPG,ISIC_0296109.JPG,false,0,keypress(z),500,138609,138608.5,135213.87,135212.29999995232,135230.525,138611.866,8,400,25,,ISIC_7642591.JPG
break,html.Screen,4_24_1,2023-11-02T00:53:29.263Z,,0,,,NaN,,,,,,false,,,,138610.5,138610.19999998808,,138609.69999998808,,138611.866,8,400,,,
break_continue,html.Screen,4_24_2,2023-11-02T00:53:29.264Z,,0,,,NaN,,,,,,false,,,,138611.09999996424,138610.89999997616,,138610.79999995232,,138611.866,8,400,,,
sequence,flow.Sequence,4_24,2023-11-02T00:53:29.264Z,,0,,,3380.374999976164,completion,,,,,false,,,,138611.29999995232,138610.89999997616,135213.87,135212.29999995232,135230.525,138611.866,8,400,,,
trial,html.Screen,4_25_0,2023-11-02T00:53:32.468Z,,0,1,,3203.233999964228,response,ISIC_5323725.JPG,7,ISIC_2507845.JPG,ISIC_5323725.JPG,false,1,keypress(m),500,141815.39999997616,141815.09999996424,138595.211,138611.5,138611.866,141842.936,8,400,26,,ISIC_2507845.JPG
break,html.Screen,4_25_1,2023-11-02T00:53:32.469Z,,0,,,NaN,,,,,,false,,,,141816.39999997616,141816.09999996424,,141815.69999998808,,141842.936,8,400,,,
break_continue,html.Screen,4_25_2,2023-11-02T00:53:32.469Z,,0,,,NaN,,,,,,false,,,,141817,141816.79999995232,,141816.69999998808,,141842.936,8,400,,,
sequence,flow.Sequence,4_25,2023-11-02T00:53:32.470Z,,0,,,3204.933999952307,completion,,,,,false,,,,141817.19999998808,141816.79999995232,138595.211,138611.5,138611.866,141842.936,8,400,,,
trial,html.Screen,4_26_0,2023-11-02T00:53:35.848Z,,0,1,,3353.064000000013,response,ISIC_0009893.JPG,6,ISIC_0015938.JPG,ISIC_0015938.JPG,false,0,keypress(z),500,145196.19999998808,145196,141826.281,141817.29999995232,141842.936,145223.901,8,400,27,,ISIC_0009893.JPG
break,html.Screen,4_26_1,2023-11-02T00:53:35.849Z,,0,,,NaN,,,,,,false,,,,145197.19999998808,145196.89999997616,,145196.5,,145223.901,8,400,,,
break_continue,html.Screen,4_26_2,2023-11-02T00:53:35.850Z,,0,,,NaN,,,,,,false,,,,145197.69999998808,145197.59999996424,,145197.39999997616,,145223.901,8,400,,,
sequence,flow.Sequence,4_26,2023-11-02T00:53:35.850Z,,0,,,3354.6639999642503,completion,,,,,false,,,,145197.89999997616,145197.59999996424,141826.281,141817.29999995232,141842.936,145223.901,8,400,,,
trial,html.Screen,4_27_0,2023-11-02T00:53:38.813Z,,0,1,,2936.8989999523037,response,ISIC_2489146.JPG,8,ISIC_0033428.JPG,ISIC_0033428.JPG,false,0,keypress(z),500,148161.09999996424,148160.79999995232,145207.246,145198.09999996424,145223.901,148172.22,8,400,28,,ISIC_2489146.JPG
break,html.Screen,4_27_1,2023-11-02T00:53:38.814Z,,0,,,NaN,,,,,,false,,,,148162.19999998808,148162,,148161.29999995232,,148172.22,8,400,,,
break_continue,html.Screen,4_27_2,2023-11-02T00:53:38.815Z,,0,,,NaN,,,,,,false,,,,148162.79999995232,148162.59999996424,,148162.5,,148172.22,8,400,,,
sequence,flow.Sequence,4_27,2023-11-02T00:53:38.815Z,,0,,,2938.6989999642246,completion,,,,,false,,,,148163.09999996424,148162.59999996424,145207.246,145198,145223.901,148172.22,8,400,,,
trial,html.Screen,4_28_0,2023-11-02T00:53:42.116Z,,0,1,,3291.479999988078,response,ISIC_0064798.JPG,7,ISIC_0766328.JPG,ISIC_0064798.JPG,false,1,keypress(m),500,151464,151463.69999998808,148155.565,148163.19999998808,148172.22,151469.91,8,400,29,,ISIC_0766328.JPG
break,html.Screen,4_28_1,2023-11-02T00:53:42.117Z,,0,,,NaN,,,,,,false,,,,151465.19999998808,151464.79999995232,,151464.29999995232,,151469.91,8,400,,,
break_continue,html.Screen,4_28_2,2023-11-02T00:53:42.118Z,,0,,,NaN,,,,,,false,,,,151465.79999995232,151465.69999998808,,151465.39999997616,,151469.91,8,400,,,
sequence,flow.Sequence,4_28,2023-11-02T00:53:42.118Z,,0,,,3293.479999988078,completion,,,,,false,,,,151466,151465.69999998808,148155.565,148163.09999996424,148172.22,151469.91,8,400,,,
trial,html.Screen,4_29_0,2023-11-02T00:53:45.166Z,,0,1,,3044.2899999880756,response,ISIC_0072030.JPG,8,ISIC_0069093.JPG,ISIC_0072030.JPG,false,1,keypress(m),500,154514.5,154514.19999998808,151453.255,151466.29999995232,151469.91,154517.775,8,400,30,,ISIC_0069093.JPG
break,html.Screen,4_29_1,2023-11-02T00:53:45.167Z,,0,,,NaN,,,,,,false,,,,154515.69999998808,154515.5,,154514.89999997616,,154517.775,8,400,,,
break_continue,html.Screen,4_29_2,2023-11-02T00:53:45.168Z,,0,,,NaN,,,,,,false,,,,154516.09999996424,154516,,154515.89999997616,,154517.775,8,400,,,
sequence,flow.Sequence,4_29,2023-11-02T00:53:45.168Z,,0,,,3046.0899999999965,completion,,,,,false,,,,154516.29999995232,154516,151453.255,151466.19999998808,151469.91,154517.775,8,400,,,
trial,html.Screen,4_30_0,2023-11-02T00:53:48.358Z,,0,1,,3188.324999964243,response,ISIC_0027235.JPG,7,ISIC_7499769.JPG,ISIC_0027235.JPG,false,1,keypress(m),500,157706.5,157706.09999996424,154501.12,154516.39999997616,154517.775,157715.947,8,400,31,,ISIC_7499769.JPG
break,html.Screen,4_30_1,2023-11-02T00:53:48.359Z,,0,,,NaN,,,,,,false,,,,157707.59999996424,157707.39999997616,,157706.79999995232,,157715.947,8,400,,,
break_continue,html.Screen,4_30_2,2023-11-02T00:53:48.360Z,,0,,,NaN,,,,,,false,,,,157708.19999998808,157708.09999996424,,157707.79999995232,,157715.947,8,400,,,
sequence,flow.Sequence,4_30,2023-11-02T00:53:48.360Z,,0,,,3190.324999964243,completion,,,,,false,,,,157708.5,157708.09999996424,154501.12,154516.29999995232,154517.775,157715.947,8,400,,,
trial,html.Screen,4_31_0,2023-11-02T00:53:51.522Z,,0,1,,3154.4529999761726,response,ISIC_0032094.JPG,7,ISIC_0418738.JPG,ISIC_0032094.JPG,false,1,keypress(m),500,160870.69999998808,160870.39999997616,157699.292,157708.69999998808,157715.947,160880.397,8,400,32,,ISIC_0418738.JPG
break,html.Screen,4_31_1,2023-11-02T00:53:51.524Z,,0,,,NaN,,,,,,false,,,,160872.09999996424,160871.79999995232,,160871.09999996424,,160880.397,8,400,,,
break_continue,html.Screen,4_31_2,2023-11-02T00:53:51.524Z,,0,,,NaN,,,,,,false,,,,160872.59999996424,160872.5,,160872.29999995232,,160880.397,8,400,,,
sequence,flow.Sequence,4_31,2023-11-02T00:53:51.524Z,,0,,,3156.5530000000144,completion,,,,,false,,,,160872.89999997616,160872.5,157699.292,157708.59999996424,157715.947,160880.397,8,400,,,
trial,html.Screen,4_32_0,2023-11-02T00:53:55.353Z,,0,1,,3821.402999952319,response,ISIC_0072335.JPG,5,ISIC_8071637.JPG,ISIC_0072335.JPG,false,1,keypress(m),500,164702.19999998808,164701.79999995232,160863.742,160873,160880.397,164711.047,8,400,33,,ISIC_8071637.JPG
break,html.Screen,4_32_1,2023-11-02T00:53:55.356Z,,0,,,NaN,,,,,,false,,,,164704.5,164703.39999997616,,164702.5,,164711.047,8,400,,,
break_continue,html.Screen,4_32_2,2023-11-02T00:53:55.357Z,,0,,,NaN,,,,,,false,,,,164705.59999996424,164705.39999997616,,164705,,164711.047,8,400,,,
sequence,flow.Sequence,4_32,2023-11-02T00:53:55.357Z,,0,,,3825.002999976161,completion,,,,,false,,,,164706.09999996424,164705.39999997616,160863.742,160873,160880.397,164711.047,8,400,,,
trial,html.Screen,4_33_0,2023-11-02T00:53:58.179Z,,0,1,,2816.6529999880877,response,ISIC_0029574.JPG,6,ISIC_0059264.JPG,ISIC_0029574.JPG,false,1,keypress(m),500,167528.39999997616,167527.69999998808,164694.392,164706.29999995232,164711.047,167559.438,8,400,34,,ISIC_0059264.JPG
break,html.Screen,4_33_1,2023-11-02T00:53:58.181Z,,0,,,NaN,,,,,,false,,,,167529.59999996424,167529.29999995232,,167528.69999998808,,167559.438,8,400,,,
break_continue,html.Screen,4_33_2,2023-11-02T00:53:58.181Z,,0,,,NaN,,,,,,false,,,,167530.09999996424,167530,,167529.69999998808,,167559.438,8,400,,,
sequence,flow.Sequence,4_33,2023-11-02T00:53:58.181Z,,0,,,2818.9530000000086,completion,,,,,false,,,,167530.39999997616,167530,164694.392,164706.19999998808,164711.047,167559.438,8,400,,,
trial,html.Screen,4_34_0,2023-11-02T00:54:01.722Z,,0,1,,3511.3619999523216,response,ISIC_0046449.JPG,7,ISIC_8794567.JPG,ISIC_0046449.JPG,false,1,keypress(m),500,171071.09999996424,171070.79999995232,167542.783,167530.5,167559.438,171073.643,8,400,35,,ISIC_8794567.JPG
break,html.Screen,4_34_1,2023-11-02T00:54:01.723Z,,0,,,NaN,,,,,,false,,,,171071.89999997616,171071.69999998808,,171071.19999998808,,171073.643,8,400,,,
break_continue,html.Screen,4_34_2,2023-11-02T00:54:01.723Z,,0,,,NaN,,,,,,false,,,,171072.29999995232,171072.19999998808,,171072,,171073.643,8,400,,,
sequence,flow.Sequence,4_34,2023-11-02T00:54:01.723Z,,0,,,3512.7619999880844,completion,,,,,false,,,,171072.5,171072.19999998808,167542.783,167530.5,167559.438,171073.643,8,400,,,
trial,html.Screen,4_35_0,2023-11-02T00:54:04.863Z,,0,1,,3138.556999988068,response,ISIC_0013845.JPG,9,ISIC_5312710.JPG,ISIC_0013845.JPG,false,1,keypress(m),500,174212.69999998808,174212.19999998808,171056.988,171072.59999996424,171073.643,174221.438,8,400,36,,ISIC_5312710.JPG
break,html.Screen,4_35_1,2023-11-02T00:54:04.865Z,,0,,,NaN,,,,,,false,,,,174214.29999995232,174213.59999996424,,174213,,174221.438,8,400,,,
break_continue,html.Screen,4_35_2,2023-11-02T00:54:04.866Z,,0,,,NaN,,,,,,false,,,,174215.19999998808,174215,,174214.59999996424,,174221.438,8,400,,,
sequence,flow.Sequence,4_35,2023-11-02T00:54:04.866Z,,0,,,3141.356999999989,completion,,,,,false,,,,174215.5,174215,171056.988,171072.59999996424,171073.643,174221.438,8,400,,,
trial,html.Screen,4_36_0,2023-11-02T00:54:07.941Z,,0,1,,3068.3619999523216,response,ISIC_4120174.JPG,5,ISIC_0998962.JPG,ISIC_4120174.JPG,false,1,keypress(m),500,177290.19999998808,177289.79999995232,174204.783,174215.59999996424,174221.438,177302.613,8,400,37,,ISIC_0998962.JPG
break,html.Screen,4_36_1,2023-11-02T00:54:07.942Z,,0,,,NaN,,,,,,false,,,,177291.19999998808,177291,,177290.39999997616,,177302.613,8,400,,,
break_continue,html.Screen,4_36_2,2023-11-02T00:54:07.942Z,,0,,,NaN,,,,,,false,,,,177291.89999997616,177291.69999998808,,177291.39999997616,,177302.613,8,400,,,
sequence,flow.Sequence,4_36,2023-11-02T00:54:07.943Z,,0,,,3070.2619999880844,completion,,,,,false,,,,177292,177291.69999998808,174204.783,174215.59999996424,174221.438,177302.613,8,400,,,
trial,html.Screen,4_37_0,2023-11-02T00:54:11.530Z,,0,1,,3576.586999988067,response,ISIC_0073043.JPG,6,ISIC_2885086.JPG,ISIC_0073043.JPG,false,1,keypress(m),500,180879.5,180879.19999998808,177285.958,177292.19999998808,177302.613,180883.815,8,400,38,,ISIC_2885086.JPG
break,html.Screen,4_37_1,2023-11-02T00:54:11.531Z,,0,,,NaN,,,,,,false,,,,180880.79999995232,180880.5,,180879.79999995232,,180883.815,8,400,,,
break_continue,html.Screen,4_37_2,2023-11-02T00:54:11.532Z,,0,,,NaN,,,,,,false,,,,180881.39999997616,180881.09999996424,,180881,,180883.815,8,400,,,
sequence,flow.Sequence,4_37,2023-11-02T00:54:11.532Z,,0,,,3578.486999964225,completion,,,,,false,,,,180881.5,180881.09999996424,177285.958,177292.09999996424,177302.613,180883.815,8,400,,,
trial,html.Screen,4_38_0,2023-11-02T00:54:14.496Z,,0,1,,2961.084999976156,response,ISIC_5909403.JPG,6,ISIC_0063151.JPG,ISIC_0063151.JPG,false,0,keypress(z),500,183845.39999997616,183844.89999997616,180867.16,180881.79999995232,180883.815,183848.405,8,400,39,,ISIC_5909403.JPG
break,html.Screen,4_38_1,2023-11-02T00:54:14.498Z,,0,,,NaN,,,,,,false,,,,183847.19999998808,183846.89999997616,,183846.29999995232,,183848.405,8,400,,,
break_continue,html.Screen,4_38_2,2023-11-02T00:54:14.498Z,,0,,,NaN,,,,,,false,,,,183847.89999997616,183847.59999996424,,183847.39999997616,,183848.405,8,400,,,
sequence,flow.Sequence,4_38,2023-11-02T00:54:14.498Z,,0,,,2963.784999964235,completion,,,,,false,,,,183848,183847.59999996424,180867.16,180881.59999996424,180883.815,183848.405,8,400,,,
trial,html.Screen,4_39_0,2023-11-02T00:54:17.316Z,,0,1,,2817.595000000001,response,ISIC_0010734.JPG,9,ISIC_0032190.JPG,ISIC_0010734.JPG,false,1,keypress(m),500,186666.19999998808,186666,183831.75,183848.19999998808,183848.405,186679.755,8,400,40,,ISIC_0032190.JPG
break,html.Screen,4_39_1,2023-11-02T00:54:17.317Z,,0,,,NaN,,,,,,false,,,,186666.89999997616,186666.79999995232,,186666.39999997616,,186679.755,8,400,,,
break_continue,html.Screen,4_39_2,2023-11-02T00:54:17.317Z,,0,,,NaN,,,,,,false,,,,186667.19999998808,186667.09999996424,,186667,,186679.755,8,400,,,
sequence,flow.Sequence,4_39,2023-11-02T00:54:17.318Z,,0,,,2818.6949999642384,completion,,,,,false,,,,186667.29999995232,186667.09999996424,183831.75,183848.19999998808,183848.405,186679.755,8,400,,,
trial,html.Screen,4_40_0,2023-11-02T00:54:20.791Z,,0,1,,3461.2449999999953,response,ISIC_0030657.JPG,6,ISIC_0024232.JPG,ISIC_0030657.JPG,false,1,keypress(m),500,190141.19999998808,190141,186663.1,186667.5,186679.755,190161.031,8,400,41,,ISIC_0024232.JPG
break,html.Screen,4_40_1,2023-11-02T00:54:20.792Z,,0,,,NaN,,,,,,false,,,,190141.79999995232,190141.69999998808,,190141.29999995232,,190161.031,8,400,,,
break_continue,html.Screen,4_40_2,2023-11-02T00:54:20.792Z,,0,,,NaN,,,,,,false,,,,190142.09999996424,190142.09999996424,,190142,,190161.031,8,400,,,
sequence,flow.Sequence,4_40,2023-11-02T00:54:20.792Z,,0,,,3462.3449999642326,completion,,,,,false,,,,190142.29999995232,190142.09999996424,186663.1,186667.5,186679.755,190161.031,8,400,,,
trial,html.Screen,4_41_0,2023-11-02T00:54:24.258Z,,0,1,,3446.969000000012,response,ISIC_0057762.JPG,5,ISIC_0012065.JPG,ISIC_0012065.JPG,false,0,keypress(z),500,193608.19999998808,193608,190144.376,190142.29999995232,190161.031,193625.271,8,400,42,,ISIC_0057762.JPG
break,html.Screen,4_41_1,2023-11-02T00:54:24.259Z,,0,,,NaN,,,,,,false,,,,193608.89999997616,193608.79999995232,,193608.39999997616,,193625.271,8,400,,,
break_continue,html.Screen,4_41_2,2023-11-02T00:54:24.259Z,,0,,,NaN,,,,,,false,,,,193609.39999997616,193609.19999998808,,193609,,193625.271,8,400,,,
sequence,flow.Sequence,4_41,2023-11-02T00:54:24.259Z,,0,,,3448.168999988091,completion,,,,,false,,,,193609.5,193609.19999998808,190144.376,190142.29999995232,190161.031,193625.271,8,400,,,
trial,html.Screen,4_42_0,2023-11-02T00:54:27.036Z,,0,1,,2760.928999988071,response,ISIC_8796769.JPG,5,ISIC_6127074.JPG,ISIC_6127074.JPG,false,0,keypress(z),500,196386.39999997616,196386.19999998808,193608.616,193609.59999996424,193625.271,196390.001,8,400,43,,ISIC_8796769.JPG
break,html.Screen,4_42_1,2023-11-02T00:54:27.037Z,,0,,,NaN,,,,,,false,,,,196387.19999998808,196387,,196386.59999996424,,196390.001,8,400,,,
break_continue,html.Screen,4_42_2,2023-11-02T00:54:27.037Z,,0,,,NaN,,,,,,false,,,,196387.59999996424,196387.39999997616,,196387.29999995232,,196390.001,8,400,,,
sequence,flow.Sequence,4_42,2023-11-02T00:54:27.037Z,,0,,,2762.12899997615,completion,,,,,false,,,,196387.69999998808,196387.39999997616,193608.616,193609.5,193625.271,196390.001,8,400,,,
trial,html.Screen,4_43_0,2023-11-02T00:54:30.499Z,,0,1,,3458.898999976169,response,ISIC_0030725.JPG,5,ISIC_0057655.JPG,ISIC_0057655.JPG,false,0,keypress(z),500,199849,199848.89999997616,196373.346,196387.79999995232,196390.001,199854.624,8,400,44,,ISIC_0030725.JPG
break,html.Screen,4_43_1,2023-11-02T00:54:30.499Z,,0,,,NaN,,,,,,false,,,,199849.69999998808,199849.5,,199849.09999996424,,199854.624,8,400,,,
break_continue,html.Screen,4_43_2,2023-11-02T00:54:30.500Z,,0,,,NaN,,,,,,false,,,,199850.19999998808,199850,,199849.89999997616,,199854.624,8,400,,,
sequence,flow.Sequence,4_43,2023-11-02T00:54:30.500Z,,0,,,3459.9990000000107,completion,,,,,false,,,,199850.29999995232,199850,196373.346,196387.79999995232,196390.001,199854.624,8,400,,,
trial,html.Screen,4_44_0,2023-11-02T00:54:33.549Z,,0,1,,3044.5759999880684,response,ISIC_2051278.JPG,5,ISIC_0056228.JPG,ISIC_2051278.JPG,false,1,keypress(m),500,202899.5,202899.19999998808,199837.969,199850.39999997616,199854.624,202902.489,8,400,45,,ISIC_0056228.JPG
break,html.Screen,4_44_1,2023-11-02T00:54:33.550Z,,0,,,NaN,,,,,,false,,,,202900.19999998808,202900.09999996424,,202899.69999998808,,202902.489,8,400,,,
break_continue,html.Screen,4_44_2,2023-11-02T00:54:33.550Z,,0,,,NaN,,,,,,false,,,,202900.59999996424,202900.5,,202900.39999997616,,202902.489,8,400,,,
sequence,flow.Sequence,4_44,2023-11-02T00:54:33.550Z,,0,,,3045.8759999999893,completion,,,,,false,,,,202900.69999998808,202900.5,199837.969,199850.29999995232,199854.624,202902.489,8,400,,,
trial,html.Screen,4_45_0,2023-11-02T00:54:37.700Z,,0,1,,4148.610999964236,response,ISIC_0027030.JPG,5,ISIC_0030235.JPG,ISIC_0027030.JPG,false,1,keypress(m),500,207051.29999995232,207051.09999996424,202885.834,202900.79999995232,202902.489,207066.239,8,400,46,,ISIC_0030235.JPG
break,html.Screen,4_45_1,2023-11-02T00:54:37.701Z,,0,,,NaN,,,,,,false,,,,207051.89999997616,207051.79999995232,,207051.39999997616,,207066.239,8,400,,,
break_continue,html.Screen,4_45_2,2023-11-02T00:54:37.701Z,,0,,,NaN,,,,,,false,,,,207052.19999998808,207052.19999998808,,207052,,207066.239,8,400,,,
sequence,flow.Sequence,4_45,2023-11-02T00:54:37.701Z,,0,,,4149.710999988078,completion,,,,,false,,,,207052.29999995232,207052.19999998808,202885.834,202900.69999998808,202902.489,207066.239,8,400,,,
trial,html.Screen,4_46_0,2023-11-02T00:54:41.480Z,,0,1,,3764.360999964236,response,ISIC_1265382.JPG,5,ISIC_0029570.JPG,ISIC_1265382.JPG,false,1,keypress(m),500,210830.79999995232,210830.59999996424,207049.584,207052.39999997616,207066.239,210847.302,8,400,47,,ISIC_0029570.JPG
break,html.Screen,4_46_1,2023-11-02T00:54:41.481Z,,0,,,NaN,,,,,,false,,,,210831.79999995232,210831.29999995232,,210830.89999997616,,210847.302,8,400,,,
break_continue,html.Screen,4_46_2,2023-11-02T00:54:41.481Z,,0,,,NaN,,,,,,false,,,,210832.29999995232,210832.09999996424,,210832,,210847.302,8,400,,,
sequence,flow.Sequence,4_46,2023-11-02T00:54:41.481Z,,0,,,3765.860999964236,completion,,,,,false,,,,210832.5,210832.09999996424,207049.584,207052.29999995232,207066.239,210847.302,8,400,,,
trial,html.Screen,4_47_0,2023-11-02T00:54:44.510Z,,0,1,,3014.097999976162,response,ISIC_0005494.JPG,7,ISIC_0013626.JPG,ISIC_0013626.JPG,false,0,keypress(z),500,213861.69999998808,213861.39999997616,210830.647,210832.5,210847.302,213878.512,8,400,48,,ISIC_0005494.JPG
break,html.Screen,4_47_1,2023-11-02T00:54:44.511Z,,0,,,NaN,,,,,,false,,,,213862.29999995232,213862.19999998808,,213861.79999995232,,213878.512,8,400,,,
break_continue,html.Screen,4_47_2,2023-11-02T00:54:44.512Z,,0,,,NaN,,,,,,false,,,,213862.69999998808,213862.59999996424,,213862.5,,213878.512,8,400,,,
sequence,flow.Sequence,4_47,2023-11-02T00:54:44.512Z,,0,,,3015.297999964241,completion,,,,,false,,,,213862.79999995232,213862.59999996424,210830.647,210832.5,210847.302,213878.512,8,400,,,
trial,html.Screen,4_48_0,2023-11-02T00:54:47.510Z,,0,1,,2982.2879999523284,response,ISIC_0027248.JPG,9,ISIC_0014527.JPG,ISIC_0027248.JPG,false,1,keypress(m),500,216861,216860.79999995232,213861.857,213863,213878.512,216876.412,8,400,49,,ISIC_0014527.JPG
break,html.Screen,4_48_1,2023-11-02T00:54:47.510Z,,0,,,NaN,,,,,,false,,,,216861.59999996424,216861.5,,216861.19999998808,,216876.412,8,400,,,
break_continue,html.Screen,4_48_2,2023-11-02T00:54:47.511Z,,0,,,NaN,,,,,,false,,,,216862,216861.89999997616,,216861.69999998808,,216876.412,8,400,,,
sequence,flow.Sequence,4_48,2023-11-02T00:54:47.511Z,,0,,,2983.3879999761702,completion,,,,,false,,,,216862,216861.89999997616,213861.857,213863,213878.512,216876.412,8,400,,,
trial,html.Screen,4_49_0,2023-11-02T00:54:50.557Z,,0,1,,3031.787999988068,response,ISIC_0026548.JPG,6,ISIC_0065727.JPG,ISIC_0065727.JPG,false,0,keypress(z),500,219908.29999995232,219908.19999998808,216859.757,216862.19999998808,216876.412,219924.667,8,400,50,,ISIC_0026548.JPG
break,html.Screen,4_49_1,2023-11-02T00:55:00.551Z,,0,,,9993.376000000018,timeout,,,,,false,,,,229902.69999998808,229901.388,219908.012,219908.39999997616,219924.667,229918.043,8,400,,,
break_continue,html.Screen,4_49_2,2023-11-02T00:55:03.174Z,,0,,,2596.856999976153,response,,,,,false,continue,keypress(Space),,232526.5,232514.89999997616,229901.388,229902.79999995232,229918.043,232532.878,8,400,,,
sequence,flow.Sequence,4_49,2023-11-02T00:55:03.175Z,,0,,,15638.487999976147,completion,,,,,false,,,,232526.59999996424,232514.89999997616,216859.757,216862.19999998808,216876.412,232532.878,8,400,,,
trial,html.Screen,4_50_0,2023-11-02T00:55:07.279Z,,0,2,,4098.22199996424,response,ISIC_0058877.JPG,7,ISIC_0055013.JPG,ISIC_0058877.JPG,false,1,keypress(m),500,236631.19999998808,236631.09999996424,232516.223,232526.69999998808,232532.878,236646.663,8,400,1,,ISIC_0055013.JPG
break,html.Screen,4_50_1,2023-11-02T00:55:07.279Z,,0,,,NaN,,,,,,false,,,,236631.79999995232,236631.69999998808,,236631.39999997616,,236646.663,8,400,,,
break_continue,html.Screen,4_50_2,2023-11-02T00:55:07.280Z,,0,,,NaN,,,,,,false,,,,236632.09999996424,236632,,236631.79999995232,,236646.663,8,400,,,
sequence,flow.Sequence,4_50,2023-11-02T00:55:07.280Z,,0,,,4099.122000000003,completion,,,,,false,,,,236632.29999995232,236632,232516.223,232526.59999996424,232532.878,236646.663,8,400,,,
trial,html.Screen,4_51_0,2023-11-02T00:55:10.209Z,,0,2,,2914.8369999999995,response,ISIC_6557194.JPG,6,ISIC_1985569.JPG,ISIC_1985569.JPG,false,0,keypress(z),500,239561.69999998808,239561.5,236630.008,236632.29999995232,236646.663,239578.343,8,400,2,,ISIC_6557194.JPG
break,html.Screen,4_51_1,2023-11-02T00:55:10.210Z,,0,,,NaN,,,,,,false,,,,239562.5,239562.29999995232,,239561.79999995232,,239578.343,8,400,,,
break_continue,html.Screen,4_51_2,2023-11-02T00:55:10.210Z,,0,,,NaN,,,,,,false,,,,239562.89999997616,239562.79999995232,,239562.59999996424,,239578.343,8,400,,,
sequence,flow.Sequence,4_51,2023-11-02T00:55:10.211Z,,0,,,2916.136999952316,completion,,,,,false,,,,239563,239562.79999995232,236630.008,236632.29999995232,236646.663,239578.343,8,400,,,
trial,html.Screen,4_52_0,2023-11-02T00:55:13.076Z,,0,2,,2850.2569999642437,response,ISIC_7822725.JPG,6,ISIC_0025835.JPG,ISIC_7822725.JPG,false,1,keypress(m),500,242428.69999998808,242428.59999996424,239561.688,239563,239578.343,242443.003,8,400,3,,ISIC_0025835.JPG
break,html.Screen,4_52_1,2023-11-02T00:55:13.077Z,,0,,,NaN,,,,,,false,,,,242429.5,242429.29999995232,,242428.79999995232,,242443.003,8,400,,,
break_continue,html.Screen,4_52_2,2023-11-02T00:55:13.077Z,,0,,,NaN,,,,,,false,,,,242429.79999995232,242429.69999998808,,242429.59999996424,,242443.003,8,400,,,
sequence,flow.Sequence,4_52,2023-11-02T00:55:13.077Z,,0,,,2851.3569999880856,completion,,,,,false,,,,242429.89999997616,242429.69999998808,239561.688,239563,239578.343,242443.003,8,400,,,
trial,html.Screen,4_53_0,2023-11-02T00:55:16.221Z,,0,2,,3130.497000000003,response,ISIC_0033099.JPG,7,ISIC_0001139.JPG,ISIC_0033099.JPG,false,1,keypress(m),500,245573.59999996424,245573.5,242426.348,242430,242443.003,245590.798,8,400,4,,ISIC_0001139.JPG
break,html.Screen,4_53_1,2023-11-02T00:55:16.221Z,,0,,,NaN,,,,,,false,,,,245574,245574,,245573.79999995232,,245590.798,8,400,,,
break_continue,html.Screen,4_53_2,2023-11-02T00:55:16.222Z,,0,,,NaN,,,,,,false,,,,245574.29999995232,245574.29999995232,,245574.09999996424,,245590.798,8,400,,,
sequence,flow.Sequence,4_53,2023-11-02T00:55:16.222Z,,0,,,3131.2969999523193,completion,,,,,false,,,,245574.29999995232,245574.29999995232,242426.348,242430,242443.003,245590.798,8,400,,,
trial,html.Screen,4_54_0,2023-11-02T00:55:18.996Z,,0,2,,2758.1019999761484,response,ISIC_0027669.JPG,6,ISIC_3431915.JPG,ISIC_0027669.JPG,false,1,keypress(m),500,248349.09999996424,248348.89999997616,245574.143,245574.39999997616,245590.798,248355.528,8,400,5,,ISIC_3431915.JPG
break,html.Screen,4_54_1,2023-11-02T00:55:18.997Z,,0,,,NaN,,,,,,false,,,,248350.09999996424,248349.79999995232,,248349.39999997616,,248355.528,8,400,,,
break_continue,html.Screen,4_54_2,2023-11-02T00:55:18.997Z,,0,,,NaN,,,,,,false,,,,248350.29999995232,248350.29999995232,,248350.19999998808,,248355.528,8,400,,,
sequence,flow.Sequence,4_54,2023-11-02T00:55:18.998Z,,0,,,2759.5019999523065,completion,,,,,false,,,,248350.5,248350.29999995232,245574.143,245574.39999997616,245590.798,248355.528,8,400,,,
trial,html.Screen,4_55_0,2023-11-02T00:55:21.881Z,,0,2,,2878.071999964246,response,ISIC_0061158.JPG,6,ISIC_0030831.JPG,ISIC_0061158.JPG,false,1,keypress(m),500,251233.79999995232,251233.59999996424,248338.873,248350.59999996424,248355.528,251237.23,8,400,6,,ISIC_0030831.JPG
break,html.Screen,4_55_1,2023-11-02T00:55:21.881Z,,0,,,NaN,,,,,,false,,,,251234.39999997616,251234.29999995232,,251233.89999997616,,251237.23,8,400,,,
break_continue,html.Screen,4_55_2,2023-11-02T00:55:21.882Z,,0,,,NaN,,,,,,false,,,,251234.69999998808,251234.69999998808,,251234.5,,251237.23,8,400,,,
sequence,flow.Sequence,4_55,2023-11-02T00:55:21.882Z,,0,,,2879.171999988088,completion,,,,,false,,,,251234.89999997616,251234.69999998808,248338.873,248350.59999996424,248355.528,251237.23,8,400,,,
trial,html.Screen,4_56_0,2023-11-02T00:55:25.372Z,,0,2,,3487.4699999880686,response,ISIC_0009913.JPG,6,ISIC_0059368.JPG,ISIC_0009913.JPG,false,1,keypress(m),500,254724.89999997616,254724.69999998808,251220.575,251234.89999997616,251237.23,254734.78,8,400,7,,ISIC_0059368.JPG
break,html.Screen,4_56_1,2023-11-02T00:55:25.372Z,,0,,,NaN,,,,,,false,,,,254725.5,254725.29999995232,,254725.09999996424,,254734.78,8,400,,,
break_continue,html.Screen,4_56_2,2023-11-02T00:55:25.373Z,,0,,,NaN,,,,,,false,,,,254725.69999998808,254725.69999998808,,254725.69999998808,,254734.78,8,400,,,
sequence,flow.Sequence,4_56,2023-11-02T00:55:25.373Z,,0,,,3488.4699999880686,completion,,,,,false,,,,254725.89999997616,254725.69999998808,251220.575,251234.89999997616,251237.23,254734.78,8,400,,,
trial,html.Screen,4_57_0,2023-11-02T00:55:30.016Z,,0,2,,4634.019999952317,response,ISIC_1569775.JPG,7,ISIC_0056092.JPG,ISIC_0056092.JPG,false,0,keypress(z),500,259369,259368.79999995232,254718.125,254725.89999997616,254734.78,259381.525,8,400,8,,ISIC_1569775.JPG
break,html.Screen,4_57_1,2023-11-02T00:55:30.016Z,,0,,,NaN,,,,,,false,,,,259369.59999996424,259369.39999997616,,259369.09999996424,,259381.525,8,400,,,
break_continue,html.Screen,4_57_2,2023-11-02T00:55:30.016Z,,0,,,NaN,,,,,,false,,,,259369.89999997616,259369.79999995232,,259369.59999996424,,259381.525,8,400,,,
sequence,flow.Sequence,4_57,2023-11-02T00:55:30.017Z,,0,,,4635.019999952317,completion,,,,,false,,,,259370.89999997616,259369.79999995232,254718.125,254725.89999997616,254734.78,259381.525,8,400,,,
trial,html.Screen,4_58_0,2023-11-02T00:55:34.388Z,,0,2,,4360.475000000006,response,ISIC_4298624.JPG,7,ISIC_3518299.JPG,ISIC_3518299.JPG,false,0,keypress(z),500,263742.09999996424,263742,259364.87,259371,259381.525,263762.167,8,400,9,,ISIC_4298624.JPG
break,html.Screen,4_58_1,2023-11-02T00:55:34.389Z,,0,,,NaN,,,,,,false,,,,263743,263742.59999996424,,263742.1999999881,,263762.167,8,400,,,
break_continue,html.Screen,4_58_2,2023-11-02T00:55:34.390Z,,0,,,NaN,,,,,,false,,,,263743.1999999881,263743.09999996424,,263743,,263762.167,8,400,,,
sequence,flow.Sequence,4_58,2023-11-02T00:55:34.390Z,,0,,,4361.574999964243,completion,,,,,false,,,,263743.2999999523,263743.09999996424,259364.87,259371,259381.525,263762.167,8,400,,,
trial,html.Screen,4_59_0,2023-11-02T00:55:37.594Z,,0,2,,3185.6329999523005,response,ISIC_0026043.JPG,5,ISIC_1131588.JPG,ISIC_1131588.JPG,false,0,keypress(z),500,266947.89999997616,266947.7999999523,263745.512,263743.5,263762.167,266959.927,8,400,10,,ISIC_0026043.JPG
break,html.Screen,4_59_1,2023-11-02T00:55:37.595Z,,0,,,NaN,,,,,,false,,,,266948.5,266948.2999999523,,266948,,266959.927,8,400,,,
break_continue,html.Screen,4_59_2,2023-11-02T00:55:37.595Z,,0,,,NaN,,,,,,false,,,,266948.59999996424,266948.59999996424,,266948.5,,266959.927,8,400,,,
sequence,flow.Sequence,4_59,2023-11-02T00:55:37.595Z,,0,,,3186.4329999642214,completion,,,,,false,,,,266948.6999999881,266948.59999996424,263745.512,263743.39999997616,263762.167,266959.927,8,400,,,
trial,html.Screen,4_60_0,2023-11-02T00:55:40.684Z,,0,2,,3078.272999988054,response,ISIC_8689112.JPG,8,ISIC_0058513.JPG,ISIC_0058513.JPG,false,0,keypress(z),500,270038.39999997616,270038.1999999881,266943.272,266948.7999999523,266959.927,270041.482,8,400,11,,ISIC_8689112.JPG
break,html.Screen,4_60_1,2023-11-02T00:55:40.685Z,,0,,,NaN,,,,,,false,,,,270038.7999999523,270038.6999999881,,270038.5,,270041.482,8,400,,,
break_continue,html.Screen,4_60_2,2023-11-02T00:55:40.685Z,,0,,,NaN,,,,,,false,,,,270038.89999997616,270038.89999997616,,270038.89999997616,,270041.482,8,400,,,
sequence,flow.Sequence,4_60,2023-11-02T00:55:40.685Z,,0,,,3078.972999976133,completion,,,,,false,,,,270039,270038.89999997616,266943.272,266948.7999999523,266959.927,270041.482,8,400,,,
trial,html.Screen,4_61_0,2023-11-02T00:55:44.228Z,,0,2,,3540.91799997614,response,ISIC_0002184.JPG,6,ISIC_0070046.JPG,ISIC_0070046.JPG,false,0,keypress(z),500,273582.5,273582.39999997616,270024.827,270039.1999999881,270041.482,273588.997,8,400,12,,ISIC_0002184.JPG
break,html.Screen,4_61_1,2023-11-02T00:55:44.229Z,,0,,,NaN,,,,,,false,,,,273583,273582.89999997616,,273582.59999996424,,273588.997,8,400,,,
break_continue,html.Screen,4_61_2,2023-11-02T00:55:44.229Z,,0,,,NaN,,,,,,false,,,,273583.39999997616,273583.2999999523,,273583.09999996424,,273588.997,8,400,,,
sequence,flow.Sequence,4_61,2023-11-02T00:55:44.229Z,,0,,,3541.817999952298,completion,,,,,false,,,,273583.5,273583.2999999523,270024.827,270039.1999999881,270041.482,273588.997,8,400,,,
trial,html.Screen,4_62_0,2023-11-02T00:55:47.785Z,,0,2,,3549.003000000026,response,ISIC_3590814.JPG,7,ISIC_9940466.JPG,ISIC_3590814.JPG,false,1,keypress(m),500,277139.1999999881,277138,273572.342,273583.59999996424,273588.997,277153.167,8,400,13,,ISIC_9940466.JPG
break,html.Screen,4_62_1,2023-11-02T00:55:47.786Z,,0,,,NaN,,,,,,false,,,,277140,277139.6999999881,,277139.39999997616,,277153.167,8,400,,,
break_continue,html.Screen,4_62_2,2023-11-02T00:55:47.786Z,,0,,,NaN,,,,,,false,,,,277140.2999999523,277140.1999999881,,277140.09999996424,,277153.167,8,400,,,
sequence,flow.Sequence,4_62,2023-11-02T00:55:47.786Z,,0,,,3551.202999988105,completion,,,,,false,,,,277140.39999997616,277140.1999999881,273572.342,273583.5,273588.997,277153.167,8,400,,,
trial,html.Screen,4_63_0,2023-11-02T00:55:50.946Z,,0,2,,3147.4329999642214,response,ISIC_0025616.JPG,4,ISIC_6255494.JPG,ISIC_0025616.JPG,false,1,keypress(m),500,280300.7999999523,280300.59999996424,277136.512,277140.5,277153.167,280301.347,8,400,14,,ISIC_6255494.JPG
break,html.Screen,4_63_1,2023-11-02T00:55:50.947Z,,0,,,NaN,,,,,,false,,,,280301.39999997616,280301.1999999881,,280300.89999997616,,280301.347,8,400,,,
break_continue,html.Screen,4_63_2,2023-11-02T00:55:50.947Z,,0,,,NaN,,,,,,false,,,,280301.6999999881,280301.59999996424,,280301.5,,280301.347,8,400,,,
sequence,flow.Sequence,4_63,2023-11-02T00:55:50.947Z,,0,,,3148.4329999642214,completion,,,,,false,,,,280301.7999999523,280301.59999996424,277136.512,277140.5,277153.167,280301.347,8,400,,,
trial,html.Screen,4_64_0,2023-11-02T00:55:54.826Z,,0,2,,3879.0529999761493,response,ISIC_6162545.JPG,5,ISIC_2463014.JPG,ISIC_6162545.JPG,false,1,keypress(m),500,284180.59999996424,284180.39999997616,280284.692,280301.89999997616,280301.347,284181.962,8,400,15,,ISIC_2463014.JPG
break,html.Screen,4_64_1,2023-11-02T00:55:54.827Z,,0,,,NaN,,,,,,false,,,,284181.1999999881,284181,,284180.6999999881,,284181.962,8,400,,,
break_continue,html.Screen,4_64_2,2023-11-02T00:55:54.827Z,,0,,,NaN,,,,,,false,,,,284181.5,284181.39999997616,,284181.2999999523,,284181.962,8,400,,,
sequence,flow.Sequence,4_64,2023-11-02T00:55:54.827Z,,0,,,3880.0529999761493,completion,,,,,false,,,,284181.6999999881,284181.39999997616,280284.692,280301.89999997616,280301.347,284181.962,8,400,,,
trial,html.Screen,4_65_0,2023-11-02T00:55:58.173Z,,0,2,,3345.8379999523167,response,ISIC_4780727.JPG,8,ISIC_2372468.JPG,ISIC_4780727.JPG,false,1,keypress(m),500,287528,287527.7999999523,284165.307,284181.7999999523,284181.962,287529.617,8,400,16,,ISIC_2372468.JPG
break,html.Screen,4_65_1,2023-11-02T00:55:58.174Z,,0,,,NaN,,,,,,false,,,,287528.59999996424,287528.39999997616,,287528.09999996424,,287529.617,8,400,,,
break_continue,html.Screen,4_65_2,2023-11-02T00:55:58.174Z,,0,,,NaN,,,,,,false,,,,287528.89999997616,287528.7999999523,,287528.6999999881,,287529.617,8,400,,,
sequence,flow.Sequence,4_65,2023-11-02T00:55:58.174Z,,0,,,3346.8379999523167,completion,,,,,false,,,,287529,287528.7999999523,284165.307,284181.6999999881,284181.962,287529.617,8,400,,,
trial,html.Screen,4_66_0,2023-11-02T00:56:01.287Z,,0,2,,3112.3829999999725,response,ISIC_9529971.JPG,5,ISIC_2231191.JPG,ISIC_9529971.JPG,false,1,keypress(m),500,290642.2999999523,290642,287512.962,287529.09999996424,287529.617,290644.483,8,400,17,,ISIC_2231191.JPG
break,html.Screen,4_66_1,2023-11-02T00:56:01.288Z,,0,,,NaN,,,,,,false,,,,290643,290642.7999999523,,290642.5,,290644.483,8,400,,,
break_continue,html.Screen,4_66_2,2023-11-02T00:56:01.288Z,,0,,,NaN,,,,,,false,,,,290643.1999999881,290643.1999999881,,290643.09999996424,,290644.483,8,400,,,
sequence,flow.Sequence,4_66,2023-11-02T00:56:01.289Z,,0,,,3113.5829999880516,completion,,,,,false,,,,290643.5,290643.1999999881,287512.962,287529.09999996424,287529.617,290644.483,8,400,,,
trial,html.Screen,4_67_0,2023-11-02T00:56:04.142Z,,0,2,,2852.5169999999925,response,ISIC_3072382.JPG,5,ISIC_9876515.JPG,ISIC_9876515.JPG,false,0,keypress(z),500,293497.2999999523,293497,290627.828,290643.5,290644.483,293509.143,8,400,18,,ISIC_3072382.JPG
break,html.Screen,4_67_1,2023-11-02T00:56:04.143Z,,0,,,NaN,,,,,,false,,,,293498,293497.7999999523,,293497.39999997616,,293509.143,8,400,,,
break_continue,html.Screen,4_67_2,2023-11-02T00:56:04.143Z,,0,,,NaN,,,,,,false,,,,293498.59999996424,293498.5,,293498.2999999523,,293509.143,8,400,,,
sequence,flow.Sequence,4_67,2023-11-02T00:56:04.144Z,,0,,,2854.0169999999925,completion,,,,,false,,,,293498.6999999881,293498.5,290627.828,290643.5,290644.483,293509.143,8,400,,,
trial,html.Screen,4_68_0,2023-11-02T00:56:07.845Z,,0,2,,3691.4569999642554,response,ISIC_7799968.JPG,7,ISIC_0010299.JPG,ISIC_0010299.JPG,false,0,keypress(z),500,297200.7999999523,297200.59999996424,293492.488,293498.7999999523,293509.143,297206.553,8,400,19,,ISIC_7799968.JPG
break,html.Screen,4_68_1,2023-11-02T00:56:07.846Z,,0,,,NaN,,,,,,false,,,,297201.39999997616,297201.1999999881,,297200.89999997616,,297206.553,8,400,,,
break_continue,html.Screen,4_68_2,2023-11-02T00:56:07.846Z,,0,,,NaN,,,,,,false,,,,297201.6999999881,297201.59999996424,,297201.5,,297206.553,8,400,,,
sequence,flow.Sequence,4_68,2023-11-02T00:56:07.846Z,,0,,,3692.4569999642554,completion,,,,,false,,,,297201.6999999881,297201.59999996424,293492.488,293498.7999999523,293509.143,297206.553,8,400,,,
trial,html.Screen,4_69_0,2023-11-02T00:56:10.696Z,,0,2,,2844.8469999761437,response,ISIC_0799535.JPG,6,ISIC_0056226.JPG,ISIC_0056226.JPG,false,0,keypress(z),500,300051.59999996424,300051.39999997616,297189.898,297201.7999999523,297206.553,300054.558,8,400,20,,ISIC_0799535.JPG
break,html.Screen,4_69_1,2023-11-02T00:56:10.697Z,,0,,,NaN,,,,,,false,,,,300052.5,300052.39999997616,,300051.6999999881,,300054.558,8,400,,,
break_continue,html.Screen,4_69_2,2023-11-02T00:56:10.697Z,,0,,,NaN,,,,,,false,,,,300052.7999999523,300052.6999999881,,300052.59999996424,,300054.558,8,400,,,
sequence,flow.Sequence,4_69,2023-11-02T00:56:10.697Z,,0,,,2846.1469999880646,completion,,,,,false,,,,300052.89999997616,300052.6999999881,297189.898,297201.7999999523,297206.553,300054.558,8,400,,,
trial,html.Screen,4_70_0,2023-11-02T00:56:13.723Z,,0,2,,3023.64199998806,response,ISIC_4918571.JPG,5,ISIC_2563568.JPG,ISIC_4918571.JPG,false,1,keypress(m),500,303078.39999997616,303078.1999999881,300037.903,300052.89999997616,300054.558,303086.147,8,400,21,,ISIC_2563568.JPG
break,html.Screen,4_70_1,2023-11-02T00:56:13.723Z,,0,,,NaN,,,,,,false,,,,303078.89999997616,303078.7999999523,,303078.5,,303086.147,8,400,,,
break_continue,html.Screen,4_70_2,2023-11-02T00:56:13.724Z,,0,,,NaN,,,,,,false,,,,303079.1999999881,303079.09999996424,,303079,,303086.147,8,400,,,
sequence,flow.Sequence,4_70,2023-11-02T00:56:13.724Z,,0,,,3024.541999964218,completion,,,,,false,,,,303079.2999999523,303079.09999996424,300037.903,300052.89999997616,300054.558,303086.147,8,400,,,
trial,html.Screen,4_71_0,2023-11-02T00:56:16.884Z,,0,2,,3153.152999952319,response,ISIC_6362735.JPG,8,ISIC_0011944.JPG,ISIC_6362735.JPG,false,1,keypress(m),500,306239.5,306239.2999999523,303069.492,303079.39999997616,303086.147,306250.597,8,400,22,,ISIC_0011944.JPG
break,html.Screen,4_71_1,2023-11-02T00:56:16.884Z,,0,,,NaN,,,,,,false,,,,306240.1999999881,306239.89999997616,,306239.6999999881,,306250.597,8,400,,,
break_continue,html.Screen,4_71_2,2023-11-02T00:56:16.885Z,,0,,,NaN,,,,,,false,,,,306240.39999997616,306240.39999997616,,306240.1999999881,,306250.597,8,400,,,
sequence,flow.Sequence,4_71,2023-11-02T00:56:16.885Z,,0,,,3154.252999976161,completion,,,,,false,,,,306240.59999996424,306240.39999997616,303069.492,303079.39999997616,303086.147,306250.597,8,400,,,
trial,html.Screen,4_72_0,2023-11-02T00:56:19.950Z,,0,2,,3054.60299998807,response,ISIC_8535943.JPG,5,ISIC_1383822.JPG,ISIC_8535943.JPG,false,1,keypress(m),500,309305.59999996424,309305.1999999881,306233.942,306240.59999996424,306250.597,309315.117,8,400,23,,ISIC_1383822.JPG
break,html.Screen,4_72_1,2023-11-02T00:56:19.950Z,,0,,,NaN,,,,,,false,,,,309306.39999997616,309305.89999997616,,309305.6999999881,,309315.117,8,400,,,
break_continue,html.Screen,4_72_2,2023-11-02T00:56:19.951Z,,0,,,NaN,,,,,,false,,,,309306.6999999881,309306.59999996424,,309306.5,,309315.117,8,400,,,
sequence,flow.Sequence,4_72,2023-11-02T00:56:19.951Z,,0,,,3056.0029999642284,completion,,,,,false,,,,309306.7999999523,309306.59999996424,306233.942,306240.59999996424,306250.597,309315.117,8,400,,,
trial,html.Screen,4_73_0,2023-11-02T00:56:22.608Z,,0,2,,2648.7829999761307,response,ISIC_5359416.JPG,8,ISIC_0064284.JPG,ISIC_0064284.JPG,false,0,keypress(z),500,311964.09999996424,311963.89999997616,309298.462,309306.89999997616,309315.117,311980.303,8,400,24,,ISIC_5359416.JPG
break,html.Screen,4_73_1,2023-11-02T00:56:22.609Z,,0,,,NaN,,,,,,false,,,,311964.7999999523,311964.6999999881,,311964.2999999523,,311980.303,8,400,,,
break_continue,html.Screen,4_73_2,2023-11-02T00:56:22.610Z,,0,,,NaN,,,,,,false,,,,311965.7999999523,311965.5,,311965.2999999523,,311980.303,8,400,,,
sequence,flow.Sequence,4_73,2023-11-02T00:56:22.610Z,,0,,,2650.3829999999725,completion,,,,,false,,,,311966,311965.5,309298.462,309306.7999999523,309315.117,311980.303,8,400,,,
trial,html.Screen,4_74_0,2023-11-02T00:56:25.365Z,,0,2,,2740.496999952302,response,ISIC_7176034.JPG,7,ISIC_2909153.JPG,ISIC_7176034.JPG,false,1,keypress(m),500,314720.89999997616,314720.7999999523,311963.648,311966.09999996424,311980.303,314728.378,8,400,25,,ISIC_2909153.JPG
break,html.Screen,4_74_1,2023-11-02T00:56:25.365Z,,0,,,NaN,,,,,,false,,,,314721.5,314721.2999999523,,314721,,314728.378,8,400,,,
break_continue,html.Screen,4_74_2,2023-11-02T00:56:25.365Z,,0,,,NaN,,,,,,false,,,,314721.6999999881,314721.59999996424,,314721.5,,314728.378,8,400,,,
sequence,flow.Sequence,4_74,2023-11-02T00:56:25.366Z,,0,,,2741.296999964223,completion,,,,,false,,,,314721.6999999881,314721.59999996424,311963.648,311966.09999996424,311980.303,314728.378,8,400,,,
trial,html.Screen,4_75_0,2023-11-02T00:56:28.759Z,,0,2,,3386.92199995229,response,ISIC_0024652.JPG,5,ISIC_0010653.JPG,ISIC_0024652.JPG,false,1,keypress(m),500,318115.59999996424,318115.2999999523,314711.723,314721.7999999523,314728.378,318125.998,8,400,26,,ISIC_0010653.JPG
break,html.Screen,4_75_1,2023-11-02T00:56:28.760Z,,0,,,NaN,,,,,,false,,,,318116.1999999881,318116,,318115.6999999881,,318125.998,8,400,,,
break_continue,html.Screen,4_75_2,2023-11-02T00:56:28.760Z,,0,,,NaN,,,,,,false,,,,318116.39999997616,318116.2999999523,,318116.2999999523,,318125.998,8,400,,,
sequence,flow.Sequence,4_75,2023-11-02T00:56:28.760Z,,0,,,3387.92199995229,completion,,,,,false,,,,318116.5,318116.2999999523,314711.723,314721.7999999523,314728.378,318125.998,8,400,,,
trial,html.Screen,4_76_0,2023-11-02T00:56:31.836Z,,0,2,,3066.101999964216,response,ISIC_4252285.JPG,5,ISIC_7351007.JPG,ISIC_4252285.JPG,false,1,keypress(m),500,321192.2999999523,321192.09999996424,318109.343,318116.59999996424,318125.998,321207.562,8,400,27,,ISIC_7351007.JPG
break,html.Screen,4_76_1,2023-11-02T00:56:31.836Z,,0,,,NaN,,,,,,false,,,,321192.89999997616,321192.7999999523,,321192.39999997616,,321207.562,8,400,,,
break_continue,html.Screen,4_76_2,2023-11-02T00:56:31.837Z,,0,,,NaN,,,,,,false,,,,321193.1999999881,321193.1999999881,,321193,,321207.562,8,400,,,
sequence,flow.Sequence,4_76,2023-11-02T00:56:31.837Z,,0,,,3067.2019999880577,completion,,,,,false,,,,321193.2999999523,321193.1999999881,318109.343,318116.59999996424,318125.998,321207.562,8,400,,,
trial,html.Screen,4_77_0,2023-11-02T00:56:36.065Z,,0,2,,4213.537999964261,response,ISIC_2605120.JPG,5,ISIC_0033812.JPG,ISIC_2605120.JPG,false,1,keypress(m),500,325421.2999999523,325421.09999996424,321190.907,321193.39999997616,321207.562,325437.932,8,400,28,,ISIC_0033812.JPG
break,html.Screen,4_77_1,2023-11-02T00:56:36.065Z,,0,,,NaN,,,,,,false,,,,325421.89999997616,325421.6999999881,,325421.5,,325437.932,8,400,,,
break_continue,html.Screen,4_77_2,2023-11-02T00:56:36.066Z,,0,,,NaN,,,,,,false,,,,325422.2999999523,325422.09999996424,,325422,,325437.932,8,400,,,
sequence,flow.Sequence,4_77,2023-11-02T00:56:36.066Z,,0,,,4214.537999964261,completion,,,,,false,,,,325422.39999997616,325422.09999996424,321190.907,321193.39999997616,321207.562,325437.932,8,400,,,
trial,html.Screen,4_78_0,2023-11-02T00:56:39.205Z,,0,2,,3123.4679999761865,response,ISIC_2030997.JPG,5,ISIC_0067170.JPG,ISIC_0067170.JPG,false,0,keypress(z),500,328561.5,328561.39999997616,325421.277,325422.5,325437.932,328569.072,8,400,29,,ISIC_2030997.JPG
break,html.Screen,4_78_1,2023-11-02T00:56:39.205Z,,0,,,NaN,,,,,,false,,,,328562.09999996424,328562,,328561.6999999881,,328569.072,8,400,,,
break_continue,html.Screen,4_78_2,2023-11-02T00:56:39.206Z,,0,,,NaN,,,,,,false,,,,328562.39999997616,328562.39999997616,,328562.1999999881,,328569.072,8,400,,,
sequence,flow.Sequence,4_78,2023-11-02T00:56:39.206Z,,0,,,3124.4679999761865,completion,,,,,false,,,,328562.5,328562.39999997616,325421.277,325422.5,325437.932,328569.072,8,400,,,
trial,html.Screen,4_79_0,2023-11-02T00:56:42.491Z,,0,2,,3278.9280000000144,response,ISIC_8786606.JPG,8,ISIC_1102391.JPG,ISIC_8786606.JPG,false,1,keypress(m),500,331848.1999999881,331848,328552.417,328562.5,328569.072,331850.495,8,400,30,,ISIC_1102391.JPG
break,html.Screen,4_79_1,2023-11-02T00:56:42.492Z,,0,,,NaN,,,,,,false,,,,331848.6999999881,331848.59999996424,,331848.2999999523,,331850.495,8,400,,,
break_continue,html.Screen,4_79_2,2023-11-02T00:56:42.492Z,,0,,,NaN,,,,,,false,,,,331849.2999999523,331849,,331848.7999999523,,331850.495,8,400,,,
sequence,flow.Sequence,4_79,2023-11-02T00:56:42.492Z,,0,,,3279.9280000000144,completion,,,,,false,,,,331849.5,331849,328552.417,328562.5,328569.072,331850.495,8,400,,,
trial,html.Screen,4_80_0,2023-11-02T00:56:45.758Z,,0,2,,3264.604999964242,response,ISIC_4723378.JPG,4,ISIC_0011721.JPG,ISIC_4723378.JPG,false,1,keypress(m),500,335115.1999999881,335115.09999996424,331833.84,331849.5,331850.495,335131.53,8,400,31,,ISIC_0011721.JPG
break,html.Screen,4_80_1,2023-11-02T00:56:45.759Z,,0,,,NaN,,,,,,false,,,,335116.5,335116.09999996424,,335115.39999997616,,335131.53,8,400,,,
break_continue,html.Screen,4_80_2,2023-11-02T00:56:45.760Z,,0,,,NaN,,,,,,false,,,,335116.7999999523,335116.6999999881,,335116.5,,335131.53,8,400,,,
sequence,flow.Sequence,4_80,2023-11-02T00:56:45.760Z,,0,,,3266.2049999880837,completion,,,,,false,,,,335116.89999997616,335116.6999999881,331833.84,331849.5,331850.495,335131.53,8,400,,,
trial,html.Screen,4_81_0,2023-11-02T00:56:48.980Z,,0,2,,3205.169999988051,response,ISIC_5568834.JPG,5,ISIC_0062734.JPG,ISIC_5568834.JPG,false,1,keypress(m),500,338337.2999999523,338336.6999999881,335114.875,335116.89999997616,335131.53,338345.945,8,400,32,,ISIC_0062734.JPG
break,html.Screen,4_81_1,2023-11-02T00:56:48.981Z,,0,,,NaN,,,,,,false,,,,338338.5,338338.2999999523,,338337.39999997616,,338345.945,8,400,,,
break_continue,html.Screen,4_81_2,2023-11-02T00:56:48.981Z,,0,,,NaN,,,,,,false,,,,338338.7999999523,338338.6999999881,,338338.59999996424,,338345.945,8,400,,,
sequence,flow.Sequence,4_81,2023-11-02T00:56:48.982Z,,0,,,3207.169999988051,completion,,,,,false,,,,338338.89999997616,338338.6999999881,335114.875,335116.89999997616,335131.53,338345.945,8,400,,,
trial,html.Screen,4_82_0,2023-11-02T00:56:51.752Z,,0,2,,2763.054999999993,response,ISIC_0054341.JPG,5,ISIC_0026909.JPG,ISIC_0054341.JPG,false,1,keypress(m),500,341109.09999996424,341109,338329.29,338338.89999997616,338345.945,341110.675,8,400,33,,ISIC_0026909.JPG
break,html.Screen,4_82_1,2023-11-02T00:56:51.752Z,,0,,,NaN,,,,,,false,,,,341110,341109.59999996424,,341109.2999999523,,341110.675,8,400,,,
break_continue,html.Screen,4_82_2,2023-11-02T00:56:51.753Z,,0,,,NaN,,,,,,false,,,,341110.2999999523,341110.1999999881,,341110.09999996424,,341110.675,8,400,,,
sequence,flow.Sequence,4_82,2023-11-02T00:56:51.753Z,,0,,,2764.254999988072,completion,,,,,false,,,,341110.39999997616,341110.1999999881,338329.29,338338.89999997616,338345.945,341110.675,8,400,,,
trial,html.Screen,4_83_0,2023-11-02T00:56:55.387Z,,0,2,,3633.924999964249,response,ISIC_3952694.JPG,5,ISIC_0010773.JPG,ISIC_3952694.JPG,false,1,keypress(m),500,344744.7999999523,344744.59999996424,341094.02,341110.5,341110.675,344758.498,8,400,34,,ISIC_0010773.JPG
break,html.Screen,4_83_1,2023-11-02T00:56:55.388Z,,0,,,NaN,,,,,,false,,,,344745.1999999881,344745.09999996424,,344744.7999999523,,344758.498,8,400,,,
break_continue,html.Screen,4_83_2,2023-11-02T00:56:55.388Z,,0,,,NaN,,,,,,false,,,,344745.5,344745.39999997616,,344745.2999999523,,344758.498,8,400,,,
sequence,flow.Sequence,4_83,2023-11-02T00:56:55.388Z,,0,,,3634.72499997617,completion,,,,,false,,,,344745.5,344745.39999997616,341094.02,341110.5,341110.675,344758.498,8,400,,,
trial,html.Screen,4_84_0,2023-11-02T00:56:58.574Z,,0,2,,3173.601999964216,response,ISIC_0013936.JPG,20,ISIC_6512653.JPG,ISIC_6512653.JPG,false,0,keypress(z),500,347932.2999999523,347932.09999996424,344741.843,344745.59999996424,344758.498,347939.603,8,400,35,,ISIC_0013936.JPG
break,html.Screen,4_84_1,2023-11-02T00:56:58.575Z,,0,,,NaN,,,,,,false,,,,347932.59999996424,347932.59999996424,,347932.39999997616,,347939.603,8,400,,,
break_continue,html.Screen,4_84_2,2023-11-02T00:56:58.575Z,,0,,,NaN,,,,,,false,,,,347932.7999999523,347932.7999999523,,347932.6999999881,,347939.603,8,400,,,
sequence,flow.Sequence,4_84,2023-11-02T00:56:58.575Z,,0,,,3174.301999952295,completion,,,,,false,,,,347932.89999997616,347932.7999999523,344741.843,344745.59999996424,344758.498,347939.603,8,400,,,
trial,html.Screen,4_85_0,2023-11-02T00:57:01.728Z,,0,2,,3146.6969999523135,response,ISIC_0028878.JPG,5,ISIC_9324486.JPG,ISIC_0028878.JPG,false,1,keypress(m),500,351086.39999997616,351086.2999999523,347922.948,347933,347939.603,351104.053,8,400,36,,ISIC_9324486.JPG
break,html.Screen,4_85_1,2023-11-02T00:57:01.729Z,,0,,,NaN,,,,,,false,,,,351086.89999997616,351086.7999999523,,351086.59999996424,,351104.053,8,400,,,
break_continue,html.Screen,4_85_2,2023-11-02T00:57:01.729Z,,0,,,NaN,,,,,,false,,,,351087,351087,,351087,,351104.053,8,400,,,
sequence,flow.Sequence,4_85,2023-11-02T00:57:01.729Z,,0,,,3147.396999999997,completion,,,,,false,,,,351087.09999996424,351087,347922.948,347933,347939.603,351104.053,8,400,,,
trial,html.Screen,4_86_0,2023-11-02T00:57:05.076Z,,0,2,,3330.046999964223,response,ISIC_4354896.JPG,14,ISIC_5816399.JPG,ISIC_5816399.JPG,false,0,keypress(z),500,354434.1999999881,354434.09999996424,351087.398,351087.1999999881,351104.053,354452.084,8,400,37,,ISIC_4354896.JPG
break,html.Screen,4_86_1,2023-11-02T00:57:05.076Z,,0,,,NaN,,,,,,false,,,,354434.59999996424,354434.5,,354434.2999999523,,354452.084,8,400,,,
break_continue,html.Screen,4_86_2,2023-11-02T00:57:05.077Z,,0,,,NaN,,,,,,false,,,,354434.6999999881,354434.6999999881,,354434.6999999881,,354452.084,8,400,,,
sequence,flow.Sequence,4_86,2023-11-02T00:57:05.077Z,,0,,,3330.6469999880646,completion,,,,,false,,,,354435.1999999881,354434.6999999881,351087.398,351087.1999999881,351104.053,354452.084,8,400,,,
trial,html.Screen,4_87_0,2023-11-02T00:57:08.443Z,,0,2,,3348.8159999761847,response,ISIC_9803747.JPG,5,ISIC_7533983.JPG,ISIC_9803747.JPG,false,1,keypress(m),500,357801.1999999881,357800.89999997616,354435.429,354435.2999999523,354452.084,357816.394,8,400,38,,ISIC_7533983.JPG
break,html.Screen,4_87_1,2023-11-02T00:57:08.443Z,,0,,,NaN,,,,,,false,,,,357801.7999999523,357801.59999996424,,357801.2999999523,,357816.394,8,400,,,
break_continue,html.Screen,4_87_2,2023-11-02T00:57:08.444Z,,0,,,NaN,,,,,,false,,,,357802,357802,,357801.7999999523,,357816.394,8,400,,,
sequence,flow.Sequence,4_87,2023-11-02T00:57:08.444Z,,0,,,3349.9160000000265,completion,,,,,false,,,,357802.2999999523,357802,354435.429,354435.2999999523,354452.084,357816.394,8,400,,,
trial,html.Screen,4_88_0,2023-11-02T00:57:11.853Z,,0,2,,3395.106000000029,response,ISIC_0031589.JPG,4,ISIC_0046921.JPG,ISIC_0031589.JPG,false,1,keypress(m),500,361211.59999996424,361211.5,357799.739,357802.39999997616,357816.394,361214.014,8,400,39,,ISIC_0046921.JPG
break,html.Screen,4_88_1,2023-11-02T00:57:11.854Z,,0,,,NaN,,,,,,false,,,,361212.59999996424,361212.59999996424,,361212.2999999523,,361214.014,8,400,,,
break_continue,html.Screen,4_88_2,2023-11-02T00:57:11.854Z,,0,,,NaN,,,,,,false,,,,361212.89999997616,361212.7999999523,,361212.6999999881,,361214.014,8,400,,,
sequence,flow.Sequence,4_88,2023-11-02T00:57:11.854Z,,0,,,3396.405999952345,completion,,,,,false,,,,361213,361212.7999999523,357799.739,357802.2999999523,357816.394,361214.014,8,400,,,
trial,html.Screen,4_89_0,2023-11-02T00:57:14.693Z,,0,2,,2836.8859999761335,response,ISIC_0015166.JPG,5,ISIC_1008321.JPG,ISIC_1008321.JPG,false,0,keypress(z),500,364051.09999996424,364050.89999997616,361197.359,361213,361214.014,364062.397,8,400,40,,ISIC_0015166.JPG
break,html.Screen,4_89_1,2023-11-02T00:57:14.693Z,,0,,,NaN,,,,,,false,,,,364051.6999999881,364051.59999996424,,364051.1999999881,,364062.397,8,400,,,
break_continue,html.Screen,4_89_2,2023-11-02T00:57:14.693Z,,0,,,NaN,,,,,,false,,,,364052,364051.89999997616,,364051.6999999881,,364062.397,8,400,,,
sequence,flow.Sequence,4_89,2023-11-02T00:57:14.693Z,,0,,,2837.8859999761335,completion,,,,,false,,,,364052.09999996424,364051.89999997616,361197.359,361213,361214.014,364062.397,8,400,,,
trial,html.Screen,4_90_0,2023-11-02T00:57:18.059Z,,0,2,,3354.603000000003,response,ISIC_0025900.JPG,7,ISIC_7489895.JPG,ISIC_0025900.JPG,false,1,keypress(m),500,367417.5,367417,364045.742,364052.09999996424,364062.397,367426.707,8,400,41,,ISIC_7489895.JPG
break,html.Screen,4_90_1,2023-11-02T00:57:18.061Z,,0,,,NaN,,,,,,false,,,,367420.09999996424,367419.59999996424,,367418.1999999881,,367426.707,8,400,,,
break_continue,html.Screen,4_90_2,2023-11-02T00:57:18.063Z,,0,,,NaN,,,,,,false,,,,367421.59999996424,367421.1999999881,,367420.89999997616,,367426.707,8,400,,,
sequence,flow.Sequence,4_90,2023-11-02T00:57:18.063Z,,0,,,3358.802999988082,completion,,,,,false,,,,367421.89999997616,367421.1999999881,364045.742,364052.09999996424,364062.397,367426.707,8,400,,,
trial,html.Screen,4_91_0,2023-11-02T00:57:21.385Z,,0,2,,3316.5929999523214,response,ISIC_2122488.JPG,7,ISIC_7412559.JPG,ISIC_7412559.JPG,false,0,keypress(z),500,370743.59999996424,370743.2999999523,367410.052,367422.59999996424,367426.707,370757.707,8,400,42,,ISIC_2122488.JPG
break,html.Screen,4_91_1,2023-11-02T00:57:21.386Z,,0,,,NaN,,,,,,false,,,,370744.7999999523,370744.5,,370744,,370757.707,8,400,,,
break_continue,html.Screen,4_91_2,2023-11-02T00:57:21.387Z,,0,,,NaN,,,,,,false,,,,370745.39999997616,370745.2999999523,,370745,,370757.707,8,400,,,
sequence,flow.Sequence,4_91,2023-11-02T00:57:21.387Z,,0,,,3318.5929999523214,completion,,,,,false,,,,370745.6999999881,370745.2999999523,367410.052,367422.59999996424,367426.707,370757.707,8,400,,,
trial,html.Screen,4_92_0,2023-11-02T00:57:24.482Z,,0,2,,3083.0929999523214,response,ISIC_0010690.JPG,6,ISIC_0067097.JPG,ISIC_0010690.JPG,false,1,keypress(m),500,373841.2999999523,373840.7999999523,370741.052,370745.89999997616,370757.707,373855.933,8,400,43,,ISIC_0067097.JPG
break,html.Screen,4_92_1,2023-11-02T00:57:24.483Z,,0,,,NaN,,,,,,false,,,,373842.39999997616,373842.09999996424,,373841.5,,373855.933,8,400,,,
break_continue,html.Screen,4_92_2,2023-11-02T00:57:24.484Z,,0,,,NaN,,,,,,false,,,,373843,373842.7999999523,,373842.59999996424,,373855.933,8,400,,,
sequence,flow.Sequence,4_92,2023-11-02T00:57:24.484Z,,0,,,3085.0929999523214,completion,,,,,false,,,,373843.1999999881,373842.7999999523,370741.052,370745.7999999523,370757.707,373855.933,8,400,,,
trial,html.Screen,4_93_0,2023-11-02T00:57:27.942Z,,0,2,,3445.066999999981,response,ISIC_7108282.JPG,7,ISIC_2418276.JPG,ISIC_2418276.JPG,false,0,keypress(z),500,377301.1999999881,377301,373839.278,373843.39999997616,373855.933,377320.173,8,400,44,,ISIC_7108282.JPG
break,html.Screen,4_93_1,2023-11-02T00:57:27.943Z,,0,,,NaN,,,,,,false,,,,377301.89999997616,377301.59999996424,,377301.39999997616,,377320.173,8,400,,,
break_continue,html.Screen,4_93_2,2023-11-02T00:57:27.943Z,,0,,,NaN,,,,,,false,,,,377302.2999999523,377302.09999996424,,377302,,377320.173,8,400,,,
sequence,flow.Sequence,4_93,2023-11-02T00:57:27.943Z,,0,,,3446.166999964218,completion,,,,,false,,,,377302.2999999523,377302.09999996424,373839.278,373843.39999997616,373855.933,377320.173,8,400,,,
trial,html.Screen,4_94_0,2023-11-02T00:57:30.970Z,,0,2,,3009.0269999880693,response,ISIC_9544059.JPG,4,ISIC_7147898.JPG,ISIC_7147898.JPG,false,0,keypress(z),500,380329.39999997616,380329.1999999881,377303.518,377302.5,377320.173,380351.383,8,400,45,,ISIC_9544059.JPG
break,html.Screen,4_94_1,2023-11-02T00:57:30.971Z,,0,,,NaN,,,,,,false,,,,380330,380329.89999997616,,380329.59999996424,,380351.383,8,400,,,
break_continue,html.Screen,4_94_2,2023-11-02T00:57:30.972Z,,0,,,NaN,,,,,,false,,,,380331.2999999523,380331.1999999881,,380330.09999996424,,380351.383,8,400,,,
sequence,flow.Sequence,4_94,2023-11-02T00:57:30.972Z,,0,,,3011.0269999880693,completion,,,,,false,,,,380331.5,380331.1999999881,377303.518,377302.39999997616,377320.173,380351.383,8,400,,,
trial,html.Screen,4_95_0,2023-11-02T00:57:34.227Z,,0,2,,3235.3169999881065,response,ISIC_0011369.JPG,6,ISIC_8325569.JPG,ISIC_0011369.JPG,false,1,keypress(m),500,383587,383586.6999999881,380334.728,380331.59999996424,380351.383,383599.487,8,400,46,,ISIC_8325569.JPG
break,html.Screen,4_95_1,2023-11-02T00:57:34.228Z,,0,,,NaN,,,,,,false,,,,383587.89999997616,383587.59999996424,,383587.1999999881,,383599.487,8,400,,,
break_continue,html.Screen,4_95_2,2023-11-02T00:57:34.229Z,,0,,,NaN,,,,,,false,,,,383588.39999997616,383588.2999999523,,383588,,383599.487,8,400,,,
sequence,flow.Sequence,4_95,2023-11-02T00:57:34.229Z,,0,,,3236.9169999523438,completion,,,,,false,,,,383588.59999996424,383588.2999999523,380334.728,380331.59999996424,380351.383,383599.487,8,400,,,
trial,html.Screen,4_96_0,2023-11-02T00:57:37.289Z,,0,2,,3049.512999999977,response,ISIC_0060154.JPG,6,ISIC_0070860.JPG,ISIC_0070860.JPG,false,0,keypress(z),500,386649.1999999881,386649,383582.832,383588.89999997616,383599.487,386664.007,8,400,47,,ISIC_0060154.JPG
break,html.Screen,4_96_1,2023-11-02T00:57:37.290Z,,0,,,NaN,,,,,,false,,,,386649.89999997616,386649.7999999523,,386649.2999999523,,386664.007,8,400,,,
break_continue,html.Screen,4_96_2,2023-11-02T00:57:37.291Z,,0,,,NaN,,,,,,false,,,,386650.39999997616,386650.2999999523,,386650.09999996424,,386664.007,8,400,,,
sequence,flow.Sequence,4_96,2023-11-02T00:57:37.291Z,,0,,,3050.8129999522935,completion,,,,,false,,,,386650.5,386650.2999999523,383582.832,383588.89999997616,383599.487,386664.007,8,400,,,
trial,html.Screen,4_97_0,2023-11-02T00:57:39.999Z,,0,2,,2694.292999952333,response,ISIC_0010486.JPG,6,ISIC_0000056.JPG,ISIC_0010486.JPG,false,1,keypress(m),500,389358.5,389358.2999999523,386647.352,386650.59999996424,386664.007,389362.117,8,400,48,,ISIC_0000056.JPG
break,html.Screen,4_97_1,2023-11-02T00:57:39.999Z,,0,,,NaN,,,,,,false,,,,389359.2999999523,389359,,389358.6999999881,,389362.117,8,400,,,
break_continue,html.Screen,4_97_2,2023-11-02T00:57:40.000Z,,0,,,NaN,,,,,,false,,,,389359.5,389359.39999997616,,389359.2999999523,,389362.117,8,400,,,
sequence,flow.Sequence,4_97,2023-11-02T00:57:40.000Z,,0,,,2695.392999976175,completion,,,,,false,,,,389359.6999999881,389359.39999997616,386647.352,386650.59999996424,386664.007,389362.117,8,400,,,
trial,html.Screen,4_98_0,2023-11-02T00:57:43.154Z,,0,2,,3151.3829999999725,response,ISIC_0070822.JPG,9,ISIC_8953848.JPG,ISIC_0070822.JPG,false,1,keypress(m),500,392513.7999999523,392513.5,389345.462,389359.89999997616,389362.117,392526.946,8,400,49,,ISIC_8953848.JPG
break,html.Screen,4_98_1,2023-11-02T00:57:43.155Z,,0,,,NaN,,,,,,false,,,,392514.59999996424,392514.2999999523,,392514,,392526.946,8,400,,,
break_continue,html.Screen,4_98_2,2023-11-02T00:57:43.155Z,,0,,,NaN,,,,,,false,,,,392515,392514.7999999523,,392514.6999999881,,392526.946,8,400,,,
sequence,flow.Sequence,4_98,2023-11-02T00:57:43.155Z,,0,,,3152.682999952289,completion,,,,,false,,,,392515.1999999881,392514.7999999523,389345.462,389359.6999999881,389362.117,392526.946,8,400,,,
trial,html.Screen,4_99_0,2023-11-02T00:57:47.070Z,,0,2,,3902.753999988083,response,ISIC_3671963.JPG,5,ISIC_0033560.JPG,ISIC_0033560.JPG,false,0,keypress(z),500,396430.1999999881,396429.6999999881,392510.291,392515.1999999881,392526.946,396440.871,8,400,50,,ISIC_3671963.JPG
break,html.Screen,4_99_1,2023-11-02T00:57:57.059Z,,0,,,9993.37599999999,timeout,,,,,false,,,,406419.1999999881,406417.592,396424.216,396430.2999999523,396440.871,406434.247,8,400,,,
break_continue,html.Screen,4_99_2,2023-11-02T00:59:58.623Z,,0,,,121535.65299997618,response,,,,,false,continue,keypress(Space),,527990.1999999881,527969.8999999762,406417.592,406419.39999997616,406434.247,528020.323,8,400,,,
sequence,flow.Sequence,4_99,2023-11-02T00:59:58.624Z,,0,,,135442.95399997616,completion,,,,,false,,,,527990.2999999523,527969.8999999762,392510.291,392515.1999999881,392526.946,528020.323,8,400,,,
trial,html.Screen,4_100_0,2023-11-02T01:00:02.116Z,,0,3,,3462.177000000025,response,ISIC_0013831.JPG,6,ISIC_2337650.JPG,ISIC_2337650.JPG,false,0,keypress(z),500,531482.7999999523,531482.5,528003.668,527990.3999999762,528020.323,531484.563,8,400,1,,ISIC_0013831.JPG
break,html.Screen,4_100_1,2023-11-02T01:00:02.117Z,,0,,,NaN,,,,,,false,,,,531483.5999999642,531483.3999999762,,531482.8999999762,,531484.563,8,400,,,
break_continue,html.Screen,4_100_2,2023-11-02T01:00:02.117Z,,0,,,NaN,,,,,,false,,,,531484,531483.8999999762,,531483.7999999523,,531484.563,8,400,,,
sequence,flow.Sequence,4_100,2023-11-02T01:00:02.117Z,,0,,,3463.5769999761833,completion,,,,,false,,,,531484.1999999881,531483.8999999762,528003.668,527990.2999999523,528020.323,531484.563,8,400,,,
trial,html.Screen,4_101_0,2023-11-02T01:00:07.242Z,,0,3,,5124.536999964272,response,ISIC_9081663.JPG,5,ISIC_5229861.JPG,ISIC_5229861.JPG,false,0,keypress(z),500,536609.2999999523,536609.0999999642,531467.908,531484.2999999523,531484.563,536614.68,8,400,2,,ISIC_9081663.JPG
break,html.Screen,4_101_1,2023-11-02T01:00:07.243Z,,0,,,NaN,,,,,,false,,,,536610.0999999642,536609.7999999523,,536609.5,,536614.68,8,400,,,
break_continue,html.Screen,4_101_2,2023-11-02T01:00:07.243Z,,0,,,NaN,,,,,,false,,,,536610.2999999523,536610.1999999881,,536610.0999999642,,536614.68,8,400,,,
sequence,flow.Sequence,4_101,2023-11-02T01:00:07.243Z,,0,,,5125.6369999881135,completion,,,,,false,,,,536610.5,536610.1999999881,531467.908,531484.1999999881,531484.563,536614.68,8,400,,,
trial,html.Screen,4_102_0,2023-11-02T01:00:12.238Z,,0,3,,4990.219999976107,response,ISIC_0066783.JPG,5,ISIC_3613012.JPG,ISIC_0066783.JPG,false,1,keypress(m),500,541605.0999999642,541604.8999999762,536598.025,536610.5,536614.68,541611.18,8,400,3,,ISIC_3613012.JPG
break,html.Screen,4_102_1,2023-11-02T01:00:12.238Z,,0,,,NaN,,,,,,false,,,,541605.6999999881,541605.5,,541605.1999999881,,541611.18,8,400,,,
break_continue,html.Screen,4_102_2,2023-11-02T01:00:12.239Z,,0,,,NaN,,,,,,false,,,,541606,541605.8999999762,,541605.7999999523,,541611.18,8,400,,,
sequence,flow.Sequence,4_102,2023-11-02T01:00:12.239Z,,0,,,4991.219999976107,completion,,,,,false,,,,541606.1999999881,541605.8999999762,536598.025,536610.5,536614.68,541611.18,8,400,,,
trial,html.Screen,4_103_0,2023-11-02T01:00:15.767Z,,0,3,,3523.519999988028,response,ISIC_5921777.JPG,6,ISIC_2312766.JPG,ISIC_5921777.JPG,false,1,keypress(m),500,545134.7999999523,545134.6999999881,541594.525,541607,541611.18,545142.44,8,400,4,,ISIC_2312766.JPG
break,html.Screen,4_103_1,2023-11-02T01:00:15.768Z,,0,,,NaN,,,,,,false,,,,545135.5,545135.2999999523,,545135,,545142.44,8,400,,,
break_continue,html.Screen,4_103_2,2023-11-02T01:00:15.768Z,,0,,,NaN,,,,,,false,,,,545135.7999999523,545135.6999999881,,545135.5999999642,,545142.44,8,400,,,
sequence,flow.Sequence,4_103,2023-11-02T01:00:15.768Z,,0,,,3524.519999988028,completion,,,,,false,,,,545135.7999999523,545135.6999999881,541594.525,541606.1999999881,541611.18,545142.44,8,400,,,
trial,html.Screen,4_104_0,2023-11-02T01:00:18.860Z,,0,3,,3085.359999952372,response,ISIC_3453832.JPG,5,ISIC_3170155.JPG,ISIC_3170155.JPG,false,0,keypress(z),500,548227.8999999762,548227.7999999523,545125.785,545135.8999999762,545142.44,548240.27,8,400,5,,ISIC_3453832.JPG
break,html.Screen,4_104_1,2023-11-02T01:00:18.861Z,,0,,,NaN,,,,,,false,,,,548228.5999999642,548228.3999999762,,548228.0999999642,,548240.27,8,400,,,
break_continue,html.Screen,4_104_2,2023-11-02T01:00:18.861Z,,0,,,NaN,,,,,,false,,,,548229,548228.8999999762,,548228.6999999881,,548240.27,8,400,,,
sequence,flow.Sequence,4_104,2023-11-02T01:00:18.861Z,,0,,,3086.459999976214,completion,,,,,false,,,,548229.0999999642,548228.8999999762,545125.785,545135.8999999762,545142.44,548240.27,8,400,,,
trial,html.Screen,4_105_0,2023-11-02T01:00:21.904Z,,0,3,,3030.9299999880604,response,ISIC_0014219.JPG,4,ISIC_0024990.JPG,ISIC_0014219.JPG,false,1,keypress(m),500,551271.3999999762,551271.1999999881,548223.615,548229.1999999881,548240.27,551288.135,8,400,6,,ISIC_0024990.JPG
break,html.Screen,4_105_1,2023-11-02T01:00:21.904Z,,0,,,NaN,,,,,,false,,,,551272.0999999642,551272,,551271.5999999642,,551288.135,8,400,,,
break_continue,html.Screen,4_105_2,2023-11-02T01:00:21.905Z,,0,,,NaN,,,,,,false,,,,551272.5,551272.2999999523,,551272.1999999881,,551288.135,8,400,,,
sequence,flow.Sequence,4_105,2023-11-02T01:00:21.905Z,,0,,,3032.0299999522977,completion,,,,,false,,,,551272.5,551272.2999999523,548223.615,548229.1999999881,548240.27,551288.135,8,400,,,
trial,html.Screen,4_106_0,2023-11-02T01:00:25.444Z,,0,3,,3523.3649999999907,response,ISIC_0027081.JPG,6,ISIC_9612228.JPG,ISIC_9612228.JPG,false,0,keypress(z),500,554811.7999999523,554811.5,551271.48,551272.5999999642,551288.135,554818.995,8,400,7,,ISIC_0027081.JPG
break,html.Screen,4_106_1,2023-11-02T01:00:25.445Z,,0,,,NaN,,,,,,false,,,,554812.6999999881,554812.5,,554812,,554818.995,8,400,,,
break_continue,html.Screen,4_106_2,2023-11-02T01:00:25.445Z,,0,,,NaN,,,,,,false,,,,554813.0999999642,554813,,554812.8999999762,,554818.995,8,400,,,
sequence,flow.Sequence,4_106,2023-11-02T01:00:25.445Z,,0,,,3524.8649999999907,completion,,,,,false,,,,554813.2999999523,554813,551271.48,551272.5999999642,551288.135,554818.995,8,400,,,
trial,html.Screen,4_107_0,2023-11-02T01:00:29.560Z,,0,3,,4108.704999988084,response,ISIC_4956965.JPG,5,ISIC_0014434.JPG,ISIC_0014434.JPG,false,0,keypress(z),500,558928.0999999642,558927.6999999881,554802.34,554813.5,554818.995,558933.162,8,400,8,,ISIC_4956965.JPG
break,html.Screen,4_107_1,2023-11-02T01:00:29.562Z,,0,,,NaN,,,,,,false,,,,558930,558929.6999999881,,558929,,558933.162,8,400,,,
break_continue,html.Screen,4_107_2,2023-11-02T01:00:29.562Z,,0,,,NaN,,,,,,false,,,,558930.6999999881,558930.3999999762,,558930.2999999523,,558933.162,8,400,,,
sequence,flow.Sequence,4_107,2023-11-02T01:00:29.563Z,,0,,,4111.404999976163,completion,,,,,false,,,,558930.8999999762,558930.3999999762,554802.34,554813.2999999523,554818.995,558933.162,8,400,,,
trial,html.Screen,4_108_0,2023-11-02T01:00:33.268Z,,0,3,,3703.237999976147,response,ISIC_1945381.JPG,4,ISIC_7110531.JPG,ISIC_1945381.JPG,false,1,keypress(m),500,562636.7999999523,562636.3999999762,558916.507,558931,558933.162,562647.227,8,400,9,,ISIC_7110531.JPG
break,html.Screen,4_108_1,2023-11-02T01:00:33.270Z,,0,,,NaN,,,,,,false,,,,562638.0999999642,562637.7999999523,,562637.1999999881,,562647.227,8,400,,,
break_continue,html.Screen,4_108_2,2023-11-02T01:00:33.270Z,,0,,,NaN,,,,,,false,,,,562638.5999999642,562638.5,,562638.2999999523,,562647.227,8,400,,,
sequence,flow.Sequence,4_108,2023-11-02T01:00:33.271Z,,0,,,3705.337999999989,completion,,,,,false,,,,562639,562638.5,558916.507,558931,558933.162,562647.227,8,400,,,
trial,html.Screen,4_109_0,2023-11-02T01:00:36.314Z,,0,3,,3034.472999988124,response,ISIC_0011490.JPG,8,ISIC_0031039.JPG,ISIC_0011490.JPG,false,1,keypress(m),500,565682.7999999523,565681.6999999881,562630.572,562639.0999999642,562647.227,565695.481,8,400,10,,ISIC_0031039.JPG
break,html.Screen,4_109_1,2023-11-02T01:00:36.318Z,,0,,,NaN,,,,,,false,,,,565686.3999999762,565686.0999999642,,565685.5999999642,,565695.481,8,400,,,
break_continue,html.Screen,4_109_2,2023-11-02T01:00:36.318Z,,0,,,NaN,,,,,,false,,,,565686.7999999523,565686.6999999881,,565686.5999999642,,565695.481,8,400,,,
sequence,flow.Sequence,4_109,2023-11-02T01:00:36.318Z,,0,,,3039.472999988124,completion,,,,,false,,,,565687.0999999642,565686.6999999881,562630.572,562639.0999999642,562647.227,565695.481,8,400,,,
trial,html.Screen,4_110_0,2023-11-02T01:00:39.538Z,,0,3,,3210.518999999971,response,ISIC_0013141.JPG,8,ISIC_9604922.JPG,ISIC_0013141.JPG,false,1,keypress(m),500,568906.3999999762,568906,565678.826,565687.0999999642,565695.481,568926.551,8,400,11,,ISIC_9604922.JPG
break,html.Screen,4_110_1,2023-11-02T01:00:39.539Z,,0,,,NaN,,,,,,false,,,,568908.0999999642,568907.5,,568906.6999999881,,568926.551,8,400,,,
break_continue,html.Screen,4_110_2,2023-11-02T01:00:39.540Z,,0,,,NaN,,,,,,false,,,,568908.7999999523,568908.5999999642,,568908.2999999523,,568926.551,8,400,,,
sequence,flow.Sequence,4_110,2023-11-02T01:00:39.540Z,,0,,,3213.1189999642083,completion,,,,,false,,,,568909,568908.5999999642,565678.826,565687.0999999642,565695.481,568926.551,8,400,,,
trial,html.Screen,4_111_0,2023-11-02T01:00:42.505Z,,0,3,,2946.7489999523386,response,ISIC_0010614.JPG,5,ISIC_0010140.JPG,ISIC_0010140.JPG,false,0,keypress(z),500,571873.6999999881,571873.2999999523,568909.896,568909.1999999881,568926.551,571891.141,8,400,12,,ISIC_0010614.JPG
break,html.Screen,4_111_1,2023-11-02T01:00:42.506Z,,0,,,NaN,,,,,,false,,,,571875,571874.6999999881,,571874.0999999642,,571891.141,8,400,,,
break_continue,html.Screen,4_111_2,2023-11-02T01:00:42.507Z,,0,,,NaN,,,,,,false,,,,571875.5999999642,571875.3999999762,,571875.1999999881,,571891.141,8,400,,,
sequence,flow.Sequence,4_111,2023-11-02T01:00:42.507Z,,0,,,2948.8489999761805,completion,,,,,false,,,,571876,571875.3999999762,568909.896,568909.0999999642,568926.551,571891.141,8,400,,,
trial,html.Screen,4_112_0,2023-11-02T01:00:45.807Z,,0,3,,3284.458999964292,response,ISIC_7070020.JPG,5,ISIC_9605122.JPG,ISIC_7070020.JPG,false,1,keypress(m),500,575176,575175.5999999642,571874.486,571876.1999999881,571891.141,575188.831,8,400,13,,ISIC_9605122.JPG
break,html.Screen,4_112_1,2023-11-02T01:00:45.808Z,,0,,,NaN,,,,,,false,,,,575177.3999999762,575177,,575176.3999999762,,575188.831,8,400,,,
break_continue,html.Screen,4_112_2,2023-11-02T01:00:45.809Z,,0,,,NaN,,,,,,false,,,,575177.8999999762,575177.6999999881,,575177.5,,575188.831,8,400,,,
sequence,flow.Sequence,4_112,2023-11-02T01:00:45.809Z,,0,,,3286.558999988134,completion,,,,,false,,,,575178.0999999642,575177.6999999881,571874.486,571876.1999999881,571891.141,575188.831,8,400,,,
trial,html.Screen,4_113_0,2023-11-02T01:00:49.270Z,,0,3,,3450.3689999880735,response,ISIC_6828587.JPG,5,ISIC_0061623.JPG,ISIC_0061623.JPG,false,0,keypress(z),500,578639.5,578639.1999999881,575172.176,575178.2999999523,575188.831,578653.447,8,400,14,,ISIC_6828587.JPG
break,html.Screen,4_113_1,2023-11-02T01:00:49.271Z,,0,,,NaN,,,,,,false,,,,578640.6999999881,578640.3999999762,,578639.7999999523,,578653.447,8,400,,,
break_continue,html.Screen,4_113_2,2023-11-02T01:00:49.272Z,,0,,,NaN,,,,,,false,,,,578641.2999999523,578641.0999999642,,578640.8999999762,,578653.447,8,400,,,
sequence,flow.Sequence,4_113,2023-11-02T01:00:49.272Z,,0,,,3452.2689999642316,completion,,,,,false,,,,578641.5,578641.0999999642,575172.176,575178.1999999881,575188.831,578653.447,8,400,,,
trial,html.Screen,4_114_0,2023-11-02T01:00:52.480Z,,0,3,,3195.9529999761144,response,ISIC_0031586.JPG,6,ISIC_0061479.JPG,ISIC_0061479.JPG,false,0,keypress(z),500,581849.6999999881,581849.3999999762,578636.792,578641.6999999881,578653.447,581867.862,8,400,15,,ISIC_0031586.JPG
break,html.Screen,4_114_1,2023-11-02T01:00:52.482Z,,0,,,NaN,,,,,,false,,,,581850.8999999762,581850.6999999881,,581850.0999999642,,581867.862,8,400,,,
break_continue,html.Screen,4_114_2,2023-11-02T01:00:52.482Z,,0,,,NaN,,,,,,false,,,,581851.5,581851.2999999523,,581851.0999999642,,581867.862,8,400,,,
sequence,flow.Sequence,4_114,2023-11-02T01:00:52.482Z,,0,,,3197.8529999522725,completion,,,,,false,,,,581851.6999999881,581851.2999999523,578636.792,578641.5999999642,578653.447,581867.862,8,400,,,
trial,html.Screen,4_115_0,2023-11-02T01:00:55.752Z,,0,3,,3253.6380000000354,response,ISIC_9050826.JPG,6,ISIC_0064279.JPG,ISIC_0064279.JPG,false,0,keypress(z),500,585121.7999999523,585121.5,581851.207,581851.8999999762,581867.862,585148.897,8,400,16,,ISIC_9050826.JPG
break,html.Screen,4_115_1,2023-11-02T01:00:55.753Z,,0,,,NaN,,,,,,false,,,,585123,585122.6999999881,,585122.0999999642,,585148.897,8,400,,,
break_continue,html.Screen,4_115_2,2023-11-02T01:00:55.755Z,,0,,,NaN,,,,,,false,,,,585124.0999999642,585123.5,,585123.1999999881,,585148.897,8,400,,,
sequence,flow.Sequence,4_115,2023-11-02T01:00:55.755Z,,0,,,3255.6380000000354,completion,,,,,false,,,,585124.2999999523,585123.5,581851.207,581851.7999999523,581867.862,585148.897,8,400,,,
trial,html.Screen,4_116_0,2023-11-02T01:00:58.991Z,,0,3,,3211.603000000003,response,ISIC_0011943.JPG,8,ISIC_1169724.JPG,ISIC_0011943.JPG,false,1,keypress(m),500,588360.8999999762,588360.5,585132.242,585124.5999999642,585148.897,588363.716,8,400,17,,ISIC_1169724.JPG
break,html.Screen,4_116_1,2023-11-02T01:00:58.993Z,,0,,,NaN,,,,,,false,,,,588362.2999999523,588361.8999999762,,588361.2999999523,,588363.716,8,400,,,
break_continue,html.Screen,4_116_2,2023-11-02T01:00:58.993Z,,0,,,NaN,,,,,,false,,,,588362.7999999523,588362.6999999881,,588362.3999999762,,588363.716,8,400,,,
sequence,flow.Sequence,4_116,2023-11-02T01:00:58.993Z,,0,,,3213.802999988082,completion,,,,,false,,,,588363,588362.6999999881,585132.242,585124.3999999762,585148.897,588363.716,8,400,,,
trial,html.Screen,4_117_0,2023-11-02T01:01:01.861Z,,0,3,,2866.983999988064,response,ISIC_0009958.JPG,9,ISIC_0010734.JPG,ISIC_0010734.JPG,false,0,keypress(z),500,591231.1999999881,591230.6999999881,588347.061,588363.1999999881,588363.716,591245.031,8,400,18,,ISIC_0009958.JPG
break,html.Screen,4_117_1,2023-11-02T01:01:01.863Z,,0,,,NaN,,,,,,false,,,,591232.7999999523,591232.3999999762,,591231.6999999881,,591245.031,8,400,,,
break_continue,html.Screen,4_117_2,2023-11-02T01:01:01.864Z,,0,,,NaN,,,,,,false,,,,591233.3999999762,591233.1999999881,,591233,,591245.031,8,400,,,
sequence,flow.Sequence,4_117,2023-11-02T01:01:01.864Z,,0,,,2869.483999988064,completion,,,,,false,,,,591233.5999999642,591233.1999999881,588347.061,588363.1999999881,588363.716,591245.031,8,400,,,
trial,html.Screen,4_118_0,2023-11-02T01:01:05.074Z,,0,3,,3198.2689999523573,response,ISIC_0011721.JPG,7,ISIC_7953039.JPG,ISIC_7953039.JPG,false,0,keypress(z),500,594443.7999999523,594443.2999999523,591228.376,591233.7999999523,591245.031,594459.446,8,400,19,,ISIC_0011721.JPG
break,html.Screen,4_118_1,2023-11-02T01:01:05.075Z,,0,,,NaN,,,,,,false,,,,594445.2999999523,594445,,594444.3999999762,,594459.446,8,400,,,
break_continue,html.Screen,4_118_2,2023-11-02T01:01:05.076Z,,0,,,NaN,,,,,,false,,,,594445.8999999762,594445.7999999523,,594445.5,,594459.446,8,400,,,
sequence,flow.Sequence,4_118,2023-11-02T01:01:05.076Z,,0,,,3200.7689999523573,completion,,,,,false,,,,594446.0999999642,594445.7999999523,591228.376,591233.7999999523,591245.031,594459.446,8,400,,,
trial,html.Screen,4_119_0,2023-11-02T01:01:08.139Z,,0,3,,3048.953999976162,response,ISIC_0032970.JPG,9,ISIC_6370748.JPG,ISIC_0032970.JPG,false,1,keypress(m),500,597508.6999999881,597508.3999999762,594442.791,594446.2999999523,594459.446,597524.342,8,400,20,,ISIC_6370748.JPG
break,html.Screen,4_119_1,2023-11-02T01:01:08.140Z,,0,,,NaN,,,,,,false,,,,597510,597509.6999999881,,597509.0999999642,,597524.342,8,400,,,
break_continue,html.Screen,4_119_2,2023-11-02T01:01:08.140Z,,0,,,NaN,,,,,,false,,,,597510.5,597510.3999999762,,597510.0999999642,,597524.342,8,400,,,
sequence,flow.Sequence,4_119,2023-11-02T01:01:08.141Z,,0,,,3050.953999976162,completion,,,,,false,,,,597510.7999999523,597510.3999999762,594442.791,594446.2999999523,594459.446,597524.342,8,400,,,
trial,html.Screen,4_120_0,2023-11-02T01:01:11.904Z,,0,3,,3749.557999976212,response,ISIC_0011779.JPG,5,ISIC_0071901.JPG,ISIC_0011779.JPG,false,1,keypress(m),500,601274.2999999523,601273.8999999762,597507.687,597511,597524.342,601288.372,8,400,21,,ISIC_0071901.JPG
break,html.Screen,4_120_1,2023-11-02T01:01:11.905Z,,0,,,NaN,,,,,,false,,,,601275.5,601275.1999999881,,601274.5999999642,,601288.372,8,400,,,
break_continue,html.Screen,4_120_2,2023-11-02T01:01:11.906Z,,0,,,NaN,,,,,,false,,,,601276.0999999642,601276,,601275.7999999523,,601288.372,8,400,,,
sequence,flow.Sequence,4_120,2023-11-02T01:01:11.906Z,,0,,,3751.658000000054,completion,,,,,false,,,,601276.3999999762,601276,597507.687,597510.8999999762,597524.342,601288.372,8,400,,,
trial,html.Screen,4_121_0,2023-11-02T01:01:15.173Z,,0,3,,3254.9279999523424,response,ISIC_6539127.JPG,9,ISIC_0024792.JPG,ISIC_0024792.JPG,false,0,keypress(z),500,604543.7999999523,604543.2999999523,601271.717,601276.5999999642,601288.372,604552.752,8,400,22,,ISIC_6539127.JPG
break,html.Screen,4_121_1,2023-11-02T01:01:15.174Z,,0,,,NaN,,,,,,false,,,,604545,604544.6999999881,,604544.0999999642,,604552.752,8,400,,,
break_continue,html.Screen,4_121_2,2023-11-02T01:01:15.175Z,,0,,,NaN,,,,,,false,,,,604545.5,604545.2999999523,,604545.0999999642,,604552.752,8,400,,,
sequence,flow.Sequence,4_121,2023-11-02T01:01:15.175Z,,0,,,3256.9279999523424,completion,,,,,false,,,,604545.7999999523,604545.2999999523,601271.717,601276.5999999642,601288.372,604552.752,8,400,,,
trial,html.Screen,4_122_0,2023-11-02T01:01:18.266Z,,0,3,,3083.7480000000214,response,ISIC_0026155.JPG,8,ISIC_0004679.JPG,ISIC_0026155.JPG,false,1,keypress(m),500,607636.7999999523,607636.5,604536.097,604545.8999999762,604552.752,607650.96,8,400,23,,ISIC_0004679.JPG
break,html.Screen,4_122_1,2023-11-02T01:01:18.267Z,,0,,,NaN,,,,,,false,,,,607638.0999999642,607637.6999999881,,607637.0999999642,,607650.96,8,400,,,
break_continue,html.Screen,4_122_2,2023-11-02T01:01:18.268Z,,0,,,NaN,,,,,,false,,,,607638.7999999523,607638.5,,607638.2999999523,,607650.96,8,400,,,
sequence,flow.Sequence,4_122,2023-11-02T01:01:18.268Z,,0,,,3085.7480000000214,completion,,,,,false,,,,607639.1999999881,607638.5,604536.097,604545.7999999523,604552.752,607650.96,8,400,,,
trial,html.Screen,4_123_0,2023-11-02T01:01:21.156Z,,0,3,,2875.0400000000373,response,ISIC_7877488.JPG,5,ISIC_0024732.JPG,ISIC_0024732.JPG,false,0,keypress(z),500,610527.0999999642,610526,607634.305,607639.2999999523,607650.96,610532.275,8,400,24,,ISIC_7877488.JPG
break,html.Screen,4_123_1,2023-11-02T01:01:21.158Z,,0,,,NaN,,,,,,false,,,,610528.5999999642,610528.1999999881,,610527.5999999642,,610532.275,8,400,,,
break_continue,html.Screen,4_123_2,2023-11-02T01:01:21.159Z,,0,,,NaN,,,,,,false,,,,610529.5,610529.0999999642,,610528.8999999762,,610532.275,8,400,,,
sequence,flow.Sequence,4_123,2023-11-02T01:01:21.159Z,,0,,,2878.1399999642745,completion,,,,,false,,,,610529.8999999762,610529.0999999642,607634.305,607639.1999999881,607650.96,610532.275,8,400,,,
trial,html.Screen,4_124_0,2023-11-02T01:01:23.914Z,,0,3,,2752.424999988056,response,ISIC_4141315.JPG,5,ISIC_0033700.JPG,ISIC_0033700.JPG,false,0,keypress(z),500,613285.1999999881,613284.6999999881,610515.62,610529.8999999762,610532.275,613297.005,8,400,25,,ISIC_4141315.JPG
break,html.Screen,4_124_1,2023-11-02T01:01:23.916Z,,0,,,NaN,,,,,,false,,,,613286.8999999762,613286.5,,613285.5,,613297.005,8,400,,,
break_continue,html.Screen,4_124_2,2023-11-02T01:01:23.917Z,,0,,,NaN,,,,,,false,,,,613287.5999999642,613287.2999999523,,613287.0999999642,,613297.005,8,400,,,
sequence,flow.Sequence,4_124,2023-11-02T01:01:23.917Z,,0,,,2755.024999952293,completion,,,,,false,,,,613287.8999999762,613287.2999999523,610515.62,610529.8999999762,610532.275,613297.005,8,400,,,
trial,html.Screen,4_125_0,2023-11-02T01:01:26.688Z,,0,3,,2761.1949999880744,response,ISIC_0001118.JPG,9,ISIC_3306135.JPG,ISIC_0001118.JPG,false,1,keypress(m),500,616058.8999999762,616058.1999999881,613280.35,613288.1999999881,613297.005,616061.735,8,400,26,,ISIC_3306135.JPG
break,html.Screen,4_125_1,2023-11-02T01:01:26.689Z,,0,,,NaN,,,,,,false,,,,616060.0999999642,616059.7999999523,,616059.1999999881,,616061.735,8,400,,,
break_continue,html.Screen,4_125_2,2023-11-02T01:01:26.690Z,,0,,,NaN,,,,,,false,,,,616060.5999999642,616060.5,,616060.2999999523,,616061.735,8,400,,,
sequence,flow.Sequence,4_125,2023-11-02T01:01:26.690Z,,0,,,2763.4949999999953,completion,,,,,false,,,,616060.8999999762,616060.5,613280.35,613288,613297.005,616061.735,8,400,,,
