sender,sender_type,sender_id,timestamp,meta,,blockNo,condition,duration,ended_on,img_left,img_reveal,img_right,loser,practice,response,response_action,selection_duration,time_commit,time_end,time_render,time_run,time_show,time_switch,total_blocks,total_trials,trialNo,url,winner
informed_consent,html.Screen,0,2023-11-02T01:10:13.077Z,"{""labjs_version"":""20.2.4"",""labjs_build"":{""flavor"":""production"",""commit"":""f5b4a49f956347addd546a832a3327688c2c0fef""},""location"":""https://run.pavlovia.org/MurrayBennett/melanoma-2afc/?participant=65932&platform=sona"",""userAgent"":""Mozilla/5.0 (Macintosh; Intel Mac OS X 10_12_6) AppleWebKit/537.36 (KHTML, like Gecko) Chrome/103.0.0.0 Safari/537.36"",""platform"":""MacIntel"",""language"":""en-US"",""locale"":""en-US"",""timeZone"":""America/Chicago"",""timezoneOffset"":300,""screen_width"":1440,""screen_height"":900,""scroll_width"":1440,""scroll_height"":773,""window_innerWidth"":1440,""window_innerHeight"":821,""devicePixelRatio"":1}",,,,10439.85399999553,response,,,,,,consent,click button,,14935.89999999851,14932.69999999553,4476.135,4474,4492.846,14970.95,,,,"{""participant"":""65932"",""platform"":""sona""}",
Welcome,html.Screen,1,2023-11-02T01:10:19.602Z,,,,uniform,6488.349999997019,response,,,,,,continue,click button,,21461.5,21459.29999999702,14920.817,14936.29999999702,14970.95,21471.529,,,,,
trial,html.Screen,2_0_0,2023-11-02T01:10:31.099Z,,0,0,,11513.879000000004,timeout,ISIC_0063388.JPG,,ISIC_0025593.JPG,,true,,,500,32958.19999999553,32957.60000000149,21454.818,21461.79999999702,21471.529,32985.408,1,6,1,,
sequence,flow.Sequence,2_0,2023-11-02T01:10:31.099Z,,0,,,11486.071000001491,completion,,,,,true,,,,32958.69999999553,32957.60000000149,21454.818,21461.79999999702,21471.529,32985.408,1,6,,,
trial,html.Screen,2_1_0,2023-11-02T01:10:35.551Z,,0,0,,4425.291999995527,response,ISIC_0028178.JPG,,ISIC_1309015.JPG,ISIC_1309015.JPG,true,0,keypress(z),500,37411.10000000149,37410.69999999553,32968.697,32958.79999999702,32985.408,37414.22,1,6,2,,ISIC_0028178.JPG
sequence,flow.Sequence,2_1,2023-11-02T01:10:35.552Z,,0,,,4425.291999995527,completion,,,,,true,,,,37411.5,37410.69999999553,32968.697,32958.79999999702,32985.408,37414.22,1,6,,,
trial,html.Screen,2_2_0,2023-11-02T01:10:39.140Z,,0,0,,3585.279999999999,response,ISIC_3314853.JPG,,ISIC_0031128.JPG,ISIC_3314853.JPG,true,1,keypress(m),500,40999.79999999702,40999.5,37397.509,37411.60000000149,37414.22,41007.085,1,6,3,,ISIC_0031128.JPG
sequence,flow.Sequence,2_2,2023-11-02T01:10:39.140Z,,0,,,3585.279999999999,completion,,,,,true,,,,41000.10000000149,40999.5,37397.509,37411.5,37414.22,41007.085,1,6,,,
trial,html.Screen,2_3_0,2023-11-02T01:10:43.483Z,,0,0,,4336.015000001491,response,ISIC_8980141.JPG,,ISIC_0031612.JPG,ISIC_8980141.JPG,true,1,keypress(m),500,45343.5,45343.10000000149,40990.374,41000.5,41007.085,45352.162,1,6,4,,ISIC_0031612.JPG
sequence,flow.Sequence,2_3,2023-11-02T01:10:43.484Z,,0,,,4336.015000001491,completion,,,,,true,,,,45344.29999999702,45343.10000000149,40990.374,41000.39999999851,41007.085,45352.162,1,6,,,
trial,html.Screen,2_4_0,2023-11-02T01:10:47.281Z,,0,0,,3788.4380000014935,response,ISIC_9721604.JPG,,ISIC_1197737.JPG,ISIC_9721604.JPG,true,1,keypress(m),500,49140.89999999851,49140.60000000149,45335.451,45344.79999999702,45352.162,49145.559,1,6,5,,ISIC_1197737.JPG
sequence,flow.Sequence,2_4,2023-11-02T01:10:47.281Z,,0,,,3788.4380000014935,completion,,,,,true,,,,49141.29999999702,49140.60000000149,45335.451,45344.60000000149,45352.162,49145.559,1,6,,,
trial,html.Screen,2_5_0,2023-11-02T01:10:50.596Z,,0,0,,3310.340999998509,response,ISIC_0025346.JPG,,ISIC_0010681.JPG,ISIC_0025346.JPG,true,1,keypress(m),500,52456.29999999702,52455.89999999851,49128.848,49141.60000000149,49145.559,52471.048,1,6,6,,ISIC_0010681.JPG
sequence,flow.Sequence,2_5,2023-11-02T01:10:50.596Z,,0,,,3310.340999998509,completion,,,,,true,,,,52456.69999999553,52455.89999999851,49128.848,49141.5,49145.559,52471.048,1,6,,,
loop,flow.Loop,2,2023-11-02T01:10:50.597Z,,,,,30984.37099999851,completion,,,,,true,,,,52457,52455.89999999851,21454.818,21461.69999999553,21471.529,52471.048,1,6,,,
exp_instructions,html.Screen,3,2023-11-02T01:11:11.842Z,,,,,21226.451999999997,response,,,,,,continue,keypress(Space),,73703.29999999702,73697.5,52454.337,52457.10000000149,52471.048,73710.729,,,,,
trial,html.Screen,4_0_0,2023-11-02T01:11:14.959Z,,0,1,,3109.8710000014835,response,ISIC_0032762.JPG,7,ISIC_0034170.JPG,ISIC_0032762.JPG,false,1,keypress(m),500,76821,76820.60000000149,73694.018,73703.89999999851,73710.729,76836.205,8,400,1,,ISIC_0034170.JPG
break,html.Screen,4_0_1,2023-11-02T01:11:14.961Z,,0,,,NaN,,,,,,false,,,,76822.29999999702,76822,,76821.29999999702,,76836.205,8,400,,,
break_continue,html.Screen,4_0_2,2023-11-02T01:11:14.961Z,,0,,,NaN,,,,,,false,,,,76822.89999999851,76822.69999999553,,76822.5,,76836.205,8,400,,,
sequence,flow.Sequence,4_0,2023-11-02T01:11:14.962Z,,0,,,3111.970999995523,completion,,,,,false,,,,76823.29999999702,76822.69999999553,73694.018,73703.69999999553,73710.729,76836.205,8,400,,,
trial,html.Screen,4_1_0,2023-11-02T01:11:19.325Z,,0,1,,4350.794999999998,response,ISIC_0065477.JPG,6,ISIC_6759173.JPG,ISIC_0065477.JPG,false,1,keypress(m),500,81187.19999999553,81187,76819.494,76823.5,76836.205,81197.776,8,400,2,,ISIC_6759173.JPG
break,html.Screen,4_1_1,2023-11-02T01:11:19.326Z,,0,,,NaN,,,,,,false,,,,81188.10000000149,81187.89999999851,,81187.5,,81197.776,8,400,,,
break_continue,html.Screen,4_1_2,2023-11-02T01:11:19.327Z,,0,,,NaN,,,,,,false,,,,81188.69999999553,81188.60000000149,,81188.39999999851,,81197.776,8,400,,,
sequence,flow.Sequence,4_1,2023-11-02T01:11:19.327Z,,0,,,4352.395000001488,completion,,,,,false,,,,81189,81188.60000000149,76819.494,76823.39999999851,76836.205,81197.776,8,400,,,
trial,html.Screen,4_2_0,2023-11-02T01:11:24.173Z,,0,1,,4836.523999997022,response,ISIC_0028173.JPG,6,ISIC_0012904.JPG,ISIC_0012904.JPG,false,0,keypress(z),500,86034.69999999553,86034.29999999702,81181.065,81189.19999999553,81197.776,86044.177,8,400,3,,ISIC_0028173.JPG
break,html.Screen,4_2_1,2023-11-02T01:11:24.174Z,,0,,,NaN,,,,,,false,,,,86035.79999999702,86035.5,,86035,,86044.177,8,400,,,
break_continue,html.Screen,4_2_2,2023-11-02T01:11:24.174Z,,0,,,NaN,,,,,,false,,,,86036.29999999702,86036.10000000149,,86035.89999999851,,86044.177,8,400,,,
sequence,flow.Sequence,4_2,2023-11-02T01:11:24.174Z,,0,,,4838.324000001492,completion,,,,,false,,,,86036.5,86036.10000000149,81181.065,81189.10000000149,81197.776,86044.177,8,400,,,
trial,html.Screen,4_3_0,2023-11-02T01:11:28.068Z,,0,1,,3885.323000000004,response,ISIC_0058098.JPG,4,ISIC_2391053.JPG,ISIC_0058098.JPG,false,1,keypress(m),500,89929.79999999702,89929.5,86027.466,86036.79999999702,86044.177,89937.84,8,400,4,,ISIC_2391053.JPG
break,html.Screen,4_3_1,2023-11-02T01:11:28.068Z,,0,,,NaN,,,,,,false,,,,89930.60000000149,89930.39999999851,,89930,,89937.84,8,400,,,
break_continue,html.Screen,4_3_2,2023-11-02T01:11:28.069Z,,0,,,NaN,,,,,,false,,,,89931.10000000149,89931.10000000149,,89930.79999999702,,89937.84,8,400,,,
sequence,flow.Sequence,4_3,2023-11-02T01:11:28.069Z,,0,,,3886.923000001494,completion,,,,,false,,,,89931.5,89931.10000000149,86027.466,86036.69999999553,86044.177,89937.84,8,400,,,
trial,html.Screen,4_4_0,2023-11-02T01:11:33.180Z,,0,1,,5104.760000001494,response,ISIC_0000162.JPG,5,ISIC_3947143.JPG,ISIC_0000162.JPG,false,1,keypress(m),500,95042.89999999851,95042.60000000149,89921.129,89931.79999999702,89937.84,95051.406,8,400,5,,ISIC_3947143.JPG
break,html.Screen,4_4_1,2023-11-02T01:11:33.181Z,,0,,,NaN,,,,,,false,,,,95043.79999999702,95043.5,,95043.10000000149,,95051.406,8,400,,,
break_continue,html.Screen,4_4_2,2023-11-02T01:11:33.182Z,,0,,,NaN,,,,,,false,,,,95044.19999999553,95044.10000000149,,95044,,95051.406,8,400,,,
sequence,flow.Sequence,4_4,2023-11-02T01:11:33.182Z,,0,,,5106.260000001494,completion,,,,,false,,,,95044.60000000149,95044.10000000149,89921.129,89931.60000000149,89937.84,95051.406,8,400,,,
trial,html.Screen,4_5_0,2023-11-02T01:11:37.799Z,,0,1,,4610.093999999997,response,ISIC_0046672.JPG,6,ISIC_5536710.JPG,ISIC_5536710.JPG,false,0,keypress(z),500,99661.69999999553,99661.5,95034.695,95044.79999999702,95051.406,99663.832,8,400,6,,ISIC_0046672.JPG
break,html.Screen,4_5_1,2023-11-02T01:11:37.800Z,,0,,,NaN,,,,,,false,,,,99662.29999999702,99662.10000000149,,99661.89999999851,,99663.832,8,400,,,
break_continue,html.Screen,4_5_2,2023-11-02T01:11:37.800Z,,0,,,NaN,,,,,,false,,,,99662.5,99662.5,,99662.39999999851,,99663.832,8,400,,,
sequence,flow.Sequence,4_5,2023-11-02T01:11:37.800Z,,0,,,4611.093999999997,completion,,,,,false,,,,99662.69999999553,99662.5,95034.695,95044.69999999553,95051.406,99663.832,8,400,,,
trial,html.Screen,4_6_0,2023-11-02T01:11:42.398Z,,0,1,,4596.467999997025,response,ISIC_0056119.JPG,4,ISIC_7973598.JPG,ISIC_0056119.JPG,false,1,keypress(m),500,104260.60000000149,104260.29999999702,99647.121,99662.79999999702,99663.832,104276.068,8,400,7,,ISIC_7973598.JPG
break,html.Screen,4_6_1,2023-11-02T01:11:42.399Z,,0,,,NaN,,,,,,false,,,,104261.5,104261.19999999553,,104260.79999999702,,104276.068,8,400,,,
break_continue,html.Screen,4_6_2,2023-11-02T01:11:42.399Z,,0,,,NaN,,,,,,false,,,,104262.10000000149,104261.89999999851,,104261.69999999553,,104276.068,8,400,,,
sequence,flow.Sequence,4_6,2023-11-02T01:11:42.399Z,,0,,,4598.067999998515,completion,,,,,false,,,,104262.29999999702,104261.89999999851,99647.121,99662.79999999702,99663.832,104276.068,8,400,,,
trial,html.Screen,4_7_0,2023-11-02T01:11:46.651Z,,0,1,,4237.63199999553,response,ISIC_0032617.JPG,5,ISIC_5688950.JPG,ISIC_5688950.JPG,false,0,keypress(z),500,108514,108513.69999999553,104259.357,104262.60000000149,104276.068,108520.886,8,400,8,,ISIC_0032617.JPG
break,html.Screen,4_7_1,2023-11-02T01:11:46.652Z,,0,,,NaN,,,,,,false,,,,108514.79999999702,108514.60000000149,,108514.29999999702,,108520.886,8,400,,,
break_continue,html.Screen,4_7_2,2023-11-02T01:11:46.652Z,,0,,,NaN,,,,,,false,,,,108515.39999999851,108515.19999999553,,108515,,108520.886,8,400,,,
sequence,flow.Sequence,4_7,2023-11-02T01:11:46.652Z,,0,,,4239.13199999553,completion,,,,,false,,,,108515.69999999553,108515.19999999553,104259.357,104262.5,104276.068,108520.886,8,400,,,
trial,html.Screen,4_8_0,2023-11-02T01:11:50.804Z,,0,1,,4146.313999995531,response,ISIC_9069800.JPG,5,ISIC_0070679.JPG,ISIC_0070679.JPG,false,0,keypress(z),500,112667.60000000149,112667.19999999553,108504.175,108516,108520.886,112681.925,8,400,9,,ISIC_9069800.JPG
break,html.Screen,4_8_1,2023-11-02T01:11:50.805Z,,0,,,NaN,,,,,,false,,,,112668.29999999702,112668.10000000149,,112667.69999999553,,112681.925,8,400,,,
break_continue,html.Screen,4_8_2,2023-11-02T01:11:50.806Z,,0,,,NaN,,,,,,false,,,,112668.89999999851,112668.60000000149,,112668.5,,112681.925,8,400,,,
sequence,flow.Sequence,4_8,2023-11-02T01:11:50.806Z,,0,,,4147.7140000014915,completion,,,,,false,,,,112669.19999999553,112668.60000000149,108504.175,108515.79999999702,108520.886,112681.925,8,400,,,
trial,html.Screen,4_9_0,2023-11-02T01:11:55.400Z,,0,1,,4580.774999995527,response,ISIC_0011077.JPG,5,ISIC_0071735.JPG,ISIC_0071735.JPG,false,0,keypress(z),500,117263.10000000149,117262.69999999553,112665.214,112669.39999999851,112681.925,117277.45,8,400,10,,ISIC_0011077.JPG
break,html.Screen,4_9_1,2023-11-02T01:11:55.400Z,,0,,,NaN,,,,,,false,,,,117264,117263.69999999553,,117263.39999999851,,117277.45,8,400,,,
break_continue,html.Screen,4_9_2,2023-11-02T01:11:55.401Z,,0,,,NaN,,,,,,false,,,,117264.5,117264.39999999851,,117264.29999999702,,117277.45,8,400,,,
sequence,flow.Sequence,4_9,2023-11-02T01:11:55.401Z,,0,,,4582.474999998507,completion,,,,,false,,,,117264.79999999702,117264.39999999851,112665.214,112669.29999999702,112681.925,117277.45,8,400,,,
trial,html.Screen,4_10_0,2023-11-02T01:12:00.231Z,,0,1,,4817.449999998513,response,ISIC_0033538.JPG,5,ISIC_7667157.JPG,ISIC_0033538.JPG,false,1,keypress(m),500,122095.19999999553,122094.89999999851,117260.739,117265.10000000149,117277.45,122107.107,8,400,11,,ISIC_7667157.JPG
break,html.Screen,4_10_1,2023-11-02T01:12:00.232Z,,0,,,NaN,,,,,,false,,,,122096.10000000149,122095.89999999851,,122095.60000000149,,122107.107,8,400,,,
break_continue,html.Screen,4_10_2,2023-11-02T01:12:00.233Z,,0,,,NaN,,,,,,false,,,,122096.60000000149,122096.39999999851,,122096.29999999702,,122107.107,8,400,,,
sequence,flow.Sequence,4_10,2023-11-02T01:12:00.233Z,,0,,,4818.949999998513,completion,,,,,false,,,,122096.89999999851,122096.39999999851,117260.739,117265,117277.45,122107.107,8,400,,,
trial,html.Screen,4_11_0,2023-11-02T01:12:03.225Z,,0,1,,2981.092999995526,response,ISIC_0066001.JPG,7,ISIC_9798721.JPG,ISIC_9798721.JPG,false,0,keypress(z),500,125088.5,125088.19999999553,122090.396,122097.19999999553,122107.107,125098.376,8,400,12,,ISIC_0066001.JPG
break,html.Screen,4_11_1,2023-11-02T01:12:03.226Z,,0,,,NaN,,,,,,false,,,,125089.5,125089.19999999553,,125088.79999999702,,125098.376,8,400,,,
break_continue,html.Screen,4_11_2,2023-11-02T01:12:03.226Z,,0,,,NaN,,,,,,false,,,,125090,125089.89999999851,,125089.69999999553,,125098.376,8,400,,,
sequence,flow.Sequence,4_11,2023-11-02T01:12:03.226Z,,0,,,2982.7929999985063,completion,,,,,false,,,,125090.29999999702,125089.89999999851,122090.396,122097,122107.107,125098.376,8,400,,,
trial,html.Screen,4_12_0,2023-11-02T01:12:06.401Z,,0,1,,3166.523999998506,response,ISIC_0638889.JPG,5,ISIC_6985114.JPG,ISIC_0638889.JPG,false,1,keypress(m),500,128265.19999999553,128264.89999999851,125081.665,125090.60000000149,125098.376,128273.466,8,400,13,,ISIC_6985114.JPG
break,html.Screen,4_12_1,2023-11-02T01:12:06.402Z,,0,,,NaN,,,,,,false,,,,128266.10000000149,128265.79999999702,,128265.5,,128273.466,8,400,,,
break_continue,html.Screen,4_12_2,2023-11-02T01:12:06.403Z,,0,,,NaN,,,,,,false,,,,128266.60000000149,128266.39999999851,,128266.29999999702,,128273.466,8,400,,,
sequence,flow.Sequence,4_12,2023-11-02T01:12:06.403Z,,0,,,3168.023999998506,completion,,,,,false,,,,128266.89999999851,128266.39999999851,125081.665,125090.5,125098.376,128273.466,8,400,,,
trial,html.Screen,4_13_0,2023-11-02T01:12:10.452Z,,0,1,,4042.7339999955293,response,ISIC_0054073.JPG,6,ISIC_0011288.JPG,ISIC_0054073.JPG,false,1,keypress(m),500,132316.5,132316.19999999553,128256.755,128267.10000000149,128273.466,132317.722,8,400,14,,ISIC_0011288.JPG
break,html.Screen,4_13_1,2023-11-02T01:12:10.453Z,,0,,,NaN,,,,,,false,,,,132317.3999999985,132317.1000000015,,132316.69999999553,,132317.722,8,400,,,
break_continue,html.Screen,4_13_2,2023-11-02T01:12:10.453Z,,0,,,NaN,,,,,,false,,,,132317.69999999553,132317.69999999553,,132317.5,,132317.722,8,400,,,
sequence,flow.Sequence,4_13,2023-11-02T01:12:10.454Z,,0,,,4044.2339999955293,completion,,,,,false,,,,132318,132317.69999999553,128256.755,128267.10000000149,128273.466,132317.722,8,400,,,
trial,html.Screen,4_14_0,2023-11-02T01:12:15.407Z,,0,1,,4953.577999997011,response,ISIC_1432058.JPG,5,ISIC_0032112.JPG,ISIC_1432058.JPG,false,1,keypress(m),500,137271.5,137271.29999999702,132301.011,132318.19999999553,132317.722,137280.889,8,400,15,,ISIC_0032112.JPG
break,html.Screen,4_14_1,2023-11-02T01:12:15.408Z,,0,,,NaN,,,,,,false,,,,137272.3999999985,137272.1000000015,,137271.79999999702,,137280.889,8,400,,,
break_continue,html.Screen,4_14_2,2023-11-02T01:12:15.408Z,,0,,,NaN,,,,,,false,,,,137272.8999999985,137272.69999999553,,137272.6000000015,,137280.889,8,400,,,
sequence,flow.Sequence,4_14,2023-11-02T01:12:15.409Z,,0,,,4954.977999995521,completion,,,,,false,,,,137273.1000000015,137272.69999999553,132301.011,132318.19999999553,132317.722,137280.889,8,400,,,
trial,html.Screen,4_15_0,2023-11-02T01:12:18.444Z,,0,1,,3027.7110000014945,response,ISIC_3560519.JPG,4,ISIC_7844565.JPG,ISIC_7844565.JPG,false,0,keypress(z),500,140308.79999999702,140308.6000000015,137264.178,137273.29999999702,137280.889,140322.48,8,400,16,,ISIC_3560519.JPG
break,html.Screen,4_15_1,2023-11-02T01:12:18.445Z,,0,,,NaN,,,,,,false,,,,140309.69999999553,140309.5,,140309.1000000015,,140322.48,8,400,,,
break_continue,html.Screen,4_15_2,2023-11-02T01:12:18.445Z,,0,,,NaN,,,,,,false,,,,140310.1000000015,140310,,140309.79999999702,,140322.48,8,400,,,
sequence,flow.Sequence,4_15,2023-11-02T01:12:18.446Z,,0,,,3029.1110000000044,completion,,,,,false,,,,140310.3999999985,140310,137264.178,137273.19999999553,137280.889,140322.48,8,400,,,
trial,html.Screen,4_16_0,2023-11-02T01:12:22.963Z,,0,1,,4504.62000000148,response,ISIC_0001118.JPG,4,ISIC_0055601.JPG,ISIC_0001118.JPG,false,1,keypress(m),500,144827.3999999985,144827.1000000015,140305.769,140310.6000000015,140322.48,144834.45,8,400,17,,ISIC_0055601.JPG
break,html.Screen,4_16_1,2023-11-02T01:12:22.963Z,,0,,,NaN,,,,,,false,,,,144828.29999999702,144828.1000000015,,144827.6000000015,,144834.45,8,400,,,
break_continue,html.Screen,4_16_2,2023-11-02T01:12:22.964Z,,0,,,NaN,,,,,,false,,,,144828.69999999553,144828.6000000015,,144828.3999999985,,144834.45,8,400,,,
sequence,flow.Sequence,4_16,2023-11-02T01:12:22.964Z,,0,,,4506.12000000148,completion,,,,,false,,,,144829,144828.6000000015,140305.769,140310.6000000015,140322.48,144834.45,8,400,,,
trial,html.Screen,4_17_0,2023-11-02T01:12:25.981Z,,0,1,,3011.249999995518,response,ISIC_3386753.JPG,6,ISIC_0029349.JPG,ISIC_0029349.JPG,false,0,keypress(z),500,147846,147845.69999999553,144817.739,144829.1000000015,144834.45,147859.141,8,400,18,,ISIC_3386753.JPG
break,html.Screen,4_17_1,2023-11-02T01:12:25.982Z,,0,,,NaN,,,,,,false,,,,147846.79999999702,147846.6000000015,,147846.19999999553,,147859.141,8,400,,,
break_continue,html.Screen,4_17_2,2023-11-02T01:12:25.982Z,,0,,,NaN,,,,,,false,,,,147847.19999999553,147847,,147847,,147859.141,8,400,,,
sequence,flow.Sequence,4_17,2023-11-02T01:12:25.982Z,,0,,,3012.5499999999884,completion,,,,,false,,,,147847.5,147847,144817.739,144829.1000000015,144834.45,147859.141,8,400,,,
trial,html.Screen,4_18_0,2023-11-02T01:12:28.965Z,,0,1,,2971.2589999985066,response,ISIC_0011958.JPG,7,ISIC_7341401.JPG,ISIC_0011958.JPG,false,1,keypress(m),500,150830.69999999553,150830.3999999985,147842.43,147847.69999999553,147859.141,150833.854,8,400,19,,ISIC_7341401.JPG
break,html.Screen,4_18_1,2023-11-02T01:12:28.967Z,,0,,,NaN,,,,,,false,,,,150831.69999999553,150831.19999999553,,150830.8999999985,,150833.854,8,400,,,
break_continue,html.Screen,4_18_2,2023-11-02T01:12:28.967Z,,0,,,NaN,,,,,,false,,,,150832.19999999553,150831.8999999985,,150831.79999999702,,150833.854,8,400,,,
sequence,flow.Sequence,4_18,2023-11-02T01:12:28.967Z,,0,,,2972.7589999985066,completion,,,,,false,,,,150832.3999999985,150831.8999999985,147842.43,147847.6000000015,147859.141,150833.854,8,400,,,
trial,html.Screen,4_19_0,2023-11-02T01:12:31.861Z,,0,1,,2892.4459999970277,response,ISIC_1264725.JPG,5,ISIC_6891226.JPG,ISIC_6891226.JPG,false,0,keypress(z),500,153726.5,153726.29999999702,150817.143,150832.6000000015,150833.854,153741.568,8,400,20,,ISIC_1264725.JPG
break,html.Screen,4_19_1,2023-11-02T01:12:31.862Z,,0,,,NaN,,,,,,false,,,,153727.3999999985,153727.1000000015,,153726.79999999702,,153741.568,8,400,,,
break_continue,html.Screen,4_19_2,2023-11-02T01:12:31.863Z,,0,,,NaN,,,,,,false,,,,153727.79999999702,153727.6000000015,,153727.6000000015,,153741.568,8,400,,,
sequence,flow.Sequence,4_19,2023-11-02T01:12:31.863Z,,0,,,2893.746000001498,completion,,,,,false,,,,153728.1000000015,153727.6000000015,150817.143,150832.6000000015,150833.854,153741.568,8,400,,,
trial,html.Screen,4_20_0,2023-11-02T01:12:36.084Z,,0,1,,4207.831999998511,response,ISIC_0002041.JPG,6,ISIC_2438917.JPG,ISIC_2438917.JPG,false,0,keypress(z),500,157949.6000000015,157949.3999999985,153724.857,153728.3999999985,153741.568,157952.74,8,400,21,,ISIC_0002041.JPG
break,html.Screen,4_20_1,2023-11-02T01:12:36.085Z,,0,,,NaN,,,,,,false,,,,157950.3999999985,157950.19999999553,,157949.8999999985,,157952.74,8,400,,,
break_continue,html.Screen,4_20_2,2023-11-02T01:12:36.085Z,,0,,,NaN,,,,,,false,,,,157950.79999999702,157950.69999999553,,157950.6000000015,,157952.74,8,400,,,
sequence,flow.Sequence,4_20,2023-11-02T01:12:36.086Z,,0,,,4209.13199999553,completion,,,,,false,,,,157951.1000000015,157950.69999999553,153724.857,153728.19999999553,153741.568,157952.74,8,400,,,
trial,html.Screen,4_21_0,2023-11-02T01:12:38.943Z,,0,1,,2855.559999997029,response,ISIC_0025458.JPG,5,ISIC_4619903.JPG,ISIC_0025458.JPG,false,1,keypress(m),500,160808.5,160808.29999999702,157936.029,157951.19999999553,157952.74,160827.032,8,400,22,,ISIC_4619903.JPG
break,html.Screen,4_21_1,2023-11-02T01:12:38.944Z,,0,,,NaN,,,,,,false,,,,160809.29999999702,160809,,160808.79999999702,,160827.032,8,400,,,
break_continue,html.Screen,4_21_2,2023-11-02T01:12:38.944Z,,0,,,NaN,,,,,,false,,,,160809.69999999553,160809.6000000015,,160809.5,,160827.032,8,400,,,
sequence,flow.Sequence,4_21,2023-11-02T01:12:38.944Z,,0,,,2856.8600000014994,completion,,,,,false,,,,160810,160809.6000000015,157936.029,157951.19999999553,157952.74,160827.032,8,400,,,
trial,html.Screen,4_22_0,2023-11-02T01:12:42.139Z,,0,1,,3177.667999995523,response,ISIC_0015035.JPG,7,ISIC_3289098.JPG,ISIC_0015035.JPG,false,1,keypress(m),500,164004.8999999985,164004.69999999553,160810.321,160810.19999999553,160827.032,164019.055,8,400,23,,ISIC_3289098.JPG
break,html.Screen,4_22_1,2023-11-02T01:12:42.140Z,,0,,,NaN,,,,,,false,,,,164005.79999999702,164005.6000000015,,164005.19999999553,,164019.055,8,400,,,
break_continue,html.Screen,4_22_2,2023-11-02T01:12:42.140Z,,0,,,NaN,,,,,,false,,,,164006.19999999553,164006.1000000015,,164006,,164019.055,8,400,,,
sequence,flow.Sequence,4_22,2023-11-02T01:12:42.141Z,,0,,,3179.0680000014836,completion,,,,,false,,,,164006.5,164006.1000000015,160810.321,160810.1000000015,160827.032,164019.055,8,400,,,
trial,html.Screen,4_23_0,2023-11-02T01:12:46.033Z,,0,1,,3879.344999998517,response,ISIC_0069395.JPG,5,ISIC_6208762.JPG,ISIC_0069395.JPG,false,1,keypress(m),500,167898.69999999553,167898.3999999985,164002.344,164006.69999999553,164019.055,167929.429,8,400,24,,ISIC_6208762.JPG
break,html.Screen,4_23_1,2023-11-02T01:12:46.033Z,,0,,,NaN,,,,,,false,,,,167899.3999999985,167899.19999999553,,167898.8999999985,,167929.429,8,400,,,
break_continue,html.Screen,4_23_2,2023-11-02T01:12:46.034Z,,0,,,NaN,,,,,,false,,,,167899.8999999985,167899.69999999553,,167899.6000000015,,167929.429,8,400,,,
sequence,flow.Sequence,4_23,2023-11-02T01:12:46.034Z,,0,,,3880.6449999955366,completion,,,,,false,,,,167900.1000000015,167899.69999999553,164002.344,164006.69999999553,164019.055,167929.429,8,400,,,
trial,html.Screen,4_24_0,2023-11-02T01:12:50.239Z,,0,1,,4175.370999997016,response,ISIC_0024259.JPG,4,ISIC_9109847.JPG,ISIC_9109847.JPG,false,0,keypress(z),500,172105.1000000015,172104.79999999702,167912.718,167900.19999999553,167929.429,172107.38,8,400,25,,ISIC_0024259.JPG
break,html.Screen,4_24_1,2023-11-02T01:12:50.240Z,,0,,,NaN,,,,,,false,,,,172105.79999999702,172105.6000000015,,172105.29999999702,,172107.38,8,400,,,
break_continue,html.Screen,4_24_2,2023-11-02T01:12:50.240Z,,0,,,NaN,,,,,,false,,,,172106.19999999553,172106.1000000015,,172105.8999999985,,172107.38,8,400,,,
sequence,flow.Sequence,4_24,2023-11-02T01:12:50.240Z,,0,,,4176.671000001486,completion,,,,,false,,,,172106.5,172106.1000000015,167912.718,167900.19999999553,167929.429,172107.38,8,400,,,
trial,html.Screen,4_25_0,2023-11-02T01:12:53.406Z,,0,1,,3164.6199999999953,response,ISIC_5298608.JPG,5,ISIC_3304982.JPG,ISIC_5298608.JPG,false,1,keypress(m),500,175272.29999999702,175272,172090.669,172106.69999999553,172107.38,175282.47,8,400,26,,ISIC_3304982.JPG
break,html.Screen,4_25_1,2023-11-02T01:12:53.407Z,,0,,,NaN,,,,,,false,,,,175273.19999999553,175273,,175272.6000000015,,175282.47,8,400,,,
break_continue,html.Screen,4_25_2,2023-11-02T01:12:53.407Z,,0,,,NaN,,,,,,false,,,,175273.6000000015,175273.5,,175273.29999999702,,175282.47,8,400,,,
sequence,flow.Sequence,4_25,2023-11-02T01:12:53.407Z,,0,,,3166.1199999999953,completion,,,,,false,,,,175273.79999999702,175273.5,172090.669,172106.6000000015,172107.38,175282.47,8,400,,,
trial,html.Screen,4_26_0,2023-11-02T01:12:56.884Z,,0,1,,3468.2299999955285,response,ISIC_0255997.JPG,7,ISIC_0030462.JPG,ISIC_0030462.JPG,false,0,keypress(z),500,178750.8999999985,178750.69999999553,175265.759,175274.1000000015,175282.47,178758.358,8,400,27,,ISIC_0255997.JPG
break,html.Screen,4_26_1,2023-11-02T01:12:56.885Z,,0,,,NaN,,,,,,false,,,,178751.69999999553,178751.5,,178751.1000000015,,178758.358,8,400,,,
break_continue,html.Screen,4_26_2,2023-11-02T01:12:56.886Z,,0,,,NaN,,,,,,false,,,,178752.19999999553,178752.1000000015,,178751.8999999985,,178758.358,8,400,,,
sequence,flow.Sequence,4_26,2023-11-02T01:12:56.886Z,,0,,,3469.630000001489,completion,,,,,false,,,,178752.3999999985,178752.1000000015,175265.759,175274,175282.47,178758.358,8,400,,,
trial,html.Screen,4_27_0,2023-11-02T01:13:00.519Z,,0,1,,3627.1419999999925,response,ISIC_9538419.JPG,7,ISIC_1398618.JPG,ISIC_1398618.JPG,false,0,keypress(z),500,182385.79999999702,182385.5,178741.647,178752.6000000015,178758.358,182401.543,8,400,28,,ISIC_9538419.JPG
break,html.Screen,4_27_1,2023-11-02T01:13:00.520Z,,0,,,NaN,,,,,,false,,,,182386.6000000015,182386.29999999702,,182386,,182401.543,8,400,,,
break_continue,html.Screen,4_27_2,2023-11-02T01:13:00.520Z,,0,,,NaN,,,,,,false,,,,182387.1000000015,182386.8999999985,,182386.79999999702,,182401.543,8,400,,,
sequence,flow.Sequence,4_27,2023-11-02T01:13:00.521Z,,0,,,3628.5419999985024,completion,,,,,false,,,,182387.29999999702,182386.8999999985,178741.647,178752.5,178758.358,182401.543,8,400,,,
trial,html.Screen,4_28_0,2023-11-02T01:13:04.715Z,,0,1,,4180.256999997015,response,ISIC_0033485.JPG,6,ISIC_3926305.JPG,ISIC_3926305.JPG,false,0,keypress(z),500,186582.1000000015,186581.79999999702,182384.832,182387.3999999985,182401.543,186596.004,8,400,29,,ISIC_0033485.JPG
break,html.Screen,4_28_1,2023-11-02T01:13:04.716Z,,0,,,NaN,,,,,,false,,,,186583,186582.69999999553,,186582.3999999985,,186596.004,8,400,,,
break_continue,html.Screen,4_28_2,2023-11-02T01:13:04.717Z,,0,,,NaN,,,,,,false,,,,186583.5,186583.29999999702,,186583.19999999553,,186596.004,8,400,,,
sequence,flow.Sequence,4_28,2023-11-02T01:13:04.717Z,,0,,,4181.756999997015,completion,,,,,false,,,,186583.69999999553,186583.29999999702,182384.832,182387.3999999985,182401.543,186596.004,8,400,,,
trial,html.Screen,4_29_0,2023-11-02T01:13:08.065Z,,0,1,,3335.9960000000137,response,ISIC_0010874.JPG,5,ISIC_2658858.JPG,ISIC_0010874.JPG,false,1,keypress(m),500,189932.29999999702,189932,186579.293,186583.79999999702,186596.004,189938.204,8,400,30,,ISIC_2658858.JPG
break,html.Screen,4_29_1,2023-11-02T01:13:08.066Z,,0,,,NaN,,,,,,false,,,,189933.1000000015,189932.79999999702,,189932.5,,189938.204,8,400,,,
break_continue,html.Screen,4_29_2,2023-11-02T01:13:08.066Z,,0,,,NaN,,,,,,false,,,,189933.5,189933.3999999985,,189933.19999999553,,189938.204,8,400,,,
sequence,flow.Sequence,4_29,2023-11-02T01:13:08.067Z,,0,,,3337.3959999985236,completion,,,,,false,,,,189933.79999999702,189933.3999999985,186579.293,186583.79999999702,186596.004,189938.204,8,400,,,
trial,html.Screen,4_30_0,2023-11-02T01:13:11.577Z,,0,1,,3505.796000000002,response,ISIC_0026666.JPG,6,ISIC_0033812.JPG,ISIC_0033812.JPG,false,0,keypress(z),500,193444.19999999553,193444,189921.493,189933.8999999985,189938.204,193447.702,8,400,31,,ISIC_0026666.JPG
break,html.Screen,4_30_1,2023-11-02T01:13:11.578Z,,0,,,NaN,,,,,,false,,,,193445.19999999553,193444.8999999985,,193444.5,,193447.702,8,400,,,
break_continue,html.Screen,4_30_2,2023-11-02T01:13:11.578Z,,0,,,NaN,,,,,,false,,,,193445.69999999553,193445.3999999985,,193445.19999999553,,193447.702,8,400,,,
sequence,flow.Sequence,4_30,2023-11-02T01:13:11.579Z,,0,,,3507.195999998512,completion,,,,,false,,,,193446,193445.3999999985,189921.493,189933.8999999985,189938.204,193447.702,8,400,,,
trial,html.Screen,4_31_0,2023-11-02T01:13:14.814Z,,0,1,,3233.6979999985197,response,ISIC_0060342.JPG,6,ISIC_4271108.JPG,ISIC_4271108.JPG,false,0,keypress(z),500,196681.69999999553,196681.3999999985,193430.991,193446.19999999553,193447.702,196689.636,8,400,32,,ISIC_0060342.JPG
break,html.Screen,4_31_1,2023-11-02T01:13:14.815Z,,0,,,NaN,,,,,,false,,,,196682.5,196682.19999999553,,196682,,196689.636,8,400,,,
break_continue,html.Screen,4_31_2,2023-11-02T01:13:14.816Z,,0,,,NaN,,,,,,false,,,,196683,196682.79999999702,,196682.6000000015,,196689.636,8,400,,,
sequence,flow.Sequence,4_31,2023-11-02T01:13:14.816Z,,0,,,3235.0979999970295,completion,,,,,false,,,,196683.19999999553,196682.79999999702,193430.991,193446.19999999553,193447.702,196689.636,8,400,,,
trial,html.Screen,4_32_0,2023-11-02T01:13:17.947Z,,0,1,,3124.8640000000014,response,ISIC_8124482.JPG,5,ISIC_0056292.JPG,ISIC_8124482.JPG,false,1,keypress(m),500,199814.69999999553,199814.5,196672.925,196683.5,196689.636,199831.304,8,400,33,,ISIC_0056292.JPG
break,html.Screen,4_32_1,2023-11-02T01:13:17.948Z,,0,,,NaN,,,,,,false,,,,199815.6000000015,199815.29999999702,,199815,,199831.304,8,400,,,
break_continue,html.Screen,4_32_2,2023-11-02T01:13:17.948Z,,0,,,NaN,,,,,,false,,,,199816,199815.8999999985,,199815.6000000015,,199831.304,8,400,,,
sequence,flow.Sequence,4_32,2023-11-02T01:13:17.949Z,,0,,,3126.2639999985113,completion,,,,,false,,,,199816.19999999553,199815.8999999985,196672.925,196683.29999999702,196689.636,199831.304,8,400,,,
trial,html.Screen,4_33_0,2023-11-02T01:13:21.310Z,,0,1,,3346.495999997016,response,ISIC_9756117.JPG,6,ISIC_6877295.JPG,ISIC_6877295.JPG,false,0,keypress(z),500,203178,203177.79999999702,199814.593,199816.5,199831.304,203190.215,8,400,34,,ISIC_9756117.JPG
break,html.Screen,4_33_1,2023-11-02T01:13:21.311Z,,0,,,NaN,,,,,,false,,,,203179,203178.79999999702,,203178.29999999702,,203190.215,8,400,,,
break_continue,html.Screen,4_33_2,2023-11-02T01:13:21.312Z,,0,,,NaN,,,,,,false,,,,203179.6000000015,203179.29999999702,,203179.19999999553,,203190.215,8,400,,,
sequence,flow.Sequence,4_33,2023-11-02T01:13:21.312Z,,0,,,3347.995999997016,completion,,,,,false,,,,203179.79999999702,203179.29999999702,199814.593,199816.29999999702,199831.304,203190.215,8,400,,,
trial,html.Screen,4_34_0,2023-11-02T01:13:24.173Z,,0,1,,2850.5849999970233,response,ISIC_9509813.JPG,7,ISIC_1711185.JPG,ISIC_9509813.JPG,false,1,keypress(m),500,206041.1000000015,206040.79999999702,203173.504,203180,203190.215,206047.947,8,400,35,,ISIC_1711185.JPG
break,html.Screen,4_34_1,2023-11-02T01:13:24.174Z,,0,,,NaN,,,,,,false,,,,206041.8999999985,206041.6000000015,,206041.29999999702,,206047.947,8,400,,,
break_continue,html.Screen,4_34_2,2023-11-02T01:13:24.175Z,,0,,,NaN,,,,,,false,,,,206042.29999999702,206042.19999999553,,206042.1000000015,,206047.947,8,400,,,
sequence,flow.Sequence,4_34,2023-11-02T01:13:24.175Z,,0,,,2851.984999995533,completion,,,,,false,,,,206042.5,206042.19999999553,203173.504,203180,203190.215,206047.947,8,400,,,
trial,html.Screen,4_35_0,2023-11-02T01:13:27.691Z,,0,1,,3510.9529999985243,response,ISIC_0010034.JPG,6,ISIC_5272837.JPG,ISIC_5272837.JPG,false,0,keypress(z),500,209559.1000000015,209558.8999999985,206031.236,206042.69999999553,206047.947,209573.968,8,400,36,,ISIC_0010034.JPG
break,html.Screen,4_35_1,2023-11-02T01:13:27.692Z,,0,,,NaN,,,,,,false,,,,209559.8999999985,209559.6000000015,,209559.3999999985,,209573.968,8,400,,,
break_continue,html.Screen,4_35_2,2023-11-02T01:13:27.692Z,,0,,,NaN,,,,,,false,,,,209560.3999999985,209560.19999999553,,209560.1000000015,,209573.968,8,400,,,
sequence,flow.Sequence,4_35,2023-11-02T01:13:27.693Z,,0,,,3512.252999995544,completion,,,,,false,,,,209560.6000000015,209560.19999999553,206031.236,206042.69999999553,206047.947,209573.968,8,400,,,
trial,html.Screen,4_36_0,2023-11-02T01:13:32.386Z,,0,1,,4679.5320000000065,response,ISIC_7682938.JPG,7,ISIC_0063748.JPG,ISIC_0063748.JPG,false,0,keypress(z),500,214253.79999999702,214253.5,209557.257,209560.79999999702,209573.968,214269.994,8,400,37,,ISIC_7682938.JPG
break,html.Screen,4_36_1,2023-11-02T01:13:32.386Z,,0,,,NaN,,,,,,false,,,,214254.6000000015,214254.3999999985,,214254,,214269.994,8,400,,,
break_continue,html.Screen,4_36_2,2023-11-02T01:13:32.387Z,,0,,,NaN,,,,,,false,,,,214255.1000000015,214255,,214254.79999999702,,214269.994,8,400,,,
sequence,flow.Sequence,4_36,2023-11-02T01:13:32.387Z,,0,,,4681.0320000000065,completion,,,,,false,,,,214255.29999999702,214255,209557.257,209560.69999999553,209573.968,214269.994,8,400,,,
trial,html.Screen,4_37_0,2023-11-02T01:13:35.081Z,,0,1,,2679.405999998504,response,ISIC_0010433.JPG,5,ISIC_1910158.JPG,ISIC_0010433.JPG,false,1,keypress(m),500,216949.6000000015,216949.3999999985,214253.283,214255.6000000015,214269.994,216960.465,8,400,38,,ISIC_1910158.JPG
break,html.Screen,4_37_1,2023-11-02T01:13:35.082Z,,0,,,NaN,,,,,,false,,,,216950.29999999702,216950.19999999553,,216949.79999999702,,216960.465,8,400,,,
break_continue,html.Screen,4_37_2,2023-11-02T01:13:35.082Z,,0,,,NaN,,,,,,false,,,,216950.69999999553,216950.6000000015,,216950.5,,216960.465,8,400,,,
sequence,flow.Sequence,4_37,2023-11-02T01:13:35.083Z,,0,,,2680.606000001484,completion,,,,,false,,,,216951,216950.6000000015,214253.283,214255.3999999985,214269.994,216960.465,8,400,,,
trial,html.Screen,4_38_0,2023-11-02T01:13:38.097Z,,0,1,,3004.8349999970233,response,ISIC_9442018.JPG,5,ISIC_0011546.JPG,ISIC_9442018.JPG,false,1,keypress(m),500,219965.5,219965.29999999702,216943.754,216951.19999999553,216960.465,219968.445,8,400,39,,ISIC_0011546.JPG
break,html.Screen,4_38_1,2023-11-02T01:13:38.098Z,,0,,,NaN,,,,,,false,,,,219966.1000000015,219965.8999999985,,219965.69999999553,,219968.445,8,400,,,
break_continue,html.Screen,4_38_2,2023-11-02T01:13:38.098Z,,0,,,NaN,,,,,,false,,,,219966.5,219966.5,,219966.29999999702,,219968.445,8,400,,,
sequence,flow.Sequence,4_38,2023-11-02T01:13:38.098Z,,0,,,3006.0350000000035,completion,,,,,false,,,,219966.69999999553,219966.5,216943.754,216951.1000000015,216960.465,219968.445,8,400,,,
trial,html.Screen,4_39_0,2023-11-02T01:13:40.914Z,,0,1,,2813.954999998503,response,ISIC_6766153.JPG,7,ISIC_0071892.JPG,ISIC_0071892.JPG,false,0,keypress(z),500,222782.69999999553,222782.3999999985,219951.734,219966.8999999985,219968.445,222792.604,8,400,40,,ISIC_6766153.JPG
break,html.Screen,4_39_1,2023-11-02T01:13:40.915Z,,0,,,NaN,,,,,,false,,,,222783.5,222783.19999999553,,222782.8999999985,,222792.604,8,400,,,
break_continue,html.Screen,4_39_2,2023-11-02T01:13:40.915Z,,0,,,NaN,,,,,,false,,,,222783.8999999985,222783.69999999553,,222783.6000000015,,222792.604,8,400,,,
sequence,flow.Sequence,4_39,2023-11-02T01:13:40.916Z,,0,,,2815.2549999955227,completion,,,,,false,,,,222784.1000000015,222783.69999999553,219951.734,219966.79999999702,219968.445,222792.604,8,400,,,
trial,html.Screen,4_40_0,2023-11-02T01:13:43.537Z,,0,1,,2613.0959999955376,response,ISIC_0055079.JPG,6,ISIC_3021188.JPG,ISIC_0055079.JPG,false,1,keypress(m),500,225406,225405.69999999553,222775.893,222784.29999999702,222792.604,225416.406,8,400,41,,ISIC_3021188.JPG
break,html.Screen,4_40_1,2023-11-02T01:13:43.538Z,,0,,,NaN,,,,,,false,,,,225406.69999999553,225406.6000000015,,225406.19999999553,,225416.406,8,400,,,
break_continue,html.Screen,4_40_2,2023-11-02T01:13:43.538Z,,0,,,NaN,,,,,,false,,,,225407.19999999553,225407.1000000015,,225406.8999999985,,225416.406,8,400,,,
sequence,flow.Sequence,4_40,2023-11-02T01:13:43.539Z,,0,,,2614.496000001498,completion,,,,,false,,,,225407.5,225407.1000000015,222775.893,222784.19999999553,222792.604,225416.406,8,400,,,
trial,html.Screen,4_41_0,2023-11-02T01:13:48.459Z,,0,1,,4911.594000000012,response,ISIC_3649766.JPG,5,ISIC_4069836.JPG,ISIC_4069836.JPG,false,0,keypress(z),500,230328.3999999985,230328,225399.695,225407.6000000015,225416.406,230329.44,8,400,42,,ISIC_3649766.JPG
break,html.Screen,4_41_1,2023-11-02T01:13:48.460Z,,0,,,NaN,,,,,,false,,,,230329.1000000015,230328.8999999985,,230328.6000000015,,230329.44,8,400,,,
break_continue,html.Screen,4_41_2,2023-11-02T01:13:48.461Z,,0,,,NaN,,,,,,false,,,,230329.69999999553,230329.5,,230329.3999999985,,230329.44,8,400,,,
sequence,flow.Sequence,4_41,2023-11-02T01:13:48.461Z,,0,,,4913.094000000012,completion,,,,,false,,,,230329.79999999702,230329.5,225399.695,225407.5,225416.406,230329.44,8,400,,,
trial,html.Screen,4_42_0,2023-11-02T01:13:52.248Z,,0,1,,3787.660000001488,response,ISIC_5569091.JPG,5,ISIC_9005623.JPG,ISIC_9005623.JPG,false,0,keypress(z),500,234117.3999999985,234117.1000000015,230312.729,230330.19999999553,230329.44,234122.837,8,400,43,,ISIC_5569091.JPG
break,html.Screen,4_42_1,2023-11-02T01:13:52.249Z,,0,,,NaN,,,,,,false,,,,234118.19999999553,234118,,234117.6000000015,,234122.837,8,400,,,
break_continue,html.Screen,4_42_2,2023-11-02T01:13:52.250Z,,0,,,NaN,,,,,,false,,,,234118.69999999553,234118.6000000015,,234118.3999999985,,234122.837,8,400,,,
sequence,flow.Sequence,4_42,2023-11-02T01:13:52.250Z,,0,,,3789.160000001488,completion,,,,,false,,,,234118.8999999985,234118.6000000015,230312.729,230330,230329.44,234122.837,8,400,,,
trial,html.Screen,4_43_0,2023-11-02T01:13:56.070Z,,0,1,,3816.4629999970202,response,ISIC_5527224.JPG,5,ISIC_0057594.JPG,ISIC_5527224.JPG,false,1,keypress(m),500,237939.5,237939.29999999702,234106.126,234119.1000000015,234122.837,237949.813,8,400,44,,ISIC_0057594.JPG
break,html.Screen,4_43_1,2023-11-02T01:13:56.071Z,,0,,,NaN,,,,,,false,,,,237940.3999999985,237940.1000000015,,237939.69999999553,,237949.813,8,400,,,
break_continue,html.Screen,4_43_2,2023-11-02T01:13:56.071Z,,0,,,NaN,,,,,,false,,,,237940.8999999985,237940.69999999553,,237940.5,,237949.813,8,400,,,
sequence,flow.Sequence,4_43,2023-11-02T01:13:56.072Z,,0,,,3817.86299999553,completion,,,,,false,,,,237941.1000000015,237940.69999999553,234106.126,234119.1000000015,234122.837,237949.813,8,400,,,
trial,html.Screen,4_44_0,2023-11-02T01:14:00.695Z,,0,1,,4614.687000000005,response,ISIC_4237064.JPG,5,ISIC_0056466.JPG,ISIC_4237064.JPG,false,1,keypress(m),500,242564.69999999553,242564.5,237933.102,237941.29999999702,237949.813,242578.76,8,400,45,,ISIC_0056466.JPG
break,html.Screen,4_44_1,2023-11-02T01:14:00.696Z,,0,,,NaN,,,,,,false,,,,242565.69999999553,242565.29999999702,,242565,,242578.76,8,400,,,
break_continue,html.Screen,4_44_2,2023-11-02T01:14:00.697Z,,0,,,NaN,,,,,,false,,,,242566.1000000015,242566,,242565.79999999702,,242578.76,8,400,,,
sequence,flow.Sequence,4_44,2023-11-02T01:14:00.697Z,,0,,,4616.187000000005,completion,,,,,false,,,,242566.3999999985,242566,237933.102,237941.19999999553,237949.813,242578.76,8,400,,,
trial,html.Screen,4_45_0,2023-11-02T01:14:04.087Z,,0,1,,3377.1399999985006,response,ISIC_0068798.JPG,5,ISIC_2266715.JPG,ISIC_0068798.JPG,false,1,keypress(m),500,245956.29999999702,245955.8999999985,242562.049,242566.5,242578.76,245971.295,8,400,46,,ISIC_2266715.JPG
break,html.Screen,4_45_1,2023-11-02T01:14:04.087Z,,0,,,NaN,,,,,,false,,,,245957.19999999553,245956.8999999985,,245956.6000000015,,245971.295,8,400,,,
break_continue,html.Screen,4_45_2,2023-11-02T01:14:04.088Z,,0,,,NaN,,,,,,false,,,,245957.69999999553,245957.5,,245957.29999999702,,245971.295,8,400,,,
sequence,flow.Sequence,4_45,2023-11-02T01:14:04.088Z,,0,,,3378.7399999999907,completion,,,,,false,,,,245957.8999999985,245957.5,242562.049,242566.5,242578.76,245971.295,8,400,,,
trial,html.Screen,4_46_0,2023-11-02T01:14:06.723Z,,0,1,,2620.904999995517,response,ISIC_0010863.JPG,6,ISIC_9041897.JPG,ISIC_9041897.JPG,false,0,keypress(z),500,248592.5,248592.19999999553,245954.584,245958.1000000015,245971.295,248594.922,8,400,47,,ISIC_0010863.JPG
break,html.Screen,4_46_1,2023-11-02T01:14:06.723Z,,0,,,NaN,,,,,,false,,,,248593.19999999553,248593,,248592.69999999553,,248594.922,8,400,,,
break_continue,html.Screen,4_46_2,2023-11-02T01:14:06.724Z,,0,,,NaN,,,,,,false,,,,248593.6000000015,248593.5,,248593.3999999985,,248594.922,8,400,,,
sequence,flow.Sequence,4_46,2023-11-02T01:14:06.724Z,,0,,,2622.204999999987,completion,,,,,false,,,,248594,248593.5,245954.584,245958,245971.295,248594.922,8,400,,,
trial,html.Screen,4_47_0,2023-11-02T01:14:10.011Z,,0,1,,3285.2779999955383,response,ISIC_4819371.JPG,6,ISIC_4142019.JPG,ISIC_4819371.JPG,false,1,keypress(m),500,251880.6000000015,251880.19999999553,248578.211,248594.19999999553,248594.922,251886.989,8,400,48,,ISIC_4142019.JPG
break,html.Screen,4_47_1,2023-11-02T01:14:10.011Z,,0,,,NaN,,,,,,false,,,,251881.3999999985,251881.19999999553,,251880.79999999702,,251886.989,8,400,,,
break_continue,html.Screen,4_47_2,2023-11-02T01:14:10.012Z,,0,,,NaN,,,,,,false,,,,251881.8999999985,251881.69999999553,,251881.5,,251886.989,8,400,,,
sequence,flow.Sequence,4_47,2023-11-02T01:14:10.012Z,,0,,,3286.7779999955383,completion,,,,,false,,,,251882.1000000015,251881.69999999553,248578.211,248594.1000000015,248594.922,251886.989,8,400,,,
trial,html.Screen,4_48_0,2023-11-02T01:14:14.905Z,,0,1,,4888.4109999985085,response,ISIC_5010212.JPG,8,ISIC_0026166.JPG,ISIC_0026166.JPG,false,0,keypress(z),500,256775.69999999553,256775.3999999985,251870.278,251882.5,251886.989,256783.544,8,400,49,,ISIC_5010212.JPG
break,html.Screen,4_48_1,2023-11-02T01:14:14.906Z,,0,,,NaN,,,,,,false,,,,256776.6000000015,256776.29999999702,,256775.8999999985,,256783.544,8,400,,,
break_continue,html.Screen,4_48_2,2023-11-02T01:14:14.907Z,,0,,,NaN,,,,,,false,,,,256777,256776.8999999985,,256776.69999999553,,256783.544,8,400,,,
sequence,flow.Sequence,4_48,2023-11-02T01:14:14.907Z,,0,,,4889.9109999985085,completion,,,,,false,,,,256777.29999999702,256776.8999999985,251870.278,251882.29999999702,251886.989,256783.544,8,400,,,
trial,html.Screen,4_49_0,2023-11-02T01:14:17.723Z,,0,1,,2809.4560000000056,response,ISIC_3072382.JPG,6,ISIC_3564136.JPG,ISIC_3072382.JPG,false,1,keypress(m),500,259593.19999999553,259593,256766.833,256777.5,256783.544,259607.703,8,400,50,,ISIC_3564136.JPG
break,html.Screen,4_49_1,2023-11-02T01:14:27.715Z,,0,,,9993.177999999985,timeout,,,,,false,,,,269585.3999999985,269584.17,259590.992,259593.5,259607.703,269600.881,8,400,,,
break_continue,html.Screen,4_49_2,2023-11-02T01:14:28.946Z,,0,,,1199.018999998516,response,,,,,false,continue,keypress(Space),,270817.1000000015,270799.8999999985,269584.17,269585.6000000015,269600.881,270820.784,8,400,,,
sequence,flow.Sequence,4_49,2023-11-02T01:14:28.946Z,,0,,,14016.355999998515,completion,,,,,false,,,,270817.299999997,270799.8999999985,256766.833,256777.3999999985,256783.544,270820.784,8,400,,,
trial,html.Screen,4_50_0,2023-11-02T01:14:33.504Z,,0,2,,4554.316000001505,response,ISIC_0004558.JPG,4,ISIC_0033664.JPG,ISIC_0033664.JPG,false,0,keypress(z),500,275375.299999997,275375.1000000015,270804.073,270817.3999999985,270820.784,275382.887,8,400,1,,ISIC_0004558.JPG
break,html.Screen,4_50_1,2023-11-02T01:14:33.505Z,,0,,,NaN,,,,,,false,,,,275376.1000000015,275375.799999997,,275375.6000000015,,275382.887,8,400,,,
break_continue,html.Screen,4_50_2,2023-11-02T01:14:33.505Z,,0,,,NaN,,,,,,false,,,,275376.6000000015,275376.3999999985,,275376.19999999553,,275382.887,8,400,,,
sequence,flow.Sequence,4_50,2023-11-02T01:14:33.506Z,,0,,,4555.615999998525,completion,,,,,false,,,,275376.69999999553,275376.3999999985,270804.073,270817.3999999985,270820.784,275382.887,8,400,,,
trial,html.Screen,4_51_0,2023-11-02T01:14:36.271Z,,0,2,,2758.8129999955418,response,ISIC_0031021.JPG,4,ISIC_0030047.JPG,ISIC_0030047.JPG,false,0,keypress(z),500,278141.8999999985,278141.69999999553,275366.176,275376.8999999985,275382.887,278157.215,8,400,2,,ISIC_0031021.JPG
break,html.Screen,4_51_1,2023-11-02T01:14:36.272Z,,0,,,NaN,,,,,,false,,,,278142.799999997,278142.6000000015,,278142.19999999553,,278157.215,8,400,,,
break_continue,html.Screen,4_51_2,2023-11-02T01:14:36.272Z,,0,,,NaN,,,,,,false,,,,278143.19999999553,278143.1000000015,,278143,,278157.215,8,400,,,
sequence,flow.Sequence,4_51,2023-11-02T01:14:36.272Z,,0,,,2760.213000001502,completion,,,,,false,,,,278143.3999999985,278143.1000000015,275366.176,275376.8999999985,275382.887,278157.215,8,400,,,
trial,html.Screen,4_52_0,2023-11-02T01:14:38.843Z,,0,2,,2556.484999995504,response,ISIC_2051278.JPG,4,ISIC_0030922.JPG,ISIC_0030922.JPG,false,0,keypress(z),500,280713.8999999985,280713.69999999553,278140.504,278143.6000000015,278157.215,280730.709,8,400,3,,ISIC_2051278.JPG
break,html.Screen,4_52_1,2023-11-02T01:14:38.843Z,,0,,,NaN,,,,,,false,,,,280714.799999997,280714.5,,280714.19999999553,,280730.709,8,400,,,
break_continue,html.Screen,4_52_2,2023-11-02T01:14:38.844Z,,0,,,NaN,,,,,,false,,,,280715.19999999553,280715.1000000015,,280714.8999999985,,280730.709,8,400,,,
sequence,flow.Sequence,4_52,2023-11-02T01:14:38.844Z,,0,,,2557.8850000014645,completion,,,,,false,,,,280715.5,280715.1000000015,278140.504,278143.5,278157.215,280730.709,8,400,,,
trial,html.Screen,4_53_0,2023-11-02T01:14:42.159Z,,0,2,,3299.2910000000265,response,ISIC_0033843.JPG,8,ISIC_0029970.JPG,ISIC_0033843.JPG,false,1,keypress(m),500,284030.299999997,284030,280713.998,280715.799999997,280730.709,284039.487,8,400,4,,ISIC_0029970.JPG
break,html.Screen,4_53_1,2023-11-02T01:14:42.160Z,,0,,,NaN,,,,,,false,,,,284031.19999999553,284030.8999999985,,284030.6000000015,,284039.487,8,400,,,
break_continue,html.Screen,4_53_2,2023-11-02T01:14:42.160Z,,0,,,NaN,,,,,,false,,,,284031.6000000015,284031.5,,284031.3999999985,,284039.487,8,400,,,
sequence,flow.Sequence,4_53,2023-11-02T01:14:42.160Z,,0,,,3300.7910000000265,completion,,,,,false,,,,284031.8999999985,284031.5,280713.998,280715.6000000015,280730.709,284039.487,8,400,,,
trial,html.Screen,4_54_0,2023-11-02T01:14:45.083Z,,0,2,,2914.912999998487,response,ISIC_0197873.JPG,7,ISIC_0033585.JPG,ISIC_0033585.JPG,false,0,keypress(z),500,286954.799999997,286954.3999999985,284022.776,284032.1000000015,284039.487,286964.148,8,400,5,,ISIC_0197873.JPG
break,html.Screen,4_54_1,2023-11-02T01:14:45.084Z,,0,,,NaN,,,,,,false,,,,286955.6000000015,286955.299999997,,286955,,286964.148,8,400,,,
break_continue,html.Screen,4_54_2,2023-11-02T01:14:45.084Z,,0,,,NaN,,,,,,false,,,,286956.1000000015,286955.8999999985,,286955.799999997,,286964.148,8,400,,,
sequence,flow.Sequence,4_54,2023-11-02T01:14:45.085Z,,0,,,2916.412999998487,completion,,,,,false,,,,286956.19999999553,286955.8999999985,284022.776,284032,284039.487,286964.148,8,400,,,
trial,html.Screen,4_55_0,2023-11-02T01:14:47.819Z,,0,2,,2725.9520000015036,response,ISIC_8195528.JPG,6,ISIC_0066749.JPG,ISIC_0066749.JPG,false,0,keypress(z),500,289690.3999999985,289690.1000000015,286947.437,286956.6000000015,286964.148,289704.752,8,400,6,,ISIC_8195528.JPG
break,html.Screen,4_55_1,2023-11-02T01:14:47.819Z,,0,,,NaN,,,,,,false,,,,289691.19999999553,289690.8999999985,,289690.6000000015,,289704.752,8,400,,,
break_continue,html.Screen,4_55_2,2023-11-02T01:14:47.820Z,,0,,,NaN,,,,,,false,,,,289691.69999999553,289691.5,,289691.299999997,,289704.752,8,400,,,
sequence,flow.Sequence,4_55,2023-11-02T01:14:47.820Z,,0,,,2727.3520000000135,completion,,,,,false,,,,289691.799999997,289691.5,286947.437,286956.3999999985,286964.148,289704.752,8,400,,,
trial,html.Screen,4_56_0,2023-11-02T01:14:51.278Z,,0,2,,3444.947999995551,response,ISIC_5919355.JPG,7,ISIC_2354070.JPG,ISIC_2354070.JPG,false,0,keypress(z),500,293150,293149.69999999553,289688.041,289692.1000000015,289704.752,293163.929,8,400,7,,ISIC_5919355.JPG
break,html.Screen,4_56_1,2023-11-02T01:14:51.279Z,,0,,,NaN,,,,,,false,,,,293150.8999999985,293150.6000000015,,293150.299999997,,293163.929,8,400,,,
break_continue,html.Screen,4_56_2,2023-11-02T01:14:51.279Z,,0,,,NaN,,,,,,false,,,,293151.299999997,293151.19999999553,,293151,,293163.929,8,400,,,
sequence,flow.Sequence,4_56,2023-11-02T01:14:51.280Z,,0,,,3446.447999995551,completion,,,,,false,,,,293151.5,293151.19999999553,289688.041,289692,289704.752,293163.929,8,400,,,
trial,html.Screen,4_57_0,2023-11-02T01:14:54.001Z,,0,2,,2709.0709999999963,response,ISIC_0031246.JPG,5,ISIC_7407847.JPG,ISIC_7407847.JPG,false,0,keypress(z),500,295873.3999999985,295873,293147.218,293151.69999999553,293163.929,295887.822,8,400,8,,ISIC_0031246.JPG
break,html.Screen,4_57_1,2023-11-02T01:14:54.002Z,,0,,,NaN,,,,,,false,,,,295874.299999997,295874.1000000015,,295873.69999999553,,295887.822,8,400,,,
break_continue,html.Screen,4_57_2,2023-11-02T01:14:54.003Z,,0,,,NaN,,,,,,false,,,,295874.8999999985,295874.6000000015,,295874.5,,295887.822,8,400,,,
sequence,flow.Sequence,4_57,2023-11-02T01:14:54.003Z,,0,,,2710.6710000014864,completion,,,,,false,,,,295875.19999999553,295874.6000000015,293147.218,293151.69999999553,293163.929,295887.822,8,400,,,
trial,html.Screen,4_58_0,2023-11-02T01:14:57.217Z,,0,2,,3201.1780000000144,response,ISIC_3530422.JPG,6,ISIC_3944634.JPG,ISIC_3944634.JPG,false,0,keypress(z),500,299089.299999997,299089,295871.111,295875.299999997,295887.822,299096.49,8,400,9,,ISIC_3530422.JPG
break,html.Screen,4_58_1,2023-11-02T01:14:57.218Z,,0,,,NaN,,,,,,false,,,,299090.1000000015,299089.8999999985,,299089.5,,299096.49,8,400,,,
break_continue,html.Screen,4_58_2,2023-11-02T01:14:57.218Z,,0,,,NaN,,,,,,false,,,,299090.6000000015,299090.3999999985,,299090.19999999553,,299096.49,8,400,,,
sequence,flow.Sequence,4_58,2023-11-02T01:14:57.219Z,,0,,,3202.5779999985243,completion,,,,,false,,,,299090.69999999553,299090.3999999985,295871.111,295875.19999999553,295887.822,299096.49,8,400,,,
trial,html.Screen,4_59_0,2023-11-02T01:15:00.711Z,,0,2,,3487.1100000014994,response,ISIC_0002862.JPG,6,ISIC_0668772.JPG,ISIC_0002862.JPG,false,1,keypress(m),500,302583.8999999985,302583.6000000015,299079.779,299091,299096.49,302589.089,8,400,10,,ISIC_0668772.JPG
break,html.Screen,4_59_1,2023-11-02T01:15:00.712Z,,0,,,NaN,,,,,,false,,,,302584.6000000015,302584.5,,302584.1000000015,,302589.089,8,400,,,
break_continue,html.Screen,4_59_2,2023-11-02T01:15:00.713Z,,0,,,NaN,,,,,,false,,,,302585.1000000015,302585,,302584.799999997,,302589.089,8,400,,,
sequence,flow.Sequence,4_59,2023-11-02T01:15:00.713Z,,0,,,3488.5100000000093,completion,,,,,false,,,,302585.299999997,302585,299079.779,299090.8999999985,299096.49,302589.089,8,400,,,
trial,html.Screen,4_60_0,2023-11-02T01:15:03.662Z,,0,2,,2945.2109999970417,response,ISIC_0026369.JPG,5,ISIC_0034117.JPG,ISIC_0026369.JPG,false,1,keypress(m),500,305534.6000000015,305534.299999997,302572.378,302585.5,302589.089,305546.936,8,400,11,,ISIC_0034117.JPG
break,html.Screen,4_60_1,2023-11-02T01:15:03.663Z,,0,,,NaN,,,,,,false,,,,305535.5,305535.19999999553,,305534.799999997,,305546.936,8,400,,,
break_continue,html.Screen,4_60_2,2023-11-02T01:15:03.663Z,,0,,,NaN,,,,,,false,,,,305536,305535.799999997,,305535.69999999553,,305546.936,8,400,,,
sequence,flow.Sequence,4_60,2023-11-02T01:15:03.664Z,,0,,,2946.7109999970417,completion,,,,,false,,,,305536.19999999553,305535.799999997,302572.378,302585.3999999985,302589.089,305546.936,8,400,,,
trial,html.Screen,4_61_0,2023-11-02T01:15:07.345Z,,0,2,,3670.664000001503,response,ISIC_9278685.JPG,4,ISIC_2394181.JPG,ISIC_9278685.JPG,false,1,keypress(m),500,309217.8999999985,309217.6000000015,305530.225,305536.3999999985,305546.936,309223.562,8,400,12,,ISIC_2394181.JPG
break,html.Screen,4_61_1,2023-11-02T01:15:07.346Z,,0,,,NaN,,,,,,false,,,,309218.69999999553,309218.3999999985,,309218,,309223.562,8,400,,,
break_continue,html.Screen,4_61_2,2023-11-02T01:15:07.346Z,,0,,,NaN,,,,,,false,,,,309219.19999999553,309219,,309218.799999997,,309223.562,8,400,,,
sequence,flow.Sequence,4_61,2023-11-02T01:15:07.347Z,,0,,,3672.064000000013,completion,,,,,false,,,,309219.3999999985,309219,305530.225,305536.3999999985,305546.936,309223.562,8,400,,,
trial,html.Screen,4_62_0,2023-11-02T01:15:10.343Z,,0,2,,2992.2379999970435,response,ISIC_0013678.JPG,5,ISIC_0056228.JPG,ISIC_0013678.JPG,false,1,keypress(m),500,312216,312215.799999997,309206.851,309219.5,309223.562,312231.542,8,400,13,,ISIC_0056228.JPG
break,html.Screen,4_62_1,2023-11-02T01:15:10.344Z,,0,,,NaN,,,,,,false,,,,312216.8999999985,312216.6000000015,,312216.299999997,,312231.542,8,400,,,
break_continue,html.Screen,4_62_2,2023-11-02T01:15:10.344Z,,0,,,NaN,,,,,,false,,,,312217.299999997,312217.1000000015,,312217,,312231.542,8,400,,,
sequence,flow.Sequence,4_62,2023-11-02T01:15:10.345Z,,0,,,2993.538000001514,completion,,,,,false,,,,312217.6000000015,312217.1000000015,309206.851,309219.5,309223.562,312231.542,8,400,,,
trial,html.Screen,4_63_0,2023-11-02T01:15:13.515Z,,0,2,,3156.257999997004,response,ISIC_0066626.JPG,4,ISIC_9034574.JPG,ISIC_0066626.JPG,false,1,keypress(m),500,315388,315387.799999997,312214.831,312217.799999997,312231.542,315406.632,8,400,14,,ISIC_9034574.JPG
break,html.Screen,4_63_1,2023-11-02T01:15:13.516Z,,0,,,NaN,,,,,,false,,,,315388.8999999985,315388.69999999553,,315388.299999997,,315406.632,8,400,,,
break_continue,html.Screen,4_63_2,2023-11-02T01:15:13.516Z,,0,,,NaN,,,,,,false,,,,315389.3999999985,315389.19999999553,,315389.1000000015,,315406.632,8,400,,,
sequence,flow.Sequence,4_63,2023-11-02T01:15:13.517Z,,0,,,3157.657999995514,completion,,,,,false,,,,315389.5,315389.19999999553,312214.831,312217.6000000015,312231.542,315406.632,8,400,,,
trial,html.Screen,4_64_0,2023-11-02T01:15:17.102Z,,0,2,,3568.3680000000168,response,ISIC_1110583.JPG,6,ISIC_0061315.JPG,ISIC_1110583.JPG,false,1,keypress(m),500,318975.299999997,318975,315389.921,315389.69999999553,315406.632,318982.964,8,400,15,,ISIC_0061315.JPG
break,html.Screen,4_64_1,2023-11-02T01:15:17.103Z,,0,,,NaN,,,,,,false,,,,318976.1000000015,318975.799999997,,318975.5,,318982.964,8,400,,,
break_continue,html.Screen,4_64_2,2023-11-02T01:15:17.103Z,,0,,,NaN,,,,,,false,,,,318976.5,318976.3999999985,,318976.19999999553,,318982.964,8,400,,,
sequence,flow.Sequence,4_64,2023-11-02T01:15:17.104Z,,0,,,3569.7679999985266,completion,,,,,false,,,,318976.69999999553,318976.3999999985,315389.921,315389.6000000015,315406.632,318982.964,8,400,,,
trial,html.Screen,4_65_0,2023-11-02T01:15:20.757Z,,0,2,,3647.036000000022,response,ISIC_0028027.JPG,7,ISIC_7268123.JPG,ISIC_0028027.JPG,false,1,keypress(m),500,322630.299999997,322630,318966.253,318977,318982.964,322642.673,8,400,16,,ISIC_7268123.JPG
break,html.Screen,4_65_1,2023-11-02T01:15:20.758Z,,0,,,NaN,,,,,,false,,,,322631.299999997,322631,,322630.6000000015,,322642.673,8,400,,,
break_continue,html.Screen,4_65_2,2023-11-02T01:15:20.758Z,,0,,,NaN,,,,,,false,,,,322631.69999999553,322631.5,,322631.3999999985,,322642.673,8,400,,,
sequence,flow.Sequence,4_65,2023-11-02T01:15:20.758Z,,0,,,3648.536000000022,completion,,,,,false,,,,322631.8999999985,322631.5,318966.253,318976.8999999985,318982.964,322642.673,8,400,,,
trial,html.Screen,4_66_0,2023-11-02T01:15:24.371Z,,0,2,,3601.7269999985,response,ISIC_0011344.JPG,5,ISIC_0072943.JPG,ISIC_0072943.JPG,false,0,keypress(z),500,326244.799999997,326244.3999999985,322625.962,322632.1000000015,322642.673,326252.249,8,400,17,,ISIC_0011344.JPG
break,html.Screen,4_66_1,2023-11-02T01:15:24.372Z,,0,,,NaN,,,,,,false,,,,326245.5,326245.299999997,,326244.8999999985,,326252.249,8,400,,,
break_continue,html.Screen,4_66_2,2023-11-02T01:15:24.372Z,,0,,,NaN,,,,,,false,,,,326245.8999999985,326245.69999999553,,326245.6000000015,,326252.249,8,400,,,
sequence,flow.Sequence,4_66,2023-11-02T01:15:24.373Z,,0,,,3603.02699999552,completion,,,,,false,,,,326246.1000000015,326245.69999999553,322625.962,322632,322642.673,326252.249,8,400,,,
trial,html.Screen,4_67_0,2023-11-02T01:15:28.136Z,,0,2,,3757.150999998499,response,ISIC_5514594.JPG,6,ISIC_6162308.JPG,ISIC_5514594.JPG,false,1,keypress(m),500,330009.69999999553,330009.3999999985,326235.538,326246.299999997,326252.249,330012.404,8,400,18,,ISIC_6162308.JPG
break,html.Screen,4_67_1,2023-11-02T01:15:28.137Z,,0,,,NaN,,,,,,false,,,,330010.3999999985,330010.19999999553,,330010,,330012.404,8,400,,,
break_continue,html.Screen,4_67_2,2023-11-02T01:15:28.137Z,,0,,,NaN,,,,,,false,,,,330010.8999999985,330010.799999997,,330010.6000000015,,330012.404,8,400,,,
sequence,flow.Sequence,4_67,2023-11-02T01:15:28.137Z,,0,,,3758.550999997009,completion,,,,,false,,,,330011.1000000015,330010.799999997,326235.538,326246.19999999553,326252.249,330012.404,8,400,,,
trial,html.Screen,4_68_0,2023-11-02T01:15:31.001Z,,0,2,,2861.6960000015097,response,ISIC_0025397.JPG,8,ISIC_7592920.JPG,ISIC_7592920.JPG,false,0,keypress(z),500,332874.5,332874.1000000015,329995.693,330011.299999997,330012.404,332886.696,8,400,19,,ISIC_0025397.JPG
break,html.Screen,4_68_1,2023-11-02T01:15:31.002Z,,0,,,NaN,,,,,,false,,,,332875.5,332875.1000000015,,332874.69999999553,,332886.696,8,400,,,
break_continue,html.Screen,4_68_2,2023-11-02T01:15:31.002Z,,0,,,NaN,,,,,,false,,,,332876.1000000015,332875.8999999985,,332875.6000000015,,332886.696,8,400,,,
sequence,flow.Sequence,4_68,2023-11-02T01:15:31.002Z,,0,,,2863.4959999985294,completion,,,,,false,,,,332876.3999999985,332875.8999999985,329995.693,330011.299999997,330012.404,332886.696,8,400,,,
trial,html.Screen,4_69_0,2023-11-02T01:15:34.278Z,,0,2,,3265.404000001494,response,ISIC_0010629.JPG,5,ISIC_0032996.JPG,ISIC_0032996.JPG,false,0,keypress(z),500,336152.3999999985,336152.1000000015,332869.985,332876.69999999553,332886.696,336178.763,8,400,20,,ISIC_0010629.JPG
break,html.Screen,4_69_1,2023-11-02T01:15:34.279Z,,0,,,NaN,,,,,,false,,,,336153.19999999553,336153,,336152.69999999553,,336178.763,8,400,,,
break_continue,html.Screen,4_69_2,2023-11-02T01:15:34.280Z,,0,,,NaN,,,,,,false,,,,336153.799999997,336153.6000000015,,336153.3999999985,,336178.763,8,400,,,
sequence,flow.Sequence,4_69,2023-11-02T01:15:34.280Z,,0,,,3266.904000001494,completion,,,,,false,,,,336154.1000000015,336153.6000000015,332869.985,332876.6000000015,332886.696,336178.763,8,400,,,
trial,html.Screen,4_70_0,2023-11-02T01:15:36.927Z,,0,2,,2621.9369999955525,response,ISIC_0069204.JPG,6,ISIC_0025996.JPG,ISIC_0069204.JPG,false,1,keypress(m),500,338801.1000000015,338800.69999999553,336162.052,336154.299999997,336178.763,338802.39,8,400,21,,ISIC_0025996.JPG
break,html.Screen,4_70_1,2023-11-02T01:15:36.928Z,,0,,,NaN,,,,,,false,,,,338801.8999999985,338801.6000000015,,338801.299999997,,338802.39,8,400,,,
break_continue,html.Screen,4_70_2,2023-11-02T01:15:36.928Z,,0,,,NaN,,,,,,false,,,,338802.3999999985,338802.1000000015,,338802,,338802.39,8,400,,,
sequence,flow.Sequence,4_70,2023-11-02T01:15:36.928Z,,0,,,2623.337000001513,completion,,,,,false,,,,338802.6000000015,338802.1000000015,336162.052,336154.19999999553,336178.763,338802.39,8,400,,,
trial,html.Screen,4_71_0,2023-11-02T01:15:39.941Z,,0,2,,3012.109999999986,response,ISIC_8618835.JPG,7,ISIC_0029905.JPG,ISIC_0029905.JPG,false,0,keypress(z),500,341814.69999999553,341814.5,338785.679,338802.69999999553,338802.39,341827.265,8,400,22,,ISIC_8618835.JPG
break,html.Screen,4_71_1,2023-11-02T01:15:39.941Z,,0,,,NaN,,,,,,false,,,,341815.5,341815.299999997,,341815,,341827.265,8,400,,,
break_continue,html.Screen,4_71_2,2023-11-02T01:15:39.942Z,,0,,,NaN,,,,,,false,,,,341816.1000000015,341815.799999997,,341815.69999999553,,341827.265,8,400,,,
sequence,flow.Sequence,4_71,2023-11-02T01:15:39.942Z,,0,,,3013.409999997006,completion,,,,,false,,,,341816.299999997,341815.799999997,338785.679,338802.69999999553,338802.39,341827.265,8,400,,,
trial,html.Screen,4_72_0,2023-11-02T01:15:42.418Z,,0,2,,2465.234999999986,response,ISIC_0428383.JPG,6,ISIC_0011139.JPG,ISIC_0428383.JPG,false,1,keypress(m),500,344292.799999997,344292.5,341810.554,341816.5,341827.265,344300.493,8,400,23,,ISIC_0011139.JPG
break,html.Screen,4_72_1,2023-11-02T01:15:42.419Z,,0,,,NaN,,,,,,false,,,,344293.69999999553,344293.3999999985,,344293,,344300.493,8,400,,,
break_continue,html.Screen,4_72_2,2023-11-02T01:15:42.420Z,,0,,,NaN,,,,,,false,,,,344294.1000000015,344293.8999999985,,344293.8999999985,,344300.493,8,400,,,
sequence,flow.Sequence,4_72,2023-11-02T01:15:42.420Z,,0,,,2466.634999998496,completion,,,,,false,,,,344294.3999999985,344293.8999999985,341810.554,341816.3999999985,341827.265,344300.493,8,400,,,
trial,html.Screen,4_73_0,2023-11-02T01:15:45.047Z,,0,2,,2621.0069999999832,response,ISIC_0068166.JPG,6,ISIC_0014428.JPG,ISIC_0014428.JPG,false,0,keypress(z),500,346921.799999997,346921.5,344283.782,344294.6000000015,344300.493,346924.12,8,400,24,,ISIC_0068166.JPG
break,html.Screen,4_73_1,2023-11-02T01:15:45.048Z,,0,,,NaN,,,,,,false,,,,346922.6000000015,346922.3999999985,,346922.1000000015,,346924.12,8,400,,,
break_continue,html.Screen,4_73_2,2023-11-02T01:15:45.049Z,,0,,,NaN,,,,,,false,,,,346923.19999999553,346923,,346922.799999997,,346924.12,8,400,,,
sequence,flow.Sequence,4_73,2023-11-02T01:15:45.049Z,,0,,,2622.5069999999832,completion,,,,,false,,,,346923.5,346923,344283.782,344294.6000000015,344300.493,346924.12,8,400,,,
trial,html.Screen,4_74_0,2023-11-02T01:15:48.228Z,,0,2,,3178.1799999970244,response,ISIC_1939413.JPG,7,ISIC_0033830.JPG,ISIC_1939413.JPG,false,1,keypress(m),500,350102.6000000015,350102.299999997,346907.409,346923.799999997,346924.12,350115.921,8,400,25,,ISIC_0033830.JPG
break,html.Screen,4_74_1,2023-11-02T01:15:48.229Z,,0,,,NaN,,,,,,false,,,,350103.3999999985,350103.19999999553,,350102.8999999985,,350115.921,8,400,,,
break_continue,html.Screen,4_74_2,2023-11-02T01:15:48.229Z,,0,,,NaN,,,,,,false,,,,350103.8999999985,350103.799999997,,350103.6000000015,,350115.921,8,400,,,
sequence,flow.Sequence,4_74,2023-11-02T01:15:48.230Z,,0,,,3179.6799999970244,completion,,,,,false,,,,350104.19999999553,350103.799999997,346907.409,346923.6000000015,346924.12,350115.921,8,400,,,
trial,html.Screen,4_75_0,2023-11-02T01:15:51.561Z,,0,2,,3320.079000000027,response,ISIC_0031350.JPG,7,ISIC_0030089.JPG,ISIC_0030089.JPG,false,0,keypress(z),500,353436.299999997,353436,350099.21,350104.3999999985,350115.921,353441.641,8,400,26,,ISIC_0031350.JPG
break,html.Screen,4_75_1,2023-11-02T01:15:51.562Z,,0,,,NaN,,,,,,false,,,,353437.19999999553,353436.8999999985,,353436.6000000015,,353441.641,8,400,,,
break_continue,html.Screen,4_75_2,2023-11-02T01:15:51.563Z,,0,,,NaN,,,,,,false,,,,353437.6000000015,353437.3999999985,,353437.299999997,,353441.641,8,400,,,
sequence,flow.Sequence,4_75,2023-11-02T01:15:51.563Z,,0,,,3321.478999998537,completion,,,,,false,,,,353437.799999997,353437.3999999985,350099.21,350104.3999999985,350115.921,353441.641,8,400,,,
trial,html.Screen,4_76_0,2023-11-02T01:15:55.011Z,,0,2,,3444.1589999970165,response,ISIC_0033192.JPG,5,ISIC_0063061.JPG,ISIC_0063061.JPG,false,0,keypress(z),500,356886.1000000015,356885.799999997,353424.93,353438,353441.641,356900.818,8,400,27,,ISIC_0033192.JPG
break,html.Screen,4_76_1,2023-11-02T01:15:55.012Z,,0,,,NaN,,,,,,false,,,,356886.69999999553,356886.6000000015,,356886.299999997,,356900.818,8,400,,,
break_continue,html.Screen,4_76_2,2023-11-02T01:15:55.012Z,,0,,,NaN,,,,,,false,,,,356887.19999999553,356887.1000000015,,356887,,356900.818,8,400,,,
sequence,flow.Sequence,4_76,2023-11-02T01:15:55.012Z,,0,,,3445.459000001487,completion,,,,,false,,,,356887.5,356887.1000000015,353424.93,353437.8999999985,353441.641,356900.818,8,400,,,
trial,html.Screen,4_77_0,2023-11-02T01:16:01.820Z,,0,2,,6794.282000001462,response,ISIC_0064979.JPG,5,ISIC_0062997.JPG,ISIC_0064979.JPG,false,1,keypress(m),500,363695.299999997,363695.1000000015,356884.107,356887.6000000015,356900.818,363702.439,8,400,28,,ISIC_0062997.JPG
break,html.Screen,4_77_1,2023-11-02T01:16:01.821Z,,0,,,NaN,,,,,,false,,,,363696,363695.799999997,,363695.3999999985,,363702.439,8,400,,,
break_continue,html.Screen,4_77_2,2023-11-02T01:16:01.821Z,,0,,,NaN,,,,,,false,,,,363696.299999997,363696.19999999553,,363696.1000000015,,363702.439,8,400,,,
sequence,flow.Sequence,4_77,2023-11-02T01:16:01.821Z,,0,,,6795.381999995501,completion,,,,,false,,,,363696.3999999985,363696.19999999553,356884.107,356887.6000000015,356900.818,363702.439,8,400,,,
trial,html.Screen,4_78_0,2023-11-02T01:16:05.717Z,,0,2,,3890.060999999987,response,ISIC_0010775.JPG,4,ISIC_8357415.JPG,ISIC_0010775.JPG,false,1,keypress(m),500,367592.799999997,367592.5,363685.728,363696.6000000015,363702.439,367596.102,8,400,29,,ISIC_8357415.JPG
break,html.Screen,4_78_1,2023-11-02T01:16:05.718Z,,0,,,NaN,,,,,,false,,,,367593.69999999553,367593.3999999985,,367593,,367596.102,8,400,,,
break_continue,html.Screen,4_78_2,2023-11-02T01:16:05.718Z,,0,,,NaN,,,,,,false,,,,367594,367593.799999997,,367593.799999997,,367596.102,8,400,,,
sequence,flow.Sequence,4_78,2023-11-02T01:16:05.719Z,,0,,,3891.3609999970067,completion,,,,,false,,,,367594.19999999553,367593.799999997,363685.728,363696.5,363702.439,367596.102,8,400,,,
trial,html.Screen,4_79_0,2023-11-02T01:16:08.631Z,,0,2,,2910.3979999999865,response,ISIC_0682543.JPG,7,ISIC_1018265.JPG,ISIC_0682543.JPG,false,1,keypress(m),500,370506.8999999985,370506.5,367579.391,367594.3999999985,367596.102,370520.527,8,400,30,,ISIC_1018265.JPG
break,html.Screen,4_79_1,2023-11-02T01:16:08.632Z,,0,,,NaN,,,,,,false,,,,370507.799999997,370507.5,,370507,,370520.527,8,400,,,
break_continue,html.Screen,4_79_2,2023-11-02T01:16:08.633Z,,0,,,NaN,,,,,,false,,,,370508.19999999553,370508.1000000015,,370507.8999999985,,370520.527,8,400,,,
sequence,flow.Sequence,4_79,2023-11-02T01:16:08.633Z,,0,,,2911.9980000014766,completion,,,,,false,,,,370508.299999997,370508.1000000015,367579.391,367594.299999997,367596.102,370520.527,8,400,,,
trial,html.Screen,4_80_0,2023-11-02T01:16:11.876Z,,0,2,,3231.172999995528,response,ISIC_8956001.JPG,7,ISIC_0032001.JPG,ISIC_8956001.JPG,false,1,keypress(m),500,373751.8999999985,373751.69999999553,370503.816,370508.6000000015,370520.527,373762.613,8,400,31,,ISIC_0032001.JPG
break,html.Screen,4_80_1,2023-11-02T01:16:11.877Z,,0,,,NaN,,,,,,false,,,,373752.799999997,373752.6000000015,,373752.1000000015,,373762.613,8,400,,,
break_continue,html.Screen,4_80_2,2023-11-02T01:16:11.877Z,,0,,,NaN,,,,,,false,,,,373753.19999999553,373753.1000000015,,373753,,373762.613,8,400,,,
sequence,flow.Sequence,4_80,2023-11-02T01:16:11.878Z,,0,,,3232.5730000014883,completion,,,,,false,,,,373753.3999999985,373753.1000000015,370503.816,370508.5,370520.527,373762.613,8,400,,,
trial,html.Screen,4_81_0,2023-11-02T01:16:15.114Z,,0,2,,3227.1869999970077,response,ISIC_0030795.JPG,6,ISIC_0071947.JPG,ISIC_0071947.JPG,false,0,keypress(z),500,376990.1000000015,376989.799999997,373745.902,373753.6000000015,373762.613,377004.547,8,400,32,,ISIC_0030795.JPG
break,html.Screen,4_81_1,2023-11-02T01:16:15.115Z,,0,,,NaN,,,,,,false,,,,376990.799999997,376990.6000000015,,376990.299999997,,377004.547,8,400,,,
break_continue,html.Screen,4_81_2,2023-11-02T01:16:15.115Z,,0,,,NaN,,,,,,false,,,,376991.299999997,376991.1000000015,,376991,,377004.547,8,400,,,
sequence,flow.Sequence,4_81,2023-11-02T01:16:15.115Z,,0,,,3228.487000001478,completion,,,,,false,,,,376991.5,376991.1000000015,373745.902,373753.5,373762.613,377004.547,8,400,,,
trial,html.Screen,4_82_0,2023-11-02T01:16:19.601Z,,0,2,,4472.05300000147,response,ISIC_0012066.JPG,6,ISIC_6771810.JPG,ISIC_6771810.JPG,false,0,keypress(z),500,381477,381476.6000000015,376987.836,376991.69999999553,377004.547,381483.095,8,400,33,,ISIC_0012066.JPG
break,html.Screen,4_82_1,2023-11-02T01:16:19.602Z,,0,,,NaN,,,,,,false,,,,381477.69999999553,381477.5,,381477.1000000015,,381483.095,8,400,,,
break_continue,html.Screen,4_82_2,2023-11-02T01:16:19.602Z,,0,,,NaN,,,,,,false,,,,381478,381477.8999999985,,381477.799999997,,381483.095,8,400,,,
sequence,flow.Sequence,4_82,2023-11-02T01:16:19.602Z,,0,,,4473.352999998489,completion,,,,,false,,,,381478.299999997,381477.8999999985,376987.836,376991.6000000015,377004.547,381483.095,8,400,,,
trial,html.Screen,4_83_0,2023-11-02T01:16:22.857Z,,0,2,,3250.1049999955576,response,ISIC_0002057.JPG,5,ISIC_0032603.JPG,ISIC_0002057.JPG,false,1,keypress(m),500,384733.5,384733.19999999553,381466.384,381478.3999999985,381483.095,384741.964,8,400,34,,ISIC_0032603.JPG
break,html.Screen,4_83_1,2023-11-02T01:16:22.858Z,,0,,,NaN,,,,,,false,,,,384734.299999997,384734,,384733.69999999553,,384741.964,8,400,,,
break_continue,html.Screen,4_83_2,2023-11-02T01:16:22.858Z,,0,,,NaN,,,,,,false,,,,384734.6000000015,384734.5,,384734.299999997,,384741.964,8,400,,,
sequence,flow.Sequence,4_83,2023-11-02T01:16:22.859Z,,0,,,3251.405000000028,completion,,,,,false,,,,384734.8999999985,384734.5,381466.384,381478.3999999985,381483.095,384741.964,8,400,,,
trial,html.Screen,4_84_0,2023-11-02T01:16:27.047Z,,0,2,,4180.835999997042,response,ISIC_0011349.JPG,7,ISIC_5041679.JPG,ISIC_5041679.JPG,false,0,keypress(z),500,388923,388922.799999997,384725.253,384735,384741.964,388936.425,8,400,35,,ISIC_0011349.JPG
break,html.Screen,4_84_1,2023-11-02T01:16:27.047Z,,0,,,NaN,,,,,,false,,,,388924,388923.69999999553,,388923.19999999553,,388936.425,8,400,,,
break_continue,html.Screen,4_84_2,2023-11-02T01:16:27.048Z,,0,,,NaN,,,,,,false,,,,388924.3999999985,388924.299999997,,388924.1000000015,,388936.425,8,400,,,
sequence,flow.Sequence,4_84,2023-11-02T01:16:27.048Z,,0,,,4182.335999997042,completion,,,,,false,,,,388924.6000000015,388924.299999997,384725.253,384734.8999999985,384741.964,388936.425,8,400,,,
trial,html.Screen,4_85_0,2023-11-02T01:16:30.483Z,,0,2,,3423.3749999970314,response,ISIC_2532544.JPG,5,ISIC_0067235.JPG,ISIC_0067235.JPG,false,0,keypress(z),500,392360,392359.799999997,388919.714,388924.799999997,388936.425,392362.18,8,400,36,,ISIC_2532544.JPG
break,html.Screen,4_85_1,2023-11-02T01:16:30.484Z,,0,,,NaN,,,,,,false,,,,392360.69999999553,392360.5,,392360.19999999553,,392362.18,8,400,,,
break_continue,html.Screen,4_85_2,2023-11-02T01:16:30.484Z,,0,,,NaN,,,,,,false,,,,392361.1000000015,392361,,392360.8999999985,,392362.18,8,400,,,
sequence,flow.Sequence,4_85,2023-11-02T01:16:30.485Z,,0,,,3424.5750000000116,completion,,,,,false,,,,392361.299999997,392361,388919.714,388924.69999999553,388936.425,392362.18,8,400,,,
trial,html.Screen,4_86_0,2023-11-02T01:16:36.013Z,,0,2,,5527.719999998517,response,ISIC_0025303.JPG,4,ISIC_0974833.JPG,ISIC_0974833.JPG,false,0,keypress(z),500,397890.19999999553,397889.8999999985,392345.469,392361.5,392362.18,397893.73,8,400,37,,ISIC_0025303.JPG
break,html.Screen,4_86_1,2023-11-02T01:16:36.014Z,,0,,,NaN,,,,,,false,,,,397890.8999999985,397890.69999999553,,397890.3999999985,,397893.73,8,400,,,
break_continue,html.Screen,4_86_2,2023-11-02T01:16:36.014Z,,0,,,NaN,,,,,,false,,,,397891.299999997,397891.1000000015,,397891,,397893.73,8,400,,,
sequence,flow.Sequence,4_86,2023-11-02T01:16:36.015Z,,0,,,5528.920000001497,completion,,,,,false,,,,397891.5,397891.1000000015,392345.469,392361.3999999985,392362.18,397893.73,8,400,,,
trial,html.Screen,4_87_0,2023-11-02T01:16:38.851Z,,0,2,,2834.4699999955483,response,ISIC_0070342.JPG,6,ISIC_2733043.JPG,ISIC_0070342.JPG,false,1,keypress(m),500,400728.5,400728.19999999553,397877.019,397891.69999999553,397893.73,400734.6,8,400,38,,ISIC_2733043.JPG
break,html.Screen,4_87_1,2023-11-02T01:16:38.852Z,,0,,,NaN,,,,,,false,,,,400729.299999997,400729,,400728.69999999553,,400734.6,8,400,,,
break_continue,html.Screen,4_87_2,2023-11-02T01:16:38.853Z,,0,,,NaN,,,,,,false,,,,400729.6000000015,400729.5,,400729.3999999985,,400734.6,8,400,,,
sequence,flow.Sequence,4_87,2023-11-02T01:16:38.853Z,,0,,,2835.7700000000186,completion,,,,,false,,,,400729.8999999985,400729.5,397877.019,397891.6000000015,397893.73,400734.6,8,400,,,
trial,html.Screen,4_88_0,2023-11-02T01:16:42.250Z,,0,2,,3392.199999997043,response,ISIC_9064823.JPG,7,ISIC_0064742.JPG,ISIC_9064823.JPG,false,1,keypress(m),500,404127.1000000015,404126.799999997,400717.889,400730,400734.6,404143.644,8,400,39,,ISIC_0064742.JPG
break,html.Screen,4_88_1,2023-11-02T01:16:42.251Z,,0,,,NaN,,,,,,false,,,,404127.8999999985,404127.69999999553,,404127.299999997,,404143.644,8,400,,,
break_continue,html.Screen,4_88_2,2023-11-02T01:16:42.251Z,,0,,,NaN,,,,,,false,,,,404128.5,404128.299999997,,404128.19999999553,,404143.644,8,400,,,
sequence,flow.Sequence,4_88,2023-11-02T01:16:42.251Z,,0,,,3393.699999997043,completion,,,,,false,,,,404128.69999999553,404128.299999997,400717.889,400730,400734.6,404143.644,8,400,,,
trial,html.Screen,4_89_0,2023-11-02T01:16:47.288Z,,0,2,,5021.255999998539,response,ISIC_7648726.JPG,5,ISIC_0009941.JPG,ISIC_7648726.JPG,false,1,keypress(m),500,409165.19999999553,409164.8999999985,404126.933,404128.8999999985,404143.644,409173.839,8,400,40,,ISIC_0009941.JPG
break,html.Screen,4_89_1,2023-11-02T01:16:47.289Z,,0,,,NaN,,,,,,false,,,,409166,409165.799999997,,409165.5,,409173.839,8,400,,,
break_continue,html.Screen,4_89_2,2023-11-02T01:16:47.289Z,,0,,,NaN,,,,,,false,,,,409166.5,409166.299999997,,409166.1000000015,,409173.839,8,400,,,
sequence,flow.Sequence,4_89,2023-11-02T01:16:47.289Z,,0,,,5022.655999997049,completion,,,,,false,,,,409166.799999997,409166.299999997,404126.933,404128.799999997,404143.644,409173.839,8,400,,,
trial,html.Screen,4_90_0,2023-11-02T01:16:52.423Z,,0,2,,5126.661000000022,response,ISIC_9470020.JPG,5,ISIC_1585370.JPG,ISIC_9470020.JPG,false,1,keypress(m),500,414300.8999999985,414300.5,409157.128,409167,409173.839,414304.116,8,400,41,,ISIC_1585370.JPG
break,html.Screen,4_90_1,2023-11-02T01:16:52.424Z,,0,,,NaN,,,,,,false,,,,414301.799999997,414301.5,,414301.1000000015,,414304.116,8,400,,,
break_continue,html.Screen,4_90_2,2023-11-02T01:16:52.425Z,,0,,,NaN,,,,,,false,,,,414302.19999999553,414302.1000000015,,414302,,414304.116,8,400,,,
sequence,flow.Sequence,4_90,2023-11-02T01:16:52.425Z,,0,,,5128.261000001512,completion,,,,,false,,,,414302.5,414302.1000000015,409157.128,409166.8999999985,409173.839,414304.116,8,400,,,
trial,html.Screen,4_91_0,2023-11-02T01:16:55.759Z,,0,2,,3332.38400000002,response,ISIC_2095347.JPG,5,ISIC_2894223.JPG,ISIC_2095347.JPG,false,1,keypress(m),500,417636.8999999985,417636.5,414287.405,414302.799999997,414304.116,417646.316,8,400,42,,ISIC_2894223.JPG
break,html.Screen,4_91_1,2023-11-02T01:16:55.760Z,,0,,,NaN,,,,,,false,,,,417637.69999999553,417637.5,,417637.1000000015,,417646.316,8,400,,,
break_continue,html.Screen,4_91_2,2023-11-02T01:16:55.760Z,,0,,,NaN,,,,,,false,,,,417638.19999999553,417638,,417637.799999997,,417646.316,8,400,,,
sequence,flow.Sequence,4_91,2023-11-02T01:16:55.761Z,,0,,,3333.88400000002,completion,,,,,false,,,,417638.5,417638,414287.405,414302.6000000015,414304.116,417646.316,8,400,,,
trial,html.Screen,4_92_0,2023-11-02T01:16:59.715Z,,0,2,,3946.1840000000084,response,ISIC_0000384.JPG,6,ISIC_7544537.JPG,ISIC_0000384.JPG,false,1,keypress(m),500,421592.799999997,421592.5,417629.605,417638.69999999553,417646.316,421607.05,8,400,43,,ISIC_7544537.JPG
break,html.Screen,4_92_1,2023-11-02T01:16:59.716Z,,0,,,NaN,,,,,,false,,,,421593.6000000015,421593.3999999985,,421593,,421607.05,8,400,,,
break_continue,html.Screen,4_92_2,2023-11-02T01:16:59.716Z,,0,,,NaN,,,,,,false,,,,421594.19999999553,421593.8999999985,,421593.8999999985,,421607.05,8,400,,,
sequence,flow.Sequence,4_92,2023-11-02T01:16:59.716Z,,0,,,3947.5839999985183,completion,,,,,false,,,,421594.3999999985,421593.8999999985,417629.605,417638.6000000015,417646.316,421607.05,8,400,,,
trial,html.Screen,4_93_0,2023-11-02T01:17:02.897Z,,0,2,,3167.7499999970314,response,ISIC_7633960.JPG,5,ISIC_4119029.JPG,ISIC_7633960.JPG,false,1,keypress(m),500,424775.1000000015,424774.799999997,421590.339,421594.6000000015,421607.05,424782.14,8,400,44,,ISIC_4119029.JPG
break,html.Screen,4_93_1,2023-11-02T01:17:02.898Z,,0,,,NaN,,,,,,false,,,,424775.8999999985,424775.69999999553,,424775.3999999985,,424782.14,8,400,,,
break_continue,html.Screen,4_93_2,2023-11-02T01:17:02.898Z,,0,,,NaN,,,,,,false,,,,424776.299999997,424776.19999999553,,424776,,424782.14,8,400,,,
sequence,flow.Sequence,4_93,2023-11-02T01:17:02.898Z,,0,,,3169.1499999955413,completion,,,,,false,,,,424776.6000000015,424776.19999999553,421590.339,421594.5,421607.05,424782.14,8,400,,,
trial,html.Screen,4_94_0,2023-11-02T01:17:05.692Z,,0,2,,2787.859999999986,response,ISIC_0070463.JPG,7,ISIC_6451703.JPG,ISIC_0070463.JPG,false,1,keypress(m),500,427570.299999997,427570,424765.429,424776.69999999553,424782.14,427589.588,8,400,45,,ISIC_6451703.JPG
break,html.Screen,4_94_1,2023-11-02T01:17:05.693Z,,0,,,NaN,,,,,,false,,,,427571,427570.799999997,,427570.5,,427589.588,8,400,,,
break_continue,html.Screen,4_94_2,2023-11-02T01:17:05.693Z,,0,,,NaN,,,,,,false,,,,427571.3999999985,427571.19999999553,,427571.1000000015,,427589.588,8,400,,,
sequence,flow.Sequence,4_94,2023-11-02T01:17:05.693Z,,0,,,2789.0599999955157,completion,,,,,false,,,,427571.6000000015,427571.19999999553,424765.429,424776.69999999553,424782.14,427589.588,8,400,,,
trial,html.Screen,4_95_0,2023-11-02T01:17:08.850Z,,0,2,,3138.711999997031,response,ISIC_7297078.JPG,8,ISIC_2535541.JPG,ISIC_7297078.JPG,false,1,keypress(m),500,430728.5,430728.299999997,427572.877,427571.799999997,427589.588,430731.457,8,400,46,,ISIC_2535541.JPG
break,html.Screen,4_95_1,2023-11-02T01:17:08.851Z,,0,,,NaN,,,,,,false,,,,430729.19999999553,430729,,430728.69999999553,,430731.457,8,400,,,
break_continue,html.Screen,4_95_2,2023-11-02T01:17:08.851Z,,0,,,NaN,,,,,,false,,,,430729.69999999553,430729.5,,430729.3999999985,,430731.457,8,400,,,
sequence,flow.Sequence,4_95,2023-11-02T01:17:08.851Z,,0,,,3139.912000000011,completion,,,,,false,,,,430729.799999997,430729.5,427572.877,427571.799999997,427589.588,430731.457,8,400,,,
trial,html.Screen,4_96_0,2023-11-02T01:17:11.608Z,,0,2,,2754.742999995535,response,ISIC_6289346.JPG,6,ISIC_3738751.JPG,ISIC_6289346.JPG,false,1,keypress(m),500,433486.5,433486.19999999553,430714.746,430730,430731.457,433488.772,8,400,47,,ISIC_3738751.JPG
break,html.Screen,4_96_1,2023-11-02T01:17:11.609Z,,0,,,NaN,,,,,,false,,,,433487.299999997,433487,,433486.69999999553,,433488.772,8,400,,,
break_continue,html.Screen,4_96_2,2023-11-02T01:17:11.609Z,,0,,,NaN,,,,,,false,,,,433487.69999999553,433487.6000000015,,433487.5,,433488.772,8,400,,,
sequence,flow.Sequence,4_96,2023-11-02T01:17:11.609Z,,0,,,2756.1430000014952,completion,,,,,false,,,,433487.799999997,433487.6000000015,430714.746,430729.8999999985,430731.457,433488.772,8,400,,,
trial,html.Screen,4_97_0,2023-11-02T01:17:15.124Z,,0,2,,3513.728000000003,response,ISIC_0065883.JPG,7,ISIC_7642591.JPG,ISIC_0065883.JPG,false,1,keypress(m),500,437002.799999997,437002.5,433472.061,433488,433488.772,437014.793,8,400,48,,ISIC_7642591.JPG
break,html.Screen,4_97_1,2023-11-02T01:17:15.125Z,,0,,,NaN,,,,,,false,,,,437003.69999999553,437003.3999999985,,437003,,437014.793,8,400,,,
break_continue,html.Screen,4_97_2,2023-11-02T01:17:15.125Z,,0,,,NaN,,,,,,false,,,,437004.299999997,437004,,437003.8999999985,,437014.793,8,400,,,
sequence,flow.Sequence,4_97,2023-11-02T01:17:15.126Z,,0,,,3515.228000000003,completion,,,,,false,,,,437004.5,437004,433472.061,433487.8999999985,433488.772,437014.793,8,400,,,
trial,html.Screen,4_98_0,2023-11-02T01:17:18.539Z,,0,2,,3402.5069999970146,response,ISIC_0473135.JPG,5,ISIC_4032636.JPG,ISIC_0473135.JPG,false,1,keypress(m),500,440417.5,440417.299999997,436998.082,437004.69999999553,437014.793,440423.837,8,400,49,,ISIC_4032636.JPG
break,html.Screen,4_98_1,2023-11-02T01:17:18.539Z,,0,,,NaN,,,,,,false,,,,440418.19999999553,440418,,440417.799999997,,440423.837,8,400,,,
break_continue,html.Screen,4_98_2,2023-11-02T01:17:18.540Z,,0,,,NaN,,,,,,false,,,,440418.69999999553,440418.6000000015,,440418.5,,440423.837,8,400,,,
sequence,flow.Sequence,4_98,2023-11-02T01:17:18.540Z,,0,,,3403.807000001485,completion,,,,,false,,,,440418.8999999985,440418.6000000015,436998.082,437004.69999999553,437014.793,440423.837,8,400,,,
trial,html.Screen,4_99_0,2023-11-02T01:17:21.760Z,,0,2,,3215.0629999985103,response,ISIC_3961647.JPG,6,ISIC_0024280.JPG,ISIC_0024280.JPG,false,0,keypress(z),500,443639.19999999553,443638.8999999985,440407.126,440419,440423.837,443649.246,8,400,50,,ISIC_3961647.JPG
break,html.Screen,4_99_1,2023-11-02T01:17:31.749Z,,0,,,9993.178000000014,timeout,,,,,false,,,,453628.19999999553,453625.713,443632.535,443639.3999999985,443649.246,453642.424,8,400,,,
break_continue,html.Screen,4_99_2,2023-11-02T01:17:32.792Z,,0,,,1004.5760000000009,response,,,,,false,continue,keypress(Space),,454671.6000000015,454647,453625.713,453628.3999999985,453642.424,454678.506,8,400,,,
sequence,flow.Sequence,4_99,2023-11-02T01:17:32.792Z,,0,,,14223.163,completion,,,,,false,,,,454671.69999999553,454647,440407.126,440419,440423.837,454678.506,8,400,,,
trial,html.Screen,4_100_0,2023-11-02T01:17:38.300Z,,0,3,,5500.893999998516,response,ISIC_0032331.JPG,5,ISIC_0634107.JPG,ISIC_0634107.JPG,false,0,keypress(z),500,460179.69999999553,460179.3999999985,454661.795,454671.799999997,454678.506,460193.136,8,400,1,,ISIC_0032331.JPG
break,html.Screen,4_100_1,2023-11-02T01:17:38.300Z,,0,,,NaN,,,,,,false,,,,460180.3999999985,460180.1000000015,,460179.799999997,,460193.136,8,400,,,
break_continue,html.Screen,4_100_2,2023-11-02T01:17:38.301Z,,0,,,NaN,,,,,,false,,,,460180.799999997,460180.6000000015,,460180.6000000015,,460193.136,8,400,,,
sequence,flow.Sequence,4_100,2023-11-02T01:17:38.301Z,,0,,,5502.094000001496,completion,,,,,false,,,,460181,460180.6000000015,454661.795,454671.799999997,454678.506,460193.136,8,400,,,
trial,html.Screen,4_101_0,2023-11-02T01:17:45.938Z,,0,3,,7624.4640000014915,response,ISIC_0064874.JPG,5,ISIC_7914631.JPG,ISIC_0064874.JPG,false,1,keypress(m),500,467817.799999997,467817.6000000015,460176.425,460181.1000000015,460193.136,467830.44,8,400,2,,ISIC_7914631.JPG
break,html.Screen,4_101_1,2023-11-02T01:17:45.938Z,,0,,,NaN,,,,,,false,,,,467818.6000000015,467818.3999999985,,467818.1000000015,,467830.44,8,400,,,
break_continue,html.Screen,4_101_2,2023-11-02T01:17:45.939Z,,0,,,NaN,,,,,,false,,,,467819,467818.799999997,,467818.69999999553,,467830.44,8,400,,,
sequence,flow.Sequence,4_101,2023-11-02T01:17:45.939Z,,0,,,7625.663999997021,completion,,,,,false,,,,467819.1000000015,467818.799999997,460176.425,460181.1000000015,460193.136,467830.44,8,400,,,
trial,html.Screen,4_102_0,2023-11-02T01:17:49.710Z,,0,3,,3759.4599999985076,response,ISIC_2394780.JPG,5,ISIC_0015046.JPG,ISIC_2394780.JPG,false,1,keypress(m),500,471590.299999997,471589.8999999985,467813.729,467819.299999997,467830.44,471607.126,8,400,3,,ISIC_0015046.JPG
break,html.Screen,4_102_1,2023-11-02T01:17:49.711Z,,0,,,NaN,,,,,,false,,,,471591.1000000015,471590.8999999985,,471590.5,,471607.126,8,400,,,
break_continue,html.Screen,4_102_2,2023-11-02T01:17:49.711Z,,0,,,NaN,,,,,,false,,,,471591.5,471591.299999997,,471591.19999999553,,471607.126,8,400,,,
sequence,flow.Sequence,4_102,2023-11-02T01:17:49.711Z,,0,,,3760.8599999970174,completion,,,,,false,,,,471591.69999999553,471591.299999997,467813.729,467819.299999997,467830.44,471607.126,8,400,,,
trial,html.Screen,4_103_0,2023-11-02T01:17:53.042Z,,0,3,,3315.0739999955404,response,ISIC_0057307.JPG,7,ISIC_0028075.JPG,ISIC_0028075.JPG,false,0,keypress(z),500,474922.3999999985,474922.19999999553,471590.415,471591.8999999985,471607.126,474932.804,8,400,4,,ISIC_0057307.JPG
break,html.Screen,4_103_1,2023-11-02T01:17:53.043Z,,0,,,NaN,,,,,,false,,,,474923.19999999553,474922.8999999985,,474922.69999999553,,474932.804,8,400,,,
break_continue,html.Screen,4_103_2,2023-11-02T01:17:53.043Z,,0,,,NaN,,,,,,false,,,,474923.6000000015,474923.3999999985,,474923.299999997,,474932.804,8,400,,,
sequence,flow.Sequence,4_103,2023-11-02T01:17:53.043Z,,0,,,3316.2739999985206,completion,,,,,false,,,,474923.799999997,474923.3999999985,471590.415,471591.799999997,471607.126,474932.804,8,400,,,
trial,html.Screen,4_104_0,2023-11-02T01:17:56.256Z,,0,3,,3203.995999997016,response,ISIC_5568834.JPG,5,ISIC_9228573.JPG,ISIC_5568834.JPG,false,1,keypress(m),500,478137.1000000015,478136.799999997,474916.093,474923.8999999985,474932.804,478141.316,8,400,5,,ISIC_9228573.JPG
break,html.Screen,4_104_1,2023-11-02T01:17:56.257Z,,0,,,NaN,,,,,,false,,,,478137.8999999985,478137.6000000015,,478137.3999999985,,478141.316,8,400,,,
break_continue,html.Screen,4_104_2,2023-11-02T01:17:56.258Z,,0,,,NaN,,,,,,false,,,,478138.6000000015,478138.3999999985,,478138.299999997,,478141.316,8,400,,,
sequence,flow.Sequence,4_104,2023-11-02T01:17:56.258Z,,0,,,3205.595999998506,completion,,,,,false,,,,478138.69999999553,478138.3999999985,474916.093,474923.799999997,474932.804,478141.316,8,400,,,
trial,html.Screen,4_105_0,2023-11-02T01:17:59.072Z,,0,3,,2810.983999997028,response,ISIC_1871890.JPG,7,ISIC_0061152.JPG,ISIC_1871890.JPG,false,1,keypress(m),500,480952.6000000015,480952.299999997,478124.605,478138.8999999985,478141.316,480965.475,8,400,6,,ISIC_0061152.JPG
break,html.Screen,4_105_1,2023-11-02T01:17:59.073Z,,0,,,NaN,,,,,,false,,,,480953.5,480953.19999999553,,480952.8999999985,,480965.475,8,400,,,
break_continue,html.Screen,4_105_2,2023-11-02T01:17:59.073Z,,0,,,NaN,,,,,,false,,,,480953.8999999985,480953.69999999553,,480953.6000000015,,480965.475,8,400,,,
sequence,flow.Sequence,4_105,2023-11-02T01:17:59.073Z,,0,,,2812.383999995538,completion,,,,,false,,,,480954.1000000015,480953.69999999553,478124.605,478138.799999997,478141.316,480965.475,8,400,,,
trial,html.Screen,4_106_0,2023-11-02T01:18:01.750Z,,0,3,,2665.0250000000233,response,ISIC_0031233.JPG,8,ISIC_0806138.JPG,ISIC_0806138.JPG,false,0,keypress(z),500,483630.799999997,483630.5,480948.764,480954.19999999553,480965.475,483639.414,8,400,7,,ISIC_0031233.JPG
break,html.Screen,4_106_1,2023-11-02T01:18:01.750Z,,0,,,NaN,,,,,,false,,,,483631.5,483631.299999997,,483631,,483639.414,8,400,,,
break_continue,html.Screen,4_106_2,2023-11-02T01:18:01.751Z,,0,,,NaN,,,,,,false,,,,483631.799999997,483631.799999997,,483631.69999999553,,483639.414,8,400,,,
sequence,flow.Sequence,4_106,2023-11-02T01:18:01.751Z,,0,,,2666.324999997043,completion,,,,,false,,,,483632.1000000015,483631.799999997,480948.764,480954.19999999553,480965.475,483639.414,8,400,,,
trial,html.Screen,4_107_0,2023-11-02T01:18:04.788Z,,0,3,,3029.48599999852,response,ISIC_0056246.JPG,6,ISIC_2007396.JPG,ISIC_0056246.JPG,false,1,keypress(m),500,486669.1000000015,486668.8999999985,483622.703,483632.19999999553,483639.414,486680.816,8,400,8,,ISIC_2007396.JPG
break,html.Screen,4_107_1,2023-11-02T01:18:04.789Z,,0,,,NaN,,,,,,false,,,,486669.8999999985,486669.69999999553,,486669.299999997,,486680.816,8,400,,,
break_continue,html.Screen,4_107_2,2023-11-02T01:18:04.789Z,,0,,,NaN,,,,,,false,,,,486670.299999997,486670.1000000015,,486670,,486680.816,8,400,,,
sequence,flow.Sequence,4_107,2023-11-02T01:18:04.789Z,,0,,,3030.6860000015004,completion,,,,,false,,,,486670.5,486670.1000000015,483622.703,483632.19999999553,483639.414,486680.816,8,400,,,
trial,html.Screen,4_108_0,2023-11-02T01:18:07.854Z,,0,3,,3054.2840000014985,response,ISIC_5363229.JPG,4,ISIC_0014027.JPG,ISIC_0014027.JPG,false,0,keypress(z),500,489735.3999999985,489735.1000000015,486664.105,486670.69999999553,486680.816,489738.929,8,400,9,,ISIC_5363229.JPG
break,html.Screen,4_108_1,2023-11-02T01:18:07.855Z,,0,,,NaN,,,,,,false,,,,489736.19999999553,489735.8999999985,,489735.6000000015,,489738.929,8,400,,,
break_continue,html.Screen,4_108_2,2023-11-02T01:18:07.855Z,,0,,,NaN,,,,,,false,,,,489736.6000000015,489736.5,,489736.299999997,,489738.929,8,400,,,
sequence,flow.Sequence,4_108,2023-11-02T01:18:07.856Z,,0,,,3055.6840000000084,completion,,,,,false,,,,489736.799999997,489736.5,486664.105,486670.6000000015,486680.816,489738.929,8,400,,,
trial,html.Screen,4_109_0,2023-11-02T01:18:11.885Z,,0,3,,4027.470999998506,response,ISIC_4042619.JPG,8,ISIC_0069361.JPG,ISIC_4042619.JPG,false,1,keypress(m),500,493766.69999999553,493766.3999999985,489722.218,489737,489738.929,493783.194,8,400,10,,ISIC_0069361.JPG
break,html.Screen,4_109_1,2023-11-02T01:18:11.886Z,,0,,,NaN,,,,,,false,,,,493767.3999999985,493767.19999999553,,493766.8999999985,,493783.194,8,400,,,
break_continue,html.Screen,4_109_2,2023-11-02T01:18:11.886Z,,0,,,NaN,,,,,,false,,,,493767.69999999553,493767.6000000015,,493767.5,,493783.194,8,400,,,
sequence,flow.Sequence,4_109,2023-11-02T01:18:11.886Z,,0,,,4028.6710000014864,completion,,,,,false,,,,493768.1000000015,493767.6000000015,489722.218,489737,489738.929,493783.194,8,400,,,
trial,html.Screen,4_110_0,2023-11-02T01:18:14.789Z,,0,3,,2887.3059999999823,response,ISIC_3632419.JPG,6,ISIC_0066105.JPG,ISIC_0066105.JPG,false,0,keypress(z),500,496670.799999997,496670.5,493766.483,493768.1000000015,493783.194,496690.908,8,400,11,,ISIC_3632419.JPG
break,html.Screen,4_110_1,2023-11-02T01:18:14.790Z,,0,,,NaN,,,,,,false,,,,496671.5,496671.299999997,,496671,,496690.908,8,400,,,
break_continue,html.Screen,4_110_2,2023-11-02T01:18:14.790Z,,0,,,NaN,,,,,,false,,,,496671.8999999985,496671.799999997,,496671.6000000015,,496690.908,8,400,,,
sequence,flow.Sequence,4_110,2023-11-02T01:18:14.791Z,,0,,,2888.605999997002,completion,,,,,false,,,,496672.19999999553,496671.799999997,493766.483,493768.1000000015,493783.194,496690.908,8,400,,,
trial,html.Screen,4_111_0,2023-11-02T01:18:17.502Z,,0,3,,2692.391999997024,response,ISIC_2758999.JPG,5,ISIC_4296456.JPG,ISIC_4296456.JPG,false,0,keypress(z),500,499383.6000000015,499383.299999997,496674.197,496672.299999997,496690.908,499398.09,8,400,12,,ISIC_2758999.JPG
break,html.Screen,4_111_1,2023-11-02T01:18:17.503Z,,0,,,NaN,,,,,,false,,,,499384.6000000015,499384.299999997,,499384,,499398.09,8,400,,,
break_continue,html.Screen,4_111_2,2023-11-02T01:18:17.504Z,,0,,,NaN,,,,,,false,,,,499385.3999999985,499385.1000000015,,499384.8999999985,,499398.09,8,400,,,
sequence,flow.Sequence,4_111,2023-11-02T01:18:17.504Z,,0,,,2694.1920000014943,completion,,,,,false,,,,499385.6000000015,499385.1000000015,496674.197,496672.299999997,496690.908,499398.09,8,400,,,
trial,html.Screen,4_112_0,2023-11-02T01:18:20.068Z,,0,3,,2552.0100000014645,response,ISIC_0056164.JPG,7,ISIC_0014666.JPG,ISIC_0056164.JPG,false,1,keypress(m),500,501950.299999997,501950.1000000015,499381.379,499385.799999997,499398.09,501954.873,8,400,13,,ISIC_0014666.JPG
break,html.Screen,4_112_1,2023-11-02T01:18:20.069Z,,0,,,NaN,,,,,,false,,,,501951.19999999553,501950.8999999985,,501950.6000000015,,501954.873,8,400,,,
break_continue,html.Screen,4_112_2,2023-11-02T01:18:20.070Z,,0,,,NaN,,,,,,false,,,,501951.5,501951.299999997,,501951.19999999553,,501954.873,8,400,,,
sequence,flow.Sequence,4_112,2023-11-02T01:18:20.070Z,,0,,,2553.209999996994,completion,,,,,false,,,,501951.799999997,501951.299999997,499381.379,499385.69999999553,499398.09,501954.873,8,400,,,
trial,html.Screen,4_113_0,2023-11-02T01:18:22.566Z,,0,3,,2492.6269999999786,response,ISIC_0033087.JPG,6,ISIC_8397077.JPG,ISIC_8397077.JPG,false,0,keypress(z),500,504447.799999997,504447.5,501938.162,501951.8999999985,501954.873,504461.662,8,400,14,,ISIC_0033087.JPG
break,html.Screen,4_113_1,2023-11-02T01:18:22.567Z,,0,,,NaN,,,,,,false,,,,504448.5,504448.299999997,,504448,,504461.662,8,400,,,
break_continue,html.Screen,4_113_2,2023-11-02T01:18:22.567Z,,0,,,NaN,,,,,,false,,,,504449,504448.799999997,,504448.69999999553,,504461.662,8,400,,,
sequence,flow.Sequence,4_113,2023-11-02T01:18:22.567Z,,0,,,2493.9269999969983,completion,,,,,false,,,,504449.19999999553,504448.799999997,501938.162,501951.8999999985,501954.873,504461.662,8,400,,,
trial,html.Screen,4_114_0,2023-11-02T01:18:26.061Z,,0,3,,3481.5379999955185,response,ISIC_2506200.JPG,7,ISIC_0068015.JPG,ISIC_2506200.JPG,false,1,keypress(m),500,507943.5,507943.19999999553,504444.951,504449.3999999985,504461.662,507954.261,8,400,15,,ISIC_0068015.JPG
break,html.Screen,4_114_1,2023-11-02T01:18:26.062Z,,0,,,NaN,,,,,,false,,,,507944.3999999985,507944,,507943.799999997,,507954.261,8,400,,,
break_continue,html.Screen,4_114_2,2023-11-02T01:18:26.063Z,,0,,,NaN,,,,,,false,,,,507944.69999999553,507944.6000000015,,507944.5,,507954.261,8,400,,,
sequence,flow.Sequence,4_114,2023-11-02T01:18:26.063Z,,0,,,3482.938000001479,completion,,,,,false,,,,507944.8999999985,507944.6000000015,504444.951,504449.299999997,504461.662,507954.261,8,400,,,
trial,html.Screen,4_115_0,2023-11-02T01:18:29.372Z,,0,3,,3299.538999997021,response,ISIC_0024317.JPG,4,ISIC_0058666.JPG,ISIC_0024317.JPG,false,1,keypress(m),500,511254,511253.799999997,507937.55,507945.1000000015,507954.261,511263.039,8,400,16,,ISIC_0058666.JPG
break,html.Screen,4_115_1,2023-11-02T01:18:29.372Z,,0,,,NaN,,,,,,false,,,,511254.799999997,511254.6000000015,,511254.299999997,,511263.039,8,400,,,
break_continue,html.Screen,4_115_2,2023-11-02T01:18:29.373Z,,0,,,NaN,,,,,,false,,,,511255.299999997,511255.1000000015,,511254.8999999985,,511263.039,8,400,,,
sequence,flow.Sequence,4_115,2023-11-02T01:18:29.373Z,,0,,,3300.8390000014915,completion,,,,,false,,,,511255.5,511255.1000000015,507937.55,507945,507954.261,511263.039,8,400,,,
trial,html.Screen,4_116_0,2023-11-02T01:18:32.355Z,,0,3,,2974.16099999554,response,ISIC_2021321.JPG,8,ISIC_0032820.JPG,ISIC_2021321.JPG,false,1,keypress(m),500,514237.3999999985,514237.19999999553,511246.328,511255.6000000015,511263.039,514254.535,8,400,17,,ISIC_0032820.JPG
break,html.Screen,4_116_1,2023-11-02T01:18:32.356Z,,0,,,NaN,,,,,,false,,,,514238.1000000015,514237.8999999985,,514237.6000000015,,514254.535,8,400,,,
break_continue,html.Screen,4_116_2,2023-11-02T01:18:32.356Z,,0,,,NaN,,,,,,false,,,,514238.6000000015,514238.3999999985,,514238.299999997,,514254.535,8,400,,,
sequence,flow.Sequence,4_116,2023-11-02T01:18:32.356Z,,0,,,2975.36099999852,completion,,,,,false,,,,514238.799999997,514238.3999999985,511246.328,511255.6000000015,511263.039,514254.535,8,400,,,
trial,html.Screen,4_117_0,2023-11-02T01:18:36.943Z,,0,3,,4570.965000000026,response,ISIC_7621412.JPG,8,ISIC_0006321.JPG,ISIC_7621412.JPG,false,1,keypress(m),500,518825.799999997,518825.5,514237.824,514238.8999999985,514254.535,518833.349,8,400,18,,ISIC_0006321.JPG
break,html.Screen,4_117_1,2023-11-02T01:18:36.944Z,,0,,,NaN,,,,,,false,,,,518826.6000000015,518826.299999997,,518826,,518833.349,8,400,,,
break_continue,html.Screen,4_117_2,2023-11-02T01:18:36.944Z,,0,,,NaN,,,,,,false,,,,518826.8999999985,518826.799999997,,518826.69999999553,,518833.349,8,400,,,
sequence,flow.Sequence,4_117,2023-11-02T01:18:36.944Z,,0,,,4572.264999997045,completion,,,,,false,,,,518827.19999999553,518826.799999997,514237.824,514238.8999999985,514254.535,518833.349,8,400,,,
trial,html.Screen,4_118_0,2023-11-02T01:18:39.482Z,,0,3,,2531.350999995542,response,ISIC_9826778.JPG,5,ISIC_8060329.JPG,ISIC_9826778.JPG,false,1,keypress(m),500,521365,521364.69999999553,518816.638,518827.299999997,518833.349,521373.421,8,400,19,,ISIC_8060329.JPG
break,html.Screen,4_118_1,2023-11-02T01:18:39.483Z,,0,,,NaN,,,,,,false,,,,521365.799999997,521365.5,,521365.299999997,,521373.421,8,400,,,
break_continue,html.Screen,4_118_2,2023-11-02T01:18:39.483Z,,0,,,NaN,,,,,,false,,,,521366.19999999553,521366,,521365.8999999985,,521373.421,8,400,,,
sequence,flow.Sequence,4_118,2023-11-02T01:18:39.484Z,,0,,,2532.6510000000126,completion,,,,,false,,,,521366.3999999985,521366,518816.638,518827.299999997,518833.349,521373.421,8,400,,,
trial,html.Screen,4_119_0,2023-11-02T01:18:43.283Z,,0,3,,3792.579000000027,response,ISIC_7956417.JPG,5,ISIC_0031545.JPG,ISIC_7956417.JPG,false,1,keypress(m),500,525166.299999997,525166,521356.71,521366.6000000015,521373.421,525167.015,8,400,20,,ISIC_0031545.JPG
break,html.Screen,4_119_1,2023-11-02T01:18:43.284Z,,0,,,NaN,,,,,,false,,,,525167,525166.8999999985,,525166.5,,525167.015,8,400,,,
break_continue,html.Screen,4_119_2,2023-11-02T01:18:43.284Z,,0,,,NaN,,,,,,false,,,,525167.5,525167.299999997,,525167.299999997,,525167.015,8,400,,,
sequence,flow.Sequence,4_119,2023-11-02T01:18:43.285Z,,0,,,3793.878999997047,completion,,,,,false,,,,525167.799999997,525167.299999997,521356.71,521366.6000000015,521373.421,525167.015,8,400,,,
trial,html.Screen,4_120_0,2023-11-02T01:18:46.781Z,,0,3,,3497.1849999955157,response,ISIC_0009510.JPG,5,ISIC_8301536.JPG,ISIC_0009510.JPG,false,1,keypress(m),500,528664.5,528664.1999999955,525150.304,525167.799999997,525167.015,528693.036,8,400,21,,ISIC_8301536.JPG
break,html.Screen,4_120_1,2023-11-02T01:18:46.782Z,,0,,,NaN,,,,,,false,,,,528665.3999999985,528665.1999999955,,528664.799999997,,528693.036,8,400,,,
break_continue,html.Screen,4_120_2,2023-11-02T01:18:46.783Z,,0,,,NaN,,,,,,false,,,,528665.8999999985,528665.799999997,,528665.6000000015,,528693.036,8,400,,,
sequence,flow.Sequence,4_120,2023-11-02T01:18:46.783Z,,0,,,3498.784999997006,completion,,,,,false,,,,528666.1999999955,528665.799999997,525150.304,525167.799999997,525167.015,528693.036,8,400,,,
trial,html.Screen,4_121_0,2023-11-02T01:18:50.514Z,,0,3,,3703.763999997056,response,ISIC_7717907.JPG,7,ISIC_7216266.JPG,ISIC_7216266.JPG,false,0,keypress(z),500,532397.1000000015,532396.799999997,528676.325,528666.3999999985,528693.036,532402.878,8,400,22,,ISIC_7717907.JPG
break,html.Screen,4_121_1,2023-11-02T01:18:50.515Z,,0,,,NaN,,,,,,false,,,,532398,532397.799999997,,532397.3999999985,,532402.878,8,400,,,
break_continue,html.Screen,4_121_2,2023-11-02T01:18:50.515Z,,0,,,NaN,,,,,,false,,,,532398.5,532398.299999997,,532398.1999999955,,532402.878,8,400,,,
sequence,flow.Sequence,4_121,2023-11-02T01:18:50.515Z,,0,,,3705.263999997056,completion,,,,,false,,,,532398.799999997,532398.299999997,528676.325,528666.299999997,528693.036,532402.878,8,400,,,
trial,html.Screen,4_122_0,2023-11-02T01:18:55.181Z,,0,3,,4661.521999998484,response,ISIC_5768602.JPG,6,ISIC_7596681.JPG,ISIC_7596681.JPG,false,0,keypress(z),500,537064.8999999985,537064.3999999985,532386.167,532398.8999999985,532402.878,537082.175,8,400,23,,ISIC_5768602.JPG
break,html.Screen,4_122_1,2023-11-02T01:18:55.182Z,,0,,,NaN,,,,,,false,,,,537065.6999999955,537065.5,,537065.1000000015,,537082.175,8,400,,,
break_continue,html.Screen,4_122_2,2023-11-02T01:18:55.183Z,,0,,,NaN,,,,,,false,,,,537066.1999999955,537066,,537065.8999999985,,537082.175,8,400,,,
sequence,flow.Sequence,4_122,2023-11-02T01:18:55.183Z,,0,,,4663.121999999974,completion,,,,,false,,,,537066.5,537066,532386.167,532398.8999999985,532402.878,537082.175,8,400,,,
trial,html.Screen,4_123_0,2023-11-02T01:19:00.277Z,,0,3,,5078.524999995483,response,ISIC_6118204.JPG,4,ISIC_0024607.JPG,ISIC_6118204.JPG,false,1,keypress(m),500,542161,542160.6999999955,537065.464,537066.6000000015,537082.175,542162.319,8,400,24,,ISIC_0024607.JPG
break,html.Screen,4_123_1,2023-11-02T01:19:00.278Z,,0,,,NaN,,,,,,false,,,,542162,542161.6999999955,,542161.299999997,,542162.319,8,400,,,
break_continue,html.Screen,4_123_2,2023-11-02T01:19:00.279Z,,0,,,NaN,,,,,,false,,,,542162.5,542162.299999997,,542162.1999999955,,542162.319,8,400,,,
sequence,flow.Sequence,4_123,2023-11-02T01:19:00.279Z,,0,,,5080.124999996973,completion,,,,,false,,,,542162.799999997,542162.299999997,537065.464,537066.6000000015,537082.175,542162.319,8,400,,,
trial,html.Screen,4_124_0,2023-11-02T01:19:05.050Z,,0,3,,4771.580999998492,response,ISIC_8130596.JPG,4,ISIC_0046429.JPG,ISIC_8130596.JPG,false,1,keypress(m),500,546934.1999999955,546933.8999999985,542145.608,542162.8999999985,542162.319,546958.376,8,400,25,,ISIC_0046429.JPG
break,html.Screen,4_124_1,2023-11-02T01:19:05.051Z,,0,,,NaN,,,,,,false,,,,546935.1000000015,546934.799999997,,546934.5,,546958.376,8,400,,,
break_continue,html.Screen,4_124_2,2023-11-02T01:19:05.051Z,,0,,,NaN,,,,,,false,,,,546935.5,546935.3999999985,,546935.1999999955,,546958.376,8,400,,,
sequence,flow.Sequence,4_124,2023-11-02T01:19:05.052Z,,0,,,4773.080999998492,completion,,,,,false,,,,546935.6999999955,546935.3999999985,542145.608,542162.8999999985,542162.319,546958.376,8,400,,,
trial,html.Screen,4_125_0,2023-11-02T01:19:08.110Z,,0,3,,3035.5239999984624,response,ISIC_6590303.JPG,5,ISIC_2143002.JPG,ISIC_6590303.JPG,false,1,keypress(m),500,549994.1999999955,549993.8999999985,546941.665,546936,546958.376,549999.963,8,400,26,,ISIC_2143002.JPG
break,html.Screen,4_125_1,2023-11-02T01:19:08.111Z,,0,,,NaN,,,,,,false,,,,549994.8999999985,549994.6000000015,,549994.3999999985,,549999.963,8,400,,,
break_continue,html.Screen,4_125_2,2023-11-02T01:19:08.111Z,,0,,,NaN,,,,,,false,,,,549995.1999999955,549995.1000000015,,549995.1000000015,,549999.963,8,400,,,
sequence,flow.Sequence,4_125,2023-11-02T01:19:08.111Z,,0,,,3036.7240000014426,completion,,,,,false,,,,549995.5,549995.1000000015,546941.665,546935.8999999985,546958.376,549999.963,8,400,,,
trial,html.Screen,4_126_0,2023-11-02T01:19:11.143Z,,0,3,,3027.236999995541,response,ISIC_9745562.JPG,5,ISIC_0026460.JPG,ISIC_9745562.JPG,false,1,keypress(m),500,553027.5,553027.1999999955,549983.252,549995.6999999955,549999.963,553041.365,8,400,27,,ISIC_0026460.JPG
break,html.Screen,4_126_1,2023-11-02T01:19:11.144Z,,0,,,NaN,,,,,,false,,,,553028.1999999955,553028,,553027.6000000015,,553041.365,8,400,,,
break_continue,html.Screen,4_126_2,2023-11-02T01:19:11.144Z,,0,,,NaN,,,,,,false,,,,553028.799999997,553028.6999999955,,553028.5,,553041.365,8,400,,,
