sender,sender_type,sender_id,timestamp,meta,,blockNo,condition,duration,ended_on,img_left,img_reveal,img_right,loser,practice,response,response_action,selection_duration,time_commit,time_end,time_render,time_run,time_show,time_switch,total_blocks,total_trials,trialNo,url,winner
informed_consent,html.Screen,0,2023-09-08T16:06:15.293Z,"{""labjs_version"":""20.2.4"",""labjs_build"":{""flavor"":""production"",""commit"":""f5b4a49f956347addd546a832a3327688c2c0fef""},""location"":""https://run.pavlovia.org/MurrayBennett/melanoma-2afc/?participant={{%PROLIFIC_PID%}}&STUDY_ID={{%STUDY_ID%}}&SESSION_ID={{%SESSION_ID%}}&platform=prolific"",""userAgent"":""Mozilla/5.0 (Windows NT 10.0; Win64; x64) AppleWebKit/537.36 (KHTML, like Gecko) Chrome/116.0.0.0 Safari/537.36"",""platform"":""Win32"",""language"":""en-AU"",""locale"":""en-US"",""timeZone"":""America/Chicago"",""timezoneOffset"":300,""screen_width"":2560,""screen_height"":1440,""scroll_width"":1278,""scroll_height"":1233,""window_innerWidth"":1278,""window_innerHeight"":1281,""devicePixelRatio"":1}",,,,8723.927999952317,response,,,,,,consent,click button,,10263.5,10262.299999952316,1237.836,1543.5,1538.372,10288.752,,,,"{""participant"":""{{%PROLIFIC_PID%}}"",""STUDY_ID"":""{{%STUDY_ID%}}"",""SESSION_ID"":""{{%SESSION_ID%}}"",""platform"":""prolific""}",
Welcome,html.Screen,1,2023-09-08T16:06:44.252Z,,,,irregular,28933.64799985695,response,,,,,,continue,click button,,39223,39222.39999985695,10272.032,10263.599999904633,10288.752,39245.18,,,,,
trial,html.Screen,2_0_0,2023-09-08T16:06:50.687Z,,0,0,,6412.419999904632,response,ISIC_0061792.JPG,,ISIC_4679428.JPG,ISIC_4679428.JPG,true,0,keypress(z),500,45658,45657.59999990463,39228.485,39223.09999990463,39245.18,45674.42,1,6,1,,ISIC_0061792.JPG
sequence,flow.Sequence,2_0,2023-09-08T16:06:50.688Z,,0,,,6412.419999904632,completion,,,,,true,,,,45658.5,45657.59999990463,39228.485,39223.09999990463,39245.18,45674.42,1,6,,,
trial,html.Screen,2_1_0,2023-09-08T16:06:53.416Z,,0,0,,2712.1799999046343,response,ISIC_5199497.JPG,,ISIC_0776486.JPG,ISIC_5199497.JPG,true,1,keypress(m),500,48386.89999985695,48386.59999990463,45657.598,45658.700000047684,45674.42,48396.402,1,6,2,,ISIC_0776486.JPG
sequence,flow.Sequence,2_1,2023-09-08T16:06:53.417Z,,0,,,2712.1799999046343,completion,,,,,true,,,,48387.200000047684,48386.59999990463,45657.598,45658.700000047684,45674.42,48396.402,1,6,,,
trial,html.Screen,2_2_0,2023-09-08T16:06:58.683Z,,0,0,,5257.197999904631,response,ISIC_8575776.JPG,,ISIC_2556187.JPG,ISIC_2556187.JPG,true,0,keypress(z),500,53653.89999985695,53653.59999990463,48379.616,48387.59999990463,48396.402,53656.54,1,6,3,,ISIC_8575776.JPG
sequence,flow.Sequence,2_2,2023-09-08T16:06:58.684Z,,0,,,5257.197999904631,completion,,,,,true,,,,53654.299999952316,53653.59999990463,48379.616,48387.5,48396.402,53656.54,1,6,,,
trial,html.Screen,2_3_0,2023-09-08T16:07:01.806Z,,0,0,,3119.459999999999,response,ISIC_8141769.JPG,,ISIC_9238366.JPG,ISIC_8141769.JPG,true,1,keypress(m),500,56776.299999952316,56776,53639.789,53654.59999990463,53656.54,56779.282,1,6,4,,ISIC_9238366.JPG
sequence,flow.Sequence,2_3,2023-09-08T16:07:01.806Z,,0,,,3119.459999999999,completion,,,,,true,,,,56776.59999990463,56776,53639.789,53654.59999990463,53656.54,56779.282,1,6,,,
trial,html.Screen,2_4_0,2023-09-08T16:07:05.319Z,,0,0,,3509.7180000000008,response,ISIC_9959593.JPG,,ISIC_8949026.JPG,ISIC_9959593.JPG,true,1,keypress(m),500,60289.299999952316,60289,56762.522,56777,56779.282,60302.879,1,6,5,,ISIC_8949026.JPG
sequence,flow.Sequence,2_4,2023-09-08T16:07:05.319Z,,0,,,3509.7180000000008,completion,,,,,true,,,,60289.89999985695,60289,56762.522,56776.89999985695,56779.282,60302.879,1,6,,,
trial,html.Screen,2_5_0,2023-09-08T16:07:09.066Z,,0,0,,3733.2209999046318,response,ISIC_0010479.JPG,,ISIC_0460240.JPG,ISIC_0460240.JPG,true,0,keypress(z),500,64036.59999990463,64036.09999990463,60286.157,60290.09999990463,60302.879,64043.419,1,6,6,,ISIC_0010479.JPG
sequence,flow.Sequence,2_5,2023-09-08T16:07:09.066Z,,0,,,3733.2209999046318,completion,,,,,true,,,,64037,64036.09999990463,60286.157,60290.09999990463,60302.879,64043.419,1,6,,,
loop,flow.Loop,2,2023-09-08T16:07:09.067Z,,,,,24790.919999904632,completion,,,,,true,,,,64037.39999985695,64036.09999990463,39228.485,39223.09999990463,39245.18,64043.419,1,6,,,
exp_instructions,html.Screen,3,2023-09-08T16:07:28.942Z,,,,,19866.380999952315,response,,,,,,continue,keypress(Space),,83911.20000004768,83909.79999995232,64026.882,64037.59999990463,64043.419,83932.149,,,,,
trial,html.Screen,4_0_0,2023-09-08T16:07:35.451Z,,0,1,,6488.150999952311,response,ISIC_0538042.JPG,6,ISIC_0016082.JPG,ISIC_0016082.JPG,false,0,keypress(z),500,90420.39999985695,90420.29999995232,83915.409,83911.79999995232,83932.149,90428.066,8,400,1,,ISIC_0538042.JPG
break,html.Screen,4_0_1,2023-09-08T16:07:35.452Z,,0,,,NaN,,,,,,false,,,,90421.09999990463,90420.89999985695,,90420.5,,90428.066,8,400,,,
break_continue,html.Screen,4_0_2,2023-09-08T16:07:35.452Z,,0,,,NaN,,,,,,false,,,,90421.39999985695,90421.39999985695,,90421.29999995232,,90428.066,8,400,,,
sequence,flow.Sequence,4_0,2023-09-08T16:07:35.452Z,,0,,,6489.250999856944,completion,,,,,false,,,,90421.5,90421.39999985695,83915.409,83911.70000004768,83932.149,90428.066,8,400,,,
trial,html.Screen,4_1_0,2023-09-08T16:07:42.638Z,,0,1,,7179.433999999994,response,ISIC_0033007.JPG,6,ISIC_0001572.JPG,ISIC_0001572.JPG,false,0,keypress(z),500,97607.70000004768,97607.5,90411.376,90421.59999990463,90428.066,97608.687,8,400,2,,ISIC_0033007.JPG
break,html.Screen,4_1_1,2023-09-08T16:07:42.639Z,,0,,,NaN,,,,,,false,,,,97608.20000004768,97608,,97607.89999985695,,97608.687,8,400,,,
break_continue,html.Screen,4_1_2,2023-09-08T16:07:42.639Z,,0,,,NaN,,,,,,false,,,,97608.59999990463,97608.5,,97608.39999985695,,97608.687,8,400,,,
sequence,flow.Sequence,4_1,2023-09-08T16:07:42.639Z,,0,,,7180.433999999994,completion,,,,,false,,,,97608.70000004768,97608.5,90411.376,90421.5,90428.066,97608.687,8,400,,,
trial,html.Screen,4_2_0,2023-09-08T16:07:48.727Z,,0,1,,6087.612999952311,response,ISIC_0034068.JPG,4,ISIC_0071135.JPG,ISIC_0071135.JPG,false,0,keypress(z),500,103696.59999990463,103696.29999995232,97592.188,97608.79999995232,97608.687,103703.945,8,400,3,,ISIC_0034068.JPG
break,html.Screen,4_2_1,2023-09-08T16:07:48.728Z,,0,,,NaN,,,,,,false,,,,103697.5,103697.29999995232,,103696.79999995232,,103703.945,8,400,,,
break_continue,html.Screen,4_2_2,2023-09-08T16:07:48.728Z,,0,,,NaN,,,,,,false,,,,103698,103697.89999985695,,103697.70000004768,,103703.945,8,400,,,
sequence,flow.Sequence,4_2,2023-09-08T16:07:48.729Z,,0,,,6089.2129998569435,completion,,,,,false,,,,103698.20000004768,103697.89999985695,97592.188,97608.79999995232,97608.687,103703.945,8,400,,,
trial,html.Screen,4_3_0,2023-09-08T16:07:54.027Z,,0,1,,5292.354999952309,response,ISIC_0030183.JPG,5,ISIC_9336830.JPG,ISIC_9336830.JPG,false,0,keypress(z),500,108996.5,108996.29999995232,103687.374,103698.39999985695,103703.945,108997.526,8,400,4,,ISIC_0030183.JPG
break,html.Screen,4_3_1,2023-09-08T16:07:54.028Z,,0,,,NaN,,,,,,false,,,,108997.09999990463,108997,,108996.59999990463,,108997.526,8,400,,,
break_continue,html.Screen,4_3_2,2023-09-08T16:07:54.028Z,,0,,,NaN,,,,,,false,,,,108997.5,108997.39999985695,,108997.20000004768,,108997.526,8,400,,,
sequence,flow.Sequence,4_3,2023-09-08T16:07:54.028Z,,0,,,5293.454999856942,completion,,,,,false,,,,108997.89999985695,108997.39999985695,103687.374,103698.29999995232,103703.945,108997.526,8,400,,,
trial,html.Screen,4_4_0,2023-09-08T16:08:00.230Z,,0,1,,6201.474000000002,response,ISIC_2490481.JPG,5,ISIC_5442834.JPG,ISIC_2490481.JPG,false,1,keypress(m),500,115199.39999985695,115199,108980.877,108998.20000004768,108997.526,115209.65,8,400,5,,ISIC_5442834.JPG
break,html.Screen,4_4_1,2023-09-08T16:08:00.232Z,,0,,,NaN,,,,,,false,,,,115201.20000004768,115200.39999985695,,115199.70000004768,,115209.65,8,400,,,
break_continue,html.Screen,4_4_2,2023-09-08T16:08:00.232Z,,0,,,NaN,,,,,,false,,,,115201.89999985695,115201.59999990463,,115201.39999985695,,115209.65,8,400,,,
sequence,flow.Sequence,4_4,2023-09-08T16:08:00.233Z,,0,,,6204.073999904635,completion,,,,,false,,,,115202.39999985695,115201.59999990463,108980.877,108998.09999990463,108997.526,115209.65,8,400,,,
trial,html.Screen,4_5_0,2023-09-08T16:08:05.472Z,,0,1,,5232.0500000476895,response,ISIC_8530010.JPG,4,ISIC_7349440.JPG,ISIC_7349440.JPG,false,0,keypress(z),500,120441.89999985695,120441.70000004768,115192.892,115202.70000004768,115209.65,120453.126,8,400,6,,ISIC_8530010.JPG
break,html.Screen,4_5_1,2023-09-08T16:08:05.473Z,,0,,,NaN,,,,,,false,,,,120442.20000004768,120442.09999990463,,120442,,120453.126,8,400,,,
break_continue,html.Screen,4_5_2,2023-09-08T16:08:05.473Z,,0,,,NaN,,,,,,false,,,,120442.59999990463,120442.5,,120442.39999985695,,120453.126,8,400,,,
sequence,flow.Sequence,4_5,2023-09-08T16:08:05.473Z,,0,,,5232.850000000006,completion,,,,,false,,,,120442.70000004768,120442.5,115192.892,115202.59999990463,115209.65,120453.126,8,400,,,
trial,html.Screen,4_6_0,2023-09-08T16:08:11.958Z,,0,1,,6473.973999904629,response,ISIC_1814941.JPG,5,ISIC_2554114.JPG,ISIC_1814941.JPG,false,1,keypress(m),500,126927.09999990463,126927.09999990463,120436.58,120442.70000004768,120453.126,126932.426,8,400,7,,ISIC_2554114.JPG
break,html.Screen,4_6_1,2023-09-08T16:08:11.958Z,,0,,,NaN,,,,,,false,,,,126927.39999985695,126927.39999985695,,126927.29999995232,,126932.426,8,400,,,
break_continue,html.Screen,4_6_2,2023-09-08T16:08:11.958Z,,0,,,NaN,,,,,,false,,,,126927.70000004768,126927.70000004768,,126927.5,,126932.426,8,400,,,
sequence,flow.Sequence,4_6,2023-09-08T16:08:11.958Z,,0,,,6474.57400004768,completion,,,,,false,,,,126927.70000004768,126927.70000004768,120436.58,120442.70000004768,120453.126,126932.426,8,400,,,
trial,html.Screen,4_7_0,2023-09-08T16:08:16.439Z,,0,1,,4476.3739999523095,response,ISIC_9407690.JPG,5,ISIC_0941332.JPG,ISIC_9407690.JPG,false,1,keypress(m),500,131409,131408.79999995232,126915.813,126927.79999995232,126932.426,131424.476,8,400,8,,ISIC_0941332.JPG
break,html.Screen,4_7_1,2023-09-08T16:08:16.440Z,,0,,,NaN,,,,,,false,,,,131409.39999985695,131409.20000004768,,131409,,131424.476,8,400,,,
break_continue,html.Screen,4_7_2,2023-09-08T16:08:16.440Z,,0,,,NaN,,,,,,false,,,,131409.59999990463,131409.5,,131409.39999985695,,131424.476,8,400,,,
sequence,flow.Sequence,4_7,2023-09-08T16:08:16.440Z,,0,,,4477.073999999993,completion,,,,,false,,,,131409.59999990463,131409.5,126915.813,126927.70000004768,126932.426,131424.476,8,400,,,
trial,html.Screen,4_8_0,2023-09-08T16:08:20.617Z,,0,1,,4161.923999856954,response,ISIC_0064534.JPG,4,ISIC_0927854.JPG,ISIC_0927854.JPG,false,0,keypress(z),500,135586.79999995232,135586.39999985695,131407.796,131409.70000004768,131424.476,135599.359,8,400,9,,ISIC_0064534.JPG
break,html.Screen,4_8_1,2023-09-08T16:08:20.619Z,,0,,,NaN,,,,,,false,,,,135588.39999985695,135588,,135587.29999995232,,135599.359,8,400,,,
break_continue,html.Screen,4_8_2,2023-09-08T16:08:20.619Z,,0,,,NaN,,,,,,false,,,,135589,135588.79999995232,,135588.70000004768,,135599.359,8,400,,,
sequence,flow.Sequence,4_8,2023-09-08T16:08:20.620Z,,0,,,4164.323999952321,completion,,,,,false,,,,135589.20000004768,135588.79999995232,131407.796,131409.59999990463,131424.476,135599.359,8,400,,,
trial,html.Screen,4_9_0,2023-09-08T16:08:26.190Z,,0,1,,5560.141000000003,response,ISIC_0071430.JPG,5,ISIC_0000429.JPG,ISIC_0000429.JPG,false,0,keypress(z),500,141159.70000004768,141159.5,135582.537,135589.5,135599.359,141176.95,8,400,10,,ISIC_0071430.JPG
break,html.Screen,4_9_1,2023-09-08T16:08:26.191Z,,0,,,NaN,,,,,,false,,,,141161.09999990463,141160.79999995232,,141159.89999985695,,141176.95,8,400,,,
break_continue,html.Screen,4_9_2,2023-09-08T16:08:26.192Z,,0,,,NaN,,,,,,false,,,,141161.39999985695,141161.29999995232,,141161.20000004768,,141176.95,8,400,,,
sequence,flow.Sequence,4_9,2023-09-08T16:08:26.192Z,,0,,,5561.9409999523195,completion,,,,,false,,,,141161.59999990463,141161.29999995232,135582.537,135589.39999985695,135599.359,141176.95,8,400,,,
trial,html.Screen,4_10_0,2023-09-08T16:08:34.469Z,,0,1,,8261.549999999988,response,ISIC_0031709.JPG,5,ISIC_5288404.JPG,ISIC_5288404.JPG,false,0,keypress(z),500,149438.70000004768,149438.5,141160.173,141162.70000004768,141176.95,149442.94,8,400,11,,ISIC_0031709.JPG
break,html.Screen,4_10_1,2023-09-08T16:08:34.470Z,,0,,,NaN,,,,,,false,,,,149439.59999990463,149439.29999995232,,149439,,149442.94,8,400,,,
break_continue,html.Screen,4_10_2,2023-09-08T16:08:34.470Z,,0,,,NaN,,,,,,false,,,,149440.09999990463,149439.89999985695,,149439.70000004768,,149442.94,8,400,,,
sequence,flow.Sequence,4_10,2023-09-08T16:08:34.471Z,,0,,,8262.949999856937,completion,,,,,false,,,,149440.29999995232,149439.89999985695,141160.173,141162.59999990463,141176.95,149442.94,8,400,,,
trial,html.Screen,4_11_0,2023-09-08T16:08:39.129Z,,0,1,,4655.4599998569465,response,ISIC_3952694.JPG,4,ISIC_0204355.JPG,ISIC_3952694.JPG,false,1,keypress(m),500,154098.5,154098.39999985695,149426.14,149440.5,149442.94,154101.959,8,400,12,,ISIC_0204355.JPG
break,html.Screen,4_11_1,2023-09-08T16:08:39.129Z,,0,,,NaN,,,,,,false,,,,154099.20000004768,154099,,154098.79999995232,,154101.959,8,400,,,
break_continue,html.Screen,4_11_2,2023-09-08T16:08:39.130Z,,0,,,NaN,,,,,,false,,,,154099.5,154099.39999985695,,154099.20000004768,,154101.959,8,400,,,
sequence,flow.Sequence,4_11,2023-09-08T16:08:39.130Z,,0,,,4656.4599998569465,completion,,,,,false,,,,154099.59999990463,154099.39999985695,149426.14,149440.5,149442.94,154101.959,8,400,,,
trial,html.Screen,4_12_0,2023-09-08T16:08:43.211Z,,0,1,,4078.8409999523137,response,ISIC_8135931.JPG,4,ISIC_0024308.JPG,ISIC_8135931.JPG,false,1,keypress(m),500,158180.89999985695,158180.79999995232,154085.462,154099.70000004768,154101.959,158193.312,8,400,13,,ISIC_0024308.JPG
break,html.Screen,4_12_1,2023-09-08T16:08:43.212Z,,0,,,NaN,,,,,,false,,,,158181.5,158181.20000004768,,158181.09999990463,,158193.312,8,400,,,
break_continue,html.Screen,4_12_2,2023-09-08T16:08:43.212Z,,0,,,NaN,,,,,,false,,,,158181.89999985695,158181.79999995232,,158181.59999990463,,158193.312,8,400,,,
sequence,flow.Sequence,4_12,2023-09-08T16:08:43.212Z,,0,,,4079.8409999523137,completion,,,,,false,,,,158182.09999990463,158181.79999995232,154085.462,154099.70000004768,154101.959,158193.312,8,400,,,
trial,html.Screen,4_13_0,2023-09-08T16:08:50.005Z,,0,1,,6781.5879998569435,response,ISIC_0055388.JPG,6,ISIC_3824206.JPG,ISIC_0055388.JPG,false,1,keypress(m),500,164975.09999990463,164974.89999985695,158176.578,158182.20000004768,158193.312,164989.795,8,400,14,,ISIC_3824206.JPG
break,html.Screen,4_13_1,2023-09-08T16:08:50.006Z,,0,,,NaN,,,,,,false,,,,164975.89999985695,164975.59999990463,,164975.29999995232,,164989.795,8,400,,,
break_continue,html.Screen,4_13_2,2023-09-08T16:08:50.007Z,,0,,,NaN,,,,,,false,,,,164976.29999995232,164976.20000004768,,164976.09999990463,,164989.795,8,400,,,
sequence,flow.Sequence,4_13,2023-09-08T16:08:50.007Z,,0,,,6782.888000047678,completion,,,,,false,,,,164976.5,164976.20000004768,158176.578,158182.09999990463,158193.312,164989.795,8,400,,,
trial,html.Screen,4_14_0,2023-09-08T16:08:54.186Z,,0,1,,4165.0049999523035,response,ISIC_6345354.JPG,4,ISIC_1305537.JPG,ISIC_6345354.JPG,false,1,keypress(m),500,169155.20000004768,169154.79999995232,164973.265,164976.59999990463,164989.795,169164.76,8,400,15,,ISIC_1305537.JPG
break,html.Screen,4_14_1,2023-09-08T16:08:54.187Z,,0,,,NaN,,,,,,false,,,,169156.29999995232,169156,,169155.59999990463,,169164.76,8,400,,,
break_continue,html.Screen,4_14_2,2023-09-08T16:08:54.187Z,,0,,,NaN,,,,,,false,,,,169156.79999995232,169156.70000004768,,169156.59999990463,,169164.76,8,400,,,
sequence,flow.Sequence,4_14,2023-09-08T16:08:54.188Z,,0,,,4166.905000047671,completion,,,,,false,,,,169157.20000004768,169156.70000004768,164973.265,164976.59999990463,164989.795,169164.76,8,400,,,
trial,html.Screen,4_15_0,2023-09-08T16:08:59.582Z,,0,1,,5387.039999952307,response,ISIC_0013674.JPG,5,ISIC_0025778.JPG,ISIC_0013674.JPG,false,1,keypress(m),500,174552,174551.79999995232,169148.055,169157.39999985695,169164.76,174558.49,8,400,16,,ISIC_0025778.JPG
break,html.Screen,4_15_1,2023-09-08T16:08:59.583Z,,0,,,NaN,,,,,,false,,,,174553,174552.59999990463,,174552.29999995232,,174558.49,8,400,,,
break_continue,html.Screen,4_15_2,2023-09-08T16:08:59.584Z,,0,,,NaN,,,,,,false,,,,174553.39999985695,174553.29999995232,,174553.20000004768,,174558.49,8,400,,,
sequence,flow.Sequence,4_15,2023-09-08T16:08:59.584Z,,0,,,5388.539999952307,completion,,,,,false,,,,174553.59999990463,174553.29999995232,169148.055,169157.29999995232,169164.76,174558.49,8,400,,,
trial,html.Screen,4_16_0,2023-09-08T16:09:05.447Z,,0,1,,5857.710000047693,response,ISIC_0024720.JPG,5,ISIC_1735204.JPG,ISIC_1735204.JPG,false,0,keypress(z),500,180416.39999985695,180416.20000004768,174541.708,174553.70000004768,174558.49,180419.9,8,400,17,,ISIC_0024720.JPG
break,html.Screen,4_16_1,2023-09-08T16:09:05.448Z,,0,,,NaN,,,,,,false,,,,180417.29999995232,180417.09999990463,,180416.79999995232,,180419.9,8,400,,,
break_continue,html.Screen,4_16_2,2023-09-08T16:09:05.448Z,,0,,,NaN,,,,,,false,,,,180417.79999995232,180417.59999990463,,180417.5,,180419.9,8,400,,,
sequence,flow.Sequence,4_16,2023-09-08T16:09:05.448Z,,0,,,5859.109999904642,completion,,,,,false,,,,180418,180417.59999990463,174541.708,174553.70000004768,174558.49,180419.9,8,400,,,
trial,html.Screen,4_17_0,2023-09-08T16:09:12.107Z,,0,1,,6656.199999904638,response,ISIC_5807112.JPG,6,ISIC_7004652.JPG,ISIC_5807112.JPG,false,1,keypress(m),500,187076.20000004768,187076.09999990463,180403.286,180418.20000004768,180419.9,187082.919,8,400,18,,ISIC_7004652.JPG
break,html.Screen,4_17_1,2023-09-08T16:09:12.107Z,,0,,,NaN,,,,,,false,,,,187076.5,187076.5,,187076.20000004768,,187082.919,8,400,,,
break_continue,html.Screen,4_17_2,2023-09-08T16:09:12.107Z,,0,,,NaN,,,,,,false,,,,187076.79999995232,187076.70000004768,,187076.59999990463,,187082.919,8,400,,,
sequence,flow.Sequence,4_17,2023-09-08T16:09:12.107Z,,0,,,6656.8000000476895,completion,,,,,false,,,,187076.89999985695,187076.70000004768,180403.286,180418.09999990463,180419.9,187082.919,8,400,,,
trial,html.Screen,4_18_0,2023-09-08T16:09:18.110Z,,0,1,,5995.680999904638,response,ISIC_2000959.JPG,4,ISIC_0059350.JPG,ISIC_0059350.JPG,false,0,keypress(z),500,193078.70000004768,193078.59999990463,187066.352,187076.89999985695,187082.919,193094.462,8,400,19,,ISIC_2000959.JPG
break,html.Screen,4_18_1,2023-09-08T16:09:18.110Z,,0,,,NaN,,,,,,false,,,,193079.09999990463,193078.89999985695,,193078.79999995232,,193094.462,8,400,,,
break_continue,html.Screen,4_18_2,2023-09-08T16:09:18.110Z,,0,,,NaN,,,,,,false,,,,193079.20000004768,193079.20000004768,,193079.09999990463,,193094.462,8,400,,,
sequence,flow.Sequence,4_18,2023-09-08T16:09:18.110Z,,0,,,5996.281000047689,completion,,,,,false,,,,193079.29999995232,193079.20000004768,187066.352,187076.89999985695,187082.919,193094.462,8,400,,,
trial,html.Screen,4_19_0,2023-09-08T16:09:25.379Z,,0,1,,7252.738000047684,response,ISIC_0063845.JPG,5,ISIC_0010017.JPG,ISIC_0010017.JPG,false,0,keypress(z),500,200347.59999990463,200347.20000004768,193077.97,193079.39999985695,193094.462,200358.699,8,400,20,,ISIC_0063845.JPG
break,html.Screen,4_19_1,2023-09-08T16:09:25.380Z,,0,,,NaN,,,,,,false,,,,200348.5,200348.20000004768,,200347.89999985695,,200358.699,8,400,,,
break_continue,html.Screen,4_19_2,2023-09-08T16:09:25.380Z,,0,,,NaN,,,,,,false,,,,200349,200348.79999995232,,200348.59999990463,,200358.699,8,400,,,
sequence,flow.Sequence,4_19,2023-09-08T16:09:25.380Z,,0,,,7254.337999952317,completion,,,,,false,,,,200349.20000004768,200348.79999995232,193077.97,193079.29999995232,193094.462,200358.699,8,400,,,
trial,html.Screen,4_20_0,2023-09-08T16:09:29.515Z,,0,1,,4125.5010000476905,response,ISIC_6569060.JPG,5,ISIC_0844312.JPG,ISIC_0844312.JPG,false,0,keypress(z),500,204484.29999995232,204484.20000004768,200341.967,200349.29999995232,200358.699,204500.322,8,400,21,,ISIC_6569060.JPG
break,html.Screen,4_20_1,2023-09-08T16:09:29.516Z,,0,,,NaN,,,,,,false,,,,204484.70000004768,204484.59999990463,,204484.39999985695,,204500.322,8,400,,,
break_continue,html.Screen,4_20_2,2023-09-08T16:09:29.516Z,,0,,,NaN,,,,,,false,,,,204485,204484.89999985695,,204484.89999985695,,204500.322,8,400,,,
sequence,flow.Sequence,4_20,2023-09-08T16:09:29.516Z,,0,,,4126.200999856956,completion,,,,,false,,,,204485.09999990463,204484.89999985695,200341.967,200349.29999995232,200358.699,204500.322,8,400,,,
trial,html.Screen,4_21_0,2023-09-08T16:09:33.701Z,,0,1,,4168.977999952331,response,ISIC_0025602.JPG,5,ISIC_0014189.JPG,ISIC_0025602.JPG,false,1,keypress(m),500,208669.5,208669.29999995232,204483.435,204485.20000004768,204500.322,208674.859,8,400,22,,ISIC_0014189.JPG
break,html.Screen,4_21_1,2023-09-08T16:09:33.702Z,,0,,,NaN,,,,,,false,,,,208670.39999985695,208670.20000004768,,208669.79999995232,,208674.859,8,400,,,
break_continue,html.Screen,4_21_2,2023-09-08T16:09:33.702Z,,0,,,NaN,,,,,,false,,,,208670.79999995232,208670.70000004768,,208670.59999990463,,208674.859,8,400,,,
sequence,flow.Sequence,4_21,2023-09-08T16:09:33.702Z,,0,,,4170.378000047698,completion,,,,,false,,,,208671.09999990463,208670.70000004768,204483.435,204485.20000004768,204500.322,208674.859,8,400,,,
trial,html.Screen,4_22_0,2023-09-08T16:09:38.701Z,,0,1,,4994.341000047687,response,ISIC_0001126.JPG,6,ISIC_0024263.JPG,ISIC_0024263.JPG,false,0,keypress(z),500,213669.5,213669.20000004768,208658.32,208671.29999995232,208674.859,213684.609,8,400,23,,ISIC_0001126.JPG
break,html.Screen,4_22_1,2023-09-08T16:09:38.701Z,,0,,,NaN,,,,,,false,,,,213670.29999995232,213670.09999990463,,213669.59999990463,,213684.609,8,400,,,
break_continue,html.Screen,4_22_2,2023-09-08T16:09:38.702Z,,0,,,NaN,,,,,,false,,,,213670.5,213670.5,,213670.39999985695,,213684.609,8,400,,,
sequence,flow.Sequence,4_22,2023-09-08T16:09:38.702Z,,0,,,4995.641000000003,completion,,,,,false,,,,213670.5,213670.5,208658.32,208671.20000004768,208674.859,213684.609,8,400,,,
trial,html.Screen,4_23_0,2023-09-08T16:09:43.823Z,,0,1,,5107.490999904636,response,ISIC_3436033.JPG,6,ISIC_0024427.JPG,ISIC_0024427.JPG,false,0,keypress(z),500,218792.20000004768,218792.09999990463,213668.002,213670.59999990463,213684.609,218794.517,8,400,24,,ISIC_3436033.JPG
break,html.Screen,4_23_1,2023-09-08T16:09:43.824Z,,0,,,NaN,,,,,,false,,,,218792.5,218792.5,,218792.20000004768,,218794.517,8,400,,,
break_continue,html.Screen,4_23_2,2023-09-08T16:09:43.824Z,,0,,,NaN,,,,,,false,,,,218792.70000004768,218792.59999990463,,218792.59999990463,,218794.517,8,400,,,
sequence,flow.Sequence,4_23,2023-09-08T16:09:43.824Z,,0,,,5107.990999904636,completion,,,,,false,,,,218792.79999995232,218792.59999990463,213668.002,213670.59999990463,213684.609,218794.517,8,400,,,
trial,html.Screen,4_24_0,2023-09-08T16:09:48.227Z,,0,1,,4400.983000000007,response,ISIC_5619654.JPG,5,ISIC_0058198.JPG,ISIC_5619654.JPG,false,1,keypress(m),500,223195.89999985695,223195.5,218777.795,218792.79999995232,218794.517,223203.196,8,400,25,,ISIC_0058198.JPG
break,html.Screen,4_24_1,2023-09-08T16:09:48.228Z,,0,,,NaN,,,,,,false,,,,223196.70000004768,223196.5,,223196.09999990463,,223203.196,8,400,,,
break_continue,html.Screen,4_24_2,2023-09-08T16:09:48.228Z,,0,,,NaN,,,,,,false,,,,223197.09999990463,223197,,223196.79999995232,,223203.196,8,400,,,
sequence,flow.Sequence,4_24,2023-09-08T16:09:48.229Z,,0,,,4402.483000000007,completion,,,,,false,,,,223197.39999985695,223197,218777.795,218792.79999995232,218794.517,223203.196,8,400,,,
trial,html.Screen,4_25_0,2023-09-08T16:09:55.831Z,,0,1,,7596.403999904636,response,ISIC_0031941.JPG,5,ISIC_0055924.JPG,ISIC_0031941.JPG,false,1,keypress(m),500,230799.79999995232,230799.59999990463,223186.539,223197.5,223203.196,230801.234,8,400,26,,ISIC_0055924.JPG
break,html.Screen,4_25_1,2023-09-08T16:09:55.832Z,,0,,,NaN,,,,,,false,,,,230800.70000004768,230800.5,,230800.20000004768,,230801.234,8,400,,,
break_continue,html.Screen,4_25_2,2023-09-08T16:09:55.832Z,,0,,,NaN,,,,,,false,,,,230801.20000004768,230801.09999990463,,230800.89999985695,,230801.234,8,400,,,
sequence,flow.Sequence,4_25,2023-09-08T16:09:55.833Z,,0,,,7597.903999904636,completion,,,,,false,,,,230801.39999985695,230801.09999990463,223186.539,223197.5,223203.196,230801.234,8,400,,,
trial,html.Screen,4_26_0,2023-09-08T16:10:04.283Z,,0,1,,8450.365999904636,response,ISIC_0070927.JPG,5,ISIC_0591011.JPG,ISIC_0591011.JPG,false,0,keypress(z),500,239251.79999995232,239251.59999990463,230784.539,230801.70000004768,230801.234,239267.788,8,400,27,,ISIC_0070927.JPG
break,html.Screen,4_26_1,2023-09-08T16:10:04.284Z,,0,,,NaN,,,,,,false,,,,239252.79999995232,239252.5,,239252.20000004768,,239267.788,8,400,,,
break_continue,html.Screen,4_26_2,2023-09-08T16:10:04.284Z,,0,,,NaN,,,,,,false,,,,239253.20000004768,239253.09999990463,,239252.89999985695,,239267.788,8,400,,,
sequence,flow.Sequence,4_26,2023-09-08T16:10:04.285Z,,0,,,8451.865999904636,completion,,,,,false,,,,239253.5,239253.09999990463,230784.539,230801.70000004768,230801.234,239267.788,8,400,,,
trial,html.Screen,4_27_0,2023-09-08T16:10:08.735Z,,0,1,,4436.111999856948,response,ISIC_0032823.JPG,5,ISIC_4382115.JPG,ISIC_4382115.JPG,false,0,keypress(z),500,243704,243703.89999985695,239251.187,239253.59999990463,239267.788,243709.853,8,400,28,,ISIC_0032823.JPG
break,html.Screen,4_27_1,2023-09-08T16:10:08.735Z,,0,,,NaN,,,,,,false,,,,243704.29999995232,243704.20000004768,,243704.09999990463,,243709.853,8,400,,,
break_continue,html.Screen,4_27_2,2023-09-08T16:10:08.736Z,,0,,,NaN,,,,,,false,,,,243704.5,243704.5,,243704.39999985695,,243709.853,8,400,,,
sequence,flow.Sequence,4_27,2023-09-08T16:10:08.736Z,,0,,,4436.7119999999995,completion,,,,,false,,,,243704.70000004768,243704.5,239251.187,239253.59999990463,239267.788,243709.853,8,400,,,
trial,html.Screen,4_28_0,2023-09-08T16:10:12.982Z,,0,1,,4240.74699990463,response,ISIC_5707761.JPG,5,ISIC_0010933.JPG,ISIC_5707761.JPG,false,1,keypress(m),500,247950.70000004768,247950.59999990463,243693.157,243704.70000004768,243709.853,247951.195,8,400,29,,ISIC_0010933.JPG
break,html.Screen,4_28_1,2023-09-08T16:10:12.982Z,,0,,,NaN,,,,,,false,,,,247951,247950.89999985695,,247950.79999995232,,247951.195,8,400,,,
break_continue,html.Screen,4_28_2,2023-09-08T16:10:12.982Z,,0,,,NaN,,,,,,false,,,,247951.20000004768,247951.09999990463,,247951,,247951.195,8,400,,,
sequence,flow.Sequence,4_28,2023-09-08T16:10:12.982Z,,0,,,4241.24699990463,completion,,,,,false,,,,247951.29999995232,247951.09999990463,243693.157,243704.70000004768,243709.853,247951.195,8,400,,,
trial,html.Screen,4_29_0,2023-09-08T16:10:18.168Z,,0,1,,5185.404999904626,response,ISIC_5307210.JPG,4,ISIC_1920685.JPG,ISIC_1920685.JPG,false,0,keypress(z),500,253136.70000004768,253136.59999990463,247934.641,247951.29999995232,247951.195,253144.681,8,400,30,,ISIC_5307210.JPG
break,html.Screen,4_29_1,2023-09-08T16:10:18.169Z,,0,,,NaN,,,,,,false,,,,253137.29999995232,253137.09999990463,,253136.79999995232,,253144.681,8,400,,,
break_continue,html.Screen,4_29_2,2023-09-08T16:10:18.169Z,,0,,,NaN,,,,,,false,,,,253137.59999990463,253137.59999990463,,253137.39999985695,,253144.681,8,400,,,
sequence,flow.Sequence,4_29,2023-09-08T16:10:18.170Z,,0,,,5186.404999904626,completion,,,,,false,,,,253137.79999995232,253137.59999990463,247934.641,247951.29999995232,247951.195,253144.681,8,400,,,
trial,html.Screen,4_30_0,2023-09-08T16:10:22.955Z,,0,1,,4778.218999856937,response,ISIC_0072730.JPG,6,ISIC_1165548.JPG,ISIC_1165548.JPG,false,0,keypress(z),500,257923,257922.89999985695,253127.963,253137.89999985695,253144.681,257954.291,8,400,31,,ISIC_0072730.JPG
break,html.Screen,4_30_1,2023-09-08T16:10:22.955Z,,0,,,NaN,,,,,,false,,,,257923.29999995232,257923.20000004768,,257923,,257954.291,8,400,,,
break_continue,html.Screen,4_30_2,2023-09-08T16:10:22.955Z,,0,,,NaN,,,,,,false,,,,257923.39999985695,257923.39999985695,,257923.39999985695,,257954.291,8,400,,,
sequence,flow.Sequence,4_30,2023-09-08T16:10:22.955Z,,0,,,4778.718999856937,completion,,,,,false,,,,257923.59999990463,257923.39999985695,253127.963,253137.89999985695,253144.681,257954.291,8,400,,,
trial,html.Screen,4_31_0,2023-09-08T16:10:26.957Z,,0,1,,3971.2090000000026,response,ISIC_0012538.JPG,4,ISIC_0028175.JPG,ISIC_0012538.JPG,false,1,keypress(m),500,261925.59999990463,261925.5,257937.415,257923.59999990463,257954.291,261928.455,8,400,32,,ISIC_0028175.JPG
break,html.Screen,4_31_1,2023-09-08T16:10:26.958Z,,0,,,NaN,,,,,,false,,,,261926.20000004768,261926,,261925.79999995232,,261928.455,8,400,,,
break_continue,html.Screen,4_31_2,2023-09-08T16:10:26.958Z,,0,,,NaN,,,,,,false,,,,261926.59999990463,261926.5,,261926.29999995232,,261928.455,8,400,,,
sequence,flow.Sequence,4_31,2023-09-08T16:10:26.958Z,,0,,,3972.2090000000026,completion,,,,,false,,,,261926.70000004768,261926.5,257937.415,257923.59999990463,257954.291,261928.455,8,400,,,
trial,html.Screen,4_32_0,2023-09-08T16:10:31.344Z,,0,1,,4383.944999856962,response,ISIC_0005139.JPG,6,ISIC_8769415.JPG,ISIC_8769415.JPG,false,0,keypress(z),500,266312.5,266312.39999985695,261911.894,261926.79999995232,261928.455,266320.492,8,400,33,,ISIC_0005139.JPG
break,html.Screen,4_32_1,2023-09-08T16:10:31.345Z,,0,,,NaN,,,,,,false,,,,266312.89999985695,266312.89999985695,,266312.59999990463,,266320.492,8,400,,,
break_continue,html.Screen,4_32_2,2023-09-08T16:10:31.345Z,,0,,,NaN,,,,,,false,,,,266313.2000000477,266313.2000000477,,266313,,266320.492,8,400,,,
sequence,flow.Sequence,4_32,2023-09-08T16:10:31.345Z,,0,,,4384.7450000476965,completion,,,,,false,,,,266313.2999999523,266313.2000000477,261911.894,261926.70000004768,261928.455,266320.492,8,400,,,
trial,html.Screen,4_33_0,2023-09-08T16:10:36.099Z,,0,1,,4746.107999904605,response,ISIC_8794567.JPG,5,ISIC_0032046.JPG,ISIC_8794567.JPG,false,1,keypress(m),500,271067.09999990463,271066.59999990463,266303.638,266313.39999985695,266320.492,271079.664,8,400,34,,ISIC_0032046.JPG
break,html.Screen,4_33_1,2023-09-08T16:10:36.100Z,,0,,,NaN,,,,,,false,,,,271068.39999985695,271068.09999990463,,271067.5,,271079.664,8,400,,,
break_continue,html.Screen,4_33_2,2023-09-08T16:10:36.101Z,,0,,,NaN,,,,,,false,,,,271068.89999985695,271068.7999999523,,271068.59999990463,,271079.664,8,400,,,
sequence,flow.Sequence,4_33,2023-09-08T16:10:36.101Z,,0,,,4748.307999952289,completion,,,,,false,,,,271069.2000000477,271068.7999999523,266303.638,266313.39999985695,266320.492,271079.664,8,400,,,
trial,html.Screen,4_34_0,2023-09-08T16:10:41.991Z,,0,1,,5879.536000047694,response,ISIC_8389839.JPG,6,ISIC_1774797.JPG,ISIC_1774797.JPG,false,0,keypress(z),500,276959.59999990463,276959.2000000477,271063.071,271069.39999985695,271079.664,276974.448,8,400,35,,ISIC_8389839.JPG
break,html.Screen,4_34_1,2023-09-08T16:10:41.992Z,,0,,,NaN,,,,,,false,,,,276960.7000000477,276960.39999985695,,276959.89999985695,,276974.448,8,400,,,
break_continue,html.Screen,4_34_2,2023-09-08T16:10:41.993Z,,0,,,NaN,,,,,,false,,,,276961.2999999523,276961.09999990463,,276960.89999985695,,276974.448,8,400,,,
sequence,flow.Sequence,4_34,2023-09-08T16:10:41.993Z,,0,,,5881.435999904643,completion,,,,,false,,,,276961.59999990463,276961.09999990463,271063.071,271069.2999999523,271079.664,276974.448,8,400,,,
trial,html.Screen,4_35_0,2023-09-08T16:10:45.473Z,,0,1,,3466.8519999523414,response,ISIC_0030694.JPG,5,ISIC_0031096.JPG,ISIC_0031096.JPG,false,0,keypress(z),500,280441.59999990463,280441.2999999523,276957.996,276961.7999999523,276974.448,280447.856,8,400,36,,ISIC_0030694.JPG
break,html.Screen,4_35_1,2023-09-08T16:10:45.474Z,,0,,,NaN,,,,,,false,,,,280442.2000000477,280442.09999990463,,280441.7999999523,,280447.856,8,400,,,
break_continue,html.Screen,4_35_2,2023-09-08T16:10:45.475Z,,0,,,NaN,,,,,,false,,,,280442.7999999523,280442.7000000477,,280442.59999990463,,280447.856,8,400,,,
sequence,flow.Sequence,4_35,2023-09-08T16:10:45.475Z,,0,,,3468.252000047709,completion,,,,,false,,,,280443,280442.7000000477,276957.996,276961.7999999523,276974.448,280447.856,8,400,,,
trial,html.Screen,4_36_0,2023-09-08T16:10:51.397Z,,0,1,,5917.143999999971,response,ISIC_0003159.JPG,5,ISIC_0000135.JPG,ISIC_0003159.JPG,false,1,keypress(m),500,286365.2999999523,286365,280431.222,280443.2000000477,280447.856,286376.091,8,400,37,,ISIC_0000135.JPG
break,html.Screen,4_36_1,2023-09-08T16:10:51.397Z,,0,,,NaN,,,,,,false,,,,286365.7999999523,286365.59999990463,,286365.39999985695,,286376.091,8,400,,,
break_continue,html.Screen,4_36_2,2023-09-08T16:10:51.398Z,,0,,,NaN,,,,,,false,,,,286366.2999999523,286366.2000000477,,286366,,286376.091,8,400,,,
sequence,flow.Sequence,4_36,2023-09-08T16:10:51.398Z,,0,,,5918.344000047655,completion,,,,,false,,,,286366.5,286366.2000000477,280431.222,280443.09999990463,280447.856,286376.091,8,400,,,
trial,html.Screen,4_37_0,2023-09-08T16:10:58.967Z,,0,1,,7559.508999904618,response,ISIC_1358527.JPG,5,ISIC_0064071.JPG,ISIC_0064071.JPG,false,0,keypress(z),500,293935.7000000477,293935.59999990463,286359.477,286366.59999990463,286376.091,293940.766,8,400,38,,ISIC_1358527.JPG
break,html.Screen,4_37_1,2023-09-08T16:10:58.968Z,,0,,,NaN,,,,,,false,,,,293936.09999990463,293935.89999985695,,293935.7999999523,,293940.766,8,400,,,
break_continue,html.Screen,4_37_2,2023-09-08T16:10:58.968Z,,0,,,NaN,,,,,,false,,,,293936.5,293936.39999985695,,293936.2999999523,,293940.766,8,400,,,
sequence,flow.Sequence,4_37,2023-09-08T16:10:58.968Z,,0,,,7560.308999856934,completion,,,,,false,,,,293936.59999990463,293936.39999985695,286359.477,286366.59999990463,286376.091,293940.766,8,400,,,
trial,html.Screen,4_38_0,2023-09-08T16:11:04.415Z,,0,1,,5441.9340000476805,response,ISIC_6201695.JPG,4,ISIC_0011114.JPG,ISIC_6201695.JPG,false,1,keypress(m),500,299383.09999990463,299382.7000000477,293924.166,293936.7000000477,293940.766,299384.697,8,400,39,,ISIC_0011114.JPG
break,html.Screen,4_38_1,2023-09-08T16:11:04.416Z,,0,,,NaN,,,,,,false,,,,299384,299383.7999999523,,299383.2999999523,,299384.697,8,400,,,
break_continue,html.Screen,4_38_2,2023-09-08T16:11:04.417Z,,0,,,NaN,,,,,,false,,,,299385,299384.39999985695,,299384.2000000477,,299384.697,8,400,,,
sequence,flow.Sequence,4_38,2023-09-08T16:11:04.417Z,,0,,,5443.633999856946,completion,,,,,false,,,,299385.59999990463,299384.39999985695,293924.166,293936.59999990463,293940.766,299384.697,8,400,,,
trial,html.Screen,4_39_0,2023-09-08T16:11:09.991Z,,0,1,,5574.402999904647,response,ISIC_0025458.JPG,4,ISIC_7164403.JPG,ISIC_0025458.JPG,false,1,keypress(m),500,304959.5,304959.09999990463,299367.996,299386,299384.697,304962.253,8,400,40,,ISIC_7164403.JPG
break,html.Screen,4_39_1,2023-09-08T16:11:09.992Z,,0,,,NaN,,,,,,false,,,,304960.2999999523,304960.09999990463,,304959.7999999523,,304962.253,8,400,,,
break_continue,html.Screen,4_39_2,2023-09-08T16:11:09.992Z,,0,,,NaN,,,,,,false,,,,304960.7000000477,304960.59999990463,,304960.5,,304962.253,8,400,,,
sequence,flow.Sequence,4_39,2023-09-08T16:11:09.993Z,,0,,,5575.902999904647,completion,,,,,false,,,,304961,304960.59999990463,299367.996,299385.89999985695,299384.697,304962.253,8,400,,,
trial,html.Screen,4_40_0,2023-09-08T16:11:14.652Z,,0,1,,4657.246999999974,response,ISIC_0067985.JPG,4,ISIC_1948545.JPG,ISIC_1948545.JPG,false,0,keypress(z),500,309619.7999999523,309619.5,304945.569,304961.2000000477,304962.253,309621.308,8,400,41,,ISIC_0067985.JPG
break,html.Screen,4_40_1,2023-09-08T16:11:14.653Z,,0,,,NaN,,,,,,false,,,,309620.89999985695,309620.59999990463,,309620.09999990463,,309621.308,8,400,,,
break_continue,html.Screen,4_40_2,2023-09-08T16:11:14.653Z,,0,,,NaN,,,,,,false,,,,309621.7000000477,309621.2999999523,,309621.09999990463,,309621.308,8,400,,,
sequence,flow.Sequence,4_40,2023-09-08T16:11:14.654Z,,0,,,4659.04699995229,completion,,,,,false,,,,309622.09999990463,309621.2999999523,304945.569,304961.09999990463,304962.253,309621.308,8,400,,,
trial,html.Screen,4_41_0,2023-09-08T16:11:20.598Z,,0,1,,5944.7919999046135,response,ISIC_4148086.JPG,6,ISIC_1711973.JPG,ISIC_1711973.JPG,false,0,keypress(z),500,315566.39999985695,315566.09999990463,309604.592,309622.5,309621.308,315582.863,8,400,42,,ISIC_4148086.JPG
break,html.Screen,4_41_1,2023-09-08T16:11:20.599Z,,0,,,NaN,,,,,,false,,,,315566.7999999523,315566.7000000477,,315566.5,,315582.863,8,400,,,
break_continue,html.Screen,4_41_2,2023-09-08T16:11:20.599Z,,0,,,NaN,,,,,,false,,,,315567,315567,,315566.89999985695,,315582.863,8,400,,,
sequence,flow.Sequence,4_41,2023-09-08T16:11:20.599Z,,0,,,5945.691999999981,completion,,,,,false,,,,315567.09999990463,315567,309604.592,309622.39999985695,309621.308,315582.863,8,400,,,
trial,html.Screen,4_42_0,2023-09-08T16:11:27.120Z,,0,1,,6504.936999952304,response,ISIC_2007034.JPG,6,ISIC_0069183.JPG,ISIC_2007034.JPG,false,1,keypress(m),500,322088,322087.7999999523,315566.117,315567.09999990463,315582.863,322095.572,8,400,43,,ISIC_0069183.JPG
break,html.Screen,4_42_1,2023-09-08T16:11:27.121Z,,0,,,NaN,,,,,,false,,,,322089,322088.7999999523,,322088.2999999523,,322095.572,8,400,,,
break_continue,html.Screen,4_42_2,2023-09-08T16:11:27.122Z,,0,,,NaN,,,,,,false,,,,322089.5,322089.2999999523,,322089.2000000477,,322095.572,8,400,,,
sequence,flow.Sequence,4_42,2023-09-08T16:11:27.122Z,,0,,,6506.436999952304,completion,,,,,false,,,,322089.7000000477,322089.2999999523,315566.117,315567.09999990463,315582.863,322095.572,8,400,,,
trial,html.Screen,4_43_0,2023-09-08T16:11:31.460Z,,0,1,,4332.527999904647,response,ISIC_1818238.JPG,5,ISIC_4756167.JPG,ISIC_4756167.JPG,false,0,keypress(z),500,326428.2000000477,326428.09999990463,322078.952,322089.89999985695,322095.572,326437.33,8,400,44,,ISIC_1818238.JPG
break,html.Screen,4_43_1,2023-09-08T16:11:31.461Z,,0,,,NaN,,,,,,false,,,,326428.7000000477,326428.5,,326428.2999999523,,326437.33,8,400,,,
break_continue,html.Screen,4_43_2,2023-09-08T16:11:31.461Z,,0,,,NaN,,,,,,false,,,,326428.89999985695,326428.7999999523,,326428.7000000477,,326437.33,8,400,,,
sequence,flow.Sequence,4_43,2023-09-08T16:11:31.461Z,,0,,,4333.227999952331,completion,,,,,false,,,,326429,326428.7999999523,322078.952,322089.7999999523,322095.572,326437.33,8,400,,,
trial,html.Screen,4_44_0,2023-09-08T16:11:38.727Z,,0,1,,7257.169999999984,response,ISIC_0029212.JPG,5,ISIC_6113524.JPG,ISIC_6113524.JPG,false,0,keypress(z),500,333694.59999990463,333694.5,326420.906,326429.09999990463,326437.33,333701.472,8,400,45,,ISIC_0029212.JPG
break,html.Screen,4_44_1,2023-09-08T16:11:38.727Z,,0,,,NaN,,,,,,false,,,,333694.89999985695,333694.7999999523,,333694.7000000477,,333701.472,8,400,,,
break_continue,html.Screen,4_44_2,2023-09-08T16:11:38.727Z,,0,,,NaN,,,,,,false,,,,333695.2999999523,333695.2000000477,,333695.09999990463,,333701.472,8,400,,,
sequence,flow.Sequence,4_44,2023-09-08T16:11:38.727Z,,0,,,7257.870000047667,completion,,,,,false,,,,333695.2999999523,333695.2000000477,326420.906,326429.09999990463,326437.33,333701.472,8,400,,,
trial,html.Screen,4_45_0,2023-09-08T16:11:45.625Z,,0,1,,6891.42799985694,response,ISIC_0066328.JPG,5,ISIC_7590292.JPG,ISIC_0066328.JPG,false,1,keypress(m),500,340593.2000000477,340592.89999985695,333684.775,333695.39999985695,333701.472,340598.267,8,400,46,,ISIC_7590292.JPG
break,html.Screen,4_45_1,2023-09-08T16:11:45.627Z,,0,,,NaN,,,,,,false,,,,340594.5,340594.09999990463,,340593.7000000477,,340598.267,8,400,,,
break_continue,html.Screen,4_45_2,2023-09-08T16:11:45.627Z,,0,,,NaN,,,,,,false,,,,340595.09999990463,340595,,340594.7999999523,,340598.267,8,400,,,
sequence,flow.Sequence,4_45,2023-09-08T16:11:45.628Z,,0,,,6893.527999999991,completion,,,,,false,,,,340595.5,340595,333684.775,333695.39999985695,333701.472,340598.267,8,400,,,
trial,html.Screen,4_46_0,2023-09-08T16:11:49.359Z,,0,1,,3728.5329999523237,response,ISIC_0026369.JPG,6,ISIC_5897799.JPG,ISIC_5897799.JPG,false,0,keypress(z),500,344327,344326.7999999523,340581.696,340595.7999999523,340598.267,344338.911,8,400,47,,ISIC_0026369.JPG
break,html.Screen,4_46_1,2023-09-08T16:11:49.360Z,,0,,,NaN,,,,,,false,,,,344327.59999990463,344327.39999985695,,344327.09999990463,,344338.911,8,400,,,
break_continue,html.Screen,4_46_2,2023-09-08T16:11:49.360Z,,0,,,NaN,,,,,,false,,,,344327.89999985695,344327.89999985695,,344327.7000000477,,344338.911,8,400,,,
sequence,flow.Sequence,4_46,2023-09-08T16:11:49.360Z,,0,,,3729.6329998569563,completion,,,,,false,,,,344328.2000000477,344327.89999985695,340581.696,340595.7999999523,340598.267,344338.911,8,400,,,
trial,html.Screen,4_47_0,2023-09-08T16:11:54.450Z,,0,1,,5078.789000047662,response,ISIC_0034156.JPG,5,ISIC_0024268.JPG,ISIC_0024268.JPG,false,0,keypress(z),500,349417.89999985695,349417.7000000477,344322.223,344328.2999999523,344338.911,349432.42,8,400,48,,ISIC_0034156.JPG
break,html.Screen,4_47_1,2023-09-08T16:11:54.451Z,,0,,,NaN,,,,,,false,,,,349418.89999985695,349418.7000000477,,349418.2000000477,,349432.42,8,400,,,
break_continue,html.Screen,4_47_2,2023-09-08T16:11:54.451Z,,0,,,NaN,,,,,,false,,,,349419.39999985695,349419.2000000477,,349419,,349432.42,8,400,,,
sequence,flow.Sequence,4_47,2023-09-08T16:11:54.452Z,,0,,,5080.289000047662,completion,,,,,false,,,,349419.59999990463,349419.2000000477,344322.223,344328.2000000477,344338.911,349432.42,8,400,,,
trial,html.Screen,4_48_0,2023-09-08T16:11:58.328Z,,0,1,,3863.5800000000163,response,ISIC_0250064.JPG,5,ISIC_6919856.JPG,ISIC_6919856.JPG,false,0,keypress(z),500,353296.2000000477,353296,349415.527,349419.89999985695,349432.42,353306.356,8,400,49,,ISIC_0250064.JPG
break,html.Screen,4_48_1,2023-09-08T16:11:58.329Z,,0,,,NaN,,,,,,false,,,,353296.7999999523,353296.59999990463,,353296.39999985695,,353306.356,8,400,,,
break_continue,html.Screen,4_48_2,2023-09-08T16:11:58.329Z,,0,,,NaN,,,,,,false,,,,353297.2000000477,353297.09999990463,,353297,,353306.356,8,400,,,
sequence,flow.Sequence,4_48,2023-09-08T16:11:58.329Z,,0,,,3864.679999904649,completion,,,,,false,,,,353297.39999985695,353297.09999990463,349415.527,349419.7999999523,349432.42,353306.356,8,400,,,
trial,html.Screen,4_49_0,2023-09-08T16:12:04.619Z,,0,1,,6280.643999999971,response,ISIC_0062234.JPG,5,ISIC_5650816.JPG,ISIC_5650816.JPG,false,0,keypress(z),500,359587.2999999523,359587,353289.685,353297.39999985695,353306.356,359601.878,8,400,50,,ISIC_0062234.JPG
break,html.Screen,4_49_1,2023-09-08T16:12:14.621Z,,0,,,10002.842999999993,timeout,,,,,false,,,,369588.59999990463,369587.979,359585.223,359587.39999985695,359601.878,369604.721,8,400,,,
break_continue,html.Screen,4_49_2,2023-09-08T16:12:14.925Z,,0,,,273.5789999522967,response,,,,,false,continue,keypress(Space),,369892.89999985695,369878.2999999523,369587.979,369588.7999999523,369604.721,369905.294,8,400,,,
sequence,flow.Sequence,4_49,2023-09-08T16:12:14.925Z,,0,,,16571.943999952287,completion,,,,,false,,,,369893.09999990463,369878.2999999523,353289.685,353297.39999985695,353306.356,369905.294,8,400,,,
trial,html.Screen,4_50_0,2023-09-08T16:12:18.803Z,,0,2,,3865.4060000476893,response,ISIC_0032836.JPG,5,ISIC_8704257.JPG,ISIC_0032836.JPG,false,1,keypress(m),500,373771.09999990463,373770.7000000477,369888.642,369893.2999999523,369905.294,373779.465,8,400,1,,ISIC_8704257.JPG
break,html.Screen,4_50_1,2023-09-08T16:12:18.804Z,,0,,,NaN,,,,,,false,,,,373772.2999999523,373772,,373771.39999985695,,373779.465,8,400,,,
break_continue,html.Screen,4_50_2,2023-09-08T16:12:18.805Z,,0,,,NaN,,,,,,false,,,,373773,373772.7000000477,,373772.5,,373779.465,8,400,,,
sequence,flow.Sequence,4_50,2023-09-08T16:12:18.805Z,,0,,,3867.4060000476893,completion,,,,,false,,,,373773.2000000477,373772.7000000477,369888.642,369893.2000000477,369905.294,373779.465,8,400,,,
trial,html.Screen,4_51_0,2023-09-08T16:12:25.431Z,,0,2,,6619.834999952291,response,ISIC_1154109.JPG,6,ISIC_0010863.JPG,ISIC_1154109.JPG,false,1,keypress(m),500,380399.39999985695,380399.2999999523,373762.898,373773.5,373779.465,380409.063,8,400,2,,ISIC_0010863.JPG
break,html.Screen,4_51_1,2023-09-08T16:12:25.431Z,,0,,,NaN,,,,,,false,,,,380399.7999999523,380399.59999990463,,380399.5,,380409.063,8,400,,,
break_continue,html.Screen,4_51_2,2023-09-08T16:12:25.432Z,,0,,,NaN,,,,,,false,,,,380399.89999985695,380399.7999999523,,380399.7999999523,,380409.063,8,400,,,
sequence,flow.Sequence,4_51,2023-09-08T16:12:25.432Z,,0,,,6620.334999952291,completion,,,,,false,,,,380400,380399.7999999523,373762.898,373773.39999985695,373779.465,380409.063,8,400,,,
trial,html.Screen,4_52_0,2023-09-08T16:12:29.180Z,,0,2,,3739.536999904609,response,ISIC_0065341.JPG,6,ISIC_0010156.JPG,ISIC_0010156.JPG,false,0,keypress(z),500,384148.7999999523,384148.59999990463,380392.322,380400.09999990463,380409.063,384149.648,8,400,3,,ISIC_0065341.JPG
break,html.Screen,4_52_1,2023-09-08T16:12:29.181Z,,0,,,NaN,,,,,,false,,,,384149.09999990463,384149,,384148.7999999523,,384149.648,8,400,,,
break_continue,html.Screen,4_52_2,2023-09-08T16:12:29.181Z,,0,,,NaN,,,,,,false,,,,384149.5,384149.2999999523,,384149.2999999523,,384149.648,8,400,,,
sequence,flow.Sequence,4_52,2023-09-08T16:12:29.181Z,,0,,,3740.2369999522925,completion,,,,,false,,,,384149.59999990463,384149.2999999523,380392.322,380400.09999990463,380409.063,384149.648,8,400,,,
trial,html.Screen,4_53_0,2023-09-08T16:12:33.567Z,,0,2,,4385.052000047697,response,ISIC_3779093.JPG,5,ISIC_0065746.JPG,ISIC_3779093.JPG,false,1,keypress(m),500,388535.09999990463,388534.7000000477,384133.016,384149.7999999523,384149.648,388541.592,8,400,4,,ISIC_0065746.JPG
break,html.Screen,4_53_1,2023-09-08T16:12:33.568Z,,0,,,NaN,,,,,,false,,,,388536.2999999523,388536,,388535.5,,388541.592,8,400,,,
break_continue,html.Screen,4_53_2,2023-09-08T16:12:33.569Z,,0,,,NaN,,,,,,false,,,,388537,388536.7000000477,,388536.59999990463,,388541.592,8,400,,,
sequence,flow.Sequence,4_53,2023-09-08T16:12:33.569Z,,0,,,4387.052000047697,completion,,,,,false,,,,388537.2999999523,388536.7000000477,384133.016,384149.7999999523,384149.648,388541.592,8,400,,,
trial,html.Screen,4_54_0,2023-09-08T16:12:37.812Z,,0,2,,4238.207999952312,response,ISIC_2355513.JPG,6,ISIC_3799267.JPG,ISIC_3799267.JPG,false,0,keypress(z),500,392779.89999985695,392779.7999999523,388524.88,388537.59999990463,388541.592,392783.079,8,400,5,,ISIC_2355513.JPG
break,html.Screen,4_54_1,2023-09-08T16:12:37.812Z,,0,,,NaN,,,,,,false,,,,392780.2999999523,392780.2000000477,,392780.09999990463,,392783.079,8,400,,,
break_continue,html.Screen,4_54_2,2023-09-08T16:12:37.812Z,,0,,,NaN,,,,,,false,,,,392780.5,392780.39999985695,,392780.2999999523,,392783.079,8,400,,,
sequence,flow.Sequence,4_54,2023-09-08T16:12:37.812Z,,0,,,4238.807999856945,completion,,,,,false,,,,392780.59999990463,392780.39999985695,388524.88,388537.5,388541.592,392783.079,8,400,,,
trial,html.Screen,4_55_0,2023-09-08T16:12:44.742Z,,0,2,,6927.121000047657,response,ISIC_8622365.JPG,6,ISIC_2209697.JPG,ISIC_2209697.JPG,false,0,keypress(z),500,399710.39999985695,399710.2000000477,392766.35,392780.7000000477,392783.079,399713.269,8,400,6,,ISIC_8622365.JPG
break,html.Screen,4_55_1,2023-09-08T16:12:44.743Z,,0,,,NaN,,,,,,false,,,,399711.09999990463,399711,,399710.59999990463,,399713.269,8,400,,,
break_continue,html.Screen,4_55_2,2023-09-08T16:12:44.743Z,,0,,,NaN,,,,,,false,,,,399711.5,399711.2999999523,,399711.2999999523,,399713.269,8,400,,,
sequence,flow.Sequence,4_55,2023-09-08T16:12:44.743Z,,0,,,6928.220999952289,completion,,,,,false,,,,399711.59999990463,399711.2999999523,392766.35,392780.7000000477,392783.079,399713.269,8,400,,,
trial,html.Screen,4_56_0,2023-09-08T16:12:48.463Z,,0,2,,3717.9310000477126,response,ISIC_5831880.JPG,5,ISIC_0002899.JPG,ISIC_0002899.JPG,false,0,keypress(z),500,403431.39999985695,403431.2000000477,399696.554,399711.7999999523,399713.269,403437.184,8,400,7,,ISIC_5831880.JPG
break,html.Screen,4_56_1,2023-09-08T16:12:48.464Z,,0,,,NaN,,,,,,false,,,,403431.89999985695,403431.7999999523,,403431.5,,403437.184,8,400,,,
break_continue,html.Screen,4_56_2,2023-09-08T16:12:48.464Z,,0,,,NaN,,,,,,false,,,,403432.2000000477,403432.09999990463,,403432,,403437.184,8,400,,,
sequence,flow.Sequence,4_56,2023-09-08T16:12:48.464Z,,0,,,3718.8309999046614,completion,,,,,false,,,,403432.2999999523,403432.09999990463,399696.554,399711.7000000477,399713.269,403437.184,8,400,,,
trial,html.Screen,4_57_0,2023-09-08T16:12:52.306Z,,0,2,,3836.3159999999916,response,ISIC_0443835.JPG,4,ISIC_5386244.JPG,ISIC_5386244.JPG,false,0,keypress(z),500,407273.7999999523,407273.5,403420.554,403432.39999985695,403437.184,407278.045,8,400,8,,ISIC_0443835.JPG
break,html.Screen,4_57_1,2023-09-08T16:12:52.307Z,,0,,,NaN,,,,,,false,,,,407275.2999999523,407274.7999999523,,407274.2999999523,,407278.045,8,400,,,
break_continue,html.Screen,4_57_2,2023-09-08T16:12:52.308Z,,0,,,NaN,,,,,,false,,,,407275.89999985695,407275.7999999523,,407275.59999990463,,407278.045,8,400,,,
sequence,flow.Sequence,4_57,2023-09-08T16:12:52.308Z,,0,,,3838.615999952308,completion,,,,,false,,,,407276.2999999523,407275.7999999523,403420.554,403432.39999985695,403437.184,407278.045,8,400,,,
trial,html.Screen,4_58_0,2023-09-08T16:12:58.200Z,,0,2,,5889.955000000016,response,ISIC_4629662.JPG,5,ISIC_0061749.JPG,ISIC_4629662.JPG,false,1,keypress(m),500,413168.09999990463,413168,407261.286,407276.5,407278.045,413172.833,8,400,9,,ISIC_0061749.JPG
break,html.Screen,4_58_1,2023-09-08T16:12:58.200Z,,0,,,NaN,,,,,,false,,,,413168.5,413168.39999985695,,413168.2000000477,,413172.833,8,400,,,
break_continue,html.Screen,4_58_2,2023-09-08T16:12:58.200Z,,0,,,NaN,,,,,,false,,,,413168.7999999523,413168.59999990463,,413168.5,,413172.833,8,400,,,
sequence,flow.Sequence,4_58,2023-09-08T16:12:58.201Z,,0,,,5890.554999904649,completion,,,,,false,,,,413168.7999999523,413168.59999990463,407261.286,407276.39999985695,407278.045,413172.833,8,400,,,
trial,html.Screen,4_59_0,2023-09-08T16:13:03.311Z,,0,2,,5106.566999856965,response,ISIC_0061749.JPG,5,ISIC_0024401.JPG,ISIC_0061749.JPG,false,1,keypress(m),500,418279.59999990463,418279.39999985695,413156.252,413168.89999985695,413172.833,418282.774,8,400,10,,ISIC_0024401.JPG
break,html.Screen,4_59_1,2023-09-08T16:13:03.312Z,,0,,,NaN,,,,,,false,,,,418280.39999985695,418280.2999999523,,418279.89999985695,,418282.774,8,400,,,
break_continue,html.Screen,4_59_2,2023-09-08T16:13:03.313Z,,0,,,NaN,,,,,,false,,,,418281.09999990463,418280.89999985695,,418280.7000000477,,418282.774,8,400,,,
sequence,flow.Sequence,4_59,2023-09-08T16:13:03.313Z,,0,,,5108.066999856965,completion,,,,,false,,,,418281.5,418280.89999985695,413156.252,413168.89999985695,413172.833,418282.774,8,400,,,
trial,html.Screen,4_60_0,2023-09-08T16:13:08.073Z,,0,2,,4758.0259999523405,response,ISIC_9525136.JPG,6,ISIC_0011305.JPG,ISIC_9525136.JPG,false,1,keypress(m),500,423041.2000000477,423040.7999999523,418266.232,418281.89999985695,418282.774,423058.915,8,400,11,,ISIC_0011305.JPG
break,html.Screen,4_60_1,2023-09-08T16:13:08.074Z,,0,,,NaN,,,,,,false,,,,423042.5,423042.09999990463,,423041.5,,423058.915,8,400,,,
break_continue,html.Screen,4_60_2,2023-09-08T16:13:08.075Z,,0,,,NaN,,,,,,false,,,,423043.2999999523,423043,,423042.7999999523,,423058.915,8,400,,,
sequence,flow.Sequence,4_60,2023-09-08T16:13:08.075Z,,0,,,4760.226000000024,completion,,,,,false,,,,423043.5,423043,418266.232,418281.7999999523,418282.774,423058.915,8,400,,,
trial,html.Screen,4_61_0,2023-09-08T16:13:14.497Z,,0,2,,6405.884999952337,response,ISIC_0060308.JPG,6,ISIC_0031915.JPG,ISIC_0031915.JPG,false,0,keypress(z),500,429465,429464.7999999523,423042.019,423043.7999999523,423058.915,429471.183,8,400,12,,ISIC_0060308.JPG
break,html.Screen,4_61_1,2023-09-08T16:13:14.498Z,,0,,,NaN,,,,,,false,,,,429466.09999990463,429465.7999999523,,429465.39999985695,,429471.183,8,400,,,
break_continue,html.Screen,4_61_2,2023-09-08T16:13:14.498Z,,0,,,NaN,,,,,,false,,,,429466.7000000477,429466.5,,429466.2999999523,,429471.183,8,400,,,
sequence,flow.Sequence,4_61,2023-09-08T16:13:14.499Z,,0,,,6407.585000000021,completion,,,,,false,,,,429467,429466.5,423042.019,423043.7000000477,423058.915,429471.183,8,400,,,
trial,html.Screen,4_62_0,2023-09-08T16:13:20.438Z,,0,2,,5934.4169999046135,response,ISIC_0010164.JPG,6,ISIC_0022661.JPG,ISIC_0010164.JPG,false,1,keypress(m),500,435405.7000000477,435405.59999990463,429454.589,429467.2000000477,429471.183,435416.112,8,400,13,,ISIC_0022661.JPG
break,html.Screen,4_62_1,2023-09-08T16:13:20.439Z,,0,,,NaN,,,,,,false,,,,435406.7000000477,435406.2999999523,,435405.7999999523,,435416.112,8,400,,,
break_continue,html.Screen,4_62_2,2023-09-08T16:13:20.440Z,,0,,,NaN,,,,,,false,,,,435407.09999990463,435407,,435406.89999985695,,435416.112,8,400,,,
sequence,flow.Sequence,4_62,2023-09-08T16:13:20.440Z,,0,,,5935.816999999981,completion,,,,,false,,,,435407.2999999523,435407,429454.589,429467.09999990463,429471.183,435416.112,8,400,,,
trial,html.Screen,4_63_0,2023-09-08T16:13:24.906Z,,0,2,,4456.6879999522935,response,ISIC_0068299.JPG,4,ISIC_0064427.JPG,ISIC_0068299.JPG,false,1,keypress(m),500,439873,439872.7999999523,435399.481,435407.2999999523,435416.112,439874.779,8,400,14,,ISIC_0064427.JPG
break,html.Screen,4_63_1,2023-09-08T16:13:24.906Z,,0,,,NaN,,,,,,false,,,,439873.2999999523,439873.2000000477,,439873,,439874.779,8,400,,,
break_continue,html.Screen,4_63_2,2023-09-08T16:13:24.906Z,,0,,,NaN,,,,,,false,,,,439873.39999985695,439873.39999985695,,439873.39999985695,,439874.779,8,400,,,
sequence,flow.Sequence,4_63,2023-09-08T16:13:24.906Z,,0,,,4457.287999856926,completion,,,,,false,,,,439873.5,439873.39999985695,435399.481,435407.2999999523,435416.112,439874.779,8,400,,,
trial,html.Screen,4_64_0,2023-09-08T16:13:30.531Z,,0,2,,5623.620999856968,response,ISIC_0678758.JPG,6,ISIC_9622250.JPG,ISIC_9622250.JPG,false,0,keypress(z),500,445498.5,445498.39999985695,439858.041,439873.59999990463,439874.779,445502.37,8,400,15,,ISIC_0678758.JPG
break,html.Screen,4_64_1,2023-09-08T16:13:30.532Z,,0,,,NaN,,,,,,false,,,,445498.7999999523,445498.7000000477,,445498.5,,445502.37,8,400,,,
break_continue,html.Screen,4_64_2,2023-09-08T16:13:30.532Z,,0,,,NaN,,,,,,false,,,,445499,445498.89999985695,,445498.89999985695,,445502.37,8,400,,,
sequence,flow.Sequence,4_64,2023-09-08T16:13:30.532Z,,0,,,5624.120999856968,completion,,,,,false,,,,445499.2000000477,445498.89999985695,439858.041,439873.59999990463,439874.779,445502.37,8,400,,,
trial,html.Screen,4_65_0,2023-09-08T16:13:35.174Z,,0,2,,4638.330000047688,response,ISIC_1693572.JPG,5,ISIC_0033302.JPG,ISIC_0033302.JPG,false,0,keypress(z),500,450141.09999990463,450140.7000000477,445485.829,445499.2999999523,445502.37,450144.77,8,400,16,,ISIC_1693572.JPG
break,html.Screen,4_65_1,2023-09-08T16:13:35.176Z,,0,,,NaN,,,,,,false,,,,450142.89999985695,450142.39999985695,,450141.5,,450144.77,8,400,,,
break_continue,html.Screen,4_65_2,2023-09-08T16:13:35.177Z,,0,,,NaN,,,,,,false,,,,450144,450143.59999990463,,450143.2000000477,,450144.77,8,400,,,
sequence,flow.Sequence,4_65,2023-09-08T16:13:35.177Z,,0,,,4641.229999904637,completion,,,,,false,,,,450144.5,450143.59999990463,445485.829,445499.2999999523,445502.37,450144.77,8,400,,,
trial,html.Screen,4_66_0,2023-09-08T16:13:41.277Z,,0,2,,6099.12999985693,response,ISIC_8654660.JPG,5,ISIC_0025835.JPG,ISIC_8654660.JPG,false,1,keypress(m),500,456244.2000000477,456243.89999985695,450128.096,450145.09999990463,450144.77,456256.781,8,400,17,,ISIC_0025835.JPG
break,html.Screen,4_66_1,2023-09-08T16:13:41.278Z,,0,,,NaN,,,,,,false,,,,456245.2000000477,456244.89999985695,,456244.39999985695,,456256.781,8,400,,,
break_continue,html.Screen,4_66_2,2023-09-08T16:13:41.278Z,,0,,,NaN,,,,,,false,,,,456245.7000000477,456245.59999990463,,456245.39999985695,,456256.781,8,400,,,
sequence,flow.Sequence,4_66,2023-09-08T16:13:41.279Z,,0,,,6100.829999904614,completion,,,,,false,,,,456246,456245.59999990463,450128.096,450144.7999999523,450144.77,456256.781,8,400,,,
trial,html.Screen,4_67_0,2023-09-08T16:13:48.257Z,,0,2,,6967.618999856932,response,ISIC_8922893.JPG,5,ISIC_0065597.JPG,ISIC_8922893.JPG,false,1,keypress(m),500,463224.7000000477,463224.39999985695,456240.011,456246.09999990463,456256.781,463237.049,8,400,18,,ISIC_0065597.JPG
break,html.Screen,4_67_1,2023-09-08T16:13:48.258Z,,0,,,NaN,,,,,,false,,,,463225.7000000477,463225.39999985695,,463225,,463237.049,8,400,,,
break_continue,html.Screen,4_67_2,2023-09-08T16:13:48.259Z,,0,,,NaN,,,,,,false,,,,463226.09999990463,463225.89999985695,,463225.7999999523,,463237.049,8,400,,,
sequence,flow.Sequence,4_67,2023-09-08T16:13:48.259Z,,0,,,6969.118999856932,completion,,,,,false,,,,463226.2000000477,463225.89999985695,456240.011,456246,456256.781,463237.049,8,400,,,
trial,html.Screen,4_68_0,2023-09-08T16:13:54.695Z,,0,2,,6424.85099985695,response,ISIC_0060660.JPG,5,ISIC_0787229.JPG,ISIC_0787229.JPG,false,0,keypress(z),500,469662.2000000477,469661.89999985695,463220.17,463226.5,463237.049,469666.121,8,400,19,,ISIC_0060660.JPG
break,html.Screen,4_68_1,2023-09-08T16:13:54.696Z,,0,,,NaN,,,,,,false,,,,469663.09999990463,469662.7999999523,,469662.39999985695,,469666.121,8,400,,,
break_continue,html.Screen,4_68_2,2023-09-08T16:13:54.697Z,,0,,,NaN,,,,,,false,,,,469663.7999999523,469663.7000000477,,469663.39999985695,,469666.121,8,400,,,
sequence,flow.Sequence,4_68,2023-09-08T16:13:54.697Z,,0,,,6426.651000047685,completion,,,,,false,,,,469664.09999990463,469663.7000000477,463220.17,463226.2999999523,463237.049,469666.121,8,400,,,
trial,html.Screen,4_69_0,2023-09-08T16:13:59.947Z,,0,2,,5248.178999952332,response,ISIC_9859873.JPG,5,ISIC_0030106.JPG,ISIC_9859873.JPG,false,1,keypress(m),500,474914.59999990463,474914.2999999523,469649.397,469664.2999999523,469666.121,474926.354,8,400,20,,ISIC_0030106.JPG
break,html.Screen,4_69_1,2023-09-08T16:13:59.948Z,,0,,,NaN,,,,,,false,,,,474915.5,474915.2999999523,,474914.7999999523,,474926.354,8,400,,,
break_continue,html.Screen,4_69_2,2023-09-08T16:13:59.949Z,,0,,,NaN,,,,,,false,,,,474915.7999999523,474915.7999999523,,474915.59999990463,,474926.354,8,400,,,
sequence,flow.Sequence,4_69,2023-09-08T16:13:59.949Z,,0,,,5249.678999952332,completion,,,,,false,,,,474916.2000000477,474915.7999999523,469649.397,469664.2000000477,469666.121,474926.354,8,400,,,
trial,html.Screen,4_70_0,2023-09-08T16:14:04.930Z,,0,2,,4971.045999856957,response,ISIC_1872823.JPG,5,ISIC_7885010.JPG,ISIC_1872823.JPG,false,1,keypress(m),500,479897.7000000477,479897.39999985695,474909.607,474916.2999999523,474926.354,479902.652,8,400,21,,ISIC_7885010.JPG
break,html.Screen,4_70_1,2023-09-08T16:14:04.931Z,,0,,,NaN,,,,,,false,,,,479898.7000000477,479898.39999985695,,479898,,479902.652,8,400,,,
break_continue,html.Screen,4_70_2,2023-09-08T16:14:04.932Z,,0,,,NaN,,,,,,false,,,,479899.09999990463,479899,,479898.7999999523,,479902.652,8,400,,,
sequence,flow.Sequence,4_70,2023-09-08T16:14:04.932Z,,0,,,4972.646000000008,completion,,,,,false,,,,479899.2999999523,479899,474909.607,474916.2999999523,474926.354,479902.652,8,400,,,
trial,html.Screen,4_71_0,2023-09-08T16:14:09.226Z,,0,2,,4290.847999999998,response,ISIC_6511689.JPG,5,ISIC_0331124.JPG,ISIC_6511689.JPG,false,1,keypress(m),500,484193.59999990463,484193.5,479886.155,479899.5,479902.652,484194.294,8,400,22,,ISIC_0331124.JPG
break,html.Screen,4_71_1,2023-09-08T16:14:09.227Z,,0,,,NaN,,,,,,false,,,,484193.89999985695,484193.7999999523,,484193.7000000477,,484194.294,8,400,,,
break_continue,html.Screen,4_71_2,2023-09-08T16:14:09.227Z,,0,,,NaN,,,,,,false,,,,484194.09999990463,484194,,484194,,484194.294,8,400,,,
sequence,flow.Sequence,4_71,2023-09-08T16:14:09.227Z,,0,,,4291.347999999998,completion,,,,,false,,,,484194.09999990463,484194,479886.155,479899.5,479902.652,484194.294,8,400,,,
trial,html.Screen,4_72_0,2023-09-08T16:14:13.917Z,,0,2,,4689.406000047689,response,ISIC_9024078.JPG,5,ISIC_0062530.JPG,ISIC_9024078.JPG,false,1,keypress(m),500,488884.09999990463,488883.7000000477,484177.879,484194.2000000477,484194.294,488886.817,8,400,23,,ISIC_0062530.JPG
break,html.Screen,4_72_1,2023-09-08T16:14:13.918Z,,0,,,NaN,,,,,,false,,,,488885.09999990463,488884.7999999523,,488884.39999985695,,488886.817,8,400,,,
break_continue,html.Screen,4_72_2,2023-09-08T16:14:13.918Z,,0,,,NaN,,,,,,false,,,,488885.39999985695,488885.2999999523,,488885.2000000477,,488886.817,8,400,,,
sequence,flow.Sequence,4_72,2023-09-08T16:14:13.918Z,,0,,,4691.005999952322,completion,,,,,false,,,,488885.7000000477,488885.2999999523,484177.879,484194.2000000477,484194.294,488886.817,8,400,,,
trial,html.Screen,4_73_0,2023-09-08T16:14:19.265Z,,0,2,,5344.782999904652,response,ISIC_0029660.JPG,5,ISIC_0046664.JPG,ISIC_0029660.JPG,false,1,keypress(m),500,494231.7999999523,494231.59999990463,488870.255,488885.7999999523,488886.817,494247.388,8,400,24,,ISIC_0046664.JPG
break,html.Screen,4_73_1,2023-09-08T16:14:19.265Z,,0,,,NaN,,,,,,false,,,,494232.59999990463,494232.2000000477,,494232,,494247.388,8,400,,,
break_continue,html.Screen,4_73_2,2023-09-08T16:14:19.266Z,,0,,,NaN,,,,,,false,,,,494233,494232.7999999523,,494232.7000000477,,494247.388,8,400,,,
sequence,flow.Sequence,4_73,2023-09-08T16:14:19.266Z,,0,,,5345.982999952335,completion,,,,,false,,,,494233.09999990463,494232.7999999523,488870.255,488885.7000000477,488886.817,494247.388,8,400,,,
trial,html.Screen,4_74_0,2023-09-08T16:14:23.204Z,,0,2,,3923.612000000023,response,ISIC_2430937.JPG,5,ISIC_0032287.JPG,ISIC_0032287.JPG,false,0,keypress(z),500,498171.09999990463,498171,494230.549,494233.2000000477,494247.388,498188.203,8,400,25,,ISIC_2430937.JPG
break,html.Screen,4_74_1,2023-09-08T16:14:23.204Z,,0,,,NaN,,,,,,false,,,,498171.5,498171.39999985695,,498171.2000000477,,498188.203,8,400,,,
break_continue,html.Screen,4_74_2,2023-09-08T16:14:23.205Z,,0,,,NaN,,,,,,false,,,,498171.7999999523,498171.59999990463,,498171.59999990463,,498188.203,8,400,,,
sequence,flow.Sequence,4_74,2023-09-08T16:14:23.205Z,,0,,,3924.2119999046554,completion,,,,,false,,,,498171.7999999523,498171.59999990463,494230.549,494233.2000000477,494247.388,498188.203,8,400,,,
trial,html.Screen,4_75_0,2023-09-08T16:14:27.047Z,,0,2,,3825.497000047704,response,ISIC_0033432.JPG,6,ISIC_0485914.JPG,ISIC_0485914.JPG,false,0,keypress(z),500,502014,502013.7000000477,498171.526,498171.89999985695,498188.203,502029.267,8,400,26,,ISIC_0033432.JPG
break,html.Screen,4_75_1,2023-09-08T16:14:27.048Z,,0,,,NaN,,,,,,false,,,,502015.09999990463,502014.89999985695,,502014.39999985695,,502029.267,8,400,,,
break_continue,html.Screen,4_75_2,2023-09-08T16:14:27.049Z,,0,,,NaN,,,,,,false,,,,502015.7999999523,502015.59999990463,,502015.39999985695,,502029.267,8,400,,,
sequence,flow.Sequence,4_75,2023-09-08T16:14:27.049Z,,0,,,3827.396999904653,completion,,,,,false,,,,502016.09999990463,502015.59999990463,498171.526,498171.89999985695,498188.203,502029.267,8,400,,,
trial,html.Screen,4_76_0,2023-09-08T16:14:33.742Z,,0,2,,6679.532999952324,response,ISIC_2412113.JPG,5,ISIC_8068693.JPG,ISIC_8068693.JPG,false,0,keypress(z),500,508709,508708.7999999523,502012.326,502016.39999985695,502029.267,508725.536,8,400,27,,ISIC_2412113.JPG
break,html.Screen,4_76_1,2023-09-08T16:14:33.742Z,,0,,,NaN,,,,,,false,,,,508709.5,508709.39999985695,,508709.09999990463,,508725.536,8,400,,,
break_continue,html.Screen,4_76_2,2023-09-08T16:14:33.742Z,,0,,,NaN,,,,,,false,,,,508709.59999990463,508709.59999990463,,508709.5,,508725.536,8,400,,,
sequence,flow.Sequence,4_76,2023-09-08T16:14:33.743Z,,0,,,6680.33299990464,completion,,,,,false,,,,508709.7999999523,508709.59999990463,502012.326,502016.2000000477,502029.267,508725.536,8,400,,,
trial,html.Screen,4_77_0,2023-09-08T16:14:40.001Z,,0,2,,6242.063999904611,response,ISIC_0638889.JPG,4,ISIC_0000814.JPG,ISIC_0000814.JPG,false,0,keypress(z),500,514967.89999985695,514967.59999990463,508708.828,508709.89999985695,508725.536,514970.89,8,400,28,,ISIC_0638889.JPG
break,html.Screen,4_77_1,2023-09-08T16:14:40.001Z,,0,,,NaN,,,,,,false,,,,514968.39999985695,514968.2000000477,,514968,,514970.89,8,400,,,
break_continue,html.Screen,4_77_2,2023-09-08T16:14:40.002Z,,0,,,NaN,,,,,,false,,,,514968.7999999523,514968.59999990463,,514968.59999990463,,514970.89,8,400,,,
sequence,flow.Sequence,4_77,2023-09-08T16:14:40.002Z,,0,,,6243.063999904611,completion,,,,,false,,,,514968.89999985695,514968.59999990463,508708.828,508709.89999985695,508725.536,514970.89,8,400,,,
trial,html.Screen,4_78_0,2023-09-08T16:14:47.348Z,,0,2,,7343.709999904619,response,ISIC_0029182.JPG,5,ISIC_7755106.JPG,ISIC_0029182.JPG,false,1,keypress(m),500,522314.7999999523,522314.59999990463,514954.146,514969,514970.89,522318.522,8,400,29,,ISIC_7755106.JPG
break,html.Screen,4_78_1,2023-09-08T16:14:47.348Z,,0,,,NaN,,,,,,false,,,,522315.7000000477,522315.39999985695,,522315.09999990463,,522318.522,8,400,,,
break_continue,html.Screen,4_78_2,2023-09-08T16:14:47.349Z,,0,,,NaN,,,,,,false,,,,522316,522315.7999999523,,522315.7999999523,,522318.522,8,400,,,
sequence,flow.Sequence,4_78,2023-09-08T16:14:47.349Z,,0,,,7344.909999952302,completion,,,,,false,,,,522316.2000000477,522315.7999999523,514954.146,514969,514970.89,522318.522,8,400,,,
trial,html.Screen,4_79_0,2023-09-08T16:14:51.452Z,,0,2,,4100.1780000476865,response,ISIC_0030512.JPG,5,ISIC_4582670.JPG,ISIC_4582670.JPG,false,0,keypress(z),500,526419.2000000477,526418.7000000477,522301.93,522316.2999999523,522318.522,526426.603,8,400,30,,ISIC_0030512.JPG
break,html.Screen,4_79_1,2023-09-08T16:14:51.453Z,,0,,,NaN,,,,,,false,,,,526420.5999999046,526420.2000000477,,526419.5999999046,,526426.603,8,400,,,
break_continue,html.Screen,4_79_2,2023-09-08T16:14:51.454Z,,0,,,NaN,,,,,,false,,,,526421.2000000477,526421,,526420.7999999523,,526426.603,8,400,,,
sequence,flow.Sequence,4_79,2023-09-08T16:14:51.454Z,,0,,,4102.478000000003,completion,,,,,false,,,,526421.5999999046,526421,522301.93,522316.2999999523,522318.522,526426.603,8,400,,,
trial,html.Screen,4_80_0,2023-09-08T16:14:54.801Z,,0,2,,3341.49699990463,response,ISIC_5903193.JPG,5,ISIC_0029859.JPG,ISIC_5903193.JPG,false,1,keypress(m),500,529768.2999999523,529768.0999999046,526409.949,526421.7000000477,526426.603,529783.117,8,400,31,,ISIC_0029859.JPG
break,html.Screen,4_80_1,2023-09-08T16:14:54.802Z,,0,,,NaN,,,,,,false,,,,529768.899999857,529768.7000000477,,529768.5,,529783.117,8,400,,,
break_continue,html.Screen,4_80_2,2023-09-08T16:14:54.802Z,,0,,,NaN,,,,,,false,,,,529769.2999999523,529769.2000000477,,529769.0999999046,,529783.117,8,400,,,
sequence,flow.Sequence,4_80,2023-09-08T16:14:54.802Z,,0,,,3342.597000047681,completion,,,,,false,,,,529769.399999857,529769.2000000477,526409.949,526421.7000000477,526426.603,529783.117,8,400,,,
trial,html.Screen,4_81_0,2023-09-08T16:14:59.301Z,,0,2,,4484.583000047714,response,ISIC_7630831.JPG,5,ISIC_5971574.JPG,ISIC_7630831.JPG,false,1,keypress(m),500,534267.7999999523,534267.7000000477,529766.411,529769.5999999046,529783.117,534275.125,8,400,32,,ISIC_5971574.JPG
break,html.Screen,4_81_1,2023-09-08T16:14:59.301Z,,0,,,NaN,,,,,,false,,,,534268.0999999046,534268,,534267.899999857,,534275.125,8,400,,,
break_continue,html.Screen,4_81_2,2023-09-08T16:14:59.301Z,,0,,,NaN,,,,,,false,,,,534268.2999999523,534268.2000000477,,534268.2000000477,,534275.125,8,400,,,
sequence,flow.Sequence,4_81,2023-09-08T16:14:59.301Z,,0,,,4485.083000047714,completion,,,,,false,,,,534268.2999999523,534268.2000000477,529766.411,529769.5,529783.117,534275.125,8,400,,,
trial,html.Screen,4_82_0,2023-09-08T16:15:04.669Z,,0,2,,5360.875,response,ISIC_8566006.JPG,6,ISIC_1630301.JPG,ISIC_1630301.JPG,false,0,keypress(z),500,539636.0999999046,539636,534258.467,534268.399999857,534275.125,539669.077,8,400,33,,ISIC_8566006.JPG
break,html.Screen,4_82_1,2023-09-08T16:15:04.669Z,,0,,,NaN,,,,,,false,,,,539636.5,539636.399999857,,539636.2000000477,,539669.077,8,400,,,
break_continue,html.Screen,4_82_2,2023-09-08T16:15:04.669Z,,0,,,NaN,,,,,,false,,,,539636.7000000477,539636.5999999046,,539636.5,,539669.077,8,400,,,
sequence,flow.Sequence,4_82,2023-09-08T16:15:04.669Z,,0,,,5361.474999904633,completion,,,,,false,,,,539636.7000000477,539636.5999999046,534258.467,534268.2999999523,534275.125,539669.077,8,400,,,
trial,html.Screen,4_83_0,2023-09-08T16:15:09.727Z,,0,2,,5025.123000047635,response,ISIC_0010142.JPG,5,ISIC_0072335.JPG,ISIC_0072335.JPG,false,0,keypress(z),500,544694.399999857,544694.2000000477,539652.342,539636.7000000477,539669.077,544695.35,8,400,34,,ISIC_0010142.JPG
break,html.Screen,4_83_1,2023-09-08T16:15:09.728Z,,0,,,NaN,,,,,,false,,,,544694.7000000477,544694.7000000477,,544694.5,,544695.35,8,400,,,
break_continue,html.Screen,4_83_2,2023-09-08T16:15:09.728Z,,0,,,NaN,,,,,,false,,,,544695,544694.899999857,,544694.899999857,,544695.35,8,400,,,
sequence,flow.Sequence,4_83,2023-09-08T16:15:09.728Z,,0,,,5025.8229998569,completion,,,,,false,,,,544695,544694.899999857,539652.342,539636.7000000477,539669.077,544695.35,8,400,,,
trial,html.Screen,4_84_0,2023-09-08T16:15:14.850Z,,0,2,,5122.049999856972,response,ISIC_3609379.JPG,4,ISIC_0025242.JPG,ISIC_3609379.JPG,false,1,keypress(m),500,549817.5,549817.399999857,544678.722,544695.0999999046,544695.35,549821.988,8,400,35,,ISIC_0025242.JPG
break,html.Screen,4_84_1,2023-09-08T16:15:14.851Z,,0,,,NaN,,,,,,false,,,,549817.899999857,549817.7999999523,,549817.5999999046,,549821.988,8,400,,,
break_continue,html.Screen,4_84_2,2023-09-08T16:15:14.851Z,,0,,,NaN,,,,,,false,,,,549818.2000000477,549818.0999999046,,549818,,549821.988,8,400,,,
sequence,flow.Sequence,4_84,2023-09-08T16:15:14.851Z,,0,,,5122.749999904656,completion,,,,,false,,,,549818.2999999523,549818.0999999046,544678.722,544695.0999999046,544695.35,549821.988,8,400,,,
trial,html.Screen,4_85_0,2023-09-08T16:15:19.564Z,,0,2,,4708.311999952304,response,ISIC_6208762.JPG,7,ISIC_3928910.JPG,ISIC_6208762.JPG,false,1,keypress(m),500,554530.2999999523,554530.2999999523,549805.308,549818.399999857,549821.988,554547.922,8,400,36,,ISIC_3928910.JPG
break,html.Screen,4_85_1,2023-09-08T16:15:19.564Z,,0,,,NaN,,,,,,false,,,,554530.5999999046,554530.5999999046,,554530.399999857,,554547.922,8,400,,,
break_continue,html.Screen,4_85_2,2023-09-08T16:15:19.564Z,,0,,,NaN,,,,,,false,,,,554530.7999999523,554530.7999999523,,554530.7000000477,,554547.922,8,400,,,
sequence,flow.Sequence,4_85,2023-09-08T16:15:19.564Z,,0,,,4708.811999952304,completion,,,,,false,,,,554530.7999999523,554530.7999999523,549805.308,549818.2999999523,549821.988,554547.922,8,400,,,
trial,html.Screen,4_86_0,2023-09-08T16:15:22.934Z,,0,2,,3351.677999904612,response,ISIC_4161113.JPG,6,ISIC_0012063.JPG,ISIC_4161113.JPG,false,1,keypress(m),500,557899.899999857,557899.5999999046,554531.187,554531,554547.922,557904.376,8,400,37,,ISIC_0012063.JPG
break,html.Screen,4_86_1,2023-09-08T16:15:22.934Z,,0,,,NaN,,,,,,false,,,,557900.899999857,557900.5999999046,,557900.0999999046,,557904.376,8,400,,,
break_continue,html.Screen,4_86_2,2023-09-08T16:15:22.935Z,,0,,,NaN,,,,,,false,,,,557901.2999999523,557901.2000000477,,557901,,557904.376,8,400,,,
sequence,flow.Sequence,4_86,2023-09-08T16:15:22.935Z,,0,,,3353.278000047663,completion,,,,,false,,,,557901.5,557901.2000000477,554531.187,554530.899999857,554547.922,557904.376,8,400,,,
trial,html.Screen,4_87_0,2023-09-08T16:15:28.480Z,,0,2,,5542.1239999999525,response,ISIC_2487188.JPG,5,ISIC_1868816.JPG,ISIC_1868816.JPG,false,0,keypress(z),500,563446.899999857,563446.5,557887.888,557901.7000000477,557904.376,563448.642,8,400,38,,ISIC_2487188.JPG
break,html.Screen,4_87_1,2023-09-08T16:15:28.481Z,,0,,,NaN,,,,,,false,,,,563447.7999999523,563447.5,,563447.0999999046,,563448.642,8,400,,,
break_continue,html.Screen,4_87_2,2023-09-08T16:15:28.482Z,,0,,,NaN,,,,,,false,,,,563448.5,563448.2999999523,,563448.0999999046,,563448.642,8,400,,,
sequence,flow.Sequence,4_87,2023-09-08T16:15:28.482Z,,0,,,5543.923999952269,completion,,,,,false,,,,563448.7999999523,563448.2999999523,557887.888,557901.7000000477,557904.376,563448.642,8,400,,,
trial,html.Screen,4_88_0,2023-09-08T16:15:35.160Z,,0,2,,6677.657999952324,response,ISIC_6733338.JPG,5,ISIC_0013977.JPG,ISIC_0013977.JPG,false,0,keypress(z),500,570126.7000000477,570126.2999999523,563432.045,563449,563448.642,570128.274,8,400,39,,ISIC_6733338.JPG
break,html.Screen,4_88_1,2023-09-08T16:15:35.161Z,,0,,,NaN,,,,,,false,,,,570127.7999999523,570127.5,,570127,,570128.274,8,400,,,
break_continue,html.Screen,4_88_2,2023-09-08T16:15:35.163Z,,0,,,NaN,,,,,,false,,,,570129.0999999046,570128.7999999523,,570128.2999999523,,570128.274,8,400,,,
sequence,flow.Sequence,4_88,2023-09-08T16:15:35.163Z,,0,,,6680.157999952324,completion,,,,,false,,,,570129.5,570128.7999999523,563432.045,563448.899999857,563448.642,570128.274,8,400,,,
trial,html.Screen,4_89_0,2023-09-08T16:15:38.734Z,,0,2,,3571.5259999523405,response,ISIC_0023162.JPG,5,ISIC_1254469.JPG,ISIC_1254469.JPG,false,0,keypress(z),500,573700.2000000477,573699.7999999523,570111.738,570129.7999999523,570128.274,573701.937,8,400,40,,ISIC_0023162.JPG
break,html.Screen,4_89_1,2023-09-08T16:15:38.735Z,,0,,,NaN,,,,,,false,,,,573701.0999999046,573700.899999857,,573700.5,,573701.937,8,400,,,
break_continue,html.Screen,4_89_2,2023-09-08T16:15:38.735Z,,0,,,NaN,,,,,,false,,,,573701.7000000477,573701.399999857,,573701.2999999523,,573701.937,8,400,,,
sequence,flow.Sequence,4_89,2023-09-08T16:15:38.736Z,,0,,,3573.125999856973,completion,,,,,false,,,,573701.899999857,573701.399999857,570111.738,570129.7000000477,570128.274,573701.937,8,400,,,
trial,html.Screen,4_90_0,2023-09-08T16:15:43.426Z,,0,2,,4690.763000047649,response,ISIC_7898061.JPG,5,ISIC_0030774.JPG,ISIC_7898061.JPG,false,1,keypress(m),500,578392.899999857,578392.7000000477,573685.123,573702.0999999046,573701.937,578394.315,8,400,41,,ISIC_0030774.JPG
break,html.Screen,4_90_1,2023-09-08T16:15:43.427Z,,0,,,NaN,,,,,,false,,,,578393.399999857,578393.2000000477,,578393,,578394.315,8,400,,,
break_continue,html.Screen,4_90_2,2023-09-08T16:15:43.427Z,,0,,,NaN,,,,,,false,,,,578393.7999999523,578393.5999999046,,578393.5,,578394.315,8,400,,,
sequence,flow.Sequence,4_90,2023-09-08T16:15:43.427Z,,0,,,4691.662999904598,completion,,,,,false,,,,578393.7999999523,578393.5999999046,573685.123,573702,573701.937,578394.315,8,400,,,
trial,html.Screen,4_91_0,2023-09-08T16:15:48.070Z,,0,2,,4641.484999952372,response,ISIC_0010649.JPG,5,ISIC_0066314.JPG,ISIC_0066314.JPG,false,0,keypress(z),500,583036,583035.7999999523,578377.904,578394,578394.315,583036.678,8,400,42,,ISIC_0010649.JPG
break,html.Screen,4_91_1,2023-09-08T16:15:48.070Z,,0,,,NaN,,,,,,false,,,,583036.2999999523,583036.2999999523,,583036.0999999046,,583036.678,8,400,,,
break_continue,html.Screen,4_91_2,2023-09-08T16:15:48.070Z,,0,,,NaN,,,,,,false,,,,583036.399999857,583036.2999999523,,583036.2999999523,,583036.678,8,400,,,
sequence,flow.Sequence,4_91,2023-09-08T16:15:48.070Z,,0,,,4641.984999952372,completion,,,,,false,,,,583036.399999857,583036.2999999523,578377.904,578393.899999857,578394.315,583036.678,8,400,,,
trial,html.Screen,4_92_0,2023-09-08T16:15:52.536Z,,0,2,,4465.12199995236,response,ISIC_4613437.JPG,6,ISIC_9947369.JPG,ISIC_4613437.JPG,false,1,keypress(m),500,587502.0999999046,587501.7999999523,583020.177,583036.5,583036.678,587512.167,8,400,43,,ISIC_9947369.JPG
break,html.Screen,4_92_1,2023-09-08T16:15:52.537Z,,0,,,NaN,,,,,,false,,,,587503,587502.7000000477,,587502.2999999523,,587512.167,8,400,,,
break_continue,html.Screen,4_92_2,2023-09-08T16:15:52.537Z,,0,,,NaN,,,,,,false,,,,587503.5,587503.2000000477,,587503.0999999046,,587512.167,8,400,,,
sequence,flow.Sequence,4_92,2023-09-08T16:15:52.539Z,,0,,,4466.5220000477275,completion,,,,,false,,,,587505,587503.2000000477,583020.177,583036.399999857,583036.678,587512.167,8,400,,,
trial,html.Screen,4_93_0,2023-09-08T16:15:57.598Z,,0,2,,5051.432999904617,response,ISIC_0072631.JPG,5,ISIC_6606767.JPG,ISIC_6606767.JPG,false,0,keypress(z),500,592563.899999857,592563.5999999046,587495.358,587505.2999999523,587512.167,592571.945,8,400,44,,ISIC_0072631.JPG
break,html.Screen,4_93_1,2023-09-08T16:15:57.599Z,,0,,,NaN,,,,,,false,,,,592565.0999999046,592564.7000000477,,592564.399999857,,592571.945,8,400,,,
break_continue,html.Screen,4_93_2,2023-09-08T16:15:57.599Z,,0,,,NaN,,,,,,false,,,,592565.5999999046,592565.399999857,,592565.2000000477,,592571.945,8,400,,,
sequence,flow.Sequence,4_93,2023-09-08T16:15:57.599Z,,0,,,5053.232999856933,completion,,,,,false,,,,592565.7999999523,592565.399999857,587495.358,587505.2000000477,587512.167,592571.945,8,400,,,
trial,html.Screen,4_94_0,2023-09-08T16:16:02.354Z,,0,2,,4748.255000047735,response,ISIC_8502341.JPG,4,ISIC_3836576.JPG,ISIC_8502341.JPG,false,1,keypress(m),500,597320.399999857,597320.2000000477,592555.154,592565.899999857,592571.945,597331.164,8,400,45,,ISIC_3836576.JPG
break,html.Screen,4_94_1,2023-09-08T16:16:02.354Z,,0,,,NaN,,,,,,false,,,,597320.7999999523,597320.7000000477,,597320.399999857,,597331.164,8,400,,,
break_continue,html.Screen,4_94_2,2023-09-08T16:16:02.355Z,,0,,,NaN,,,,,,false,,,,597321.0999999046,597321,,597320.899999857,,597331.164,8,400,,,
sequence,flow.Sequence,4_94,2023-09-08T16:16:02.355Z,,0,,,4749.055000000051,completion,,,,,false,,,,597321.2999999523,597321,592555.154,592565.899999857,592571.945,597331.164,8,400,,,
trial,html.Screen,4_95_0,2023-09-08T16:16:07.414Z,,0,2,,5049.036000047694,response,ISIC_5434055.JPG,5,ISIC_1640823.JPG,ISIC_1640823.JPG,false,0,keypress(z),500,602380.5,602380.2000000477,597314.504,597321.2999999523,597331.164,602391.119,8,400,46,,ISIC_5434055.JPG
break,html.Screen,4_95_1,2023-09-08T16:16:07.415Z,,0,,,NaN,,,,,,false,,,,602381.399999857,602381.0999999046,,602380.7999999523,,602391.119,8,400,,,
break_continue,html.Screen,4_95_2,2023-09-08T16:16:07.415Z,,0,,,NaN,,,,,,false,,,,602381.899999857,602381.7000000477,,602381.5,,602391.119,8,400,,,
sequence,flow.Sequence,4_95,2023-09-08T16:16:07.416Z,,0,,,5050.536000047694,completion,,,,,false,,,,602382,602381.7000000477,597314.504,597321.2999999523,597331.164,602391.119,8,400,,,
trial,html.Screen,4_96_0,2023-09-08T16:16:16.875Z,,0,2,,9449.980999904685,response,ISIC_9193127.JPG,5,ISIC_0011349.JPG,ISIC_9193127.JPG,false,1,keypress(m),500,611841.399999857,611841.0999999046,602374.423,602382.2000000477,602391.119,611842.77,8,400,47,,ISIC_0011349.JPG
break,html.Screen,4_96_1,2023-09-08T16:16:16.876Z,,0,,,NaN,,,,,,false,,,,611842.5,611842.0999999046,,611841.7000000477,,611842.77,8,400,,,
break_continue,html.Screen,4_96_2,2023-09-08T16:16:16.877Z,,0,,,NaN,,,,,,false,,,,611843.399999857,611842.899999857,,611842.7000000477,,611842.77,8,400,,,
sequence,flow.Sequence,4_96,2023-09-08T16:16:16.878Z,,0,,,9451.780999857001,completion,,,,,false,,,,611843.7999999523,611842.899999857,602374.423,602382.0999999046,602391.119,611842.77,8,400,,,
trial,html.Screen,4_97_0,2023-09-08T16:16:21.416Z,,0,2,,4539.329999904614,response,ISIC_0030911.JPG,6,ISIC_7045042.JPG,ISIC_0030911.JPG,false,1,keypress(m),500,616382.2999999523,616382.0999999046,611826.212,611844.0999999046,611842.77,616384.933,8,400,48,,ISIC_7045042.JPG
break,html.Screen,4_97_1,2023-09-08T16:16:21.417Z,,0,,,NaN,,,,,,false,,,,616382.7000000477,616382.5,,616382.399999857,,616384.933,8,400,,,
break_continue,html.Screen,4_97_2,2023-09-08T16:16:21.417Z,,0,,,NaN,,,,,,false,,,,616383.0999999046,616382.899999857,,616382.7000000477,,616384.933,8,400,,,
sequence,flow.Sequence,4_97,2023-09-08T16:16:21.417Z,,0,,,4540.12999985693,completion,,,,,false,,,,616383.0999999046,616382.899999857,611826.212,611844,611842.77,616384.933,8,400,,,
trial,html.Screen,4_98_0,2023-09-08T16:16:28.731Z,,0,2,,7312.166999904672,response,ISIC_1988058.JPG,6,ISIC_0056155.JPG,ISIC_1988058.JPG,false,1,keypress(m),500,623697.2999999523,623697.0999999046,616368.315,616383.2000000477,616384.933,623699.176,8,400,49,,ISIC_0056155.JPG
break,html.Screen,4_98_1,2023-09-08T16:16:28.732Z,,0,,,NaN,,,,,,false,,,,623698.2999999523,623698.2000000477,,623697.5999999046,,623699.176,8,400,,,
break_continue,html.Screen,4_98_2,2023-09-08T16:16:28.733Z,,0,,,NaN,,,,,,false,,,,623698.899999857,623698.7000000477,,623698.5,,623699.176,8,400,,,
sequence,flow.Sequence,4_98,2023-09-08T16:16:28.733Z,,0,,,7313.767000047723,completion,,,,,false,,,,623699.2999999523,623698.7000000477,616368.315,616383.2000000477,616384.933,623699.176,8,400,,,
trial,html.Screen,4_99_0,2023-09-08T16:16:33.679Z,,0,2,,4946.024000047706,response,ISIC_0064113.JPG,4,ISIC_0031785.JPG,ISIC_0031785.JPG,false,0,keypress(z),500,628645.399999857,628645.2000000477,623682.439,623699.5,623699.176,628675.672,8,400,50,,ISIC_0064113.JPG
break,html.Screen,4_99_1,2023-09-08T16:16:43.697Z,,0,,,10002.709999999963,timeout,,,,,false,,,,638662.899999857,638661.93,628658.926,628645.5,628675.672,638678.382,8,400,,,
break_continue,html.Screen,4_99_2,2023-09-08T16:16:55.262Z,,0,,,11539.417999952333,response,,,,,false,continue,keypress(Space),,650228,650217.7999999523,638661.93,638663,638678.382,650250.918,8,400,,,
sequence,flow.Sequence,4_99,2023-09-08T16:16:55.262Z,,0,,,26518.62399995234,completion,,,,,false,,,,650228.0999999046,650217.7999999523,623682.439,623699.399999857,623699.176,650250.918,8,400,,,
trial,html.Screen,4_100_0,2023-09-08T16:17:01.471Z,,0,3,,6185.881999952369,response,ISIC_0070822.JPG,6,ISIC_0069150.JPG,ISIC_0069150.JPG,false,0,keypress(z),500,656437,656436.7999999523,650234.192,650228.2000000477,650250.918,656446.232,8,400,1,,ISIC_0070822.JPG
break,html.Screen,4_100_1,2023-09-08T16:17:01.472Z,,0,,,NaN,,,,,,false,,,,656438,656437.7000000477,,656437.2999999523,,656446.232,8,400,,,
break_continue,html.Screen,4_100_2,2023-09-08T16:17:01.472Z,,0,,,NaN,,,,,,false,,,,656438.5999999046,656438.2000000477,,656438.0999999046,,656446.232,8,400,,,
sequence,flow.Sequence,4_100,2023-09-08T16:17:01.473Z,,0,,,6187.282000047737,completion,,,,,false,,,,656438.7999999523,656438.2000000477,650234.192,650228.2000000477,650250.918,656446.232,8,400,,,
trial,html.Screen,4_101_0,2023-09-08T16:17:05.259Z,,0,3,,3778.4680000477238,response,ISIC_0016085.JPG,5,ISIC_4509525.JPG,ISIC_4509525.JPG,false,0,keypress(z),500,660224.899999857,660224.7000000477,656429.595,656438.899999857,656446.232,660236.959,8,400,2,,ISIC_0016085.JPG
break,html.Screen,4_101_1,2023-09-08T16:17:05.259Z,,0,,,NaN,,,,,,false,,,,660225.5,660225.2999999523,,660225.0999999046,,660236.959,8,400,,,
break_continue,html.Screen,4_101_2,2023-09-08T16:17:05.260Z,,0,,,NaN,,,,,,false,,,,660225.7999999523,660225.7000000477,,660225.5,,660236.959,8,400,,,
sequence,flow.Sequence,4_101,2023-09-08T16:17:05.260Z,,0,,,3779.4680000477238,completion,,,,,false,,,,660225.899999857,660225.7000000477,656429.595,656438.899999857,656446.232,660236.959,8,400,,,
trial,html.Screen,4_102_0,2023-09-08T16:17:09.508Z,,0,3,,4236.940999856917,response,ISIC_8284685.JPG,5,ISIC_0067467.JPG,ISIC_8284685.JPG,false,1,keypress(m),500,664474.2000000477,664473.899999857,660220.25,660225.899999857,660236.959,664478.505,8,400,3,,ISIC_0067467.JPG
break,html.Screen,4_102_1,2023-09-08T16:17:09.509Z,,0,,,NaN,,,,,,false,,,,664474.7999999523,664474.5999999046,,664474.2999999523,,664478.505,8,400,,,
break_continue,html.Screen,4_102_2,2023-09-08T16:17:09.509Z,,0,,,NaN,,,,,,false,,,,664475.0999999046,664475,,664474.899999857,,664478.505,8,400,,,
sequence,flow.Sequence,4_102,2023-09-08T16:17:09.509Z,,0,,,4238.040999999968,completion,,,,,false,,,,664475.2000000477,664475,660220.25,660225.899999857,660236.959,664478.505,8,400,,,
trial,html.Screen,4_103_0,2023-09-08T16:17:12.863Z,,0,3,,3349.9949999999953,response,ISIC_5508076.JPG,5,ISIC_5164416.JPG,ISIC_5164416.JPG,false,0,keypress(z),500,667828.5999999046,667828.5,664461.976,664475.2999999523,664478.505,667835.127,8,400,4,,ISIC_5508076.JPG
break,html.Screen,4_103_1,2023-09-08T16:17:12.863Z,,0,,,NaN,,,,,,false,,,,667828.899999857,667828.7999999523,,667828.7000000477,,667835.127,8,400,,,
break_continue,html.Screen,4_103_2,2023-09-08T16:17:12.863Z,,0,,,NaN,,,,,,false,,,,667829.2000000477,667829.0999999046,,667829.0999999046,,667835.127,8,400,,,
sequence,flow.Sequence,4_103,2023-09-08T16:17:12.863Z,,0,,,3350.594999904628,completion,,,,,false,,,,667829.2000000477,667829.0999999046,664461.976,664475.2999999523,664478.505,667835.127,8,400,,,
trial,html.Screen,4_104_0,2023-09-08T16:17:17.473Z,,0,3,,4603.172999952338,response,ISIC_0000292.JPG,6,ISIC_0056164.JPG,ISIC_0056164.JPG,false,0,keypress(z),500,672438.5,672438.2999999523,667818.591,667829.2999999523,667835.127,672444.078,8,400,5,,ISIC_0000292.JPG
break,html.Screen,4_104_1,2023-09-08T16:17:17.473Z,,0,,,NaN,,,,,,false,,,,672439,672438.7999999523,,672438.7000000477,,672444.078,8,400,,,
break_continue,html.Screen,4_104_2,2023-09-08T16:17:17.473Z,,0,,,NaN,,,,,,false,,,,672439.0999999046,672439.0999999046,,672439,,672444.078,8,400,,,
sequence,flow.Sequence,4_104,2023-09-08T16:17:17.474Z,,0,,,4603.972999904654,completion,,,,,false,,,,672439.2999999523,672439.0999999046,667818.591,667829.2999999523,667835.127,672444.078,8,400,,,
trial,html.Screen,4_105_0,2023-09-08T16:17:22.229Z,,0,3,,4750.321999856969,response,ISIC_6208508.JPG,6,ISIC_0071957.JPG,ISIC_0071957.JPG,false,0,keypress(z),500,677194.7999999523,677194.399999857,672427.275,672439.2999999523,672444.078,677203.347,8,400,6,,ISIC_6208508.JPG
break,html.Screen,4_105_1,2023-09-08T16:17:22.230Z,,0,,,NaN,,,,,,false,,,,677195.899999857,677195.5999999046,,677195.0999999046,,677203.347,8,400,,,
break_continue,html.Screen,4_105_2,2023-09-08T16:17:22.231Z,,0,,,NaN,,,,,,false,,,,677196.7000000477,677196.2999999523,,677196.0999999046,,677203.347,8,400,,,
sequence,flow.Sequence,4_105,2023-09-08T16:17:22.231Z,,0,,,4752.221999952337,completion,,,,,false,,,,677196.899999857,677196.2999999523,672427.275,672439.2999999523,672444.078,677203.347,8,400,,,
trial,html.Screen,4_106_0,2023-09-08T16:17:26.954Z,,0,3,,4716.353000047733,response,ISIC_0003168.JPG,5,ISIC_2266715.JPG,ISIC_0003168.JPG,false,1,keypress(m),500,681920,681919.7000000477,677186.746,677197.2000000477,677203.347,681929.125,8,400,7,,ISIC_2266715.JPG
break,html.Screen,4_106_1,2023-09-08T16:17:26.955Z,,0,,,NaN,,,,,,false,,,,681921,681920.7000000477,,681920.2000000477,,681929.125,8,400,,,
break_continue,html.Screen,4_106_2,2023-09-08T16:17:26.956Z,,0,,,NaN,,,,,,false,,,,681921.399999857,681921.2999999523,,681921.0999999046,,681929.125,8,400,,,
sequence,flow.Sequence,4_106,2023-09-08T16:17:26.956Z,,0,,,4717.952999952366,completion,,,,,false,,,,681921.5999999046,681921.2999999523,677186.746,677197.0999999046,677203.347,681929.125,8,400,,,
trial,html.Screen,4_107_0,2023-09-08T16:17:31.999Z,,0,3,,5035.174999952316,response,ISIC_0027663.JPG,5,ISIC_7180418.JPG,ISIC_7180418.JPG,false,0,keypress(z),500,686964.7000000477,686964.2999999523,681912.562,681921.7999999523,681929.125,686972.406,8,400,8,,ISIC_0027663.JPG
break,html.Screen,4_107_1,2023-09-08T16:17:32.000Z,,0,,,NaN,,,,,,false,,,,686965.7000000477,686965.399999857,,686964.899999857,,686972.406,8,400,,,
break_continue,html.Screen,4_107_2,2023-09-08T16:17:32.001Z,,0,,,NaN,,,,,,false,,,,686966.2000000477,686966,,686965.899999857,,686972.406,8,400,,,
sequence,flow.Sequence,4_107,2023-09-08T16:17:32.001Z,,0,,,5036.875,completion,,,,,false,,,,686966.399999857,686966,681912.562,681921.7000000477,681929.125,686972.406,8,400,,,
trial,html.Screen,4_108_0,2023-09-08T16:17:37.171Z,,0,3,,5164.294000047725,response,ISIC_9152603.JPG,5,ISIC_0293086.JPG,ISIC_0293086.JPG,false,0,keypress(z),500,692136.7999999523,692136.7000000477,686955.694,686966.7000000477,686972.406,692149.015,8,400,9,,ISIC_9152603.JPG
break,html.Screen,4_108_1,2023-09-08T16:17:37.171Z,,0,,,NaN,,,,,,false,,,,692137.0999999046,692137,,692136.7999999523,,692149.015,8,400,,,
break_continue,html.Screen,4_108_2,2023-09-08T16:17:37.172Z,,0,,,NaN,,,,,,false,,,,692137.2000000477,692137.2000000477,,692137.2000000477,,692149.015,8,400,,,
sequence,flow.Sequence,4_108,2023-09-08T16:17:37.172Z,,0,,,5164.794000047725,completion,,,,,false,,,,692137.2999999523,692137.2000000477,686955.694,686966.5999999046,686972.406,692149.015,8,400,,,
trial,html.Screen,4_109_0,2023-09-08T16:17:43.740Z,,0,3,,6556.484999999986,response,ISIC_0001743.JPG,5,ISIC_5662381.JPG,ISIC_0001743.JPG,false,1,keypress(m),500,698706,698705.5,692132.317,692137.399999857,692149.015,698711.877,8,400,10,,ISIC_5662381.JPG
break,html.Screen,4_109_1,2023-09-08T16:17:43.741Z,,0,,,NaN,,,,,,false,,,,698706.899999857,698706.7000000477,,698706.2999999523,,698711.877,8,400,,,
break_continue,html.Screen,4_109_2,2023-09-08T16:17:43.742Z,,0,,,NaN,,,,,,false,,,,698707.399999857,698707.2999999523,,698707.0999999046,,698711.877,8,400,,,
sequence,flow.Sequence,4_109,2023-09-08T16:17:43.742Z,,0,,,6558.284999952302,completion,,,,,false,,,,698707.7000000477,698707.2999999523,692132.317,692137.399999857,692149.015,698711.877,8,400,,,
trial,html.Screen,4_110_0,2023-09-08T16:17:49.682Z,,0,3,,5935.222999904654,response,ISIC_3043219.JPG,5,ISIC_0016094.JPG,ISIC_3043219.JPG,false,1,keypress(m),500,704647.5,704647.0999999046,698695.305,698707.899999857,698711.877,704656.728,8,400,11,,ISIC_0016094.JPG
break,html.Screen,4_110_1,2023-09-08T16:17:49.683Z,,0,,,NaN,,,,,,false,,,,704649,704648.5,,704647.899999857,,704656.728,8,400,,,
break_continue,html.Screen,4_110_2,2023-09-08T16:17:49.684Z,,0,,,NaN,,,,,,false,,,,704649.5999999046,704649.399999857,,704649.2000000477,,704656.728,8,400,,,
sequence,flow.Sequence,4_110,2023-09-08T16:17:49.684Z,,0,,,5937.52299985697,completion,,,,,false,,,,704649.899999857,704649.399999857,698695.305,698707.899999857,698711.877,704656.728,8,400,,,
trial,html.Screen,4_111_0,2023-09-08T16:17:56.119Z,,0,3,,6428.171999856946,response,ISIC_5866419.JPG,6,ISIC_0031077.JPG,ISIC_5866419.JPG,false,1,keypress(m),500,711085,711084.899999857,704640.08,704650.2999999523,704656.728,711085.864,8,400,12,,ISIC_0031077.JPG
break,html.Screen,4_111_1,2023-09-08T16:17:56.120Z,,0,,,NaN,,,,,,false,,,,711085.399999857,711085.2999999523,,711085.2000000477,,711085.864,8,400,,,
break_continue,html.Screen,4_111_2,2023-09-08T16:17:56.120Z,,0,,,NaN,,,,,,false,,,,711085.5999999046,711085.5999999046,,711085.5,,711085.864,8,400,,,
sequence,flow.Sequence,4_111,2023-09-08T16:17:56.120Z,,0,,,6428.87199990463,completion,,,,,false,,,,711085.7999999523,711085.5999999046,704640.08,704650.2999999523,704656.728,711085.864,8,400,,,
trial,html.Screen,4_112_0,2023-09-08T16:17:59.290Z,,0,3,,3169.636000000057,response,ISIC_0063692.JPG,5,ISIC_3356776.JPG,ISIC_3356776.JPG,false,0,keypress(z),500,714255.7999999523,714255.5,711069.156,711085.899999857,711085.864,714258.832,8,400,13,,ISIC_0063692.JPG
break,html.Screen,4_112_1,2023-09-08T16:17:59.291Z,,0,,,NaN,,,,,,false,,,,714257,714256.7000000477,,714256.2000000477,,714258.832,8,400,,,
break_continue,html.Screen,4_112_2,2023-09-08T16:17:59.292Z,,0,,,NaN,,,,,,false,,,,714257.7000000477,714257.399999857,,714257.2000000477,,714258.832,8,400,,,
sequence,flow.Sequence,4_112,2023-09-08T16:17:59.292Z,,0,,,3171.5359998570057,completion,,,,,false,,,,714257.899999857,714257.399999857,711069.156,711085.899999857,711085.864,714258.832,8,400,,,
trial,html.Screen,4_113_0,2023-09-08T16:18:02.672Z,,0,3,,3378.167999999947,response,ISIC_4079108.JPG,5,ISIC_0054395.JPG,ISIC_4079108.JPG,false,1,keypress(m),500,717637.2999999523,717637,714242.08,714258.0999999046,714258.832,717648.909,8,400,14,,ISIC_0054395.JPG
break,html.Screen,4_113_1,2023-09-08T16:18:02.672Z,,0,,,NaN,,,,,,false,,,,717638,717637.7999999523,,717637.399999857,,717648.909,8,400,,,
break_continue,html.Screen,4_113_2,2023-09-08T16:18:02.673Z,,0,,,NaN,,,,,,false,,,,717638.399999857,717638.2999999523,,717638.0999999046,,717648.909,8,400,,,
sequence,flow.Sequence,4_113,2023-09-08T16:18:02.673Z,,0,,,3379.467999952263,completion,,,,,false,,,,717638.5,717638.2999999523,714242.08,714258.0999999046,714258.832,717648.909,8,400,,,
trial,html.Screen,4_114_0,2023-09-08T16:18:06.659Z,,0,3,,3975.2910000476986,response,ISIC_0054941.JPG,4,ISIC_0033287.JPG,ISIC_0033287.JPG,false,0,keypress(z),500,721624.5,721624.2000000477,717631.939,717638.5999999046,717648.909,721639.831,8,400,15,,ISIC_0054941.JPG
break,html.Screen,4_114_1,2023-09-08T16:18:06.660Z,,0,,,NaN,,,,,,false,,,,721625.7999999523,721625.2999999523,,721624.7000000477,,721639.831,8,400,,,
break_continue,html.Screen,4_114_2,2023-09-08T16:18:06.661Z,,0,,,NaN,,,,,,false,,,,721626.399999857,721626.2000000477,,721626,,721639.831,8,400,,,
sequence,flow.Sequence,4_114,2023-09-08T16:18:06.661Z,,0,,,3977.2910000476986,completion,,,,,false,,,,721626.5,721626.2000000477,717631.939,717638.5999999046,717648.909,721639.831,8,400,,,
trial,html.Screen,4_115_0,2023-09-08T16:18:10.751Z,,0,3,,4076.869000047678,response,ISIC_0013775.JPG,5,ISIC_0065278.JPG,ISIC_0013775.JPG,false,1,keypress(m),500,725717.0999999046,725716.7000000477,721623.148,721626.7000000477,721639.831,725731.233,8,400,16,,ISIC_0065278.JPG
break,html.Screen,4_115_1,2023-09-08T16:18:10.753Z,,0,,,NaN,,,,,,false,,,,725718.5,725718,,725717.5,,725731.233,8,400,,,
break_continue,html.Screen,4_115_2,2023-09-08T16:18:10.753Z,,0,,,NaN,,,,,,false,,,,725719.2000000477,725718.899999857,,725718.7000000477,,725731.233,8,400,,,
sequence,flow.Sequence,4_115,2023-09-08T16:18:10.754Z,,0,,,4079.0689998569433,completion,,,,,false,,,,725719.399999857,725718.899999857,721623.148,721626.5999999046,721639.831,725731.233,8,400,,,
trial,html.Screen,4_116_0,2023-09-08T16:18:15.029Z,,0,3,,4263.266999999993,response,ISIC_0000035.JPG,5,ISIC_0029081.JPG,ISIC_0029081.JPG,false,0,keypress(z),500,729994.7999999523,729994.5,725714.453,725719.7000000477,725731.233,730006.148,8,400,17,,ISIC_0000035.JPG
break,html.Screen,4_116_1,2023-09-08T16:18:15.031Z,,0,,,NaN,,,,,,false,,,,729996,729995.7000000477,,729995.2000000477,,730006.148,8,400,,,
break_continue,html.Screen,4_116_2,2023-09-08T16:18:15.031Z,,0,,,NaN,,,,,,false,,,,729996.5999999046,729996.399999857,,729996.2000000477,,730006.148,8,400,,,
sequence,flow.Sequence,4_116,2023-09-08T16:18:15.032Z,,0,,,4265.166999856941,completion,,,,,false,,,,729997,729996.399999857,725714.453,725719.5999999046,725731.233,730006.148,8,400,,,
trial,html.Screen,4_117_0,2023-09-08T16:18:20.074Z,,0,3,,5032.951999904588,response,ISIC_5504560.JPG,5,ISIC_6685532.JPG,ISIC_6685532.JPG,false,0,keypress(z),500,735039.0999999046,735039.0999999046,729989.33,729997.2000000477,730006.148,735049.267,8,400,18,,ISIC_5504560.JPG
break,html.Screen,4_117_1,2023-09-08T16:18:20.074Z,,0,,,NaN,,,,,,false,,,,735039.5,735039.399999857,,735039.2000000477,,735049.267,8,400,,,
break_continue,html.Screen,4_117_2,2023-09-08T16:18:20.074Z,,0,,,NaN,,,,,,false,,,,735039.7000000477,735039.5999999046,,735039.5,,735049.267,8,400,,,
sequence,flow.Sequence,4_117,2023-09-08T16:18:20.074Z,,0,,,5033.451999904588,completion,,,,,false,,,,735039.7999999523,735039.5999999046,729989.33,729997.0999999046,730006.148,735049.267,8,400,,,
trial,html.Screen,4_118_0,2023-09-08T16:18:26.048Z,,0,3,,5964.233000000007,response,ISIC_1694817.JPG,5,ISIC_0069486.JPG,ISIC_1694817.JPG,false,1,keypress(m),500,741013.5999999046,741013.5,735032.69,735039.7999999523,735049.267,741027.481,8,400,19,,ISIC_0069486.JPG
break,html.Screen,4_118_1,2023-09-08T16:18:26.049Z,,0,,,NaN,,,,,,false,,,,741013.899999857,741013.7999999523,,741013.5999999046,,741027.481,8,400,,,
break_continue,html.Screen,4_118_2,2023-09-08T16:18:26.049Z,,0,,,NaN,,,,,,false,,,,741014.0999999046,741014,,741014,,741027.481,8,400,,,
sequence,flow.Sequence,4_118,2023-09-08T16:18:26.049Z,,0,,,5964.733000000007,completion,,,,,false,,,,741014.0999999046,741014,735032.69,735039.7999999523,735049.267,741027.481,8,400,,,
trial,html.Screen,4_119_0,2023-09-08T16:18:30.599Z,,0,3,,4536.719000047655,response,ISIC_0060999.JPG,5,ISIC_2518672.JPG,ISIC_0060999.JPG,false,1,keypress(m),500,745564.5,745564.2000000477,741010.888,741014.2000000477,741027.481,745569.723,8,400,20,,ISIC_2518672.JPG
break,html.Screen,4_119_1,2023-09-08T16:18:30.600Z,,0,,,NaN,,,,,,false,,,,745565.7000000477,745565.2999999523,,745564.899999857,,745569.723,8,400,,,
break_continue,html.Screen,4_119_2,2023-09-08T16:18:30.601Z,,0,,,NaN,,,,,,false,,,,745566.2999999523,745566.0999999046,,745565.899999857,,745569.723,8,400,,,
sequence,flow.Sequence,4_119,2023-09-08T16:18:30.601Z,,0,,,4538.618999904604,completion,,,,,false,,,,745566.5999999046,745566.0999999046,741010.888,741014.2000000477,741027.481,745569.723,8,400,,,
trial,html.Screen,4_120_0,2023-09-08T16:18:35.788Z,,0,3,,5183.576999952318,response,ISIC_0056937.JPG,5,ISIC_4523382.JPG,ISIC_4523382.JPG,false,0,keypress(z),500,750753.399999857,750753.2999999523,745553.158,745566.7999999523,745569.723,750763.083,8,400,21,,ISIC_0056937.JPG
break,html.Screen,4_120_1,2023-09-08T16:18:35.788Z,,0,,,NaN,,,,,,false,,,,750753.7000000477,750753.5999999046,,750753.5,,750763.083,8,400,,,
break_continue,html.Screen,4_120_2,2023-09-08T16:18:35.789Z,,0,,,NaN,,,,,,false,,,,750754,750753.899999857,,750753.7999999523,,750763.083,8,400,,,
sequence,flow.Sequence,4_120,2023-09-08T16:18:35.789Z,,0,,,5184.176999856951,completion,,,,,false,,,,750754.0999999046,750753.899999857,745553.158,745566.7000000477,745569.723,750763.083,8,400,,,
trial,html.Screen,4_121_0,2023-09-08T16:18:40.031Z,,0,3,,4232.716999952332,response,ISIC_0027280.JPG,5,ISIC_9765024.JPG,ISIC_0027280.JPG,false,1,keypress(m),500,754995.899999857,754995.7999999523,750746.375,750754.2000000477,750763.083,755004.649,8,400,22,,ISIC_9765024.JPG
break,html.Screen,4_121_1,2023-09-08T16:18:40.031Z,,0,,,NaN,,,,,,false,,,,754996.2999999523,754996.2000000477,,754996,,755004.649,8,400,,,
break_continue,html.Screen,4_121_2,2023-09-08T16:18:40.031Z,,0,,,NaN,,,,,,false,,,,754996.399999857,754996.399999857,,754996.2999999523,,755004.649,8,400,,,
sequence,flow.Sequence,4_121,2023-09-08T16:18:40.031Z,,0,,,4233.316999856965,completion,,,,,false,,,,754996.5,754996.399999857,750746.375,750754.2000000477,750763.083,755004.649,8,400,,,
trial,html.Screen,4_122_0,2023-09-08T16:18:43.553Z,,0,3,,3513.450999904657,response,ISIC_8647900.JPG,5,ISIC_4174592.JPG,ISIC_8647900.JPG,false,1,keypress(m),500,758518.2000000477,758518.0999999046,754987.921,754996.5999999046,755004.649,758528.254,8,400,23,,ISIC_4174592.JPG
break,html.Screen,4_122_1,2023-09-08T16:18:43.553Z,,0,,,NaN,,,,,,false,,,,758518.5,758518.399999857,,758518.2999999523,,758528.254,8,400,,,
break_continue,html.Screen,4_122_2,2023-09-08T16:18:43.553Z,,0,,,NaN,,,,,,false,,,,758518.7000000477,758518.5999999046,,758518.5999999046,,758528.254,8,400,,,
sequence,flow.Sequence,4_122,2023-09-08T16:18:43.553Z,,0,,,3513.950999904657,completion,,,,,false,,,,758518.7999999523,758518.5999999046,754987.921,754996.5,755004.649,758528.254,8,400,,,
trial,html.Screen,4_123_0,2023-09-08T16:18:51.427Z,,0,3,,7863.545999952359,response,ISIC_0011057.JPG,5,ISIC_4249893.JPG,ISIC_4249893.JPG,false,0,keypress(z),500,766392,766391.7999999523,758511.549,758518.7999999523,758528.254,766393.581,8,400,24,,ISIC_0011057.JPG
break,html.Screen,4_123_1,2023-09-08T16:18:51.427Z,,0,,,NaN,,,,,,false,,,,766392.7999999523,766392.5999999046,,766392.2000000477,,766393.581,8,400,,,
break_continue,html.Screen,4_123_2,2023-09-08T16:18:51.428Z,,0,,,NaN,,,,,,false,,,,766393.2000000477,766393,,766392.899999857,,766393.581,8,400,,,
sequence,flow.Sequence,4_123,2023-09-08T16:18:51.428Z,,0,,,7864.746000000043,completion,,,,,false,,,,766393.2999999523,766393,758511.549,758518.7999999523,758528.254,766393.581,8,400,,,
trial,html.Screen,4_124_0,2023-09-08T16:18:54.743Z,,0,3,,3314.8189998569433,response,ISIC_6373500.JPG,5,ISIC_0061029.JPG,ISIC_6373500.JPG,false,1,keypress(m),500,769708.5999999046,769708.399999857,766376.831,766393.5999999046,766393.581,769716.628,8,400,25,,ISIC_0061029.JPG
break,html.Screen,4_124_1,2023-09-08T16:18:54.744Z,,0,,,NaN,,,,,,false,,,,769709.899999857,769709.399999857,,769708.899999857,,769716.628,8,400,,,
break_continue,html.Screen,4_124_2,2023-09-08T16:18:54.745Z,,0,,,NaN,,,,,,false,,,,769710.399999857,769710.2999999523,,769710,,769716.628,8,400,,,
sequence,flow.Sequence,4_124,2023-09-08T16:18:54.745Z,,0,,,3316.7189999523107,completion,,,,,false,,,,769710.5999999046,769710.2999999523,766376.831,766393.5,766393.581,769716.628,8,400,,,
trial,html.Screen,4_125_0,2023-09-08T16:18:59.602Z,,0,3,,4850.67199995229,response,ISIC_0066492.JPG,5,ISIC_2276141.JPG,ISIC_0066492.JPG,false,1,keypress(m),500,774567.399999857,774567.2999999523,769700.102,769710.899999857,769716.628,774576.063,8,400,26,,ISIC_2276141.JPG
break,html.Screen,4_125_1,2023-09-08T16:18:59.602Z,,0,,,NaN,,,,,,false,,,,774567.7000000477,774567.7000000477,,774567.5,,774576.063,8,400,,,
break_continue,html.Screen,4_125_2,2023-09-08T16:18:59.603Z,,0,,,NaN,,,,,,false,,,,774567.899999857,774567.899999857,,774567.7999999523,,774576.063,8,400,,,
