sender,sender_type,sender_id,timestamp,meta,,blockNo,condition,duration,ended_on,img_left,img_reveal,img_right,loser,practice,response,response_action,selection_duration,time_commit,time_end,time_render,time_run,time_show,time_switch,total_blocks,total_trials,trialNo,url,winner
informed_consent,html.Screen,0,2023-09-12T21:41:20.293Z,"{""labjs_version"":""20.2.4"",""labjs_build"":{""flavor"":""production"",""commit"":""f5b4a49f956347addd546a832a3327688c2c0fef""},""location"":""https://run.pavlovia.org/MurrayBennett/melanoma-2afc/?participant=67604&platform=sona"",""userAgent"":""Mozilla/5.0 (X11; CrOS x86_64 14541.0.0) AppleWebKit/537.36 (KHTML, like Gecko) Chrome/114.0.0.0 Safari/537.36"",""platform"":""Linux x86_64"",""language"":""en-US"",""locale"":""en-US"",""timeZone"":""America/Chicago"",""timezoneOffset"":300,""screen_width"":1366,""screen_height"":768,""scroll_width"":1366,""scroll_height"":569,""window_innerWidth"":1366,""window_innerHeight"":617,""devicePixelRatio"":1}",,,,3459.329999988079,response,,,,,,consent,click button,,7527.79999999702,7518.699999988079,4042.696,4054.3999999910593,4059.37,7559.608,,,,"{""participant"":""67604"",""platform"":""sona""}",
Welcome,html.Screen,1,2023-09-12T21:47:09.711Z,,,,colourful,349383.191999997,response,,,,,,continue,click button,,356946.299999997,356942.799999997,7509.589,7528.199999988079,7559.608,356950.297,,,,,
trial,html.Screen,2_0_0,2023-09-12T21:47:16.898Z,,0,0,,7182.602999991039,response,ISIC_0025593.JPG,,ISIC_0063388.JPG,ISIC_0063388.JPG,true,0,keypress(z),500,364133.39999999106,364132.89999999106,356933.63,356946.59999999404,356950.297,364150.813,1,6,1,,ISIC_0025593.JPG
sequence,flow.Sequence,2_0,2023-09-12T21:47:16.899Z,,0,,,7182.602999991039,completion,,,,,true,,,,364133.6999999881,364132.89999999106,356933.63,356946.59999999404,356950.297,364150.813,1,6,,,
trial,html.Screen,2_1_0,2023-09-12T21:47:21.802Z,,0,0,,4885.786999994016,response,ISIC_0028178.JPG,,ISIC_1309015.JPG,ISIC_1309015.JPG,true,0,keypress(z),500,369037,369036.59999999404,364134.137,364133.89999999106,364150.813,369051.152,1,6,2,,ISIC_0028178.JPG
sequence,flow.Sequence,2_1,2023-09-12T21:47:21.802Z,,0,,,4885.786999994016,completion,,,,,true,,,,369037.299999997,369036.59999999404,364134.137,364133.799999997,364150.813,369051.152,1,6,,,
trial,html.Screen,2_2_0,2023-09-12T21:47:25.122Z,,0,0,,3305.4479999940377,response,ISIC_3314853.JPG,,ISIC_0031128.JPG,ISIC_3314853.JPG,true,1,keypress(m),500,372356.89999999106,372356.59999999404,369034.459,369037.5,369051.152,372368.044,1,6,3,,ISIC_0031128.JPG
sequence,flow.Sequence,2_2,2023-09-12T21:47:25.122Z,,0,,,3305.4479999940377,completion,,,,,true,,,,372357.299999997,372356.59999999404,369034.459,369037.39999999106,369051.152,372368.044,1,6,,,
trial,html.Screen,2_3_0,2023-09-12T21:47:28.906Z,,0,0,,3772.4560000000056,response,ISIC_0031612.JPG,,ISIC_8980141.JPG,ISIC_8980141.JPG,true,0,keypress(z),500,376141.09999999404,376140.5,372351.353,372357.5,372368.044,376151.622,1,6,4,,ISIC_0031612.JPG
sequence,flow.Sequence,2_3,2023-09-12T21:47:28.907Z,,0,,,3772.4560000000056,completion,,,,,true,,,,376141.6999999881,376140.5,372351.353,372357.5,372368.044,376151.622,1,6,,,
trial,html.Screen,2_4_0,2023-09-12T21:47:32.634Z,,0,0,,3716.7779999910854,response,ISIC_1197737.JPG,,ISIC_9721604.JPG,ISIC_9721604.JPG,true,0,keypress(z),500,379868.799999997,379868.39999999106,376134.955,376141.89999999106,376151.622,379885.231,1,6,5,,ISIC_1197737.JPG
sequence,flow.Sequence,2_4,2023-09-12T21:47:32.634Z,,0,,,3716.7779999910854,completion,,,,,true,,,,379869.1999999881,379868.39999999106,376134.955,376141.6999999881,376151.622,379885.231,1,6,,,
trial,html.Screen,2_5_0,2023-09-12T21:47:37.874Z,,0,0,,5223.368999994011,response,ISIC_0025346.JPG,,ISIC_0010681.JPG,ISIC_0010681.JPG,true,0,keypress(z),500,385108.89999999106,385108.59999999404,379868.545,379869.5,379885.231,385118.913,1,6,6,,ISIC_0025346.JPG
sequence,flow.Sequence,2_5,2023-09-12T21:47:37.874Z,,0,,,5223.368999994011,completion,,,,,true,,,,385109.299999997,385108.59999999404,379868.545,379869.299999997,379885.231,385118.913,1,6,,,
loop,flow.Loop,2,2023-09-12T21:47:37.875Z,,,,,28158.30299999402,completion,,,,,true,,,,385109.59999999404,385108.59999999404,356933.63,356946.5,356950.297,385118.913,1,6,,,
exp_instructions,html.Screen,3,2023-09-12T21:47:41.538Z,,,,,3651.686999994039,response,,,,,,continue,keypress(Space),,388773.299999997,388770.59999999404,385102.246,385109.6999999881,385118.913,388785.667,,,,,
trial,html.Screen,4_0_0,2023-09-12T21:47:44.826Z,,0,1,,3275.2329999910435,response,ISIC_7075474.JPG,9,ISIC_8380904.JPG,ISIC_7075474.JPG,false,1,keypress(m),500,392061.1999999881,392060.89999999106,388769,388773.5,388785.667,392069.379,8,400,1,,ISIC_8380904.JPG
break,html.Screen,4_0_1,2023-09-12T21:47:44.828Z,,0,,,NaN,,,,,,false,,,,392062.5,392062.299999997,,392061.39999999106,,392069.379,8,400,,,
break_continue,html.Screen,4_0_2,2023-09-12T21:47:44.828Z,,0,,,NaN,,,,,,false,,,,392062.89999999106,392062.799999997,,392062.6999999881,,392069.379,8,400,,,
sequence,flow.Sequence,4_0,2023-09-12T21:47:44.828Z,,0,,,3277.132999997004,completion,,,,,false,,,,392063.09999999404,392062.799999997,388769,388773.5,388785.667,392069.379,8,400,,,
trial,html.Screen,4_1_0,2023-09-12T21:47:55.298Z,,0,1,,10463.220999994024,response,ISIC_0031546.JPG,8,ISIC_5821131.JPG,ISIC_5821131.JPG,false,0,keypress(z),500,402532.89999999106,402532.59999999404,392052.712,392063.299999997,392069.379,402536.776,8,400,2,,ISIC_0031546.JPG
break,html.Screen,4_1_1,2023-09-12T21:47:55.299Z,,0,,,NaN,,,,,,false,,,,402533.89999999106,402533.6999999881,,402533.09999999404,,402536.776,8,400,,,
break_continue,html.Screen,4_1_2,2023-09-12T21:47:55.299Z,,0,,,NaN,,,,,,false,,,,402534.1999999881,402534,,402533.89999999106,,402536.776,8,400,,,
sequence,flow.Sequence,4_1,2023-09-12T21:47:55.300Z,,0,,,10464.620999999985,completion,,,,,false,,,,402534.39999999106,402534,392052.712,392063.1999999881,392069.379,402536.776,8,400,,,
trial,html.Screen,4_2_0,2023-09-12T21:47:59.362Z,,0,1,,4059.823999994027,response,ISIC_0031013.JPG,10,ISIC_0072553.JPG,ISIC_0072553.JPG,false,0,keypress(z),500,406596.799999997,406596.59999999404,402520.109,402534.5,402536.776,406603.722,8,400,3,,ISIC_0031013.JPG
break,html.Screen,4_2_1,2023-09-12T21:47:59.363Z,,0,,,NaN,,,,,,false,,,,406597.799999997,406597.59999999404,,406597.09999999404,,406603.722,8,400,,,
break_continue,html.Screen,4_2_2,2023-09-12T21:47:59.363Z,,0,,,NaN,,,,,,false,,,,406598.09999999404,406598,,406597.89999999106,,406603.722,8,400,,,
sequence,flow.Sequence,4_2,2023-09-12T21:47:59.363Z,,0,,,4061.2239999999874,completion,,,,,false,,,,406598.39999999106,406598,402520.109,402534.5,402536.776,406603.722,8,400,,,
trial,html.Screen,4_3_0,2023-09-12T21:48:03.394Z,,0,1,,4024.777999999991,response,ISIC_0015443.JPG,10,ISIC_3651451.JPG,ISIC_3651451.JPG,false,0,keypress(z),500,410628.89999999106,410628.5,406587.055,406598.5,406603.722,410637.323,8,400,4,,ISIC_0015443.JPG
break,html.Screen,4_3_1,2023-09-12T21:48:03.395Z,,0,,,NaN,,,,,,false,,,,410630.09999999404,410629.799999997,,410629,,410637.323,8,400,,,
break_continue,html.Screen,4_3_2,2023-09-12T21:48:03.396Z,,0,,,NaN,,,,,,false,,,,410630.39999999106,410630.299999997,,410630.1999999881,,410637.323,8,400,,,
sequence,flow.Sequence,4_3,2023-09-12T21:48:03.396Z,,0,,,4026.577999997011,completion,,,,,false,,,,410630.5,410630.299999997,406587.055,406598.39999999106,406603.722,410637.323,8,400,,,
trial,html.Screen,4_4_0,2023-09-12T21:48:06.594Z,,0,1,,3191.376999988104,response,ISIC_0029094.JPG,9,ISIC_0029803.JPG,ISIC_0029803.JPG,false,0,keypress(z),500,413829,413828.6999999881,410620.656,410630.6999999881,410637.323,413837.547,8,400,5,,ISIC_0029094.JPG
break,html.Screen,4_4_1,2023-09-12T21:48:06.595Z,,0,,,NaN,,,,,,false,,,,413830,413829.799999997,,413829.1999999881,,413837.547,8,400,,,
break_continue,html.Screen,4_4_2,2023-09-12T21:48:06.596Z,,0,,,NaN,,,,,,false,,,,413830.5,413830.39999999106,,413830.09999999404,,413837.547,8,400,,,
sequence,flow.Sequence,4_4,2023-09-12T21:48:06.596Z,,0,,,3193.0769999910844,completion,,,,,false,,,,413830.59999999404,413830.39999999106,410620.656,410630.59999999404,410637.323,413837.547,8,400,,,
trial,html.Screen,4_5_0,2023-09-12T21:48:09.802Z,,0,1,,3198.9529999999795,response,ISIC_0064860.JPG,9,ISIC_0033681.JPG,ISIC_0033681.JPG,false,0,keypress(z),500,417037,417036.5,413820.88,413830.6999999881,413837.547,417054.459,8,400,6,,ISIC_0064860.JPG
break,html.Screen,4_5_1,2023-09-12T21:48:09.803Z,,0,,,NaN,,,,,,false,,,,417037.799999997,417037.59999999404,,417037.09999999404,,417054.459,8,400,,,
break_continue,html.Screen,4_5_2,2023-09-12T21:48:09.804Z,,0,,,NaN,,,,,,false,,,,417039,417038.89999999106,,417038.799999997,,417054.459,8,400,,,
sequence,flow.Sequence,4_5,2023-09-12T21:48:09.804Z,,0,,,3201.352999991039,completion,,,,,false,,,,417039.1999999881,417038.89999999106,413820.88,413830.6999999881,413837.547,417054.459,8,400,,,
trial,html.Screen,4_6_0,2023-09-12T21:48:12.915Z,,0,1,,3094.5410000000265,response,ISIC_6392478.JPG,9,ISIC_7302456.JPG,ISIC_6392478.JPG,false,1,keypress(m),500,420149.59999999404,420149,417037.761,417039.299999997,417054.459,420154.644,8,400,7,,ISIC_7302456.JPG
break,html.Screen,4_6_1,2023-09-12T21:48:12.915Z,,0,,,NaN,,,,,,false,,,,420150.299999997,420150.1999999881,,420149.799999997,,420154.644,8,400,,,
break_continue,html.Screen,4_6_2,2023-09-12T21:48:12.916Z,,0,,,NaN,,,,,,false,,,,420150.6999999881,420150.5,,420150.39999999106,,420154.644,8,400,,,
sequence,flow.Sequence,4_6,2023-09-12T21:48:12.916Z,,0,,,3096.0410000000265,completion,,,,,false,,,,420150.799999997,420150.5,417037.761,417039.299999997,417054.459,420154.644,8,400,,,
trial,html.Screen,4_7_0,2023-09-12T21:48:16.010Z,,0,1,,3089.9559999940684,response,ISIC_2479134.JPG,9,ISIC_6966230.JPG,ISIC_6966230.JPG,false,0,keypress(z),500,423244.799999997,423244.59999999404,420137.977,420151,420154.644,423254.867,8,400,8,,ISIC_2479134.JPG
break,html.Screen,4_7_1,2023-09-12T21:48:16.011Z,,0,,,NaN,,,,,,false,,,,423245.799999997,423245.59999999404,,423245,,423254.867,8,400,,,
break_continue,html.Screen,4_7_2,2023-09-12T21:48:16.011Z,,0,,,NaN,,,,,,false,,,,423246.09999999404,423246.09999999404,,423245.89999999106,,423254.867,8,400,,,
sequence,flow.Sequence,4_7,2023-09-12T21:48:16.011Z,,0,,,3091.4559999940684,completion,,,,,false,,,,423246.299999997,423246.09999999404,420137.977,420150.89999999106,420154.644,423254.867,8,400,,,
trial,html.Screen,4_8_0,2023-09-12T21:48:19.346Z,,0,1,,3325.9329999969923,response,ISIC_0057313.JPG,10,ISIC_9684318.JPG,ISIC_9684318.JPG,false,0,keypress(z),500,426581.09999999404,426580.799999997,423238.2,423246.5,423254.867,426588.422,8,400,9,,ISIC_0057313.JPG
break,html.Screen,4_8_1,2023-09-12T21:48:19.347Z,,0,,,NaN,,,,,,false,,,,426581.89999999106,426581.799999997,,426581.299999997,,426588.422,8,400,,,
break_continue,html.Screen,4_8_2,2023-09-12T21:48:19.347Z,,0,,,NaN,,,,,,false,,,,426582.299999997,426582.1999999881,,426582,,426588.422,8,400,,,
sequence,flow.Sequence,4_8,2023-09-12T21:48:19.348Z,,0,,,3327.3329999880516,completion,,,,,false,,,,426582.5,426582.1999999881,423238.2,423246.5,423254.867,426588.422,8,400,,,
trial,html.Screen,4_9_0,2023-09-12T21:48:22.178Z,,0,1,,2823.977999991039,response,ISIC_0025006.JPG,10,ISIC_0065882.JPG,ISIC_0025006.JPG,false,1,keypress(m),500,429412.6999999881,429412.39999999106,426571.755,426582.59999999404,426588.422,429421.945,8,400,10,,ISIC_0065882.JPG
break,html.Screen,4_9_1,2023-09-12T21:48:22.179Z,,0,,,NaN,,,,,,false,,,,429413.799999997,429413.5,,429412.799999997,,429421.945,8,400,,,
break_continue,html.Screen,4_9_2,2023-09-12T21:48:22.179Z,,0,,,NaN,,,,,,false,,,,429414.1999999881,429414.09999999404,,429413.89999999106,,429421.945,8,400,,,
sequence,flow.Sequence,4_9,2023-09-12T21:48:22.180Z,,0,,,2825.677999994019,completion,,,,,false,,,,429414.39999999106,429414.09999999404,426571.755,426582.59999999404,426588.422,429421.945,8,400,,,
trial,html.Screen,4_10_0,2023-09-12T21:48:25.202Z,,0,1,,3014.9549999910523,response,ISIC_0005686.JPG,10,ISIC_0065521.JPG,ISIC_0005686.JPG,false,1,keypress(m),500,432437.1999999881,432436.89999999106,429405.278,429414.5,429421.945,432438.825,8,400,11,,ISIC_0065521.JPG
break,html.Screen,4_10_1,2023-09-12T21:48:25.203Z,,0,,,NaN,,,,,,false,,,,432437.89999999106,432437.89999999106,,432437.39999999106,,432438.825,8,400,,,
break_continue,html.Screen,4_10_2,2023-09-12T21:48:25.204Z,,0,,,NaN,,,,,,false,,,,432438.39999999106,432438.299999997,,432438.09999999404,,432438.825,8,400,,,
sequence,flow.Sequence,4_10,2023-09-12T21:48:25.204Z,,0,,,3016.354999997013,completion,,,,,false,,,,432438.5,432438.299999997,429405.278,429414.5,429421.945,432438.825,8,400,,,
trial,html.Screen,4_11_0,2023-09-12T21:48:27.946Z,,0,1,,2741.974999997008,response,ISIC_3392451.JPG,10,ISIC_0032425.JPG,ISIC_3392451.JPG,false,1,keypress(m),500,435181,435180.799999997,432422.158,432438.6999999881,432438.825,435189.014,8,400,12,,ISIC_0032425.JPG
break,html.Screen,4_11_1,2023-09-12T21:48:27.947Z,,0,,,NaN,,,,,,false,,,,435181.799999997,435181.59999999404,,435181.1999999881,,435189.014,8,400,,,
break_continue,html.Screen,4_11_2,2023-09-12T21:48:27.947Z,,0,,,NaN,,,,,,false,,,,435182.09999999404,435182.09999999404,,435181.89999999106,,435189.014,8,400,,,
sequence,flow.Sequence,4_11,2023-09-12T21:48:27.947Z,,0,,,2743.274999994028,completion,,,,,false,,,,435182.299999997,435182.09999999404,432422.158,432438.59999999404,432438.825,435189.014,8,400,,,
trial,html.Screen,4_12_0,2023-09-12T21:48:30.898Z,,0,1,,2943.785999996995,response,ISIC_0029550.JPG,10,ISIC_0004794.JPG,ISIC_0004794.JPG,false,0,keypress(z),500,438133,438132.799999997,435172.347,435182.39999999106,435189.014,438139.22,8,400,13,,ISIC_0029550.JPG
break,html.Screen,4_12_1,2023-09-12T21:48:30.899Z,,0,,,NaN,,,,,,false,,,,438133.89999999106,438133.6999999881,,438133.299999997,,438139.22,8,400,,,
break_continue,html.Screen,4_12_2,2023-09-12T21:48:30.899Z,,0,,,NaN,,,,,,false,,,,438134.299999997,438134.1999999881,,438134.09999999404,,438139.22,8,400,,,
sequence,flow.Sequence,4_12,2023-09-12T21:48:30.900Z,,0,,,2945.1859999880544,completion,,,,,false,,,,438134.5,438134.1999999881,435172.347,435182.299999997,435189.014,438139.22,8,400,,,
trial,html.Screen,4_13_0,2023-09-12T21:48:33.786Z,,0,1,,2881.479999988107,response,ISIC_0000395.JPG,10,ISIC_0053617.JPG,ISIC_0000395.JPG,false,1,keypress(m),500,441021,441020.6999999881,438122.553,438134.59999999404,438139.22,441022.749,8,400,14,,ISIC_0053617.JPG
break,html.Screen,4_13_1,2023-09-12T21:48:33.787Z,,0,,,NaN,,,,,,false,,,,441021.799999997,441021.59999999404,,441021.299999997,,441022.749,8,400,,,
break_continue,html.Screen,4_13_2,2023-09-12T21:48:33.787Z,,0,,,NaN,,,,,,false,,,,441022.299999997,441022,,441022,,441022.749,8,400,,,
sequence,flow.Sequence,4_13,2023-09-12T21:48:33.788Z,,0,,,2882.780000000028,completion,,,,,false,,,,441022.39999999106,441022,438122.553,438134.59999999404,438139.22,441022.749,8,400,,,
trial,html.Screen,4_14_0,2023-09-12T21:48:36.562Z,,0,1,,2773.9509999880684,response,ISIC_0032723.JPG,10,ISIC_0001923.JPG,ISIC_0001923.JPG,false,0,keypress(z),500,443796.89999999106,443796.6999999881,441006.082,441022.5,441022.749,443806.272,8,400,15,,ISIC_0032723.JPG
break,html.Screen,4_14_1,2023-09-12T21:48:36.563Z,,0,,,NaN,,,,,,false,,,,443798,443797.59999999404,,443797.09999999404,,443806.272,8,400,,,
break_continue,html.Screen,4_14_2,2023-09-12T21:48:36.563Z,,0,,,NaN,,,,,,false,,,,443798.299999997,443798.1999999881,,443798.09999999404,,443806.272,8,400,,,
sequence,flow.Sequence,4_14,2023-09-12T21:48:36.564Z,,0,,,2775.4509999880684,completion,,,,,false,,,,443798.39999999106,443798.1999999881,441006.082,441022.5,441022.749,443806.272,8,400,,,
trial,html.Screen,4_15_0,2023-09-12T21:48:39.306Z,,0,1,,2734.3279999940423,response,ISIC_0061580.JPG,10,ISIC_0028915.JPG,ISIC_0061580.JPG,false,1,keypress(m),500,446540.89999999106,446540.59999999404,443789.605,443798.59999999404,443806.272,446556.493,8,400,16,,ISIC_0028915.JPG
break,html.Screen,4_15_1,2023-09-12T21:48:39.307Z,,0,,,NaN,,,,,,false,,,,446541.799999997,446541.6999999881,,446541.09999999404,,446556.493,8,400,,,
break_continue,html.Screen,4_15_2,2023-09-12T21:48:39.307Z,,0,,,NaN,,,,,,false,,,,446542.09999999404,446542,,446541.89999999106,,446556.493,8,400,,,
sequence,flow.Sequence,4_15,2023-09-12T21:48:39.307Z,,0,,,2735.728000000003,completion,,,,,false,,,,446542.299999997,446542,443789.605,443798.59999999404,443806.272,446556.493,8,400,,,
trial,html.Screen,4_16_0,2023-09-12T21:48:42.042Z,,0,1,,2720.4069999910425,response,ISIC_3520709.JPG,10,ISIC_0010322.JPG,ISIC_3520709.JPG,false,1,keypress(m),500,449277.1999999881,449276.89999999106,446539.804,446542.5,446556.493,449290.005,8,400,17,,ISIC_0010322.JPG
break,html.Screen,4_16_1,2023-09-12T21:48:42.043Z,,0,,,NaN,,,,,,false,,,,449278,449277.89999999106,,449277.39999999106,,449290.005,8,400,,,
break_continue,html.Screen,4_16_2,2023-09-12T21:48:42.044Z,,0,,,NaN,,,,,,false,,,,449278.39999999106,449278.299999997,,449278.1999999881,,449290.005,8,400,,,
sequence,flow.Sequence,4_16,2023-09-12T21:48:42.044Z,,0,,,2721.806999997003,completion,,,,,false,,,,449278.5,449278.299999997,446539.804,446542.5,446556.493,449290.005,8,400,,,
trial,html.Screen,4_17_0,2023-09-12T21:48:44.890Z,,0,1,,2834.4949999999953,response,ISIC_0031224.JPG,10,ISIC_0070217.JPG,ISIC_0031224.JPG,false,1,keypress(m),500,452124.89999999106,452124.5,449273.326,449278.6999999881,449290.005,452140.2,8,400,18,,ISIC_0070217.JPG
break,html.Screen,4_17_1,2023-09-12T21:48:44.891Z,,0,,,NaN,,,,,,false,,,,452125.799999997,452125.6999999881,,452125.09999999404,,452140.2,8,400,,,
break_continue,html.Screen,4_17_2,2023-09-12T21:48:44.891Z,,0,,,NaN,,,,,,false,,,,452126.09999999404,452126,,452125.89999999106,,452140.2,8,400,,,
sequence,flow.Sequence,4_17,2023-09-12T21:48:44.891Z,,0,,,2835.9949999999953,completion,,,,,false,,,,452126.39999999106,452126,449273.326,449278.6999999881,449290.005,452140.2,8,400,,,
trial,html.Screen,4_18_0,2023-09-12T21:48:49.082Z,,0,1,,4176.299999999988,response,ISIC_7331345.JPG,10,ISIC_0024263.JPG,ISIC_0024263.JPG,false,0,keypress(z),500,456316.799999997,456316.5,452123.519,452126.39999999106,452140.2,456323.8,8,400,19,,ISIC_7331345.JPG
break,html.Screen,4_18_1,2023-09-12T21:48:49.083Z,,0,,,NaN,,,,,,false,,,,456317.59999999404,456317.39999999106,,456317,,456323.8,8,400,,,
break_continue,html.Screen,4_18_2,2023-09-12T21:48:49.083Z,,0,,,NaN,,,,,,false,,,,456317.89999999106,456317.799999997,,456317.6999999881,,456323.8,8,400,,,
sequence,flow.Sequence,4_18,2023-09-12T21:48:49.083Z,,0,,,4177.599999997008,completion,,,,,false,,,,456318,456317.799999997,452123.519,452126.39999999106,452140.2,456323.8,8,400,,,
trial,html.Screen,4_19_0,2023-09-12T21:48:51.811Z,,0,1,,2720.799999994051,response,ISIC_9756117.JPG,10,ISIC_0057395.JPG,ISIC_9756117.JPG,false,1,keypress(m),500,459045.59999999404,459044.59999999404,456307.133,456318.1999999881,456323.8,459057.343,8,400,20,,ISIC_0057395.JPG
break,html.Screen,4_19_1,2023-09-12T21:48:51.812Z,,0,,,NaN,,,,,,false,,,,459046.59999999404,459046.299999997,,459045.6999999881,,459057.343,8,400,,,
break_continue,html.Screen,4_19_2,2023-09-12T21:48:51.812Z,,0,,,NaN,,,,,,false,,,,459046.89999999106,459046.799999997,,459046.6999999881,,459057.343,8,400,,,
sequence,flow.Sequence,4_19,2023-09-12T21:48:51.812Z,,0,,,2722.9999999970314,completion,,,,,false,,,,459047.09999999404,459046.799999997,456307.133,456318.1999999881,456323.8,459057.343,8,400,,,
trial,html.Screen,4_20_0,2023-09-12T21:48:54.498Z,,0,1,,2675.3569999880856,response,ISIC_8693637.JPG,9,ISIC_0033344.JPG,ISIC_8693637.JPG,false,1,keypress(m),500,461733,461732.6999999881,459040.662,459047.299999997,459057.343,461740.852,8,400,21,,ISIC_0033344.JPG
break,html.Screen,4_20_1,2023-09-12T21:48:54.499Z,,0,,,NaN,,,,,,false,,,,461733.89999999106,461733.799999997,,461733.1999999881,,461740.852,8,400,,,
break_continue,html.Screen,4_20_2,2023-09-12T21:48:54.499Z,,0,,,NaN,,,,,,false,,,,461734.299999997,461734.299999997,,461734.09999999404,,461740.852,8,400,,,
sequence,flow.Sequence,4_20,2023-09-12T21:48:54.500Z,,0,,,2676.9569999970263,completion,,,,,false,,,,461734.5,461734.299999997,459040.662,459047.1999999881,459057.343,461740.852,8,400,,,
trial,html.Screen,4_21_0,2023-09-12T21:48:57.802Z,,0,1,,3295.747999994026,response,ISIC_0072604.JPG,10,ISIC_4529363.JPG,ISIC_4529363.JPG,false,0,keypress(z),500,465036.89999999106,465036.59999999404,461724.185,461734.6999999881,461740.852,465041.067,8,400,22,,ISIC_0072604.JPG
break,html.Screen,4_21_1,2023-09-12T21:48:57.803Z,,0,,,NaN,,,,,,false,,,,465037.89999999106,465037.6999999881,,465037.1999999881,,465041.067,8,400,,,
break_continue,html.Screen,4_21_2,2023-09-12T21:48:57.803Z,,0,,,NaN,,,,,,false,,,,465038.299999997,465038.1999999881,,465038,,465041.067,8,400,,,
sequence,flow.Sequence,4_21,2023-09-12T21:48:57.804Z,,0,,,3297.3479999880656,completion,,,,,false,,,,465038.39999999106,465038.1999999881,461724.185,461734.6999999881,461740.852,465041.067,8,400,,,
trial,html.Screen,4_22_0,2023-09-12T21:49:00.898Z,,0,1,,3091.732999997039,response,ISIC_9406275.JPG,10,ISIC_0026113.JPG,ISIC_9406275.JPG,false,1,keypress(m),500,468133,468132.799999997,465024.4,465038.5,465041.067,468141.281,8,400,23,,ISIC_0026113.JPG
break,html.Screen,4_22_1,2023-09-12T21:49:00.899Z,,0,,,NaN,,,,,,false,,,,468133.799999997,468133.59999999404,,468133.1999999881,,468141.281,8,400,,,
break_continue,html.Screen,4_22_2,2023-09-12T21:49:00.899Z,,0,,,NaN,,,,,,false,,,,468134.09999999404,468134,,468133.89999999106,,468141.281,8,400,,,
sequence,flow.Sequence,4_22,2023-09-12T21:49:00.899Z,,0,,,3092.933000000019,completion,,,,,false,,,,468134.299999997,468134,465024.4,465038.5,465041.067,468141.281,8,400,,,
trial,html.Screen,4_23_0,2023-09-12T21:49:03.618Z,,0,1,,2711.5189999970025,response,ISIC_4620425.JPG,10,ISIC_4564960.JPG,ISIC_4620425.JPG,false,1,keypress(m),500,470853,470852.799999997,468124.614,468134.39999999106,468141.281,470858.133,8,400,24,,ISIC_4564960.JPG
break,html.Screen,4_23_1,2023-09-12T21:49:03.619Z,,0,,,NaN,,,,,,false,,,,470854,470853.799999997,,470853.1999999881,,470858.133,8,400,,,
break_continue,html.Screen,4_23_2,2023-09-12T21:49:03.619Z,,0,,,NaN,,,,,,false,,,,470854.299999997,470854.299999997,,470854,,470858.133,8,400,,,
sequence,flow.Sequence,4_23,2023-09-12T21:49:03.620Z,,0,,,2713.0189999970025,completion,,,,,false,,,,470854.5,470854.299999997,468124.614,468134.39999999106,468141.281,470858.133,8,400,,,
trial,html.Screen,4_24_0,2023-09-12T21:49:06.842Z,,0,1,,3218.266999991087,response,ISIC_0010380.JPG,10,ISIC_0057067.JPG,ISIC_0010380.JPG,false,1,keypress(m),500,474076.6999999881,474076.39999999106,470841.466,470854.59999999404,470858.133,474091.711,8,400,25,,ISIC_0057067.JPG
break,html.Screen,4_24_1,2023-09-12T21:49:06.843Z,,0,,,NaN,,,,,,false,,,,474077.59999999404,474077.39999999106,,474076.89999999106,,474091.711,8,400,,,
break_continue,html.Screen,4_24_2,2023-09-12T21:49:06.843Z,,0,,,NaN,,,,,,false,,,,474077.89999999106,474077.799999997,,474077.6999999881,,474091.711,8,400,,,
sequence,flow.Sequence,4_24,2023-09-12T21:49:06.843Z,,0,,,3219.6669999970472,completion,,,,,false,,,,474078,474077.799999997,470841.466,470854.59999999404,470858.133,474091.711,8,400,,,
trial,html.Screen,4_25_0,2023-09-12T21:49:10.002Z,,0,1,,3144.8889999940293,response,ISIC_1057521.JPG,10,ISIC_0013565.JPG,ISIC_1057521.JPG,false,1,keypress(m),500,477237,477236.59999999404,474075.034,474078.1999999881,474091.711,477241.902,8,400,26,,ISIC_0013565.JPG
break,html.Screen,4_25_1,2023-09-12T21:49:10.003Z,,0,,,NaN,,,,,,false,,,,477237.799999997,477237.59999999404,,477237.1999999881,,477241.902,8,400,,,
break_continue,html.Screen,4_25_2,2023-09-12T21:49:10.003Z,,0,,,NaN,,,,,,false,,,,477238.1999999881,477238.09999999404,,477237.89999999106,,477241.902,8,400,,,
sequence,flow.Sequence,4_25,2023-09-12T21:49:10.003Z,,0,,,3146.3889999940293,completion,,,,,false,,,,477238.299999997,477238.09999999404,474075.034,474078.09999999404,474091.711,477241.902,8,400,,,
trial,html.Screen,4_26_0,2023-09-12T21:49:13.122Z,,0,1,,3114.597999999998,response,ISIC_0053554.JPG,10,ISIC_6148533.JPG,ISIC_6148533.JPG,false,0,keypress(z),500,480356.799999997,480356.5,477225.235,477238.5,477241.902,480358.797,8,400,27,,ISIC_0053554.JPG
break,html.Screen,4_26_1,2023-09-12T21:49:13.123Z,,0,,,NaN,,,,,,false,,,,480357.59999999404,480357.5,,480357,,480358.797,8,400,,,
break_continue,html.Screen,4_26_2,2023-09-12T21:49:13.123Z,,0,,,NaN,,,,,,false,,,,480358,480357.89999999106,,480357.799999997,,480358.797,8,400,,,
sequence,flow.Sequence,4_26,2023-09-12T21:49:13.123Z,,0,,,3115.9979999910574,completion,,,,,false,,,,480358.1999999881,480357.89999999106,477225.235,477238.39999999106,477241.902,480358.797,8,400,,,
trial,html.Screen,4_27_0,2023-09-12T21:49:15.930Z,,0,1,,2805.9029999880586,response,ISIC_0033653.JPG,10,ISIC_0011801.JPG,ISIC_0033653.JPG,false,1,keypress(m),500,483164.89999999106,483164.6999999881,480342.13,480358.299999997,480358.797,483175.683,8,400,28,,ISIC_0011801.JPG
break,html.Screen,4_27_1,2023-09-12T21:49:15.932Z,,0,,,NaN,,,,,,false,,,,483166.5,483166.299999997,,483165.799999997,,483175.683,8,400,,,
break_continue,html.Screen,4_27_2,2023-09-12T21:49:15.932Z,,0,,,NaN,,,,,,false,,,,483166.799999997,483166.6999999881,,483166.59999999404,,483175.683,8,400,,,
sequence,flow.Sequence,4_27,2023-09-12T21:49:15.932Z,,0,,,2807.9029999880586,completion,,,,,false,,,,483167,483166.6999999881,480342.13,480358.299999997,480358.797,483175.683,8,400,,,
trial,html.Screen,4_28_0,2023-09-12T21:49:20.258Z,,0,1,,4317.01699998806,response,ISIC_0963531.JPG,9,ISIC_0029453.JPG,ISIC_0963531.JPG,false,1,keypress(m),500,487493.09999999404,487492.6999999881,483158.985,483167.1999999881,483175.683,487509.313,8,400,29,,ISIC_0029453.JPG
break,html.Screen,4_28_1,2023-09-12T21:49:20.259Z,,0,,,NaN,,,,,,false,,,,487494.1999999881,487493.89999999106,,487493.299999997,,487509.313,8,400,,,
break_continue,html.Screen,4_28_2,2023-09-12T21:49:20.260Z,,0,,,NaN,,,,,,false,,,,487494.5,487494.299999997,,487494.299999997,,487509.313,8,400,,,
sequence,flow.Sequence,4_28,2023-09-12T21:49:20.260Z,,0,,,4318.616999997001,completion,,,,,false,,,,487494.59999999404,487494.299999997,483158.985,483167.09999999404,483175.683,487509.313,8,400,,,
trial,html.Screen,4_29_0,2023-09-12T21:49:25.490Z,,0,1,,5215.186999999976,response,ISIC_0010730.JPG,10,ISIC_3520591.JPG,ISIC_3520591.JPG,false,0,keypress(z),500,492724.89999999106,492724.5,487492.626,487494.89999999106,487509.313,492726.302,8,400,30,,ISIC_0010730.JPG
break,html.Screen,4_29_1,2023-09-12T21:49:25.491Z,,0,,,NaN,,,,,,false,,,,492725.6999999881,492725.59999999404,,492725,,492726.302,8,400,,,
break_continue,html.Screen,4_29_2,2023-09-12T21:49:25.491Z,,0,,,NaN,,,,,,false,,,,492726,492726,,492725.799999997,,492726.302,8,400,,,
sequence,flow.Sequence,4_29,2023-09-12T21:49:25.491Z,,0,,,5216.686999999976,completion,,,,,false,,,,492726.1999999881,492726,487492.626,487494.799999997,487509.313,492726.302,8,400,,,
trial,html.Screen,4_30_0,2023-09-12T21:49:31.962Z,,0,1,,6470.197999999975,response,ISIC_0059855.JPG,10,ISIC_1132966.JPG,ISIC_0059855.JPG,false,1,keypress(m),500,499196.799999997,499196.5,492709.635,492726.5,492726.302,499210.109,8,400,31,,ISIC_1132966.JPG
break,html.Screen,4_30_1,2023-09-12T21:49:31.963Z,,0,,,NaN,,,,,,false,,,,499197.6999999881,499197.5,,499197,,499210.109,8,400,,,
break_continue,html.Screen,4_30_2,2023-09-12T21:49:31.963Z,,0,,,NaN,,,,,,false,,,,499198.09999999404,499197.89999999106,,499197.799999997,,499210.109,8,400,,,
sequence,flow.Sequence,4_30,2023-09-12T21:49:31.963Z,,0,,,6471.597999991034,completion,,,,,false,,,,499198.1999999881,499197.89999999106,492709.635,492726.39999999106,492726.302,499210.109,8,400,,,
trial,html.Screen,4_31_0,2023-09-12T21:49:35.122Z,,0,1,,3146.490999994043,response,ISIC_0064534.JPG,10,ISIC_5238111.JPG,ISIC_5238111.JPG,false,0,keypress(z),500,502356.89999999106,502356.59999999404,499193.421,499198.299999997,499210.109,502360.303,8,400,32,,ISIC_0064534.JPG
break,html.Screen,4_31_1,2023-09-12T21:49:35.123Z,,0,,,NaN,,,,,,false,,,,502357.59999999404,502357.39999999106,,502357.09999999404,,502360.303,8,400,,,
break_continue,html.Screen,4_31_2,2023-09-12T21:49:35.123Z,,0,,,NaN,,,,,,false,,,,502357.89999999106,502357.799999997,,502357.6999999881,,502360.303,8,400,,,
sequence,flow.Sequence,4_31,2023-09-12T21:49:35.123Z,,0,,,3147.690999997023,completion,,,,,false,,,,502358,502357.799999997,499193.421,499198.299999997,499210.109,502360.303,8,400,,,
trial,html.Screen,4_32_0,2023-09-12T21:49:37.978Z,,0,1,,2852.1969999999856,response,ISIC_0026586.JPG,10,ISIC_3234816.JPG,ISIC_3234816.JPG,false,0,keypress(z),500,505213,505212.5,502343.636,502358.299999997,502360.303,505227.195,8,400,33,,ISIC_0026586.JPG
break,html.Screen,4_32_1,2023-09-12T21:49:37.979Z,,0,,,NaN,,,,,,false,,,,505213.799999997,505213.59999999404,,505213.1999999881,,505227.195,8,400,,,
break_continue,html.Screen,4_32_2,2023-09-12T21:49:37.979Z,,0,,,NaN,,,,,,false,,,,505214.1999999881,505214,,505213.89999999106,,505227.195,8,400,,,
sequence,flow.Sequence,4_32,2023-09-12T21:49:37.979Z,,0,,,2853.6969999999856,completion,,,,,false,,,,505214.39999999106,505214,502343.636,502358.299999997,502360.303,505227.195,8,400,,,
trial,html.Screen,4_33_0,2023-09-12T21:49:43.618Z,,0,1,,5625.404999994033,response,ISIC_0010046.JPG,10,ISIC_0062864.JPG,ISIC_0062864.JPG,false,0,keypress(z),500,510852.89999999106,510852.59999999404,505210.496,505214.39999999106,505227.195,510860.898,8,400,34,,ISIC_0010046.JPG
break,html.Screen,4_33_1,2023-09-12T21:49:43.619Z,,0,,,NaN,,,,,,false,,,,510853.6999999881,510853.59999999404,,510853.09999999404,,510860.898,8,400,,,
break_continue,html.Screen,4_33_2,2023-09-12T21:49:43.619Z,,0,,,NaN,,,,,,false,,,,510854.09999999404,510854,,510853.799999997,,510860.898,8,400,,,
sequence,flow.Sequence,4_33,2023-09-12T21:49:43.619Z,,0,,,5626.804999999993,completion,,,,,false,,,,510854.299999997,510854,505210.496,505214.39999999106,505227.195,510860.898,8,400,,,
trial,html.Screen,4_34_0,2023-09-12T21:49:46.770Z,,0,1,,3143.6020000000135,response,ISIC_0010523.JPG,10,ISIC_0025184.JPG,ISIC_0025184.JPG,false,0,keypress(z),500,514004.799999997,514004.5,510844.231,510854.39999999106,510860.898,514011.119,8,400,35,,ISIC_0010523.JPG
break,html.Screen,4_34_1,2023-09-12T21:49:46.771Z,,0,,,NaN,,,,,,false,,,,514005.59999999404,514005.39999999106,,514005,,514011.119,8,400,,,
break_continue,html.Screen,4_34_2,2023-09-12T21:49:46.771Z,,0,,,NaN,,,,,,false,,,,514006,514005.799999997,,514005.6999999881,,514011.119,8,400,,,
sequence,flow.Sequence,4_34,2023-09-12T21:49:46.771Z,,0,,,3144.9019999970333,completion,,,,,false,,,,514006.09999999404,514005.799999997,510844.231,510854.39999999106,510860.898,514011.119,8,400,,,
trial,html.Screen,4_35_0,2023-09-12T21:49:49.946Z,,0,1,,3169.4809999940335,response,ISIC_0011260.JPG,10,ISIC_3232329.JPG,ISIC_3232329.JPG,false,0,keypress(z),500,517180.89999999106,517180.59999999404,513994.452,514006.1999999881,514011.119,517194.683,8,400,36,,ISIC_0011260.JPG
break,html.Screen,4_35_1,2023-09-12T21:49:49.947Z,,0,,,NaN,,,,,,false,,,,517181.799999997,517181.59999999404,,517181.1999999881,,517194.683,8,400,,,
break_continue,html.Screen,4_35_2,2023-09-12T21:49:49.947Z,,0,,,NaN,,,,,,false,,,,517182.09999999404,517182,,517181.89999999106,,517194.683,8,400,,,
sequence,flow.Sequence,4_35,2023-09-12T21:49:49.947Z,,0,,,3170.880999999994,completion,,,,,false,,,,517182.299999997,517182,513994.452,514006.1999999881,514011.119,517194.683,8,400,,,
trial,html.Screen,4_36_0,2023-09-12T21:49:53.818Z,,0,1,,3857.816999999981,response,ISIC_9161341.JPG,9,ISIC_4519298.JPG,ISIC_4519298.JPG,false,0,keypress(z),500,521052.89999999106,521052.5,517178.002,517182.39999999106,517194.683,521061.584,8,400,37,,ISIC_9161341.JPG
break,html.Screen,4_36_1,2023-09-12T21:49:53.819Z,,0,,,NaN,,,,,,false,,,,521053.799999997,521053.5,,521053,,521061.584,8,400,,,
break_continue,html.Screen,4_36_2,2023-09-12T21:49:53.819Z,,0,,,NaN,,,,,,false,,,,521054.09999999404,521053.89999999106,,521053.89999999106,,521061.584,8,400,,,
sequence,flow.Sequence,4_36,2023-09-12T21:49:53.819Z,,0,,,3859.21699999104,completion,,,,,false,,,,521054.39999999106,521053.89999999106,517178.002,517182.39999999106,517194.683,521061.584,8,400,,,
trial,html.Screen,4_37_0,2023-09-12T21:49:56.650Z,,0,1,,2823.015999994066,response,ISIC_9933790.JPG,10,ISIC_0030034.JPG,ISIC_9933790.JPG,false,1,keypress(m),500,523884.89999999106,523884.59999999404,521044.917,521054.5,521061.584,523911.807,8,400,38,,ISIC_0030034.JPG
break,html.Screen,4_37_1,2023-09-12T21:49:56.651Z,,0,,,NaN,,,,,,false,,,,523885.799999997,523885.59999999404,,523885.09999999404,,523911.807,8,400,,,
break_continue,html.Screen,4_37_2,2023-09-12T21:49:56.651Z,,0,,,NaN,,,,,,false,,,,523886.09999999404,523885.89999999106,,523885.89999999106,,523911.807,8,400,,,
sequence,flow.Sequence,4_37,2023-09-12T21:49:56.651Z,,0,,,2824.315999991086,completion,,,,,false,,,,523886.1999999881,523885.89999999106,521044.917,521054.39999999106,521061.584,523911.807,8,400,,,
trial,html.Screen,4_38_0,2023-09-12T21:49:59.338Z,,0,1,,2660.8929999881075,response,ISIC_0031425.JPG,9,ISIC_4236274.JPG,ISIC_0031425.JPG,false,1,keypress(m),500,526572.8999999911,526572.6999999881,523895.126,523886.299999997,523911.807,526578.632,8,400,39,,ISIC_4236274.JPG
break,html.Screen,4_38_1,2023-09-12T21:49:59.339Z,,0,,,NaN,,,,,,false,,,,526573.8999999911,526573.6999999881,,526573.099999994,,526578.632,8,400,,,
break_continue,html.Screen,4_38_2,2023-09-12T21:49:59.339Z,,0,,,NaN,,,,,,false,,,,526574.299999997,526574.099999994,,526574,,526578.632,8,400,,,
sequence,flow.Sequence,4_38,2023-09-12T21:49:59.340Z,,0,,,2662.292999994068,completion,,,,,false,,,,526574.3999999911,526574.099999994,523895.126,523886.299999997,523911.807,526578.632,8,400,,,
trial,html.Screen,4_39_0,2023-09-12T21:50:02.290Z,,0,1,,2946.267999991076,response,ISIC_0033546.JPG,10,ISIC_5409902.JPG,ISIC_5409902.JPG,false,0,keypress(z),500,529525.099999994,529524.8999999911,526561.965,526574.599999994,526578.632,529528.864,8,400,40,,ISIC_0033546.JPG
break,html.Screen,4_39_1,2023-09-12T21:50:02.291Z,,0,,,NaN,,,,,,false,,,,529526,529525.8999999911,,529525.3999999911,,529528.864,8,400,,,
break_continue,html.Screen,4_39_2,2023-09-12T21:50:02.291Z,,0,,,NaN,,,,,,false,,,,529526.3999999911,529526.299999997,,529526.099999994,,529528.864,8,400,,,
sequence,flow.Sequence,4_39,2023-09-12T21:50:02.292Z,,0,,,2947.6679999970365,completion,,,,,false,,,,529526.5,529526.299999997,526561.965,526574.5,526578.632,529528.864,8,400,,,
trial,html.Screen,4_40_0,2023-09-12T21:50:13.779Z,,0,1,,11516.973000000115,timeout,ISIC_5396394.JPG,10,ISIC_0028718.JPG,,false,,,500,541013.8999999911,541013.599999994,529512.197,529526.599999994,529528.864,541045.837,8,400,41,,
break,html.Screen,4_40_1,2023-09-12T21:50:13.780Z,,0,,,NaN,,,,,,false,,,,541014.599999994,541014.5,,541014,,541045.837,8,400,,,
break_continue,html.Screen,4_40_2,2023-09-12T21:50:13.780Z,,0,,,NaN,,,,,,false,,,,541015,541014.8999999911,,541014.799999997,,541045.837,8,400,,,
sequence,flow.Sequence,4_40,2023-09-12T21:50:13.780Z,,0,,,11486.035999991116,completion,,,,,false,,,,541015.1999999881,541014.8999999911,529512.197,529526.599999994,529528.864,541045.837,8,400,,,
trial,html.Screen,4_41_0,2023-09-12T21:50:16.722Z,,0,1,,2910.6629999999423,response,ISIC_0025965.JPG,9,ISIC_0030193.JPG,ISIC_0025965.JPG,false,1,keypress(m),500,543956.8999999911,543956.5,541029.17,541015.299999997,541045.837,543963.165,8,400,42,,ISIC_0030193.JPG
break,html.Screen,4_41_1,2023-09-12T21:50:16.723Z,,0,,,NaN,,,,,,false,,,,543957.799999997,543957.6999999881,,543957,,543963.165,8,400,,,
break_continue,html.Screen,4_41_2,2023-09-12T21:50:16.723Z,,0,,,NaN,,,,,,false,,,,543958.1999999881,543958,,543957.8999999911,,543963.165,8,400,,,
sequence,flow.Sequence,4_41,2023-09-12T21:50:16.723Z,,0,,,2912.1629999999423,completion,,,,,false,,,,543958.3999999911,543958,541029.17,541015.299999997,541045.837,543963.165,8,400,,,
trial,html.Screen,4_42_0,2023-09-12T21:50:19.882Z,,0,1,,3153.6349999969825,response,ISIC_0000043.JPG,10,ISIC_0033250.JPG,ISIC_0033250.JPG,false,0,keypress(z),500,547117.099999994,547116.799999997,543946.498,543958.3999999911,543963.165,547130.081,8,400,43,,ISIC_0000043.JPG
break,html.Screen,4_42_1,2023-09-12T21:50:19.883Z,,0,,,NaN,,,,,,false,,,,547118.099999994,547117.8999999911,,547117.299999997,,547130.081,8,400,,,
break_continue,html.Screen,4_42_2,2023-09-12T21:50:19.884Z,,0,,,NaN,,,,,,false,,,,547118.5,547118.3999999911,,547118.1999999881,,547130.081,8,400,,,
sequence,flow.Sequence,4_42,2023-09-12T21:50:19.884Z,,0,,,3155.234999991022,completion,,,,,false,,,,547118.599999994,547118.3999999911,543946.498,543958.3999999911,543963.165,547130.081,8,400,,,
trial,html.Screen,4_43_0,2023-09-12T21:50:23.122Z,,0,1,,3226.518999994034,response,ISIC_4544879.JPG,10,ISIC_0071338.JPG,ISIC_4544879.JPG,false,1,keypress(m),500,550356.8999999911,550356.599999994,547113.39,547118.6999999881,547130.081,550363.621,8,400,44,,ISIC_0071338.JPG
break,html.Screen,4_43_1,2023-09-12T21:50:23.123Z,,0,,,NaN,,,,,,false,,,,550358.1999999881,550358,,550357.099999994,,550363.621,8,400,,,
break_continue,html.Screen,4_43_2,2023-09-12T21:50:23.124Z,,0,,,NaN,,,,,,false,,,,550358.5,550358.299999997,,550358.1999999881,,550363.621,8,400,,,
sequence,flow.Sequence,4_43,2023-09-12T21:50:23.124Z,,0,,,3228.218999997014,completion,,,,,false,,,,550358.599999994,550358.299999997,547113.39,547118.6999999881,547130.081,550363.621,8,400,,,
trial,html.Screen,4_44_0,2023-09-12T21:50:25.986Z,,0,1,,2857.0789999880362,response,ISIC_8068693.JPG,10,ISIC_4296456.JPG,ISIC_4296456.JPG,false,0,keypress(z),500,553220.8999999911,553220.6999999881,550346.954,550358.799999997,550363.621,553230.481,8,400,45,,ISIC_8068693.JPG
break,html.Screen,4_44_1,2023-09-12T21:50:25.987Z,,0,,,NaN,,,,,,false,,,,553221.6999999881,553221.5,,553221.099999994,,553230.481,8,400,,,
break_continue,html.Screen,4_44_2,2023-09-12T21:50:25.987Z,,0,,,NaN,,,,,,false,,,,553222,553221.8999999911,,553221.6999999881,,553230.481,8,400,,,
sequence,flow.Sequence,4_44,2023-09-12T21:50:25.987Z,,0,,,2858.2789999910165,completion,,,,,false,,,,553222.1999999881,553221.8999999911,550346.954,550358.6999999881,550363.621,553230.481,8,400,,,
trial,html.Screen,4_45_0,2023-09-12T21:50:28.602Z,,0,1,,2606.21899998805,response,ISIC_0060979.JPG,10,ISIC_0069193.JPG,ISIC_0060979.JPG,false,1,keypress(m),500,555837,555836.6999999881,553213.814,553222.299999997,553230.481,555847.33,8,400,46,,ISIC_0069193.JPG
break,html.Screen,4_45_1,2023-09-12T21:50:28.603Z,,0,,,NaN,,,,,,false,,,,555838.099999994,555838,,555837.1999999881,,555847.33,8,400,,,
break_continue,html.Screen,4_45_2,2023-09-12T21:50:28.604Z,,0,,,NaN,,,,,,false,,,,555838.5,555838.3999999911,,555838.299999997,,555847.33,8,400,,,
sequence,flow.Sequence,4_45,2023-09-12T21:50:28.604Z,,0,,,2607.9189999910304,completion,,,,,false,,,,555838.6999999881,555838.3999999911,553213.814,553222.299999997,553230.481,555847.33,8,400,,,
trial,html.Screen,4_46_0,2023-09-12T21:50:31.322Z,,0,1,,2709.369999988121,response,ISIC_0025814.JPG,10,ISIC_9142818.JPG,ISIC_9142818.JPG,false,0,keypress(z),500,558557,558556.6999999881,555830.663,555838.799999997,555847.33,558564.175,8,400,47,,ISIC_0025814.JPG
break,html.Screen,4_46_1,2023-09-12T21:50:31.324Z,,0,,,NaN,,,,,,false,,,,558558.6999999881,558557.6999999881,,558557.1999999881,,558564.175,8,400,,,
break_continue,html.Screen,4_46_2,2023-09-12T21:50:31.324Z,,0,,,NaN,,,,,,false,,,,558559.299999997,558559.099999994,,558558.8999999911,,558564.175,8,400,,,
sequence,flow.Sequence,4_46,2023-09-12T21:50:31.325Z,,0,,,2711.7699999940814,completion,,,,,false,,,,558559.3999999911,558559.099999994,555830.663,555838.6999999881,555847.33,558564.175,8,400,,,
trial,html.Screen,4_47_0,2023-09-12T21:50:34.026Z,,0,1,,2696.5249999880325,response,ISIC_0010611.JPG,9,ISIC_6127074.JPG,ISIC_0010611.JPG,false,1,keypress(m),500,561260.8999999911,561260.6999999881,558547.508,558559.599999994,558564.175,561264.353,8,400,48,,ISIC_6127074.JPG
break,html.Screen,4_47_1,2023-09-12T21:50:34.027Z,,0,,,NaN,,,,,,false,,,,561261.799999997,561261.6999999881,,561261.1999999881,,561264.353,8,400,,,
break_continue,html.Screen,4_47_2,2023-09-12T21:50:34.027Z,,0,,,NaN,,,,,,false,,,,561262.099999994,561262,,561262,,561264.353,8,400,,,
sequence,flow.Sequence,4_47,2023-09-12T21:50:34.027Z,,0,,,2697.8249999999534,completion,,,,,false,,,,561262.299999997,561262,558547.508,558559.5,558564.175,561264.353,8,400,,,
trial,html.Screen,4_48_0,2023-09-12T21:50:36.666Z,,0,1,,2636.3469999880763,response,ISIC_0033393.JPG,10,ISIC_9301809.JPG,ISIC_9301809.JPG,false,0,keypress(z),500,563901,563900.6999999881,561247.686,561262.5,561264.353,563914.549,8,400,49,,ISIC_0033393.JPG
break,html.Screen,4_48_1,2023-09-12T21:50:36.667Z,,0,,,NaN,,,,,,false,,,,563901.799999997,563901.599999994,,563901.1999999881,,563914.549,8,400,,,
break_continue,html.Screen,4_48_2,2023-09-12T21:50:36.667Z,,0,,,NaN,,,,,,false,,,,563902.099999994,563902,,563901.8999999911,,563914.549,8,400,,,
sequence,flow.Sequence,4_48,2023-09-12T21:50:36.667Z,,0,,,2637.646999999997,completion,,,,,false,,,,563902.299999997,563902,561247.686,561262.3999999911,561264.353,563914.549,8,400,,,
trial,html.Screen,4_49_0,2023-09-12T21:50:39.658Z,,0,1,,2978.2509999970207,response,ISIC_9261199.JPG,10,ISIC_9034574.JPG,ISIC_9261199.JPG,false,1,keypress(m),500,566893.099999994,566892.799999997,563897.882,563902.3999999911,563914.549,566898.084,8,400,50,,ISIC_9034574.JPG
break,html.Screen,4_49_1,2023-09-12T21:50:49.648Z,,0,,,10000.716999999946,timeout,,,,,false,,,,576883.099999994,576882.133,566881.417,566893.3999999911,566898.084,576898.801,8,400,,,
break_continue,html.Screen,4_49_2,2023-09-12T21:50:50.954Z,,0,,,1275.4989999970421,response,,,,,false,continue,keypress(Space),,578189,578174.299999997,576882.133,576883.299999997,576898.801,578198.814,8,400,,,
sequence,flow.Sequence,4_49,2023-09-12T21:50:50.954Z,,0,,,14259.75099999702,completion,,,,,false,,,,578189.1999999881,578174.299999997,563897.882,563902.3999999911,563914.549,578198.814,8,400,,,
trial,html.Screen,4_50_0,2023-09-12T21:50:56.346Z,,0,2,,5381.685999999987,response,ISIC_9564379.JPG,10,ISIC_4193253.JPG,ISIC_9564379.JPG,false,1,keypress(m),500,583580.799999997,583580.5,578182.147,578189.3999999911,578198.814,583582.559,8,400,1,,ISIC_4193253.JPG
break,html.Screen,4_50_1,2023-09-12T21:50:56.347Z,,0,,,NaN,,,,,,false,,,,583581.6999999881,583581.5,,583581,,583582.559,8,400,,,
break_continue,html.Screen,4_50_2,2023-09-12T21:50:56.347Z,,0,,,NaN,,,,,,false,,,,583582,583582,,583581.799999997,,583582.559,8,400,,,
sequence,flow.Sequence,4_50,2023-09-12T21:50:56.347Z,,0,,,5383.185999999987,completion,,,,,false,,,,583582.299999997,583582,578182.147,578189.299999997,578198.814,583582.559,8,400,,,
trial,html.Screen,4_51_0,2023-09-12T21:50:59.050Z,,0,2,,2702.4409999999916,response,ISIC_9720044.JPG,10,ISIC_6844752.JPG,ISIC_9720044.JPG,false,1,keypress(m),500,586285.299999997,586285,583565.892,583582.3999999911,583582.559,586299.437,8,400,2,,ISIC_6844752.JPG
break,html.Screen,4_51_1,2023-09-12T21:50:59.051Z,,0,,,NaN,,,,,,false,,,,586286.099999994,586286,,586285.5,,586299.437,8,400,,,
break_continue,html.Screen,4_51_2,2023-09-12T21:50:59.052Z,,0,,,NaN,,,,,,false,,,,586286.5,586286.3999999911,,586286.299999997,,586299.437,8,400,,,
sequence,flow.Sequence,4_51,2023-09-12T21:50:59.052Z,,0,,,2703.840999991051,completion,,,,,false,,,,586286.599999994,586286.3999999911,583565.892,583582.3999999911,583582.559,586299.437,8,400,,,
trial,html.Screen,4_52_0,2023-09-12T21:51:01.538Z,,0,2,,2473.162999994005,response,ISIC_2299862.JPG,9,ISIC_8199467.JPG,ISIC_2299862.JPG,false,1,keypress(m),500,588772.799999997,588772.599999994,586282.747,586286.799999997,586299.437,588782.92,8,400,3,,ISIC_8199467.JPG
break,html.Screen,4_52_1,2023-09-12T21:51:01.539Z,,0,,,NaN,,,,,,false,,,,588773.799999997,588773.6999999881,,588773.099999994,,588782.92,8,400,,,
break_continue,html.Screen,4_52_2,2023-09-12T21:51:01.539Z,,0,,,NaN,,,,,,false,,,,588774.1999999881,588774,,588773.8999999911,,588782.92,8,400,,,
sequence,flow.Sequence,4_52,2023-09-12T21:51:01.539Z,,0,,,2474.5629999999655,completion,,,,,false,,,,588774.299999997,588774,586282.747,586286.6999999881,586299.437,588782.92,8,400,,,
trial,html.Screen,4_53_0,2023-09-12T21:51:04.250Z,,0,2,,2701.779999988037,response,ISIC_1611503.JPG,9,ISIC_8181142.JPG,ISIC_8181142.JPG,false,0,keypress(z),500,591485.1999999881,591484.6999999881,588766.253,588774.5,588782.92,591499.807,8,400,4,,ISIC_1611503.JPG
break,html.Screen,4_53_1,2023-09-12T21:51:04.252Z,,0,,,NaN,,,,,,false,,,,591487.1999999881,591487,,591486.599999994,,591499.807,8,400,,,
break_continue,html.Screen,4_53_2,2023-09-12T21:51:04.253Z,,0,,,NaN,,,,,,false,,,,591487.6999999881,591487.5,,591487.3999999911,,591499.807,8,400,,,
sequence,flow.Sequence,4_53,2023-09-12T21:51:04.253Z,,0,,,2704.579999999958,completion,,,,,false,,,,591487.799999997,591487.5,588766.253,588774.3999999911,588782.92,591499.807,8,400,,,
trial,html.Screen,4_54_0,2023-09-12T21:51:06.898Z,,0,2,,2632.7929999940097,response,ISIC_0027627.JPG,8,ISIC_0026264.JPG,ISIC_0027627.JPG,false,1,keypress(m),500,594132.799999997,594132.599999994,591483.109,591488,591499.807,594149.987,8,400,5,,ISIC_0026264.JPG
break,html.Screen,4_54_1,2023-09-12T21:51:06.899Z,,0,,,NaN,,,,,,false,,,,594133.6999999881,594133.5,,594133,,594149.987,8,400,,,
break_continue,html.Screen,4_54_2,2023-09-12T21:51:06.899Z,,0,,,NaN,,,,,,false,,,,594134,594133.8999999911,,594133.799999997,,594149.987,8,400,,,
sequence,flow.Sequence,4_54,2023-09-12T21:51:06.899Z,,0,,,2634.0929999910295,completion,,,,,false,,,,594134.299999997,594133.8999999911,591483.109,591487.8999999911,591499.807,594149.987,8,400,,,
trial,html.Screen,4_55_0,2023-09-12T21:51:09.746Z,,0,2,,2830.5130000000354,response,ISIC_0000541.JPG,10,ISIC_1050000.JPG,ISIC_1050000.JPG,false,0,keypress(z),500,596980.8999999911,596980.5,594133.286,594134.3999999911,594149.987,596983.487,8,400,6,,ISIC_0000541.JPG
break,html.Screen,4_55_1,2023-09-12T21:51:09.747Z,,0,,,NaN,,,,,,false,,,,596981.6999999881,596981.5,,596981,,596983.487,8,400,,,
break_continue,html.Screen,4_55_2,2023-09-12T21:51:09.747Z,,0,,,NaN,,,,,,false,,,,596982,596982,,596981.799999997,,596983.487,8,400,,,
sequence,flow.Sequence,4_55,2023-09-12T21:51:09.747Z,,0,,,2832.0130000000354,completion,,,,,false,,,,596982.299999997,596982,594133.286,594134.299999997,594149.987,596983.487,8,400,,,
trial,html.Screen,4_56_0,2023-09-12T21:51:12.330Z,,0,2,,2581.0130000000354,response,ISIC_8257549.JPG,10,ISIC_6948604.JPG,ISIC_8257549.JPG,false,1,keypress(m),500,599564.799999997,599564.5,596966.82,596982.3999999911,596983.487,599566.994,8,400,7,,ISIC_6948604.JPG
break,html.Screen,4_56_1,2023-09-12T21:51:12.331Z,,0,,,NaN,,,,,,false,,,,599565.599999994,599565.3999999911,,599565.099999994,,599566.994,8,400,,,
break_continue,html.Screen,4_56_2,2023-09-12T21:51:12.331Z,,0,,,NaN,,,,,,false,,,,599566,599565.8999999911,,599565.799999997,,599566.994,8,400,,,
sequence,flow.Sequence,4_56,2023-09-12T21:51:12.331Z,,0,,,2582.4129999910947,completion,,,,,false,,,,599566.1999999881,599565.8999999911,596966.82,596982.3999999911,596983.487,599566.994,8,400,,,
trial,html.Screen,4_57_0,2023-09-12T21:51:15.450Z,,0,2,,3117.4059999911115,response,ISIC_4425657.JPG,10,ISIC_0032861.JPG,ISIC_4425657.JPG,false,1,keypress(m),500,602684.6999999881,602684.3999999911,599550.327,599566.299999997,599566.994,602700.567,8,400,8,,ISIC_0032861.JPG
break,html.Screen,4_57_1,2023-09-12T21:51:15.451Z,,0,,,NaN,,,,,,false,,,,602685.5,602685.3999999911,,602684.799999997,,602700.567,8,400,,,
break_continue,html.Screen,4_57_2,2023-09-12T21:51:15.451Z,,0,,,NaN,,,,,,false,,,,602685.8999999911,602685.6999999881,,602685.599999994,,602700.567,8,400,,,
sequence,flow.Sequence,4_57,2023-09-12T21:51:15.451Z,,0,,,3118.705999988131,completion,,,,,false,,,,602686,602685.6999999881,599550.327,599566.299999997,599566.994,602700.567,8,400,,,
trial,html.Screen,4_58_0,2023-09-12T21:51:18.058Z,,0,2,,2592.2329999969807,response,ISIC_0000287.JPG,10,ISIC_0030300.JPG,ISIC_0030300.JPG,false,0,keypress(z),500,605293.099999994,605292.799999997,602683.885,602686.1999999881,602700.567,605300.725,8,400,9,,ISIC_0000287.JPG
break,html.Screen,4_58_1,2023-09-12T21:51:18.059Z,,0,,,NaN,,,,,,false,,,,605294,605293.8999999911,,605293.299999997,,605300.725,8,400,,,
break_continue,html.Screen,4_58_2,2023-09-12T21:51:18.060Z,,0,,,NaN,,,,,,false,,,,605294.3999999911,605294.299999997,,605294.099999994,,605300.725,8,400,,,
sequence,flow.Sequence,4_58,2023-09-12T21:51:18.060Z,,0,,,2593.7329999969807,completion,,,,,false,,,,605294.599999994,605294.299999997,602683.885,602686.099999994,602700.567,605300.725,8,400,,,
trial,html.Screen,4_59_0,2023-09-12T21:51:20.842Z,,0,2,,2775.9749999881024,response,ISIC_0012260.JPG,10,ISIC_0026910.JPG,ISIC_0012260.JPG,false,1,keypress(m),500,608077,608076.6999999881,605284.058,605294.6999999881,605300.725,608084.244,8,400,10,,ISIC_0026910.JPG
break,html.Screen,4_59_1,2023-09-12T21:51:20.843Z,,0,,,NaN,,,,,,false,,,,608077.799999997,608077.599999994,,608077.299999997,,608084.244,8,400,,,
break_continue,html.Screen,4_59_2,2023-09-12T21:51:20.843Z,,0,,,NaN,,,,,,false,,,,608078.1999999881,608078,,608078,,608084.244,8,400,,,
sequence,flow.Sequence,4_59,2023-09-12T21:51:20.844Z,,0,,,2777.2750000000233,completion,,,,,false,,,,608078.3999999911,608078,605284.058,605294.6999999881,605300.725,608084.244,8,400,,,
trial,html.Screen,4_60_0,2023-09-12T21:51:23.418Z,,0,2,,2568.256000000052,response,ISIC_0046664.JPG,10,ISIC_0030342.JPG,ISIC_0030342.JPG,false,0,keypress(z),500,610652.799999997,610652.5,608067.577,608078.599999994,608084.244,610667.786,8,400,11,,ISIC_0046664.JPG
break,html.Screen,4_60_1,2023-09-12T21:51:23.419Z,,0,,,NaN,,,,,,false,,,,610653.8999999911,610653.6999999881,,610653,,610667.786,8,400,,,
break_continue,html.Screen,4_60_2,2023-09-12T21:51:23.419Z,,0,,,NaN,,,,,,false,,,,610654.1999999881,610654.099999994,,610654,,610667.786,8,400,,,
sequence,flow.Sequence,4_60,2023-09-12T21:51:23.419Z,,0,,,2569.8559999940917,completion,,,,,false,,,,610654.3999999911,610654.099999994,608067.577,608078.5,608084.244,610667.786,8,400,,,
trial,html.Screen,4_61_0,2023-09-12T21:51:25.986Z,,0,2,,2552.9139999881154,response,ISIC_4153234.JPG,10,ISIC_3578186.JPG,ISIC_4153234.JPG,false,1,keypress(m),500,613221,613220.6999999881,610651.102,610654.5,610667.786,613234.632,8,400,12,,ISIC_3578186.JPG
break,html.Screen,4_61_1,2023-09-12T21:51:25.987Z,,0,,,NaN,,,,,,false,,,,613221.8999999911,613221.6999999881,,613221.1999999881,,613234.632,8,400,,,
break_continue,html.Screen,4_61_2,2023-09-12T21:51:25.987Z,,0,,,NaN,,,,,,false,,,,613222.099999994,613222,,613221.8999999911,,613234.632,8,400,,,
sequence,flow.Sequence,4_61,2023-09-12T21:51:25.987Z,,0,,,2554.2140000000363,completion,,,,,false,,,,613222.3999999911,613222,610651.102,610654.5,610667.786,613234.632,8,400,,,
trial,html.Screen,4_62_0,2023-09-12T21:51:28.266Z,,0,2,,2266.067999988096,response,ISIC_0030481.JPG,10,ISIC_9747194.JPG,ISIC_9747194.JPG,false,0,keypress(z),500,615501,615500.6999999881,613217.939,613222.5,613234.632,615518.115,8,400,13,,ISIC_0030481.JPG
break,html.Screen,4_62_1,2023-09-12T21:51:28.267Z,,0,,,NaN,,,,,,false,,,,615501.8999999911,615501.599999994,,615501.299999997,,615518.115,8,400,,,
break_continue,html.Screen,4_62_2,2023-09-12T21:51:28.267Z,,0,,,NaN,,,,,,false,,,,615502.1999999881,615502.099999994,,615502,,615518.115,8,400,,,
sequence,flow.Sequence,4_62,2023-09-12T21:51:28.268Z,,0,,,2267.4679999940563,completion,,,,,false,,,,615502.3999999911,615502.099999994,613217.939,613222.5,613234.632,615518.115,8,400,,,
trial,html.Screen,4_63_0,2023-09-12T21:51:30.785Z,,0,2,,2501.2849999910686,response,ISIC_0066637.JPG,10,ISIC_2208006.JPG,ISIC_0066637.JPG,false,1,keypress(m),500,618019.799999997,618019.3999999911,615501.43,615502.5,615518.115,618051.626,8,400,14,,ISIC_2208006.JPG
break,html.Screen,4_63_1,2023-09-12T21:51:30.786Z,,0,,,NaN,,,,,,false,,,,618020.5,618020.299999997,,618020,,618051.626,8,400,,,
break_continue,html.Screen,4_63_2,2023-09-12T21:51:30.786Z,,0,,,NaN,,,,,,false,,,,618020.8999999911,618020.6999999881,,618020.599999994,,618051.626,8,400,,,
sequence,flow.Sequence,4_63,2023-09-12T21:51:30.786Z,,0,,,2502.5849999880884,completion,,,,,false,,,,618021,618020.6999999881,615501.43,615502.5,615518.115,618051.626,8,400,,,
trial,html.Screen,4_64_0,2023-09-12T21:51:33.319Z,,0,2,,2501.6739999969723,response,ISIC_7980387.JPG,11,ISIC_0594534.JPG,ISIC_0594534.JPG,false,0,keypress(z),500,620553.599999994,620553.299999997,618034.943,618021.099999994,618051.626,620585.128,8,400,15,,ISIC_7980387.JPG
break,html.Screen,4_64_1,2023-09-12T21:51:33.319Z,,0,,,NaN,,,,,,false,,,,620554.299999997,620554.099999994,,620553.799999997,,620585.128,8,400,,,
break_continue,html.Screen,4_64_2,2023-09-12T21:51:33.320Z,,0,,,NaN,,,,,,false,,,,620554.599999994,620554.5,,620554.3999999911,,620585.128,8,400,,,
sequence,flow.Sequence,4_64,2023-09-12T21:51:33.320Z,,0,,,2502.8739999999525,completion,,,,,false,,,,620554.799999997,620554.5,618034.943,618021.099999994,618051.626,620585.128,8,400,,,
trial,html.Screen,4_65_0,2023-09-12T21:51:35.898Z,,0,2,,2547.571999988053,response,ISIC_0033662.JPG,5,ISIC_0000030.JPG,ISIC_0033662.JPG,false,1,keypress(m),500,623132.8999999911,623132.6999999881,620568.448,620554.799999997,620585.128,623151.982,8,400,16,,ISIC_0000030.JPG
break,html.Screen,4_65_1,2023-09-12T21:51:35.899Z,,0,,,NaN,,,,,,false,,,,623133.799999997,623133.6999999881,,623133.299999997,,623151.982,8,400,,,
break_continue,html.Screen,4_65_2,2023-09-12T21:51:35.899Z,,0,,,NaN,,,,,,false,,,,623134.099999994,623134,,623133.8999999911,,623151.982,8,400,,,
sequence,flow.Sequence,4_65,2023-09-12T21:51:35.899Z,,0,,,2548.871999999974,completion,,,,,false,,,,623134.299999997,623134,620568.448,620554.799999997,620585.128,623151.982,8,400,,,
trial,html.Screen,4_66_0,2023-09-12T21:51:39.322Z,,0,2,,3404.717999988119,response,ISIC_7811951.JPG,10,ISIC_2616327.JPG,ISIC_2616327.JPG,false,0,keypress(z),500,626557,626556.6999999881,623135.28,623134.3999999911,623151.982,626568.886,8,400,17,,ISIC_7811951.JPG
break,html.Screen,4_66_1,2023-09-12T21:51:39.323Z,,0,,,NaN,,,,,,false,,,,626557.8999999911,626557.6999999881,,626557.1999999881,,626568.886,8,400,,,
break_continue,html.Screen,4_66_2,2023-09-12T21:51:39.323Z,,0,,,NaN,,,,,,false,,,,626558.1999999881,626558.099999994,,626558,,626568.886,8,400,,,
sequence,flow.Sequence,4_66,2023-09-12T21:51:39.324Z,,0,,,3406.1179999940796,completion,,,,,false,,,,626558.3999999911,626558.099999994,623135.28,623134.3999999911,623151.982,626568.886,8,400,,,
trial,html.Screen,4_67_0,2023-09-12T21:51:41.898Z,,0,2,,2563.613999999943,response,ISIC_0031965.JPG,10,ISIC_2349743.JPG,ISIC_2349743.JPG,false,0,keypress(z),500,629132.799999997,629132.5,626552.181,626558.5,626568.886,629135.692,8,400,18,,ISIC_0031965.JPG
break,html.Screen,4_67_1,2023-09-12T21:51:41.899Z,,0,,,NaN,,,,,,false,,,,629133.599999994,629133.3999999911,,629133,,629135.692,8,400,,,
break_continue,html.Screen,4_67_2,2023-09-12T21:51:41.899Z,,0,,,NaN,,,,,,false,,,,629133.8999999911,629133.799999997,,629133.6999999881,,629135.692,8,400,,,
sequence,flow.Sequence,4_67,2023-09-12T21:51:41.899Z,,0,,,2564.913999996963,completion,,,,,false,,,,629134.099999994,629133.799999997,626552.181,626558.5,626568.886,629135.692,8,400,,,
trial,html.Screen,4_68_0,2023-09-12T21:51:44.234Z,,0,2,,2332.807999999961,response,ISIC_0028131.JPG,10,ISIC_0054357.JPG,ISIC_0028131.JPG,false,1,keypress(m),500,631468.799999997,631468.5,629119.025,629134.1999999881,629135.692,631485.887,8,400,19,,ISIC_0054357.JPG
break,html.Screen,4_68_1,2023-09-12T21:51:44.235Z,,0,,,NaN,,,,,,false,,,,631469.6999999881,631469.5,,631469,,631485.887,8,400,,,
break_continue,html.Screen,4_68_2,2023-09-12T21:51:44.235Z,,0,,,NaN,,,,,,false,,,,631470,631469.8999999911,,631469.799999997,,631485.887,8,400,,,
sequence,flow.Sequence,4_68,2023-09-12T21:51:44.235Z,,0,,,2334.20799999102,completion,,,,,false,,,,631470.1999999881,631469.8999999911,629119.025,629134.1999999881,629135.692,631485.887,8,400,,,
trial,html.Screen,4_69_0,2023-09-12T21:51:46.706Z,,0,2,,2454.7129999940516,response,ISIC_0071783.JPG,10,ISIC_0071289.JPG,ISIC_0071289.JPG,false,0,keypress(z),500,633940.8999999911,633940.599999994,631469.192,631470.299999997,631485.887,633952.723,8,400,20,,ISIC_0071783.JPG
break,html.Screen,4_69_1,2023-09-12T21:51:46.707Z,,0,,,NaN,,,,,,false,,,,633941.8999999911,633941.6999999881,,633941.099999994,,633952.723,8,400,,,
break_continue,html.Screen,4_69_2,2023-09-12T21:51:46.707Z,,0,,,NaN,,,,,,false,,,,633942.1999999881,633942.099999994,,633942,,633952.723,8,400,,,
sequence,flow.Sequence,4_69,2023-09-12T21:51:46.708Z,,0,,,2456.2129999940516,completion,,,,,false,,,,633942.3999999911,633942.099999994,631469.192,631470.299999997,631485.887,633952.723,8,400,,,
trial,html.Screen,4_70_0,2023-09-12T21:51:48.994Z,,0,2,,2275.976999988081,response,ISIC_1352841.JPG,9,ISIC_3374533.JPG,ISIC_1352841.JPG,false,1,keypress(m),500,636228.8999999911,636228.6999999881,633936.021,633942.5,633952.723,636236.195,8,400,21,,ISIC_3374533.JPG
break,html.Screen,4_70_1,2023-09-12T21:51:48.995Z,,0,,,NaN,,,,,,false,,,,636229.799999997,636229.599999994,,636229.1999999881,,636236.195,8,400,,,
break_continue,html.Screen,4_70_2,2023-09-12T21:51:48.995Z,,0,,,NaN,,,,,,false,,,,636230.099999994,636230,,636229.8999999911,,636236.195,8,400,,,
sequence,flow.Sequence,4_70,2023-09-12T21:51:48.995Z,,0,,,2277.277000000002,completion,,,,,false,,,,636230.299999997,636230,633936.021,633942.5,633952.723,636236.195,8,400,,,
trial,html.Screen,4_71_0,2023-09-12T21:51:51.538Z,,0,2,,2536.4049999940908,response,ISIC_2006783.JPG,10,ISIC_3571523.JPG,ISIC_2006783.JPG,false,1,keypress(m),500,638772.8999999911,638772.599999994,636219.528,636230.5,636236.195,638786.39,8,400,22,,ISIC_3571523.JPG
break,html.Screen,4_71_1,2023-09-12T21:51:51.539Z,,0,,,NaN,,,,,,false,,,,638773.799999997,638773.599999994,,638773.099999994,,638786.39,8,400,,,
break_continue,html.Screen,4_71_2,2023-09-12T21:51:51.539Z,,0,,,NaN,,,,,,false,,,,638774.099999994,638774,,638773.8999999911,,638786.39,8,400,,,
sequence,flow.Sequence,4_71,2023-09-12T21:51:51.539Z,,0,,,2537.805000000051,completion,,,,,false,,,,638774.1999999881,638774,636219.528,636230.3999999911,636236.195,638786.39,8,400,,,
trial,html.Screen,4_72_0,2023-09-12T21:51:53.858Z,,0,2,,2306.309999988065,response,ISIC_0439726.JPG,10,ISIC_0069995.JPG,ISIC_0069995.JPG,false,0,keypress(z),500,641093,641092.6999999881,638769.706,638774.3999999911,638786.39,641103.195,8,400,23,,ISIC_0439726.JPG
break,html.Screen,4_72_1,2023-09-12T21:51:53.859Z,,0,,,NaN,,,,,,false,,,,641093.799999997,641093.6999999881,,641093.1999999881,,641103.195,8,400,,,
break_continue,html.Screen,4_72_2,2023-09-12T21:51:53.859Z,,0,,,NaN,,,,,,false,,,,641094.1999999881,641094.099999994,,641094,,641103.195,8,400,,,
sequence,flow.Sequence,4_72,2023-09-12T21:51:53.859Z,,0,,,2307.7099999940256,completion,,,,,false,,,,641094.299999997,641094.099999994,638769.706,638774.3999999911,638786.39,641103.195,8,400,,,
trial,html.Screen,4_73_0,2023-09-12T21:51:56.106Z,,0,2,,2237.305000000051,response,ISIC_0013707.JPG,10,ISIC_0033636.JPG,ISIC_0013707.JPG,false,1,keypress(m),500,643340.8999999911,643340.5,641086.528,641094.3999999911,641103.195,643353.363,8,400,24,,ISIC_0033636.JPG
break,html.Screen,4_73_1,2023-09-12T21:51:56.107Z,,0,,,NaN,,,,,,false,,,,643341.799999997,643341.599999994,,643341,,643353.363,8,400,,,
break_continue,html.Screen,4_73_2,2023-09-12T21:51:56.107Z,,0,,,NaN,,,,,,false,,,,643342.1999999881,643342,,643341.8999999911,,643353.363,8,400,,,
sequence,flow.Sequence,4_73,2023-09-12T21:51:56.108Z,,0,,,2238.805000000051,completion,,,,,false,,,,643342.3999999911,643342,641086.528,641094.3999999911,641103.195,643353.363,8,400,,,
trial,html.Screen,4_74_0,2023-09-12T21:51:59.098Z,,0,2,,2978.9369999970077,response,ISIC_9716860.JPG,10,ISIC_0610477.JPG,ISIC_0610477.JPG,false,0,keypress(z),500,646332.6999999881,646332.299999997,643336.669,643342.5,643353.363,646336.88,8,400,25,,ISIC_9716860.JPG
break,html.Screen,4_74_1,2023-09-12T21:51:59.099Z,,0,,,NaN,,,,,,false,,,,646333.599999994,646333.299999997,,646332.799999997,,646336.88,8,400,,,
break_continue,html.Screen,4_74_2,2023-09-12T21:51:59.099Z,,0,,,NaN,,,,,,false,,,,646333.8999999911,646333.799999997,,646333.6999999881,,646336.88,8,400,,,
sequence,flow.Sequence,4_74,2023-09-12T21:51:59.099Z,,0,,,2980.4369999970077,completion,,,,,false,,,,646334.099999994,646333.799999997,643336.669,643342.5,643353.363,646336.88,8,400,,,
trial,html.Screen,4_75_0,2023-09-12T21:52:02.074Z,,0,2,,2971.8199999880744,response,ISIC_1988080.JPG,10,ISIC_7039203.JPG,ISIC_7039203.JPG,false,0,keypress(z),500,649309.1999999881,649308.6999999881,646320.213,646334.299999997,646336.88,649320.436,8,400,26,,ISIC_1988080.JPG
break,html.Screen,4_75_1,2023-09-12T21:52:02.075Z,,0,,,NaN,,,,,,false,,,,649310,649309.799999997,,649309.299999997,,649320.436,8,400,,,
break_continue,html.Screen,4_75_2,2023-09-12T21:52:02.076Z,,0,,,NaN,,,,,,false,,,,649310.3999999911,649310.299999997,,649310.099999994,,649320.436,8,400,,,
sequence,flow.Sequence,4_75,2023-09-12T21:52:02.076Z,,0,,,2973.419999997015,completion,,,,,false,,,,649310.5,649310.299999997,646320.213,646334.1999999881,646336.88,649320.436,8,400,,,
trial,html.Screen,4_76_0,2023-09-12T21:52:10.194Z,,0,2,,8108.363999997033,response,ISIC_0026756.JPG,10,ISIC_9385996.JPG,ISIC_0026756.JPG,false,1,keypress(m),500,657429.099999994,657428.799999997,649303.769,649310.6999999881,649320.436,657437.648,8,400,27,,ISIC_9385996.JPG
break,html.Screen,4_76_1,2023-09-12T21:52:10.195Z,,0,,,NaN,,,,,,false,,,,657429.8999999911,657429.6999999881,,657429.299999997,,657437.648,8,400,,,
break_continue,html.Screen,4_76_2,2023-09-12T21:52:10.195Z,,0,,,NaN,,,,,,false,,,,657430.1999999881,657430.099999994,,657430,,657437.648,8,400,,,
sequence,flow.Sequence,4_76,2023-09-12T21:52:10.196Z,,0,,,8109.663999994053,completion,,,,,false,,,,657430.3999999911,657430.099999994,649303.769,649310.599999994,649320.436,657437.648,8,400,,,
trial,html.Screen,4_77_0,2023-09-12T21:52:13.090Z,,0,2,,2886.8519999999553,response,ISIC_7378303.JPG,10,ISIC_9799596.JPG,ISIC_7378303.JPG,false,1,keypress(m),500,660324.799999997,660324.5,657420.981,657430.5,657437.648,660337.87,8,400,28,,ISIC_9799596.JPG
break,html.Screen,4_77_1,2023-09-12T21:52:13.091Z,,0,,,NaN,,,,,,false,,,,660325.6999999881,660325.5,,660325,,660337.87,8,400,,,
break_continue,html.Screen,4_77_2,2023-09-12T21:52:13.091Z,,0,,,NaN,,,,,,false,,,,660325.8999999911,660325.8999999911,,660325.6999999881,,660337.87,8,400,,,
sequence,flow.Sequence,4_77,2023-09-12T21:52:13.091Z,,0,,,2888.2519999910146,completion,,,,,false,,,,660326.099999994,660325.8999999911,657420.981,657430.5,657437.648,660337.87,8,400,,,
trial,html.Screen,4_78_0,2023-09-12T21:52:16.186Z,,0,2,,3083.1300000000047,response,ISIC_0024987.JPG,10,ISIC_1919324.JPG,ISIC_1919324.JPG,false,0,keypress(z),500,663421.299999997,663421,660321.174,660326.299999997,660337.87,663438.091,8,400,29,,ISIC_0024987.JPG
break,html.Screen,4_78_1,2023-09-12T21:52:16.187Z,,0,,,NaN,,,,,,false,,,,663422.099999994,663421.8999999911,,663421.3999999911,,663438.091,8,400,,,
break_continue,html.Screen,4_78_2,2023-09-12T21:52:16.188Z,,0,,,NaN,,,,,,false,,,,663422.5,663422.3999999911,,663422.299999997,,663438.091,8,400,,,
sequence,flow.Sequence,4_78,2023-09-12T21:52:16.188Z,,0,,,3084.529999991064,completion,,,,,false,,,,663422.6999999881,663422.3999999911,660321.174,660326.1999999881,660337.87,663438.091,8,400,,,
trial,html.Screen,4_79_0,2023-09-12T21:52:18.794Z,,0,2,,2590.5089999940246,response,ISIC_0046977.JPG,10,ISIC_4187485.JPG,ISIC_0046977.JPG,false,1,keypress(m),500,666029,666028.599999994,663421.389,663422.799999997,663438.091,666038.234,8,400,30,,ISIC_4187485.JPG
break,html.Screen,4_79_1,2023-09-12T21:52:18.795Z,,0,,,NaN,,,,,,false,,,,666029.6999999881,666029.5,,666029.099999994,,666038.234,8,400,,,
break_continue,html.Screen,4_79_2,2023-09-12T21:52:18.795Z,,0,,,NaN,,,,,,false,,,,666030.099999994,666030,,666029.799999997,,666038.234,8,400,,,
sequence,flow.Sequence,4_79,2023-09-12T21:52:18.795Z,,0,,,2591.908999999985,completion,,,,,false,,,,666030.299999997,666030,663421.389,663422.799999997,663438.091,666038.234,8,400,,,
trial,html.Screen,4_80_0,2023-09-12T21:52:21.522Z,,0,2,,2718.565999996965,response,ISIC_8687105.JPG,10,ISIC_3376976.JPG,ISIC_3376976.JPG,false,0,keypress(z),500,668757.099999994,668756.799999997,666021.567,666030.3999999911,666038.234,668771.776,8,400,31,,ISIC_8687105.JPG
break,html.Screen,4_80_1,2023-09-12T21:52:21.523Z,,0,,,NaN,,,,,,false,,,,668757.8999999911,668757.6999999881,,668757.299999997,,668771.776,8,400,,,
break_continue,html.Screen,4_80_2,2023-09-12T21:52:21.523Z,,0,,,NaN,,,,,,false,,,,668758.1999999881,668758.099999994,,668758,,668771.776,8,400,,,
sequence,flow.Sequence,4_80,2023-09-12T21:52:21.523Z,,0,,,2719.8659999939846,completion,,,,,false,,,,668758.299999997,668758.099999994,666021.567,666030.299999997,666038.234,668771.776,8,400,,,
trial,html.Screen,4_81_0,2023-09-12T21:52:24.410Z,,0,2,,2872.9239999881247,response,ISIC_4168757.JPG,9,ISIC_6916924.JPG,ISIC_6916924.JPG,false,0,keypress(z),500,671645,671644.6999999881,668755.087,668758.5,668771.776,671655.296,8,400,32,,ISIC_4168757.JPG
break,html.Screen,4_81_1,2023-09-12T21:52:24.411Z,,0,,,NaN,,,,,,false,,,,671645.799999997,671645.6999999881,,671645.1999999881,,671655.296,8,400,,,
break_continue,html.Screen,4_81_2,2023-09-12T21:52:24.411Z,,0,,,NaN,,,,,,false,,,,671646.1999999881,671646,,671646,,671655.296,8,400,,,
sequence,flow.Sequence,4_81,2023-09-12T21:52:24.412Z,,0,,,2874.2240000000456,completion,,,,,false,,,,671646.5,671646,668755.087,668758.3999999911,668771.776,671655.296,8,400,,,
trial,html.Screen,4_82_0,2023-09-12T21:52:27.898Z,,0,2,,3477.204000000027,response,ISIC_5443837.JPG,10,ISIC_0010767.JPG,ISIC_5443837.JPG,false,1,keypress(m),500,675132.799999997,675132.5,671638.629,671646.599999994,671655.296,675138.865,8,400,33,,ISIC_0010767.JPG
break,html.Screen,4_82_1,2023-09-12T21:52:27.899Z,,0,,,NaN,,,,,,false,,,,675133.599999994,675133.3999999911,,675133,,675138.865,8,400,,,
break_continue,html.Screen,4_82_2,2023-09-12T21:52:27.899Z,,0,,,NaN,,,,,,false,,,,675133.8999999911,675133.799999997,,675133.6999999881,,675138.865,8,400,,,
sequence,flow.Sequence,4_82,2023-09-12T21:52:27.899Z,,0,,,3478.503999997047,completion,,,,,false,,,,675134,675133.799999997,671638.629,671646.599999994,671655.296,675138.865,8,400,,,
trial,html.Screen,4_83_0,2023-09-12T21:52:31.130Z,,0,2,,3225.8349999880884,response,ISIC_0025391.JPG,10,ISIC_1793821.JPG,ISIC_1793821.JPG,false,0,keypress(z),500,678364.8999999911,678364.6999999881,675122.198,675134.299999997,675138.865,678372.42,8,400,34,,ISIC_0025391.JPG
break,html.Screen,4_83_1,2023-09-12T21:52:31.131Z,,0,,,NaN,,,,,,false,,,,678365.8999999911,678365.599999994,,678365.1999999881,,678372.42,8,400,,,
break_continue,html.Screen,4_83_2,2023-09-12T21:52:31.131Z,,0,,,NaN,,,,,,false,,,,678366.299999997,678366.099999994,,678366,,678372.42,8,400,,,
sequence,flow.Sequence,4_83,2023-09-12T21:52:31.132Z,,0,,,3227.234999994049,completion,,,,,false,,,,678366.3999999911,678366.099999994,675122.198,675134.1999999881,675138.865,678372.42,8,400,,,
trial,html.Screen,4_84_0,2023-09-12T21:52:34.289Z,,0,2,,3151.4799999910174,response,ISIC_0057759.JPG,10,ISIC_1851605.JPG,ISIC_1851605.JPG,false,0,keypress(z),500,681524.299999997,681523.8999999911,678355.753,678366.599999994,678372.42,681556,8,400,35,,ISIC_0057759.JPG
break,html.Screen,4_84_1,2023-09-12T21:52:34.290Z,,0,,,NaN,,,,,,false,,,,681524.8999999911,681524.799999997,,681524.5,,681556,8,400,,,
break_continue,html.Screen,4_84_2,2023-09-12T21:52:34.290Z,,0,,,NaN,,,,,,false,,,,681525.299999997,681525.1999999881,,681525.099999994,,681556,8,400,,,
sequence,flow.Sequence,4_84,2023-09-12T21:52:34.291Z,,0,,,3152.779999988037,completion,,,,,false,,,,681525.3999999911,681525.1999999881,678355.753,678366.599999994,678372.42,681556,8,400,,,
trial,html.Screen,4_85_0,2023-09-12T21:52:39.298Z,,0,2,,4976.699999988079,response,ISIC_0030694.JPG,11,ISIC_0061379.JPG,ISIC_0030694.JPG,false,1,keypress(m),500,686533,686532.6999999881,681539.303,681525.599999994,681556,686539.651,8,400,36,,ISIC_0061379.JPG
break,html.Screen,4_85_1,2023-09-12T21:52:39.299Z,,0,,,NaN,,,,,,false,,,,686534,686533.799999997,,686533.1999999881,,686539.651,8,400,,,
break_continue,html.Screen,4_85_2,2023-09-12T21:52:39.300Z,,0,,,NaN,,,,,,false,,,,686534.3999999911,686534.299999997,,686534.1999999881,,686539.651,8,400,,,
sequence,flow.Sequence,4_85,2023-09-12T21:52:39.300Z,,0,,,4978.29999999702,completion,,,,,false,,,,686534.5,686534.299999997,681539.303,681525.5,681556,686539.651,8,400,,,
trial,html.Screen,4_86_0,2023-09-12T21:52:42.130Z,,0,2,,2825.0489999881247,response,ISIC_6381785.JPG,10,ISIC_5797404.JPG,ISIC_6381785.JPG,false,1,keypress(m),500,689364.8999999911,689364.6999999881,686522.984,686534.599999994,686539.651,689373.172,8,400,37,,ISIC_5797404.JPG
break,html.Screen,4_86_1,2023-09-12T21:52:42.131Z,,0,,,NaN,,,,,,false,,,,689365.799999997,689365.599999994,,689365.099999994,,689373.172,8,400,,,
break_continue,html.Screen,4_86_2,2023-09-12T21:52:42.131Z,,0,,,NaN,,,,,,false,,,,689366.099999994,689366,,689365.8999999911,,689373.172,8,400,,,
sequence,flow.Sequence,4_86,2023-09-12T21:52:42.131Z,,0,,,2826.3490000000456,completion,,,,,false,,,,689366.299999997,689366,686522.984,686534.599999994,686539.651,689373.172,8,400,,,
trial,html.Screen,4_87_0,2023-09-12T21:52:44.786Z,,0,2,,2647.5279999880586,response,ISIC_2394780.JPG,9,ISIC_9239632.JPG,ISIC_9239632.JPG,false,0,keypress(z),500,692021.099999994,692020.6999999881,689356.505,689366.3999999911,689373.172,692023.372,8,400,38,,ISIC_2394780.JPG
break,html.Screen,4_87_1,2023-09-12T21:52:44.787Z,,0,,,NaN,,,,,,false,,,,692022.099999994,692022,,692021.299999997,,692023.372,8,400,,,
break_continue,html.Screen,4_87_2,2023-09-12T21:52:44.788Z,,0,,,NaN,,,,,,false,,,,692022.5,692022.299999997,,692022.1999999881,,692023.372,8,400,,,
sequence,flow.Sequence,4_87,2023-09-12T21:52:44.788Z,,0,,,2649.1279999969993,completion,,,,,false,,,,692022.599999994,692022.299999997,689356.505,689366.299999997,689373.172,692023.372,8,400,,,
trial,html.Screen,4_88_0,2023-09-12T21:52:47.682Z,,0,2,,2893.327999988105,response,ISIC_0033640.JPG,10,ISIC_0034222.JPG,ISIC_0033640.JPG,false,1,keypress(m),500,694917,694916.6999999881,692006.705,692022.6999999881,692023.372,694923.568,8,400,39,,ISIC_0034222.JPG
break,html.Screen,4_88_1,2023-09-12T21:52:47.683Z,,0,,,NaN,,,,,,false,,,,694917.8999999911,694917.6999999881,,694917.1999999881,,694923.568,8,400,,,
break_continue,html.Screen,4_88_2,2023-09-12T21:52:47.683Z,,0,,,NaN,,,,,,false,,,,694918.1999999881,694918.099999994,,694917.8999999911,,694923.568,8,400,,,
sequence,flow.Sequence,4_88,2023-09-12T21:52:47.684Z,,0,,,2894.7279999940656,completion,,,,,false,,,,694918.299999997,694918.099999994,692006.705,692022.6999999881,692023.372,694923.568,8,400,,,
trial,html.Screen,4_89_0,2023-09-12T21:52:50.266Z,,0,2,,2576.831999991089,response,ISIC_5884700.JPG,6,ISIC_0032504.JPG,ISIC_5884700.JPG,false,1,keypress(m),500,697500.6999999881,697500.3999999911,694906.901,694918.5,694923.568,697507.067,8,400,40,,ISIC_0032504.JPG
break,html.Screen,4_89_1,2023-09-12T21:52:50.267Z,,0,,,NaN,,,,,,false,,,,697501.5,697501.5,,697500.799999997,,697507.067,8,400,,,
break_continue,html.Screen,4_89_2,2023-09-12T21:52:50.267Z,,0,,,NaN,,,,,,false,,,,697501.8999999911,697501.799999997,,697501.6999999881,,697507.067,8,400,,,
sequence,flow.Sequence,4_89,2023-09-12T21:52:50.267Z,,0,,,2578.2319999970496,completion,,,,,false,,,,697502,697501.799999997,694906.901,694918.5,694923.568,697507.067,8,400,,,
trial,html.Screen,4_90_0,2023-09-12T21:52:52.914Z,,0,2,,2641.7329999969807,response,ISIC_0010142.JPG,10,ISIC_5457889.JPG,ISIC_5457889.JPG,false,0,keypress(z),500,700149,700148.799999997,697490.4,697502.1999999881,697507.067,700157.257,8,400,41,,ISIC_0010142.JPG
break,html.Screen,4_90_1,2023-09-12T21:52:52.915Z,,0,,,NaN,,,,,,false,,,,700149.8999999911,700149.6999999881,,700149.1999999881,,700157.257,8,400,,,
break_continue,html.Screen,4_90_2,2023-09-12T21:52:52.915Z,,0,,,NaN,,,,,,false,,,,700150.299999997,700150.1999999881,,700150,,700157.257,8,400,,,
sequence,flow.Sequence,4_90,2023-09-12T21:52:52.916Z,,0,,,2643.13299998804,completion,,,,,false,,,,700150.3999999911,700150.1999999881,697490.4,697502.1999999881,697507.067,700157.257,8,400,,,
trial,html.Screen,4_91_0,2023-09-12T21:52:55.690Z,,0,2,,2767.0429999970365,response,ISIC_8169564.JPG,10,ISIC_7460111.JPG,ISIC_8169564.JPG,false,1,keypress(m),500,702924.599999994,702924.299999997,700140.59,700150.599999994,700157.257,702940.811,8,400,42,,ISIC_7460111.JPG
break,html.Screen,4_91_1,2023-09-12T21:52:55.691Z,,0,,,NaN,,,,,,false,,,,702925.6999999881,702925.5,,702924.799999997,,702940.811,8,400,,,
break_continue,html.Screen,4_91_2,2023-09-12T21:52:55.691Z,,0,,,NaN,,,,,,false,,,,702926.099999994,702925.8999999911,,702925.799999997,,702940.811,8,400,,,
sequence,flow.Sequence,4_91,2023-09-12T21:52:55.691Z,,0,,,2768.642999991076,completion,,,,,false,,,,702926.1999999881,702925.8999999911,700140.59,700150.599999994,700157.257,702940.811,8,400,,,
trial,html.Screen,4_92_0,2023-09-12T21:52:58.570Z,,0,2,,2863.888999988092,response,ISIC_0032192.JPG,10,ISIC_0056534.JPG,ISIC_0056534.JPG,false,0,keypress(z),500,705805,705804.6999999881,702924.121,702926.299999997,702940.811,705807.633,8,400,43,,ISIC_0032192.JPG
break,html.Screen,4_92_1,2023-09-12T21:52:58.571Z,,0,,,NaN,,,,,,false,,,,705805.799999997,705805.599999994,,705805.1999999881,,705807.633,8,400,,,
break_continue,html.Screen,4_92_2,2023-09-12T21:52:58.571Z,,0,,,NaN,,,,,,false,,,,705806.099999994,705805.8999999911,,705805.8999999911,,705807.633,8,400,,,
sequence,flow.Sequence,4_92,2023-09-12T21:52:58.571Z,,0,,,2865.0889999910723,completion,,,,,false,,,,705806.299999997,705805.8999999911,702924.121,702926.1999999881,702940.811,705807.633,8,400,,,
trial,html.Screen,4_93_0,2023-09-12T21:53:01.146Z,,0,2,,2573.0669999880483,response,ISIC_0034216.JPG,10,ISIC_5823292.JPG,ISIC_5823292.JPG,false,0,keypress(z),500,708381,708380.6999999881,705790.966,705806.3999999911,705807.633,708391.172,8,400,44,,ISIC_0034216.JPG
break,html.Screen,4_93_1,2023-09-12T21:53:01.147Z,,0,,,NaN,,,,,,false,,,,708382,708381.799999997,,708381.299999997,,708391.172,8,400,,,
break_continue,html.Screen,4_93_2,2023-09-12T21:53:01.147Z,,0,,,NaN,,,,,,false,,,,708382.3999999911,708382.1999999881,,708382.099999994,,708391.172,8,400,,,
sequence,flow.Sequence,4_93,2023-09-12T21:53:01.148Z,,0,,,2574.5669999880483,completion,,,,,false,,,,708382.5,708382.1999999881,705790.966,705806.3999999911,705807.633,708391.172,8,400,,,
trial,html.Screen,4_94_0,2023-09-12T21:53:03.634Z,,0,2,,2477.6279999969993,response,ISIC_8649055.JPG,10,ISIC_0016123.JPG,ISIC_8649055.JPG,false,1,keypress(m),500,710869.1999999881,710868.799999997,708374.483,708382.599999994,708391.172,710874.656,8,400,45,,ISIC_0016123.JPG
break,html.Screen,4_94_1,2023-09-12T21:53:03.635Z,,0,,,NaN,,,,,,false,,,,710870.099999994,710869.8999999911,,710869.3999999911,,710874.656,8,400,,,
break_continue,html.Screen,4_94_2,2023-09-12T21:53:03.636Z,,0,,,NaN,,,,,,false,,,,710870.3999999911,710870.299999997,,710870.1999999881,,710874.656,8,400,,,
sequence,flow.Sequence,4_94,2023-09-12T21:53:03.636Z,,0,,,2479.1279999969993,completion,,,,,false,,,,710870.599999994,710870.299999997,708374.483,708382.5,708391.172,710874.656,8,400,,,
trial,html.Screen,4_95_0,2023-09-12T21:53:06.562Z,,0,2,,2921.9439999940805,response,ISIC_0026160.JPG,9,ISIC_6733338.JPG,ISIC_6733338.JPG,false,0,keypress(z),500,713797,713796.599999994,710857.989,710870.6999999881,710874.656,713808.196,8,400,46,,ISIC_0026160.JPG
break,html.Screen,4_95_1,2023-09-12T21:53:06.563Z,,0,,,NaN,,,,,,false,,,,713797.799999997,713797.599999994,,713797.1999999881,,713808.196,8,400,,,
break_continue,html.Screen,4_95_2,2023-09-12T21:53:06.563Z,,0,,,NaN,,,,,,false,,,,713798.099999994,713798,,713797.8999999911,,713808.196,8,400,,,
sequence,flow.Sequence,4_95,2023-09-12T21:53:06.563Z,,0,,,2923.344000000041,completion,,,,,false,,,,713798.299999997,713798,710857.989,710870.6999999881,710874.656,713808.196,8,400,,,
trial,html.Screen,4_96_0,2023-09-12T21:53:09.410Z,,0,2,,2836.3040000000037,response,ISIC_0029893.JPG,10,ISIC_5908780.JPG,ISIC_5908780.JPG,false,0,keypress(z),500,716644.799999997,716644.5,713791.529,713798.5,713808.196,716658.409,8,400,47,,ISIC_0029893.JPG
break,html.Screen,4_96_1,2023-09-12T21:53:09.411Z,,0,,,NaN,,,,,,false,,,,716645.6999999881,716645.3999999911,,716645,,716658.409,8,400,,,
break_continue,html.Screen,4_96_2,2023-09-12T21:53:09.411Z,,0,,,NaN,,,,,,false,,,,716646,716645.8999999911,,716645.6999999881,,716658.409,8,400,,,
sequence,flow.Sequence,4_96,2023-09-12T21:53:09.411Z,,0,,,2837.703999991063,completion,,,,,false,,,,716646.099999994,716645.8999999911,713791.529,713798.3999999911,713808.196,716658.409,8,400,,,
trial,html.Screen,4_97_0,2023-09-12T21:53:12.082Z,,0,2,,2658.091000000015,response,ISIC_0028211.JPG,10,ISIC_0027867.JPG,ISIC_0027867.JPG,false,0,keypress(z),500,719316.8999999911,719316.5,716641.728,716646.299999997,716658.409,719325.246,8,400,48,,ISIC_0028211.JPG
break,html.Screen,4_97_1,2023-09-12T21:53:12.083Z,,0,,,NaN,,,,,,false,,,,719317.6999999881,719317.5,,719317.099999994,,719325.246,8,400,,,
break_continue,html.Screen,4_97_2,2023-09-12T21:53:12.083Z,,0,,,NaN,,,,,,false,,,,719317.8999999911,719317.799999997,,719317.799999997,,719325.246,8,400,,,
sequence,flow.Sequence,4_97,2023-09-12T21:53:12.083Z,,0,,,2659.3909999970347,completion,,,,,false,,,,719318.1999999881,719317.799999997,716641.728,716646.299999997,716658.409,719325.246,8,400,,,
trial,html.Screen,4_98_0,2023-09-12T21:53:14.778Z,,0,2,,2687.4539999880362,response,ISIC_0032718.JPG,7,ISIC_0031155.JPG,ISIC_0031155.JPG,false,0,keypress(z),500,722013,722012.6999999881,719308.579,719318.299999997,719325.246,722025.444,8,400,49,,ISIC_0032718.JPG
break,html.Screen,4_98_1,2023-09-12T21:53:14.779Z,,0,,,NaN,,,,,,false,,,,722013.8999999911,722013.599999994,,722013.1999999881,,722025.444,8,400,,,
break_continue,html.Screen,4_98_2,2023-09-12T21:53:14.779Z,,0,,,NaN,,,,,,false,,,,722014.1999999881,722014.099999994,,722014,,722025.444,8,400,,,
sequence,flow.Sequence,4_98,2023-09-12T21:53:14.779Z,,0,,,2688.8539999939967,completion,,,,,false,,,,722014.3999999911,722014.099999994,719308.579,719318.1999999881,719325.246,722025.444,8,400,,,
trial,html.Screen,4_99_0,2023-09-12T21:53:17.842Z,,0,2,,3051.0559999999823,response,ISIC_7724635.JPG,9,ISIC_7967397.JPG,ISIC_7724635.JPG,false,1,keypress(m),500,725076.6999999881,725076.5,722008.761,722014.3999999911,722025.444,725092.337,8,400,50,,ISIC_7967397.JPG
break,html.Screen,4_99_1,2023-09-12T21:53:27.843Z,,0,,,10000.676999999909,timeout,,,,,false,,,,735077.299999997,735076.345,725075.637,725076.8999999911,725092.337,735093.014,8,400,,,
break_continue,html.Screen,4_99_2,2023-09-12T21:53:29.184Z,,0,,,1301.2859999970533,response,,,,,false,continue,keypress(Space),,736418.5,736394.299999997,735076.345,735077.5,735093.014,736426.369,8,400,,,
sequence,flow.Sequence,4_99,2023-09-12T21:53:29.184Z,,0,,,14368.855999997002,completion,,,,,false,,,,736418.6999999881,736394.299999997,722008.761,722014.3999999911,722025.444,736426.369,8,400,,,
trial,html.Screen,4_100_0,2023-09-12T21:53:31.882Z,,0,3,,2690.430999997072,response,ISIC_8906583.JPG,5,ISIC_9203812.JPG,ISIC_8906583.JPG,false,1,keypress(m),500,739117,739116.799999997,736409.702,736418.799999997,736426.369,739126.597,8,400,1,,ISIC_9203812.JPG
break,html.Screen,4_100_1,2023-09-12T21:53:31.883Z,,0,,,NaN,,,,,,false,,,,739118.1999999881,739117.6999999881,,739117.299999997,,739126.597,8,400,,,
break_continue,html.Screen,4_100_2,2023-09-12T21:53:31.884Z,,0,,,NaN,,,,,,false,,,,739118.5,739118.3999999911,,739118.299999997,,739126.597,8,400,,,
sequence,flow.Sequence,4_100,2023-09-12T21:53:31.884Z,,0,,,2692.0309999911115,completion,,,,,false,,,,739118.6999999881,739118.3999999911,736409.702,736418.6999999881,736426.369,739126.597,8,400,,,
trial,html.Screen,4_101_0,2023-09-12T21:53:34.490Z,,0,3,,2597.702999997069,response,ISIC_5546806.JPG,10,ISIC_6780662.JPG,ISIC_6780662.JPG,false,0,keypress(z),500,741724.599999994,741724.299999997,739109.93,739118.6999999881,739126.597,741726.783,8,400,2,,ISIC_5546806.JPG
break,html.Screen,4_101_1,2023-09-12T21:53:34.491Z,,0,,,NaN,,,,,,false,,,,741725.5,741725.099999994,,741724.799999997,,741726.783,8,400,,,
break_continue,html.Screen,4_101_2,2023-09-12T21:53:34.491Z,,0,,,NaN,,,,,,false,,,,741725.8999999911,741725.6999999881,,741725.599999994,,741726.783,8,400,,,
sequence,flow.Sequence,4_101,2023-09-12T21:53:34.491Z,,0,,,2599.1029999881284,completion,,,,,false,,,,741726,741725.6999999881,739109.93,739118.6999999881,739126.597,741726.783,8,400,,,
trial,html.Screen,4_102_0,2023-09-12T21:53:38.098Z,,0,3,,3606.1169999910053,response,ISIC_0071735.JPG,10,ISIC_0054892.JPG,ISIC_0071735.JPG,false,1,keypress(m),500,745333.299999997,745332.8999999911,741710.116,741726.1999999881,741726.783,745343.696,8,400,3,,ISIC_0054892.JPG
break,html.Screen,4_102_1,2023-09-12T21:53:38.099Z,,0,,,NaN,,,,,,false,,,,745334,745333.8999999911,,745333.3999999911,,745343.696,8,400,,,
break_continue,html.Screen,4_102_2,2023-09-12T21:53:38.100Z,,0,,,NaN,,,,,,false,,,,745334.5,745334.3999999911,,745334.299999997,,745343.696,8,400,,,
sequence,flow.Sequence,4_102,2023-09-12T21:53:38.100Z,,0,,,3607.6169999910053,completion,,,,,false,,,,745334.599999994,745334.3999999911,741710.116,741726.1999999881,741726.783,745343.696,8,400,,,
trial,html.Screen,4_103_0,2023-09-12T21:53:40.810Z,,0,3,,2700.703999991063,response,ISIC_0065204.JPG,10,ISIC_9974299.JPG,ISIC_9974299.JPG,false,0,keypress(z),500,748044.599999994,748044.3999999911,745327.029,745334.799999997,745343.696,748060.583,8,400,4,,ISIC_0065204.JPG
break,html.Screen,4_103_1,2023-09-12T21:53:40.811Z,,0,,,NaN,,,,,,false,,,,748045.8999999911,748045.6999999881,,748044.8999999911,,748060.583,8,400,,,
break_continue,html.Screen,4_103_2,2023-09-12T21:53:40.811Z,,0,,,NaN,,,,,,false,,,,748046.299999997,748046.099999994,,748046,,748060.583,8,400,,,
sequence,flow.Sequence,4_103,2023-09-12T21:53:40.812Z,,0,,,2702.4039999940433,completion,,,,,false,,,,748046.5,748046.099999994,745327.029,745334.6999999881,745343.696,748060.583,8,400,,,
trial,html.Screen,4_104_0,2023-09-12T21:53:43.882Z,,0,3,,3056.0169999940554,response,ISIC_1793624.JPG,10,ISIC_0014013.JPG,ISIC_0014013.JPG,false,0,keypress(z),500,751116.8999999911,751116.599999994,748043.89,748046.5,748060.583,751127.447,8,400,5,,ISIC_1793624.JPG
break,html.Screen,4_104_1,2023-09-12T21:53:43.883Z,,0,,,NaN,,,,,,false,,,,751117.799999997,751117.599999994,,751117.099999994,,751127.447,8,400,,,
break_continue,html.Screen,4_104_2,2023-09-12T21:53:43.883Z,,0,,,NaN,,,,,,false,,,,751118.099999994,751118,,751117.8999999911,,751127.447,8,400,,,
sequence,flow.Sequence,4_104,2023-09-12T21:53:43.883Z,,0,,,3057.417000000016,completion,,,,,false,,,,751118.1999999881,751118,748043.89,748046.5,748060.583,751127.447,8,400,,,
trial,html.Screen,4_105_0,2023-09-12T21:53:47.802Z,,0,3,,3909.1529999939958,response,ISIC_9338761.JPG,10,ISIC_8699453.JPG,ISIC_8699453.JPG,false,0,keypress(z),500,755037.099999994,755036.599999994,751110.756,751118.3999999911,751127.447,755044.372,8,400,6,,ISIC_9338761.JPG
break,html.Screen,4_105_1,2023-09-12T21:53:47.803Z,,0,,,NaN,,,,,,false,,,,755038,755037.799999997,,755037.3999999911,,755044.372,8,400,,,
break_continue,html.Screen,4_105_2,2023-09-12T21:53:47.804Z,,0,,,NaN,,,,,,false,,,,755038.3999999911,755038.299999997,,755038.099999994,,755044.372,8,400,,,
sequence,flow.Sequence,4_105,2023-09-12T21:53:47.804Z,,0,,,3910.852999996976,completion,,,,,false,,,,755038.5,755038.299999997,751110.756,751118.3999999911,751127.447,755044.372,8,400,,,
trial,html.Screen,4_106_0,2023-09-12T21:53:50.722Z,,0,3,,2912.327999988105,response,ISIC_0053513.JPG,10,ISIC_3163773.JPG,ISIC_0053513.JPG,false,1,keypress(m),500,757957.099999994,757956.6999999881,755027.705,755038.6999999881,755044.372,757977.918,8,400,7,,ISIC_3163773.JPG
break,html.Screen,4_106_1,2023-09-12T21:53:50.723Z,,0,,,NaN,,,,,,false,,,,757957.799999997,757957.6999999881,,757957.1999999881,,757977.918,8,400,,,
break_continue,html.Screen,4_106_2,2023-09-12T21:53:50.723Z,,0,,,NaN,,,,,,false,,,,757958.099999994,757958,,757957.8999999911,,757977.918,8,400,,,
sequence,flow.Sequence,4_106,2023-09-12T21:53:50.723Z,,0,,,2913.628000000026,completion,,,,,false,,,,757958.299999997,757958,755027.705,755038.599999994,755044.372,757977.918,8,400,,,
trial,html.Screen,4_107_0,2023-09-12T21:53:53.426Z,,0,3,,2682.582000000053,response,ISIC_5420979.JPG,10,ISIC_0063842.JPG,ISIC_5420979.JPG,false,1,keypress(m),500,760660.799999997,760660.5,757961.228,757958.3999999911,757977.918,760678.11,8,400,8,,ISIC_0063842.JPG
break,html.Screen,4_107_1,2023-09-12T21:53:53.427Z,,0,,,NaN,,,,,,false,,,,760662,760661.6999999881,,760661.099999994,,760678.11,8,400,,,
break_continue,html.Screen,4_107_2,2023-09-12T21:53:53.427Z,,0,,,NaN,,,,,,false,,,,760662.299999997,760662.1999999881,,760662.099999994,,760678.11,8,400,,,
sequence,flow.Sequence,4_107,2023-09-12T21:53:53.428Z,,0,,,2684.281999988132,completion,,,,,false,,,,760662.5,760662.1999999881,757961.228,757958.3999999911,757977.918,760678.11,8,400,,,
trial,html.Screen,4_108_0,2023-09-12T21:53:56.226Z,,0,3,,2782.390000000014,response,ISIC_0029574.JPG,10,ISIC_0046628.JPG,ISIC_0046628.JPG,false,0,keypress(z),500,763460.799999997,763460.5,760661.413,760662.599999994,760678.11,763478.305,8,400,9,,ISIC_0029574.JPG
break,html.Screen,4_108_1,2023-09-12T21:53:56.227Z,,0,,,NaN,,,,,,false,,,,763461.6999999881,763461.599999994,,763461,,763478.305,8,400,,,
break_continue,html.Screen,4_108_2,2023-09-12T21:53:56.227Z,,0,,,NaN,,,,,,false,,,,763462.099999994,763462,,763461.799999997,,763478.305,8,400,,,
sequence,flow.Sequence,4_108,2023-09-12T21:53:56.227Z,,0,,,2783.890000000014,completion,,,,,false,,,,763462.299999997,763462,760661.413,760662.599999994,760678.11,763478.305,8,400,,,
trial,html.Screen,4_109_0,2023-09-12T21:53:59.210Z,,0,3,,2966.194999999949,response,ISIC_9562157.JPG,10,ISIC_5573566.JPG,ISIC_9562157.JPG,false,1,keypress(m),500,766444.799999997,766444.5,763461.603,763462.3999999911,763478.305,766461.842,8,400,10,,ISIC_5573566.JPG
break,html.Screen,4_109_1,2023-09-12T21:53:59.211Z,,0,,,NaN,,,,,,false,,,,766445.799999997,766445.5,,766444.8999999911,,766461.842,8,400,,,
break_continue,html.Screen,4_109_2,2023-09-12T21:53:59.211Z,,0,,,NaN,,,,,,false,,,,766446.099999994,766445.8999999911,,766445.799999997,,766461.842,8,400,,,
sequence,flow.Sequence,4_109,2023-09-12T21:53:59.211Z,,0,,,2967.594999991008,completion,,,,,false,,,,766446.299999997,766445.8999999911,763461.603,763462.299999997,763478.305,766461.842,8,400,,,
trial,html.Screen,4_110_0,2023-09-12T21:54:02.778Z,,0,3,,3550.7579999940936,response,ISIC_0061558.JPG,10,ISIC_4684860.JPG,ISIC_0061558.JPG,false,1,keypress(m),500,770012.8999999911,770012.599999994,766445.155,766446.5,766461.842,770028.737,8,400,11,,ISIC_4684860.JPG
break,html.Screen,4_110_1,2023-09-12T21:54:02.779Z,,0,,,NaN,,,,,,false,,,,770013.599999994,770013.5,,770013.099999994,,770028.737,8,400,,,
break_continue,html.Screen,4_110_2,2023-09-12T21:54:02.779Z,,0,,,NaN,,,,,,false,,,,770014,770013.8999999911,,770013.799999997,,770028.737,8,400,,,
sequence,flow.Sequence,4_110,2023-09-12T21:54:02.779Z,,0,,,3552.0579999911133,completion,,,,,false,,,,770014.1999999881,770013.8999999911,766445.155,766446.3999999911,766461.842,770028.737,8,400,,,
trial,html.Screen,4_111_0,2023-09-12T21:54:05.682Z,,0,3,,2887.862999994075,response,ISIC_0010308.JPG,10,ISIC_9694911.JPG,ISIC_9694911.JPG,false,0,keypress(z),500,772916.8999999911,772916.599999994,770012.07,770014.3999999911,770028.737,772928.964,8,400,12,,ISIC_0010308.JPG
break,html.Screen,4_111_1,2023-09-12T21:54:05.683Z,,0,,,NaN,,,,,,false,,,,772917.599999994,772917.5,,772917,,772928.964,8,400,,,
break_continue,html.Screen,4_111_2,2023-09-12T21:54:05.683Z,,0,,,NaN,,,,,,false,,,,772918,772917.799999997,,772917.799999997,,772928.964,8,400,,,
sequence,flow.Sequence,4_111,2023-09-12T21:54:05.683Z,,0,,,2889.062999997055,completion,,,,,false,,,,772918.099999994,772917.799999997,770012.07,770014.299999997,770028.737,772928.964,8,400,,,
trial,html.Screen,4_112_0,2023-09-12T21:54:09.450Z,,0,3,,3755.8359999969834,response,ISIC_5179620.JPG,10,ISIC_0024567.JPG,ISIC_0024567.JPG,false,0,keypress(z),500,776685.1999999881,776684.799999997,772912.259,772918.299999997,772928.964,776695.872,8,400,13,,ISIC_5179620.JPG
break,html.Screen,4_112_1,2023-09-12T21:54:09.451Z,,0,,,NaN,,,,,,false,,,,776686.299999997,776686.099999994,,776685.3999999911,,776695.872,8,400,,,
break_continue,html.Screen,4_112_2,2023-09-12T21:54:09.452Z,,0,,,NaN,,,,,,false,,,,776686.599999994,776686.5,,776686.3999999911,,776695.872,8,400,,,
sequence,flow.Sequence,4_112,2023-09-12T21:54:09.452Z,,0,,,3757.5359999999637,completion,,,,,false,,,,776686.6999999881,776686.5,772912.259,772918.299999997,772928.964,776695.872,8,400,,,
trial,html.Screen,4_113_0,2023-09-12T21:54:13.178Z,,0,3,,3716.927999997046,response,ISIC_0014657.JPG,9,ISIC_2466892.JPG,ISIC_2466892.JPG,false,0,keypress(z),500,780413.099999994,780412.799999997,776679.181,776686.8999999911,776695.872,780429.466,8,400,14,,ISIC_0014657.JPG
break,html.Screen,4_113_1,2023-09-12T21:54:13.179Z,,0,,,NaN,,,,,,false,,,,780414,780413.799999997,,780413.1999999881,,780429.466,8,400,,,
break_continue,html.Screen,4_113_2,2023-09-12T21:54:13.180Z,,0,,,NaN,,,,,,false,,,,780414.3999999911,780414.299999997,,780414,,780429.466,8,400,,,
sequence,flow.Sequence,4_113,2023-09-12T21:54:13.180Z,,0,,,3718.427999997046,completion,,,,,false,,,,780414.599999994,780414.299999997,776679.181,776686.8999999911,776695.872,780429.466,8,400,,,
trial,html.Screen,4_114_0,2023-09-12T21:54:16.114Z,,0,3,,2919.1339999940246,response,ISIC_9441572.JPG,10,ISIC_0033319.JPG,ISIC_9441572.JPG,false,1,keypress(m),500,783348.8999999911,783348.599999994,780412.782,780414.6999999881,780429.466,783363.006,8,400,15,,ISIC_0033319.JPG
break,html.Screen,4_114_1,2023-09-12T21:54:16.115Z,,0,,,NaN,,,,,,false,,,,783349.799999997,783349.6999999881,,783349.099999994,,783363.006,8,400,,,
break_continue,html.Screen,4_114_2,2023-09-12T21:54:16.115Z,,0,,,NaN,,,,,,false,,,,783350.1999999881,783350,,783349.8999999911,,783363.006,8,400,,,
sequence,flow.Sequence,4_114,2023-09-12T21:54:16.116Z,,0,,,2920.533999999985,completion,,,,,false,,,,783350.3999999911,783350,780412.782,780414.6999999881,780429.466,783363.006,8,400,,,
trial,html.Screen,4_115_0,2023-09-12T21:54:18.754Z,,0,3,,2625.393999991007,response,ISIC_0031208.JPG,10,ISIC_1189461.JPG,ISIC_1189461.JPG,false,0,keypress(z),500,785988.599999994,785988.3999999911,783346.308,783350.5,783363.006,785996.485,8,400,16,,ISIC_0031208.JPG
break,html.Screen,4_115_1,2023-09-12T21:54:18.755Z,,0,,,NaN,,,,,,false,,,,785989.5,785989.299999997,,785988.8999999911,,785996.485,8,400,,,
break_continue,html.Screen,4_115_2,2023-09-12T21:54:18.755Z,,0,,,NaN,,,,,,false,,,,785989.6999999881,785989.6999999881,,785989.5,,785996.485,8,400,,,
sequence,flow.Sequence,4_115,2023-09-12T21:54:18.755Z,,0,,,2626.693999988027,completion,,,,,false,,,,785989.8999999911,785989.6999999881,783346.308,783350.5,783363.006,785996.485,8,400,,,
trial,html.Screen,4_116_0,2023-09-12T21:54:21.531Z,,0,3,,2768.714999988093,response,ISIC_0032204.JPG,10,ISIC_0030342.JPG,ISIC_0030342.JPG,false,0,keypress(z),500,788766,788765.1999999881,785979.818,785990,785996.485,788780.054,8,400,17,,ISIC_0032204.JPG
break,html.Screen,4_116_1,2023-09-12T21:54:21.532Z,,0,,,NaN,,,,,,false,,,,788767,788766.799999997,,788766.3999999911,,788780.054,8,400,,,
break_continue,html.Screen,4_116_2,2023-09-12T21:54:21.533Z,,0,,,NaN,,,,,,false,,,,788767.3999999911,788767.299999997,,788767.1999999881,,788780.054,8,400,,,
sequence,flow.Sequence,4_116,2023-09-12T21:54:21.533Z,,0,,,2770.8149999970337,completion,,,,,false,,,,788767.599999994,788767.299999997,785979.818,785990,785996.485,788780.054,8,400,,,
trial,html.Screen,4_117_0,2023-09-12T21:54:24.618Z,,0,3,,3072.545999994036,response,ISIC_0029898.JPG,9,ISIC_1802502.JPG,ISIC_1802502.JPG,false,0,keypress(z),500,791852.8999999911,791852.599999994,788763.349,788767.6999999881,788780.054,791863.575,8,400,18,,ISIC_0029898.JPG
break,html.Screen,4_117_1,2023-09-12T21:54:24.619Z,,0,,,NaN,,,,,,false,,,,791853.8999999911,791853.799999997,,791853.099999994,,791863.575,8,400,,,
break_continue,html.Screen,4_117_2,2023-09-12T21:54:24.619Z,,0,,,NaN,,,,,,false,,,,791854.299999997,791854.1999999881,,791854,,791863.575,8,400,,,
sequence,flow.Sequence,4_117,2023-09-12T21:54:24.620Z,,0,,,3074.1459999880753,completion,,,,,false,,,,791854.3999999911,791854.1999999881,788763.349,788767.599999994,788780.054,791863.575,8,400,,,
trial,html.Screen,4_118_0,2023-09-12T21:54:27.834Z,,0,3,,3205.2249999970663,response,ISIC_0011964.JPG,10,ISIC_0973194.JPG,ISIC_0973194.JPG,false,0,keypress(z),500,795069.099999994,795068.799999997,791846.908,791854.599999994,791863.575,795080.473,8,400,19,,ISIC_0011964.JPG
break,html.Screen,4_118_1,2023-09-12T21:54:27.835Z,,0,,,NaN,,,,,,false,,,,795069.8999999911,795069.6999999881,,795069.299999997,,795080.473,8,400,,,
break_continue,html.Screen,4_118_2,2023-09-12T21:54:27.835Z,,0,,,NaN,,,,,,false,,,,795070.299999997,795070.1999999881,,795070,,795080.473,8,400,,,
sequence,flow.Sequence,4_118,2023-09-12T21:54:27.836Z,,0,,,3206.6249999881256,completion,,,,,false,,,,795070.3999999911,795070.1999999881,791846.908,791854.599999994,791863.575,795080.473,8,400,,,
trial,html.Screen,4_119_0,2023-09-12T21:54:30.682Z,,0,3,,2836.226999988081,response,ISIC_0055265.JPG,10,ISIC_6239663.JPG,ISIC_6239663.JPG,false,0,keypress(z),500,797917.099999994,797916.6999999881,795063.797,795070.599999994,795080.473,797930.681,8,400,20,,ISIC_0055265.JPG
break,html.Screen,4_119_1,2023-09-12T21:54:30.683Z,,0,,,NaN,,,,,,false,,,,797918.099999994,797917.799999997,,797917.299999997,,797930.681,8,400,,,
break_continue,html.Screen,4_119_2,2023-09-12T21:54:30.684Z,,0,,,NaN,,,,,,false,,,,797918.3999999911,797918.3999999911,,797918.1999999881,,797930.681,8,400,,,
sequence,flow.Sequence,4_119,2023-09-12T21:54:30.684Z,,0,,,2837.926999991061,completion,,,,,false,,,,797918.599999994,797918.3999999911,795063.797,795070.599999994,795080.473,797930.681,8,400,,,
trial,html.Screen,4_120_0,2023-09-12T21:54:33.362Z,,0,3,,2666.0189999880968,response,ISIC_6024335.JPG,10,ISIC_0027797.JPG,ISIC_0027797.JPG,false,0,keypress(z),500,800597,800596.6999999881,797913.975,797918.6999999881,797930.681,800614.203,8,400,21,,ISIC_6024335.JPG
break,html.Screen,4_120_1,2023-09-12T21:54:33.363Z,,0,,,NaN,,,,,,false,,,,800597.8999999911,800597.599999994,,800597.299999997,,800614.203,8,400,,,
break_continue,html.Screen,4_120_2,2023-09-12T21:54:33.363Z,,0,,,NaN,,,,,,false,,,,800598.299999997,800598.099999994,,800598,,800614.203,8,400,,,
sequence,flow.Sequence,4_120,2023-09-12T21:54:33.364Z,,0,,,2667.4189999940572,completion,,,,,false,,,,800598.3999999911,800598.099999994,797913.975,797918.599999994,797930.681,800614.203,8,400,,,
trial,html.Screen,4_121_0,2023-09-12T21:54:36.226Z,,0,3,,2846.2970000000205,response,ISIC_0239949.JPG,10,ISIC_1366765.JPG,ISIC_0239949.JPG,false,1,keypress(m),500,803460.799999997,803460.5,800597.499,800598.599999994,800614.203,803464.374,8,400,22,,ISIC_1366765.JPG
break,html.Screen,4_121_1,2023-09-12T21:54:36.227Z,,0,,,NaN,,,,,,false,,,,803461.6999999881,803461.3999999911,,803461,,803464.374,8,400,,,
break_continue,html.Screen,4_121_2,2023-09-12T21:54:36.227Z,,0,,,NaN,,,,,,false,,,,803462,803461.8999999911,,803461.6999999881,,803464.374,8,400,,,
sequence,flow.Sequence,4_121,2023-09-12T21:54:36.227Z,,0,,,2847.69699999108,completion,,,,,false,,,,803462.1999999881,803461.8999999911,800597.499,800598.5,800614.203,803464.374,8,400,,,
trial,html.Screen,4_122_0,2023-09-12T21:54:40.394Z,,0,3,,4164.325999988127,response,ISIC_0056141.JPG,10,ISIC_3298596.JPG,ISIC_3298596.JPG,false,0,keypress(z),500,807629,807628.6999999881,803447.707,803462.3999999911,803464.374,807631.312,8,400,23,,ISIC_0056141.JPG
break,html.Screen,4_122_1,2023-09-12T21:54:40.395Z,,0,,,NaN,,,,,,false,,,,807630,807629.6999999881,,807629.1999999881,,807631.312,8,400,,,
break_continue,html.Screen,4_122_2,2023-09-12T21:54:40.396Z,,0,,,NaN,,,,,,false,,,,807630.3999999911,807630.1999999881,,807630.099999994,,807631.312,8,400,,,
sequence,flow.Sequence,4_122,2023-09-12T21:54:40.396Z,,0,,,4165.825999988127,completion,,,,,false,,,,807630.599999994,807630.1999999881,803447.707,803462.299999997,803464.374,807631.312,8,400,,,
trial,html.Screen,4_123_0,2023-09-12T21:54:43.282Z,,0,3,,2884.787999994005,response,ISIC_2345504.JPG,10,ISIC_3058800.JPG,ISIC_3058800.JPG,false,0,keypress(z),500,810516.3999999911,810516.099999994,807614.645,807630.599999994,807631.312,810548.209,8,400,24,,ISIC_2345504.JPG
break,html.Screen,4_123_1,2023-09-12T21:54:43.282Z,,0,,,NaN,,,,,,false,,,,810517,810516.8999999911,,810516.599999994,,810548.209,8,400,,,
break_continue,html.Screen,4_123_2,2023-09-12T21:54:43.283Z,,0,,,NaN,,,,,,false,,,,810517.5,810517.3999999911,,810517.299999997,,810548.209,8,400,,,
sequence,flow.Sequence,4_123,2023-09-12T21:54:43.283Z,,0,,,2886.087999991025,completion,,,,,false,,,,810517.599999994,810517.3999999911,807614.645,807630.599999994,807631.312,810548.209,8,400,,,
trial,html.Screen,4_124_0,2023-09-12T21:54:46.122Z,,0,3,,2808.390999994008,response,ISIC_0068528.JPG,10,ISIC_0054329.JPG,ISIC_0068528.JPG,false,1,keypress(m),500,813356.8999999911,813356.599999994,810531.512,810517.799999997,810548.209,813381.744,8,400,25,,ISIC_0054329.JPG
break,html.Screen,4_124_1,2023-09-12T21:54:46.123Z,,0,,,NaN,,,,,,false,,,,813357.6999999881,813357.5,,813357,,813381.744,8,400,,,
break_continue,html.Screen,4_124_2,2023-09-12T21:54:46.123Z,,0,,,NaN,,,,,,false,,,,813358,813357.8999999911,,813357.799999997,,813381.744,8,400,,,
sequence,flow.Sequence,4_124,2023-09-12T21:54:46.123Z,,0,,,2809.6909999910276,completion,,,,,false,,,,813358.1999999881,813357.8999999911,810531.512,810517.799999997,810548.209,813381.744,8,400,,,
trial,html.Screen,4_125_0,2023-09-12T21:54:49.074Z,,0,3,,2926.756000000052,response,ISIC_0188432.JPG,10,ISIC_5537876.JPG,ISIC_5537876.JPG,false,0,keypress(z),500,816308.8999999911,816308.5,813365.053,813358.299999997,813381.744,816315.243,8,400,26,,ISIC_0188432.JPG
break,html.Screen,4_125_1,2023-09-12T21:54:49.075Z,,0,,,NaN,,,,,,false,,,,816309.599999994,816309.3999999911,,816309,,816315.243,8,400,,,
break_continue,html.Screen,4_125_2,2023-09-12T21:54:49.075Z,,0,,,NaN,,,,,,false,,,,816309.8999999911,816309.8999999911,,816309.799999997,,816315.243,8,400,,,
sequence,flow.Sequence,4_125,2023-09-12T21:54:49.075Z,,0,,,2928.1559999911115,completion,,,,,false,,,,816310.099999994,816309.8999999911,813365.053,813358.299999997,813381.744,816315.243,8,400,,,
trial,html.Screen,4_126_0,2023-09-12T21:54:51.946Z,,0,3,,2865.4569999880623,response,ISIC_5771106.JPG,10,ISIC_8380904.JPG,ISIC_5771106.JPG,false,1,keypress(m),500,819181,819180.6999999881,816298.576,816310.1999999881,816315.243,819182.121,8,400,27,,ISIC_8380904.JPG
break,html.Screen,4_126_1,2023-09-12T21:54:51.947Z,,0,,,NaN,,,,,,false,,,,819182.1999999881,819182,,819181.299999997,,819182.121,8,400,,,
break_continue,html.Screen,4_126_2,2023-09-12T21:54:51.948Z,,0,,,NaN,,,,,,false,,,,819182.599999994,819182.5,,819182.3999999911,,819182.121,8,400,,,
sequence,flow.Sequence,4_126,2023-09-12T21:54:51.948Z,,0,,,2867.2569999999832,completion,,,,,false,,,,819182.799999997,819182.5,816298.576,816310.1999999881,816315.243,819182.121,8,400,,,
trial,html.Screen,4_127_0,2023-09-12T21:54:54.794Z,,0,3,,2846.4789999939967,response,ISIC_0056339.JPG,13,ISIC_0028698.JPG,ISIC_0028698.JPG,false,0,keypress(z),500,822028.8999999911,822028.599999994,819165.454,819182.8999999911,819182.121,822032.305,8,400,28,,ISIC_0056339.JPG
