sender,sender_type,sender_id,timestamp,meta,,blockNo,condition,duration,ended_on,img_left,img_reveal,img_right,loser,practice,response,response_action,selection_duration,time_commit,time_end,time_render,time_run,time_show,time_switch,total_blocks,total_trials,trialNo,url,winner
informed_consent,html.Screen,0,2023-10-31T05:07:43.983Z,"{""labjs_version"":""20.2.4"",""labjs_build"":{""flavor"":""production"",""commit"":""f5b4a49f956347addd546a832a3327688c2c0fef""},""location"":""https://run.pavlovia.org/MurrayBennett/melanoma-2afc/?participant=67656&platform=sona"",""userAgent"":""Mozilla/5.0 (Windows NT 10.0; Win64; x64) AppleWebKit/537.36 (KHTML, like Gecko) Chrome/118.0.0.0 Safari/537.36"",""platform"":""Win32"",""language"":""en-US"",""locale"":""en-US"",""timeZone"":""America/Chicago"",""timezoneOffset"":300,""screen_width"":1280,""screen_height"":720,""scroll_width"":1280,""scroll_height"":595,""window_innerWidth"":1280,""window_innerHeight"":595,""devicePixelRatio"":1.5}",,,,2538.2890000476837,response,,,,,,consent,click button,,5858.5,5856.700000047684,3051.714,3319.2000000476837,3318.411,5868.418,,,,"{""participant"":""67656"",""platform"":""sona""}",
Welcome,html.Screen,1,2023-10-31T05:07:47.702Z,,,,symmetry,3708.0820000000003,response,,,,,,continue,click button,,9577.899999976158,9576.5,5851.731,5858.700000047684,5868.418,9585.17,,,,,
trial,html.Screen,2_0_0,2023-10-31T05:07:54.095Z,,0,0,,6385.530000047684,response,ISIC_0069348.JPG,,ISIC_6997061.JPG,ISIC_0069348.JPG,true,1,keypress(m),500,15971,15970.700000047684,9568.687,9578.399999976158,9585.17,15985.265,1,6,1,,ISIC_6997061.JPG
sequence,flow.Sequence,2_0,2023-10-31T05:07:54.096Z,,0,,,6385.530000047684,completion,,,,,true,,,,15971.5,15970.700000047684,9568.687,9578.299999952316,9585.17,15985.265,1,6,,,
trial,html.Screen,2_1_0,2023-10-31T05:07:58.883Z,,0,0,,4773.034999952317,response,ISIC_0057368.JPG,,ISIC_0009529.JPG,ISIC_0057368.JPG,true,1,keypress(m),500,20758.600000023842,20758.299999952316,15968.985,15971.600000023842,15985.265,20768.99,1,6,2,,ISIC_0009529.JPG
sequence,flow.Sequence,2_1,2023-10-31T05:07:58.883Z,,0,,,4773.034999952317,completion,,,,,true,,,,20758.799999952316,20758.299999952316,15968.985,15971.600000023842,15985.265,20768.99,1,6,,,
trial,html.Screen,2_2_0,2023-10-31T05:08:03.190Z,,0,0,,4296.61000002384,response,ISIC_0064954.JPG,,ISIC_9758671.JPG,ISIC_9758671.JPG,true,0,keypress(z),500,25065.799999952316,25065.600000023842,20752.396,20758.899999976158,20768.99,25068.767,1,6,3,,ISIC_0064954.JPG
sequence,flow.Sequence,2_2,2023-10-31T05:08:03.190Z,,0,,,4296.61000002384,completion,,,,,true,,,,25066.200000047684,25065.600000023842,20752.396,20758.899999976158,20768.99,25068.767,1,6,,,
trial,html.Screen,2_3_0,2023-10-31T05:08:07.219Z,,0,0,,4023.1329999761583,response,ISIC_0005785.JPG,,ISIC_0000080.JPG,ISIC_0005785.JPG,true,1,keypress(m),500,29092.200000047684,29091.899999976158,25052.737,25066.399999976158,25068.767,29102.168,1,6,4,,ISIC_0000080.JPG
sequence,flow.Sequence,2_3,2023-10-31T05:08:07.219Z,,0,,,4023.1329999761583,completion,,,,,true,,,,29092.600000023842,29091.899999976158,25052.737,25066.399999976158,25068.767,29102.168,1,6,,,
trial,html.Screen,2_4_0,2023-10-31T05:08:10.090Z,,0,0,,2860.131999952315,response,ISIC_7944028.JPG,,ISIC_5390060.JPG,ISIC_5390060.JPG,true,0,keypress(z),500,31962.700000047684,31962.299999952316,29085.96,29092.799999952316,29102.168,31968.816,1,6,5,,ISIC_7944028.JPG
sequence,flow.Sequence,2_4,2023-10-31T05:08:10.090Z,,0,,,2860.131999952315,completion,,,,,true,,,,31963,31962.299999952316,29085.96,29092.700000047684,29102.168,31968.816,1,6,,,
trial,html.Screen,2_5_0,2023-10-31T05:08:13.107Z,,0,0,,3011.384000047685,response,ISIC_0794216.JPG,,ISIC_0010188.JPG,ISIC_0010188.JPG,true,0,keypress(z),500,34980.5,34980.200000047684,31952.136,31963.100000023842,31968.816,34986.014,1,6,6,,ISIC_0794216.JPG
sequence,flow.Sequence,2_5,2023-10-31T05:08:13.108Z,,0,,,3011.384000047685,completion,,,,,true,,,,34980.799999952316,34980.200000047684,31952.136,31963,31968.816,34986.014,1,6,,,
loop,flow.Loop,2,2023-10-31T05:08:13.108Z,,,,,25395.030000047685,completion,,,,,true,,,,34981.10000002384,34980.200000047684,9568.687,9578.200000047684,9585.17,34986.014,1,6,,,
exp_instructions,html.Screen,3,2023-10-31T05:08:15.115Z,,,,,2001.2859999523134,response,,,,,,continue,keypress(Space),,36988.299999952316,36987.299999952316,34968.8,34981.299999952316,34986.014,37002.481,,,,,
trial,html.Screen,4_0_0,2023-10-31T05:08:20.883Z,,0,1,,5753.3189999523165,response,ISIC_2424673.JPG,7,ISIC_0031494.JPG,ISIC_0031494.JPG,false,0,keypress(z),500,42755.89999997616,42755.799999952316,36986.505,36988.60000002384,37002.481,42769.034,8,400,1,,ISIC_2424673.JPG
break,html.Screen,4_0_1,2023-10-31T05:08:20.883Z,,0,,,NaN,,,,,,false,,,,42756.5,42756.39999997616,,42756.10000002384,,42769.034,8,400,,,
break_continue,html.Screen,4_0_2,2023-10-31T05:08:20.884Z,,0,,,NaN,,,,,,false,,,,42756.700000047684,42756.60000002384,,42756.60000002384,,42769.034,8,400,,,
sequence,flow.Sequence,4_0,2023-10-31T05:08:20.884Z,,0,,,5754.119000023842,completion,,,,,false,,,,42756.799999952316,42756.60000002384,36986.505,36988.5,37002.481,42769.034,8,400,,,
trial,html.Screen,4_1_0,2023-10-31T05:08:24.071Z,,0,1,,3174.666000047684,response,ISIC_5239856.JPG,6,ISIC_0026292.JPG,ISIC_0026292.JPG,false,0,keypress(z),500,45943.799999952316,45943.700000047684,42752.382,42756.799999952316,42769.034,45952.349,8,400,2,,ISIC_5239856.JPG
break,html.Screen,4_1_1,2023-10-31T05:08:24.072Z,,0,,,NaN,,,,,,false,,,,45944.799999952316,45944.39999997616,,45944.10000002384,,45952.349,8,400,,,
break_continue,html.Screen,4_1_2,2023-10-31T05:08:24.072Z,,0,,,NaN,,,,,,false,,,,45945.200000047684,45945.10000002384,,45945,,45952.349,8,400,,,
sequence,flow.Sequence,4_1,2023-10-31T05:08:24.072Z,,0,,,3176.066000023842,completion,,,,,false,,,,45945.299999952316,45945.10000002384,42752.382,42756.799999952316,42769.034,45952.349,8,400,,,
trial,html.Screen,4_2_0,2023-10-31T05:08:30.320Z,,0,1,,6240.351000047682,response,ISIC_6868089.JPG,11,ISIC_7212271.JPG,ISIC_7212271.JPG,false,0,keypress(z),500,52193,52192.700000047684,45936.479,45945.60000002384,45952.349,52202.444,8,400,3,,ISIC_6868089.JPG
break,html.Screen,4_2_1,2023-10-31T05:08:30.321Z,,0,,,NaN,,,,,,false,,,,52194,52193.60000002384,,52193.200000047684,,52202.444,8,400,,,
break_continue,html.Screen,4_2_2,2023-10-31T05:08:30.321Z,,0,,,NaN,,,,,,false,,,,52194.39999997616,52194.200000047684,,52194.200000047684,,52202.444,8,400,,,
sequence,flow.Sequence,4_2,2023-10-31T05:08:30.321Z,,0,,,6241.851000047682,completion,,,,,false,,,,52194.5,52194.200000047684,45936.479,45945.5,45952.349,52202.444,8,400,,,
trial,html.Screen,4_3_0,2023-10-31T05:08:33.126Z,,0,1,,2796.7560000476806,response,ISIC_5648111.JPG,6,ISIC_0046622.JPG,ISIC_0046622.JPG,false,0,keypress(z),500,54999.39999997616,54999.200000047684,52186.537,52194.60000002384,52202.444,55002.522,8,400,4,,ISIC_5648111.JPG
break,html.Screen,4_3_1,2023-10-31T05:08:33.127Z,,0,,,NaN,,,,,,false,,,,55000.200000047684,54999.89999997616,,54999.60000002384,,55002.522,8,400,,,
break_continue,html.Screen,4_3_2,2023-10-31T05:08:33.127Z,,0,,,NaN,,,,,,false,,,,55000.60000002384,55000.5,,55000.39999997616,,55002.522,8,400,,,
sequence,flow.Sequence,4_3,2023-10-31T05:08:33.128Z,,0,,,2798.055999999997,completion,,,,,false,,,,55000.700000047684,55000.5,52186.537,52194.60000002384,52202.444,55002.522,8,400,,,
trial,html.Screen,4_4_0,2023-10-31T05:08:35.962Z,,0,1,,2832.277999952319,response,ISIC_2438917.JPG,11,ISIC_4357596.JPG,ISIC_4357596.JPG,false,0,keypress(z),500,57835,57834.799999952316,54986.533,55000.89999997616,55002.522,57858.915,8,400,5,,ISIC_2438917.JPG
break,html.Screen,4_4_1,2023-10-31T05:08:35.963Z,,0,,,NaN,,,,,,false,,,,57835.799999952316,57835.5,,57835.299999952316,,57858.915,8,400,,,
break_continue,html.Screen,4_4_2,2023-10-31T05:08:35.963Z,,0,,,NaN,,,,,,false,,,,57836.299999952316,57836.299999952316,,57836,,57858.915,8,400,,,
sequence,flow.Sequence,4_4,2023-10-31T05:08:35.963Z,,0,,,2833.777999952319,completion,,,,,false,,,,57836.5,57836.299999952316,54986.533,55000.799999952316,55002.522,57858.915,8,400,,,
trial,html.Screen,4_5_0,2023-10-31T05:08:38.981Z,,0,1,,2994.4849999761573,response,ISIC_0753112.JPG,6,ISIC_0011064.JPG,ISIC_0753112.JPG,false,1,keypress(m),500,60853.700000047684,60853.39999997616,57819.282,57836.60000002384,57858.915,60869.497,8,400,6,,ISIC_0011064.JPG
break,html.Screen,4_5_1,2023-10-31T05:08:38.981Z,,0,,,NaN,,,,,,false,,,,60854.39999997616,60854.10000002384,,60853.799999952316,,60869.497,8,400,,,
break_continue,html.Screen,4_5_2,2023-10-31T05:08:38.982Z,,0,,,NaN,,,,,,false,,,,60854.799999952316,60854.700000047684,,60854.5,,60869.497,8,400,,,
sequence,flow.Sequence,4_5,2023-10-31T05:08:38.982Z,,0,,,2995.785000047683,completion,,,,,false,,,,60854.89999997616,60854.700000047684,57819.282,57836.60000002384,57858.915,60869.497,8,400,,,
trial,html.Screen,4_6_0,2023-10-31T05:08:41.500Z,,0,1,,2502.902999976155,response,ISIC_3520750.JPG,8,ISIC_0005006.JPG,ISIC_0005006.JPG,false,0,keypress(z),500,63372.60000002384,63372.39999997616,60853.249,60855.10000002384,60869.497,63386.618,8,400,7,,ISIC_3520750.JPG
break,html.Screen,4_6_1,2023-10-31T05:08:41.501Z,,0,,,NaN,,,,,,false,,,,63373.700000047684,63373.200000047684,,63372.799999952316,,63386.618,8,400,,,
break_continue,html.Screen,4_6_2,2023-10-31T05:08:41.501Z,,0,,,NaN,,,,,,false,,,,63373.89999997616,63373.89999997616,,63373.700000047684,,63386.618,8,400,,,
sequence,flow.Sequence,4_6,2023-10-31T05:08:41.501Z,,0,,,2504.402999976155,completion,,,,,false,,,,63374.10000002384,63373.89999997616,60853.249,60854.89999997616,60869.497,63386.618,8,400,,,
trial,html.Screen,4_7_0,2023-10-31T05:08:44.162Z,,0,1,,2647.881999999998,response,ISIC_0024481.JPG,4,ISIC_0070215.JPG,ISIC_0070215.JPG,false,0,keypress(z),500,66034.70000004768,66034.5,63370.011,63374.200000047684,63386.618,66058.829,8,400,8,,ISIC_0024481.JPG
break,html.Screen,4_7_1,2023-10-31T05:08:44.163Z,,0,,,NaN,,,,,,false,,,,66035.79999995232,66035.29999995232,,66034.89999997616,,66058.829,8,400,,,
break_continue,html.Screen,4_7_2,2023-10-31T05:08:44.163Z,,0,,,NaN,,,,,,false,,,,66036.20000004768,66036,,66035.89999997616,,66058.829,8,400,,,
sequence,flow.Sequence,4_7,2023-10-31T05:08:44.163Z,,0,,,2649.381999999998,completion,,,,,false,,,,66036.39999997616,66036,63370.011,63374.200000047684,63386.618,66058.829,8,400,,,
trial,html.Screen,4_8_0,2023-10-31T05:08:47.308Z,,0,1,,3121.5709999761602,response,ISIC_7766007.JPG,4,ISIC_0060355.JPG,ISIC_0060355.JPG,false,0,keypress(z),500,69180.70000004768,69180.39999997616,66019.49,66036.39999997616,66058.829,69186.027,8,400,9,,ISIC_7766007.JPG
break,html.Screen,4_8_1,2023-10-31T05:08:47.309Z,,0,,,NaN,,,,,,false,,,,69181.70000004768,69181.20000004768,,69180.89999997616,,69186.027,8,400,,,
break_continue,html.Screen,4_8_2,2023-10-31T05:08:47.309Z,,0,,,NaN,,,,,,false,,,,69182.10000002384,69182,,69181.89999997616,,69186.027,8,400,,,
sequence,flow.Sequence,4_8,2023-10-31T05:08:47.309Z,,0,,,3123.171000000002,completion,,,,,false,,,,69182.29999995232,69182,66019.49,66036.39999997616,66058.829,69186.027,8,400,,,
trial,html.Screen,4_9_0,2023-10-31T05:08:49.841Z,,0,1,,2527.3729999761563,response,ISIC_0012063.JPG,9,ISIC_2260249.JPG,ISIC_0012063.JPG,false,1,keypress(m),500,71713.89999997616,71713.39999997616,69169.951,69182.39999997616,69186.027,71719.368,8,400,10,,ISIC_2260249.JPG
break,html.Screen,4_9_1,2023-10-31T05:08:49.842Z,,0,,,NaN,,,,,,false,,,,71715.10000002384,71714.60000002384,,71714.20000004768,,71719.368,8,400,,,
break_continue,html.Screen,4_9_2,2023-10-31T05:08:49.842Z,,0,,,NaN,,,,,,false,,,,71715.5,71715.29999995232,,71715.20000004768,,71719.368,8,400,,,
sequence,flow.Sequence,4_9,2023-10-31T05:08:49.843Z,,0,,,2529.2729999523144,completion,,,,,false,,,,71715.70000004768,71715.29999995232,69169.951,69182.29999995232,69186.027,71719.368,8,400,,,
trial,html.Screen,4_10_0,2023-10-31T05:08:52.936Z,,0,1,,3089.531999976156,response,ISIC_7336383.JPG,11,ISIC_0033653.JPG,ISIC_0033653.JPG,false,0,keypress(z),500,74809,74808.89999997616,71708.256,71715.79999995232,71719.368,74819.56,8,400,11,,ISIC_7336383.JPG
break,html.Screen,4_10_1,2023-10-31T05:08:52.937Z,,0,,,NaN,,,,,,false,,,,74810.10000002384,74809.79999995232,,74809.29999995232,,74819.56,8,400,,,
break_continue,html.Screen,4_10_2,2023-10-31T05:08:52.937Z,,0,,,NaN,,,,,,false,,,,74810.39999997616,74810.29999995232,,74810.29999995232,,74819.56,8,400,,,
sequence,flow.Sequence,4_10,2023-10-31T05:08:52.937Z,,0,,,3090.931999952314,completion,,,,,false,,,,74810.60000002384,74810.29999995232,71708.256,71715.79999995232,71719.368,74819.56,8,400,,,
trial,html.Screen,4_11_0,2023-10-31T05:08:56.206Z,,0,1,,3259.140000047686,response,ISIC_8479104.JPG,6,ISIC_0030017.JPG,ISIC_8479104.JPG,false,1,keypress(m),500,78078.89999997616,78078.70000004768,74803.747,74810.70000004768,74819.56,78086.293,8,400,12,,ISIC_0030017.JPG
break,html.Screen,4_11_1,2023-10-31T05:08:56.207Z,,0,,,NaN,,,,,,false,,,,78079.79999995232,78079.5,,78079.20000004768,,78086.293,8,400,,,
break_continue,html.Screen,4_11_2,2023-10-31T05:08:56.207Z,,0,,,NaN,,,,,,false,,,,78080.20000004768,78080,,78079.89999997616,,78086.293,8,400,,,
sequence,flow.Sequence,4_11,2023-10-31T05:08:56.207Z,,0,,,3260.4400000000023,completion,,,,,false,,,,78080.29999995232,78080,74803.747,74810.70000004768,74819.56,78086.293,8,400,,,
trial,html.Screen,4_12_0,2023-10-31T05:08:58.834Z,,0,1,,2620.706999999995,response,ISIC_0007619.JPG,10,ISIC_6588853.JPG,ISIC_6588853.JPG,false,0,keypress(z),500,80707.39999997616,80707,78070.013,78080.39999997616,78086.293,80720.193,8,400,13,,ISIC_0007619.JPG
break,html.Screen,4_12_1,2023-10-31T05:08:58.835Z,,0,,,NaN,,,,,,false,,,,80708.5,80708.10000002384,,80707.60000002384,,80720.193,8,400,,,
break_continue,html.Screen,4_12_2,2023-10-31T05:08:58.836Z,,0,,,NaN,,,,,,false,,,,80708.79999995232,80708.70000004768,,80708.60000002384,,80720.193,8,400,,,
sequence,flow.Sequence,4_12,2023-10-31T05:08:58.836Z,,0,,,2622.4070000476786,completion,,,,,false,,,,80709,80708.70000004768,78070.013,78080.29999995232,78086.293,80720.193,8,400,,,
trial,html.Screen,4_13_0,2023-10-31T05:09:01.500Z,,0,1,,2652.3070000000007,response,ISIC_0058730.JPG,10,ISIC_0007622.JPG,ISIC_0058730.JPG,false,1,keypress(m),500,83372.70000004768,83372.5,80703.525,80709.10000002384,80720.193,83386.901,8,400,14,,ISIC_0007622.JPG
break,html.Screen,4_13_1,2023-10-31T05:09:01.501Z,,0,,,NaN,,,,,,false,,,,83373.70000004768,83373.20000004768,,83372.79999995232,,83386.901,8,400,,,
break_continue,html.Screen,4_13_2,2023-10-31T05:09:01.501Z,,0,,,NaN,,,,,,false,,,,83374,83373.89999997616,,83373.79999995232,,83386.901,8,400,,,
sequence,flow.Sequence,4_13,2023-10-31T05:09:01.501Z,,0,,,2653.706999976159,completion,,,,,false,,,,83374.20000004768,83373.89999997616,80703.525,80709.10000002384,80720.193,83386.901,8,400,,,
trial,html.Screen,4_14_0,2023-10-31T05:09:04.224Z,,0,1,,2710.099000000002,response,ISIC_0702876.JPG,8,ISIC_0070752.JPG,ISIC_0702876.JPG,false,1,keypress(m),500,86097.20000004768,86097,83370.346,83374.29999995232,83386.901,86102.937,8,400,15,,ISIC_0070752.JPG
break,html.Screen,4_14_1,2023-10-31T05:09:04.225Z,,0,,,NaN,,,,,,false,,,,86098.20000004768,86097.79999995232,,86097.39999997616,,86102.937,8,400,,,
break_continue,html.Screen,4_14_2,2023-10-31T05:09:04.225Z,,0,,,NaN,,,,,,false,,,,86098.60000002384,86098.5,,86098.39999997616,,86102.937,8,400,,,
sequence,flow.Sequence,4_14,2023-10-31T05:09:04.226Z,,0,,,2711.599000000002,completion,,,,,false,,,,86098.70000004768,86098.5,83370.346,83374.20000004768,83386.901,86102.937,8,400,,,
trial,html.Screen,4_15_0,2023-10-31T05:09:06.725Z,,0,1,,2495.0629999999946,response,ISIC_2922104.JPG,7,ISIC_0031843.JPG,ISIC_0031843.JPG,false,0,keypress(z),500,88598.20000004768,88598,86086.943,86098.79999995232,86102.937,88603.298,8,400,16,,ISIC_2922104.JPG
break,html.Screen,4_15_1,2023-10-31T05:09:06.726Z,,0,,,NaN,,,,,,false,,,,88599.20000004768,88598.79999995232,,88598.39999997616,,88603.298,8,400,,,
break_continue,html.Screen,4_15_2,2023-10-31T05:09:06.726Z,,0,,,NaN,,,,,,false,,,,88599.5,88599.39999997616,,88599.29999995232,,88603.298,8,400,,,
sequence,flow.Sequence,4_15,2023-10-31T05:09:06.727Z,,0,,,2496.462999976153,completion,,,,,false,,,,88599.60000002384,88599.39999997616,86086.943,86098.79999995232,86102.937,88603.298,8,400,,,
trial,html.Screen,4_16_0,2023-10-31T05:09:10.473Z,,0,1,,3742.601999976163,response,ISIC_0059357.JPG,12,ISIC_0046441.JPG,ISIC_0046441.JPG,false,0,keypress(z),500,92346.20000004768,92345.89999997616,88587.221,88599.70000004768,88603.298,92353.038,8,400,17,,ISIC_0059357.JPG
break,html.Screen,4_16_1,2023-10-31T05:09:10.474Z,,0,,,NaN,,,,,,false,,,,92347.39999997616,92347,,92346.60000002384,,92353.038,8,400,,,
break_continue,html.Screen,4_16_2,2023-10-31T05:09:10.475Z,,0,,,NaN,,,,,,false,,,,92347.70000004768,92347.60000002384,,92347.5,,92353.038,8,400,,,
sequence,flow.Sequence,4_16,2023-10-31T05:09:10.475Z,,0,,,3744.3020000238466,completion,,,,,false,,,,92347.89999997616,92347.60000002384,88587.221,88599.70000004768,88603.298,92353.038,8,400,,,
trial,html.Screen,4_17_0,2023-10-31T05:09:13.325Z,,0,1,,2844.5620000238414,response,ISIC_5821293.JPG,10,ISIC_0047004.JPG,ISIC_0047004.JPG,false,0,keypress(z),500,95197.70000004768,95197.60000002384,92336.413,92348,92353.038,95203.322,8,400,18,,ISIC_5821293.JPG
break,html.Screen,4_17_1,2023-10-31T05:09:13.326Z,,0,,,NaN,,,,,,false,,,,95198.79999995232,95198.29999995232,,95197.89999997616,,95203.322,8,400,,,
break_continue,html.Screen,4_17_2,2023-10-31T05:09:13.326Z,,0,,,NaN,,,,,,false,,,,95199.10000002384,95199.10000002384,,95198.89999997616,,95203.322,8,400,,,
sequence,flow.Sequence,4_17,2023-10-31T05:09:13.326Z,,0,,,2846.0620000238414,completion,,,,,false,,,,95199.29999995232,95199.10000002384,92336.413,92348,92353.038,95203.322,8,400,,,
trial,html.Screen,4_18_0,2023-10-31T05:09:15.969Z,,0,1,,2638.678,response,ISIC_6013764.JPG,5,ISIC_0046977.JPG,ISIC_0046977.JPG,false,0,keypress(z),500,97842.20000004768,97842,95186.984,95199.39999997616,95203.322,97853.432,8,400,19,,ISIC_6013764.JPG
break,html.Screen,4_18_1,2023-10-31T05:09:15.970Z,,0,,,NaN,,,,,,false,,,,97843.20000004768,97842.79999995232,,97842.39999997616,,97853.432,8,400,,,
break_continue,html.Screen,4_18_2,2023-10-31T05:09:15.970Z,,0,,,NaN,,,,,,false,,,,97843.60000002384,97843.39999997616,,97843.29999995232,,97853.432,8,400,,,
sequence,flow.Sequence,4_18,2023-10-31T05:09:15.971Z,,0,,,2640.077999976158,completion,,,,,false,,,,97843.60000002384,97843.39999997616,95186.984,95199.29999995232,95203.322,97853.432,8,400,,,
trial,html.Screen,4_19_0,2023-10-31T05:09:18.586Z,,0,1,,2605.8679999523156,response,ISIC_9323095.JPG,5,ISIC_5309572.JPG,ISIC_9323095.JPG,false,1,keypress(m),500,100459.39999997616,100459.29999995232,97837.421,97843.79999995232,97853.432,100470.09,8,400,20,,ISIC_5309572.JPG
break,html.Screen,4_19_1,2023-10-31T05:09:18.587Z,,0,,,NaN,,,,,,false,,,,100460.20000004768,100459.79999995232,,100459.60000002384,,100470.09,8,400,,,
break_continue,html.Screen,4_19_2,2023-10-31T05:09:18.588Z,,0,,,NaN,,,,,,false,,,,100460.70000004768,100460.5,,100460.39999997616,,100470.09,8,400,,,
sequence,flow.Sequence,4_19,2023-10-31T05:09:18.588Z,,0,,,2607.0679999999993,completion,,,,,false,,,,100460.89999997616,100460.5,97837.421,97843.70000004768,97853.432,100470.09,8,400,,,
trial,html.Screen,4_20_0,2023-10-31T05:09:21.070Z,,0,1,,2472.8099999761616,response,ISIC_8169564.JPG,8,ISIC_1120654.JPG,ISIC_1120654.JPG,false,0,keypress(z),500,102943.20000004768,102942.89999997616,100453.942,100461,100470.09,102953.212,8,400,21,,ISIC_8169564.JPG
break,html.Screen,4_20_1,2023-10-31T05:09:21.071Z,,0,,,NaN,,,,,,false,,,,102944.29999995232,102943.79999995232,,102943.5,,102953.212,8,400,,,
break_continue,html.Screen,4_20_2,2023-10-31T05:09:21.071Z,,0,,,NaN,,,,,,false,,,,102944.60000002384,102944.5,,102944.39999997616,,102953.212,8,400,,,
sequence,flow.Sequence,4_20,2023-10-31T05:09:21.072Z,,0,,,2474.4100000000035,completion,,,,,false,,,,102944.70000004768,102944.5,100453.942,100461,100470.09,102953.212,8,400,,,
trial,html.Screen,4_21_0,2023-10-31T05:09:24.164Z,,0,1,,3083.5879999523167,response,ISIC_0034232.JPG,8,ISIC_1476361.JPG,ISIC_1476361.JPG,false,0,keypress(z),500,106037,106036.79999995232,102936.791,102944.89999997616,102953.212,106053.474,8,400,22,,ISIC_0034232.JPG
break,html.Screen,4_21_1,2023-10-31T05:09:24.165Z,,0,,,NaN,,,,,,false,,,,106038,106037.60000002384,,106037.10000002384,,106053.474,8,400,,,
break_continue,html.Screen,4_21_2,2023-10-31T05:09:24.165Z,,0,,,NaN,,,,,,false,,,,106038.29999995232,106038.29999995232,,106038.20000004768,,106053.474,8,400,,,
sequence,flow.Sequence,4_21,2023-10-31T05:09:24.165Z,,0,,,3085.0879999523167,completion,,,,,false,,,,106038.39999997616,106038.29999995232,102936.791,102944.79999995232,102953.212,106053.474,8,400,,,
trial,html.Screen,4_22_0,2023-10-31T05:09:27.019Z,,0,1,,2838.12600002384,response,ISIC_2275181.JPG,10,ISIC_6920867.JPG,ISIC_6920867.JPG,false,0,keypress(z),500,108891.89999997616,108891.60000002384,106037.362,106038.70000004768,106053.474,108903.262,8,400,23,,ISIC_2275181.JPG
break,html.Screen,4_22_1,2023-10-31T05:09:27.020Z,,0,,,NaN,,,,,,false,,,,108892.79999995232,108892.5,,108892,,108903.262,8,400,,,
break_continue,html.Screen,4_22_2,2023-10-31T05:09:27.020Z,,0,,,NaN,,,,,,false,,,,108893.10000002384,108893.10000002384,,108892.89999997616,,108903.262,8,400,,,
sequence,flow.Sequence,4_22,2023-10-31T05:09:27.020Z,,0,,,2839.62600002384,completion,,,,,false,,,,108893.29999995232,108893.10000002384,106037.362,106038.60000002384,106053.474,108903.262,8,400,,,
trial,html.Screen,4_23_0,2023-10-31T05:09:30.479Z,,0,1,,3448.3380000238394,response,ISIC_1554992.JPG,5,ISIC_1328804.JPG,ISIC_1328804.JPG,false,0,keypress(z),500,112351.70000004768,112351.60000002384,108887.582,108893.29999995232,108903.262,112375.614,8,400,24,,ISIC_1554992.JPG
break,html.Screen,4_23_1,2023-10-31T05:09:30.480Z,,0,,,NaN,,,,,,false,,,,112352.70000004768,112352.29999995232,,112351.89999997616,,112375.614,8,400,,,
break_continue,html.Screen,4_23_2,2023-10-31T05:09:30.480Z,,0,,,NaN,,,,,,false,,,,112353,112352.89999997616,,112352.79999995232,,112375.614,8,400,,,
sequence,flow.Sequence,4_23,2023-10-31T05:09:30.480Z,,0,,,3449.6379999761557,completion,,,,,false,,,,112353.10000002384,112352.89999997616,108887.582,108893.29999995232,108903.262,112375.614,8,400,,,
trial,html.Screen,4_24_0,2023-10-31T05:09:34.360Z,,0,1,,3857.185999952315,response,ISIC_4120174.JPG,11,ISIC_3292151.JPG,ISIC_4120174.JPG,false,1,keypress(m),500,116233.10000002384,116232.79999995232,112337.055,112353.20000004768,112375.614,116236.696,8,400,25,,ISIC_3292151.JPG
break,html.Screen,4_24_1,2023-10-31T05:09:34.361Z,,0,,,NaN,,,,,,false,,,,116234.10000002384,116233.60000002384,,116233.29999995232,,116236.696,8,400,,,
break_continue,html.Screen,4_24_2,2023-10-31T05:09:34.361Z,,0,,,NaN,,,,,,false,,,,116234.39999997616,116234.29999995232,,116234.29999995232,,116236.696,8,400,,,
sequence,flow.Sequence,4_24,2023-10-31T05:09:34.361Z,,0,,,3858.685999952315,completion,,,,,false,,,,116234.5,116234.29999995232,112337.055,112353.20000004768,112375.614,116236.696,8,400,,,
trial,html.Screen,4_25_0,2023-10-31T05:09:37.102Z,,0,1,,2738.203999976162,response,ISIC_4960406.JPG,7,ISIC_0064986.JPG,ISIC_0064986.JPG,false,0,keypress(z),500,118975.10000002384,118974.89999997616,116220.73,116234.70000004768,116236.696,118987.406,8,400,26,,ISIC_4960406.JPG
break,html.Screen,4_25_1,2023-10-31T05:09:37.103Z,,0,,,NaN,,,,,,false,,,,118976,118975.60000002384,,118975.29999995232,,118987.406,8,400,,,
break_continue,html.Screen,4_25_2,2023-10-31T05:09:37.103Z,,0,,,NaN,,,,,,false,,,,118976.39999997616,118976.39999997616,,118976.20000004768,,118987.406,8,400,,,
sequence,flow.Sequence,4_25,2023-10-31T05:09:37.103Z,,0,,,2739.703999976162,completion,,,,,false,,,,118976.60000002384,118976.39999997616,116220.73,116234.60000002384,116236.696,118987.406,8,400,,,
trial,html.Screen,4_26_0,2023-10-31T05:09:39.816Z,,0,1,,2701.4939999761555,response,ISIC_6552552.JPG,7,ISIC_8704257.JPG,ISIC_8704257.JPG,false,0,keypress(z),500,121689.10000002384,121688.89999997616,118970.744,118976.70000004768,118987.406,121704.111,8,400,27,,ISIC_6552552.JPG
break,html.Screen,4_26_1,2023-10-31T05:09:39.817Z,,0,,,NaN,,,,,,false,,,,121690.20000004768,121689.70000004768,,121689.39999997616,,121704.111,8,400,,,
break_continue,html.Screen,4_26_2,2023-10-31T05:09:39.817Z,,0,,,NaN,,,,,,false,,,,121690.5,121690.39999997616,,121690.29999995232,,121704.111,8,400,,,
sequence,flow.Sequence,4_26,2023-10-31T05:09:39.817Z,,0,,,2702.9939999761555,completion,,,,,false,,,,121690.60000002384,121690.39999997616,118970.744,118976.70000004768,118987.406,121704.111,8,400,,,
trial,html.Screen,4_27_0,2023-10-31T05:09:43.548Z,,0,1,,3716.9890000238374,response,ISIC_0001745.JPG,8,ISIC_0013969.JPG,ISIC_0013969.JPG,false,0,keypress(z),500,125421.29999995232,125421.10000002384,121687.88,121690.60000002384,121704.111,125437.396,8,400,28,,ISIC_0001745.JPG
break,html.Screen,4_27_1,2023-10-31T05:09:43.549Z,,0,,,NaN,,,,,,false,,,,125422.29999995232,125421.89999997616,,125421.5,,125437.396,8,400,,,
break_continue,html.Screen,4_27_2,2023-10-31T05:09:43.550Z,,0,,,NaN,,,,,,false,,,,125422.70000004768,125422.5,,125422.39999997616,,125437.396,8,400,,,
sequence,flow.Sequence,4_27,2023-10-31T05:09:43.550Z,,0,,,3718.3889999999956,completion,,,,,false,,,,125422.89999997616,125422.5,121687.88,121690.60000002384,121704.111,125437.396,8,400,,,
trial,html.Screen,4_28_0,2023-10-31T05:09:46.741Z,,0,1,,3176.403999952323,response,ISIC_0058206.JPG,11,ISIC_0011064.JPG,ISIC_0058206.JPG,false,1,keypress(m),500,128614,128613.79999995232,125420.83,125422.89999997616,125437.396,128620.225,8,400,29,,ISIC_0011064.JPG
break,html.Screen,4_28_1,2023-10-31T05:09:46.742Z,,0,,,NaN,,,,,,false,,,,128615.10000002384,128614.60000002384,,128614.29999995232,,128620.225,8,400,,,
break_continue,html.Screen,4_28_2,2023-10-31T05:09:46.742Z,,0,,,NaN,,,,,,false,,,,128615.39999997616,128615.29999995232,,128615.10000002384,,128620.225,8,400,,,
sequence,flow.Sequence,4_28,2023-10-31T05:09:46.742Z,,0,,,3177.903999952323,completion,,,,,false,,,,128615.5,128615.29999995232,125420.83,125422.89999997616,125437.396,128620.225,8,400,,,
trial,html.Screen,4_29_0,2023-10-31T05:09:50.201Z,,0,1,,3453.5749999523105,response,ISIC_0378399.JPG,7,ISIC_0000526.JPG,ISIC_0378399.JPG,false,1,keypress(m),500,132074,132073.79999995232,128604.26,128615.60000002384,128620.225,132087.598,8,400,30,,ISIC_0000526.JPG
break,html.Screen,4_29_1,2023-10-31T05:09:50.202Z,,0,,,NaN,,,,,,false,,,,132075.10000002384,132074.5,,132074.20000004768,,132087.598,8,400,,,
break_continue,html.Screen,4_29_2,2023-10-31T05:09:50.202Z,,0,,,NaN,,,,,,false,,,,132075.39999997616,132075.20000004768,,132075.20000004768,,132087.598,8,400,,,
sequence,flow.Sequence,4_29,2023-10-31T05:09:50.202Z,,0,,,3454.975000047678,completion,,,,,false,,,,132075.5,132075.20000004768,128604.26,128615.60000002384,128620.225,132087.598,8,400,,,
trial,html.Screen,4_30_0,2023-10-31T05:09:53.490Z,,0,1,,3274.80199997616,response,ISIC_0011458.JPG,6,ISIC_0060585.JPG,ISIC_0011458.JPG,false,1,keypress(m),500,135362.70000004768,135362.39999997616,132071.232,132075.60000002384,132087.598,135387.005,8,400,31,,ISIC_0060585.JPG
break,html.Screen,4_30_1,2023-10-31T05:09:53.490Z,,0,,,NaN,,,,,,false,,,,135363.29999995232,135363.10000002384,,135362.89999997616,,135387.005,8,400,,,
break_continue,html.Screen,4_30_2,2023-10-31T05:09:53.490Z,,0,,,NaN,,,,,,false,,,,135363.60000002384,135363.5,,135363.39999997616,,135387.005,8,400,,,
sequence,flow.Sequence,4_30,2023-10-31T05:09:53.491Z,,0,,,3275.902000000002,completion,,,,,false,,,,135363.70000004768,135363.5,132071.232,132075.5,132087.598,135387.005,8,400,,,
trial,html.Screen,4_31_0,2023-10-31T05:09:56.342Z,,0,1,,2827.9949999999953,response,ISIC_5641619.JPG,10,ISIC_0054568.JPG,ISIC_0054568.JPG,false,0,keypress(z),500,138215.29999995232,138215,135370.525,135363.79999995232,135387.005,138220.34,8,400,32,,ISIC_5641619.JPG
break,html.Screen,4_31_1,2023-10-31T05:09:56.343Z,,0,,,NaN,,,,,,false,,,,138216.29999995232,138215.89999997616,,138215.60000002384,,138220.34,8,400,,,
break_continue,html.Screen,4_31_2,2023-10-31T05:09:56.343Z,,0,,,NaN,,,,,,false,,,,138216.60000002384,138216.5,,138216.39999997616,,138220.34,8,400,,,
sequence,flow.Sequence,4_31,2023-10-31T05:09:56.344Z,,0,,,2829.4949999999953,completion,,,,,false,,,,138216.70000004768,138216.5,135370.525,135363.79999995232,135387.005,138220.34,8,400,,,
trial,html.Screen,4_32_0,2023-10-31T05:10:00.681Z,,0,1,,4333.760000023845,response,ISIC_0033708.JPG,10,ISIC_0057692.JPG,ISIC_0033708.JPG,false,1,keypress(m),500,142554.5,142554.10000002384,138204.074,138216.89999997616,138220.34,142570.686,8,400,33,,ISIC_0057692.JPG
break,html.Screen,4_32_1,2023-10-31T05:10:00.682Z,,0,,,NaN,,,,,,false,,,,142555.29999995232,142555.10000002384,,142554.79999995232,,142570.686,8,400,,,
break_continue,html.Screen,4_32_2,2023-10-31T05:10:00.683Z,,0,,,NaN,,,,,,false,,,,142555.79999995232,142555.60000002384,,142555.5,,142570.686,8,400,,,
sequence,flow.Sequence,4_32,2023-10-31T05:10:00.683Z,,0,,,4335.260000023845,completion,,,,,false,,,,142556,142555.60000002384,138204.074,138216.89999997616,138220.34,142570.686,8,400,,,
trial,html.Screen,4_33_0,2023-10-31T05:10:12.181Z,,0,1,,11516.821000000025,timeout,ISIC_9260499.JPG,8,ISIC_0065039.JPG,,false,,,500,154054.39999997616,154054.20000004768,142554.569,142556.20000004768,142570.686,154087.507,8,400,34,,
break,html.Screen,4_33_1,2023-10-31T05:10:12.182Z,,0,,,NaN,,,,,,false,,,,154054.70000004768,154054.70000004768,,154054.5,,154087.507,8,400,,,
break_continue,html.Screen,4_33_2,2023-10-31T05:10:12.182Z,,0,,,NaN,,,,,,false,,,,154054.89999997616,154054.89999997616,,154054.89999997616,,154087.507,8,400,,,
sequence,flow.Sequence,4_33,2023-10-31T05:10:12.182Z,,0,,,11484.213999976171,completion,,,,,false,,,,154055,154054.89999997616,142554.569,142556.10000002384,142570.686,154087.507,8,400,,,
trial,html.Screen,4_34_0,2023-10-31T05:10:23.699Z,,0,1,,11516.90399999998,timeout,ISIC_0025139.JPG,8,ISIC_0001135.JPG,,false,,,500,165572.20000004768,165571.89999997616,154071.189,154055.10000002384,154087.507,165604.411,8,400,35,,
break,html.Screen,4_34_1,2023-10-31T05:10:23.700Z,,0,,,NaN,,,,,,false,,,,165572.79999995232,165572.70000004768,,165572.39999997616,,165604.411,8,400,,,
break_continue,html.Screen,4_34_2,2023-10-31T05:10:23.700Z,,0,,,NaN,,,,,,false,,,,165573.10000002384,165573.10000002384,,165572.89999997616,,165604.411,8,400,,,
sequence,flow.Sequence,4_34,2023-10-31T05:10:23.700Z,,0,,,11485.59300002383,completion,,,,,false,,,,165573.29999995232,165573.10000002384,154071.189,154055.10000002384,154087.507,165604.411,8,400,,,
trial,html.Screen,4_35_0,2023-10-31T05:10:25.754Z,,0,1,,2022.4889999761654,response,ISIC_2256461.JPG,9,ISIC_0011949.JPG,ISIC_0011949.JPG,false,0,keypress(z),500,167627.20000004768,167626.89999997616,165588.203,165573.39999997616,165604.411,167637.436,8,400,36,,ISIC_2256461.JPG
break,html.Screen,4_35_1,2023-10-31T05:10:25.755Z,,0,,,NaN,,,,,,false,,,,167628.29999995232,167628,,167627.39999997616,,167637.436,8,400,,,
break_continue,html.Screen,4_35_2,2023-10-31T05:10:25.755Z,,0,,,NaN,,,,,,false,,,,167628.60000002384,167628.5,,167628.39999997616,,167637.436,8,400,,,
sequence,flow.Sequence,4_35,2023-10-31T05:10:25.756Z,,0,,,2024.0890000000072,completion,,,,,false,,,,167628.70000004768,167628.5,165588.203,165573.29999995232,165604.411,167637.436,8,400,,,
trial,html.Screen,4_36_0,2023-10-31T05:10:33.253Z,,0,1,,7488.164000023855,response,ISIC_0029281.JPG,10,ISIC_1714941.JPG,ISIC_0029281.JPG,false,1,keypress(m),500,175125.89999997616,175125.60000002384,167621.64,167628.79999995232,167637.436,175138.212,8,400,37,,ISIC_1714941.JPG
break,html.Screen,4_36_1,2023-10-31T05:10:33.254Z,,0,,,NaN,,,,,,false,,,,175126.79999995232,175126.5,,175126,,175138.212,8,400,,,
break_continue,html.Screen,4_36_2,2023-10-31T05:10:33.254Z,,0,,,NaN,,,,,,false,,,,175127.20000004768,175127,,175126.89999997616,,175138.212,8,400,,,
sequence,flow.Sequence,4_36,2023-10-31T05:10:33.254Z,,0,,,7489.564000000013,completion,,,,,false,,,,175127.29999995232,175127,167621.64,167628.79999995232,167637.436,175138.212,8,400,,,
trial,html.Screen,4_37_0,2023-10-31T05:10:36.284Z,,0,1,,3019.0879999523167,response,ISIC_5994286.JPG,11,ISIC_5298608.JPG,ISIC_5298608.JPG,false,0,keypress(z),500,178157.39999997616,178157.29999995232,175122.148,175127.39999997616,175138.212,178171.586,8,400,38,,ISIC_5994286.JPG
break,html.Screen,4_37_1,2023-10-31T05:10:36.285Z,,0,,,NaN,,,,,,false,,,,178158.39999997616,178158,,178157.60000002384,,178171.586,8,400,,,
break_continue,html.Screen,4_37_2,2023-10-31T05:10:36.286Z,,0,,,NaN,,,,,,false,,,,178158.79999995232,178158.60000002384,,178158.60000002384,,178171.586,8,400,,,
sequence,flow.Sequence,4_37,2023-10-31T05:10:36.286Z,,0,,,3020.3880000238423,completion,,,,,false,,,,178158.89999997616,178158.60000002384,175122.148,175127.29999995232,175138.212,178171.586,8,400,,,
trial,html.Screen,4_38_0,2023-10-31T05:10:39.039Z,,0,1,,2740.6140000476735,response,ISIC_4721599.JPG,6,ISIC_2843983.JPG,ISIC_2843983.JPG,false,0,keypress(z),500,180912.5,180912.20000004768,178154.952,178159,178171.586,180920.989,8,400,39,,ISIC_4721599.JPG
break,html.Screen,4_38_1,2023-10-31T05:10:39.041Z,,0,,,NaN,,,,,,false,,,,180913.70000004768,180913.29999995232,,180912.89999997616,,180920.989,8,400,,,
break_continue,html.Screen,4_38_2,2023-10-31T05:10:39.041Z,,0,,,NaN,,,,,,false,,,,180914.10000002384,180913.89999997616,,180913.79999995232,,180920.989,8,400,,,
sequence,flow.Sequence,4_38,2023-10-31T05:10:39.041Z,,0,,,2742.313999976148,completion,,,,,false,,,,180914.20000004768,180913.89999997616,178154.952,178159,178171.586,180920.989,8,400,,,
trial,html.Screen,4_39_0,2023-10-31T05:10:41.979Z,,0,1,,2930.810999952315,response,ISIC_0059976.JPG,10,ISIC_0482585.JPG,ISIC_0482585.JPG,false,0,keypress(z),500,183852.10000002384,183851.79999995232,180904.78,180914.39999997616,180920.989,183854.33,8,400,40,,ISIC_0059976.JPG
break,html.Screen,4_39_1,2023-10-31T05:10:41.980Z,,0,,,NaN,,,,,,false,,,,183853.10000002384,183852.60000002384,,183852.29999995232,,183854.33,8,400,,,
break_continue,html.Screen,4_39_2,2023-10-31T05:10:41.980Z,,0,,,NaN,,,,,,false,,,,183853.5,183853.29999995232,,183853.20000004768,,183854.33,8,400,,,
sequence,flow.Sequence,4_39,2023-10-31T05:10:41.980Z,,0,,,2932.310999952315,completion,,,,,false,,,,183853.60000002384,183853.29999995232,180904.78,180914.39999997616,180920.989,183854.33,8,400,,,
trial,html.Screen,4_40_0,2023-10-31T05:10:46.229Z,,0,1,,4248.069999976171,response,ISIC_0012067.JPG,8,ISIC_0069274.JPG,ISIC_0012067.JPG,false,1,keypress(m),500,188102.60000002384,188102.39999997616,183838.511,183853.70000004768,183854.33,188121.72,8,400,41,,ISIC_0069274.JPG
break,html.Screen,4_40_1,2023-10-31T05:10:46.230Z,,0,,,NaN,,,,,,false,,,,188103.20000004768,188103,,188102.70000004768,,188121.72,8,400,,,
break_continue,html.Screen,4_40_2,2023-10-31T05:10:46.230Z,,0,,,NaN,,,,,,false,,,,188103.5,188103.39999997616,,188103.29999995232,,188121.72,8,400,,,
sequence,flow.Sequence,4_40,2023-10-31T05:10:46.230Z,,0,,,4249.069999976171,completion,,,,,false,,,,188103.60000002384,188103.39999997616,183838.511,183853.70000004768,183854.33,188121.72,8,400,,,
trial,html.Screen,4_41_0,2023-10-31T05:10:53.179Z,,0,1,,6930.079999952315,response,ISIC_6381785.JPG,4,ISIC_0014190.JPG,ISIC_0014190.JPG,false,0,keypress(z),500,195051.89999997616,195051.79999995232,188104.419,188103.70000004768,188121.72,195054.475,8,400,42,,ISIC_6381785.JPG
break,html.Screen,4_41_1,2023-10-31T05:10:53.180Z,,0,,,NaN,,,,,,false,,,,195053,195052.5,,195052.20000004768,,195054.475,8,400,,,
break_continue,html.Screen,4_41_2,2023-10-31T05:10:53.180Z,,0,,,NaN,,,,,,false,,,,195053.29999995232,195053.29999995232,,195053.10000002384,,195054.475,8,400,,,
sequence,flow.Sequence,4_41,2023-10-31T05:10:53.180Z,,0,,,6931.579999952315,completion,,,,,false,,,,195053.5,195053.29999995232,188104.419,188103.70000004768,188121.72,195054.475,8,400,,,
trial,html.Screen,4_42_0,2023-10-31T05:10:58.838Z,,0,1,,5656.8249999523105,response,ISIC_2375394.JPG,8,ISIC_0006717.JPG,ISIC_0006717.JPG,false,0,keypress(z),500,200711.60000002384,200711.29999995232,195038.244,195053.60000002384,195054.475,200721.241,8,400,43,,ISIC_2375394.JPG
break,html.Screen,4_42_1,2023-10-31T05:10:58.839Z,,0,,,NaN,,,,,,false,,,,200712.60000002384,200712.20000004768,,200711.79999995232,,200721.241,8,400,,,
break_continue,html.Screen,4_42_2,2023-10-31T05:10:58.840Z,,0,,,NaN,,,,,,false,,,,200713,200712.79999995232,,200712.70000004768,,200721.241,8,400,,,
sequence,flow.Sequence,4_42,2023-10-31T05:10:58.840Z,,0,,,5658.3249999523105,completion,,,,,false,,,,200713.10000002384,200712.79999995232,195038.244,195053.5,195054.475,200721.241,8,400,,,
trial,html.Screen,4_43_0,2023-10-31T05:11:05.904Z,,0,1,,7055.658999976149,response,ISIC_0010350.JPG,6,ISIC_1831600.JPG,ISIC_1831600.JPG,false,0,keypress(z),500,207777.20000004768,207776.89999997616,200704.739,200713.10000002384,200721.241,207788.3,8,400,44,,ISIC_0010350.JPG
break,html.Screen,4_43_1,2023-10-31T05:11:05.905Z,,0,,,NaN,,,,,,false,,,,207778,207777.70000004768,,207777.39999997616,,207788.3,8,400,,,
break_continue,html.Screen,4_43_2,2023-10-31T05:11:05.905Z,,0,,,NaN,,,,,,false,,,,207778.60000002384,207778.5,,207778.29999995232,,207788.3,8,400,,,
sequence,flow.Sequence,4_43,2023-10-31T05:11:05.906Z,,0,,,7057.258999999991,completion,,,,,false,,,,207778.79999995232,207778.5,200704.739,200713.10000002384,200721.241,207788.3,8,400,,,
trial,html.Screen,4_44_0,2023-10-31T05:11:08.632Z,,0,1,,2716.3000000238535,response,ISIC_0062301.JPG,7,ISIC_1387456.JPG,ISIC_0062301.JPG,false,1,keypress(m),500,210504.79999995232,210504.60000002384,207771.85,207778.89999997616,207788.3,210538.123,8,400,45,,ISIC_1387456.JPG
break,html.Screen,4_44_1,2023-10-31T05:11:08.633Z,,0,,,NaN,,,,,,false,,,,210505.89999997616,210505.39999997616,,210505,,210538.123,8,400,,,
break_continue,html.Screen,4_44_2,2023-10-31T05:11:08.633Z,,0,,,NaN,,,,,,false,,,,210506.20000004768,210506.10000002384,,210505.89999997616,,210538.123,8,400,,,
sequence,flow.Sequence,4_44,2023-10-31T05:11:08.633Z,,0,,,2717.8000000238535,completion,,,,,false,,,,210506.39999997616,210506.10000002384,207771.85,207778.89999997616,207788.3,210538.123,8,400,,,
trial,html.Screen,4_45_0,2023-10-31T05:11:11.423Z,,0,1,,2757.3770000000077,response,ISIC_0025783.JPG,6,ISIC_7809510.JPG,ISIC_7809510.JPG,false,0,keypress(z),500,213295.70000004768,213295.5,210521.736,210506.5,210538.123,213304.799,8,400,46,,ISIC_0025783.JPG
break,html.Screen,4_45_1,2023-10-31T05:11:11.423Z,,0,,,NaN,,,,,,false,,,,213296.60000002384,213296.20000004768,,213295.89999997616,,213304.799,8,400,,,
break_continue,html.Screen,4_45_2,2023-10-31T05:11:11.424Z,,0,,,NaN,,,,,,false,,,,213297,213296.89999997616,,213296.79999995232,,213304.799,8,400,,,
sequence,flow.Sequence,4_45,2023-10-31T05:11:11.424Z,,0,,,2758.776999976166,completion,,,,,false,,,,213297.10000002384,213296.89999997616,210521.736,210506.39999997616,210538.123,213304.799,8,400,,,
trial,html.Screen,4_46_0,2023-10-31T05:11:15.240Z,,0,1,,3807.801000023843,response,ISIC_9765024.JPG,8,ISIC_5099569.JPG,ISIC_9765024.JPG,false,1,keypress(m),500,217112.79999995232,217112.60000002384,213288.048,213297.20000004768,213304.799,217121.467,8,400,47,,ISIC_5099569.JPG
break,html.Screen,4_46_1,2023-10-31T05:11:15.241Z,,0,,,NaN,,,,,,false,,,,217113.89999997616,217113.39999997616,,217113.10000002384,,217121.467,8,400,,,
break_continue,html.Screen,4_46_2,2023-10-31T05:11:15.241Z,,0,,,NaN,,,,,,false,,,,217114.20000004768,217114.10000002384,,217114,,217121.467,8,400,,,
sequence,flow.Sequence,4_46,2023-10-31T05:11:15.241Z,,0,,,3809.301000023843,completion,,,,,false,,,,217114.39999997616,217114.10000002384,213288.048,213297.20000004768,213304.799,217121.467,8,400,,,
trial,html.Screen,4_47_0,2023-10-31T05:11:17.917Z,,0,1,,2668.032999999996,response,ISIC_0046693.JPG,7,ISIC_5959795.JPG,ISIC_5959795.JPG,false,0,keypress(z),500,219789.79999995232,219789.5,217105.676,217114.39999997616,217121.467,219805.543,8,400,48,,ISIC_0046693.JPG
break,html.Screen,4_47_1,2023-10-31T05:11:17.918Z,,0,,,NaN,,,,,,false,,,,219790.79999995232,219790.29999995232,,219790,,219805.543,8,400,,,
break_continue,html.Screen,4_47_2,2023-10-31T05:11:17.918Z,,0,,,NaN,,,,,,false,,,,219791.10000002384,219791,,219790.89999997616,,219805.543,8,400,,,
sequence,flow.Sequence,4_47,2023-10-31T05:11:17.918Z,,0,,,2669.532999999996,completion,,,,,false,,,,219791.29999995232,219791,217105.676,217114.39999997616,217121.467,219805.543,8,400,,,
trial,html.Screen,4_48_0,2023-10-31T05:11:20.471Z,,0,1,,2538.256999952311,response,ISIC_0256926.JPG,10,ISIC_0011947.JPG,ISIC_0011947.JPG,false,0,keypress(z),500,222344,222343.79999995232,219788.357,219791.29999995232,219805.543,222355.522,8,400,49,,ISIC_0256926.JPG
break,html.Screen,4_48_1,2023-10-31T05:11:20.471Z,,0,,,NaN,,,,,,false,,,,222344.60000002384,222344.39999997616,,222344.20000004768,,222355.522,8,400,,,
break_continue,html.Screen,4_48_2,2023-10-31T05:11:20.472Z,,0,,,NaN,,,,,,false,,,,222345,222344.89999997616,,222344.79999995232,,222355.522,8,400,,,
sequence,flow.Sequence,4_48,2023-10-31T05:11:20.472Z,,0,,,2539.356999976153,completion,,,,,false,,,,222345.20000004768,222344.89999997616,219788.357,219791.29999995232,219805.543,222355.522,8,400,,,
trial,html.Screen,4_49_0,2023-10-31T05:11:23.277Z,,0,1,,2794.0780000238447,response,ISIC_0031213.JPG,9,ISIC_3072382.JPG,ISIC_3072382.JPG,false,0,keypress(z),500,225149.79999995232,225149.60000002384,222338.987,222345.20000004768,222355.522,225154.896,8,400,50,,ISIC_0031213.JPG
break,html.Screen,4_49_1,2023-10-31T05:11:33.267Z,,0,,,10000.837,timeout,,,,,false,,,,235139.89999997616,235139.116,225138.679,225150.10000002384,225154.896,235155.733,8,400,,,
break_continue,html.Screen,4_49_2,2023-10-31T05:11:33.975Z,,0,,,675.5669999523088,response,,,,,false,continue,keypress(Space),,235848,235831.29999995232,235139.116,235140,235155.733,235855.082,8,400,,,
sequence,flow.Sequence,4_49,2023-10-31T05:11:33.975Z,,0,,,13475.777999952319,completion,,,,,false,,,,235848.20000004768,235831.29999995232,222338.987,222345.20000004768,222355.522,235855.082,8,400,,,
trial,html.Screen,4_50_0,2023-10-31T05:11:37.018Z,,0,2,,3036.3179999761633,response,ISIC_0056409.JPG,11,ISIC_0056915.JPG,ISIC_0056915.JPG,false,0,keypress(z),500,238891.60000002384,238891.39999997616,235839.001,235848.29999995232,235855.082,238905.519,8,400,1,,ISIC_0056409.JPG
break,html.Screen,4_50_1,2023-10-31T05:11:37.019Z,,0,,,NaN,,,,,,false,,,,238892.60000002384,238892.20000004768,,238891.89999997616,,238905.519,8,400,,,
break_continue,html.Screen,4_50_2,2023-10-31T05:11:37.020Z,,0,,,NaN,,,,,,false,,,,238893,238892.79999995232,,238892.70000004768,,238905.519,8,400,,,
sequence,flow.Sequence,4_50,2023-10-31T05:11:37.020Z,,0,,,3037.7179999523214,completion,,,,,false,,,,238893.10000002384,238892.79999995232,235839.001,235848.20000004768,235855.082,238905.519,8,400,,,
trial,html.Screen,4_51_0,2023-10-31T05:11:39.733Z,,0,2,,2699.9809999999998,response,ISIC_4808298.JPG,11,ISIC_0360988.JPG,ISIC_0360988.JPG,false,0,keypress(z),500,241605.70000004768,241605.5,238888.771,238893.20000004768,238905.519,241621.931,8,400,2,,ISIC_4808298.JPG
break,html.Screen,4_51_1,2023-10-31T05:11:39.734Z,,0,,,NaN,,,,,,false,,,,241606.70000004768,241606.20000004768,,241605.89999997616,,241621.931,8,400,,,
break_continue,html.Screen,4_51_2,2023-10-31T05:11:39.734Z,,0,,,NaN,,,,,,false,,,,241607,241606.89999997616,,241606.70000004768,,241621.931,8,400,,,
sequence,flow.Sequence,4_51,2023-10-31T05:11:39.734Z,,0,,,2701.380999976158,completion,,,,,false,,,,241607.10000002384,241606.89999997616,238888.771,238893.10000002384,238905.519,241621.931,8,400,,,
trial,html.Screen,4_52_0,2023-10-31T05:11:42.301Z,,0,2,,2551.9689999761467,response,ISIC_6717452.JPG,10,ISIC_4345000.JPG,ISIC_4345000.JPG,false,0,keypress(z),500,244174.20000004768,244173.89999997616,241605.165,241607.20000004768,241621.931,244188.539,8,400,3,,ISIC_6717452.JPG
break,html.Screen,4_52_1,2023-10-31T05:11:42.302Z,,0,,,NaN,,,,,,false,,,,244174.70000004768,244174.60000002384,,244174.29999995232,,244188.539,8,400,,,
break_continue,html.Screen,4_52_2,2023-10-31T05:11:42.302Z,,0,,,NaN,,,,,,false,,,,244175,244174.89999997616,,244174.89999997616,,244188.539,8,400,,,
sequence,flow.Sequence,4_52,2023-10-31T05:11:42.302Z,,0,,,2552.9689999761467,completion,,,,,false,,,,244175.10000002384,244174.89999997616,241605.165,241607.20000004768,241621.931,244188.539,8,400,,,
trial,html.Screen,4_53_0,2023-10-31T05:11:44.899Z,,0,2,,2583.561000023852,response,ISIC_3947876.JPG,5,ISIC_0060621.JPG,ISIC_0060621.JPG,false,0,keypress(z),500,246772.29999995232,246772.10000002384,244171.934,244175.10000002384,244188.539,246788.66,8,400,4,,ISIC_3947876.JPG
break,html.Screen,4_53_1,2023-10-31T05:11:44.900Z,,0,,,NaN,,,,,,false,,,,246773.29999995232,246772.79999995232,,246772.5,,246788.66,8,400,,,
break_continue,html.Screen,4_53_2,2023-10-31T05:11:44.901Z,,0,,,NaN,,,,,,false,,,,246773.70000004768,246773.60000002384,,246773.39999997616,,246788.66,8,400,,,
sequence,flow.Sequence,4_53,2023-10-31T05:11:44.901Z,,0,,,2585.061000023852,completion,,,,,false,,,,246773.79999995232,246773.60000002384,244171.934,244175.10000002384,244188.539,246788.66,8,400,,,
trial,html.Screen,4_54_0,2023-10-31T05:11:47.884Z,,0,2,,2968.139999952313,response,ISIC_0015133.JPG,8,ISIC_0027659.JPG,ISIC_0027659.JPG,false,0,keypress(z),500,249757,249756.79999995232,246772.257,246774,246788.66,249772.613,8,400,5,,ISIC_0015133.JPG
break,html.Screen,4_54_1,2023-10-31T05:11:47.885Z,,0,,,NaN,,,,,,false,,,,249757.89999997616,249757.60000002384,,249757.20000004768,,249772.613,8,400,,,
break_continue,html.Screen,4_54_2,2023-10-31T05:11:47.885Z,,0,,,NaN,,,,,,false,,,,249758.39999997616,249758.20000004768,,249758.10000002384,,249772.613,8,400,,,
sequence,flow.Sequence,4_54,2023-10-31T05:11:47.885Z,,0,,,2969.54000004768,completion,,,,,false,,,,249758.5,249758.20000004768,246772.257,246773.89999997616,246788.66,249772.613,8,400,,,
trial,html.Screen,4_55_0,2023-10-31T05:11:50.674Z,,0,2,,2774.4870000238298,response,ISIC_4624973.JPG,12,ISIC_4396553.JPG,ISIC_4624973.JPG,false,1,keypress(m),500,252547.20000004768,252547.10000002384,249755.692,249758.60000002384,249772.613,252555.352,8,400,6,,ISIC_4396553.JPG
break,html.Screen,4_55_1,2023-10-31T05:11:50.675Z,,0,,,NaN,,,,,,false,,,,252548.10000002384,252547.70000004768,,252547.39999997616,,252555.352,8,400,,,
break_continue,html.Screen,4_55_2,2023-10-31T05:11:50.675Z,,0,,,NaN,,,,,,false,,,,252548.5,252548.39999997616,,252548.29999995232,,252555.352,8,400,,,
sequence,flow.Sequence,4_55,2023-10-31T05:11:50.675Z,,0,,,2775.786999976146,completion,,,,,false,,,,252548.70000004768,252548.39999997616,249755.692,249758.60000002384,249772.613,252555.352,8,400,,,
trial,html.Screen,4_56_0,2023-10-31T05:11:53.322Z,,0,2,,2639.34800004767,response,ISIC_0026224.JPG,7,ISIC_6125652.JPG,ISIC_6125652.JPG,false,0,keypress(z),500,255194.89999997616,255194.70000004768,252538.64,252548.70000004768,252555.352,255206.024,8,400,7,,ISIC_0026224.JPG
break,html.Screen,4_56_1,2023-10-31T05:11:53.323Z,,0,,,NaN,,,,,,false,,,,255195.79999995232,255195.39999997616,,255195,,255206.024,8,400,,,
break_continue,html.Screen,4_56_2,2023-10-31T05:11:53.323Z,,0,,,NaN,,,,,,false,,,,255196.10000002384,255196.10000002384,,255195.89999997616,,255206.024,8,400,,,
sequence,flow.Sequence,4_56,2023-10-31T05:11:53.323Z,,0,,,2640.7480000238284,completion,,,,,false,,,,255196.29999995232,255196.10000002384,252538.64,252548.70000004768,252555.352,255206.024,8,400,,,
trial,html.Screen,4_57_0,2023-10-31T05:11:55.919Z,,0,2,,2586.076000023837,response,ISIC_4699989.JPG,10,ISIC_0027302.JPG,ISIC_0027302.JPG,false,0,keypress(z),500,257792.29999995232,257792.10000002384,255189.028,255196.29999995232,255206.024,257806.072,8,400,8,,ISIC_4699989.JPG
break,html.Screen,4_57_1,2023-10-31T05:11:55.920Z,,0,,,NaN,,,,,,false,,,,257793.29999995232,257792.89999997616,,257792.5,,257806.072,8,400,,,
break_continue,html.Screen,4_57_2,2023-10-31T05:11:55.921Z,,0,,,NaN,,,,,,false,,,,257793.70000004768,257793.60000002384,,257793.5,,257806.072,8,400,,,
sequence,flow.Sequence,4_57,2023-10-31T05:11:55.921Z,,0,,,2587.576000023837,completion,,,,,false,,,,257793.89999997616,257793.60000002384,255189.028,255196.29999995232,255206.024,257806.072,8,400,,,
trial,html.Screen,4_58_0,2023-10-31T05:11:58.519Z,,0,2,,2586.0280000238563,response,ISIC_2784686.JPG,12,ISIC_4081632.JPG,ISIC_4081632.JPG,false,0,keypress(z),500,260392.29999995232,260392.10000002384,257789.172,257794,257806.072,260406.092,8,400,9,,ISIC_2784686.JPG
break,html.Screen,4_58_1,2023-10-31T05:11:58.520Z,,0,,,NaN,,,,,,false,,,,260393.39999997616,260392.79999995232,,260392.60000002384,,260406.092,8,400,,,
break_continue,html.Screen,4_58_2,2023-10-31T05:11:58.521Z,,0,,,NaN,,,,,,false,,,,260393.70000004768,260393.60000002384,,260393.5,,260406.092,8,400,,,
sequence,flow.Sequence,4_58,2023-10-31T05:11:58.521Z,,0,,,2587.5280000238563,completion,,,,,false,,,,260393.79999995232,260393.60000002384,257789.172,257794,257806.072,260406.092,8,400,,,
trial,html.Screen,4_59_0,2023-10-31T05:12:01.132Z,,0,2,,2599.1080000476795,response,ISIC_5805349.JPG,11,ISIC_0034089.JPG,ISIC_0034089.JPG,false,0,keypress(z),500,263005.5,263005.2000000477,260389.042,260393.89999997616,260406.092,263022.501,8,400,10,,ISIC_5805349.JPG
break,html.Screen,4_59_1,2023-10-31T05:12:01.133Z,,0,,,NaN,,,,,,false,,,,263006.5,263006,,263005.60000002384,,263022.501,8,400,,,
break_continue,html.Screen,4_59_2,2023-10-31T05:12:01.134Z,,0,,,NaN,,,,,,false,,,,263006.89999997616,263006.7000000477,,263006.60000002384,,263022.501,8,400,,,
sequence,flow.Sequence,4_59,2023-10-31T05:12:01.134Z,,0,,,2600.6080000476795,completion,,,,,false,,,,263007,263006.7000000477,260389.042,260393.79999995232,260406.092,263022.501,8,400,,,
trial,html.Screen,4_60_0,2023-10-31T05:12:03.764Z,,0,2,,2614.1990000476944,response,ISIC_0065121.JPG,11,ISIC_0032197.JPG,ISIC_0065121.JPG,false,1,keypress(m),500,265636.89999997616,265636.7000000477,263005.676,263007.10000002384,263022.501,265638.829,8,400,11,,ISIC_0032197.JPG
break,html.Screen,4_60_1,2023-10-31T05:12:03.765Z,,0,,,NaN,,,,,,false,,,,265637.89999997616,265637.5,,265637.2000000477,,265638.829,8,400,,,
break_continue,html.Screen,4_60_2,2023-10-31T05:12:03.765Z,,0,,,NaN,,,,,,false,,,,265638.2999999523,265638.2000000477,,265638.10000002384,,265638.829,8,400,,,
sequence,flow.Sequence,4_60,2023-10-31T05:12:03.765Z,,0,,,2615.6990000476944,completion,,,,,false,,,,265638.5,265638.2000000477,263005.676,263007.10000002384,263022.501,265638.829,8,400,,,
trial,html.Screen,4_61_0,2023-10-31T05:12:06.477Z,,0,2,,2711.070999976131,response,ISIC_0061803.JPG,7,ISIC_0034242.JPG,ISIC_0034242.JPG,false,0,keypress(z),500,268350.2999999523,268349.89999997616,265622.837,265638.60000002384,265638.829,268355.577,8,400,12,,ISIC_0061803.JPG
break,html.Screen,4_61_1,2023-10-31T05:12:06.478Z,,0,,,NaN,,,,,,false,,,,268351.2000000477,268350.89999997616,,268350.60000002384,,268355.577,8,400,,,
break_continue,html.Screen,4_61_2,2023-10-31T05:12:06.478Z,,0,,,NaN,,,,,,false,,,,268351.60000002384,268351.5,,268351.39999997616,,268355.577,8,400,,,
sequence,flow.Sequence,4_61,2023-10-31T05:12:06.479Z,,0,,,2712.670999999973,completion,,,,,false,,,,268351.7000000477,268351.5,265622.837,265638.5,265638.829,268355.577,8,400,,,
trial,html.Screen,4_62_0,2023-10-31T05:12:09.175Z,,0,2,,2692.5230000238516,response,ISIC_0011948.JPG,6,ISIC_9540825.JPG,ISIC_0011948.JPG,false,1,keypress(m),500,271048.2999999523,271048.10000002384,268339.179,268351.7999999523,268355.577,271055.613,8,400,13,,ISIC_9540825.JPG
break,html.Screen,4_62_1,2023-10-31T05:12:09.176Z,,0,,,NaN,,,,,,false,,,,271048.89999997616,271048.7999999523,,271048.39999997616,,271055.613,8,400,,,
break_continue,html.Screen,4_62_2,2023-10-31T05:12:09.176Z,,0,,,NaN,,,,,,false,,,,271049.10000002384,271049,,271049,,271055.613,8,400,,,
sequence,flow.Sequence,4_62,2023-10-31T05:12:09.176Z,,0,,,2693.42300000001,completion,,,,,false,,,,271049.2000000477,271049,268339.179,268351.7999999523,268355.577,271055.613,8,400,,,
trial,html.Screen,4_63_0,2023-10-31T05:12:12.286Z,,0,2,,3103.0870000476716,response,ISIC_0029825.JPG,6,ISIC_0062530.JPG,ISIC_0029825.JPG,false,1,keypress(m),500,274158.89999997616,274158.7000000477,271039.323,271049.2000000477,271055.613,274172.292,8,400,14,,ISIC_0062530.JPG
break,html.Screen,4_63_1,2023-10-31T05:12:12.286Z,,0,,,NaN,,,,,,false,,,,274159.5,274159.2000000477,,274159.10000002384,,274172.292,8,400,,,
break_continue,html.Screen,4_63_2,2023-10-31T05:12:12.286Z,,0,,,NaN,,,,,,false,,,,274159.7000000477,274159.60000002384,,274159.5,,274172.292,8,400,,,
sequence,flow.Sequence,4_63,2023-10-31T05:12:12.287Z,,0,,,3103.9870000238298,completion,,,,,false,,,,274159.7000000477,274159.60000002384,271039.323,271049.2000000477,271055.613,274172.292,8,400,,,
trial,html.Screen,4_64_0,2023-10-31T05:12:14.839Z,,0,2,,2539.707999999984,response,ISIC_9720044.JPG,11,ISIC_6385074.JPG,ISIC_6385074.JPG,false,0,keypress(z),500,276712.2999999523,276712,274155.912,274159.7999999523,274172.292,276722.329,8,400,15,,ISIC_9720044.JPG
break,html.Screen,4_64_1,2023-10-31T05:12:14.840Z,,0,,,NaN,,,,,,false,,,,276713.2000000477,276713,,276712.60000002384,,276722.329,8,400,,,
break_continue,html.Screen,4_64_2,2023-10-31T05:12:14.840Z,,0,,,NaN,,,,,,false,,,,276713.60000002384,276713.39999997616,,276713.2999999523,,276722.329,8,400,,,
sequence,flow.Sequence,4_64,2023-10-31T05:12:14.841Z,,0,,,2541.1079999761423,completion,,,,,false,,,,276713.7999999523,276713.39999997616,274155.912,274159.7999999523,274172.292,276722.329,8,400,,,
trial,html.Screen,4_65_0,2023-10-31T05:12:17.953Z,,0,2,,3103.9709999522893,response,ISIC_0059609.JPG,8,ISIC_0027022.JPG,ISIC_0059609.JPG,false,1,keypress(m),500,279826.39999997616,279826.2999999523,276706.077,276713.89999997616,276722.329,279839.71,8,400,16,,ISIC_0027022.JPG
break,html.Screen,4_65_1,2023-10-31T05:12:17.954Z,,0,,,NaN,,,,,,false,,,,279827.5,279827.2999999523,,279826.7000000477,,279839.71,8,400,,,
break_continue,html.Screen,4_65_2,2023-10-31T05:12:17.955Z,,0,,,NaN,,,,,,false,,,,279827.7999999523,279827.7999999523,,279827.60000002384,,279839.71,8,400,,,
sequence,flow.Sequence,4_65,2023-10-31T05:12:17.955Z,,0,,,3105.4709999522893,completion,,,,,false,,,,279827.89999997616,279827.7999999523,276706.077,276713.7999999523,276722.329,279839.71,8,400,,,
trial,html.Screen,4_66_0,2023-10-31T05:12:20.823Z,,0,2,,2856.390000023821,response,ISIC_0027263.JPG,9,ISIC_0027021.JPG,ISIC_0027263.JPG,false,1,keypress(m),500,282696.39999997616,282696.10000002384,279822.94,279828,279839.71,282705.759,8,400,17,,ISIC_0027021.JPG
break,html.Screen,4_66_1,2023-10-31T05:12:20.824Z,,0,,,NaN,,,,,,false,,,,282697.39999997616,282697,,282696.60000002384,,282705.759,8,400,,,
break_continue,html.Screen,4_66_2,2023-10-31T05:12:20.824Z,,0,,,NaN,,,,,,false,,,,282697.60000002384,282697.5,,282697.5,,282705.759,8,400,,,
sequence,flow.Sequence,4_66,2023-10-31T05:12:20.825Z,,0,,,2857.789999999979,completion,,,,,false,,,,282697.7999999523,282697.5,279822.94,279828,279839.71,282705.759,8,400,,,
trial,html.Screen,4_67_0,2023-10-31T05:12:23.392Z,,0,2,,2558.9410000476637,response,ISIC_4956965.JPG,8,ISIC_4564960.JPG,ISIC_4564960.JPG,false,0,keypress(z),500,285264.89999997616,285264.7000000477,282689.422,282697.89999997616,282705.759,285272.464,8,400,18,,ISIC_4956965.JPG
break,html.Screen,4_67_1,2023-10-31T05:12:23.393Z,,0,,,NaN,,,,,,false,,,,285266,285265.5,,285265.2000000477,,285272.464,8,400,,,
break_continue,html.Screen,4_67_2,2023-10-31T05:12:23.393Z,,0,,,NaN,,,,,,false,,,,285266.60000002384,285266.2999999523,,285266.2000000477,,285272.464,8,400,,,
sequence,flow.Sequence,4_67,2023-10-31T05:12:23.394Z,,0,,,2560.5409999522963,completion,,,,,false,,,,285266.7000000477,285266.2999999523,282689.422,282697.89999997616,282705.759,285272.464,8,400,,,
trial,html.Screen,4_68_0,2023-10-31T05:12:25.928Z,,0,2,,2528.6360000238637,response,ISIC_0067891.JPG,12,ISIC_0024624.JPG,ISIC_0024624.JPG,false,0,keypress(z),500,287801.39999997616,287801.10000002384,285255.823,285266.7999999523,285272.464,287805.884,8,400,19,,ISIC_0067891.JPG
break,html.Screen,4_68_1,2023-10-31T05:12:25.929Z,,0,,,NaN,,,,,,false,,,,287802.2999999523,287801.89999997616,,287801.60000002384,,287805.884,8,400,,,
break_continue,html.Screen,4_68_2,2023-10-31T05:12:25.930Z,,0,,,NaN,,,,,,false,,,,287802.7000000477,287802.60000002384,,287802.39999997616,,287805.884,8,400,,,
sequence,flow.Sequence,4_68,2023-10-31T05:12:25.930Z,,0,,,2530.1360000238637,completion,,,,,false,,,,287802.7999999523,287802.60000002384,285255.823,285266.7999999523,285272.464,287805.884,8,400,,,
trial,html.Screen,4_69_0,2023-10-31T05:12:28.766Z,,0,2,,2833.3160000476637,response,ISIC_9572761.JPG,11,ISIC_0029495.JPG,ISIC_0029495.JPG,false,0,keypress(z),500,290639.60000002384,290639.2000000477,287789.486,287802.89999997616,287805.884,290655.899,8,400,20,,ISIC_9572761.JPG
break,html.Screen,4_69_1,2023-10-31T05:12:28.767Z,,0,,,NaN,,,,,,false,,,,290640.60000002384,290640.2999999523,,290639.89999997616,,290655.899,8,400,,,
break_continue,html.Screen,4_69_2,2023-10-31T05:12:28.768Z,,0,,,NaN,,,,,,false,,,,290641.2999999523,290641,,290640.7000000477,,290655.899,8,400,,,
sequence,flow.Sequence,4_69,2023-10-31T05:12:28.768Z,,0,,,2835.11599999998,completion,,,,,false,,,,290641.5,290641,287789.486,287802.89999997616,287805.884,290655.899,8,400,,,
trial,html.Screen,4_70_0,2023-10-31T05:12:31.414Z,,0,2,,2630.9009999523405,response,ISIC_0770920.JPG,11,ISIC_5176419.JPG,ISIC_0770920.JPG,false,1,keypress(m),500,293287,293286.7999999523,290639.595,290641.60000002384,290655.899,293289.229,8,400,21,,ISIC_5176419.JPG
break,html.Screen,4_70_1,2023-10-31T05:12:31.415Z,,0,,,NaN,,,,,,false,,,,293288,293287.60000002384,,293287.2000000477,,293289.229,8,400,,,
break_continue,html.Screen,4_70_2,2023-10-31T05:12:31.415Z,,0,,,NaN,,,,,,false,,,,293288.2999999523,293288.2999999523,,293288.2000000477,,293289.229,8,400,,,
sequence,flow.Sequence,4_70,2023-10-31T05:12:31.415Z,,0,,,2632.4009999523405,completion,,,,,false,,,,293288.5,293288.2999999523,290639.595,290641.60000002384,290655.899,293289.229,8,400,,,
trial,html.Screen,4_71_0,2023-10-31T05:12:37.785Z,,0,2,,6368.670999976166,response,ISIC_5866419.JPG,6,ISIC_4471367.JPG,ISIC_5866419.JPG,false,1,keypress(m),500,299658.2000000477,299657.89999997616,293273.106,293288.60000002384,293289.229,299673.309,8,400,22,,ISIC_4471367.JPG
break,html.Screen,4_71_1,2023-10-31T05:12:37.786Z,,0,,,NaN,,,,,,false,,,,299659.2999999523,299658.7000000477,,299658.2999999523,,299673.309,8,400,,,
break_continue,html.Screen,4_71_2,2023-10-31T05:12:37.786Z,,0,,,NaN,,,,,,false,,,,299659.60000002384,299659.39999997616,,299659.39999997616,,299673.309,8,400,,,
sequence,flow.Sequence,4_71,2023-10-31T05:12:37.787Z,,0,,,6370.170999976166,completion,,,,,false,,,,299659.7000000477,299659.39999997616,293273.106,293288.60000002384,293289.229,299673.309,8,400,,,
trial,html.Screen,4_72_0,2023-10-31T05:12:41.312Z,,0,2,,3511.5909999761498,response,ISIC_7096885.JPG,11,ISIC_6688311.JPG,ISIC_7096885.JPG,false,1,keypress(m),500,303185.10000002384,303184.89999997616,299656.664,299659.89999997616,299673.309,303206.714,8,400,23,,ISIC_6688311.JPG
break,html.Screen,4_72_1,2023-10-31T05:12:41.313Z,,0,,,NaN,,,,,,false,,,,303185.7999999523,303185.60000002384,,303185.39999997616,,303206.714,8,400,,,
break_continue,html.Screen,4_72_2,2023-10-31T05:12:41.313Z,,0,,,NaN,,,,,,false,,,,303186,303186,,303185.89999997616,,303206.714,8,400,,,
sequence,flow.Sequence,4_72,2023-10-31T05:12:41.313Z,,0,,,3512.6909999999916,completion,,,,,false,,,,303186.2999999523,303186,299656.664,299659.7999999523,299673.309,303206.714,8,400,,,
trial,html.Screen,4_73_0,2023-10-31T05:12:44.155Z,,0,2,,2820.585999952338,response,ISIC_0027576.JPG,7,ISIC_0032012.JPG,ISIC_0027576.JPG,false,1,keypress(m),500,306027.7000000477,306027.2999999523,303189.468,303186.2999999523,303206.714,306040.086,8,400,24,,ISIC_0032012.JPG
break,html.Screen,4_73_1,2023-10-31T05:12:44.155Z,,0,,,NaN,,,,,,false,,,,306028.7000000477,306028.5,,306027.7999999523,,306040.086,8,400,,,
break_continue,html.Screen,4_73_2,2023-10-31T05:12:44.156Z,,0,,,NaN,,,,,,false,,,,306029,306028.7999999523,,306028.7999999523,,306040.086,8,400,,,
sequence,flow.Sequence,4_73,2023-10-31T05:12:44.156Z,,0,,,2822.085999952338,completion,,,,,false,,,,306029.10000002384,306028.7999999523,303189.468,303186.2999999523,303206.714,306040.086,8,400,,,
trial,html.Screen,4_74_0,2023-10-31T05:12:47.397Z,,0,2,,3229.9139999999898,response,ISIC_3448546.JPG,11,ISIC_0011884.JPG,ISIC_3448546.JPG,false,1,keypress(m),500,309270.60000002384,309270,306023.432,306029.10000002384,306040.086,309272.786,8,400,25,,ISIC_0011884.JPG
break,html.Screen,4_74_1,2023-10-31T05:12:47.399Z,,0,,,NaN,,,,,,false,,,,309271.89999997616,309271.39999997616,,309271,,309272.786,8,400,,,
break_continue,html.Screen,4_74_2,2023-10-31T05:12:47.399Z,,0,,,NaN,,,,,,false,,,,309272.2000000477,309272.10000002384,,309272,,309272.786,8,400,,,
sequence,flow.Sequence,4_74,2023-10-31T05:12:47.399Z,,0,,,3232.0140000238316,completion,,,,,false,,,,309272.2999999523,309272.10000002384,306023.432,306029.10000002384,306040.086,309272.786,8,400,,,
trial,html.Screen,4_75_0,2023-10-31T05:12:50.927Z,,0,2,,3526.713999999978,response,ISIC_3166276.JPG,6,ISIC_0068234.JPG,ISIC_0068234.JPG,false,0,keypress(z),500,312799.7999999523,312799.5,309256.33,309272.39999997616,309272.786,312806.19,8,400,26,,ISIC_3166276.JPG
break,html.Screen,4_75_1,2023-10-31T05:12:50.928Z,,0,,,NaN,,,,,,false,,,,312800.7999999523,312800.2999999523,,312799.89999997616,,312806.19,8,400,,,
break_continue,html.Screen,4_75_2,2023-10-31T05:12:50.928Z,,0,,,NaN,,,,,,false,,,,312801.10000002384,312800.89999997616,,312800.89999997616,,312806.19,8,400,,,
sequence,flow.Sequence,4_75,2023-10-31T05:12:50.928Z,,0,,,3528.1139999761363,completion,,,,,false,,,,312801.2000000477,312800.89999997616,309256.33,309272.39999997616,309272.786,312806.19,8,400,,,
trial,html.Screen,4_76_0,2023-10-31T05:12:53.766Z,,0,2,,2833.0100000476814,response,ISIC_4352700.JPG,5,ISIC_8626941.JPG,ISIC_8626941.JPG,false,0,keypress(z),500,315639.5,315639.2000000477,312790.264,312801.2999999523,312806.19,315656.584,8,400,27,,ISIC_4352700.JPG
break,html.Screen,4_76_1,2023-10-31T05:12:53.767Z,,0,,,NaN,,,,,,false,,,,315640.5,315640.2000000477,,315639.7999999523,,315656.584,8,400,,,
break_continue,html.Screen,4_76_2,2023-10-31T05:12:53.768Z,,0,,,NaN,,,,,,false,,,,315640.7999999523,315640.7000000477,,315640.60000002384,,315656.584,8,400,,,
sequence,flow.Sequence,4_76,2023-10-31T05:12:53.768Z,,0,,,2834.5100000476814,completion,,,,,false,,,,315641,315640.7000000477,312790.264,312801.2999999523,312806.19,315656.584,8,400,,,
trial,html.Screen,4_77_0,2023-10-31T05:12:56.445Z,,0,2,,2661.715999952343,response,ISIC_0071996.JPG,11,ISIC_4042619.JPG,ISIC_0071996.JPG,false,1,keypress(m),500,318318.60000002384,318318.2999999523,315639.853,315641.10000002384,315656.584,318323.004,8,400,28,,ISIC_4042619.JPG
break,html.Screen,4_77_1,2023-10-31T05:12:56.446Z,,0,,,NaN,,,,,,false,,,,318319.39999997616,318319,,318318.7000000477,,318323.004,8,400,,,
break_continue,html.Screen,4_77_2,2023-10-31T05:12:56.447Z,,0,,,NaN,,,,,,false,,,,318319.7000000477,318319.7000000477,,318319.5,,318323.004,8,400,,,
sequence,flow.Sequence,4_77,2023-10-31T05:12:56.447Z,,0,,,2663.1160000477103,completion,,,,,false,,,,318319.89999997616,318319.7000000477,315639.853,315641,315656.584,318323.004,8,400,,,
trial,html.Screen,4_78_0,2023-10-31T05:12:59.768Z,,0,2,,3317.4959999999846,response,ISIC_6299036.JPG,12,ISIC_1057521.JPG,ISIC_1057521.JPG,false,0,keypress(z),500,321640.7000000477,321640.5,318306.695,318320,318323.004,321656.787,8,400,29,,ISIC_6299036.JPG
break,html.Screen,4_78_1,2023-10-31T05:12:59.769Z,,0,,,NaN,,,,,,false,,,,321641.7999999523,321641.39999997616,,321641,,321656.787,8,400,,,
break_continue,html.Screen,4_78_2,2023-10-31T05:12:59.769Z,,0,,,NaN,,,,,,false,,,,321642.2000000477,321642.10000002384,,321642,,321656.787,8,400,,,
sequence,flow.Sequence,4_78,2023-10-31T05:12:59.769Z,,0,,,3319.0960000238265,completion,,,,,false,,,,321642.2999999523,321642.10000002384,318306.695,318320,318323.004,321656.787,8,400,,,
trial,html.Screen,4_79_0,2023-10-31T05:13:02.475Z,,0,2,,2691.212999999989,response,ISIC_7034769.JPG,9,ISIC_0067667.JPG,ISIC_0067667.JPG,false,0,keypress(z),500,324348.10000002384,324348,321639.926,321642.39999997616,321656.787,324356.352,8,400,30,,ISIC_7034769.JPG
break,html.Screen,4_79_1,2023-10-31T05:13:02.476Z,,0,,,NaN,,,,,,false,,,,324349.2000000477,324348.7999999523,,324348.39999997616,,324356.352,8,400,,,
break_continue,html.Screen,4_79_2,2023-10-31T05:13:02.476Z,,0,,,NaN,,,,,,false,,,,324349.5,324349.5,,324349.2999999523,,324356.352,8,400,,,
sequence,flow.Sequence,4_79,2023-10-31T05:13:02.477Z,,0,,,2692.712999999989,completion,,,,,false,,,,324349.7000000477,324349.5,321639.926,321642.39999997616,321656.787,324356.352,8,400,,,
trial,html.Screen,4_80_0,2023-10-31T05:13:05.058Z,,0,2,,2574.1479999999865,response,ISIC_2034687.JPG,5,ISIC_2378211.JPG,ISIC_2378211.JPG,false,0,keypress(z),500,326930.7000000477,326930.5,324340.079,324349.7999999523,324356.352,326939.719,8,400,31,,ISIC_2034687.JPG
break,html.Screen,4_80_1,2023-10-31T05:13:05.059Z,,0,,,NaN,,,,,,false,,,,326931.7000000477,326931.2999999523,,326930.89999997616,,326939.719,8,400,,,
break_continue,html.Screen,4_80_2,2023-10-31T05:13:05.059Z,,0,,,NaN,,,,,,false,,,,326932,326931.89999997616,,326931.7999999523,,326939.719,8,400,,,
sequence,flow.Sequence,4_80,2023-10-31T05:13:05.059Z,,0,,,2575.5479999761446,completion,,,,,false,,,,326932.10000002384,326931.89999997616,324340.079,324349.7999999523,324356.352,326939.719,8,400,,,
trial,html.Screen,4_81_0,2023-10-31T05:13:07.830Z,,0,2,,2762.7810000000172,response,ISIC_0030077.JPG,4,ISIC_7196249.JPG,ISIC_7196249.JPG,false,0,keypress(z),500,329702.7999999523,329702.5,326923.36,326932.2000000477,326939.719,329706.429,8,400,32,,ISIC_0030077.JPG
break,html.Screen,4_81_1,2023-10-31T05:13:07.831Z,,0,,,NaN,,,,,,false,,,,329703.7999999523,329703.2999999523,,329702.89999997616,,329706.429,8,400,,,
break_continue,html.Screen,4_81_2,2023-10-31T05:13:07.831Z,,0,,,NaN,,,,,,false,,,,329704.10000002384,329704.10000002384,,329704,,329706.429,8,400,,,
sequence,flow.Sequence,4_81,2023-10-31T05:13:07.831Z,,0,,,2764.381000023859,completion,,,,,false,,,,329704.2999999523,329704.10000002384,326923.36,326932.2000000477,326939.719,329706.429,8,400,,,
trial,html.Screen,4_82_0,2023-10-31T05:13:10.509Z,,0,2,,2675.3709999523126,response,ISIC_9163466.JPG,12,ISIC_4632020.JPG,ISIC_4632020.JPG,false,0,keypress(z),500,332382.10000002384,332381.7999999523,329690.14,329704.39999997616,329706.429,332389.788,8,400,33,,ISIC_9163466.JPG
break,html.Screen,4_82_1,2023-10-31T05:13:10.510Z,,0,,,NaN,,,,,,false,,,,332383.2000000477,332382.7999999523,,332382.2999999523,,332389.788,8,400,,,
break_continue,html.Screen,4_82_2,2023-10-31T05:13:10.510Z,,0,,,NaN,,,,,,false,,,,332383.5,332383.39999997616,,332383.2999999523,,332389.788,8,400,,,
sequence,flow.Sequence,4_82,2023-10-31T05:13:10.511Z,,0,,,2676.9709999761544,completion,,,,,false,,,,332383.7000000477,332383.39999997616,329690.14,329704.2999999523,329706.429,332389.788,8,400,,,
trial,html.Screen,4_83_0,2023-10-31T05:13:13.589Z,,0,2,,3072.3120000238414,response,ISIC_5355302.JPG,7,ISIC_0009186.JPG,ISIC_5355302.JPG,false,1,keypress(m),500,335462.2999999523,335462.10000002384,332373.556,332383.7999999523,332389.788,335473.269,8,400,34,,ISIC_0009186.JPG
break,html.Screen,4_83_1,2023-10-31T05:13:13.590Z,,0,,,NaN,,,,,,false,,,,335463.2999999523,335463,,335462.60000002384,,335473.269,8,400,,,
break_continue,html.Screen,4_83_2,2023-10-31T05:13:13.591Z,,0,,,NaN,,,,,,false,,,,335463.7000000477,335463.60000002384,,335463.39999997616,,335473.269,8,400,,,
sequence,flow.Sequence,4_83,2023-10-31T05:13:13.591Z,,0,,,3073.8120000238414,completion,,,,,false,,,,335463.7999999523,335463.60000002384,332373.556,332383.7000000477,332389.788,335473.269,8,400,,,
trial,html.Screen,4_84_0,2023-10-31T05:13:16.330Z,,0,2,,2730.030999952345,response,ISIC_0067801.JPG,13,ISIC_1280780.JPG,ISIC_1280780.JPG,false,0,keypress(z),500,338203.5,338203.2999999523,335456.94,335464,335473.269,338206.541,8,400,35,,ISIC_0067801.JPG
break,html.Screen,4_84_1,2023-10-31T05:13:16.331Z,,0,,,NaN,,,,,,false,,,,338204.5,338204.10000002384,,338203.7000000477,,338206.541,8,400,,,
break_continue,html.Screen,4_84_2,2023-10-31T05:13:16.332Z,,0,,,NaN,,,,,,false,,,,338204.7999999523,338204.7999999523,,338204.7000000477,,338206.541,8,400,,,
sequence,flow.Sequence,4_84,2023-10-31T05:13:16.332Z,,0,,,2731.530999952345,completion,,,,,false,,,,338205,338204.7999999523,335456.94,335463.89999997616,335473.269,338206.541,8,400,,,
trial,html.Screen,4_85_0,2023-10-31T05:13:19.139Z,,0,2,,2805.659000047657,response,ISIC_0006332.JPG,10,ISIC_0031356.JPG,ISIC_0031356.JPG,false,0,keypress(z),500,341012.39999997616,341012.2000000477,338190.231,338205,338206.541,341023.242,8,400,36,,ISIC_0006332.JPG
break,html.Screen,4_85_1,2023-10-31T05:13:19.140Z,,0,,,NaN,,,,,,false,,,,341013.39999997616,341013,,341012.7000000477,,341023.242,8,400,,,
break_continue,html.Screen,4_85_2,2023-10-31T05:13:19.141Z,,0,,,NaN,,,,,,false,,,,341013.7000000477,341013.7000000477,,341013.60000002384,,341023.242,8,400,,,
sequence,flow.Sequence,4_85,2023-10-31T05:13:19.141Z,,0,,,2807.159000047657,completion,,,,,false,,,,341013.89999997616,341013.7000000477,338190.231,338205,338206.541,341023.242,8,400,,,
trial,html.Screen,4_86_0,2023-10-31T05:13:21.691Z,,0,2,,2540.3580000238144,response,ISIC_7268804.JPG,5,ISIC_0008055.JPG,ISIC_0008055.JPG,false,0,keypress(z),500,343563.7999999523,343563.60000002384,341006.533,341014,341023.242,343573.373,8,400,37,,ISIC_7268804.JPG
break,html.Screen,4_86_1,2023-10-31T05:13:21.692Z,,0,,,NaN,,,,,,false,,,,343564.7999999523,343564.2999999523,,343564,,343573.373,8,400,,,
break_continue,html.Screen,4_86_2,2023-10-31T05:13:21.692Z,,0,,,NaN,,,,,,false,,,,343565.2000000477,343565,,343565,,343573.373,8,400,,,
sequence,flow.Sequence,4_86,2023-10-31T05:13:21.692Z,,0,,,2541.7579999999725,completion,,,,,false,,,,343565.2999999523,343565,341006.533,341014,341023.242,343573.373,8,400,,,
trial,html.Screen,4_87_0,2023-10-31T05:13:27.236Z,,0,2,,5535.22700002382,response,ISIC_7508320.JPG,6,ISIC_6253295.JPG,ISIC_7508320.JPG,false,1,keypress(m),500,349108.7999999523,349108.60000002384,343557.051,343565.5,343573.373,349123.365,8,400,38,,ISIC_6253295.JPG
break,html.Screen,4_87_1,2023-10-31T05:13:27.237Z,,0,,,NaN,,,,,,false,,,,349109.89999997616,349109.39999997616,,349109.10000002384,,349123.365,8,400,,,
break_continue,html.Screen,4_87_2,2023-10-31T05:13:27.237Z,,0,,,NaN,,,,,,false,,,,349110.2000000477,349110.10000002384,,349110,,349123.365,8,400,,,
sequence,flow.Sequence,4_87,2023-10-31T05:13:27.237Z,,0,,,5536.72700002382,completion,,,,,false,,,,349110.2999999523,349110.10000002384,343557.051,343565.5,343573.373,349123.365,8,400,,,
trial,html.Screen,4_88_0,2023-10-31T05:13:29.947Z,,0,2,,2696.9349999523256,response,ISIC_1729351.JPG,9,ISIC_0014336.JPG,ISIC_0014336.JPG,false,0,keypress(z),500,351820.60000002384,351820.2999999523,349107.253,349110.5,349123.365,351823.399,8,400,39,,ISIC_1729351.JPG
break,html.Screen,4_88_1,2023-10-31T05:13:29.948Z,,0,,,NaN,,,,,,false,,,,351821.60000002384,351821.2000000477,,351820.7999999523,,351823.399,8,400,,,
break_continue,html.Screen,4_88_2,2023-10-31T05:13:29.949Z,,0,,,NaN,,,,,,false,,,,351822,351821.7999999523,,351821.7999999523,,351823.399,8,400,,,
sequence,flow.Sequence,4_88,2023-10-31T05:13:29.949Z,,0,,,2698.4349999523256,completion,,,,,false,,,,351822.10000002384,351821.7999999523,349107.253,349110.39999997616,349123.365,351823.399,8,400,,,
trial,html.Screen,4_89_0,2023-10-31T05:13:32.593Z,,0,2,,2642.0009999761824,response,ISIC_0032226.JPG,5,ISIC_0054528.JPG,ISIC_0054528.JPG,false,0,keypress(z),500,354465.7000000477,354465.39999997616,351807.359,351822.10000002384,351823.399,354473.586,8,400,40,,ISIC_0032226.JPG
break,html.Screen,4_89_1,2023-10-31T05:13:32.594Z,,0,,,NaN,,,,,,false,,,,354466.60000002384,354466.2000000477,,354465.89999997616,,354473.586,8,400,,,
break_continue,html.Screen,4_89_2,2023-10-31T05:13:32.594Z,,0,,,NaN,,,,,,false,,,,354467,354466.89999997616,,354466.7999999523,,354473.586,8,400,,,
sequence,flow.Sequence,4_89,2023-10-31T05:13:32.594Z,,0,,,2643.5009999761824,completion,,,,,false,,,,354467.2000000477,354466.89999997616,351807.359,351822.10000002384,351823.399,354473.586,8,400,,,
trial,html.Screen,4_90_0,2023-10-31T05:13:35.942Z,,0,2,,3341.713999952306,response,ISIC_0032996.JPG,9,ISIC_4475657.JPG,ISIC_4475657.JPG,false,0,keypress(z),500,357815.60000002384,357815.2999999523,354457.081,354467.2000000477,354473.586,357823.478,8,400,41,,ISIC_0032996.JPG
break,html.Screen,4_90_1,2023-10-31T05:13:35.943Z,,0,,,NaN,,,,,,false,,,,357816.5,357816.39999997616,,357815.7000000477,,357823.478,8,400,,,
break_continue,html.Screen,4_90_2,2023-10-31T05:13:35.944Z,,0,,,NaN,,,,,,false,,,,357816.7999999523,357816.7999999523,,357816.60000002384,,357823.478,8,400,,,
sequence,flow.Sequence,4_90,2023-10-31T05:13:35.944Z,,0,,,3343.213999952306,completion,,,,,false,,,,357817,357816.7999999523,354457.081,354467.2000000477,354473.586,357823.478,8,400,,,
trial,html.Screen,4_91_0,2023-10-31T05:13:38.543Z,,0,2,,2592.122000023839,response,ISIC_5807112.JPG,8,ISIC_8325226.JPG,ISIC_8325226.JPG,false,0,keypress(z),500,360415.7999999523,360415.60000002384,357806.919,357817.10000002384,357823.478,360423.668,8,400,42,,ISIC_5807112.JPG
break,html.Screen,4_91_1,2023-10-31T05:13:38.544Z,,0,,,NaN,,,,,,false,,,,360416.7999999523,360416.39999997616,,360416,,360423.668,8,400,,,
break_continue,html.Screen,4_91_2,2023-10-31T05:13:38.544Z,,0,,,NaN,,,,,,false,,,,360417.10000002384,360417,,360416.89999997616,,360423.668,8,400,,,
sequence,flow.Sequence,4_91,2023-10-31T05:13:38.544Z,,0,,,2593.521999999997,completion,,,,,false,,,,360417.2999999523,360417,357806.919,357817.10000002384,357823.478,360423.668,8,400,,,
trial,html.Screen,4_92_0,2023-10-31T05:13:41.016Z,,0,2,,2464.731999976153,response,ISIC_3914140.JPG,6,ISIC_7319169.JPG,ISIC_7319169.JPG,false,0,keypress(z),500,362888.60000002384,362888.39999997616,360406.908,360417.39999997616,360423.668,362912.693,8,400,43,,ISIC_3914140.JPG
break,html.Screen,4_92_1,2023-10-31T05:13:41.017Z,,0,,,NaN,,,,,,false,,,,362889.7000000477,362889.2000000477,,362888.89999997616,,362912.693,8,400,,,
break_continue,html.Screen,4_92_2,2023-10-31T05:13:41.017Z,,0,,,NaN,,,,,,false,,,,362890,362889.89999997616,,362889.7999999523,,362912.693,8,400,,,
sequence,flow.Sequence,4_92,2023-10-31T05:13:41.017Z,,0,,,2466.231999976153,completion,,,,,false,,,,362890.10000002384,362889.89999997616,360406.908,360417.2999999523,360423.668,362912.693,8,400,,,
trial,html.Screen,4_93_0,2023-10-31T05:13:44.078Z,,0,2,,3038.5070000476553,response,ISIC_6745554.JPG,10,ISIC_7666224.JPG,ISIC_7666224.JPG,false,0,keypress(z),500,365951.60000002384,365951.2000000477,362873.892,362890.2000000477,362912.693,365975.298,8,400,44,,ISIC_6745554.JPG
break,html.Screen,4_93_1,2023-10-31T05:13:44.079Z,,0,,,NaN,,,,,,false,,,,365952.39999997616,365952.2000000477,,365951.7999999523,,365975.298,8,400,,,
break_continue,html.Screen,4_93_2,2023-10-31T05:13:44.080Z,,0,,,NaN,,,,,,false,,,,365952.7999999523,365952.60000002384,,365952.60000002384,,365975.298,8,400,,,
sequence,flow.Sequence,4_93,2023-10-31T05:13:44.080Z,,0,,,3039.9070000238135,completion,,,,,false,,,,365953,365952.60000002384,362873.892,362890.2000000477,362912.693,365975.298,8,400,,,
trial,html.Screen,4_94_0,2023-10-31T05:13:46.789Z,,0,2,,2686.402000047674,response,ISIC_0177304.JPG,5,ISIC_3123711.JPG,ISIC_0177304.JPG,false,1,keypress(m),500,368662,368661.7000000477,365940.571,365953,365975.298,368674.316,8,400,45,,ISIC_3123711.JPG
break,html.Screen,4_94_1,2023-10-31T05:13:46.790Z,,0,,,NaN,,,,,,false,,,,368663.10000002384,368662.7000000477,,368662.2000000477,,368674.316,8,400,,,
break_continue,html.Screen,4_94_2,2023-10-31T05:13:46.790Z,,0,,,NaN,,,,,,false,,,,368663.39999997616,368663.2000000477,,368663.2000000477,,368674.316,8,400,,,
sequence,flow.Sequence,4_94,2023-10-31T05:13:46.790Z,,0,,,2687.902000047674,completion,,,,,false,,,,368663.5,368663.2000000477,365940.571,365953,365975.298,368674.316,8,400,,,
trial,html.Screen,4_95_0,2023-10-31T05:13:50.094Z,,0,2,,3292.6840000000084,response,ISIC_0068924.JPG,8,ISIC_0028582.JPG,ISIC_0028582.JPG,false,0,keypress(z),500,371967.2999999523,371967,368657.422,368663.7000000477,368674.316,371973.711,8,400,46,,ISIC_0068924.JPG
break,html.Screen,4_95_1,2023-10-31T05:13:50.095Z,,0,,,NaN,,,,,,false,,,,371968.2999999523,371967.7999999523,,371967.5,,371973.711,8,400,,,
break_continue,html.Screen,4_95_2,2023-10-31T05:13:50.096Z,,0,,,NaN,,,,,,false,,,,371968.89999997616,371968.7000000477,,371968.5,,371973.711,8,400,,,
sequence,flow.Sequence,4_95,2023-10-31T05:13:50.096Z,,0,,,3294.384000047692,completion,,,,,false,,,,371968.89999997616,371968.7000000477,368657.422,368663.60000002384,368674.316,371973.711,8,400,,,
trial,html.Screen,4_96_0,2023-10-31T05:13:52.898Z,,0,2,,2797.588999952306,response,ISIC_0207349.JPG,11,ISIC_4645995.JPG,ISIC_4645995.JPG,false,0,keypress(z),500,374771.5,374771.2999999523,371956.986,371969.10000002384,371973.711,374773.718,8,400,47,,ISIC_0207349.JPG
break,html.Screen,4_96_1,2023-10-31T05:13:52.899Z,,0,,,NaN,,,,,,false,,,,374772.5,374772,,374771.7000000477,,374773.718,8,400,,,
break_continue,html.Screen,4_96_2,2023-10-31T05:13:52.900Z,,0,,,NaN,,,,,,false,,,,374772.7999999523,374772.7000000477,,374772.60000002384,,374773.718,8,400,,,
sequence,flow.Sequence,4_96,2023-10-31T05:13:52.900Z,,0,,,2798.9890000476735,completion,,,,,false,,,,374772.89999997616,374772.7000000477,371956.986,371969,371973.711,374773.718,8,400,,,
trial,html.Screen,4_97_0,2023-10-31T05:13:55.468Z,,0,2,,2567.2820000000065,response,ISIC_8664718.JPG,6,ISIC_0013817.JPG,ISIC_8664718.JPG,false,1,keypress(m),500,377341.2000000477,377341,374757.68,374773.10000002384,374773.718,377357.297,8,400,48,,ISIC_0013817.JPG
break,html.Screen,4_97_1,2023-10-31T05:13:55.469Z,,0,,,NaN,,,,,,false,,,,377342.39999997616,377341.89999997616,,377341.39999997616,,377357.297,8,400,,,
break_continue,html.Screen,4_97_2,2023-10-31T05:13:55.470Z,,0,,,NaN,,,,,,false,,,,377342.89999997616,377342.7000000477,,377342.5,,377357.297,8,400,,,
sequence,flow.Sequence,4_97,2023-10-31T05:13:55.470Z,,0,,,2568.9820000476902,completion,,,,,false,,,,377343.10000002384,377342.7000000477,374757.68,374773,374773.718,377357.297,8,400,,,
trial,html.Screen,4_98_0,2023-10-31T05:13:58.225Z,,0,2,,2740.403000047663,response,ISIC_0069087.JPG,5,ISIC_4067693.JPG,ISIC_0069087.JPG,false,1,keypress(m),500,380097.7999999523,380097.7000000477,377340.556,377343.2999999523,377357.297,380107.169,8,400,49,,ISIC_4067693.JPG
break,html.Screen,4_98_1,2023-10-31T05:13:58.226Z,,0,,,NaN,,,,,,false,,,,380099,380098.60000002384,,380098.2000000477,,380107.169,8,400,,,
break_continue,html.Screen,4_98_2,2023-10-31T05:13:58.226Z,,0,,,NaN,,,,,,false,,,,380099.5,380099.2999999523,,380099.2000000477,,380107.169,8,400,,,
sequence,flow.Sequence,4_98,2023-10-31T05:13:58.227Z,,0,,,2742.002999952296,completion,,,,,false,,,,380099.7000000477,380099.2999999523,377340.556,377343.2000000477,377357.297,380107.169,8,400,,,
trial,html.Screen,4_99_0,2023-10-31T05:14:00.949Z,,0,2,,2714.3310000000056,response,ISIC_7409889.JPG,8,ISIC_9157162.JPG,ISIC_9157162.JPG,false,0,keypress(z),500,382821.7999999523,382821.5,380090.931,380099.89999997616,380107.169,382823.884,8,400,50,,ISIC_7409889.JPG
break,html.Screen,4_99_1,2023-10-31T05:14:10.935Z,,0,,,10000.513999999966,timeout,,,,,false,,,,392808.89999997616,392807.989,382807.732,382821.89999997616,382823.884,392824.398,8,400,,,
break_continue,html.Screen,4_99_2,2023-10-31T05:14:12.099Z,,0,,,1132.0019999761716,response,,,,,false,continue,keypress(Space),,393973,393956.39999997616,392807.989,392809.10000002384,392824.398,393995.491,8,400,,,
sequence,flow.Sequence,4_99,2023-10-31T05:14:12.099Z,,0,,,13849.230999976164,completion,,,,,false,,,,393973,393956.39999997616,380090.931,380099.89999997616,380107.169,393995.491,8,400,,,
trial,html.Screen,4_100_0,2023-10-31T05:14:15.211Z,,0,3,,3088.50900000002,response,ISIC_2935987.JPG,5,ISIC_9983696.JPG,ISIC_9983696.JPG,false,0,keypress(z),500,397084.2999999523,397084,393957.619,393973.2000000477,393995.491,397090.713,8,400,1,,ISIC_2935987.JPG
break,html.Screen,4_100_1,2023-10-31T05:14:15.212Z,,0,,,NaN,,,,,,false,,,,397085.2999999523,397084.7999999523,,397084.60000002384,,397090.713,8,400,,,
break_continue,html.Screen,4_100_2,2023-10-31T05:14:15.212Z,,0,,,NaN,,,,,,false,,,,397085.60000002384,397085.60000002384,,397085.5,,397090.713,8,400,,,
sequence,flow.Sequence,4_100,2023-10-31T05:14:15.212Z,,0,,,3090.109000023862,completion,,,,,false,,,,397085.7999999523,397085.60000002384,393957.619,393973.10000002384,393995.491,397090.713,8,400,,,
trial,html.Screen,4_101_0,2023-10-31T05:14:18.082Z,,0,3,,2864.787000000011,response,ISIC_4086323.JPG,8,ISIC_0033605.JPG,ISIC_4086323.JPG,false,1,keypress(m),500,399955.89999997616,399955.5,397074.007,397085.7999999523,397090.713,399980.016,8,400,2,,ISIC_0033605.JPG
break,html.Screen,4_101_1,2023-10-31T05:14:18.083Z,,0,,,NaN,,,,,,false,,,,399956.7000000477,399956.39999997616,,399956,,399980.016,8,400,,,
break_continue,html.Screen,4_101_2,2023-10-31T05:14:18.083Z,,0,,,NaN,,,,,,false,,,,399957.2000000477,399957.10000002384,,399956.89999997616,,399980.016,8,400,,,
sequence,flow.Sequence,4_101,2023-10-31T05:14:18.084Z,,0,,,2866.387000023853,completion,,,,,false,,,,399957.2999999523,399957.10000002384,397074.007,397085.7999999523,397090.713,399980.016,8,400,,,
trial,html.Screen,4_102_0,2023-10-31T05:14:20.860Z,,0,3,,2753.6840000476805,response,ISIC_2647643.JPG,5,ISIC_1658623.JPG,ISIC_2647643.JPG,false,1,keypress(m),500,402734.10000002384,402733.7000000477,399941.269,399957.5,399980.016,402740.86,8,400,3,,ISIC_1658623.JPG
break,html.Screen,4_102_1,2023-10-31T05:14:20.861Z,,0,,,NaN,,,,,,false,,,,402735.10000002384,402734.60000002384,,402734.2999999523,,402740.86,8,400,,,
break_continue,html.Screen,4_102_2,2023-10-31T05:14:20.862Z,,0,,,NaN,,,,,,false,,,,402735.2999999523,402735.2999999523,,402735.2000000477,,402740.86,8,400,,,
sequence,flow.Sequence,4_102,2023-10-31T05:14:20.862Z,,0,,,2755.283999952313,completion,,,,,false,,,,402735.5,402735.2999999523,399941.269,399957.39999997616,399980.016,402740.86,8,400,,,
trial,html.Screen,4_103_0,2023-10-31T05:14:23.669Z,,0,3,,2801.740000023856,response,ISIC_5490257.JPG,7,ISIC_4926788.JPG,ISIC_5490257.JPG,false,1,keypress(m),500,405542.7999999523,405542.60000002384,402724.735,402735.7000000477,402740.86,405558.165,8,400,4,,ISIC_4926788.JPG
break,html.Screen,4_103_1,2023-10-31T05:14:23.670Z,,0,,,NaN,,,,,,false,,,,405543.7999999523,405543.39999997616,,405543,,405558.165,8,400,,,
break_continue,html.Screen,4_103_2,2023-10-31T05:14:23.670Z,,0,,,NaN,,,,,,false,,,,405544.2000000477,405544.10000002384,,405543.89999997616,,405558.165,8,400,,,
sequence,flow.Sequence,4_103,2023-10-31T05:14:23.671Z,,0,,,2803.240000023856,completion,,,,,false,,,,405544.2999999523,405544.10000002384,402724.735,402735.60000002384,402740.86,405558.165,8,400,,,
trial,html.Screen,4_104_0,2023-10-31T05:14:26.367Z,,0,3,,2682.435000023863,response,ISIC_0033427.JPG,7,ISIC_6785680.JPG,ISIC_6785680.JPG,false,0,keypress(z),500,408240.7999999523,408240.60000002384,405541.407,405544.39999997616,405558.165,408257.882,8,400,5,,ISIC_0033427.JPG
break,html.Screen,4_104_1,2023-10-31T05:14:26.368Z,,0,,,NaN,,,,,,false,,,,408241.7999999523,408241.2999999523,,408240.89999997616,,408257.882,8,400,,,
break_continue,html.Screen,4_104_2,2023-10-31T05:14:26.368Z,,0,,,NaN,,,,,,false,,,,408242.10000002384,408242,,408241.7999999523,,408257.882,8,400,,,
sequence,flow.Sequence,4_104,2023-10-31T05:14:26.368Z,,0,,,2683.835000000021,completion,,,,,false,,,,408242.2000000477,408242,405541.407,405544.39999997616,405558.165,408257.882,8,400,,,
trial,html.Screen,4_105_0,2023-10-31T05:14:29.384Z,,0,3,,2999.1180000000168,response,ISIC_0011704.JPG,10,ISIC_2560463.JPG,ISIC_0011704.JPG,false,1,keypress(m),500,411257.2000000477,411257,408241.33,408242.2000000477,408257.882,411274.874,8,400,6,,ISIC_2560463.JPG
break,html.Screen,4_105_1,2023-10-31T05:14:29.385Z,,0,,,NaN,,,,,,false,,,,411258.2999999523,411257.89999997616,,411257.5,,411274.874,8,400,,,
break_continue,html.Screen,4_105_2,2023-10-31T05:14:29.385Z,,0,,,NaN,,,,,,false,,,,411258.7000000477,411258.5,,411258.39999997616,,411274.874,8,400,,,
sequence,flow.Sequence,4_105,2023-10-31T05:14:29.385Z,,0,,,3000.6180000000168,completion,,,,,false,,,,411258.7999999523,411258.5,408241.33,408242.2000000477,408257.882,411274.874,8,400,,,
trial,html.Screen,4_106_0,2023-10-31T05:14:33.611Z,,0,3,,4209.326000047673,response,ISIC_0030845.JPG,6,ISIC_0073032.JPG,ISIC_0073032.JPG,false,0,keypress(z),500,415484.39999997616,415484.2000000477,411241.711,411258.89999997616,411274.874,415508.29,8,400,7,,ISIC_0030845.JPG
break,html.Screen,4_106_1,2023-10-31T05:14:33.612Z,,0,,,NaN,,,,,,false,,,,415485.2999999523,415485.10000002384,,415484.7000000477,,415508.29,8,400,,,
break_continue,html.Screen,4_106_2,2023-10-31T05:14:33.612Z,,0,,,NaN,,,,,,false,,,,415485.7000000477,415485.60000002384,,415485.39999997616,,415508.29,8,400,,,
sequence,flow.Sequence,4_106,2023-10-31T05:14:33.612Z,,0,,,4210.726000023831,completion,,,,,false,,,,415485.89999997616,415485.60000002384,411241.711,411258.89999997616,411274.874,415508.29,8,400,,,
trial,html.Screen,4_107_0,2023-10-31T05:14:37.202Z,,0,3,,3567.5099999523372,response,ISIC_0000848.JPG,12,ISIC_0058926.JPG,ISIC_0058926.JPG,false,0,keypress(z),500,419076,419075.7999999523,415491.635,415486,415508.29,419091.699,8,400,8,,ISIC_0000848.JPG
break,html.Screen,4_107_1,2023-10-31T05:14:37.203Z,,0,,,NaN,,,,,,false,,,,419077,419076.60000002384,,419076.2000000477,,419091.699,8,400,,,
break_continue,html.Screen,4_107_2,2023-10-31T05:14:37.204Z,,0,,,NaN,,,,,,false,,,,419077.2999999523,419077.2999999523,,419077.10000002384,,419091.699,8,400,,,
sequence,flow.Sequence,4_107,2023-10-31T05:14:37.204Z,,0,,,3569.0099999523372,completion,,,,,false,,,,419077.5,419077.2999999523,415491.635,415485.89999997616,415508.29,419091.699,8,400,,,
trial,html.Screen,4_108_0,2023-10-31T05:14:40.136Z,,0,3,,2918.200999976136,response,ISIC_0204355.JPG,12,ISIC_4787403.JPG,ISIC_4787403.JPG,false,0,keypress(z),500,422010.10000002384,422009.89999997616,419074.942,419077.60000002384,419091.699,422025.086,8,400,9,,ISIC_0204355.JPG
break,html.Screen,4_108_1,2023-10-31T05:14:40.137Z,,0,,,NaN,,,,,,false,,,,422011.10000002384,422010.60000002384,,422010.2000000477,,422025.086,8,400,,,
break_continue,html.Screen,4_108_2,2023-10-31T05:14:40.138Z,,0,,,NaN,,,,,,false,,,,422011.5,422011.39999997616,,422011.2999999523,,422025.086,8,400,,,
sequence,flow.Sequence,4_108,2023-10-31T05:14:40.138Z,,0,,,2919.700999976136,completion,,,,,false,,,,422011.60000002384,422011.39999997616,419074.942,419077.5,419091.699,422025.086,8,400,,,
trial,html.Screen,4_109_0,2023-10-31T05:14:43.422Z,,0,3,,3270.1140000476735,response,ISIC_2355513.JPG,12,ISIC_2673511.JPG,ISIC_2355513.JPG,false,1,keypress(m),500,425295.5,425295.2000000477,422008.343,422011.7000000477,422025.086,425308.455,8,400,10,,ISIC_2673511.JPG
break,html.Screen,4_109_1,2023-10-31T05:14:43.423Z,,0,,,NaN,,,,,,false,,,,425296.60000002384,425296.2000000477,,425295.7999999523,,425308.455,8,400,,,
break_continue,html.Screen,4_109_2,2023-10-31T05:14:43.423Z,,0,,,NaN,,,,,,false,,,,425297,425296.89999997616,,425296.7999999523,,425308.455,8,400,,,
sequence,flow.Sequence,4_109,2023-10-31T05:14:43.423Z,,0,,,3271.813999976148,completion,,,,,false,,,,425297.10000002384,425296.89999997616,422008.343,422011.7000000477,422025.086,425308.455,8,400,,,
trial,html.Screen,4_110_0,2023-10-31T05:14:47.687Z,,0,3,,4252.245000047667,response,ISIC_2304753.JPG,11,ISIC_0054123.JPG,ISIC_0054123.JPG,false,0,keypress(z),500,429561,429560.7000000477,425291.456,425297.2999999523,425308.455,429575.166,8,400,11,,ISIC_2304753.JPG
break,html.Screen,4_110_1,2023-10-31T05:14:47.688Z,,0,,,NaN,,,,,,false,,,,429562.2000000477,429561.5,,429561.2000000477,,429575.166,8,400,,,
break_continue,html.Screen,4_110_2,2023-10-31T05:14:47.689Z,,0,,,NaN,,,,,,false,,,,429562.60000002384,429562.39999997616,,429562.2999999523,,429575.166,8,400,,,
sequence,flow.Sequence,4_110,2023-10-31T05:14:47.689Z,,0,,,4253.944999976142,completion,,,,,false,,,,429562.7000000477,429562.39999997616,425291.456,425297.2000000477,425308.455,429575.166,8,400,,,
trial,html.Screen,4_111_0,2023-10-31T05:14:52.203Z,,0,3,,4501.3339999999735,response,ISIC_2974214.JPG,4,ISIC_0055759.JPG,ISIC_0055759.JPG,false,0,keypress(z),500,434076.7999999523,434076.5,429558.236,429562.7999999523,429575.166,434091.927,8,400,12,,ISIC_2974214.JPG
break,html.Screen,4_111_1,2023-10-31T05:14:52.204Z,,0,,,NaN,,,,,,false,,,,434077.7000000477,434077.39999997616,,434076.89999997616,,434091.927,8,400,,,
break_continue,html.Screen,4_111_2,2023-10-31T05:14:52.204Z,,0,,,NaN,,,,,,false,,,,434078.10000002384,434078,,434077.89999997616,,434091.927,8,400,,,
sequence,flow.Sequence,4_111,2023-10-31T05:14:52.204Z,,0,,,4502.8339999999735,completion,,,,,false,,,,434078.2000000477,434078,429558.236,429562.7999999523,429575.166,434091.927,8,400,,,
trial,html.Screen,4_112_0,2023-10-31T05:15:03.702Z,,0,3,,11516.668999999994,timeout,ISIC_0032828.JPG,7,ISIC_0025755.JPG,,false,,,500,445576.10000002384,445575.89999997616,434075.172,434078.2999999523,434091.927,445608.596,8,400,13,,
break,html.Screen,4_112_1,2023-10-31T05:15:03.703Z,,0,,,NaN,,,,,,false,,,,445576.89999997616,445576.7000000477,,445576.39999997616,,445608.596,8,400,,,
break_continue,html.Screen,4_112_2,2023-10-31T05:15:03.703Z,,0,,,NaN,,,,,,false,,,,445577.2000000477,445577.10000002384,,445577,,445608.596,8,400,,,
sequence,flow.Sequence,4_112,2023-10-31T05:15:03.704Z,,0,,,11485.173000023817,completion,,,,,false,,,,445577.2999999523,445577.10000002384,434075.172,434078.2999999523,434091.927,445608.596,8,400,,,
trial,html.Screen,4_113_0,2023-10-31T05:15:07.134Z,,0,3,,3398.0040000238223,response,ISIC_0054317.JPG,11,ISIC_7630831.JPG,ISIC_0054317.JPG,false,1,keypress(m),500,449007,449006.60000002384,445592.082,445577.39999997616,445608.596,449031.094,8,400,14,,ISIC_7630831.JPG
break,html.Screen,4_113_1,2023-10-31T05:15:07.135Z,,0,,,NaN,,,,,,false,,,,449007.7999999523,449007.60000002384,,449007.2000000477,,449031.094,8,400,,,
break_continue,html.Screen,4_113_2,2023-10-31T05:15:07.135Z,,0,,,NaN,,,,,,false,,,,449008.5,449008.39999997616,,449008.2000000477,,449031.094,8,400,,,
sequence,flow.Sequence,4_113,2023-10-31T05:15:07.136Z,,0,,,3399.8039999761386,completion,,,,,false,,,,449008.7999999523,449008.39999997616,445592.082,445577.39999997616,445608.596,449031.094,8,400,,,
trial,html.Screen,4_114_0,2023-10-31T05:15:09.720Z,,0,3,,2561.506000023859,response,ISIC_0929517.JPG,10,ISIC_2143002.JPG,ISIC_2143002.JPG,false,0,keypress(z),500,451592.89999997616,451592.60000002384,448991.529,449009,449031.094,451608.884,8,400,15,,ISIC_0929517.JPG
break,html.Screen,4_114_1,2023-10-31T05:15:09.721Z,,0,,,NaN,,,,,,false,,,,451594,451593.39999997616,,451593,,451608.884,8,400,,,
break_continue,html.Screen,4_114_2,2023-10-31T05:15:09.721Z,,0,,,NaN,,,,,,false,,,,451594.2000000477,451594.2000000477,,451594.10000002384,,451608.884,8,400,,,
sequence,flow.Sequence,4_114,2023-10-31T05:15:09.721Z,,0,,,2563.106000047701,completion,,,,,false,,,,451594.39999997616,451594.2000000477,448991.529,449008.89999997616,449031.094,451608.884,8,400,,,
trial,html.Screen,4_115_0,2023-10-31T05:15:15.981Z,,0,3,,6244.915999952296,response,ISIC_0027100.JPG,5,ISIC_0029086.JPG,ISIC_0027100.JPG,false,1,keypress(m),500,457854,457853.7999999523,451591.804,451594.5,451608.884,457858.269,8,400,16,,ISIC_0029086.JPG
break,html.Screen,4_115_1,2023-10-31T05:15:15.982Z,,0,,,NaN,,,,,,false,,,,457855,457854.60000002384,,457854.2999999523,,457858.269,8,400,,,
break_continue,html.Screen,4_115_2,2023-10-31T05:15:15.982Z,,0,,,NaN,,,,,,false,,,,457855.39999997616,457855.39999997616,,457855.2000000477,,457858.269,8,400,,,
sequence,flow.Sequence,4_115,2023-10-31T05:15:15.982Z,,0,,,6246.515999976138,completion,,,,,false,,,,457855.5,457855.39999997616,451591.804,451594.39999997616,451608.884,457858.269,8,400,,,
trial,html.Screen,4_116_0,2023-10-31T05:15:18.690Z,,0,3,,2704.3310000238707,response,ISIC_2379024.JPG,11,ISIC_5005869.JPG,ISIC_5005869.JPG,false,0,keypress(z),500,460562.89999997616,460562.60000002384,457842.2,457855.7000000477,457858.269,460575.638,8,400,17,,ISIC_2379024.JPG
break,html.Screen,4_116_1,2023-10-31T05:15:18.691Z,,0,,,NaN,,,,,,false,,,,460564.10000002384,460563.60000002384,,460563.2000000477,,460575.638,8,400,,,
break_continue,html.Screen,4_116_2,2023-10-31T05:15:18.691Z,,0,,,NaN,,,,,,false,,,,460564.39999997616,460564.2000000477,,460564.10000002384,,460575.638,8,400,,,
sequence,flow.Sequence,4_116,2023-10-31T05:15:18.691Z,,0,,,2705.9310000477126,completion,,,,,false,,,,460564.60000002384,460564.2000000477,457842.2,457855.60000002384,457858.269,460575.638,8,400,,,
trial,html.Screen,4_117_0,2023-10-31T05:15:21.337Z,,0,3,,2633.761999976181,response,ISIC_6991849.JPG,10,ISIC_9726155.JPG,ISIC_6991849.JPG,false,1,keypress(m),500,463209.60000002384,463209.39999997616,460558.585,460564.60000002384,460575.638,463225.667,8,400,18,,ISIC_9726155.JPG
break,html.Screen,4_117_1,2023-10-31T05:15:21.338Z,,0,,,NaN,,,,,,false,,,,463210.60000002384,463210.2000000477,,463209.89999997616,,463225.667,8,400,,,
break_continue,html.Screen,4_117_2,2023-10-31T05:15:21.338Z,,0,,,NaN,,,,,,false,,,,463211,463210.89999997616,,463210.7999999523,,463225.667,8,400,,,
sequence,flow.Sequence,4_117,2023-10-31T05:15:21.338Z,,0,,,2635.261999976181,completion,,,,,false,,,,463211.10000002384,463210.89999997616,460558.585,460564.60000002384,460575.638,463225.667,8,400,,,
trial,html.Screen,4_118_0,2023-10-31T05:15:23.843Z,,0,3,,2489.933000023826,response,ISIC_2852805.JPG,9,ISIC_0068234.JPG,ISIC_0068234.JPG,false,0,keypress(z),500,465715.7000000477,465715.60000002384,463208.96,463211.2000000477,463225.667,465725.671,8,400,19,,ISIC_2852805.JPG
break,html.Screen,4_118_1,2023-10-31T05:15:23.843Z,,0,,,NaN,,,,,,false,,,,465716.10000002384,465716,,465715.7000000477,,465725.671,8,400,,,
break_continue,html.Screen,4_118_2,2023-10-31T05:15:23.843Z,,0,,,NaN,,,,,,false,,,,465716.2999999523,465716.2999999523,,465716.2000000477,,465725.671,8,400,,,
sequence,flow.Sequence,4_118,2023-10-31T05:15:23.843Z,,0,,,2490.6329999523005,completion,,,,,false,,,,465716.2999999523,465716.2999999523,463208.96,463211.2000000477,463225.667,465725.671,8,400,,,
trial,html.Screen,4_119_0,2023-10-31T05:15:26.439Z,,0,3,,2586.429000023869,response,ISIC_0201767.JPG,12,ISIC_0013936.JPG,ISIC_0013936.JPG,false,0,keypress(z),500,468312.5,468312.10000002384,465708.679,465716.2999999523,465725.671,468325.742,8,400,20,,ISIC_0201767.JPG
break,html.Screen,4_119_1,2023-10-31T05:15:26.440Z,,0,,,NaN,,,,,,false,,,,468313.5,468313.2000000477,,468312.7999999523,,468325.742,8,400,,,
break_continue,html.Screen,4_119_2,2023-10-31T05:15:26.441Z,,0,,,NaN,,,,,,false,,,,468314.2000000477,468314,,468313.7000000477,,468325.742,8,400,,,
sequence,flow.Sequence,4_119,2023-10-31T05:15:26.441Z,,0,,,2588.329000000027,completion,,,,,false,,,,468314.60000002384,468314,465708.679,465716.2999999523,465725.671,468325.742,8,400,,,
trial,html.Screen,4_120_0,2023-10-31T05:15:30.114Z,,0,3,,3661.4580000476562,response,ISIC_8725878.JPG,12,ISIC_0071996.JPG,ISIC_8725878.JPG,false,1,keypress(m),500,471987.39999997616,471987.2000000477,468309.018,468314.7000000477,468325.742,471991.835,8,400,21,,ISIC_0071996.JPG
break,html.Screen,4_120_1,2023-10-31T05:15:30.115Z,,0,,,NaN,,,,,,false,,,,471988.2000000477,471987.7000000477,,471987.5,,471991.835,8,400,,,
break_continue,html.Screen,4_120_2,2023-10-31T05:15:30.116Z,,0,,,NaN,,,,,,false,,,,471988.60000002384,471988.5,,471988.2999999523,,471991.835,8,400,,,
sequence,flow.Sequence,4_120,2023-10-31T05:15:30.116Z,,0,,,3662.7579999999725,completion,,,,,false,,,,471988.7999999523,471988.5,468309.018,468314.7000000477,468325.742,471991.835,8,400,,,
trial,html.Screen,4_121_0,2023-10-31T05:15:33.645Z,,0,3,,3525.765000023821,response,ISIC_3273370.JPG,7,ISIC_1962844.JPG,ISIC_1962844.JPG,false,0,keypress(z),500,475517.89999997616,475517.60000002384,471975.779,471988.89999997616,471991.835,475525.253,8,400,22,,ISIC_3273370.JPG
break,html.Screen,4_121_1,2023-10-31T05:15:33.646Z,,0,,,NaN,,,,,,false,,,,475518.7999999523,475518.5,,475518.10000002384,,475525.253,8,400,,,
break_continue,html.Screen,4_121_2,2023-10-31T05:15:33.646Z,,0,,,NaN,,,,,,false,,,,475519.39999997616,475519.10000002384,,475519.10000002384,,475525.253,8,400,,,
sequence,flow.Sequence,4_121,2023-10-31T05:15:33.646Z,,0,,,3527.265000023821,completion,,,,,false,,,,475519.60000002384,475519.10000002384,471975.779,471988.7999999523,471991.835,475525.253,8,400,,,
trial,html.Screen,4_122_0,2023-10-31T05:15:36.736Z,,0,3,,3083.646999976132,response,ISIC_8892236.JPG,9,ISIC_0000315.JPG,ISIC_8892236.JPG,false,1,keypress(m),500,478609.2000000477,478608.89999997616,475509.134,475519.7000000477,475525.253,478625.61,8,400,23,,ISIC_0000315.JPG
break,html.Screen,4_122_1,2023-10-31T05:15:36.737Z,,0,,,NaN,,,,,,false,,,,478610.2000000477,478609.7999999523,,478609.5,,478625.61,8,400,,,
break_continue,html.Screen,4_122_2,2023-10-31T05:15:36.738Z,,0,,,NaN,,,,,,false,,,,478610.7999999523,478610.60000002384,,478610.5,,478625.61,8,400,,,
sequence,flow.Sequence,4_122,2023-10-31T05:15:36.738Z,,0,,,3085.347000023816,completion,,,,,false,,,,478611,478610.60000002384,475509.134,475519.7000000477,475525.253,478625.61,8,400,,,
trial,html.Screen,4_123_0,2023-10-31T05:15:41.064Z,,0,3,,4311.289999976172,response,ISIC_0011752.JPG,11,ISIC_1479949.JPG,ISIC_0011752.JPG,false,1,keypress(m),500,482937.2000000477,482936.89999997616,478609.138,478611.2999999523,478625.61,482941.959,8,400,24,,ISIC_1479949.JPG
break,html.Screen,4_123_1,2023-10-31T05:15:41.065Z,,0,,,NaN,,,,,,false,,,,482938.2000000477,482937.7000000477,,482937.2999999523,,482941.959,8,400,,,
break_continue,html.Screen,4_123_2,2023-10-31T05:15:41.066Z,,0,,,NaN,,,,,,false,,,,482938.7000000477,482938.60000002384,,482938.39999997616,,482941.959,8,400,,,
sequence,flow.Sequence,4_123,2023-10-31T05:15:41.066Z,,0,,,4312.990000023856,completion,,,,,false,,,,482939,482938.60000002384,478609.138,478611.10000002384,478625.61,482941.959,8,400,,,
trial,html.Screen,4_124_0,2023-10-31T05:15:44.068Z,,0,3,,2998.5410000000265,response,ISIC_0032424.JPG,7,ISIC_0031629.JPG,ISIC_0032424.JPG,false,1,keypress(m),500,485940.7000000477,485940.5,482925.992,482939.10000002384,482941.959,485964.675,8,400,25,,ISIC_0031629.JPG
break,html.Screen,4_124_1,2023-10-31T05:15:44.069Z,,0,,,NaN,,,,,,false,,,,485941.7999999523,485941.2000000477,,485940.89999997616,,485964.675,8,400,,,
break_continue,html.Screen,4_124_2,2023-10-31T05:15:44.069Z,,0,,,NaN,,,,,,false,,,,485942.2999999523,485942.2000000477,,485942,,485964.675,8,400,,,
sequence,flow.Sequence,4_124,2023-10-31T05:15:44.069Z,,0,,,3000.2410000477103,completion,,,,,false,,,,485942.39999997616,485942.2000000477,482925.992,482939.10000002384,482941.959,485964.675,8,400,,,
trial,html.Screen,4_125_0,2023-10-31T05:15:55.570Z,,0,3,,11511.443000000028,timeout,ISIC_0009230.JPG,5,ISIC_0009186.JPG,,false,,,500,497443.60000002384,497443.2000000477,485926.059,485942.5,485964.675,497476.118,8,400,26,,
break,html.Screen,4_125_1,2023-10-31T05:15:55.571Z,,0,,,NaN,,,,,,false,,,,497444.39999997616,497444.2000000477,,497443.7000000477,,497476.118,8,400,,,
break_continue,html.Screen,4_125_2,2023-10-31T05:15:55.572Z,,0,,,NaN,,,,,,false,,,,497445,497444.7999999523,,497444.60000002384,,497476.118,8,400,,,
