sender,sender_type,sender_id,timestamp,meta,,blockNo,condition,duration,ended_on,img_left,img_reveal,img_right,loser,practice,response,response_action,selection_duration,time_commit,time_end,time_render,time_run,time_show,time_switch,total_blocks,total_trials,trialNo,url,winner
informed_consent,html.Screen,0,2023-09-15T21:48:03.675Z,"{""labjs_version"":""20.2.4"",""labjs_build"":{""flavor"":""production"",""commit"":""f5b4a49f956347addd546a832a3327688c2c0fef""},""location"":""https://run.pavlovia.org/MurrayBennett/melanoma-2afc/?participant=65746&platform=sona"",""userAgent"":""Mozilla/5.0 (Windows NT 10.0; Win64; x64) AppleWebKit/537.36 (KHTML, like Gecko) Chrome/116.0.0.0 Safari/537.36 Edg/116.0.1938.81"",""platform"":""Win32"",""language"":""en-US"",""locale"":""en-US"",""timeZone"":""America/Chicago"",""timezoneOffset"":300,""screen_width"":1280,""screen_height"":720,""scroll_width"":1272,""scroll_height"":598,""window_innerWidth"":1272,""window_innerHeight"":598,""devicePixelRatio"":1.5}",,,,56450.995,response,,,,,,consent,click button,,63421.90000000596,63418,6567.054,6968.70000000298,6967.005,63447.646,,,,"{""participant"":""65746"",""platform"":""sona""}",
Welcome,html.Screen,1,2023-09-15T21:49:04.912Z,,,,irregular,61207.05400000298,response,,,,,,continue,click button,,124658.30000001192,124654.70000000298,63414.963,63422.30000001192,63447.646,124661.344,,,,,
trial,html.Screen,2_0_0,2023-09-15T21:49:12.595Z,,0,0,,7682.456000011924,response,ISIC_4679428.JPG,,ISIC_0061792.JPG,ISIC_0061792.JPG,true,0,keypress(z),500,132344.10000000894,132343.80000001192,124644.666,124658.80000001192,124661.344,132363.61,1,6,1,,ISIC_4679428.JPG
sequence,flow.Sequence,2_0,2023-09-15T21:49:12.595Z,,0,,,7682.456000011924,completion,,,,,true,,,,132344.5,132343.80000001192,124644.666,124658.70000000298,124661.344,132363.61,1,6,,,
trial,html.Screen,2_1_0,2023-09-15T21:49:21.551Z,,0,0,,8936.490000008955,response,ISIC_0776486.JPG,,ISIC_5199497.JPG,ISIC_0776486.JPG,true,1,keypress(m),500,141300.30000001192,141300.10000000894,132344.462,132344.60000000894,132363.61,141310.653,1,6,2,,ISIC_5199497.JPG
sequence,flow.Sequence,2_1,2023-09-15T21:49:21.551Z,,0,,,8936.490000008955,completion,,,,,true,,,,141300.60000000894,141300.10000000894,132344.462,132344.60000000894,132363.61,141310.653,1,6,,,
trial,html.Screen,2_2_0,2023-09-15T21:49:28.402Z,,0,0,,6840.247000005969,response,ISIC_8575776.JPG,,ISIC_2556187.JPG,ISIC_2556187.JPG,true,0,keypress(z),500,148151.10000000894,148150.90000000596,141298.36,141300.70000000298,141310.653,148162.066,1,6,3,,ISIC_8575776.JPG
sequence,flow.Sequence,2_2,2023-09-15T21:49:28.402Z,,0,,,6840.247000005969,completion,,,,,true,,,,148151.30000001192,148150.90000000596,141298.36,141300.60000000894,141310.653,148162.066,1,6,,,
trial,html.Screen,2_3_0,2023-09-15T21:49:32.482Z,,0,0,,4069.334000005969,response,ISIC_9238366.JPG,,ISIC_8141769.JPG,ISIC_8141769.JPG,true,0,keypress(z),500,152231.80000001192,152231.40000000596,148144.116,148151.5,148162.066,152244.969,1,6,4,,ISIC_9238366.JPG
sequence,flow.Sequence,2_3,2023-09-15T21:49:32.483Z,,0,,,4069.334000005969,completion,,,,,true,,,,152232.10000000894,152231.40000000596,148144.116,148151.40000000596,148162.066,152244.969,1,6,,,
trial,html.Screen,2_4_0,2023-09-15T21:49:36.269Z,,0,0,,3772.9310000059486,response,ISIC_9959593.JPG,,ISIC_8949026.JPG,ISIC_8949026.JPG,true,0,keypress(z),500,156018.20000000298,156017.90000000596,152227.194,152232.40000000596,152244.969,156026.69,1,6,5,,ISIC_9959593.JPG
sequence,flow.Sequence,2_4,2023-09-15T21:49:36.269Z,,0,,,3772.9310000059486,completion,,,,,true,,,,156018.40000000596,156017.90000000596,152227.194,152232.30000001192,152244.969,156026.69,1,6,,,
trial,html.Screen,2_5_0,2023-09-15T21:49:43.444Z,,0,0,,7166.910000008938,response,ISIC_0460240.JPG,,ISIC_0010479.JPG,ISIC_0010479.JPG,true,0,keypress(z),500,163193.80000001192,163193.60000000894,156010.744,156018.60000000894,156026.69,163210.457,1,6,6,,ISIC_0460240.JPG
sequence,flow.Sequence,2_5,2023-09-15T21:49:43.445Z,,0,,,7166.910000008938,completion,,,,,true,,,,163194.10000000894,163193.60000000894,156010.744,156018.60000000894,156026.69,163210.457,1,6,,,
loop,flow.Loop,2,2023-09-15T21:49:43.445Z,,,,,38532.25600000894,completion,,,,,true,,,,163194.20000000298,163193.60000000894,124644.666,124658.70000000298,124661.344,163210.457,1,6,,,
exp_instructions,html.Screen,3,2023-09-15T21:50:07.981Z,,,,,24515.543000000005,response,,,,,,continue,keypress(Space),,187726.90000000596,187726,163193.486,163194.30000001192,163210.457,187741.812,,,,,
trial,html.Screen,4_0_0,2023-09-15T21:50:14.181Z,,0,1,,6185.088000005955,response,ISIC_0024258.JPG,20,ISIC_0001135.JPG,ISIC_0001135.JPG,false,0,keypress(z),500,193927.10000000894,193926.90000000596,187723.185,187727.20000000298,187741.812,193962.612,8,400,1,,ISIC_0024258.JPG
break,html.Screen,4_0_1,2023-09-15T21:50:14.183Z,,0,,,NaN,,,,,,false,,,,193929,193928.70000000298,,193927.20000000298,,193962.612,8,400,,,
break_continue,html.Screen,4_0_2,2023-09-15T21:50:14.183Z,,0,,,NaN,,,,,,false,,,,193929.5,193929.30000001192,,193929.20000000298,,193962.612,8,400,,,
sequence,flow.Sequence,4_0,2023-09-15T21:50:14.183Z,,0,,,6187.488000011916,completion,,,,,false,,,,193929.60000000894,193929.30000001192,187723.185,187727.10000000894,187741.812,193962.612,8,400,,,
trial,html.Screen,4_1_0,2023-09-15T21:50:18.641Z,,0,1,,4424.5880000029865,response,ISIC_0004691.JPG,8,ISIC_0061479.JPG,ISIC_0004691.JPG,false,1,keypress(m),500,198387.40000000596,198387.20000000298,193942.044,193929.70000000298,193962.612,198391.143,8,400,2,,ISIC_0061479.JPG
break,html.Screen,4_1_1,2023-09-15T21:50:18.642Z,,0,,,NaN,,,,,,false,,,,198388.20000000298,198388,,198387.5,,198391.143,8,400,,,
break_continue,html.Screen,4_1_2,2023-09-15T21:50:18.642Z,,0,,,NaN,,,,,,false,,,,198388.40000000596,198388.40000000596,,198388.30000001192,,198391.143,8,400,,,
sequence,flow.Sequence,4_1,2023-09-15T21:50:18.642Z,,0,,,4425.788000005967,completion,,,,,false,,,,198388.60000000894,198388.40000000596,193942.044,193929.70000000298,193962.612,198391.143,8,400,,,
trial,html.Screen,4_2_0,2023-09-15T21:50:22.493Z,,0,1,,3848.0570000029693,response,ISIC_4803943.JPG,2,ISIC_0032161.JPG,ISIC_4803943.JPG,false,1,keypress(m),500,202239.60000000894,202239.20000000298,198374.412,198388.70000000298,198391.143,202243.75,8,400,3,,ISIC_0032161.JPG
break,html.Screen,4_2_1,2023-09-15T21:50:22.495Z,,0,,,NaN,,,,,,false,,,,202240.90000000596,202240.70000000298,,202239.70000000298,,202243.75,8,400,,,
break_continue,html.Screen,4_2_2,2023-09-15T21:50:22.495Z,,0,,,NaN,,,,,,false,,,,202241.20000000298,202241.10000000894,,202241.10000000894,,202243.75,8,400,,,
sequence,flow.Sequence,4_2,2023-09-15T21:50:22.495Z,,0,,,3849.9570000089298,completion,,,,,false,,,,202241.30000001192,202241.10000000894,198374.412,198388.60000000894,198391.143,202243.75,8,400,,,
trial,html.Screen,4_3_0,2023-09-15T21:50:25.575Z,,0,1,,3077.050000011921,response,ISIC_0053760.JPG,6,ISIC_0011434.JPG,ISIC_0053760.JPG,false,1,keypress(m),500,205321.20000000298,205320.80000001192,202227.41,202241.40000000596,202243.75,205324.244,8,400,4,,ISIC_0011434.JPG
break,html.Screen,4_3_1,2023-09-15T21:50:25.577Z,,0,,,NaN,,,,,,false,,,,205323.30000001192,205322.90000000596,,205321.5,,205324.244,8,400,,,
break_continue,html.Screen,4_3_2,2023-09-15T21:50:25.578Z,,0,,,NaN,,,,,,false,,,,205323.70000000298,205323.60000000894,,205323.40000000596,,205324.244,8,400,,,
sequence,flow.Sequence,4_3,2023-09-15T21:50:25.578Z,,0,,,3079.8500000089407,completion,,,,,false,,,,205323.90000000596,205323.60000000894,202227.41,202241.30000001192,202243.75,205324.244,8,400,,,
trial,html.Screen,4_4_0,2023-09-15T21:50:28.739Z,,0,1,,3160.456000002974,response,ISIC_5585279.JPG,6,ISIC_3985782.JPG,ISIC_3985782.JPG,false,0,keypress(z),500,208484.90000000596,208484.70000000298,205307.981,205324,205324.244,208492.351,8,400,5,,ISIC_5585279.JPG
break,html.Screen,4_4_1,2023-09-15T21:50:28.740Z,,0,,,NaN,,,,,,false,,,,208486.10000000894,208486,,208485,,208492.351,8,400,,,
break_continue,html.Screen,4_4_2,2023-09-15T21:50:28.740Z,,0,,,NaN,,,,,,false,,,,208486.40000000596,208486.30000001192,,208486.20000000298,,208492.351,8,400,,,
sequence,flow.Sequence,4_4,2023-09-15T21:50:28.740Z,,0,,,3162.056000011915,completion,,,,,false,,,,208486.5,208486.30000001192,205307.981,205324,205324.244,208492.351,8,400,,,
trial,html.Screen,4_5_0,2023-09-15T21:50:32.175Z,,0,1,,3428.349000002985,response,ISIC_0914168.JPG,10,ISIC_0011698.JPG,ISIC_0914168.JPG,false,1,keypress(m),500,211921.40000000596,211920.70000000298,208474.326,208486.60000000894,208492.351,211924.205,8,400,6,,ISIC_0011698.JPG
break,html.Screen,4_5_1,2023-09-15T21:50:32.177Z,,0,,,NaN,,,,,,false,,,,211923.40000000596,211923,,211921.60000000894,,211924.205,8,400,,,
break_continue,html.Screen,4_5_2,2023-09-15T21:50:32.178Z,,0,,,NaN,,,,,,false,,,,211924,211923.80000001192,,211923.60000000894,,211924.205,8,400,,,
sequence,flow.Sequence,4_5,2023-09-15T21:50:32.179Z,,0,,,3431.449000011926,completion,,,,,false,,,,211924.80000001192,211923.80000001192,208474.326,208486.60000000894,208492.351,211924.205,8,400,,,
trial,html.Screen,4_6_0,2023-09-15T21:50:37.019Z,,0,1,,4840.295000000013,response,ISIC_0922552.JPG,7,ISIC_0027170.JPG,ISIC_0922552.JPG,false,1,keypress(m),500,216764.70000000298,216764.5,211907.835,211924.90000000596,211924.205,216776.072,8,400,7,,ISIC_0027170.JPG
break,html.Screen,4_6_1,2023-09-15T21:50:37.020Z,,0,,,NaN,,,,,,false,,,,216765.80000001192,216765.70000000298,,216764.80000001192,,216776.072,8,400,,,
break_continue,html.Screen,4_6_2,2023-09-15T21:50:37.020Z,,0,,,NaN,,,,,,false,,,,216766,216766,,216765.90000000596,,216776.072,8,400,,,
sequence,flow.Sequence,4_6,2023-09-15T21:50:37.020Z,,0,,,4841.795000000013,completion,,,,,false,,,,216766.20000000298,216766,211907.835,211924.90000000596,211924.205,216776.072,8,400,,,
trial,html.Screen,4_7_0,2023-09-15T21:50:41.902Z,,0,1,,4872.228000011935,response,ISIC_0057593.JPG,13,ISIC_0012678.JPG,ISIC_0012678.JPG,false,0,keypress(z),500,221648.60000000894,221648.30000001192,216757.158,216766.20000000298,216776.072,221657.294,8,400,8,,ISIC_0057593.JPG
break,html.Screen,4_7_1,2023-09-15T21:50:41.904Z,,0,,,NaN,,,,,,false,,,,221650,221649.80000001192,,221648.70000000298,,221657.294,8,400,,,
break_continue,html.Screen,4_7_2,2023-09-15T21:50:41.904Z,,0,,,NaN,,,,,,false,,,,221650.20000000298,221650.20000000298,,221650.10000000894,,221657.294,8,400,,,
sequence,flow.Sequence,4_7,2023-09-15T21:50:41.904Z,,0,,,4874.128000002995,completion,,,,,false,,,,221650.40000000596,221650.20000000298,216757.158,216766.20000000298,216776.072,221657.294,8,400,,,
trial,html.Screen,4_8_0,2023-09-15T21:50:46.962Z,,0,1,,5050.806000008946,response,ISIC_5768032.JPG,2,ISIC_0068233.JPG,ISIC_0068233.JPG,false,0,keypress(z),500,226708.30000001192,226708.10000000894,221640.327,221650.5,221657.294,226741.579,8,400,9,,ISIC_5768032.JPG
break,html.Screen,4_8_1,2023-09-15T21:50:46.963Z,,0,,,NaN,,,,,,false,,,,226709,226708.80000001192,,226708.5,,226741.579,8,400,,,
break_continue,html.Screen,4_8_2,2023-09-15T21:50:46.963Z,,0,,,NaN,,,,,,false,,,,226709.30000001192,226709.20000000298,,226709.10000000894,,226741.579,8,400,,,
sequence,flow.Sequence,4_8,2023-09-15T21:50:46.963Z,,0,,,5051.906000002986,completion,,,,,false,,,,226709.40000000596,226709.20000000298,221640.327,221650.5,221657.294,226741.579,8,400,,,
trial,html.Screen,4_9_0,2023-09-15T21:50:53.669Z,,0,1,,6673.021000008943,response,ISIC_0024421.JPG,4,ISIC_8040024.JPG,ISIC_8040024.JPG,false,0,keypress(z),500,233414.80000001192,233414.60000000894,226723.822,226709.40000000596,226741.579,233422.926,8,400,10,,ISIC_0024421.JPG
break,html.Screen,4_9_1,2023-09-15T21:50:53.670Z,,0,,,NaN,,,,,,false,,,,233416,233415.90000000596,,233415,,233422.926,8,400,,,
break_continue,html.Screen,4_9_2,2023-09-15T21:50:53.670Z,,0,,,NaN,,,,,,false,,,,233416.30000001192,233416.30000001192,,233416.10000000894,,233422.926,8,400,,,
sequence,flow.Sequence,4_9,2023-09-15T21:50:53.670Z,,0,,,6674.721000011923,completion,,,,,false,,,,233416.30000001192,233416.30000001192,226723.822,226709.40000000596,226741.579,233422.926,8,400,,,
trial,html.Screen,4_10_0,2023-09-15T21:50:58.510Z,,0,1,,4833.374000011914,response,ISIC_4363603.JPG,11,ISIC_1161370.JPG,ISIC_1161370.JPG,false,0,keypress(z),500,238256.60000000894,238256.30000001192,233406.716,233416.40000000596,233422.926,238272.59,8,400,11,,ISIC_4363603.JPG
break,html.Screen,4_10_1,2023-09-15T21:50:58.512Z,,0,,,NaN,,,,,,false,,,,238258,238257.90000000596,,238256.70000000298,,238272.59,8,400,,,
break_continue,html.Screen,4_10_2,2023-09-15T21:50:58.512Z,,0,,,NaN,,,,,,false,,,,238258.20000000298,238258.20000000298,,238258.10000000894,,238272.59,8,400,,,
sequence,flow.Sequence,4_10,2023-09-15T21:50:58.512Z,,0,,,4835.2740000029735,completion,,,,,false,,,,238258.40000000596,238258.20000000298,233406.716,233416.40000000596,233422.926,238272.59,8,400,,,
trial,html.Screen,4_11_0,2023-09-15T21:51:01.331Z,,0,1,,2804.810000005964,response,ISIC_5370803.JPG,10,ISIC_0063988.JPG,ISIC_5370803.JPG,false,1,keypress(m),500,241077.60000000894,241077.40000000596,238242.767,238258.40000000596,238272.59,241089.454,8,400,12,,ISIC_0063988.JPG
break,html.Screen,4_11_1,2023-09-15T21:51:01.333Z,,0,,,NaN,,,,,,false,,,,241078.90000000596,241078.80000001192,,241077.80000001192,,241089.454,8,400,,,
break_continue,html.Screen,4_11_2,2023-09-15T21:51:01.333Z,,0,,,NaN,,,,,,false,,,,241079.20000000298,241079.20000000298,,241079,,241089.454,8,400,,,
sequence,flow.Sequence,4_11,2023-09-15T21:51:01.333Z,,0,,,2806.6100000029837,completion,,,,,false,,,,241079.40000000596,241079.20000000298,238242.767,238258.40000000596,238272.59,241089.454,8,400,,,
trial,html.Screen,4_12_0,2023-09-15T21:51:04.493Z,,0,1,,3149.846000011923,response,ISIC_2826766.JPG,8,ISIC_6442221.JPG,ISIC_6442221.JPG,false,0,keypress(z),500,244239.5,244239.30000001192,241072.892,241079.40000000596,241089.454,244255.691,8,400,13,,ISIC_2826766.JPG
break,html.Screen,4_12_1,2023-09-15T21:51:04.495Z,,0,,,NaN,,,,,,false,,,,244240.70000000298,244240.5,,244239.60000000894,,244255.691,8,400,,,
break_continue,html.Screen,4_12_2,2023-09-15T21:51:04.495Z,,0,,,NaN,,,,,,false,,,,244240.80000001192,244240.80000001192,,244240.80000001192,,244255.691,8,400,,,
sequence,flow.Sequence,4_12,2023-09-15T21:51:04.495Z,,0,,,3151.346000011923,completion,,,,,false,,,,244240.90000000596,244240.80000001192,241072.892,241079.40000000596,241089.454,244255.691,8,400,,,
trial,html.Screen,4_13_0,2023-09-15T21:51:07.706Z,,0,1,,3196.3090000000084,response,ISIC_0025018.JPG,8,ISIC_3073634.JPG,ISIC_3073634.JPG,false,0,keypress(z),500,247452.20000000298,247452,244239.627,244241,244255.691,247456.617,8,400,14,,ISIC_0025018.JPG
break,html.Screen,4_13_1,2023-09-15T21:51:07.707Z,,0,,,NaN,,,,,,false,,,,247453.40000000596,247453.30000001192,,247452.30000001192,,247456.617,8,400,,,
break_continue,html.Screen,4_13_2,2023-09-15T21:51:07.707Z,,0,,,NaN,,,,,,false,,,,247453.70000000298,247453.70000000298,,247453.60000000894,,247456.617,8,400,,,
sequence,flow.Sequence,4_13,2023-09-15T21:51:07.708Z,,0,,,3198.0090000029886,completion,,,,,false,,,,247453.80000001192,247453.70000000298,244239.627,244241,244255.691,247456.617,8,400,,,
trial,html.Screen,4_14_0,2023-09-15T21:51:10.569Z,,0,1,,2857.4830000089423,response,ISIC_7795549.JPG,26,ISIC_0068407.JPG,ISIC_7795549.JPG,false,1,keypress(m),500,250315.10000000894,250314.10000000894,247439.389,247453.80000001192,247456.617,250322.258,8,400,15,,ISIC_0068407.JPG
break,html.Screen,4_14_1,2023-09-15T21:51:10.572Z,,0,,,NaN,,,,,,false,,,,250318,250317.60000000894,,250315.40000000596,,250322.258,8,400,,,
break_continue,html.Screen,4_14_2,2023-09-15T21:51:10.572Z,,0,,,NaN,,,,,,false,,,,250318.5,250318.30000001192,,250318.20000000298,,250322.258,8,400,,,
sequence,flow.Sequence,4_14,2023-09-15T21:51:10.572Z,,0,,,2861.6830000119226,completion,,,,,false,,,,250318.60000000894,250318.30000001192,247439.389,247453.80000001192,247456.617,250322.258,8,400,,,
trial,html.Screen,4_15_0,2023-09-15T21:51:19.140Z,,0,1,,8563.842000008939,response,ISIC_5301938.JPG,8,ISIC_0003324.JPG,ISIC_0003324.JPG,false,0,keypress(z),500,258886.30000001192,258886.10000000894,250305.463,250318.70000000298,250322.258,258890.883,8,400,16,,ISIC_5301938.JPG
break,html.Screen,4_15_1,2023-09-15T21:51:19.141Z,,0,,,NaN,,,,,,false,,,,258887.60000000894,258887.5,,258886.40000000596,,258890.883,8,400,,,
break_continue,html.Screen,4_15_2,2023-09-15T21:51:19.142Z,,0,,,NaN,,,,,,false,,,,258887.90000000596,258887.80000001192,,258887.70000000298,,258890.883,8,400,,,
sequence,flow.Sequence,4_15,2023-09-15T21:51:19.142Z,,0,,,8565.54200001192,completion,,,,,false,,,,258888,258887.80000001192,250305.463,250318.70000000298,250322.258,258890.883,8,400,,,
trial,html.Screen,4_16_0,2023-09-15T21:51:23.782Z,,0,1,,4636.517000005959,response,ISIC_7349440.JPG,9,ISIC_0024802.JPG,ISIC_0024802.JPG,false,0,keypress(z),500,263527.8000000119,263527.40000000596,258871.922,258888.20000000298,258890.883,263538.043,8,400,17,,ISIC_7349440.JPG
break,html.Screen,4_16_1,2023-09-15T21:51:23.783Z,,0,,,NaN,,,,,,false,,,,263529.200000003,263529,,263528,,263538.043,8,400,,,
break_continue,html.Screen,4_16_2,2023-09-15T21:51:23.784Z,,0,,,NaN,,,,,,false,,,,263529.700000003,263529.60000000894,,263529.40000000596,,263538.043,8,400,,,
sequence,flow.Sequence,4_16,2023-09-15T21:51:23.784Z,,0,,,4638.717000008939,completion,,,,,false,,,,263529.90000000596,263529.60000000894,258871.922,258888.20000000298,258890.883,263538.043,8,400,,,
trial,html.Screen,4_17_0,2023-09-15T21:51:26.867Z,,0,1,,3074.956999999995,response,ISIC_5545874.JPG,7,ISIC_1308649.JPG,ISIC_1308649.JPG,false,0,keypress(z),500,266613.3000000119,266613,263524.379,263530,263538.043,266621.311,8,400,18,,ISIC_5545874.JPG
break,html.Screen,4_17_1,2023-09-15T21:51:26.868Z,,0,,,NaN,,,,,,false,,,,266614.5,266614.3000000119,,266613.60000000894,,266621.311,8,400,,,
break_continue,html.Screen,4_17_2,2023-09-15T21:51:26.869Z,,0,,,NaN,,,,,,false,,,,266614.90000000596,266614.8000000119,,266614.700000003,,266621.311,8,400,,,
sequence,flow.Sequence,4_17,2023-09-15T21:51:26.869Z,,0,,,3076.757000011916,completion,,,,,false,,,,266615.10000000894,266614.8000000119,263524.379,263530,263538.043,266621.311,8,400,,,
trial,html.Screen,4_18_0,2023-09-15T21:51:31.099Z,,0,1,,4224.0890000059735,response,ISIC_0003910.JPG,8,ISIC_0011862.JPG,ISIC_0003910.JPG,false,1,keypress(m),500,270845.700000003,270845.40000000596,266605.561,266615.200000003,266621.311,270854.592,8,400,19,,ISIC_0011862.JPG
break,html.Screen,4_18_1,2023-09-15T21:51:31.101Z,,0,,,NaN,,,,,,false,,,,270847.60000000894,270847.3000000119,,270845.90000000596,,270854.592,8,400,,,
break_continue,html.Screen,4_18_2,2023-09-15T21:51:31.102Z,,0,,,NaN,,,,,,false,,,,270847.90000000596,270847.8000000119,,270847.60000000894,,270854.592,8,400,,,
sequence,flow.Sequence,4_18,2023-09-15T21:51:31.102Z,,0,,,4226.489000011934,completion,,,,,false,,,,270848,270847.8000000119,266605.561,266615.10000000894,266621.311,270854.592,8,400,,,
trial,html.Screen,4_19_0,2023-09-15T21:51:34.319Z,,0,1,,3210.108000002976,response,ISIC_6901969.JPG,11,ISIC_0005304.JPG,ISIC_0005304.JPG,false,0,keypress(z),500,274065,274064.700000003,270838.209,270848.10000000894,270854.592,274072.728,8,400,20,,ISIC_6901969.JPG
break,html.Screen,4_19_1,2023-09-15T21:51:34.320Z,,0,,,NaN,,,,,,false,,,,274066.5,274066.40000000596,,274065.200000003,,274072.728,8,400,,,
break_continue,html.Screen,4_19_2,2023-09-15T21:51:34.321Z,,0,,,NaN,,,,,,false,,,,274066.8000000119,274066.8000000119,,274066.60000000894,,274072.728,8,400,,,
sequence,flow.Sequence,4_19,2023-09-15T21:51:34.321Z,,0,,,3212.2080000119167,completion,,,,,false,,,,274066.90000000596,274066.8000000119,270838.209,270848.10000000894,270854.592,274072.728,8,400,,,
trial,html.Screen,4_20_0,2023-09-15T21:51:37.140Z,,0,1,,2812.9720000029774,response,ISIC_7297078.JPG,10,ISIC_0011007.JPG,ISIC_7297078.JPG,false,1,keypress(m),500,276885.90000000596,276885.700000003,274054.437,274067,274072.728,276904.238,8,400,21,,ISIC_0011007.JPG
break,html.Screen,4_20_1,2023-09-15T21:51:37.142Z,,0,,,NaN,,,,,,false,,,,276887.8000000119,276887.5,,276886.10000000894,,276904.238,8,400,,,
break_continue,html.Screen,4_20_2,2023-09-15T21:51:37.142Z,,0,,,NaN,,,,,,false,,,,276888.10000000894,276888.10000000894,,276887.90000000596,,276904.238,8,400,,,
sequence,flow.Sequence,4_20,2023-09-15T21:51:37.142Z,,0,,,2815.372000008938,completion,,,,,false,,,,276888.200000003,276888.10000000894,274054.437,274067,274072.728,276904.238,8,400,,,
trial,html.Screen,4_21_0,2023-09-15T21:51:43.799Z,,0,1,,6640.462000002968,response,ISIC_0000398.JPG,12,ISIC_0000161.JPG,ISIC_0000161.JPG,false,0,keypress(z),500,283544.8000000119,283544.700000003,276871.471,276888.3000000119,276904.238,283553.96,8,400,22,,ISIC_0000398.JPG
break,html.Screen,4_21_1,2023-09-15T21:51:43.800Z,,0,,,NaN,,,,,,false,,,,283546.3000000119,283546.10000000894,,283545,,283553.96,8,400,,,
break_continue,html.Screen,4_21_2,2023-09-15T21:51:43.800Z,,0,,,NaN,,,,,,false,,,,283546.60000000894,283546.5,,283546.40000000596,,283553.96,8,400,,,
sequence,flow.Sequence,4_21,2023-09-15T21:51:43.800Z,,0,,,6642.261999999988,completion,,,,,false,,,,283546.700000003,283546.5,276871.471,276888.3000000119,276904.238,283553.96,8,400,,,
trial,html.Screen,4_22_0,2023-09-15T21:51:48.888Z,,0,1,,5079.64000000892,response,ISIC_3919752.JPG,10,ISIC_8502869.JPG,ISIC_3919752.JPG,false,1,keypress(m),500,288634,288633.60000000894,283537.669,283546.8000000119,283553.96,288640.723,8,400,23,,ISIC_8502869.JPG
break,html.Screen,4_22_1,2023-09-15T21:51:48.890Z,,0,,,NaN,,,,,,false,,,,288636.200000003,288636,,288634.40000000596,,288640.723,8,400,,,
break_continue,html.Screen,4_22_2,2023-09-15T21:51:48.891Z,,0,,,NaN,,,,,,false,,,,288636.8000000119,288636.5,,288636.5,,288640.723,8,400,,,
sequence,flow.Sequence,4_22,2023-09-15T21:51:48.891Z,,0,,,5082.539999999979,completion,,,,,false,,,,288637,288636.5,283537.669,283546.700000003,283553.96,288640.723,8,400,,,
trial,html.Screen,4_23_0,2023-09-15T21:51:51.668Z,,0,1,,2773.777000000002,response,ISIC_0032858.JPG,14,ISIC_0067614.JPG,ISIC_0032858.JPG,false,1,keypress(m),500,291414.700000003,291414.5,288620.774,288637.10000000894,288640.723,291425.486,8,400,24,,ISIC_0067614.JPG
break,html.Screen,4_23_1,2023-09-15T21:51:51.670Z,,0,,,NaN,,,,,,false,,,,291416,291415.8000000119,,291414.8000000119,,291425.486,8,400,,,
break_continue,html.Screen,4_23_2,2023-09-15T21:51:51.670Z,,0,,,NaN,,,,,,false,,,,291416.200000003,291416.200000003,,291416.10000000894,,291425.486,8,400,,,
sequence,flow.Sequence,4_23,2023-09-15T21:51:51.670Z,,0,,,2775.477000002982,completion,,,,,false,,,,291416.3000000119,291416.200000003,288620.774,288637.10000000894,288640.723,291425.486,8,400,,,
trial,html.Screen,4_24_0,2023-09-15T21:51:55.014Z,,0,1,,3334.3140000119456,response,ISIC_0397464.JPG,14,ISIC_7210296.JPG,ISIC_7210296.JPG,false,0,keypress(z),500,294760,294759.8000000119,291403.56,291416.5,291425.486,294769.871,8,400,25,,ISIC_0397464.JPG
break,html.Screen,4_24_1,2023-09-15T21:51:55.015Z,,0,,,NaN,,,,,,false,,,,294761.10000000894,294760.90000000596,,294760.200000003,,294769.871,8,400,,,
break_continue,html.Screen,4_24_2,2023-09-15T21:51:55.015Z,,0,,,NaN,,,,,,false,,,,294761.40000000596,294761.3000000119,,294761.200000003,,294769.871,8,400,,,
sequence,flow.Sequence,4_24,2023-09-15T21:51:55.015Z,,0,,,3335.8140000119456,completion,,,,,false,,,,294761.40000000596,294761.3000000119,291403.56,291416.5,291425.486,294769.871,8,400,,,
trial,html.Screen,4_25_0,2023-09-15T21:51:58.263Z,,0,1,,3239.229000008956,response,ISIC_9403390.JPG,11,ISIC_2569851.JPG,ISIC_9403390.JPG,false,1,keypress(m),500,298009.3000000119,298009.10000000894,294753.38,294761.5,294769.871,298020.137,8,400,26,,ISIC_2569851.JPG
break,html.Screen,4_25_1,2023-09-15T21:51:58.265Z,,0,,,NaN,,,,,,false,,,,298010.700000003,298010.5,,298009.40000000596,,298020.137,8,400,,,
break_continue,html.Screen,4_25_2,2023-09-15T21:51:58.265Z,,0,,,NaN,,,,,,false,,,,298011.10000000894,298011,,298010.90000000596,,298020.137,8,400,,,
sequence,flow.Sequence,4_25,2023-09-15T21:51:58.265Z,,0,,,3241.1290000000154,completion,,,,,false,,,,298011.200000003,298011,294753.38,294761.5,294769.871,298020.137,8,400,,,
trial,html.Screen,4_26_0,2023-09-15T21:52:02.239Z,,0,1,,3964.363000000012,response,ISIC_0006517.JPG,27,ISIC_0262770.JPG,ISIC_0006517.JPG,false,1,keypress(m),500,301984.8000000119,301984.5,298003.672,298011.3000000119,298020.137,302003.531,8,400,27,,ISIC_0262770.JPG
break,html.Screen,4_26_1,2023-09-15T21:52:02.240Z,,0,,,NaN,,,,,,false,,,,301986.700000003,301986.3000000119,,301984.90000000596,,302003.531,8,400,,,
break_continue,html.Screen,4_26_2,2023-09-15T21:52:02.241Z,,0,,,NaN,,,,,,false,,,,301986.90000000596,301986.90000000596,,301986.8000000119,,302003.531,8,400,,,
sequence,flow.Sequence,4_26,2023-09-15T21:52:02.241Z,,0,,,3966.7630000059726,completion,,,,,false,,,,301987.10000000894,301986.90000000596,298003.672,298011.3000000119,298020.137,302003.531,8,400,,,
trial,html.Screen,4_27_0,2023-09-15T21:52:05.849Z,,0,1,,3591.5690000089235,response,ISIC_0027769.JPG,12,ISIC_0058954.JPG,ISIC_0058954.JPG,false,0,keypress(z),500,305595.60000000894,305595.10000000894,301969.905,301987.200000003,302003.531,305603.148,8,400,28,,ISIC_0027769.JPG
break,html.Screen,4_27_1,2023-09-15T21:52:05.851Z,,0,,,NaN,,,,,,false,,,,305596.90000000596,305596.700000003,,305595.8000000119,,305603.148,8,400,,,
break_continue,html.Screen,4_27_2,2023-09-15T21:52:05.851Z,,0,,,NaN,,,,,,false,,,,305597.3000000119,305597.200000003,,305597,,305603.148,8,400,,,
sequence,flow.Sequence,4_27,2023-09-15T21:52:05.851Z,,0,,,3593.669000002963,completion,,,,,false,,,,305597.3000000119,305597.200000003,301969.905,301987.200000003,302003.531,305603.148,8,400,,,
trial,html.Screen,4_28_0,2023-09-15T21:52:09.377Z,,0,1,,3520.3520000000135,response,ISIC_2987579.JPG,24,ISIC_0034117.JPG,ISIC_2987579.JPG,false,1,keypress(m),500,309123.700000003,309123.5,305586.396,305597.5,305603.148,309136.263,8,400,29,,ISIC_0034117.JPG
break,html.Screen,4_28_1,2023-09-15T21:52:09.379Z,,0,,,NaN,,,,,,false,,,,309125,309124.8000000119,,309123.8000000119,,309136.263,8,400,,,
break_continue,html.Screen,4_28_2,2023-09-15T21:52:09.379Z,,0,,,NaN,,,,,,false,,,,309125.200000003,309125.10000000894,,309125,,309136.263,8,400,,,
sequence,flow.Sequence,4_28,2023-09-15T21:52:09.379Z,,0,,,3521.952000008954,completion,,,,,false,,,,309125.3000000119,309125.10000000894,305586.396,305597.40000000596,305603.148,309136.263,8,400,,,
trial,html.Screen,4_29_0,2023-09-15T21:52:13.848Z,,0,1,,4457.937000003003,response,ISIC_0024512.JPG,8,ISIC_2076902.JPG,ISIC_2076902.JPG,false,0,keypress(z),500,313594.3000000119,313594.200000003,309118.736,309125.40000000596,309136.263,313602.417,8,400,30,,ISIC_0024512.JPG
break,html.Screen,4_29_1,2023-09-15T21:52:13.849Z,,0,,,NaN,,,,,,false,,,,313595.40000000596,313595.3000000119,,313594.5,,313602.417,8,400,,,
break_continue,html.Screen,4_29_2,2023-09-15T21:52:13.849Z,,0,,,NaN,,,,,,false,,,,313595.60000000894,313595.60000000894,,313595.40000000596,,313602.417,8,400,,,
sequence,flow.Sequence,4_29,2023-09-15T21:52:13.849Z,,0,,,4459.3370000089635,completion,,,,,false,,,,313595.700000003,313595.60000000894,309118.736,309125.3000000119,309136.263,313602.417,8,400,,,
trial,html.Screen,4_30_0,2023-09-15T21:52:17.879Z,,0,1,,4022.7830000029644,response,ISIC_0031877.JPG,9,ISIC_6208708.JPG,ISIC_6208708.JPG,false,0,keypress(z),500,317625.40000000596,317625.200000003,313586.071,313595.8000000119,313602.417,317637.698,8,400,31,,ISIC_0031877.JPG
break,html.Screen,4_30_1,2023-09-15T21:52:17.880Z,,0,,,NaN,,,,,,false,,,,317626.8000000119,317626.5,,317625.60000000894,,317637.698,8,400,,,
break_continue,html.Screen,4_30_2,2023-09-15T21:52:17.881Z,,0,,,NaN,,,,,,false,,,,317627,317627,,317626.8000000119,,317637.698,8,400,,,
sequence,flow.Sequence,4_30,2023-09-15T21:52:17.881Z,,0,,,4024.582999999984,completion,,,,,false,,,,317627.10000000894,317627,313586.071,313595.8000000119,313602.417,317637.698,8,400,,,
trial,html.Screen,4_31_0,2023-09-15T21:52:20.775Z,,0,1,,2883.5020000030054,response,ISIC_5423896.JPG,9,ISIC_0000024.JPG,ISIC_0000024.JPG,false,0,keypress(z),500,320521.5,320521.200000003,317619.03,317627.200000003,317637.698,320535.645,8,400,32,,ISIC_5423896.JPG
break,html.Screen,4_31_1,2023-09-15T21:52:20.777Z,,0,,,NaN,,,,,,false,,,,320523.10000000894,320522.8000000119,,320521.60000000894,,320535.645,8,400,,,
break_continue,html.Screen,4_31_2,2023-09-15T21:52:20.777Z,,0,,,NaN,,,,,,false,,,,320523.60000000894,320523.40000000596,,320523.40000000596,,320535.645,8,400,,,
sequence,flow.Sequence,4_31,2023-09-15T21:52:20.778Z,,0,,,2885.7020000059856,completion,,,,,false,,,,320523.8000000119,320523.40000000596,317619.03,317627.10000000894,317637.698,320535.645,8,400,,,
trial,html.Screen,4_32_0,2023-09-15T21:52:24.332Z,,0,1,,3542.6550000119023,response,ISIC_5405889.JPG,9,ISIC_0062031.JPG,ISIC_5405889.JPG,false,1,keypress(m),500,324078.40000000596,324078.3000000119,320519.01,320523.90000000596,320535.645,324085.266,8,400,33,,ISIC_0062031.JPG
break,html.Screen,4_32_1,2023-09-15T21:52:24.333Z,,0,,,NaN,,,,,,false,,,,324079.60000000894,324079.3000000119,,324078.60000000894,,324085.266,8,400,,,
break_continue,html.Screen,4_32_2,2023-09-15T21:52:24.333Z,,0,,,NaN,,,,,,false,,,,324079.700000003,324079.60000000894,,324079.60000000894,,324085.266,8,400,,,
sequence,flow.Sequence,4_32,2023-09-15T21:52:24.334Z,,0,,,3543.955000008922,completion,,,,,false,,,,324079.90000000596,324079.60000000894,320519.01,320523.8000000119,320535.645,324085.266,8,400,,,
trial,html.Screen,4_33_0,2023-09-15T21:52:28.339Z,,0,1,,4000.134000005957,response,ISIC_0033405.JPG,10,ISIC_0034034.JPG,ISIC_0034034.JPG,false,0,keypress(z),500,328085.60000000894,328085.40000000596,324068.391,324079.90000000596,324085.266,328101.64,8,400,34,,ISIC_0033405.JPG
break,html.Screen,4_33_1,2023-09-15T21:52:28.341Z,,0,,,NaN,,,,,,false,,,,328087,328086.8000000119,,328085.700000003,,328101.64,8,400,,,
break_continue,html.Screen,4_33_2,2023-09-15T21:52:28.341Z,,0,,,NaN,,,,,,false,,,,328087.200000003,328087.200000003,,328087.10000000894,,328101.64,8,400,,,
sequence,flow.Sequence,4_33,2023-09-15T21:52:28.341Z,,0,,,4001.934000002977,completion,,,,,false,,,,328087.40000000596,328087.200000003,324068.391,324079.90000000596,324085.266,328101.64,8,400,,,
trial,html.Screen,4_34_0,2023-09-15T21:52:30.990Z,,0,1,,2634.859999999986,response,ISIC_0063568.JPG,29,ISIC_1925623.JPG,ISIC_1925623.JPG,false,0,keypress(z),500,330736.700000003,330736.5,328085.305,328087.40000000596,328101.64,330751.507,8,400,35,,ISIC_0063568.JPG
break,html.Screen,4_34_1,2023-09-15T21:52:30.992Z,,0,,,NaN,,,,,,false,,,,330737.90000000596,330737.8000000119,,330736.8000000119,,330751.507,8,400,,,
break_continue,html.Screen,4_34_2,2023-09-15T21:52:30.992Z,,0,,,NaN,,,,,,false,,,,330738.10000000894,330738,,330738,,330751.507,8,400,,,
sequence,flow.Sequence,4_34,2023-09-15T21:52:30.992Z,,0,,,2636.359999999986,completion,,,,,false,,,,330738.200000003,330738,328085.305,328087.40000000596,328101.64,330751.507,8,400,,,
trial,html.Screen,4_35_0,2023-09-15T21:52:33.643Z,,0,1,,2637.2930000119377,response,ISIC_1650523.JPG,13,ISIC_0027102.JPG,ISIC_1650523.JPG,false,1,keypress(m),500,333389.200000003,333388.8000000119,330735.007,330738.3000000119,330751.507,333401.751,8,400,36,,ISIC_0027102.JPG
break,html.Screen,4_35_1,2023-09-15T21:52:33.645Z,,0,,,NaN,,,,,,false,,,,333391.200000003,333390.90000000596,,333389.3000000119,,333401.751,8,400,,,
break_continue,html.Screen,4_35_2,2023-09-15T21:52:33.645Z,,0,,,NaN,,,,,,false,,,,333391.60000000894,333391.60000000894,,333391.40000000596,,333401.751,8,400,,,
sequence,flow.Sequence,4_35,2023-09-15T21:52:33.646Z,,0,,,2640.0930000089575,completion,,,,,false,,,,333391.8000000119,333391.60000000894,330735.007,330738.3000000119,330751.507,333401.751,8,400,,,
trial,html.Screen,4_36_0,2023-09-15T21:52:38.257Z,,0,1,,4600.949000002991,response,ISIC_0033654.JPG,9,ISIC_0034094.JPG,ISIC_0033654.JPG,false,1,keypress(m),500,338002.8000000119,338002.700000003,333385.077,333392,333401.751,338036.052,8,400,37,,ISIC_0034094.JPG
break,html.Screen,4_36_1,2023-09-15T21:52:38.257Z,,0,,,NaN,,,,,,false,,,,338003.40000000596,338003.40000000596,,338003,,338036.052,8,400,,,
break_continue,html.Screen,4_36_2,2023-09-15T21:52:38.257Z,,0,,,NaN,,,,,,false,,,,338003.700000003,338003.700000003,,338003.60000000894,,338036.052,8,400,,,
sequence,flow.Sequence,4_36,2023-09-15T21:52:38.258Z,,0,,,4601.949000002991,completion,,,,,false,,,,338003.8000000119,338003.700000003,333385.077,333391.90000000596,333401.751,338036.052,8,400,,,
trial,html.Screen,4_37_0,2023-09-15T21:52:41.079Z,,0,1,,2788.748000011896,response,ISIC_4960406.JPG,12,ISIC_3650533.JPG,ISIC_3650533.JPG,false,0,keypress(z),500,340825,340824.8000000119,338018.466,338003.90000000596,338036.052,340836.152,8,400,38,,ISIC_4960406.JPG
break,html.Screen,4_37_1,2023-09-15T21:52:41.080Z,,0,,,NaN,,,,,,false,,,,340826.5,340826.3000000119,,340825.200000003,,340836.152,8,400,,,
break_continue,html.Screen,4_37_2,2023-09-15T21:52:41.081Z,,0,,,NaN,,,,,,false,,,,340826.8000000119,340826.700000003,,340826.60000000894,,340836.152,8,400,,,
sequence,flow.Sequence,4_37,2023-09-15T21:52:41.081Z,,0,,,2790.648000002955,completion,,,,,false,,,,340826.90000000596,340826.700000003,338018.466,338003.90000000596,338036.052,340836.152,8,400,,,
trial,html.Screen,4_38_0,2023-09-15T21:52:44.649Z,,0,1,,3558.7480000059586,response,ISIC_0062649.JPG,12,ISIC_0000152.JPG,ISIC_0062649.JPG,false,1,keypress(m),500,344395.200000003,344394.90000000596,340817.887,340827,340836.152,344401.991,8,400,39,,ISIC_0000152.JPG
break,html.Screen,4_38_1,2023-09-15T21:52:44.650Z,,0,,,NaN,,,,,,false,,,,344396.200000003,344396,,344395.3000000119,,344401.991,8,400,,,
break_continue,html.Screen,4_38_2,2023-09-15T21:52:44.650Z,,0,,,NaN,,,,,,false,,,,344396.5,344396.5,,344396.3000000119,,344401.991,8,400,,,
sequence,flow.Sequence,4_38,2023-09-15T21:52:44.650Z,,0,,,3560.347999999998,completion,,,,,false,,,,344396.700000003,344396.5,340817.887,340827,340836.152,344401.991,8,400,,,
trial,html.Screen,4_39_0,2023-09-15T21:52:47.350Z,,0,1,,2693.9090000059805,response,ISIC_0011546.JPG,13,ISIC_0193907.JPG,ISIC_0193907.JPG,false,0,keypress(z),500,347096.3000000119,347095.90000000596,344384.649,344396.8000000119,344401.991,347103.618,8,400,40,,ISIC_0011546.JPG
break,html.Screen,4_39_1,2023-09-15T21:52:47.352Z,,0,,,NaN,,,,,,false,,,,347097.8000000119,347097.60000000894,,347096.5,,347103.618,8,400,,,
break_continue,html.Screen,4_39_2,2023-09-15T21:52:47.352Z,,0,,,NaN,,,,,,false,,,,347098.10000000894,347098.10000000894,,347097.90000000596,,347103.618,8,400,,,
sequence,flow.Sequence,4_39,2023-09-15T21:52:47.352Z,,0,,,2696.1090000089607,completion,,,,,false,,,,347098.200000003,347098.10000000894,344384.649,344396.8000000119,344401.991,347103.618,8,400,,,
trial,html.Screen,4_40_0,2023-09-15T21:52:50.097Z,,0,1,,2739.3819999999832,response,ISIC_5157799.JPG,11,ISIC_4856536.JPG,ISIC_4856536.JPG,false,0,keypress(z),500,349843.200000003,349843,347084.654,347098.3000000119,347103.618,349850.653,8,400,41,,ISIC_5157799.JPG
break,html.Screen,4_40_1,2023-09-15T21:52:50.098Z,,0,,,NaN,,,,,,false,,,,349844.40000000596,349844.200000003,,349843.3000000119,,349850.653,8,400,,,
break_continue,html.Screen,4_40_2,2023-09-15T21:52:50.098Z,,0,,,NaN,,,,,,false,,,,349844.700000003,349844.60000000894,,349844.5,,349850.653,8,400,,,
sequence,flow.Sequence,4_40,2023-09-15T21:52:50.099Z,,0,,,2740.982000008924,completion,,,,,false,,,,349844.90000000596,349844.60000000894,347084.654,347098.3000000119,347103.618,349850.653,8,400,,,
trial,html.Screen,4_41_0,2023-09-15T21:52:52.765Z,,0,1,,2660.14700001193,response,ISIC_8733745.JPG,15,ISIC_9568327.JPG,ISIC_8733745.JPG,false,1,keypress(m),500,352511,352510.8000000119,349834.445,349845,349850.653,352517.117,8,400,42,,ISIC_9568327.JPG
break,html.Screen,4_41_1,2023-09-15T21:52:52.766Z,,0,,,NaN,,,,,,false,,,,352511.90000000596,352511.700000003,,352511.200000003,,352517.117,8,400,,,
break_continue,html.Screen,4_41_2,2023-09-15T21:52:52.766Z,,0,,,NaN,,,,,,false,,,,352512.200000003,352512.10000000894,,352512.10000000894,,352517.117,8,400,,,
sequence,flow.Sequence,4_41,2023-09-15T21:52:52.766Z,,0,,,2661.4470000089495,completion,,,,,false,,,,352512.3000000119,352512.10000000894,349834.445,349845,349850.653,352517.117,8,400,,,
trial,html.Screen,4_42_0,2023-09-15T21:52:55.936Z,,0,1,,3164.5830000029528,response,ISIC_6581765.JPG,12,ISIC_0007416.JPG,ISIC_0007416.JPG,false,0,keypress(z),500,355682,355681.700000003,352500.471,352512.40000000596,352517.117,355686.843,8,400,43,,ISIC_6581765.JPG
break,html.Screen,4_42_1,2023-09-15T21:52:55.937Z,,0,,,NaN,,,,,,false,,,,355683.60000000894,355683.40000000596,,355682.10000000894,,355686.843,8,400,,,
break_continue,html.Screen,4_42_2,2023-09-15T21:52:55.938Z,,0,,,NaN,,,,,,false,,,,355683.90000000596,355683.90000000596,,355683.8000000119,,355686.843,8,400,,,
sequence,flow.Sequence,4_42,2023-09-15T21:52:55.938Z,,0,,,3166.783000005933,completion,,,,,false,,,,355684,355683.90000000596,352500.471,352512.3000000119,352517.117,355686.843,8,400,,,
trial,html.Screen,4_43_0,2023-09-15T21:53:00.303Z,,0,1,,4362.257000008947,response,ISIC_6678508.JPG,12,ISIC_0009911.JPG,ISIC_6678508.JPG,false,1,keypress(m),500,360049.3000000119,360049.10000000894,355667.6,355684.200000003,355686.843,360083.373,8,400,44,,ISIC_0009911.JPG
break,html.Screen,4_43_1,2023-09-15T21:53:00.305Z,,0,,,NaN,,,,,,false,,,,360051.10000000894,360050.90000000596,,360049.60000000894,,360083.373,8,400,,,
break_continue,html.Screen,4_43_2,2023-09-15T21:53:00.305Z,,0,,,NaN,,,,,,false,,,,360051.40000000596,360051.3000000119,,360051.200000003,,360083.373,8,400,,,
sequence,flow.Sequence,4_43,2023-09-15T21:53:00.305Z,,0,,,4364.457000011927,completion,,,,,false,,,,360051.5,360051.3000000119,355667.6,355684.10000000894,355686.843,360083.373,8,400,,,
trial,html.Screen,4_44_0,2023-09-15T21:53:03.249Z,,0,1,,2911.827000002959,response,ISIC_8907232.JPG,25,ISIC_0071875.JPG,ISIC_8907232.JPG,false,1,keypress(m),500,362995.5,362995.200000003,360067.918,360051.60000000894,360083.373,362999.972,8,400,45,,ISIC_0071875.JPG
break,html.Screen,4_44_1,2023-09-15T21:53:03.251Z,,0,,,NaN,,,,,,false,,,,362997.40000000596,362997.10000000894,,362995.8000000119,,362999.972,8,400,,,
break_continue,html.Screen,4_44_2,2023-09-15T21:53:03.252Z,,0,,,NaN,,,,,,false,,,,362997.8000000119,362997.700000003,,362997.5,,362999.972,8,400,,,
sequence,flow.Sequence,4_44,2023-09-15T21:53:03.252Z,,0,,,2914.327000002959,completion,,,,,false,,,,362998,362997.700000003,360067.918,360051.60000000894,360083.373,362999.972,8,400,,,
trial,html.Screen,4_45_0,2023-09-15T21:53:05.938Z,,0,1,,2683.628000008932,response,ISIC_0025235.JPG,5,ISIC_5157799.JPG,ISIC_5157799.JPG,false,0,keypress(z),500,365683.8000000119,365683.60000000894,362983.143,362998.10000000894,362999.972,365699.833,8,400,46,,ISIC_0025235.JPG
break,html.Screen,4_45_1,2023-09-15T21:53:05.938Z,,0,,,NaN,,,,,,false,,,,365684.5,365684.3000000119,,365683.90000000596,,365699.833,8,400,,,
break_continue,html.Screen,4_45_2,2023-09-15T21:53:05.938Z,,0,,,NaN,,,,,,false,,,,365684.700000003,365684.60000000894,,365684.5,,365699.833,8,400,,,
sequence,flow.Sequence,4_45,2023-09-15T21:53:05.939Z,,0,,,2684.628000008932,completion,,,,,false,,,,365684.8000000119,365684.60000000894,362983.143,362998.10000000894,362999.972,365699.833,8,400,,,
trial,html.Screen,4_46_0,2023-09-15T21:53:09.484Z,,0,1,,3541.667000000016,response,ISIC_6892286.JPG,11,ISIC_0016050.JPG,ISIC_6892286.JPG,false,1,keypress(m),500,369241.700000003,369241.5,365687.338,365684.90000000596,365699.833,369249.726,8,400,47,,ISIC_0016050.JPG
break,html.Screen,4_46_1,2023-09-15T21:53:09.485Z,,0,,,NaN,,,,,,false,,,,369243.200000003,369243,,369241.90000000596,,369249.726,8,400,,,
break_continue,html.Screen,4_46_2,2023-09-15T21:53:09.486Z,,0,,,NaN,,,,,,false,,,,369243.5,369243.5,,369243.40000000596,,369249.726,8,400,,,
sequence,flow.Sequence,4_46,2023-09-15T21:53:09.486Z,,0,,,3543.667000000016,completion,,,,,false,,,,369243.700000003,369243.5,365687.338,365684.8000000119,365699.833,369249.726,8,400,,,
trial,html.Screen,4_47_0,2023-09-15T21:53:12.115Z,,0,1,,2622.1740000059363,response,ISIC_0034199.JPG,5,ISIC_0046633.JPG,ISIC_0046633.JPG,false,0,keypress(z),500,371872.3000000119,371871.90000000596,369233.605,369243.8000000119,369249.726,371882.827,8,400,48,,ISIC_0034199.JPG
break,html.Screen,4_47_1,2023-09-15T21:53:12.117Z,,0,,,NaN,,,,,,false,,,,371874.90000000596,371874.60000000894,,371872.60000000894,,371882.827,8,400,,,
break_continue,html.Screen,4_47_2,2023-09-15T21:53:12.117Z,,0,,,NaN,,,,,,false,,,,371875.3000000119,371875.200000003,,371875,,371882.827,8,400,,,
sequence,flow.Sequence,4_47,2023-09-15T21:53:12.118Z,,0,,,2625.474000002956,completion,,,,,false,,,,371875.40000000596,371875.200000003,369233.605,369243.700000003,369249.726,371882.827,8,400,,,
trial,html.Screen,4_48_0,2023-09-15T21:53:16.043Z,,0,1,,3917.67300000001,response,ISIC_1418304.JPG,12,ISIC_0029914.JPG,ISIC_1418304.JPG,false,1,keypress(m),500,375800.8000000119,375800.5,371867.841,371875.5,371882.827,375816.239,8,400,49,,ISIC_0029914.JPG
break,html.Screen,4_48_1,2023-09-15T21:53:16.044Z,,0,,,NaN,,,,,,false,,,,375802.40000000596,375802.10000000894,,375801,,375816.239,8,400,,,
break_continue,html.Screen,4_48_2,2023-09-15T21:53:16.045Z,,0,,,NaN,,,,,,false,,,,375802.700000003,375802.60000000894,,375802.40000000596,,375816.239,8,400,,,
sequence,flow.Sequence,4_48,2023-09-15T21:53:16.045Z,,0,,,3919.7730000089505,completion,,,,,false,,,,375802.8000000119,375802.60000000894,371867.841,371875.5,371882.827,375816.239,8,400,,,
trial,html.Screen,4_49_0,2023-09-15T21:53:20.102Z,,0,1,,4043.3610000089393,response,ISIC_0058891.JPG,9,ISIC_2822718.JPG,ISIC_0058891.JPG,false,1,keypress(m),500,379860,379859.60000000894,375799.306,375802.90000000596,375816.239,379867.4,8,400,50,,ISIC_2822718.JPG
break,html.Screen,4_49_1,2023-09-15T21:53:30.093Z,,0,,,9998.27099999995,timeout,,,,,false,,,,389850.40000000596,389849.146,379849.529,379860.3000000119,379867.4,389865.671,8,400,,,
break_continue,html.Screen,4_49_2,2023-09-15T21:53:38.972Z,,0,,,8850.029000003007,response,,,,,false,continue,keypress(Space),,398729.700000003,398715.700000003,389849.146,389850.60000000894,389865.671,398740.629,8,400,,,
sequence,flow.Sequence,4_49,2023-09-15T21:53:38.972Z,,0,,,22899.46100000298,completion,,,,,false,,,,398729.90000000596,398715.700000003,375799.306,375802.90000000596,375816.239,398740.629,8,400,,,
trial,html.Screen,4_50_0,2023-09-15T21:53:45.175Z,,0,2,,6192.071000002965,response,ISIC_0679494.JPG,1,ISIC_0030818.JPG,ISIC_0030818.JPG,false,0,keypress(z),500,404933,404932.700000003,398715.401,398730.3000000119,398740.629,404948.448,8,400,1,,ISIC_0679494.JPG
break,html.Screen,4_50_1,2023-09-15T21:53:45.176Z,,0,,,NaN,,,,,,false,,,,404934,404933.90000000596,,404933,,404948.448,8,400,,,
break_continue,html.Screen,4_50_2,2023-09-15T21:53:45.176Z,,0,,,NaN,,,,,,false,,,,404934.3000000119,404934.10000000894,,404934.10000000894,,404948.448,8,400,,,
sequence,flow.Sequence,4_50,2023-09-15T21:53:45.176Z,,0,,,6193.471000008925,completion,,,,,false,,,,404934.40000000596,404934.10000000894,398715.401,398730.3000000119,398740.629,404948.448,8,400,,,
trial,html.Screen,4_51_0,2023-09-15T21:53:48.234Z,,0,2,,3043.552000000025,response,ISIC_0055081.JPG,11,ISIC_0025653.JPG,ISIC_0025653.JPG,false,0,keypress(z),500,407992.200000003,407992,404931.9,404934.40000000596,404948.448,408001.771,8,400,2,,ISIC_0055081.JPG
break,html.Screen,4_51_1,2023-09-15T21:53:48.235Z,,0,,,NaN,,,,,,false,,,,407993.200000003,407993.10000000894,,407992.3000000119,,408001.771,8,400,,,
break_continue,html.Screen,4_51_2,2023-09-15T21:53:48.236Z,,0,,,NaN,,,,,,false,,,,407993.5,407993.40000000596,,407993.3000000119,,408001.771,8,400,,,
sequence,flow.Sequence,4_51,2023-09-15T21:53:48.236Z,,0,,,3044.9520000059856,completion,,,,,false,,,,407993.60000000894,407993.40000000596,404931.9,404934.40000000596,404948.448,408001.771,8,400,,,
trial,html.Screen,4_52_0,2023-09-15T21:53:52.011Z,,0,2,,3767.1290000059525,response,ISIC_7755096.JPG,23,ISIC_0033393.JPG,ISIC_7755096.JPG,false,1,keypress(m),500,411769,411768.90000000596,407981.621,407993.700000003,408001.771,411786.963,8,400,3,,ISIC_0033393.JPG
break,html.Screen,4_52_1,2023-09-15T21:53:52.012Z,,0,,,NaN,,,,,,false,,,,411770,411769.90000000596,,411769.10000000894,,411786.963,8,400,,,
break_continue,html.Screen,4_52_2,2023-09-15T21:53:52.012Z,,0,,,NaN,,,,,,false,,,,411770.3000000119,411770.3000000119,,411770.10000000894,,411786.963,8,400,,,
sequence,flow.Sequence,4_52,2023-09-15T21:53:52.013Z,,0,,,3768.529000011913,completion,,,,,false,,,,411770.40000000596,411770.3000000119,407981.621,407993.60000000894,408001.771,411786.963,8,400,,,
trial,html.Screen,4_53_0,2023-09-15T21:53:54.649Z,,0,2,,2619.4370000059716,response,ISIC_8843901.JPG,12,ISIC_5920470.JPG,ISIC_5920470.JPG,false,0,keypress(z),500,414406.60000000894,414406.40000000596,411766.746,411770.5,411786.963,414417.337,8,400,4,,ISIC_8843901.JPG
break,html.Screen,4_53_1,2023-09-15T21:53:54.650Z,,0,,,NaN,,,,,,false,,,,414408,414407.700000003,,414406.8000000119,,414417.337,8,400,,,
break_continue,html.Screen,4_53_2,2023-09-15T21:53:54.650Z,,0,,,NaN,,,,,,false,,,,414408.3000000119,414408.10000000894,,414408,,414417.337,8,400,,,
sequence,flow.Sequence,4_53,2023-09-15T21:53:54.650Z,,0,,,2621.137000008952,completion,,,,,false,,,,414408.3000000119,414408.10000000894,411766.746,411770.5,411786.963,414417.337,8,400,,,
trial,html.Screen,4_54_0,2023-09-15T21:53:57.508Z,,0,2,,2848.3630000029807,response,ISIC_0024802.JPG,12,ISIC_0599047.JPG,ISIC_0599047.JPG,false,0,keypress(z),500,417265.90000000596,417265.700000003,414397.847,414408.3000000119,414417.337,417281.351,8,400,5,,ISIC_0024802.JPG
break,html.Screen,4_54_1,2023-09-15T21:53:57.509Z,,0,,,NaN,,,,,,false,,,,417267.3000000119,417267.200000003,,417266.10000000894,,417281.351,8,400,,,
break_continue,html.Screen,4_54_2,2023-09-15T21:53:57.510Z,,0,,,NaN,,,,,,false,,,,417267.60000000894,417267.5,,417267.40000000596,,417281.351,8,400,,,
sequence,flow.Sequence,4_54,2023-09-15T21:53:57.510Z,,0,,,2850.1630000000005,completion,,,,,false,,,,417267.700000003,417267.5,414397.847,414408.3000000119,414417.337,417281.351,8,400,,,
trial,html.Screen,4_55_0,2023-09-15T21:54:01.576Z,,0,2,,4052.648999999976,response,ISIC_1960468.JPG,12,ISIC_1674754.JPG,ISIC_1674754.JPG,false,0,keypress(z),500,421334.3000000119,421334,417263.954,417267.8000000119,417281.351,421351.298,8,400,6,,ISIC_1960468.JPG
break,html.Screen,4_55_1,2023-09-15T21:54:01.578Z,,0,,,NaN,,,,,,false,,,,421335.700000003,421335.5,,421334.40000000596,,421351.298,8,400,,,
break_continue,html.Screen,4_55_2,2023-09-15T21:54:01.578Z,,0,,,NaN,,,,,,false,,,,421336,421335.90000000596,,421335.90000000596,,421351.298,8,400,,,
sequence,flow.Sequence,4_55,2023-09-15T21:54:01.578Z,,0,,,4054.5490000059363,completion,,,,,false,,,,421336.10000000894,421335.90000000596,417263.954,417267.8000000119,417281.351,421351.298,8,400,,,
trial,html.Screen,4_56_0,2023-09-15T21:54:05.042Z,,0,2,,3448.20199999999,response,ISIC_0010142.JPG,27,ISIC_3493866.JPG,ISIC_0010142.JPG,false,1,keypress(m),500,424799.8000000119,424799.5,421330.887,421336.10000000894,421351.298,424814.321,8,400,7,,ISIC_3493866.JPG
break,html.Screen,4_56_1,2023-09-15T21:54:05.043Z,,0,,,NaN,,,,,,false,,,,424801.200000003,424800.90000000596,,424799.90000000596,,424814.321,8,400,,,
break_continue,html.Screen,4_56_2,2023-09-15T21:54:05.044Z,,0,,,NaN,,,,,,false,,,,424801.40000000596,424801.40000000596,,424801.3000000119,,424814.321,8,400,,,
sequence,flow.Sequence,4_56,2023-09-15T21:54:05.044Z,,0,,,3450.1020000059507,completion,,,,,false,,,,424801.5,424801.40000000596,421330.887,421336.10000000894,421351.298,424814.321,8,400,,,
trial,html.Screen,4_57_0,2023-09-15T21:54:07.824Z,,0,2,,2755.879000002984,response,ISIC_0006672.JPG,2,ISIC_0067418.JPG,ISIC_0006672.JPG,false,1,keypress(m),500,427570.5,427570.200000003,424797.053,424801.60000000894,424814.321,427580.88,8,400,8,,ISIC_0067418.JPG
break,html.Screen,4_57_1,2023-09-15T21:54:07.826Z,,0,,,NaN,,,,,,false,,,,427572.10000000894,427571.90000000596,,427570.700000003,,427580.88,8,400,,,
break_continue,html.Screen,4_57_2,2023-09-15T21:54:07.826Z,,0,,,NaN,,,,,,false,,,,427572.3000000119,427572.3000000119,,427572.200000003,,427580.88,8,400,,,
sequence,flow.Sequence,4_57,2023-09-15T21:54:07.826Z,,0,,,2757.9790000119247,completion,,,,,false,,,,427572.5,427572.3000000119,424797.053,424801.60000000894,424814.321,427580.88,8,400,,,
trial,html.Screen,4_58_0,2023-09-15T21:54:10.956Z,,0,2,,3121.3200000029756,response,ISIC_0450295.JPG,7,ISIC_3518299.JPG,ISIC_3518299.JPG,false,0,keypress(z),500,430702.3000000119,430702.200000003,427564.569,427572.5,427580.88,430713.728,8,400,9,,ISIC_0450295.JPG
break,html.Screen,4_58_1,2023-09-15T21:54:10.958Z,,0,,,NaN,,,,,,false,,,,430703.8000000119,430703.60000000894,,430702.5,,430713.728,8,400,,,
break_continue,html.Screen,4_58_2,2023-09-15T21:54:10.958Z,,0,,,NaN,,,,,,false,,,,430704.10000000894,430704.10000000894,,430703.90000000596,,430713.728,8,400,,,
sequence,flow.Sequence,4_58,2023-09-15T21:54:10.958Z,,0,,,3123.220000008936,completion,,,,,false,,,,430704.200000003,430704.10000000894,427564.569,427572.5,427580.88,430713.728,8,400,,,
trial,html.Screen,4_59_0,2023-09-15T21:54:14.780Z,,0,2,,3811.9720000029774,response,ISIC_7053271.JPG,10,ISIC_2928274.JPG,ISIC_7053271.JPG,false,1,keypress(m),500,434525.90000000596,434525.700000003,430697.21,430704.3000000119,430713.728,434545.027,8,400,10,,ISIC_2928274.JPG
break,html.Screen,4_59_1,2023-09-15T21:54:14.781Z,,0,,,NaN,,,,,,false,,,,434527.700000003,434527.5,,434526.200000003,,434545.027,8,400,,,
break_continue,html.Screen,4_59_2,2023-09-15T21:54:14.782Z,,0,,,NaN,,,,,,false,,,,434528.200000003,434528,,434527.8000000119,,434545.027,8,400,,,
sequence,flow.Sequence,4_59,2023-09-15T21:54:14.782Z,,0,,,3814.271999999997,completion,,,,,false,,,,434528.40000000596,434528,430697.21,430704.200000003,430713.728,434545.027,8,400,,,
trial,html.Screen,4_60_0,2023-09-15T21:54:17.344Z,,0,2,,2545.073000008939,response,ISIC_5509946.JPG,6,ISIC_0063026.JPG,ISIC_5509946.JPG,false,1,keypress(m),500,437090.3000000119,437090.10000000894,434513.342,434528.5,434545.027,437100.964,8,400,11,,ISIC_0063026.JPG
break,html.Screen,4_60_1,2023-09-15T21:54:17.345Z,,0,,,NaN,,,,,,false,,,,437091.5,437091.40000000596,,437090.5,,437100.964,8,400,,,
break_continue,html.Screen,4_60_2,2023-09-15T21:54:17.346Z,,0,,,NaN,,,,,,false,,,,437091.90000000596,437091.8000000119,,437091.700000003,,437100.964,8,400,,,
sequence,flow.Sequence,4_60,2023-09-15T21:54:17.346Z,,0,,,2546.773000011919,completion,,,,,false,,,,437092,437091.8000000119,434513.342,434528.5,434545.027,437100.964,8,400,,,
trial,html.Screen,4_61_0,2023-09-15T21:54:20.431Z,,0,2,,3076.236000003002,response,ISIC_7765349.JPG,11,ISIC_0015204.JPG,ISIC_7765349.JPG,false,1,keypress(m),500,440177.5,440177.200000003,437079.794,437092,437100.964,440182.12,8,400,12,,ISIC_0015204.JPG
break,html.Screen,4_61_1,2023-09-15T21:54:20.433Z,,0,,,NaN,,,,,,false,,,,440179,440178.700000003,,440177.60000000894,,440182.12,8,400,,,
break_continue,html.Screen,4_61_2,2023-09-15T21:54:20.433Z,,0,,,NaN,,,,,,false,,,,440179.200000003,440179.200000003,,440179,,440182.12,8,400,,,
sequence,flow.Sequence,4_61,2023-09-15T21:54:20.433Z,,0,,,3078.236000003002,completion,,,,,false,,,,440179.3000000119,440179.200000003,437079.794,437092,437100.964,440182.12,8,400,,,
trial,html.Screen,4_62_0,2023-09-15T21:54:23.295Z,,0,2,,2859.080000002985,response,ISIC_0025231.JPG,24,ISIC_7505369.JPG,ISIC_7505369.JPG,false,0,keypress(z),500,443041.5,443041.200000003,440162.871,440179.40000000596,440182.12,443046.079,8,400,13,,ISIC_0025231.JPG
break,html.Screen,4_62_1,2023-09-15T21:54:23.296Z,,0,,,NaN,,,,,,false,,,,443042.40000000596,443042.200000003,,443041.60000000894,,443046.079,8,400,,,
break_continue,html.Screen,4_62_2,2023-09-15T21:54:23.296Z,,0,,,NaN,,,,,,false,,,,443042.5,443042.5,,443042.40000000596,,443046.079,8,400,,,
sequence,flow.Sequence,4_62,2023-09-15T21:54:23.296Z,,0,,,2860.3800000000047,completion,,,,,false,,,,443042.700000003,443042.5,440162.871,440179.40000000596,440182.12,443046.079,8,400,,,
trial,html.Screen,4_63_0,2023-09-15T21:54:25.770Z,,0,2,,2469.721000011894,response,ISIC_0015298.JPG,17,ISIC_0028361.JPG,ISIC_0015298.JPG,false,1,keypress(m),500,445516.3000000119,445515.8000000119,443029.843,443042.700000003,443046.079,445530.798,8,400,14,,ISIC_0028361.JPG
break,html.Screen,4_63_1,2023-09-15T21:54:25.772Z,,0,,,NaN,,,,,,false,,,,445518.8000000119,445518.5,,445516.60000000894,,445530.798,8,400,,,
break_continue,html.Screen,4_63_2,2023-09-15T21:54:25.773Z,,0,,,NaN,,,,,,false,,,,445519.3000000119,445519.10000000894,,445518.90000000596,,445530.798,8,400,,,
sequence,flow.Sequence,4_63,2023-09-15T21:54:25.773Z,,0,,,2473.0210000089137,completion,,,,,false,,,,445519.5,445519.10000000894,443029.843,443042.700000003,443046.079,445530.798,8,400,,,
trial,html.Screen,4_64_0,2023-09-15T21:54:28.445Z,,0,2,,2660.1020000059507,response,ISIC_8589961.JPG,5,ISIC_0062547.JPG,ISIC_8589961.JPG,false,1,keypress(m),500,448191.10000000894,448190.90000000596,445513,445519.5,445530.798,448198.368,8,400,15,,ISIC_0062547.JPG
break,html.Screen,4_64_1,2023-09-15T21:54:28.446Z,,0,,,NaN,,,,,,false,,,,448192.60000000894,448192.40000000596,,448191.200000003,,448198.368,8,400,,,
break_continue,html.Screen,4_64_2,2023-09-15T21:54:28.447Z,,0,,,NaN,,,,,,false,,,,448192.90000000596,448192.8000000119,,448192.700000003,,448198.368,8,400,,,
sequence,flow.Sequence,4_64,2023-09-15T21:54:28.447Z,,0,,,2662.002000011911,completion,,,,,false,,,,448193.10000000894,448192.8000000119,445513,445519.5,445530.798,448198.368,8,400,,,
trial,html.Screen,4_65_0,2023-09-15T21:54:31.362Z,,0,2,,2909.732000008924,response,ISIC_2214766.JPG,11,ISIC_0029698.JPG,ISIC_2214766.JPG,false,1,keypress(m),500,451108.40000000596,451108.10000000894,448179.685,448193.10000000894,448198.368,451113.121,8,400,16,,ISIC_0029698.JPG
break,html.Screen,4_65_1,2023-09-15T21:54:31.363Z,,0,,,NaN,,,,,,false,,,,451109.3000000119,451109.200000003,,451108.5,,451113.121,8,400,,,
break_continue,html.Screen,4_65_2,2023-09-15T21:54:31.363Z,,0,,,NaN,,,,,,false,,,,451109.60000000894,451109.60000000894,,451109.40000000596,,451113.121,8,400,,,
sequence,flow.Sequence,4_65,2023-09-15T21:54:31.363Z,,0,,,2911.232000008924,completion,,,,,false,,,,451109.700000003,451109.60000000894,448179.685,448193.10000000894,448198.368,451113.121,8,400,,,
trial,html.Screen,4_66_0,2023-09-15T21:54:33.982Z,,0,2,,2615.3790000000154,response,ISIC_1979534.JPG,13,ISIC_0068924.JPG,ISIC_1979534.JPG,false,1,keypress(m),500,453728.8000000119,453728.5,451096.047,451109.8000000119,451113.121,453745.995,8,400,17,,ISIC_0068924.JPG
break,html.Screen,4_66_1,2023-09-15T21:54:33.984Z,,0,,,NaN,,,,,,false,,,,453729.90000000596,453729.700000003,,453728.8000000119,,453745.995,8,400,,,
break_continue,html.Screen,4_66_2,2023-09-15T21:54:33.984Z,,0,,,NaN,,,,,,false,,,,453730.10000000894,453730.10000000894,,453730,,453745.995,8,400,,,
sequence,flow.Sequence,4_66,2023-09-15T21:54:33.984Z,,0,,,2616.979000008956,completion,,,,,false,,,,453730.3000000119,453730.10000000894,451096.047,451109.700000003,451113.121,453745.995,8,400,,,
trial,html.Screen,4_67_0,2023-09-15T21:54:36.633Z,,0,2,,2633.0050000000047,response,ISIC_0029561.JPG,15,ISIC_2535382.JPG,ISIC_2535382.JPG,false,0,keypress(z),500,456379.3000000119,456379,453729.246,453730.3000000119,453745.995,456395.754,8,400,18,,ISIC_0029561.JPG
break,html.Screen,4_67_1,2023-09-15T21:54:36.635Z,,0,,,NaN,,,,,,false,,,,456380.90000000596,456380.700000003,,456379.5,,456395.754,8,400,,,
break_continue,html.Screen,4_67_2,2023-09-15T21:54:36.635Z,,0,,,NaN,,,,,,false,,,,456381.10000000894,456381.10000000894,,456381,,456395.754,8,400,,,
sequence,flow.Sequence,4_67,2023-09-15T21:54:36.635Z,,0,,,2635.1050000089454,completion,,,,,false,,,,456381.3000000119,456381.10000000894,453729.246,453730.3000000119,453745.995,456395.754,8,400,,,
trial,html.Screen,4_68_0,2023-09-15T21:54:39.319Z,,0,2,,2669.446000002965,response,ISIC_0063234.JPG,11,ISIC_0061418.JPG,ISIC_0063234.JPG,false,1,keypress(m),500,459065.700000003,459065.200000003,456379.151,456381.40000000596,456395.754,459078.679,8,400,19,,ISIC_0061418.JPG
break,html.Screen,4_68_1,2023-09-15T21:54:39.321Z,,0,,,NaN,,,,,,false,,,,459067.3000000119,459066.90000000596,,459065.90000000596,,459078.679,8,400,,,
break_continue,html.Screen,4_68_2,2023-09-15T21:54:39.322Z,,0,,,NaN,,,,,,false,,,,459067.90000000596,459067.8000000119,,459067.60000000894,,459078.679,8,400,,,
sequence,flow.Sequence,4_68,2023-09-15T21:54:39.322Z,,0,,,2672.0460000119056,completion,,,,,false,,,,459068.200000003,459067.8000000119,456379.151,456381.40000000596,456395.754,459078.679,8,400,,,
trial,html.Screen,4_69_0,2023-09-15T21:54:45.167Z,,0,2,,5834.820999999996,response,ISIC_0015035.JPG,19,ISIC_0013967.JPG,ISIC_0013967.JPG,false,0,keypress(z),500,464913.700000003,464913.5,459062.283,459068.3000000119,459078.679,464928.725,8,400,20,,ISIC_0015035.JPG
break,html.Screen,4_69_1,2023-09-15T21:54:45.169Z,,0,,,NaN,,,,,,false,,,,464915.200000003,464915,,464913.90000000596,,464928.725,8,400,,,
break_continue,html.Screen,4_69_2,2023-09-15T21:54:45.169Z,,0,,,NaN,,,,,,false,,,,464915.5,464915.40000000596,,464915.3000000119,,464928.725,8,400,,,
sequence,flow.Sequence,4_69,2023-09-15T21:54:45.169Z,,0,,,5836.721000005957,completion,,,,,false,,,,464915.60000000894,464915.40000000596,459062.283,459068.200000003,459078.679,464928.725,8,400,,,
trial,html.Screen,4_70_0,2023-09-15T21:54:47.662Z,,0,2,,2479.075000011944,response,ISIC_3985782.JPG,14,ISIC_0066750.JPG,ISIC_3985782.JPG,false,1,keypress(m),500,467408.10000000894,467407.8000000119,464911.711,464915.60000000894,464928.725,467413.371,8,400,21,,ISIC_0066750.JPG
break,html.Screen,4_70_1,2023-09-15T21:54:47.663Z,,0,,,NaN,,,,,,false,,,,467409.60000000894,467409.5,,467408.3000000119,,467413.371,8,400,,,
break_continue,html.Screen,4_70_2,2023-09-15T21:54:47.664Z,,0,,,NaN,,,,,,false,,,,467410,467409.90000000596,,467409.8000000119,,467413.371,8,400,,,
sequence,flow.Sequence,4_70,2023-09-15T21:54:47.664Z,,0,,,2481.1750000059837,completion,,,,,false,,,,467410.10000000894,467409.90000000596,464911.711,464915.60000000894,464928.725,467413.371,8,400,,,
trial,html.Screen,4_71_0,2023-09-15T21:54:50.505Z,,0,2,,2837.4290000119363,response,ISIC_2616719.JPG,0,ISIC_0061735.JPG,ISIC_2616719.JPG,false,1,keypress(m),500,470251.10000000894,470250.8000000119,467395.381,467410.200000003,467413.371,470261.955,8,400,22,,ISIC_0061735.JPG
break,html.Screen,4_71_1,2023-09-15T21:54:50.506Z,,0,,,NaN,,,,,,false,,,,470252.700000003,470252.5,,470251.200000003,,470261.955,8,400,,,
break_continue,html.Screen,4_71_2,2023-09-15T21:54:50.507Z,,0,,,NaN,,,,,,false,,,,470253,470252.90000000596,,470252.90000000596,,470261.955,8,400,,,
sequence,flow.Sequence,4_71,2023-09-15T21:54:50.507Z,,0,,,2839.529000005976,completion,,,,,false,,,,470253.3000000119,470252.90000000596,467395.381,467410.200000003,467413.371,470261.955,8,400,,,
trial,html.Screen,4_72_0,2023-09-15T21:54:53.044Z,,0,2,,2527.8450000119046,response,ISIC_9351418.JPG,13,ISIC_0058206.JPG,ISIC_9351418.JPG,false,1,keypress(m),500,472789.90000000596,472789.8000000119,470247.629,470253.3000000119,470261.955,472796.407,8,400,23,,ISIC_0058206.JPG
break,html.Screen,4_72_1,2023-09-15T21:54:53.045Z,,0,,,NaN,,,,,,false,,,,472791.10000000894,472791,,472790.10000000894,,472796.407,8,400,,,
break_continue,html.Screen,4_72_2,2023-09-15T21:54:53.045Z,,0,,,NaN,,,,,,false,,,,472791.40000000596,472791.3000000119,,472791.10000000894,,472796.407,8,400,,,
sequence,flow.Sequence,4_72,2023-09-15T21:54:53.045Z,,0,,,2529.3450000119046,completion,,,,,false,,,,472791.5,472791.3000000119,470247.629,470253.3000000119,470261.955,472796.407,8,400,,,
trial,html.Screen,4_73_0,2023-09-15T21:54:55.748Z,,0,2,,2698.0929999999935,response,ISIC_1663144.JPG,12,ISIC_0062313.JPG,ISIC_1663144.JPG,false,1,keypress(m),500,475494.60000000894,475494.5,472778.495,472791.5,472796.407,475511.479,8,400,24,,ISIC_0062313.JPG
break,html.Screen,4_73_1,2023-09-15T21:54:55.750Z,,0,,,NaN,,,,,,false,,,,475496.10000000894,475495.90000000596,,475494.8000000119,,475511.479,8,400,,,
break_continue,html.Screen,4_73_2,2023-09-15T21:54:55.750Z,,0,,,NaN,,,,,,false,,,,475496.40000000596,475496.40000000596,,475496.200000003,,475511.479,8,400,,,
sequence,flow.Sequence,4_73,2023-09-15T21:54:55.750Z,,0,,,2699.993000005954,completion,,,,,false,,,,475496.5,475496.40000000596,472778.495,472791.5,472796.407,475511.479,8,400,,,
trial,html.Screen,4_74_0,2023-09-15T21:54:58.319Z,,0,2,,2553.521000000008,response,ISIC_0070051.JPG,12,ISIC_7833178.JPG,ISIC_7833178.JPG,false,0,keypress(z),500,478065.200000003,478065,475494.886,475496.60000000894,475511.479,478077.742,8,400,25,,ISIC_0070051.JPG
break,html.Screen,4_74_1,2023-09-15T21:54:58.320Z,,0,,,NaN,,,,,,false,,,,478066.60000000894,478066.40000000596,,478065.40000000596,,478077.742,8,400,,,
break_continue,html.Screen,4_74_2,2023-09-15T21:54:58.321Z,,0,,,NaN,,,,,,false,,,,478066.90000000596,478066.8000000119,,478066.700000003,,478077.742,8,400,,,
sequence,flow.Sequence,4_74,2023-09-15T21:54:58.321Z,,0,,,2555.321000011929,completion,,,,,false,,,,478067.10000000894,478066.8000000119,475494.886,475496.60000000894,475511.479,478077.742,8,400,,,
trial,html.Screen,4_75_0,2023-09-15T21:55:00.923Z,,0,2,,2591.358000008913,response,ISIC_8730617.JPG,11,ISIC_1695424.JPG,ISIC_1695424.JPG,false,0,keypress(z),500,480669.40000000596,480669.10000000894,478061.02,478067.10000000894,478077.742,480677.875,8,400,26,,ISIC_8730617.JPG
break,html.Screen,4_75_1,2023-09-15T21:55:00.925Z,,0,,,NaN,,,,,,false,,,,480671.200000003,480671,,480669.60000000894,,480677.875,8,400,,,
break_continue,html.Screen,4_75_2,2023-09-15T21:55:00.925Z,,0,,,NaN,,,,,,false,,,,480671.60000000894,480671.5,,480671.40000000596,,480677.875,8,400,,,
sequence,flow.Sequence,4_75,2023-09-15T21:55:00.925Z,,0,,,2593.7579999999725,completion,,,,,false,,,,480671.700000003,480671.5,478061.02,478067.10000000894,478077.742,480677.875,8,400,,,
trial,html.Screen,4_76_0,2023-09-15T21:55:03.647Z,,0,2,,2714.8250000029802,response,ISIC_0028488.JPG,8,ISIC_0012701.JPG,ISIC_0012701.JPG,false,0,keypress(z),500,483392.90000000596,483392.700000003,480661.413,480671.8000000119,480677.875,483397.125,8,400,27,,ISIC_0028488.JPG
break,html.Screen,4_76_1,2023-09-15T21:55:03.648Z,,0,,,NaN,,,,,,false,,,,483394.200000003,483394,,483393.10000000894,,483397.125,8,400,,,
break_continue,html.Screen,4_76_2,2023-09-15T21:55:03.648Z,,0,,,NaN,,,,,,false,,,,483394.5,483394.5,,483394.3000000119,,483397.125,8,400,,,
sequence,flow.Sequence,4_76,2023-09-15T21:55:03.648Z,,0,,,2716.625,completion,,,,,false,,,,483394.60000000894,483394.5,480661.413,480671.8000000119,480677.875,483397.125,8,400,,,
trial,html.Screen,4_77_0,2023-09-15T21:55:06.270Z,,0,2,,2618.4750000089407,response,ISIC_2922104.JPG,20,ISIC_0014325.JPG,ISIC_2922104.JPG,false,1,keypress(m),500,486015.90000000596,486015.60000000894,483377.785,483394.700000003,483397.125,486027.385,8,400,28,,ISIC_0014325.JPG
break,html.Screen,4_77_1,2023-09-15T21:55:06.271Z,,0,,,NaN,,,,,,false,,,,486017.10000000894,486016.90000000596,,486016.10000000894,,486027.385,8,400,,,
break_continue,html.Screen,4_77_2,2023-09-15T21:55:06.271Z,,0,,,NaN,,,,,,false,,,,486017.40000000596,486017.3000000119,,486017.200000003,,486027.385,8,400,,,
sequence,flow.Sequence,4_77,2023-09-15T21:55:06.271Z,,0,,,2620.175000011921,completion,,,,,false,,,,486017.60000000894,486017.3000000119,483377.785,483394.60000000894,483397.125,486027.385,8,400,,,
trial,html.Screen,4_78_0,2023-09-15T21:55:08.851Z,,0,2,,2569.9150000119116,response,ISIC_6657600.JPG,8,ISIC_0025218.JPG,ISIC_0025218.JPG,false,0,keypress(z),500,488597.700000003,488597.3000000119,486011.364,486017.700000003,486027.385,488611.263,8,400,29,,ISIC_6657600.JPG
break,html.Screen,4_78_1,2023-09-15T21:55:08.853Z,,0,,,NaN,,,,,,false,,,,488599,488598.8000000119,,488597.90000000596,,488611.263,8,400,,,
break_continue,html.Screen,4_78_2,2023-09-15T21:55:08.853Z,,0,,,NaN,,,,,,false,,,,488599.3000000119,488599.200000003,,488599.200000003,,488611.263,8,400,,,
sequence,flow.Sequence,4_78,2023-09-15T21:55:08.853Z,,0,,,2571.815000002971,completion,,,,,false,,,,488599.40000000596,488599.200000003,486011.364,486017.700000003,486027.385,488611.263,8,400,,,
trial,html.Screen,4_79_0,2023-09-15T21:55:11.700Z,,0,2,,2834.5370000119437,response,ISIC_0030156.JPG,7,ISIC_0033265.JPG,ISIC_0030156.JPG,false,1,keypress(m),500,491446,491445.8000000119,488594.06,488599.5,488611.263,491460.45,8,400,30,,ISIC_0033265.JPG
break,html.Screen,4_79_1,2023-09-15T21:55:11.701Z,,0,,,NaN,,,,,,false,,,,491447.10000000894,491447.10000000894,,491446.200000003,,491460.45,8,400,,,
break_continue,html.Screen,4_79_2,2023-09-15T21:55:11.701Z,,0,,,NaN,,,,,,false,,,,491447.40000000596,491447.3000000119,,491447.200000003,,491460.45,8,400,,,
sequence,flow.Sequence,4_79,2023-09-15T21:55:11.701Z,,0,,,2836.0370000119437,completion,,,,,false,,,,491447.40000000596,491447.3000000119,488594.06,488599.5,488611.263,491460.45,8,400,,,
trial,html.Screen,4_80_0,2023-09-15T21:55:14.457Z,,0,2,,2742.650000008929,response,ISIC_1819071.JPG,13,ISIC_3886458.JPG,ISIC_3886458.JPG,false,0,keypress(z),500,494203.40000000596,494203.10000000894,491444.057,491447.5,491460.45,494211.882,8,400,31,,ISIC_1819071.JPG
break,html.Screen,4_80_1,2023-09-15T21:55:14.459Z,,0,,,NaN,,,,,,false,,,,494205.200000003,494205,,494203.60000000894,,494211.882,8,400,,,
break_continue,html.Screen,4_80_2,2023-09-15T21:55:14.459Z,,0,,,NaN,,,,,,false,,,,494205.5,494205.5,,494205.40000000596,,494211.882,8,400,,,
sequence,flow.Sequence,4_80,2023-09-15T21:55:14.460Z,,0,,,2745.0499999999884,completion,,,,,false,,,,494205.700000003,494205.5,491444.057,491447.5,491460.45,494211.882,8,400,,,
trial,html.Screen,4_81_0,2023-09-15T21:55:17.180Z,,0,2,,2714.5180000059772,response,ISIC_0011286.JPG,8,ISIC_0029732.JPG,ISIC_0029732.JPG,false,0,keypress(z),500,496926.60000000894,496926.40000000596,494193.766,494205.8000000119,494211.882,496960.185,8,400,32,,ISIC_0011286.JPG
break,html.Screen,4_81_1,2023-09-15T21:55:17.182Z,,0,,,NaN,,,,,,false,,,,496927.700000003,496927.5,,496926.8000000119,,496960.185,8,400,,,
break_continue,html.Screen,4_81_2,2023-09-15T21:55:17.182Z,,0,,,NaN,,,,,,false,,,,496928,496927.8000000119,,496927.8000000119,,496960.185,8,400,,,
sequence,flow.Sequence,4_81,2023-09-15T21:55:17.182Z,,0,,,2715.9180000119377,completion,,,,,false,,,,496928,496927.8000000119,494193.766,494205.700000003,494211.882,496960.185,8,400,,,
trial,html.Screen,4_82_0,2023-09-15T21:55:20.288Z,,0,2,,3073.5150000029826,response,ISIC_8626909.JPG,1,ISIC_0066854.JPG,ISIC_8626909.JPG,false,1,keypress(m),500,500033.90000000596,500033.700000003,496943.521,496928.200000003,496960.185,500043.645,8,400,33,,ISIC_0066854.JPG
break,html.Screen,4_82_1,2023-09-15T21:55:20.289Z,,0,,,NaN,,,,,,false,,,,500034.90000000596,500034.8000000119,,500034.10000000894,,500043.645,8,400,,,
break_continue,html.Screen,4_82_2,2023-09-15T21:55:20.289Z,,0,,,NaN,,,,,,false,,,,500035.200000003,500035.200000003,,500035.10000000894,,500043.645,8,400,,,
sequence,flow.Sequence,4_82,2023-09-15T21:55:20.289Z,,0,,,3075.0150000029826,completion,,,,,false,,,,500035.3000000119,500035.200000003,496943.521,496928.10000000894,496960.185,500043.645,8,400,,,
trial,html.Screen,4_83_0,2023-09-15T21:55:23.031Z,,0,2,,2733.5550000029616,response,ISIC_0027742.JPG,13,ISIC_0073136.JPG,ISIC_0027742.JPG,false,1,keypress(m),500,502777.40000000596,502777.200000003,500027.014,500035.40000000596,500043.645,502793.222,8,400,34,,ISIC_0073136.JPG
break,html.Screen,4_83_1,2023-09-15T21:55:23.033Z,,0,,,NaN,,,,,,false,,,,502779,502778.8000000119,,502777.60000000894,,502793.222,8,400,,,
break_continue,html.Screen,4_83_2,2023-09-15T21:55:23.033Z,,0,,,NaN,,,,,,false,,,,502779.3000000119,502779.3000000119,,502779.10000000894,,502793.222,8,400,,,
sequence,flow.Sequence,4_83,2023-09-15T21:55:23.033Z,,0,,,2735.6550000119023,completion,,,,,false,,,,502779.40000000596,502779.3000000119,500027.014,500035.3000000119,500043.645,502793.222,8,400,,,
trial,html.Screen,4_84_0,2023-09-15T21:55:26.145Z,,0,2,,3097.6780000059516,response,ISIC_5807608.JPG,8,ISIC_6471212.JPG,ISIC_5807608.JPG,false,1,keypress(m),500,505891.10000000894,505890.90000000596,502776.931,502779.60000000894,502793.222,505893.107,8,400,35,,ISIC_6471212.JPG
break,html.Screen,4_84_1,2023-09-15T21:55:26.146Z,,0,,,NaN,,,,,,false,,,,505892.3000000119,505892,,505891.3000000119,,505893.107,8,400,,,
break_continue,html.Screen,4_84_2,2023-09-15T21:55:26.146Z,,0,,,NaN,,,,,,false,,,,505892.700000003,505892.60000000894,,505892.40000000596,,505893.107,8,400,,,
sequence,flow.Sequence,4_84,2023-09-15T21:55:26.147Z,,0,,,3099.378000008932,completion,,,,,false,,,,505892.700000003,505892.60000000894,502776.931,502779.5,502793.222,505893.107,8,400,,,
trial,html.Screen,4_85_0,2023-09-15T21:55:28.824Z,,0,2,,2676.2930000059423,response,ISIC_6381197.JPG,11,ISIC_8791729.JPG,ISIC_8791729.JPG,false,0,keypress(z),500,508569.700000003,508569.40000000596,505876.72,505892.8000000119,505893.107,508576.328,8,400,36,,ISIC_6381197.JPG
break,html.Screen,4_85_1,2023-09-15T21:55:28.825Z,,0,,,NaN,,,,,,false,,,,508571.10000000894,508570.90000000596,,508569.90000000596,,508576.328,8,400,,,
break_continue,html.Screen,4_85_2,2023-09-15T21:55:28.825Z,,0,,,NaN,,,,,,false,,,,508571.60000000894,508571.5,,508571.3000000119,,508576.328,8,400,,,
sequence,flow.Sequence,4_85,2023-09-15T21:55:28.826Z,,0,,,2678.392999999982,completion,,,,,false,,,,508571.700000003,508571.5,505876.72,505892.8000000119,505893.107,508576.328,8,400,,,
trial,html.Screen,4_86_0,2023-09-15T21:55:31.446Z,,0,2,,2615.1720000000205,response,ISIC_8174951.JPG,10,ISIC_0058508.JPG,ISIC_8174951.JPG,false,1,keypress(m),500,511191.700000003,511191.5,508559.694,508571.700000003,508576.328,511209.86,8,400,37,,ISIC_0058508.JPG
break,html.Screen,4_86_1,2023-09-15T21:55:31.447Z,,0,,,NaN,,,,,,false,,,,511193.200000003,511193,,511191.90000000596,,511209.86,8,400,,,
break_continue,html.Screen,4_86_2,2023-09-15T21:55:31.447Z,,0,,,NaN,,,,,,false,,,,511193.60000000894,511193.5,,511193.3000000119,,511209.86,8,400,,,
sequence,flow.Sequence,4_86,2023-09-15T21:55:31.448Z,,0,,,2617.1720000000205,completion,,,,,false,,,,511193.700000003,511193.5,508559.694,508571.700000003,508576.328,511209.86,8,400,,,
trial,html.Screen,4_87_0,2023-09-15T21:55:35.553Z,,0,2,,4088.840000002994,response,ISIC_5275138.JPG,15,ISIC_6483504.JPG,ISIC_5275138.JPG,false,1,keypress(m),500,515299.10000000894,515298.700000003,511176.477,511193.8000000119,511209.86,515310.174,8,400,38,,ISIC_6483504.JPG
break,html.Screen,4_87_1,2023-09-15T21:55:35.555Z,,0,,,NaN,,,,,,false,,,,515301.3000000119,515301.10000000894,,515299.5,,515310.174,8,400,,,
break_continue,html.Screen,4_87_2,2023-09-15T21:55:35.556Z,,0,,,NaN,,,,,,false,,,,515301.700000003,515301.5,,515301.5,,515310.174,8,400,,,
sequence,flow.Sequence,4_87,2023-09-15T21:55:35.556Z,,0,,,4091.640000000014,completion,,,,,false,,,,515301.8000000119,515301.5,511176.477,511193.8000000119,511209.86,515310.174,8,400,,,
trial,html.Screen,4_88_0,2023-09-15T21:55:38.428Z,,0,2,,2863.326000000001,response,ISIC_0009886.JPG,15,ISIC_0008393.JPG,ISIC_0008393.JPG,false,0,keypress(z),500,518173.8000000119,518173.5,515293.234,515301.90000000596,515310.174,518180.089,8,400,39,,ISIC_0009886.JPG
break,html.Screen,4_88_1,2023-09-15T21:55:38.430Z,,0,,,NaN,,,,,,false,,,,518175.90000000596,518175.40000000596,,518174,,518180.089,8,400,,,
break_continue,html.Screen,4_88_2,2023-09-15T21:55:38.430Z,,0,,,NaN,,,,,,false,,,,518176.3000000119,518176.200000003,,518176.10000000894,,518180.089,8,400,,,
sequence,flow.Sequence,4_88,2023-09-15T21:55:38.430Z,,0,,,2866.026000002981,completion,,,,,false,,,,518176.5,518176.200000003,515293.234,515301.90000000596,515310.174,518180.089,8,400,,,
trial,html.Screen,4_89_0,2023-09-15T21:55:41.157Z,,0,2,,2723.111000003002,response,ISIC_0032981.JPG,11,ISIC_0030729.JPG,ISIC_0030729.JPG,false,0,keypress(z),500,520903.5,520903.200000003,518159.574,518176.60000000894,518180.089,520913.988,8,400,40,,ISIC_0032981.JPG
break,html.Screen,4_89_1,2023-09-15T21:55:41.158Z,,0,,,NaN,,,,,,false,,,,520904.700000003,520904.5,,520903.60000000894,,520913.988,8,400,,,
break_continue,html.Screen,4_89_2,2023-09-15T21:55:41.159Z,,0,,,NaN,,,,,,false,,,,520904.90000000596,520904.8000000119,,520904.700000003,,520913.988,8,400,,,
sequence,flow.Sequence,4_89,2023-09-15T21:55:41.159Z,,0,,,2724.711000011943,completion,,,,,false,,,,520905,520904.8000000119,518159.574,518176.60000000894,518180.089,520913.988,8,400,,,
trial,html.Screen,4_90_0,2023-09-15T21:55:43.840Z,,0,2,,2671.511999999988,response,ISIC_0072564.JPG,12,ISIC_8708106.JPG,ISIC_8708106.JPG,false,0,keypress(z),500,523585.8000000119,523585.5,520892.951,520905.10000000894,520913.988,523592.49,8,400,41,,ISIC_0072564.JPG
break,html.Screen,4_90_1,2023-09-15T21:55:43.841Z,,0,,,NaN,,,,,,false,,,,523587,523586.700000003,,523585.90000000596,,523592.49,8,400,,,
break_continue,html.Screen,4_90_2,2023-09-15T21:55:43.841Z,,0,,,NaN,,,,,,false,,,,523587.40000000596,523587.200000003,,523587.10000000894,,523592.49,8,400,,,
sequence,flow.Sequence,4_90,2023-09-15T21:55:43.841Z,,0,,,2673.212000002968,completion,,,,,false,,,,523587.60000000894,523587.200000003,520892.951,520905.10000000894,520913.988,523592.49,8,400,,,
trial,html.Screen,4_91_0,2023-09-15T21:55:46.898Z,,0,2,,3051.5100000000093,response,ISIC_0028548.JPG,12,ISIC_8106899.JPG,ISIC_8106899.JPG,false,0,keypress(z),500,526644.200000003,526644,523576.099,523587.700000003,523592.49,526658.816,8,400,42,,ISIC_0028548.JPG
break,html.Screen,4_91_1,2023-09-15T21:55:46.899Z,,0,,,NaN,,,,,,false,,,,526645.400000006,526645.200000003,,526644.5,,526658.816,8,400,,,
break_continue,html.Screen,4_91_2,2023-09-15T21:55:46.900Z,,0,,,NaN,,,,,,false,,,,526645.8000000119,526645.700000003,,526645.6000000089,,526658.816,8,400,,,
sequence,flow.Sequence,4_91,2023-09-15T21:55:46.900Z,,0,,,3053.2100000029895,completion,,,,,false,,,,526646,526645.700000003,523576.099,523587.60000000894,523592.49,526658.816,8,400,,,
trial,html.Screen,4_92_0,2023-09-15T21:55:51.339Z,,0,2,,4425.784000008949,response,ISIC_6692344.JPG,0,ISIC_0053765.JPG,ISIC_6692344.JPG,false,1,keypress(m),500,531085.1000000089,531084.6000000089,526642.239,526646.1000000089,526658.816,531093.718,8,400,43,,ISIC_0053765.JPG
break,html.Screen,4_92_1,2023-09-15T21:55:51.341Z,,0,,,NaN,,,,,,false,,,,531087.5,531087.1000000089,,531085.400000006,,531093.718,8,400,,,
break_continue,html.Screen,4_92_2,2023-09-15T21:55:51.342Z,,0,,,NaN,,,,,,false,,,,531088,531087.8000000119,,531087.700000003,,531093.718,8,400,,,
sequence,flow.Sequence,4_92,2023-09-15T21:55:51.342Z,,0,,,4428.984000011929,completion,,,,,false,,,,531088.3000000119,531087.8000000119,526642.239,526646,526658.816,531093.718,8,400,,,
trial,html.Screen,4_93_0,2023-09-15T21:55:54.778Z,,0,2,,3430.0820000119274,response,ISIC_6951506.JPG,9,ISIC_6017985.JPG,ISIC_6951506.JPG,false,1,keypress(m),500,534524,534523.8000000119,531075.904,531088.400000006,531093.718,534548.406,8,400,44,,ISIC_6017985.JPG
break,html.Screen,4_93_1,2023-09-15T21:55:54.779Z,,0,,,NaN,,,,,,false,,,,534524.8000000119,534524.5,,534524,,534548.406,8,400,,,
break_continue,html.Screen,4_93_2,2023-09-15T21:55:54.779Z,,0,,,NaN,,,,,,false,,,,534525.1000000089,534525,,534524.8000000119,,534548.406,8,400,,,
sequence,flow.Sequence,4_93,2023-09-15T21:55:54.779Z,,0,,,3431.2820000000065,completion,,,,,false,,,,534525.200000003,534525,531075.904,531088.3000000119,531093.718,534548.406,8,400,,,
trial,html.Screen,4_94_0,2023-09-15T21:55:57.842Z,,0,2,,3040.094000000041,response,ISIC_0010550.JPG,3,ISIC_0066564.JPG,ISIC_0066564.JPG,false,0,keypress(z),500,537588.700000003,537588.5,534509.091,534525.3000000119,534548.406,537592.529,8,400,45,,ISIC_0010550.JPG
break,html.Screen,4_94_1,2023-09-15T21:55:57.844Z,,0,,,NaN,,,,,,false,,,,537589.700000003,537589.6000000089,,537588.8000000119,,537592.529,8,400,,,
break_continue,html.Screen,4_94_2,2023-09-15T21:55:57.844Z,,0,,,NaN,,,,,,false,,,,537590,537589.900000006,,537589.8000000119,,537592.529,8,400,,,
sequence,flow.Sequence,4_94,2023-09-15T21:55:57.844Z,,0,,,3041.4940000060014,completion,,,,,false,,,,537590.1000000089,537589.900000006,534509.091,534525.200000003,534548.406,537592.529,8,400,,,
trial,html.Screen,4_95_0,2023-09-15T21:56:00.548Z,,0,2,,2701.671000003,response,ISIC_0013778.JPG,0,ISIC_0076742.JPG,ISIC_0076742.JPG,false,0,keypress(z),500,540294.3000000119,540294.200000003,537575.424,537590.200000003,537592.529,540308.098,8,400,46,,ISIC_0013778.JPG
break,html.Screen,4_95_1,2023-09-15T21:56:00.549Z,,0,,,NaN,,,,,,false,,,,540295.1000000089,540295,,540294.5,,540308.098,8,400,,,
break_continue,html.Screen,4_95_2,2023-09-15T21:56:00.549Z,,0,,,NaN,,,,,,false,,,,540295.400000006,540295.200000003,,540295.200000003,,540308.098,8,400,,,
sequence,flow.Sequence,4_95,2023-09-15T21:56:00.549Z,,0,,,2702.671000003,completion,,,,,false,,,,540295.5,540295.200000003,537575.424,537590.200000003,537592.529,540308.098,8,400,,,
trial,html.Screen,4_96_0,2023-09-15T21:56:04.169Z,,0,2,,3606.602000002982,response,ISIC_0033655.JPG,7,ISIC_6299036.JPG,ISIC_6299036.JPG,false,0,keypress(z),500,543914.900000006,543914.700000003,540291.425,540295.6000000089,540308.098,543927.187,8,400,47,,ISIC_0033655.JPG
break,html.Screen,4_96_1,2023-09-15T21:56:04.170Z,,0,,,NaN,,,,,,false,,,,543916.1000000089,543915.900000006,,543915,,543927.187,8,400,,,
break_continue,html.Screen,4_96_2,2023-09-15T21:56:04.170Z,,0,,,NaN,,,,,,false,,,,543916.3000000119,543916.3000000119,,543916.200000003,,543927.187,8,400,,,
sequence,flow.Sequence,4_96,2023-09-15T21:56:04.170Z,,0,,,3608.202000011923,completion,,,,,false,,,,543916.400000006,543916.3000000119,540291.425,540295.6000000089,540308.098,543927.187,8,400,,,
trial,html.Screen,4_97_0,2023-09-15T21:56:07.140Z,,0,2,,2958.9130000089062,response,ISIC_3590167.JPG,28,ISIC_0054568.JPG,ISIC_3590167.JPG,false,1,keypress(m),500,546886.400000006,546886.1000000089,543908.009,543916.6000000089,543927.187,546892.101,8,400,48,,ISIC_0054568.JPG
break,html.Screen,4_97_1,2023-09-15T21:56:07.142Z,,0,,,NaN,,,,,,false,,,,546888.3000000119,546888,,546886.6000000089,,546892.101,8,400,,,
break_continue,html.Screen,4_97_2,2023-09-15T21:56:07.142Z,,0,,,NaN,,,,,,false,,,,546888.700000003,546888.6000000089,,546888.400000006,,546892.101,8,400,,,
sequence,flow.Sequence,4_97,2023-09-15T21:56:07.142Z,,0,,,2961.4130000089062,completion,,,,,false,,,,546888.8000000119,546888.6000000089,543908.009,543916.5,543927.187,546892.101,8,400,,,
trial,html.Screen,4_98_0,2023-09-15T21:56:09.711Z,,0,2,,2564.7990000059363,response,ISIC_0010108.JPG,11,ISIC_5507066.JPG,ISIC_5507066.JPG,false,0,keypress(z),500,549457.1000000089,549456.900000006,546874.746,546888.900000006,546892.101,549474.393,8,400,49,,ISIC_0010108.JPG
break,html.Screen,4_98_1,2023-09-15T21:56:09.712Z,,0,,,NaN,,,,,,false,,,,549458.1000000089,549458,,549457.200000003,,549474.393,8,400,,,
break_continue,html.Screen,4_98_2,2023-09-15T21:56:09.712Z,,0,,,NaN,,,,,,false,,,,549458.400000006,549458.3000000119,,549458.3000000119,,549474.393,8,400,,,
sequence,flow.Sequence,4_98,2023-09-15T21:56:09.712Z,,0,,,2566.1990000118967,completion,,,,,false,,,,549458.6000000089,549458.3000000119,546874.746,546888.900000006,546892.101,549474.393,8,400,,,
trial,html.Screen,4_99_0,2023-09-15T21:56:12.906Z,,0,2,,3178.0070000059204,response,ISIC_3833013.JPG,10,ISIC_8433608.JPG,ISIC_8433608.JPG,false,0,keypress(z),500,552652.700000003,552652.400000006,549441.162,549458.6000000089,549474.393,552659.788,8,400,50,,ISIC_3833013.JPG
break,html.Screen,4_99_1,2023-09-15T21:56:22.896Z,,0,,,9997.591000000015,timeout,,,,,false,,,,562641.900000006,562640.843,552641.519,552653.200000003,552659.788,562657.379,8,400,,,
break_continue,html.Screen,4_99_2,2023-09-15T21:56:36.710Z,,0,,,13775.121000000043,response,,,,,false,continue,keypress(Space),,576455.900000006,576432.5,562640.843,562642,562657.379,576473.507,8,400,,,
sequence,flow.Sequence,4_99,2023-09-15T21:56:36.710Z,,0,,,26958.10699999996,completion,,,,,false,,,,576456.1000000089,576432.5,549441.162,549458.6000000089,549474.393,576473.507,8,400,,,
trial,html.Screen,4_100_0,2023-09-15T21:56:40.097Z,,0,3,,3369.5930000089575,response,ISIC_0032561.JPG,6,ISIC_0032244.JPG,ISIC_0032561.JPG,false,1,keypress(m),500,579843.3000000119,579843.1000000089,576456.039,576456.1000000089,576473.507,579856.543,8,400,1,,ISIC_0032244.JPG
break,html.Screen,4_100_1,2023-09-15T21:56:40.098Z,,0,,,NaN,,,,,,false,,,,579844.5,579844.400000006,,579843.400000006,,579856.543,8,400,,,
break_continue,html.Screen,4_100_2,2023-09-15T21:56:40.099Z,,0,,,NaN,,,,,,false,,,,579844.8000000119,579844.8000000119,,579844.700000003,,579856.543,8,400,,,
sequence,flow.Sequence,4_100,2023-09-15T21:56:40.099Z,,0,,,3371.2930000119377,completion,,,,,false,,,,579844.900000006,579844.8000000119,576456.039,576456.1000000089,576473.507,579856.543,8,400,,,
trial,html.Screen,4_101_0,2023-09-15T21:56:42.793Z,,0,3,,2682.8570000060135,response,ISIC_0340453.JPG,11,ISIC_0034187.JPG,ISIC_0340453.JPG,false,1,keypress(m),500,582539.6000000089,582539.400000006,579840.421,579845,579856.543,582556.436,8,400,2,,ISIC_0034187.JPG
break,html.Screen,4_101_1,2023-09-15T21:56:42.795Z,,0,,,NaN,,,,,,false,,,,582541.1000000089,582540.900000006,,582539.8000000119,,582556.436,8,400,,,
break_continue,html.Screen,4_101_2,2023-09-15T21:56:42.795Z,,0,,,NaN,,,,,,false,,,,582541.5,582541.3000000119,,582541.3000000119,,582556.436,8,400,,,
sequence,flow.Sequence,4_101,2023-09-15T21:56:42.795Z,,0,,,2684.757000011974,completion,,,,,false,,,,582541.5,582541.3000000119,579840.421,579845,579856.543,582556.436,8,400,,,
trial,html.Screen,4_102_0,2023-09-15T21:56:45.727Z,,0,3,,2916.2640000029933,response,ISIC_0013639.JPG,11,ISIC_7185036.JPG,ISIC_7185036.JPG,false,0,keypress(z),500,585472.900000006,585472.700000003,582539.6,582541.700000003,582556.436,585489.493,8,400,3,,ISIC_0013639.JPG
break,html.Screen,4_102_1,2023-09-15T21:56:45.728Z,,0,,,NaN,,,,,,false,,,,585474.3000000119,585474.1000000089,,585473.1000000089,,585489.493,8,400,,,
break_continue,html.Screen,4_102_2,2023-09-15T21:56:45.728Z,,0,,,NaN,,,,,,false,,,,585474.6000000089,585474.5,,585474.400000006,,585489.493,8,400,,,
sequence,flow.Sequence,4_102,2023-09-15T21:56:45.728Z,,0,,,2918.064000000013,completion,,,,,false,,,,585474.700000003,585474.5,582539.6,582541.6000000089,582556.436,585489.493,8,400,,,
trial,html.Screen,4_103_0,2023-09-15T21:56:48.451Z,,0,3,,2708.0069999999832,response,ISIC_7336383.JPG,11,ISIC_0056572.JPG,ISIC_7336383.JPG,false,1,keypress(m),500,588197.8000000119,588197.5,585472.499,585474.8000000119,585489.493,588207.255,8,400,4,,ISIC_0056572.JPG
break,html.Screen,4_103_1,2023-09-15T21:56:48.453Z,,0,,,NaN,,,,,,false,,,,588199.1000000089,588198.900000006,,588197.900000006,,588207.255,8,400,,,
break_continue,html.Screen,4_103_2,2023-09-15T21:56:48.453Z,,0,,,NaN,,,,,,false,,,,588199.3000000119,588199.3000000119,,588199.200000003,,588207.255,8,400,,,
sequence,flow.Sequence,4_103,2023-09-15T21:56:48.453Z,,0,,,2709.807000011904,completion,,,,,false,,,,588199.400000006,588199.3000000119,585472.499,585474.700000003,585489.493,588207.255,8,400,,,
trial,html.Screen,4_104_0,2023-09-15T21:56:52.050Z,,0,3,,3588.845000008936,response,ISIC_0057696.JPG,7,ISIC_0011077.JPG,ISIC_0057696.JPG,false,1,keypress(m),500,591796.5,591796.1000000089,588189.489,588199.5,588207.255,591808.076,8,400,5,,ISIC_0011077.JPG
break,html.Screen,4_104_1,2023-09-15T21:56:52.051Z,,0,,,NaN,,,,,,false,,,,591797.6000000089,591797.5,,591796.700000003,,591808.076,8,400,,,
break_continue,html.Screen,4_104_2,2023-09-15T21:56:52.052Z,,0,,,NaN,,,,,,false,,,,591797.900000006,591797.8000000119,,591797.700000003,,591808.076,8,400,,,
sequence,flow.Sequence,4_104,2023-09-15T21:56:52.052Z,,0,,,3590.5450000119163,completion,,,,,false,,,,591798,591797.8000000119,588189.489,588199.5,588207.255,591808.076,8,400,,,
trial,html.Screen,4_105_0,2023-09-15T21:56:54.634Z,,0,3,,2572.0240000089398,response,ISIC_0032408.JPG,28,ISIC_5333058.JPG,ISIC_5333058.JPG,false,0,keypress(z),500,594380.3000000119,594380.1000000089,591789.461,591798.200000003,591808.076,594389.673,8,400,6,,ISIC_0032408.JPG
break,html.Screen,4_105_1,2023-09-15T21:56:54.635Z,,0,,,NaN,,,,,,false,,,,594381.5,594381.400000006,,594380.400000006,,594389.673,8,400,,,
break_continue,html.Screen,4_105_2,2023-09-15T21:56:54.635Z,,0,,,NaN,,,,,,false,,,,594381.8000000119,594381.700000003,,594381.6000000089,,594389.673,8,400,,,
sequence,flow.Sequence,4_105,2023-09-15T21:56:54.636Z,,0,,,2573.6240000029793,completion,,,,,false,,,,594381.8000000119,594381.700000003,591789.461,591798.1000000089,591808.076,594389.673,8,400,,,
trial,html.Screen,4_106_0,2023-09-15T21:56:57.161Z,,0,3,,2517.1270000119694,response,ISIC_0034046.JPG,7,ISIC_5736624.JPG,ISIC_5736624.JPG,false,0,keypress(z),500,596907,596906.8000000119,594372.785,594381.900000006,594389.673,596922.554,8,400,7,,ISIC_0034046.JPG
break,html.Screen,4_106_1,2023-09-15T21:56:57.162Z,,0,,,NaN,,,,,,false,,,,596908.1000000089,596907.900000006,,596907.1000000089,,596922.554,8,400,,,
break_continue,html.Screen,4_106_2,2023-09-15T21:56:57.162Z,,0,,,NaN,,,,,,false,,,,596908.200000003,596908.200000003,,596908.1000000089,,596922.554,8,400,,,
sequence,flow.Sequence,4_106,2023-09-15T21:56:57.162Z,,0,,,2518.5270000030287,completion,,,,,false,,,,596908.3000000119,596908.200000003,594372.785,594381.8000000119,594389.673,596922.554,8,400,,,
trial,html.Screen,4_107_0,2023-09-15T21:57:00.043Z,,0,3,,2866.1460000029765,response,ISIC_0032509.JPG,13,ISIC_0070017.JPG,ISIC_0032509.JPG,false,1,keypress(m),500,599789,599788.700000003,596906.011,596908.400000006,596922.554,599805.307,8,400,8,,ISIC_0070017.JPG
break,html.Screen,4_107_1,2023-09-15T21:57:00.044Z,,0,,,NaN,,,,,,false,,,,599790,599789.900000006,,599789.1000000089,,599805.307,8,400,,,
break_continue,html.Screen,4_107_2,2023-09-15T21:57:00.044Z,,0,,,NaN,,,,,,false,,,,599790.200000003,599790.1000000089,,599790.1000000089,,599805.307,8,400,,,
sequence,flow.Sequence,4_107,2023-09-15T21:57:00.044Z,,0,,,2867.546000008937,completion,,,,,false,,,,599790.3000000119,599790.1000000089,596906.011,596908.400000006,596922.554,599805.307,8,400,,,
trial,html.Screen,4_108_0,2023-09-15T21:57:02.534Z,,0,3,,2474.793000008911,response,ISIC_1461507.JPG,13,ISIC_4474170.JPG,ISIC_4474170.JPG,false,0,keypress(z),500,602280.400000006,602280.1000000089,599788.805,599790.400000006,599805.307,602288.714,8,400,9,,ISIC_1461507.JPG
break,html.Screen,4_108_1,2023-09-15T21:57:02.536Z,,0,,,NaN,,,,,,false,,,,602281.900000006,602281.700000003,,602280.6000000089,,602288.714,8,400,,,
break_continue,html.Screen,4_108_2,2023-09-15T21:57:02.536Z,,0,,,NaN,,,,,,false,,,,602282.200000003,602282.200000003,,602282,,602288.714,8,400,,,
sequence,flow.Sequence,4_108,2023-09-15T21:57:02.536Z,,0,,,2476.8930000029504,completion,,,,,false,,,,602282.400000006,602282.200000003,599788.805,599790.400000006,599805.307,602288.714,8,400,,,
trial,html.Screen,4_109_0,2023-09-15T21:57:05.059Z,,0,3,,2516.3860000089044,response,ISIC_4923095.JPG,0,ISIC_0064034.JPG,ISIC_4923095.JPG,false,1,keypress(m),500,604805.400000006,604805.1000000089,602272.564,602282.400000006,602288.714,604821.984,8,400,10,,ISIC_0064034.JPG
break,html.Screen,4_109_1,2023-09-15T21:57:05.061Z,,0,,,NaN,,,,,,false,,,,604807.200000003,604807,,604805.6000000089,,604821.984,8,400,,,
break_continue,html.Screen,4_109_2,2023-09-15T21:57:05.061Z,,0,,,NaN,,,,,,false,,,,604807.6000000089,604807.5,,604807.3000000119,,604821.984,8,400,,,
sequence,flow.Sequence,4_109,2023-09-15T21:57:05.061Z,,0,,,2518.7859999999637,completion,,,,,false,,,,604807.700000003,604807.5,602272.564,602282.400000006,602288.714,604821.984,8,400,,,
trial,html.Screen,4_110_0,2023-09-15T21:57:07.707Z,,0,3,,2631.316000011866,response,ISIC_0030657.JPG,10,ISIC_0031386.JPG,ISIC_0030657.JPG,false,1,keypress(m),500,607453.6000000089,607453.3000000119,604805.006,604807.8000000119,604821.984,607457.492,8,400,11,,ISIC_0031386.JPG
break,html.Screen,4_110_1,2023-09-15T21:57:07.709Z,,0,,,NaN,,,,,,false,,,,607454.8000000119,607454.6000000089,,607453.700000003,,607457.492,8,400,,,
break_continue,html.Screen,4_110_2,2023-09-15T21:57:07.709Z,,0,,,NaN,,,,,,false,,,,607455.1000000089,607455.1000000089,,607454.900000006,,607457.492,8,400,,,
sequence,flow.Sequence,4_110,2023-09-15T21:57:07.709Z,,0,,,2633.1160000088857,completion,,,,,false,,,,607455.200000003,607455.1000000089,604805.006,604807.8000000119,604821.984,607457.492,8,400,,,
trial,html.Screen,4_111_0,2023-09-15T21:57:10.286Z,,0,3,,2574.708000003011,response,ISIC_0011526.JPG,8,ISIC_0011763.JPG,ISIC_0011763.JPG,false,0,keypress(z),500,610032.5,610032.200000003,607438.686,607455.200000003,607457.492,610039.189,8,400,12,,ISIC_0011526.JPG
break,html.Screen,4_111_1,2023-09-15T21:57:10.289Z,,0,,,NaN,,,,,,false,,,,610035,610034.700000003,,610032.8000000119,,610039.189,8,400,,,
break_continue,html.Screen,4_111_2,2023-09-15T21:57:10.289Z,,0,,,NaN,,,,,,false,,,,610035.400000006,610035.3000000119,,610035.200000003,,610039.189,8,400,,,
sequence,flow.Sequence,4_111,2023-09-15T21:57:10.289Z,,0,,,2577.8080000119517,completion,,,,,false,,,,610035.5,610035.3000000119,607438.686,607455.200000003,607457.492,610039.189,8,400,,,
trial,html.Screen,4_112_0,2023-09-15T21:57:13.141Z,,0,3,,2847.4110000089277,response,ISIC_0012063.JPG,8,ISIC_0000056.JPG,ISIC_0000056.JPG,false,0,keypress(z),500,612886.8000000119,612886.6000000089,610022.116,610035.6000000089,610039.189,612891.529,8,400,13,,ISIC_0012063.JPG
break,html.Screen,4_112_1,2023-09-15T21:57:13.142Z,,0,,,NaN,,,,,,false,,,,612888.1000000089,612887.900000006,,612887,,612891.529,8,400,,,
break_continue,html.Screen,4_112_2,2023-09-15T21:57:13.142Z,,0,,,NaN,,,,,,false,,,,612888.400000006,612888.3000000119,,612888.200000003,,612891.529,8,400,,,
sequence,flow.Sequence,4_112,2023-09-15T21:57:13.142Z,,0,,,2849.111000011908,completion,,,,,false,,,,612888.5,612888.3000000119,610022.116,610035.6000000089,610039.189,612891.529,8,400,,,
trial,html.Screen,4_113_0,2023-09-15T21:57:17.151Z,,0,3,,4005.2710000119405,response,ISIC_0004486.JPG,2,ISIC_6384997.JPG,ISIC_0004486.JPG,false,1,keypress(m),500,616897,616896.8000000119,612871.671,612888.6000000089,612891.529,616905.188,8,400,14,,ISIC_6384997.JPG
break,html.Screen,4_113_1,2023-09-15T21:57:17.152Z,,0,,,NaN,,,,,,false,,,,616898.200000003,616898.1000000089,,616897.1000000089,,616905.188,8,400,,,
break_continue,html.Screen,4_113_2,2023-09-15T21:57:17.152Z,,0,,,NaN,,,,,,false,,,,616898.400000006,616898.400000006,,616898.3000000119,,616905.188,8,400,,,
sequence,flow.Sequence,4_113,2023-09-15T21:57:17.152Z,,0,,,4006.87100000598,completion,,,,,false,,,,616898.6000000089,616898.400000006,612871.671,612888.6000000089,612891.529,616905.188,8,400,,,
trial,html.Screen,4_114_0,2023-09-15T21:57:20.422Z,,0,3,,3262.212000005995,response,ISIC_1293743.JPG,2,ISIC_1843053.JPG,ISIC_1293743.JPG,false,1,keypress(m),500,620167.700000003,620167.400000006,616887.881,616898.700000003,616905.188,620173.044,8,400,15,,ISIC_1843053.JPG
break,html.Screen,4_114_1,2023-09-15T21:57:20.423Z,,0,,,NaN,,,,,,false,,,,620169.6000000089,620169.400000006,,620167.900000006,,620173.044,8,400,,,
break_continue,html.Screen,4_114_2,2023-09-15T21:57:20.424Z,,0,,,NaN,,,,,,false,,,,620169.900000006,620169.8000000119,,620169.700000003,,620173.044,8,400,,,
sequence,flow.Sequence,4_114,2023-09-15T21:57:20.424Z,,0,,,3264.6120000119554,completion,,,,,false,,,,620170,620169.8000000119,616887.881,616898.6000000089,616905.188,620173.044,8,400,,,
trial,html.Screen,4_115_0,2023-09-15T21:57:23.276Z,,0,3,,2848.4560000000056,response,ISIC_8629635.JPG,10,ISIC_0007619.JPG,ISIC_0007619.JPG,false,0,keypress(z),500,623021.700000003,623021.5,620154.497,620170.200000003,620173.044,623037.495,8,400,16,,ISIC_8629635.JPG
break,html.Screen,4_115_1,2023-09-15T21:57:23.277Z,,0,,,NaN,,,,,,false,,,,623023.400000006,623023.3000000119,,623022,,623037.495,8,400,,,
break_continue,html.Screen,4_115_2,2023-09-15T21:57:23.278Z,,0,,,NaN,,,,,,false,,,,623023.8000000119,623023.700000003,,623023.5,,623037.495,8,400,,,
sequence,flow.Sequence,4_115,2023-09-15T21:57:23.278Z,,0,,,2850.656000002986,completion,,,,,false,,,,623023.900000006,623023.700000003,620154.497,620170.1000000089,620173.044,623037.495,8,400,,,
trial,html.Screen,4_116_0,2023-09-15T21:57:25.890Z,,0,3,,2598.1050000089454,response,ISIC_0033068.JPG,8,ISIC_8943906.JPG,ISIC_8943906.JPG,false,0,keypress(z),500,625635.900000006,625635.6000000089,623021.535,623024,623037.495,625639.777,8,400,17,,ISIC_0033068.JPG
break,html.Screen,4_116_1,2023-09-15T21:57:25.891Z,,0,,,NaN,,,,,,false,,,,625637,625636.900000006,,625636,,625639.777,8,400,,,
break_continue,html.Screen,4_116_2,2023-09-15T21:57:25.891Z,,0,,,NaN,,,,,,false,,,,625637.3000000119,625637.200000003,,625637.1000000089,,625639.777,8,400,,,
sequence,flow.Sequence,4_116,2023-09-15T21:57:25.891Z,,0,,,2599.705000002985,completion,,,,,false,,,,625637.3000000119,625637.200000003,623021.535,623023.900000006,623037.495,625639.777,8,400,,,
trial,html.Screen,4_117_0,2023-09-15T21:57:28.487Z,,0,3,,2593.1230000059586,response,ISIC_8429798.JPG,8,ISIC_5449076.JPG,ISIC_5449076.JPG,false,0,keypress(z),500,628233.200000003,628232.900000006,625621.279,625637.5,625639.777,628237.882,8,400,18,,ISIC_8429798.JPG
break,html.Screen,4_117_1,2023-09-15T21:57:28.489Z,,0,,,NaN,,,,,,false,,,,628234.700000003,628234.6000000089,,628233.400000006,,628237.882,8,400,,,
break_continue,html.Screen,4_117_2,2023-09-15T21:57:28.489Z,,0,,,NaN,,,,,,false,,,,628235.1000000089,628235,,628234.900000006,,628237.882,8,400,,,
sequence,flow.Sequence,4_117,2023-09-15T21:57:28.489Z,,0,,,2595.222999999998,completion,,,,,false,,,,628235.1000000089,628235,625621.279,625637.400000006,625639.777,628237.882,8,400,,,
trial,html.Screen,4_118_0,2023-09-15T21:57:31.268Z,,0,3,,2776.318000002997,response,ISIC_4347535.JPG,6,ISIC_1961064.JPG,ISIC_1961064.JPG,false,0,keypress(z),500,631014.400000006,631014.200000003,628221.274,628235.200000003,628237.882,631024.405,8,400,19,,ISIC_4347535.JPG
break,html.Screen,4_118_1,2023-09-15T21:57:31.270Z,,0,,,NaN,,,,,,false,,,,631015.8000000119,631015.700000003,,631014.6000000089,,631024.405,8,400,,,
break_continue,html.Screen,4_118_2,2023-09-15T21:57:31.270Z,,0,,,NaN,,,,,,false,,,,631016.1000000089,631016,,631015.900000006,,631024.405,8,400,,,
sequence,flow.Sequence,4_118,2023-09-15T21:57:31.270Z,,0,,,2778.1180000000168,completion,,,,,false,,,,631016.200000003,631016,628221.274,628235.200000003,628237.882,631024.405,8,400,,,
trial,html.Screen,4_119_0,2023-09-15T21:57:34.011Z,,0,3,,2731.9950000059325,response,ISIC_0001057.JPG,8,ISIC_7942881.JPG,ISIC_0001057.JPG,false,1,keypress(m),500,633756.8000000119,633756.400000006,631004.275,631016.200000003,631024.405,633770.457,8,400,20,,ISIC_7942881.JPG
break,html.Screen,4_119_1,2023-09-15T21:57:34.013Z,,0,,,NaN,,,,,,false,,,,633758.700000003,633758.400000006,,633757.1000000089,,633770.457,8,400,,,
break_continue,html.Screen,4_119_2,2023-09-15T21:57:34.013Z,,0,,,NaN,,,,,,false,,,,633759.1000000089,633759.1000000089,,633758.900000006,,633770.457,8,400,,,
sequence,flow.Sequence,4_119,2023-09-15T21:57:34.013Z,,0,,,2734.6950000089128,completion,,,,,false,,,,633759.400000006,633759.1000000089,631004.275,631016.200000003,631024.405,633770.457,8,400,,,
trial,html.Screen,4_120_0,2023-09-15T21:57:36.677Z,,0,3,,2652.6430000088876,response,ISIC_0028075.JPG,10,ISIC_5393367.JPG,ISIC_5393367.JPG,false,0,keypress(z),500,636423.3000000119,636423.1000000089,633754.202,633759.5,633770.457,636436.997,8,400,21,,ISIC_0028075.JPG
break,html.Screen,4_120_1,2023-09-15T21:57:36.679Z,,0,,,NaN,,,,,,false,,,,636425.1000000089,636424.900000006,,636423.5,,636436.997,8,400,,,
break_continue,html.Screen,4_120_2,2023-09-15T21:57:36.679Z,,0,,,NaN,,,,,,false,,,,636425.400000006,636425.400000006,,636425.200000003,,636436.997,8,400,,,
sequence,flow.Sequence,4_120,2023-09-15T21:57:36.679Z,,0,,,2654.9430000059074,completion,,,,,false,,,,636425.5,636425.400000006,633754.202,633759.400000006,633770.457,636436.997,8,400,,,
trial,html.Screen,4_121_0,2023-09-15T21:57:39.294Z,,0,3,,2602.9030000059865,response,ISIC_0011077.JPG,10,ISIC_0027187.JPG,ISIC_0011077.JPG,false,1,keypress(m),500,639040.1000000089,639039.900000006,636420.404,636425.6000000089,636436.997,639054.047,8,400,22,,ISIC_0027187.JPG
break,html.Screen,4_121_1,2023-09-15T21:57:39.295Z,,0,,,NaN,,,,,,false,,,,639041.400000006,639041.200000003,,639040.3000000119,,639054.047,8,400,,,
break_continue,html.Screen,4_121_2,2023-09-15T21:57:39.296Z,,0,,,NaN,,,,,,false,,,,639041.700000003,639041.700000003,,639041.5,,639054.047,8,400,,,
sequence,flow.Sequence,4_121,2023-09-15T21:57:39.296Z,,0,,,2604.7030000030063,completion,,,,,false,,,,639041.8000000119,639041.700000003,636420.404,636425.6000000089,636436.997,639054.047,8,400,,,
trial,html.Screen,4_122_0,2023-09-15T21:57:41.897Z,,0,3,,2589.1530000029597,response,ISIC_0033061.JPG,21,ISIC_5495413.JPG,ISIC_5495413.JPG,false,0,keypress(z),500,641643.400000006,641643.200000003,639036.712,639041.900000006,639054.047,641653.253,8,400,23,,ISIC_0033061.JPG
break,html.Screen,4_122_1,2023-09-15T21:57:41.899Z,,0,,,NaN,,,,,,false,,,,641645.1000000089,641644.900000006,,641643.5,,641653.253,8,400,,,
break_continue,html.Screen,4_122_2,2023-09-15T21:57:41.899Z,,0,,,NaN,,,,,,false,,,,641645.5,641645.3000000119,,641645.200000003,,641653.253,8,400,,,
sequence,flow.Sequence,4_122,2023-09-15T21:57:41.899Z,,0,,,2591.2530000119004,completion,,,,,false,,,,641645.5,641645.3000000119,639036.712,639041.900000006,639054.047,641653.253,8,400,,,
trial,html.Screen,4_123_0,2023-09-15T21:57:44.498Z,,0,3,,2590.547000011895,response,ISIC_0011057.JPG,9,ISIC_0027561.JPG,ISIC_0011057.JPG,false,1,keypress(m),500,644244.1000000089,644243.8000000119,641636.717,641645.6000000089,641653.253,644254.249,8,400,24,,ISIC_0027561.JPG
break,html.Screen,4_123_1,2023-09-15T21:57:44.499Z,,0,,,NaN,,,,,,false,,,,644245.1000000089,644244.900000006,,644244.200000003,,644254.249,8,400,,,
break_continue,html.Screen,4_123_2,2023-09-15T21:57:44.499Z,,0,,,NaN,,,,,,false,,,,644245.3000000119,644245.200000003,,644245.1000000089,,644254.249,8,400,,,
sequence,flow.Sequence,4_123,2023-09-15T21:57:44.499Z,,0,,,2591.947000002954,completion,,,,,false,,,,644245.400000006,644245.200000003,641636.717,641645.6000000089,641653.253,644254.249,8,400,,,
trial,html.Screen,4_124_0,2023-09-15T21:57:47.022Z,,0,3,,2514.0510000119684,response,ISIC_0058926.JPG,13,ISIC_7189490.JPG,ISIC_7189490.JPG,false,0,keypress(z),500,646768.5,646768.3000000119,644236.647,644245.400000006,644254.249,646787.005,8,400,25,,ISIC_0058926.JPG
break,html.Screen,4_124_1,2023-09-15T21:57:47.024Z,,0,,,NaN,,,,,,false,,,,646770.200000003,646770,,646768.700000003,,646787.005,8,400,,,
break_continue,html.Screen,4_124_2,2023-09-15T21:57:47.024Z,,0,,,NaN,,,,,,false,,,,646770.5,646770.400000006,,646770.3000000119,,646787.005,8,400,,,
sequence,flow.Sequence,4_124,2023-09-15T21:57:47.024Z,,0,,,2516.151000006008,completion,,,,,false,,,,646770.5,646770.400000006,644236.647,644245.400000006,644254.249,646787.005,8,400,,,
trial,html.Screen,4_125_0,2023-09-15T21:57:50.082Z,,0,3,,3040.395000005956,response,ISIC_2752919.JPG,12,ISIC_0012183.JPG,ISIC_0012183.JPG,false,0,keypress(z),500,649827.700000003,649827.400000006,646753.229,646770.700000003,646787.005,649838.154,8,400,26,,ISIC_2752919.JPG
break,html.Screen,4_125_1,2023-09-15T21:57:50.083Z,,0,,,NaN,,,,,,false,,,,649829.1000000089,649829,,649827.900000006,,649838.154,8,400,,,
break_continue,html.Screen,4_125_2,2023-09-15T21:57:50.083Z,,0,,,NaN,,,,,,false,,,,649829.400000006,649829.3000000119,,649829.200000003,,649838.154,8,400,,,
sequence,flow.Sequence,4_125,2023-09-15T21:57:50.083Z,,0,,,3042.2950000119163,completion,,,,,false,,,,649829.400000006,649829.3000000119,646753.229,646770.700000003,646787.005,649838.154,8,400,,,
