sender,sender_type,sender_id,timestamp,meta,,blockNo,condition,duration,ended_on,img_left,img_reveal,img_right,loser,practice,response,response_action,selection_duration,time_commit,time_end,time_render,time_run,time_show,time_switch,total_blocks,total_trials,trialNo,url,winner
informed_consent,html.Screen,0,2023-11-01T18:10:04.182Z,"{""labjs_version"":""20.2.4"",""labjs_build"":{""flavor"":""production"",""commit"":""f5b4a49f956347addd546a832a3327688c2c0fef""},""location"":""https://run.pavlovia.org/MurrayBennett/melanoma-2afc/?participant=66914&platform=sona"",""userAgent"":""Mozilla/5.0 (Windows NT 10.0; Win64; x64) AppleWebKit/537.36 (KHTML, like Gecko) Chrome/118.0.0.0 Safari/537.36"",""platform"":""Win32"",""language"":""en-US"",""locale"":""en-US"",""timeZone"":""America/Chicago"",""timezoneOffset"":300,""screen_width"":1368,""screen_height"":912,""scroll_width"":1368,""scroll_height"":747,""window_innerWidth"":1368,""window_innerHeight"":795,""devicePixelRatio"":2}",,,,15240.98600000596,response,,,,,,consent,click button,,19633.40000000596,19623.40000000596,4365.73,4369.70000000298,4382.414,19726.356,,,,"{""participant"":""66914"",""platform"":""sona""}",
Welcome,html.Screen,1,2023-11-01T18:10:50.263Z,,,,symmetry,45981.74400000894,response,,,,,,continue,click button,,65710.90000000596,65708.10000000894,19626.278,19634.60000000894,19726.356,65741.195,,,,,
trial,html.Screen,2_0_0,2023-11-01T18:10:54.933Z,,0,0,,4639.505000002973,response,ISIC_6997061.JPG,,ISIC_0069348.JPG,ISIC_0069348.JPG,true,0,keypress(z),500,70381.20000000298,70380.70000000298,65724.573,65711.5,65741.195,70394.648,1,6,1,,ISIC_6997061.JPG
sequence,flow.Sequence,2_0,2023-11-01T18:10:54.934Z,,0,,,4639.505000002973,completion,,,,,true,,,,70381.90000000596,70380.70000000298,65724.573,65711.40000000596,65741.195,70394.648,1,6,,,
trial,html.Screen,2_1_0,2023-11-01T18:10:58.768Z,,0,0,,3819.9520000089396,response,ISIC_0009529.JPG,,ISIC_0057368.JPG,ISIC_0057368.JPG,true,0,keypress(z),500,74215.40000000596,74214.60000000894,70377.953,70382.20000000298,70394.648,74230.616,1,6,2,,ISIC_0009529.JPG
sequence,flow.Sequence,2_1,2023-11-01T18:10:58.768Z,,0,,,3819.9520000089396,completion,,,,,true,,,,74216.10000000894,74214.60000000894,70377.953,70382.20000000298,70394.648,74230.616,1,6,,,
trial,html.Screen,2_2_0,2023-11-01T18:11:03.721Z,,0,0,,4937.683999997025,response,ISIC_9758671.JPG,,ISIC_0064954.JPG,ISIC_9758671.JPG,true,1,keypress(m),500,79168.79999999702,79168.29999999702,74213.914,74216.5,74230.616,79183.784,1,6,3,,ISIC_0064954.JPG
sequence,flow.Sequence,2_2,2023-11-01T18:11:03.722Z,,0,,,4937.683999997025,completion,,,,,true,,,,79169.40000000596,79168.29999999702,74213.914,74216.29999999702,74230.616,79183.784,1,6,,,
trial,html.Screen,2_3_0,2023-11-01T18:11:07.540Z,,0,0,,3804.01599999702,response,ISIC_0000080.JPG,,ISIC_0005785.JPG,ISIC_0005785.JPG,true,0,keypress(z),500,82988.29999999702,82987.79999999702,79167.253,79169.79999999702,79183.784,83003.053,1,6,4,,ISIC_0000080.JPG
sequence,flow.Sequence,2_3,2023-11-01T18:11:07.541Z,,0,,,3804.01599999702,completion,,,,,true,,,,82989,82987.79999999702,79167.253,79169.60000000894,79183.784,83003.053,1,6,,,
trial,html.Screen,2_4_0,2023-11-01T18:11:10.798Z,,0,0,,3242.447,response,ISIC_7944028.JPG,,ISIC_5390060.JPG,ISIC_5390060.JPG,true,0,keypress(z),500,86246,86245.5,82986.379,82989.40000000596,83003.053,86255.269,1,6,5,,ISIC_7944028.JPG
sequence,flow.Sequence,2_4,2023-11-01T18:11:10.799Z,,0,,,3242.447,completion,,,,,true,,,,86246.60000000894,86245.5,82986.379,82989.20000000298,83003.053,86255.269,1,6,,,
trial,html.Screen,2_5_0,2023-11-01T18:11:13.721Z,,0,0,,2913.43100000298,response,ISIC_0010188.JPG,,ISIC_0794216.JPG,ISIC_0010188.JPG,true,1,keypress(m),500,89169.20000000298,89168.70000000298,86238.836,86246.90000000596,86255.269,89173.957,1,6,6,,ISIC_0794216.JPG
sequence,flow.Sequence,2_5,2023-11-01T18:11:13.722Z,,0,,,2913.43100000298,completion,,,,,true,,,,89169.90000000596,89168.70000000298,86238.836,86246.90000000596,86255.269,89173.957,1,6,,,
loop,flow.Loop,2,2023-11-01T18:11:13.722Z,,,,,23427.505000002973,completion,,,,,true,,,,89170.29999999702,89168.70000000298,65724.573,65711.40000000596,65741.195,89173.957,1,6,,,
exp_instructions,html.Screen,3,2023-11-01T18:11:35.484Z,,,,,21757.043000000005,response,,,,,,continue,keypress(Space),,110932.10000000894,110931,89157.534,89170.40000000596,89173.957,110938.804,,,,,
trial,html.Screen,4_0_0,2023-11-01T18:11:40.525Z,,0,1,,5033.695999999996,response,ISIC_4411889.JPG,5,ISIC_3181358.JPG,ISIC_4411889.JPG,false,1,keypress(m),500,115972.90000000596,115972.5,110922.097,110932.60000000894,110938.804,115975.666,8,400,1,,ISIC_3181358.JPG
break,html.Screen,4_0_1,2023-11-01T18:11:40.527Z,,0,,,NaN,,,,,,false,,,,115975,115974.5,,115973.29999999702,,115975.666,8,400,,,
break_continue,html.Screen,4_0_2,2023-11-01T18:11:40.528Z,,0,,,NaN,,,,,,false,,,,115976.29999999702,115975.60000000894,,115975.20000000298,,115975.666,8,400,,,
sequence,flow.Sequence,4_0,2023-11-01T18:11:40.529Z,,0,,,5036.796000008937,completion,,,,,false,,,,115976.70000000298,115975.60000000894,110922.097,110932.5,110938.804,115975.666,8,400,,,
trial,html.Screen,4_1_0,2023-11-01T18:11:46.873Z,,0,1,,6344.734000005963,response,ISIC_3617159.JPG,13,ISIC_9593940.JPG,ISIC_3617159.JPG,false,1,keypress(m),500,122321.10000000894,122320.40000000596,115958.957,115977,115975.666,122330.046,8,400,2,,ISIC_9593940.JPG
break,html.Screen,4_1_1,2023-11-01T18:11:46.876Z,,0,,,NaN,,,,,,false,,,,122323.40000000596,122322.90000000596,,122321.70000000298,,122330.046,8,400,,,
break_continue,html.Screen,4_1_2,2023-11-01T18:11:46.876Z,,0,,,NaN,,,,,,false,,,,122324.10000000894,122323.90000000596,,122323.60000000894,,122330.046,8,400,,,
sequence,flow.Sequence,4_1,2023-11-01T18:11:46.877Z,,0,,,6348.234000005963,completion,,,,,false,,,,122324.5,122323.90000000596,115958.957,115976.90000000596,115975.666,122330.046,8,400,,,
trial,html.Screen,4_2_0,2023-11-01T18:11:51.954Z,,0,1,,5071.453999999998,response,ISIC_0046441.JPG,9,ISIC_0014366.JPG,ISIC_0014366.JPG,false,0,keypress(z),500,127402,127401.5,122313.591,122324.79999999702,122330.046,127416.828,8,400,3,,ISIC_0046441.JPG
break,html.Screen,4_2_1,2023-11-01T18:11:51.956Z,,0,,,NaN,,,,,,false,,,,127403.60000000894,127403.29999999702,,127402.20000000298,,127416.828,8,400,,,
break_continue,html.Screen,4_2_2,2023-11-01T18:11:51.957Z,,0,,,NaN,,,,,,false,,,,127404.29999999702,127404.10000000894,,127403.90000000596,,127416.828,8,400,,,
sequence,flow.Sequence,4_2,2023-11-01T18:11:51.957Z,,0,,,5074.054000008939,completion,,,,,false,,,,127404.60000000894,127404.10000000894,122313.591,122324.70000000298,122330.046,127416.828,8,400,,,
trial,html.Screen,4_3_0,2023-11-01T18:11:55.939Z,,0,1,,3969.172000000006,response,ISIC_9593940.JPG,10,ISIC_8986997.JPG,ISIC_9593940.JPG,false,1,keypress(m),500,131386.5,131386,127400.341,127404.79999999702,127416.828,131402.974,8,400,4,,ISIC_8986997.JPG
break,html.Screen,4_3_1,2023-11-01T18:11:55.941Z,,0,,,NaN,,,,,,false,,,,131388,131387.79999999702,,131386.79999999702,,131402.974,8,400,,,
break_continue,html.Screen,4_3_2,2023-11-01T18:11:55.941Z,,0,,,NaN,,,,,,false,,,,131388.70000000298,131388.40000000596,,131388.29999999702,,131402.974,8,400,,,
sequence,flow.Sequence,4_3,2023-11-01T18:11:55.941Z,,0,,,3971.5720000059664,completion,,,,,false,,,,131389,131388.40000000596,127400.341,127404.79999999702,127416.828,131402.974,8,400,,,
trial,html.Screen,4_4_0,2023-11-01T18:11:59.641Z,,0,1,,3684.6260000089533,response,ISIC_0053760.JPG,9,ISIC_0057307.JPG,ISIC_0057307.JPG,false,0,keypress(z),500,135088.10000000894,135087.60000000894,131386.511,131389.10000000894,131402.974,135105.456,8,400,5,,ISIC_0053760.JPG
break,html.Screen,4_4_1,2023-11-01T18:11:59.643Z,,0,,,NaN,,,,,,false,,,,135090.29999999702,135089.70000000298,,135088.5,,135105.456,8,400,,,
break_continue,html.Screen,4_4_2,2023-11-01T18:11:59.644Z,,0,,,NaN,,,,,,false,,,,135091.60000000894,135091.20000000298,,135090.79999999702,,135105.456,8,400,,,
sequence,flow.Sequence,4_4,2023-11-01T18:11:59.645Z,,0,,,3688.226000002993,completion,,,,,false,,,,135092.10000000894,135091.20000000298,131386.511,131389.10000000894,131402.974,135105.456,8,400,,,
trial,html.Screen,4_5_0,2023-11-01T18:12:02.695Z,,0,1,,3036.343999997014,response,ISIC_0071434.JPG,12,ISIC_2509304.JPG,ISIC_0071434.JPG,false,1,keypress(m),500,138142.20000000298,138141.79999999702,135088.812,135092.40000000596,135105.456,138157.521,8,400,6,,ISIC_2509304.JPG
break,html.Screen,4_5_1,2023-11-01T18:12:02.697Z,,0,,,NaN,,,,,,false,,,,138144.10000000894,138143.70000000298,,138142.60000000894,,138157.521,8,400,,,
break_continue,html.Screen,4_5_2,2023-11-01T18:12:02.697Z,,0,,,NaN,,,,,,false,,,,138144.79999999702,138144.70000000298,,138144.40000000596,,138157.521,8,400,,,
sequence,flow.Sequence,4_5,2023-11-01T18:12:02.698Z,,0,,,3039.2440000029746,completion,,,,,false,,,,138145.20000000298,138144.70000000298,135088.812,135092.29999999702,135105.456,138157.521,8,400,,,
trial,html.Screen,4_6_0,2023-11-01T18:12:06.676Z,,0,1,,3965.1790000029723,response,ISIC_0028366.JPG,6,ISIC_1023354.JPG,ISIC_0028366.JPG,false,1,keypress(m),500,142123.29999999702,142122.70000000298,138141.149,138145.5,138157.521,142126.885,8,400,7,,ISIC_1023354.JPG
break,html.Screen,4_6_1,2023-11-01T18:12:06.678Z,,0,,,NaN,,,,,,false,,,,142125.60000000894,142125.10000000894,,142123.90000000596,,142126.885,8,400,,,
break_continue,html.Screen,4_6_2,2023-11-01T18:12:06.679Z,,0,,,NaN,,,,,,false,,,,142126.60000000894,142126.20000000298,,142125.90000000596,,142126.885,8,400,,,
sequence,flow.Sequence,4_6,2023-11-01T18:12:06.680Z,,0,,,3968.6790000029723,completion,,,,,false,,,,142127.5,142126.20000000298,138141.149,138145.40000000596,138157.521,142126.885,8,400,,,
trial,html.Screen,4_7_0,2023-11-01T18:12:10.612Z,,0,1,,3932.015000005951,response,ISIC_0012164.JPG,15,ISIC_5994645.JPG,ISIC_0012164.JPG,false,1,keypress(m),500,146059.29999999702,146058.90000000596,142110.459,142127.90000000596,142126.885,146062.949,8,400,8,,ISIC_5994645.JPG
break,html.Screen,4_7_1,2023-11-01T18:12:10.614Z,,0,,,NaN,,,,,,false,,,,146060.90000000596,146060.60000000894,,146059.60000000894,,146062.949,8,400,,,
break_continue,html.Screen,4_7_2,2023-11-01T18:12:10.614Z,,0,,,NaN,,,,,,false,,,,146061.60000000894,146061.40000000596,,146061.20000000298,,146062.949,8,400,,,
sequence,flow.Sequence,4_7,2023-11-01T18:12:10.614Z,,0,,,3934.515000005951,completion,,,,,false,,,,146061.90000000596,146061.40000000596,142110.459,142127.70000000298,142126.885,146062.949,8,400,,,
trial,html.Screen,4_8_0,2023-11-01T18:12:14.498Z,,0,1,,3882.451000005967,response,ISIC_0472513.JPG,10,ISIC_0010156.JPG,ISIC_0010156.JPG,false,0,keypress(z),500,149945.70000000298,149945.40000000596,146046.423,146062.10000000894,146062.949,149948.984,8,400,9,,ISIC_0472513.JPG
break,html.Screen,4_8_1,2023-11-01T18:12:14.500Z,,0,,,NaN,,,,,,false,,,,149947.29999999702,149946.90000000596,,149946.10000000894,,149948.984,8,400,,,
break_continue,html.Screen,4_8_2,2023-11-01T18:12:14.501Z,,0,,,NaN,,,,,,false,,,,149947.90000000596,149947.79999999702,,149947.5,,149948.984,8,400,,,
sequence,flow.Sequence,4_8,2023-11-01T18:12:14.501Z,,0,,,3884.8509999970265,completion,,,,,false,,,,149948.20000000298,149947.79999999702,146046.423,146062.10000000894,146062.949,149948.984,8,400,,,
trial,html.Screen,4_9_0,2023-11-01T18:12:18.256Z,,0,1,,3753.2160000029835,response,ISIC_0014525.JPG,8,ISIC_0030641.JPG,ISIC_0014525.JPG,false,1,keypress(m),500,153703,153702.20000000298,149932.499,149948.5,149948.984,153718.178,8,400,10,,ISIC_0030641.JPG
break,html.Screen,4_9_1,2023-11-01T18:12:18.257Z,,0,,,NaN,,,,,,false,,,,153704.90000000596,153704.40000000596,,153703.5,,153718.178,8,400,,,
break_continue,html.Screen,4_9_2,2023-11-01T18:12:18.258Z,,0,,,NaN,,,,,,false,,,,153705.5,153705.40000000596,,153705.10000000894,,153718.178,8,400,,,
sequence,flow.Sequence,4_9,2023-11-01T18:12:18.258Z,,0,,,3756.4160000059637,completion,,,,,false,,,,153705.90000000596,153705.40000000596,149932.499,149948.5,149948.984,153718.178,8,400,,,
trial,html.Screen,4_10_0,2023-11-01T18:12:21.965Z,,0,1,,3693.4220000089263,response,ISIC_0056246.JPG,11,ISIC_4354896.JPG,ISIC_4354896.JPG,false,0,keypress(z),500,157412.20000000298,157411.60000000894,153701.524,153706.10000000894,153718.178,157420.741,8,400,11,,ISIC_0056246.JPG
break,html.Screen,4_10_1,2023-11-01T18:12:21.966Z,,0,,,NaN,,,,,,false,,,,157413.79999999702,157413.5,,157412.60000000894,,157420.741,8,400,,,
break_continue,html.Screen,4_10_2,2023-11-01T18:12:21.967Z,,0,,,NaN,,,,,,false,,,,157414.40000000596,157414.29999999702,,157414,,157420.741,8,400,,,
sequence,flow.Sequence,4_10,2023-11-01T18:12:21.967Z,,0,,,3696.1219999970053,completion,,,,,false,,,,157414.79999999702,157414.29999999702,153701.524,153706,153718.178,157420.741,8,400,,,
trial,html.Screen,4_11_0,2023-11-01T18:12:26.600Z,,0,1,,4626.359000008932,response,ISIC_5152859.JPG,8,ISIC_3786438.JPG,ISIC_3786438.JPG,false,0,keypress(z),500,162047.5,162047.10000000894,157404.232,157415,157420.741,162057.265,8,400,12,,ISIC_5152859.JPG
break,html.Screen,4_11_1,2023-11-01T18:12:26.602Z,,0,,,NaN,,,,,,false,,,,162049,162048.79999999702,,162047.90000000596,,162057.265,8,400,,,
break_continue,html.Screen,4_11_2,2023-11-01T18:12:26.602Z,,0,,,NaN,,,,,,false,,,,162049.79999999702,162049.5,,162049.29999999702,,162057.265,8,400,,,
sequence,flow.Sequence,4_11,2023-11-01T18:12:26.603Z,,0,,,4628.758999999991,completion,,,,,false,,,,162050,162049.5,157404.232,157415,157420.741,162057.265,8,400,,,
trial,html.Screen,4_12_0,2023-11-01T18:12:30.370Z,,0,1,,3760.034999997006,response,ISIC_0013736.JPG,15,ISIC_7452410.JPG,ISIC_7452410.JPG,false,0,keypress(z),500,165817.60000000894,165817.29999999702,162040.77,162050.29999999702,162057.265,165826.5,8,400,13,,ISIC_0013736.JPG
break,html.Screen,4_12_1,2023-11-01T18:12:30.372Z,,0,,,NaN,,,,,,false,,,,165819.20000000298,165818.90000000596,,165818,,165826.5,8,400,,,
break_continue,html.Screen,4_12_2,2023-11-01T18:12:30.372Z,,0,,,NaN,,,,,,false,,,,165819.90000000596,165819.70000000298,,165819.40000000596,,165826.5,8,400,,,
sequence,flow.Sequence,4_12,2023-11-01T18:12:30.373Z,,0,,,3762.4350000029663,completion,,,,,false,,,,165820.20000000298,165819.70000000298,162040.77,162050.20000000298,162057.265,165826.5,8,400,,,
trial,html.Screen,4_13_0,2023-11-01T18:12:35.083Z,,0,1,,4703.9000000059605,response,ISIC_0363130.JPG,7,ISIC_0026516.JPG,ISIC_0026516.JPG,false,0,keypress(z),500,170530.79999999702,170530.40000000596,165809.844,165820.40000000596,165826.5,170546.603,8,400,14,,ISIC_0363130.JPG
break,html.Screen,4_13_1,2023-11-01T18:12:35.085Z,,0,,,NaN,,,,,,false,,,,170532.70000000298,170532.40000000596,,170531.20000000298,,170546.603,8,400,,,
break_continue,html.Screen,4_13_2,2023-11-01T18:12:35.086Z,,0,,,NaN,,,,,,false,,,,170533.29999999702,170533.20000000298,,170533,,170546.603,8,400,,,
sequence,flow.Sequence,4_13,2023-11-01T18:12:35.086Z,,0,,,4706.70000000298,completion,,,,,false,,,,170533.70000000298,170533.20000000298,165809.844,165820.40000000596,165826.5,170546.603,8,400,,,
trial,html.Screen,4_14_0,2023-11-01T18:12:38.930Z,,0,1,,3830.7970000059577,response,ISIC_0528044.JPG,6,ISIC_2244564.JPG,ISIC_2244564.JPG,false,0,keypress(z),500,174377.79999999702,174377.40000000596,170529.947,170533.90000000596,170546.603,174382.367,8,400,15,,ISIC_0528044.JPG
break,html.Screen,4_14_1,2023-11-01T18:12:38.932Z,,0,,,NaN,,,,,,false,,,,174379.5,174379.20000000298,,174378.29999999702,,174382.367,8,400,,,
break_continue,html.Screen,4_14_2,2023-11-01T18:12:38.933Z,,0,,,NaN,,,,,,false,,,,174380.20000000298,174380,,174379.79999999702,,174382.367,8,400,,,
sequence,flow.Sequence,4_14,2023-11-01T18:12:38.933Z,,0,,,3833.396999999997,completion,,,,,false,,,,174380.5,174380,170529.947,170533.90000000596,170546.603,174382.367,8,400,,,
trial,html.Screen,4_15_0,2023-11-01T18:12:42.528Z,,0,1,,3592.9329999970214,response,ISIC_0063191.JPG,9,ISIC_0011132.JPG,ISIC_0063191.JPG,false,1,keypress(m),500,177975.70000000298,177975.29999999702,174365.936,174380.70000000298,174382.367,177984.857,8,400,16,,ISIC_0011132.JPG
break,html.Screen,4_15_1,2023-11-01T18:12:42.530Z,,0,,,NaN,,,,,,false,,,,177977.29999999702,177976.90000000596,,177976,,177984.857,8,400,,,
break_continue,html.Screen,4_15_2,2023-11-01T18:12:42.532Z,,0,,,NaN,,,,,,false,,,,177979.79999999702,177979.5,,177979.20000000298,,177984.857,8,400,,,
sequence,flow.Sequence,4_15,2023-11-01T18:12:42.533Z,,0,,,3597.1330000000016,completion,,,,,false,,,,177980.10000000894,177979.5,174365.936,174380.70000000298,174382.367,177984.857,8,400,,,
trial,html.Screen,4_16_0,2023-11-01T18:12:45.967Z,,0,1,,3429.343000002991,response,ISIC_0070313.JPG,9,ISIC_0011779.JPG,ISIC_0070313.JPG,false,1,keypress(m),500,181414.5,181414.20000000298,177968.415,177980.29999999702,177984.857,181420.558,8,400,17,,ISIC_0011779.JPG
break,html.Screen,4_16_1,2023-11-01T18:12:45.969Z,,0,,,NaN,,,,,,false,,,,181416,181415.70000000298,,181414.79999999702,,181420.558,8,400,,,
break_continue,html.Screen,4_16_2,2023-11-01T18:12:45.969Z,,0,,,NaN,,,,,,false,,,,181416.70000000298,181416.5,,181416.29999999702,,181420.558,8,400,,,
sequence,flow.Sequence,4_16,2023-11-01T18:12:45.970Z,,0,,,3431.643000000011,completion,,,,,false,,,,181417,181416.5,177968.415,177980.20000000298,177984.857,181420.558,8,400,,,
trial,html.Screen,4_17_0,2023-11-01T18:12:50.220Z,,0,1,,4247.042000008951,response,ISIC_8671702.JPG,8,ISIC_5736979.JPG,ISIC_8671702.JPG,false,1,keypress(m),500,185668,185667.60000000894,181403.84,181417.10000000894,181420.558,185673.476,8,400,18,,ISIC_5736979.JPG
break,html.Screen,4_17_1,2023-11-01T18:12:50.222Z,,0,,,NaN,,,,,,false,,,,185669.90000000596,185669.5,,185668.40000000596,,185673.476,8,400,,,
break_continue,html.Screen,4_17_2,2023-11-01T18:12:50.223Z,,0,,,NaN,,,,,,false,,,,185670.70000000298,185670.5,,185670.20000000298,,185673.476,8,400,,,
sequence,flow.Sequence,4_17,2023-11-01T18:12:50.223Z,,0,,,4249.94200000001,completion,,,,,false,,,,185671.10000000894,185670.5,181403.84,181417.10000000894,181420.558,185673.476,8,400,,,
trial,html.Screen,4_18_0,2023-11-01T18:12:55.084Z,,0,1,,4857.823999997025,response,ISIC_0059357.JPG,8,ISIC_9106601.JPG,ISIC_9106601.JPG,false,0,keypress(z),500,190531.79999999702,190531.29999999702,185656.967,185671.40000000596,185673.476,190543.469,8,400,19,,ISIC_0059357.JPG
break,html.Screen,4_18_1,2023-11-01T18:12:55.086Z,,0,,,NaN,,,,,,false,,,,190533.5,190533.20000000298,,190532.10000000894,,190543.469,8,400,,,
break_continue,html.Screen,4_18_2,2023-11-01T18:12:55.087Z,,0,,,NaN,,,,,,false,,,,190534.10000000894,190533.90000000596,,190533.70000000298,,190543.469,8,400,,,
sequence,flow.Sequence,4_18,2023-11-01T18:12:55.087Z,,0,,,4860.424000005965,completion,,,,,false,,,,190534.40000000596,190533.90000000596,185656.967,185671.29999999702,185673.476,190543.469,8,400,,,
trial,html.Screen,4_19_0,2023-11-01T18:13:00.129Z,,0,1,,5033.131000008929,response,ISIC_8249565.JPG,8,ISIC_3897960.JPG,ISIC_3897960.JPG,false,0,keypress(z),500,195577,195576.60000000894,190527.098,190534.70000000298,190543.469,195596.866,8,400,20,,ISIC_8249565.JPG
break,html.Screen,4_19_1,2023-11-01T18:13:00.131Z,,0,,,NaN,,,,,,false,,,,195578.20000000298,195578,,195577.40000000596,,195596.866,8,400,,,
break_continue,html.Screen,4_19_2,2023-11-01T18:13:00.131Z,,0,,,NaN,,,,,,false,,,,195578.79999999702,195578.70000000298,,195578.40000000596,,195596.866,8,400,,,
sequence,flow.Sequence,4_19,2023-11-01T18:13:00.131Z,,0,,,5035.231000002968,completion,,,,,false,,,,195579,195578.70000000298,190527.098,190534.60000000894,190543.469,195596.866,8,400,,,
trial,html.Screen,4_20_0,2023-11-01T18:13:04.408Z,,0,1,,4258.234000008932,response,ISIC_0001121.JPG,14,ISIC_9572761.JPG,ISIC_0001121.JPG,false,1,keypress(m),500,199855.40000000596,199855.10000000894,195580.226,195579.29999999702,195596.866,199866.501,8,400,21,,ISIC_9572761.JPG
break,html.Screen,4_20_1,2023-11-01T18:13:04.409Z,,0,,,NaN,,,,,,false,,,,199857.10000000894,199856.70000000298,,199855.79999999702,,199866.501,8,400,,,
break_continue,html.Screen,4_20_2,2023-11-01T18:13:04.410Z,,0,,,NaN,,,,,,false,,,,199857.70000000298,199857.5,,199857.29999999702,,199866.501,8,400,,,
sequence,flow.Sequence,4_20,2023-11-01T18:13:04.410Z,,0,,,4260.633999999991,completion,,,,,false,,,,199858,199857.5,195580.226,195579.29999999702,195596.866,199866.501,8,400,,,
trial,html.Screen,4_21_0,2023-11-01T18:13:07.780Z,,0,1,,3360.5990000089514,response,ISIC_4640181.JPG,9,ISIC_8618835.JPG,ISIC_4640181.JPG,false,1,keypress(m),500,203227.5,203227.10000000894,199850.158,199858.29999999702,199866.501,203235.53,8,400,22,,ISIC_8618835.JPG
break,html.Screen,4_21_1,2023-11-01T18:13:07.782Z,,0,,,NaN,,,,,,false,,,,203229.10000000894,203228.79999999702,,203227.90000000596,,203235.53,8,400,,,
break_continue,html.Screen,4_21_2,2023-11-01T18:13:07.782Z,,0,,,NaN,,,,,,false,,,,203229.79999999702,203229.5,,203229.29999999702,,203235.53,8,400,,,
sequence,flow.Sequence,4_21,2023-11-01T18:13:07.783Z,,0,,,3362.9990000000107,completion,,,,,false,,,,203230.20000000298,203229.5,199850.158,199858.29999999702,199866.501,203235.53,8,400,,,
trial,html.Screen,4_22_0,2023-11-01T18:13:11.232Z,,0,1,,3443.470000000001,response,ISIC_0015167.JPG,14,ISIC_0032079.JPG,ISIC_0032079.JPG,false,0,keypress(z),500,206679.70000000298,206679,203218.977,203230.60000000894,203235.53,206687.871,8,400,23,,ISIC_0015167.JPG
break,html.Screen,4_22_1,2023-11-01T18:13:11.234Z,,0,,,NaN,,,,,,false,,,,206681.5,206681.10000000894,,206680.20000000298,,206687.871,8,400,,,
break_continue,html.Screen,4_22_2,2023-11-01T18:13:11.235Z,,0,,,NaN,,,,,,false,,,,206682.20000000298,206682,,206681.70000000298,,206687.871,8,400,,,
sequence,flow.Sequence,4_22,2023-11-01T18:13:11.235Z,,0,,,3446.470000000001,completion,,,,,false,,,,206682.5,206682,203218.977,203230.60000000894,203235.53,206687.871,8,400,,,
trial,html.Screen,4_23_0,2023-11-01T18:13:15.289Z,,0,1,,4048.428999997006,response,ISIC_0033584.JPG,13,ISIC_6427157.JPG,ISIC_0033584.JPG,false,1,keypress(m),500,210736.70000000298,210736.29999999702,206671.241,206682.70000000298,206687.871,210740.629,8,400,24,,ISIC_6427157.JPG
break,html.Screen,4_23_1,2023-11-01T18:13:15.291Z,,0,,,NaN,,,,,,false,,,,210738.20000000298,210737.90000000596,,210736.90000000596,,210740.629,8,400,,,
break_continue,html.Screen,4_23_2,2023-11-01T18:13:15.291Z,,0,,,NaN,,,,,,false,,,,210739,210738.70000000298,,210738.40000000596,,210740.629,8,400,,,
sequence,flow.Sequence,4_23,2023-11-01T18:13:15.292Z,,0,,,4050.8290000029665,completion,,,,,false,,,,210739.20000000298,210738.70000000298,206671.241,206682.60000000894,206687.871,210740.629,8,400,,,
trial,html.Screen,4_24_0,2023-11-01T18:13:18.740Z,,0,1,,3446.571000002994,response,ISIC_0064517.JPG,8,ISIC_0033206.JPG,ISIC_0064517.JPG,false,1,keypress(m),500,214187.70000000298,214187.20000000298,210723.924,210739.40000000596,210740.629,214192.985,8,400,25,,ISIC_0033206.JPG
break,html.Screen,4_24_1,2023-11-01T18:13:18.742Z,,0,,,NaN,,,,,,false,,,,214189.5,214189.10000000894,,214188,,214192.985,8,400,,,
break_continue,html.Screen,4_24_2,2023-11-01T18:13:18.743Z,,0,,,NaN,,,,,,false,,,,214190.20000000298,214190.10000000894,,214189.79999999702,,214192.985,8,400,,,
sequence,flow.Sequence,4_24,2023-11-01T18:13:18.743Z,,0,,,3449.4710000089544,completion,,,,,false,,,,214190.70000000298,214190.10000000894,210723.924,210739.29999999702,210740.629,214192.985,8,400,,,
trial,html.Screen,4_25_0,2023-11-01T18:13:21.780Z,,0,1,,3034.6150000089547,response,ISIC_0056089.JPG,15,ISIC_0026516.JPG,ISIC_0056089.JPG,false,1,keypress(m),500,217228,217227.60000000894,214176.348,214190.90000000596,214192.985,217245.368,8,400,26,,ISIC_0026516.JPG
break,html.Screen,4_25_1,2023-11-01T18:13:21.782Z,,0,,,NaN,,,,,,false,,,,217229.79999999702,217229.40000000596,,217228.40000000596,,217245.368,8,400,,,
break_continue,html.Screen,4_25_2,2023-11-01T18:13:21.783Z,,0,,,NaN,,,,,,false,,,,217230.5,217230.20000000298,,217230,,217245.368,8,400,,,
sequence,flow.Sequence,4_25,2023-11-01T18:13:21.783Z,,0,,,3037.215000002994,completion,,,,,false,,,,217230.79999999702,217230.20000000298,214176.348,214190.79999999702,214192.985,217245.368,8,400,,,
trial,html.Screen,4_26_0,2023-11-01T18:13:24.899Z,,0,1,,3100.8320000029926,response,ISIC_3481133.JPG,13,ISIC_0058625.JPG,ISIC_0058625.JPG,false,0,keypress(z),500,220346.60000000894,220346.20000000298,217228.667,217231,217245.368,220363.949,8,400,27,,ISIC_3481133.JPG
break,html.Screen,4_26_1,2023-11-01T18:13:24.901Z,,0,,,NaN,,,,,,false,,,,220348.20000000298,220347.90000000596,,220346.90000000596,,220363.949,8,400,,,
break_continue,html.Screen,4_26_2,2023-11-01T18:13:24.901Z,,0,,,NaN,,,,,,false,,,,220348.79999999702,220348.70000000298,,220348.40000000596,,220363.949,8,400,,,
sequence,flow.Sequence,4_26,2023-11-01T18:13:24.902Z,,0,,,3103.3320000029926,completion,,,,,false,,,,220349.20000000298,220348.70000000298,217228.667,217230.90000000596,217245.368,220363.949,8,400,,,
trial,html.Screen,4_27_0,2023-11-01T18:13:28.240Z,,0,1,,3323.251000002987,response,ISIC_3313701.JPG,7,ISIC_1915890.JPG,ISIC_1915890.JPG,false,0,keypress(z),500,223687.60000000894,223687.20000000298,220347.418,220349.40000000596,220363.949,223699.504,8,400,28,,ISIC_3313701.JPG
break,html.Screen,4_27_1,2023-11-01T18:13:28.242Z,,0,,,NaN,,,,,,false,,,,223689.20000000298,223688.90000000596,,223688,,223699.504,8,400,,,
break_continue,html.Screen,4_27_2,2023-11-01T18:13:28.242Z,,0,,,NaN,,,,,,false,,,,223690,223689.70000000298,,223689.5,,223699.504,8,400,,,
sequence,flow.Sequence,4_27,2023-11-01T18:13:28.243Z,,0,,,3325.751000002987,completion,,,,,false,,,,223690.29999999702,223689.70000000298,220347.418,220349.29999999702,220363.949,223699.504,8,400,,,
trial,html.Screen,4_28_0,2023-11-01T18:13:31.004Z,,0,1,,2751.896000005974,response,ISIC_0070814.JPG,8,ISIC_0053469.JPG,ISIC_0053469.JPG,false,0,keypress(z),500,226451.79999999702,226451.40000000596,223683.097,223690.40000000596,223699.504,226468.284,8,400,29,,ISIC_0070814.JPG
break,html.Screen,4_28_1,2023-11-01T18:13:31.006Z,,0,,,NaN,,,,,,false,,,,226453.40000000596,226452.90000000596,,226452.10000000894,,226468.284,8,400,,,
break_continue,html.Screen,4_28_2,2023-11-01T18:13:31.006Z,,0,,,NaN,,,,,,false,,,,226454,226453.79999999702,,226453.60000000894,,226468.284,8,400,,,
sequence,flow.Sequence,4_28,2023-11-01T18:13:31.007Z,,0,,,2754.2959999970335,completion,,,,,false,,,,226454.29999999702,226453.79999999702,223683.097,223690.29999999702,223699.504,226468.284,8,400,,,
trial,html.Screen,4_29_0,2023-11-01T18:13:34.091Z,,0,1,,3069.3160000089265,response,ISIC_0034180.JPG,12,ISIC_0033779.JPG,ISIC_0034180.JPG,false,1,keypress(m),500,229538.10000000894,229537.60000000894,226451.711,226454.5,226468.284,229553.537,8,400,30,,ISIC_0033779.JPG
break,html.Screen,4_29_1,2023-11-01T18:13:34.092Z,,0,,,NaN,,,,,,false,,,,229539.79999999702,229539.29999999702,,229538.70000000298,,229553.537,8,400,,,
break_continue,html.Screen,4_29_2,2023-11-01T18:13:34.093Z,,0,,,NaN,,,,,,false,,,,229540.60000000894,229540.40000000596,,229540.20000000298,,229553.537,8,400,,,
sequence,flow.Sequence,4_29,2023-11-01T18:13:34.093Z,,0,,,3072.1160000059463,completion,,,,,false,,,,229540.90000000596,229540.40000000596,226451.711,226454.5,226468.284,229553.537,8,400,,,
trial,html.Screen,4_30_0,2023-11-01T18:13:37.017Z,,0,1,,2910.163000002969,response,ISIC_0028070.JPG,7,ISIC_1783062.JPG,ISIC_0028070.JPG,false,1,keypress(m),500,232464.5,232463.70000000298,229537.08,229541.20000000298,229553.537,232472.219,8,400,31,,ISIC_1783062.JPG
break,html.Screen,4_30_1,2023-11-01T18:13:37.019Z,,0,,,NaN,,,,,,false,,,,232466.20000000298,232465.90000000596,,232464.79999999702,,232472.219,8,400,,,
break_continue,html.Screen,4_30_2,2023-11-01T18:13:37.019Z,,0,,,NaN,,,,,,false,,,,232466.79999999702,232466.60000000894,,232466.40000000596,,232472.219,8,400,,,
sequence,flow.Sequence,4_30,2023-11-01T18:13:37.020Z,,0,,,2913.0630000089295,completion,,,,,false,,,,232467.10000000894,232466.60000000894,229537.08,229541.10000000894,229553.537,232472.219,8,400,,,
trial,html.Screen,4_31_0,2023-11-01T18:13:40.344Z,,0,1,,3318.4810000029684,response,ISIC_0003117.JPG,8,ISIC_5769654.JPG,ISIC_5769654.JPG,false,0,keypress(z),500,235791.10000000894,235790.70000000298,232455.715,232467.40000000596,232472.219,235807.833,8,400,32,,ISIC_0003117.JPG
break,html.Screen,4_31_1,2023-11-01T18:13:40.345Z,,0,,,NaN,,,,,,false,,,,235792.79999999702,235792.5,,235791.40000000596,,235807.833,8,400,,,
break_continue,html.Screen,4_31_2,2023-11-01T18:13:40.346Z,,0,,,NaN,,,,,,false,,,,235793.5,235793.29999999702,,235793.10000000894,,235807.833,8,400,,,
sequence,flow.Sequence,4_31,2023-11-01T18:13:40.346Z,,0,,,3321.080999997008,completion,,,,,false,,,,235793.90000000596,235793.29999999702,232455.715,232467.29999999702,232472.219,235807.833,8,400,,,
trial,html.Screen,4_32_0,2023-11-01T18:13:43.302Z,,0,1,,2941.567000005947,response,ISIC_0011077.JPG,5,ISIC_0029902.JPG,ISIC_0011077.JPG,false,1,keypress(m),500,238749.90000000596,238749.40000000596,235791.355,235794.10000000894,235807.833,238776.858,8,400,33,,ISIC_0029902.JPG
break,html.Screen,4_32_1,2023-11-01T18:13:43.304Z,,0,,,NaN,,,,,,false,,,,238751.5,238751.20000000298,,238750.29999999702,,238776.858,8,400,,,
break_continue,html.Screen,4_32_2,2023-11-01T18:13:43.305Z,,0,,,NaN,,,,,,false,,,,238752.20000000298,238751.90000000596,,238751.70000000298,,238776.858,8,400,,,
sequence,flow.Sequence,4_32,2023-11-01T18:13:43.305Z,,0,,,2944.067000005947,completion,,,,,false,,,,238752.5,238751.90000000596,235791.355,235794.10000000894,235807.833,238776.858,8,400,,,
trial,html.Screen,4_33_0,2023-11-01T18:13:46.480Z,,0,1,,3150.4419999970123,response,ISIC_0060351.JPG,14,ISIC_2494956.JPG,ISIC_2494956.JPG,false,0,keypress(z),500,241927.70000000298,241927.29999999702,238743.158,238752.70000000298,238776.858,241962.002,8,400,34,,ISIC_0060351.JPG
break,html.Screen,4_33_1,2023-11-01T18:13:46.482Z,,0,,,NaN,,,,,,false,,,,241929.5,241928.90000000596,,241928,,241962.002,8,400,,,
break_continue,html.Screen,4_33_2,2023-11-01T18:13:46.483Z,,0,,,NaN,,,,,,false,,,,241930.20000000298,241930,,241929.70000000298,,241962.002,8,400,,,
sequence,flow.Sequence,4_33,2023-11-01T18:13:46.483Z,,0,,,3153.1419999999925,completion,,,,,false,,,,241930.5,241930,238743.158,238752.60000000894,238776.858,241962.002,8,400,,,
trial,html.Screen,4_34_0,2023-11-01T18:13:49.371Z,,0,1,,2856.797999997012,response,ISIC_3315146.JPG,8,ISIC_0033967.JPG,ISIC_3315146.JPG,false,1,keypress(m),500,244819.20000000298,244818.79999999702,241945.637,241930.79999999702,241962.002,244830.678,8,400,35,,ISIC_0033967.JPG
break,html.Screen,4_34_1,2023-11-01T18:13:49.373Z,,0,,,NaN,,,,,,false,,,,244820.70000000298,244820.40000000596,,244819.5,,244830.678,8,400,,,
break_continue,html.Screen,4_34_2,2023-11-01T18:13:49.374Z,,0,,,NaN,,,,,,false,,,,244821.40000000596,244821.20000000298,,244821,,244830.678,8,400,,,
sequence,flow.Sequence,4_34,2023-11-01T18:13:49.374Z,,0,,,2859.1980000029725,completion,,,,,false,,,,244821.70000000298,244821.20000000298,241945.637,241930.70000000298,241962.002,244830.678,8,400,,,
trial,html.Screen,4_35_0,2023-11-01T18:13:53.816Z,,0,1,,4433.022000002966,response,ISIC_5318217.JPG,13,ISIC_6398669.JPG,ISIC_6398669.JPG,false,0,keypress(z),500,249264.10000000894,249263.70000000298,244814.262,244821.90000000596,244830.678,249267.059,8,400,36,,ISIC_5318217.JPG
break,html.Screen,4_35_1,2023-11-01T18:13:53.818Z,,0,,,NaN,,,,,,false,,,,249265.70000000298,249265.40000000596,,249264.5,,249267.059,8,400,,,
break_continue,html.Screen,4_35_2,2023-11-01T18:13:53.819Z,,0,,,NaN,,,,,,false,,,,249266.40000000596,249266.20000000298,,249265.90000000596,,249267.059,8,400,,,
sequence,flow.Sequence,4_35,2023-11-01T18:13:53.819Z,,0,,,4435.522000002966,completion,,,,,false,,,,249266.79999999702,249266.20000000298,244814.262,244821.79999999702,244830.678,249267.059,8,400,,,
trial,html.Screen,4_36_0,2023-11-01T18:13:57.012Z,,0,1,,3192.0410000089323,response,ISIC_0065513.JPG,8,ISIC_0013498.JPG,ISIC_0013498.JPG,false,0,keypress(z),500,252459.70000000298,252459.10000000894,249250.566,249267.29999999702,249267.059,252469.199,8,400,37,,ISIC_0065513.JPG
break,html.Screen,4_36_1,2023-11-01T18:13:57.014Z,,0,,,NaN,,,,,,false,,,,252461.29999999702,252461,,252460.10000000894,,252469.199,8,400,,,
break_continue,html.Screen,4_36_2,2023-11-01T18:13:57.014Z,,0,,,NaN,,,,,,false,,,,252462,252461.70000000298,,252461.5,,252469.199,8,400,,,
sequence,flow.Sequence,4_36,2023-11-01T18:13:57.014Z,,0,,,3194.641000002972,completion,,,,,false,,,,252462.29999999702,252461.70000000298,249250.566,249267,249267.059,252469.199,8,400,,,
trial,html.Screen,4_37_0,2023-11-01T18:13:59.857Z,,0,1,,2835.001000002987,response,ISIC_0066506.JPG,13,ISIC_0259179.JPG,ISIC_0066506.JPG,false,1,keypress(m),500,255304.90000000596,255304.20000000298,252452.592,252462.40000000596,252469.199,255321.188,8,400,38,,ISIC_0259179.JPG
break,html.Screen,4_37_1,2023-11-01T18:13:59.859Z,,0,,,NaN,,,,,,false,,,,255306.60000000894,255306.29999999702,,255305.20000000298,,255321.188,8,400,,,
break_continue,html.Screen,4_37_2,2023-11-01T18:13:59.860Z,,0,,,NaN,,,,,,false,,,,255307.29999999702,255307.10000000894,,255306.90000000596,,255321.188,8,400,,,
sequence,flow.Sequence,4_37,2023-11-01T18:13:59.860Z,,0,,,2837.9010000089474,completion,,,,,false,,,,255307.60000000894,255307.10000000894,252452.592,252462.40000000596,252469.199,255321.188,8,400,,,
trial,html.Screen,4_38_0,2023-11-01T18:14:03.407Z,,0,1,,3532.5120000029856,response,ISIC_0011704.JPG,12,ISIC_2639144.JPG,ISIC_0011704.JPG,false,1,keypress(m),500,258854.29999999702,258853.70000000298,255304.773,255307.79999999702,255321.188,258856.945,8,400,39,,ISIC_2639144.JPG
break,html.Screen,4_38_1,2023-11-01T18:14:03.408Z,,0,,,NaN,,,,,,false,,,,258856,258855.60000000894,,258854.70000000298,,258856.945,8,400,,,
break_continue,html.Screen,4_38_2,2023-11-01T18:14:03.409Z,,0,,,NaN,,,,,,false,,,,258856.79999999702,258856.5,,258856.29999999702,,258856.945,8,400,,,
sequence,flow.Sequence,4_38,2023-11-01T18:14:03.410Z,,0,,,3535.3120000000054,completion,,,,,false,,,,258857.60000000894,258856.5,255304.773,255307.70000000298,255321.188,258856.945,8,400,,,
trial,html.Screen,4_39_0,2023-11-01T18:14:06.668Z,,0,1,,3258.7550000029732,response,ISIC_0032914.JPG,8,ISIC_0028773.JPG,ISIC_0028773.JPG,false,0,keypress(z),500,262116,262115.70000000298,258840.276,258857.90000000596,258856.945,262125.884,8,400,40,,ISIC_0032914.JPG
break,html.Screen,4_39_1,2023-11-01T18:14:06.670Z,,0,,,NaN,,,,,,false,,,,262117.5,262117.29999999702,,262116.29999999702,,262125.884,8,400,,,
break_continue,html.Screen,4_39_2,2023-11-01T18:14:06.670Z,,0,,,NaN,,,,,,false,,,,262118.20000000298,262118,,262117.70000000298,,262125.884,8,400,,,
sequence,flow.Sequence,4_39,2023-11-01T18:14:06.671Z,,0,,,3261.054999999993,completion,,,,,false,,,,262118.5,262118,258840.276,258857.79999999702,258856.945,262125.884,8,400,,,
trial,html.Screen,4_40_0,2023-11-01T18:14:10.002Z,,0,1,,3323.5160000059695,response,ISIC_0066492.JPG,6,ISIC_0028874.JPG,ISIC_0066492.JPG,false,1,keypress(m),500,265449.799999997,265449.40000000596,262109.378,262118.70000000298,262125.884,265461.471,8,400,41,,ISIC_0028874.JPG
break,html.Screen,4_40_1,2023-11-01T18:14:10.004Z,,0,,,NaN,,,,,,false,,,,265451.40000000596,265451.10000000894,,265450.10000000894,,265461.471,8,400,,,
break_continue,html.Screen,4_40_2,2023-11-01T18:14:10.004Z,,0,,,NaN,,,,,,false,,,,265452.200000003,265452,,265451.799999997,,265461.471,8,400,,,
sequence,flow.Sequence,4_40,2023-11-01T18:14:10.005Z,,0,,,3326.116000000009,completion,,,,,false,,,,265452.5,265452,262109.378,262118.60000000894,262125.884,265461.471,8,400,,,
trial,html.Screen,4_41_0,2023-11-01T18:14:14.620Z,,0,1,,4605.52899999998,response,ISIC_2126035.JPG,9,ISIC_0053929.JPG,ISIC_2126035.JPG,false,1,keypress(m),500,270067.299999997,270067,265445.094,265452.799999997,265461.471,270081.566,8,400,42,,ISIC_0053929.JPG
break,html.Screen,4_41_1,2023-11-01T18:14:14.621Z,,0,,,NaN,,,,,,false,,,,270068.700000003,270068.5,,270067.700000003,,270081.566,8,400,,,
break_continue,html.Screen,4_41_2,2023-11-01T18:14:14.622Z,,0,,,NaN,,,,,,false,,,,270069.299999997,270069.200000003,,270068.90000000596,,270081.566,8,400,,,
sequence,flow.Sequence,4_41,2023-11-01T18:14:14.622Z,,0,,,4607.729000002961,completion,,,,,false,,,,270069.60000000894,270069.200000003,265445.094,265452.700000003,265461.471,270081.566,8,400,,,
trial,html.Screen,4_42_0,2023-11-01T18:14:17.586Z,,0,1,,2951.233999997028,response,ISIC_0030469.JPG,13,ISIC_9540825.JPG,ISIC_9540825.JPG,false,0,keypress(z),500,273033.5,273032.799999997,270064.614,270069.700000003,270081.566,273050.065,8,400,43,,ISIC_0030469.JPG
break,html.Screen,4_42_1,2023-11-01T18:14:17.588Z,,0,,,NaN,,,,,,false,,,,273035.40000000596,273035.10000000894,,273033.90000000596,,273050.065,8,400,,,
break_continue,html.Screen,4_42_2,2023-11-01T18:14:17.588Z,,0,,,NaN,,,,,,false,,,,273036.10000000894,273035.90000000596,,273035.700000003,,273050.065,8,400,,,
sequence,flow.Sequence,4_42,2023-11-01T18:14:17.589Z,,0,,,2954.334000005969,completion,,,,,false,,,,273036.40000000596,273035.90000000596,270064.614,270069.700000003,270081.566,273050.065,8,400,,,
trial,html.Screen,4_43_0,2023-11-01T18:14:20.412Z,,0,1,,2808.835000005958,response,ISIC_7667157.JPG,10,ISIC_7921023.JPG,ISIC_7667157.JPG,false,1,keypress(m),500,275859.40000000596,275858.90000000596,273033.558,273036.60000000894,273050.065,275868.567,8,400,44,,ISIC_7921023.JPG
break,html.Screen,4_43_1,2023-11-01T18:14:20.415Z,,0,,,NaN,,,,,,false,,,,275862.299999997,275862.10000000894,,275861.10000000894,,275868.567,8,400,,,
break_continue,html.Screen,4_43_2,2023-11-01T18:14:20.415Z,,0,,,NaN,,,,,,false,,,,275862.90000000596,275862.799999997,,275862.60000000894,,275868.567,8,400,,,
sequence,flow.Sequence,4_43,2023-11-01T18:14:20.415Z,,0,,,2812.7349999970174,completion,,,,,false,,,,275863.200000003,275862.799999997,273033.558,273036.60000000894,273050.065,275868.567,8,400,,,
trial,html.Screen,4_44_0,2023-11-01T18:14:25.322Z,,0,1,,4900.83300000598,response,ISIC_5237059.JPG,2,ISIC_3967213.JPG,ISIC_3967213.JPG,false,0,keypress(z),500,280769.799999997,280769.40000000596,275852.214,275863.40000000596,275868.567,280771.977,8,400,45,,ISIC_5237059.JPG
break,html.Screen,4_44_1,2023-11-01T18:14:25.324Z,,0,,,NaN,,,,,,false,,,,280771.299999997,280770.90000000596,,280770.200000003,,280771.977,8,400,,,
break_continue,html.Screen,4_44_2,2023-11-01T18:14:25.324Z,,0,,,NaN,,,,,,false,,,,280771.90000000596,280771.700000003,,280771.5,,280771.977,8,400,,,
sequence,flow.Sequence,4_44,2023-11-01T18:14:25.325Z,,0,,,4903.133000002999,completion,,,,,false,,,,280772.700000003,280771.700000003,275852.214,275863.299999997,275868.567,280771.977,8,400,,,
trial,html.Screen,4_45_0,2023-11-01T18:14:28.778Z,,0,1,,3453.423000005947,response,ISIC_0029089.JPG,8,ISIC_5385528.JPG,ISIC_0029089.JPG,false,1,keypress(m),500,284225.799999997,284225.40000000596,280755.437,280773.10000000894,280771.977,284241.019,8,400,46,,ISIC_5385528.JPG
break,html.Screen,4_45_1,2023-11-01T18:14:28.780Z,,0,,,NaN,,,,,,false,,,,284227.799999997,284227.10000000894,,284226.200000003,,284241.019,8,400,,,
break_continue,html.Screen,4_45_2,2023-11-01T18:14:28.781Z,,0,,,NaN,,,,,,false,,,,284228.90000000596,284228.60000000894,,284228.200000003,,284241.019,8,400,,,
sequence,flow.Sequence,4_45,2023-11-01T18:14:28.782Z,,0,,,3456.623000008927,completion,,,,,false,,,,284229.299999997,284228.60000000894,280755.437,280773,280771.977,284241.019,8,400,,,
trial,html.Screen,4_46_0,2023-11-01T18:14:32.890Z,,0,1,,4096.681000003009,response,ISIC_8798059.JPG,6,ISIC_7013005.JPG,ISIC_8798059.JPG,false,1,keypress(m),500,288338.10000000894,288337.700000003,284224.374,284229.60000000894,284241.019,288343.832,8,400,47,,ISIC_7013005.JPG
break,html.Screen,4_46_1,2023-11-01T18:14:32.892Z,,0,,,NaN,,,,,,false,,,,288339.700000003,288339.40000000596,,288338.5,,288343.832,8,400,,,
break_continue,html.Screen,4_46_2,2023-11-01T18:14:32.893Z,,0,,,NaN,,,,,,false,,,,288340.40000000596,288340.10000000894,,288339.90000000596,,288343.832,8,400,,,
sequence,flow.Sequence,4_46,2023-11-01T18:14:32.893Z,,0,,,4099.08100000897,completion,,,,,false,,,,288340.700000003,288340.10000000894,284224.374,284229.5,284241.019,288343.832,8,400,,,
trial,html.Screen,4_47_0,2023-11-01T18:14:36.808Z,,0,1,,3911.3680000029854,response,ISIC_4985027.JPG,15,ISIC_0030795.JPG,ISIC_4985027.JPG,false,1,keypress(m),500,292255.700000003,292255.200000003,288327.382,288340.90000000596,288343.832,292263.251,8,400,48,,ISIC_0030795.JPG
break,html.Screen,4_47_1,2023-11-01T18:14:36.809Z,,0,,,NaN,,,,,,false,,,,292257.200000003,292256.90000000596,,292256,,292263.251,8,400,,,
break_continue,html.Screen,4_47_2,2023-11-01T18:14:36.810Z,,0,,,NaN,,,,,,false,,,,292257.90000000596,292257.60000000894,,292257.5,,292263.251,8,400,,,
sequence,flow.Sequence,4_47,2023-11-01T18:14:36.810Z,,0,,,3913.768000008946,completion,,,,,false,,,,292258.10000000894,292257.60000000894,288327.382,288340.90000000596,288343.832,292263.251,8,400,,,
trial,html.Screen,4_48_0,2023-11-01T18:14:40.080Z,,0,1,,3263.8490000089514,response,ISIC_0295323.JPG,6,ISIC_0069635.JPG,ISIC_0069635.JPG,false,0,keypress(z),500,295527.5,295527.10000000894,292246.722,292258.40000000596,292263.251,295532.141,8,400,49,,ISIC_0295323.JPG
break,html.Screen,4_48_1,2023-11-01T18:14:40.081Z,,0,,,NaN,,,,,,false,,,,295529.10000000894,295528.799999997,,295527.799999997,,295532.141,8,400,,,
break_continue,html.Screen,4_48_2,2023-11-01T18:14:40.082Z,,0,,,NaN,,,,,,false,,,,295529.799999997,295529.5,,295529.200000003,,295532.141,8,400,,,
sequence,flow.Sequence,4_48,2023-11-01T18:14:40.082Z,,0,,,3266.2490000000107,completion,,,,,false,,,,295530,295529.5,292246.722,292258.299999997,292263.251,295532.141,8,400,,,
trial,html.Screen,4_49_0,2023-11-01T18:14:43.852Z,,0,1,,3766.8589999999967,response,ISIC_8674332.JPG,8,ISIC_7429127.JPG,ISIC_8674332.JPG,false,1,keypress(m),500,299299.700000003,299299,295515.672,295530.299999997,295532.141,299320.23,8,400,50,,ISIC_7429127.JPG
break,html.Screen,4_49_1,2023-11-01T18:14:53.862Z,,0,,,10004.974000000046,timeout,,,,,false,,,,309310.799999997,309308.646,299284.902,299300.10000000894,299320.23,309325.204,8,400,,,
break_continue,html.Screen,4_49_2,2023-11-01T18:14:59.279Z,,0,,,5372.295999999973,response,,,,,false,continue,keypress(Space),,314727.5,314697.5,309308.646,309311.299999997,309325.204,314746.452,8,400,,,
sequence,flow.Sequence,4_49,2023-11-01T18:14:59.280Z,,0,,,19165.358999999997,completion,,,,,false,,,,314727.90000000596,314697.5,295515.672,295530.200000003,295532.141,314746.452,8,400,,,
trial,html.Screen,4_50_0,2023-11-01T18:15:04.008Z,,0,2,,4709.84799999703,response,ISIC_4026569.JPG,10,ISIC_1359533.JPG,ISIC_4026569.JPG,false,1,keypress(m),500,319456.60000000894,319456.299999997,314728.737,314728.200000003,314746.452,319465.163,8,400,1,,ISIC_1359533.JPG
break,html.Screen,4_50_1,2023-11-01T18:15:04.010Z,,0,,,NaN,,,,,,false,,,,319458.299999997,319458,,319457,,319465.163,8,400,,,
break_continue,html.Screen,4_50_2,2023-11-01T18:15:04.011Z,,0,,,NaN,,,,,,false,,,,319459,319458.700000003,,319458.5,,319465.163,8,400,,,
sequence,flow.Sequence,4_50,2023-11-01T18:15:04.011Z,,0,,,4712.24800000299,completion,,,,,false,,,,319459.299999997,319458.700000003,314728.737,314728.10000000894,314746.452,319465.163,8,400,,,
trial,html.Screen,4_51_0,2023-11-01T18:15:07.495Z,,0,2,,3478.23700000596,response,ISIC_1925590.JPG,6,ISIC_4916704.JPG,ISIC_4916704.JPG,false,0,keypress(z),500,322943.799999997,322943.40000000596,319448.764,319459.60000000894,319465.163,322950.923,8,400,2,,ISIC_1925590.JPG
break,html.Screen,4_51_1,2023-11-01T18:15:07.497Z,,0,,,NaN,,,,,,false,,,,322945.40000000596,322945.10000000894,,322944.10000000894,,322950.923,8,400,,,
break_continue,html.Screen,4_51_2,2023-11-01T18:15:07.498Z,,0,,,NaN,,,,,,false,,,,322946,322945.700000003,,322945.5,,322950.923,8,400,,,
sequence,flow.Sequence,4_51,2023-11-01T18:15:07.498Z,,0,,,3480.5370000029798,completion,,,,,false,,,,322946.299999997,322945.700000003,319448.764,319459.5,319465.163,322950.923,8,400,,,
trial,html.Screen,4_52_0,2023-11-01T18:15:10.388Z,,0,2,,2884.7770000029705,response,ISIC_0068215.JPG,10,ISIC_6324832.JPG,ISIC_0068215.JPG,false,1,keypress(m),500,325836.10000000894,325835.700000003,322934.452,322946.60000000894,322950.923,325852.896,8,400,3,,ISIC_6324832.JPG
break,html.Screen,4_52_1,2023-11-01T18:15:10.389Z,,0,,,NaN,,,,,,false,,,,325837.799999997,325837.5,,325836.60000000894,,325852.896,8,400,,,
break_continue,html.Screen,4_52_2,2023-11-01T18:15:10.390Z,,0,,,NaN,,,,,,false,,,,325838.60000000894,325838.299999997,,325838.10000000894,,325852.896,8,400,,,
sequence,flow.Sequence,4_52,2023-11-01T18:15:10.390Z,,0,,,2887.37699999701,completion,,,,,false,,,,325838.799999997,325838.299999997,322934.452,322946.5,322950.923,325852.896,8,400,,,
trial,html.Screen,4_53_0,2023-11-01T18:15:13.658Z,,0,2,,3253.3040000029723,response,ISIC_0062740.JPG,8,ISIC_5798015.JPG,ISIC_0062740.JPG,false,1,keypress(m),500,329106.700000003,329106.200000003,325836.424,325839.10000000894,325852.896,329122.059,8,400,4,,ISIC_5798015.JPG
break,html.Screen,4_53_1,2023-11-01T18:15:13.660Z,,0,,,NaN,,,,,,false,,,,329108.299999997,329107.90000000596,,329106.90000000596,,329122.059,8,400,,,
break_continue,html.Screen,4_53_2,2023-11-01T18:15:13.660Z,,0,,,NaN,,,,,,false,,,,329108.90000000596,329108.700000003,,329108.40000000596,,329122.059,8,400,,,
sequence,flow.Sequence,4_53,2023-11-01T18:15:13.661Z,,0,,,3255.8040000029723,completion,,,,,false,,,,329109.200000003,329108.700000003,325836.424,325838.90000000596,325852.896,329122.059,8,400,,,
trial,html.Screen,4_54_0,2023-11-01T18:15:17.609Z,,0,2,,3934.841000005952,response,ISIC_0008864.JPG,8,ISIC_0071906.JPG,ISIC_0071906.JPG,false,0,keypress(z),500,333057.5,333056.90000000596,329105.366,329109.5,329122.059,333074.501,8,400,5,,ISIC_0008864.JPG
break,html.Screen,4_54_1,2023-11-01T18:15:17.612Z,,0,,,NaN,,,,,,false,,,,333060.200000003,333059.799999997,,333058.200000003,,333074.501,8,400,,,
break_continue,html.Screen,4_54_2,2023-11-01T18:15:17.613Z,,0,,,NaN,,,,,,false,,,,333060.90000000596,333060.700000003,,333060.40000000596,,333074.501,8,400,,,
sequence,flow.Sequence,4_54,2023-11-01T18:15:17.613Z,,0,,,3938.641000002972,completion,,,,,false,,,,333061.200000003,333060.700000003,329105.366,329109.40000000596,329122.059,333074.501,8,400,,,
trial,html.Screen,4_55_0,2023-11-01T18:15:21.000Z,,0,2,,3373.4990000000107,response,ISIC_0064034.JPG,12,ISIC_4980079.JPG,ISIC_0064034.JPG,false,1,keypress(m),500,336448.40000000596,336448,333058.056,333061.40000000596,333074.501,336460.226,8,400,6,,ISIC_4980079.JPG
break,html.Screen,4_55_1,2023-11-01T18:15:21.002Z,,0,,,NaN,,,,,,false,,,,336449.90000000596,336449.700000003,,336448.799999997,,336460.226,8,400,,,
break_continue,html.Screen,4_55_2,2023-11-01T18:15:21.002Z,,0,,,NaN,,,,,,false,,,,336450.60000000894,336450.40000000596,,336450.200000003,,336460.226,8,400,,,
sequence,flow.Sequence,4_55,2023-11-01T18:15:21.003Z,,0,,,3375.899000005971,completion,,,,,false,,,,336450.90000000596,336450.40000000596,333058.056,333061.40000000596,333074.501,336460.226,8,400,,,
trial,html.Screen,4_56_0,2023-11-01T18:15:24.415Z,,0,2,,3403.1740000059363,response,ISIC_0033319.JPG,12,ISIC_0057997.JPG,ISIC_0057997.JPG,false,0,keypress(z),500,339863.90000000596,339863.40000000596,336443.73,336451.200000003,336460.226,339879.173,8,400,7,,ISIC_0033319.JPG
break,html.Screen,4_56_1,2023-11-01T18:15:24.417Z,,0,,,NaN,,,,,,false,,,,339865.5,339865.10000000894,,339864.200000003,,339879.173,8,400,,,
break_continue,html.Screen,4_56_2,2023-11-01T18:15:24.418Z,,0,,,NaN,,,,,,false,,,,339866.200000003,339866,,339865.799999997,,339879.173,8,400,,,
sequence,flow.Sequence,4_56,2023-11-01T18:15:24.418Z,,0,,,3405.773999999976,completion,,,,,false,,,,339866.60000000894,339866,336443.73,336451.10000000894,336460.226,339879.173,8,400,,,
trial,html.Screen,4_57_0,2023-11-01T18:15:28.201Z,,0,2,,3769.62699999701,response,ISIC_0068246.JPG,10,ISIC_0011799.JPG,ISIC_0068246.JPG,false,1,keypress(m),500,343649.299999997,343648.799999997,339862.721,339866.799999997,339879.173,343665.314,8,400,8,,ISIC_0011799.JPG
break,html.Screen,4_57_1,2023-11-01T18:15:28.203Z,,0,,,NaN,,,,,,false,,,,343651.200000003,343650.90000000596,,343649.90000000596,,343665.314,8,400,,,
break_continue,html.Screen,4_57_2,2023-11-01T18:15:28.204Z,,0,,,NaN,,,,,,false,,,,343651.90000000596,343651.60000000894,,343651.40000000596,,343665.314,8,400,,,
sequence,flow.Sequence,4_57,2023-11-01T18:15:28.204Z,,0,,,3772.427000008931,completion,,,,,false,,,,343652.200000003,343651.60000000894,339862.721,339866.700000003,339879.173,343665.314,8,400,,,
trial,html.Screen,4_58_0,2023-11-01T18:15:32.648Z,,0,2,,4430.286000008928,response,ISIC_3688362.JPG,6,ISIC_3559222.JPG,ISIC_3559222.JPG,false,0,keypress(z),500,348096.299999997,348095.60000000894,343648.592,343652.5,343665.314,348101.47,8,400,9,,ISIC_3688362.JPG
break,html.Screen,4_58_1,2023-11-01T18:15:32.650Z,,0,,,NaN,,,,,,false,,,,348097.90000000596,348097.5,,348096.700000003,,348101.47,8,400,,,
break_continue,html.Screen,4_58_2,2023-11-01T18:15:32.650Z,,0,,,NaN,,,,,,false,,,,348098.60000000894,348098.40000000596,,348098.10000000894,,348101.47,8,400,,,
sequence,flow.Sequence,4_58,2023-11-01T18:15:32.651Z,,0,,,4433.086000005947,completion,,,,,false,,,,348098.90000000596,348098.40000000596,343648.592,343652.40000000596,343665.314,348101.47,8,400,,,
trial,html.Screen,4_59_0,2023-11-01T18:15:36.112Z,,0,2,,3458.6300000089686,response,ISIC_0058863.JPG,9,ISIC_9560298.JPG,ISIC_9560298.JPG,false,0,keypress(z),500,351560.700000003,351560.10000000894,348085.044,348099.10000000894,348101.47,351570.492,8,400,10,,ISIC_0058863.JPG
break,html.Screen,4_59_1,2023-11-01T18:15:36.114Z,,0,,,NaN,,,,,,false,,,,351562.200000003,351561.90000000596,,351560.90000000596,,351570.492,8,400,,,
break_continue,html.Screen,4_59_2,2023-11-01T18:15:36.115Z,,0,,,NaN,,,,,,false,,,,351562.90000000596,351562.700000003,,351562.5,,351570.492,8,400,,,
sequence,flow.Sequence,4_59,2023-11-01T18:15:36.115Z,,0,,,3461.230000003008,completion,,,,,false,,,,351563.40000000596,351562.700000003,348085.044,348099.10000000894,348101.47,351570.492,8,400,,,
trial,html.Screen,4_60_0,2023-11-01T18:15:39.065Z,,0,2,,2942.108000008913,response,ISIC_0056226.JPG,11,ISIC_7139908.JPG,ISIC_0056226.JPG,false,1,keypress(m),500,354513,354512.60000000894,351553.964,351563.700000003,351570.492,354522.542,8,400,11,,ISIC_7139908.JPG
break,html.Screen,4_60_1,2023-11-01T18:15:39.066Z,,0,,,NaN,,,,,,false,,,,354514.60000000894,354514.40000000596,,354513.40000000596,,354522.542,8,400,,,
break_continue,html.Screen,4_60_2,2023-11-01T18:15:39.067Z,,0,,,NaN,,,,,,false,,,,354515.299999997,354515.200000003,,354514.90000000596,,354522.542,8,400,,,
sequence,flow.Sequence,4_60,2023-11-01T18:15:39.067Z,,0,,,2944.7080000029528,completion,,,,,false,,,,354515.700000003,354515.200000003,351553.964,351563.60000000894,351570.492,354522.542,8,400,,,
trial,html.Screen,4_61_0,2023-11-01T18:15:42.325Z,,0,2,,3250.6580000029644,response,ISIC_5063476.JPG,9,ISIC_0029405.JPG,ISIC_5063476.JPG,false,1,keypress(m),500,357773.60000000894,357773.200000003,354506.1,354515.90000000596,354522.542,357791.571,8,400,12,,ISIC_0029405.JPG
break,html.Screen,4_61_1,2023-11-01T18:15:42.327Z,,0,,,NaN,,,,,,false,,,,357775.200000003,357774.60000000894,,357774,,357791.571,8,400,,,
break_continue,html.Screen,4_61_2,2023-11-01T18:15:42.328Z,,0,,,NaN,,,,,,false,,,,357776,357775.799999997,,357775.5,,357791.571,8,400,,,
sequence,flow.Sequence,4_61,2023-11-01T18:15:42.328Z,,0,,,3253.257999997004,completion,,,,,false,,,,357776.299999997,357775.799999997,354506.1,354515.90000000596,354522.542,357791.571,8,400,,,
trial,html.Screen,4_62_0,2023-11-01T18:15:46.425Z,,0,2,,4080.829000005964,response,ISIC_0033713.JPG,8,ISIC_0011701.JPG,ISIC_0033713.JPG,false,1,keypress(m),500,361872.90000000596,361872.40000000596,357774.818,357776.5,357791.571,361877.565,8,400,13,,ISIC_0011701.JPG
break,html.Screen,4_62_1,2023-11-01T18:15:46.426Z,,0,,,NaN,,,,,,false,,,,361874.40000000596,361873.90000000596,,361873.299999997,,361877.565,8,400,,,
break_continue,html.Screen,4_62_2,2023-11-01T18:15:46.427Z,,0,,,NaN,,,,,,false,,,,361874.90000000596,361874.799999997,,361874.60000000894,,361877.565,8,400,,,
sequence,flow.Sequence,4_62,2023-11-01T18:15:46.427Z,,0,,,4083.2289999970235,completion,,,,,false,,,,361875.200000003,361874.799999997,357774.818,357776.5,357791.571,361877.565,8,400,,,
trial,html.Screen,4_63_0,2023-11-01T18:15:49.540Z,,0,2,,3109.835000005958,response,ISIC_1532403.JPG,13,ISIC_0068239.JPG,ISIC_0068239.JPG,false,0,keypress(z),500,364987.799999997,364987.40000000596,361861.16,361875.5,361877.565,364996.364,8,400,14,,ISIC_1532403.JPG
break,html.Screen,4_63_1,2023-11-01T18:15:49.542Z,,0,,,NaN,,,,,,false,,,,364989.40000000596,364989,,364988.10000000894,,364996.364,8,400,,,
break_continue,html.Screen,4_63_2,2023-11-01T18:15:49.542Z,,0,,,NaN,,,,,,false,,,,364989.90000000596,364989.799999997,,364989.60000000894,,364996.364,8,400,,,
sequence,flow.Sequence,4_63,2023-11-01T18:15:49.543Z,,0,,,3112.2349999970174,completion,,,,,false,,,,364990.299999997,364989.799999997,361861.16,361875.40000000596,361877.565,364996.364,8,400,,,
trial,html.Screen,4_64_0,2023-11-01T18:15:52.495Z,,0,2,,2945.2360000089393,response,ISIC_6272501.JPG,7,ISIC_4604654.JPG,ISIC_4604654.JPG,false,0,keypress(z),500,367942.299999997,367941.60000000894,364979.941,364990.5,364996.364,367948.458,8,400,15,,ISIC_6272501.JPG
break,html.Screen,4_64_1,2023-11-01T18:15:52.496Z,,0,,,NaN,,,,,,false,,,,367943.700000003,367943.299999997,,367942.60000000894,,367948.458,8,400,,,
break_continue,html.Screen,4_64_2,2023-11-01T18:15:52.497Z,,0,,,NaN,,,,,,false,,,,367944.40000000596,367944.200000003,,367944,,367948.458,8,400,,,
sequence,flow.Sequence,4_64,2023-11-01T18:15:52.497Z,,0,,,2947.836000002979,completion,,,,,false,,,,367944.700000003,367944.200000003,364979.941,364990.40000000596,364996.364,367948.458,8,400,,,
trial,html.Screen,4_65_0,2023-11-01T18:15:55.670Z,,0,2,,3169.042000000016,response,ISIC_0028579.JPG,8,ISIC_6447663.JPG,ISIC_0028579.JPG,false,1,keypress(m),500,371117.90000000596,371117.5,367932.017,367944.90000000596,367948.458,371134.201,8,400,16,,ISIC_6447663.JPG
break,html.Screen,4_65_1,2023-11-01T18:15:55.672Z,,0,,,NaN,,,,,,false,,,,371119.5,371119.200000003,,371118.299999997,,371134.201,8,400,,,
break_continue,html.Screen,4_65_2,2023-11-01T18:15:55.673Z,,0,,,NaN,,,,,,false,,,,371120.200000003,371119.90000000596,,371119.700000003,,371134.201,8,400,,,
sequence,flow.Sequence,4_65,2023-11-01T18:15:55.673Z,,0,,,3171.4420000059763,completion,,,,,false,,,,371120.40000000596,371119.90000000596,367932.017,367944.799999997,367948.458,371134.201,8,400,,,
trial,html.Screen,4_66_0,2023-11-01T18:15:59.650Z,,0,2,,3962.4990000029793,response,ISIC_0010235.JPG,14,ISIC_4519298.JPG,ISIC_0010235.JPG,false,1,keypress(m),500,375097.10000000894,375096.700000003,371117.475,371120.700000003,371134.201,375103.32,8,400,17,,ISIC_4519298.JPG
break,html.Screen,4_66_1,2023-11-01T18:15:59.651Z,,0,,,NaN,,,,,,false,,,,375098.799999997,375098.40000000596,,375097.5,,375103.32,8,400,,,
break_continue,html.Screen,4_66_2,2023-11-01T18:15:59.652Z,,0,,,NaN,,,,,,false,,,,375099.40000000596,375099.299999997,,375099,,375103.32,8,400,,,
sequence,flow.Sequence,4_66,2023-11-01T18:15:59.652Z,,0,,,3965.098999997019,completion,,,,,false,,,,375099.700000003,375099.299999997,371117.475,371120.60000000894,371134.201,375103.32,8,400,,,
trial,html.Screen,4_67_0,2023-11-01T18:16:03.707Z,,0,2,,4051.0800000059535,response,ISIC_2151178.JPG,5,ISIC_0058151.JPG,ISIC_2151178.JPG,false,1,keypress(m),500,379154.90000000596,379154.40000000596,375086.88,375100,375103.32,379181.799,8,400,18,,ISIC_0058151.JPG
break,html.Screen,4_67_1,2023-11-01T18:16:03.709Z,,0,,,NaN,,,,,,false,,,,379156.90000000596,379156.200000003,,379155.200000003,,379181.799,8,400,,,
break_continue,html.Screen,4_67_2,2023-11-01T18:16:03.710Z,,0,,,NaN,,,,,,false,,,,379157.799999997,379157.60000000894,,379157.200000003,,379181.799,8,400,,,
sequence,flow.Sequence,4_67,2023-11-01T18:16:03.711Z,,0,,,4054.2800000089337,completion,,,,,false,,,,379158.200000003,379157.60000000894,375086.88,375099.90000000596,375103.32,379181.799,8,400,,,
trial,html.Screen,4_68_0,2023-11-01T18:16:07.080Z,,0,2,,3345.201000000001,response,ISIC_6717322.JPG,8,ISIC_0026770.JPG,ISIC_0026770.JPG,false,0,keypress(z),500,382527.40000000596,382527,379139.595,379158.40000000596,379181.799,382541.997,8,400,19,,ISIC_6717322.JPG
break,html.Screen,4_68_1,2023-11-01T18:16:07.081Z,,0,,,NaN,,,,,,false,,,,382529,382528.60000000894,,382527.700000003,,382541.997,8,400,,,
break_continue,html.Screen,4_68_2,2023-11-01T18:16:07.082Z,,0,,,NaN,,,,,,false,,,,382529.700000003,382529.40000000596,,382529.200000003,,382541.997,8,400,,,
sequence,flow.Sequence,4_68,2023-11-01T18:16:07.082Z,,0,,,3347.6010000059614,completion,,,,,false,,,,382530,382529.40000000596,379139.595,379158.299999997,379181.799,382541.997,8,400,,,
trial,html.Screen,4_69_0,2023-11-01T18:16:11.352Z,,0,2,,4256.4030000059865,response,ISIC_3696488.JPG,6,ISIC_0032873.JPG,ISIC_3696488.JPG,false,1,keypress(m),500,386799.10000000894,386798.40000000596,382525.158,382530.200000003,382541.997,386811.364,8,400,20,,ISIC_0032873.JPG
break,html.Screen,4_69_1,2023-11-01T18:16:11.353Z,,0,,,NaN,,,,,,false,,,,386800.700000003,386800.40000000596,,386799.5,,386811.364,8,400,,,
break_continue,html.Screen,4_69_2,2023-11-01T18:16:11.354Z,,0,,,NaN,,,,,,false,,,,386801.299999997,386801.200000003,,386801,,386811.364,8,400,,,
sequence,flow.Sequence,4_69,2023-11-01T18:16:11.354Z,,0,,,4259.203000003006,completion,,,,,false,,,,386801.700000003,386801.200000003,382525.158,382530.10000000894,382541.997,386811.364,8,400,,,
trial,html.Screen,4_70_0,2023-11-01T18:16:14.529Z,,0,2,,3165.1359999999986,response,ISIC_0057374.JPG,11,ISIC_0032847.JPG,ISIC_0057374.JPG,false,1,keypress(m),500,389977,389976.5,386794.672,386801.90000000596,386811.364,389980.22,8,400,21,,ISIC_0032847.JPG
break,html.Screen,4_70_1,2023-11-01T18:16:14.531Z,,0,,,NaN,,,,,,false,,,,389978.40000000596,389978.200000003,,389977.299999997,,389980.22,8,400,,,
break_continue,html.Screen,4_70_2,2023-11-01T18:16:14.532Z,,0,,,NaN,,,,,,false,,,,389979.10000000894,389978.90000000596,,389978.60000000894,,389980.22,8,400,,,
sequence,flow.Sequence,4_70,2023-11-01T18:16:14.532Z,,0,,,3167.536000005959,completion,,,,,false,,,,389979.40000000596,389978.90000000596,386794.672,386801.90000000596,386811.364,389980.22,8,400,,,
trial,html.Screen,4_71_0,2023-11-01T18:16:18.303Z,,0,2,,3769.980000003008,response,ISIC_4538661.JPG,7,ISIC_0046618.JPG,ISIC_0046618.JPG,false,0,keypress(z),500,393750.700000003,393750.200000003,389963.753,389979.60000000894,389980.22,393766.148,8,400,22,,ISIC_4538661.JPG
break,html.Screen,4_71_1,2023-11-01T18:16:18.305Z,,0,,,NaN,,,,,,false,,,,393752.40000000596,393752.10000000894,,393751.10000000894,,393766.148,8,400,,,
break_continue,html.Screen,4_71_2,2023-11-01T18:16:18.306Z,,0,,,NaN,,,,,,false,,,,393753,393752.799999997,,393752.5,,393766.148,8,400,,,
sequence,flow.Sequence,4_71,2023-11-01T18:16:18.306Z,,0,,,3772.5799999970477,completion,,,,,false,,,,393753.299999997,393752.799999997,389963.753,389979.5,389980.22,393766.148,8,400,,,
trial,html.Screen,4_72_0,2023-11-01T18:16:21.289Z,,0,2,,2970.0520000029937,response,ISIC_8945395.JPG,9,ISIC_4536709.JPG,ISIC_8945395.JPG,false,1,keypress(m),500,396736.5,396736.200000003,393749.476,393753.5,393766.148,396768.447,8,400,23,,ISIC_4536709.JPG
break,html.Screen,4_72_1,2023-11-01T18:16:21.290Z,,0,,,NaN,,,,,,false,,,,396737.799999997,396737.5,,396736.90000000596,,396768.447,8,400,,,
break_continue,html.Screen,4_72_2,2023-11-01T18:16:21.291Z,,0,,,NaN,,,,,,false,,,,396738.5,396738.200000003,,396738,,396768.447,8,400,,,
sequence,flow.Sequence,4_72,2023-11-01T18:16:21.291Z,,0,,,2972.0520000029937,completion,,,,,false,,,,396738.700000003,396738.200000003,393749.476,393753.5,393766.148,396768.447,8,400,,,
trial,html.Screen,4_73_0,2023-11-01T18:16:24.485Z,,0,2,,3163.653000008955,response,ISIC_6445453.JPG,13,ISIC_8011058.JPG,ISIC_8011058.JPG,false,0,keypress(z),500,399932.5,399932.10000000894,396751.772,396739,396768.447,399953.877,8,400,24,,ISIC_6445453.JPG
break,html.Screen,4_73_1,2023-11-01T18:16:24.486Z,,0,,,NaN,,,,,,false,,,,399933.700000003,399933.40000000596,,399932.90000000596,,399953.877,8,400,,,
break_continue,html.Screen,4_73_2,2023-11-01T18:16:24.487Z,,0,,,NaN,,,,,,false,,,,399934.299999997,399934.10000000894,,399933.90000000596,,399953.877,8,400,,,
sequence,flow.Sequence,4_73,2023-11-01T18:16:24.487Z,,0,,,3165.653000008955,completion,,,,,false,,,,399934.60000000894,399934.10000000894,396751.772,396738.90000000596,396768.447,399953.877,8,400,,,
trial,html.Screen,4_74_0,2023-11-01T18:16:29.101Z,,0,2,,4594.623000000021,response,ISIC_6178099.JPG,7,ISIC_4984668.JPG,ISIC_6178099.JPG,false,1,keypress(m),500,404549,404548.5,399937.02,399934.90000000596,399953.877,404556.879,8,400,25,,ISIC_4984668.JPG
break,html.Screen,4_74_1,2023-11-01T18:16:29.103Z,,0,,,NaN,,,,,,false,,,,404550.60000000894,404550.299999997,,404549.299999997,,404556.879,8,400,,,
break_continue,html.Screen,4_74_2,2023-11-01T18:16:29.104Z,,0,,,NaN,,,,,,false,,,,404551.299999997,404551.10000000894,,404550.799999997,,404556.879,8,400,,,
sequence,flow.Sequence,4_74,2023-11-01T18:16:29.104Z,,0,,,4597.223000008962,completion,,,,,false,,,,404551.60000000894,404551.10000000894,399937.02,399934.799999997,399953.877,404556.879,8,400,,,
trial,html.Screen,4_75_0,2023-11-01T18:16:32.359Z,,0,2,,3249.1209999999846,response,ISIC_2162728.JPG,5,ISIC_0058998.JPG,ISIC_0058998.JPG,false,0,keypress(z),500,407806.5,407806,404540.19,404551.799999997,404556.879,407809.106,8,400,26,,ISIC_2162728.JPG
break,html.Screen,4_75_1,2023-11-01T18:16:32.361Z,,0,,,NaN,,,,,,false,,,,407808.10000000894,407807.700000003,,407806.90000000596,,407809.106,8,400,,,
break_continue,html.Screen,4_75_2,2023-11-01T18:16:32.361Z,,0,,,NaN,,,,,,false,,,,407808.799999997,407808.60000000894,,407808.40000000596,,407809.106,8,400,,,
sequence,flow.Sequence,4_75,2023-11-01T18:16:32.362Z,,0,,,3251.7210000089253,completion,,,,,false,,,,407809.40000000596,407808.60000000894,404540.19,404551.799999997,404556.879,407809.106,8,400,,,
trial,html.Screen,4_76_0,2023-11-01T18:16:36.177Z,,0,2,,3814.5940000029514,response,ISIC_0975874.JPG,13,ISIC_0012018.JPG,ISIC_0975874.JPG,false,1,keypress(m),500,411624.10000000894,411623.700000003,407792.631,407810,407809.106,411628.358,8,400,27,,ISIC_0012018.JPG
break,html.Screen,4_76_1,2023-11-01T18:16:36.178Z,,0,,,NaN,,,,,,false,,,,411625.799999997,411625.40000000596,,411624.40000000596,,411628.358,8,400,,,
break_continue,html.Screen,4_76_2,2023-11-01T18:16:36.179Z,,0,,,NaN,,,,,,false,,,,411626.40000000596,411626.299999997,,411626,,411628.358,8,400,,,
sequence,flow.Sequence,4_76,2023-11-01T18:16:36.179Z,,0,,,3817.193999996991,completion,,,,,false,,,,411626.700000003,411626.299999997,407792.631,407809.799999997,407809.106,411628.358,8,400,,,
trial,html.Screen,4_77_0,2023-11-01T18:16:39.325Z,,0,2,,3143.2420000089332,response,ISIC_3893354.JPG,11,ISIC_3045939.JPG,ISIC_3045939.JPG,false,0,keypress(z),500,414772.10000000894,414771.60000000894,411611.913,411627,411628.358,414780.502,8,400,28,,ISIC_3893354.JPG
break,html.Screen,4_77_1,2023-11-01T18:16:39.326Z,,0,,,NaN,,,,,,false,,,,414773.799999997,414773.299999997,,414772.40000000596,,414780.502,8,400,,,
break_continue,html.Screen,4_77_2,2023-11-01T18:16:39.327Z,,0,,,NaN,,,,,,false,,,,414774.5,414774.299999997,,414774,,414780.502,8,400,,,
sequence,flow.Sequence,4_77,2023-11-01T18:16:39.327Z,,0,,,3145.9419999970123,completion,,,,,false,,,,414774.799999997,414774.299999997,411611.913,411627,411628.358,414780.502,8,400,,,
trial,html.Screen,4_78_0,2023-11-01T18:16:43.048Z,,0,2,,3714.398000005982,response,ISIC_0170101.JPG,12,ISIC_0000274.JPG,ISIC_0170101.JPG,false,1,keypress(m),500,418495.40000000596,418494.90000000596,414764.125,414775.10000000894,414780.502,418499.739,8,400,29,,ISIC_0000274.JPG
break,html.Screen,4_78_1,2023-11-01T18:16:43.050Z,,0,,,NaN,,,,,,false,,,,418497.10000000894,418496.700000003,,418495.700000003,,418499.739,8,400,,,
break_continue,html.Screen,4_78_2,2023-11-01T18:16:43.050Z,,0,,,NaN,,,,,,false,,,,418497.700000003,418497.60000000894,,418497.299999997,,418499.739,8,400,,,
sequence,flow.Sequence,4_78,2023-11-01T18:16:43.051Z,,0,,,3717.098000008962,completion,,,,,false,,,,418498,418497.60000000894,414764.125,414775,414780.502,418499.739,8,400,,,
trial,html.Screen,4_79_0,2023-11-01T18:16:48.162Z,,0,2,,5109.161000005959,response,ISIC_3444719.JPG,6,ISIC_2038024.JPG,ISIC_2038024.JPG,false,0,keypress(z),500,423609.40000000596,423608.90000000596,418483.103,418498.299999997,418499.739,423619.898,8,400,30,,ISIC_3444719.JPG
break,html.Screen,4_79_1,2023-11-01T18:16:48.164Z,,0,,,NaN,,,,,,false,,,,423611.299999997,423610.799999997,,423609.700000003,,423619.898,8,400,,,
break_continue,html.Screen,4_79_2,2023-11-01T18:16:48.165Z,,0,,,NaN,,,,,,false,,,,423612,423611.700000003,,423611.5,,423619.898,8,400,,,
sequence,flow.Sequence,4_79,2023-11-01T18:16:48.165Z,,0,,,5111.961000002979,completion,,,,,false,,,,423612.299999997,423611.700000003,418483.103,418498.200000003,418499.739,423619.898,8,400,,,
trial,html.Screen,4_80_0,2023-11-01T18:16:51.885Z,,0,2,,3712.702000008954,response,ISIC_2337786.JPG,8,ISIC_9047184.JPG,ISIC_9047184.JPG,false,0,keypress(z),500,427333,427332.60000000894,423603.479,423612.700000003,423619.898,427339.131,8,400,31,,ISIC_2337786.JPG
break,html.Screen,4_80_1,2023-11-01T18:16:51.887Z,,0,,,NaN,,,,,,false,,,,427334.60000000894,427334.299999997,,427333.299999997,,427339.131,8,400,,,
break_continue,html.Screen,4_80_2,2023-11-01T18:16:51.888Z,,0,,,NaN,,,,,,false,,,,427335.299999997,427335.10000000894,,427334.799999997,,427339.131,8,400,,,
sequence,flow.Sequence,4_80,2023-11-01T18:16:51.888Z,,0,,,3715.202000008954,completion,,,,,false,,,,427335.60000000894,427335.10000000894,423603.479,423612.60000000894,423619.898,427339.131,8,400,,,
trial,html.Screen,4_81_0,2023-11-01T18:16:55.428Z,,0,2,,3536.168999997026,response,ISIC_0034316.JPG,6,ISIC_0070888.JPG,ISIC_0070888.JPG,false,0,keypress(z),500,430876,430875.299999997,427322.666,427335.799999997,427339.131,430891.557,8,400,32,,ISIC_0034316.JPG
break,html.Screen,4_81_1,2023-11-01T18:16:55.430Z,,0,,,NaN,,,,,,false,,,,430877.90000000596,430877.5,,430876.40000000596,,430891.557,8,400,,,
break_continue,html.Screen,4_81_2,2023-11-01T18:16:55.431Z,,0,,,NaN,,,,,,false,,,,430878.60000000894,430878.299999997,,430878.10000000894,,430891.557,8,400,,,
sequence,flow.Sequence,4_81,2023-11-01T18:16:55.431Z,,0,,,3539.168999997026,completion,,,,,false,,,,430878.799999997,430878.299999997,427322.666,427335.700000003,427339.131,430891.557,8,400,,,
trial,html.Screen,4_82_0,2023-11-01T18:17:00.572Z,,0,2,,5127.443000000028,response,ISIC_3984167.JPG,7,ISIC_0032993.JPG,ISIC_0032993.JPG,false,0,keypress(z),500,436019.5,436019,430875.131,430879.10000000894,430891.557,436028.402,8,400,33,,ISIC_3984167.JPG
break,html.Screen,4_82_1,2023-11-01T18:17:00.573Z,,0,,,NaN,,,,,,false,,,,436021.10000000894,436020.700000003,,436019.90000000596,,436028.402,8,400,,,
break_continue,html.Screen,4_82_2,2023-11-01T18:17:00.574Z,,0,,,NaN,,,,,,false,,,,436021.799999997,436021.60000000894,,436021.40000000596,,436028.402,8,400,,,
sequence,flow.Sequence,4_82,2023-11-01T18:17:00.574Z,,0,,,5130.043000008969,completion,,,,,false,,,,436022.10000000894,436021.60000000894,430875.131,430879,430891.557,436028.402,8,400,,,
trial,html.Screen,4_83_0,2023-11-01T18:17:03.651Z,,0,2,,3070.198000008939,response,ISIC_0063053.JPG,12,ISIC_9076021.JPG,ISIC_9076021.JPG,false,0,keypress(z),500,439099,439098.60000000894,436011.92,436022.40000000596,436028.402,439114.011,8,400,34,,ISIC_0063053.JPG
break,html.Screen,4_83_1,2023-11-01T18:17:03.653Z,,0,,,NaN,,,,,,false,,,,439100.700000003,439100.299999997,,439099.299999997,,439114.011,8,400,,,
break_continue,html.Screen,4_83_2,2023-11-01T18:17:03.654Z,,0,,,NaN,,,,,,false,,,,439101.5,439101.200000003,,439100.90000000596,,439114.011,8,400,,,
sequence,flow.Sequence,4_83,2023-11-01T18:17:03.654Z,,0,,,3072.7980000029784,completion,,,,,false,,,,439101.700000003,439101.200000003,436011.92,436022.299999997,436028.402,439114.011,8,400,,,
trial,html.Screen,4_84_0,2023-11-01T18:17:07.802Z,,0,2,,4135.389000005962,response,ISIC_0026655.JPG,11,ISIC_3475660.JPG,ISIC_3475660.JPG,false,0,keypress(z),500,443249.90000000596,443249.40000000596,439097.435,439101.90000000596,439114.011,443266.976,8,400,35,,ISIC_0026655.JPG
break,html.Screen,4_84_1,2023-11-01T18:17:07.804Z,,0,,,NaN,,,,,,false,,,,443251.60000000894,443251.299999997,,443250.200000003,,443266.976,8,400,,,
break_continue,html.Screen,4_84_2,2023-11-01T18:17:07.805Z,,0,,,NaN,,,,,,false,,,,443252.299999997,443252.10000000894,,443251.799999997,,443266.976,8,400,,,
sequence,flow.Sequence,4_84,2023-11-01T18:17:07.805Z,,0,,,4138.089000008942,completion,,,,,false,,,,443252.60000000894,443252.10000000894,439097.435,439101.90000000596,439114.011,443266.976,8,400,,,
trial,html.Screen,4_85_0,2023-11-01T18:17:11.779Z,,0,2,,3959.023999999976,response,ISIC_7351939.JPG,14,ISIC_0034076.JPG,ISIC_0034076.JPG,false,0,keypress(z),500,447226.5,447226,443250.291,443252.799999997,443266.976,447236.106,8,400,36,,ISIC_7351939.JPG
break,html.Screen,4_85_1,2023-11-01T18:17:11.780Z,,0,,,NaN,,,,,,false,,,,447228.200000003,447227.799999997,,447226.90000000596,,447236.106,8,400,,,
break_continue,html.Screen,4_85_2,2023-11-01T18:17:11.781Z,,0,,,NaN,,,,,,false,,,,447228.90000000596,447228.700000003,,447228.5,,447236.106,8,400,,,
sequence,flow.Sequence,4_85,2023-11-01T18:17:11.782Z,,0,,,3961.724000002956,completion,,,,,false,,,,447229.200000003,447228.700000003,443250.291,443252.799999997,443266.976,447236.106,8,400,,,
trial,html.Screen,4_86_0,2023-11-01T18:17:14.701Z,,0,2,,2912.5940000029514,response,ISIC_0010852.JPG,7,ISIC_3351880.JPG,ISIC_0010852.JPG,false,1,keypress(m),500,450149.200000003,450148.700000003,447219.552,447229.5,447236.106,450154.819,8,400,37,,ISIC_3351880.JPG
break,html.Screen,4_86_1,2023-11-01T18:17:14.703Z,,0,,,NaN,,,,,,false,,,,450150.799999997,450150.40000000596,,450149.5,,450154.819,8,400,,,
break_continue,html.Screen,4_86_2,2023-11-01T18:17:14.704Z,,0,,,NaN,,,,,,false,,,,450151.40000000596,450151.200000003,,450150.90000000596,,450154.819,8,400,,,
sequence,flow.Sequence,4_86,2023-11-01T18:17:14.704Z,,0,,,2915.0940000029514,completion,,,,,false,,,,450151.90000000596,450151.200000003,447219.552,447229.5,447236.106,450154.819,8,400,,,
trial,html.Screen,4_87_0,2023-11-01T18:17:18.107Z,,0,2,,3400.0810000059428,response,ISIC_4678416.JPG,12,ISIC_4631711.JPG,ISIC_4678416.JPG,false,1,keypress(m),500,453555.200000003,453554.90000000596,450138.236,450152.200000003,450154.819,453581.221,8,400,38,,ISIC_4631711.JPG
break,html.Screen,4_87_1,2023-11-01T18:17:18.109Z,,0,,,NaN,,,,,,false,,,,453556.60000000894,453556.299999997,,453555.5,,453581.221,8,400,,,
break_continue,html.Screen,4_87_2,2023-11-01T18:17:18.110Z,,0,,,NaN,,,,,,false,,,,453557.40000000596,453557.10000000894,,453556.799999997,,453581.221,8,400,,,
sequence,flow.Sequence,4_87,2023-11-01T18:17:18.110Z,,0,,,3402.281000008923,completion,,,,,false,,,,453557.90000000596,453557.10000000894,450138.236,450152,450154.819,453581.221,8,400,,,
trial,html.Screen,4_88_0,2023-11-01T18:17:21.714Z,,0,2,,3579.7789999999804,response,ISIC_2918128.JPG,5,ISIC_1344537.JPG,ISIC_1344537.JPG,false,0,keypress(z),500,457161.40000000596,457161,453540.701,453558.200000003,453581.221,457192.928,8,400,39,,ISIC_2918128.JPG
break,html.Screen,4_88_1,2023-11-01T18:17:21.715Z,,0,,,NaN,,,,,,false,,,,457162.60000000894,457162.299999997,,457161.700000003,,457192.928,8,400,,,
break_continue,html.Screen,4_88_2,2023-11-01T18:17:21.715Z,,0,,,NaN,,,,,,false,,,,457163.10000000894,457163,,457162.799999997,,457192.928,8,400,,,
sequence,flow.Sequence,4_88,2023-11-01T18:17:21.716Z,,0,,,3581.7789999999804,completion,,,,,false,,,,457163.40000000596,457163,453540.701,453558.10000000894,453581.221,457192.928,8,400,,,
trial,html.Screen,4_89_0,2023-11-01T18:17:24.926Z,,0,2,,3179.972000005946,response,ISIC_0773096.JPG,12,ISIC_3744940.JPG,ISIC_3744940.JPG,false,0,keypress(z),500,460373.200000003,460372.90000000596,457176.504,457163.700000003,457192.928,460378.495,8,400,40,,ISIC_0773096.JPG
break,html.Screen,4_89_1,2023-11-01T18:17:24.927Z,,0,,,NaN,,,,,,false,,,,460374.90000000596,460374.5,,460373.60000000894,,460378.495,8,400,,,
break_continue,html.Screen,4_89_2,2023-11-01T18:17:24.928Z,,0,,,NaN,,,,,,false,,,,460375.5,460375.299999997,,460375.10000000894,,460378.495,8,400,,,
sequence,flow.Sequence,4_89,2023-11-01T18:17:24.928Z,,0,,,3182.3719999970053,completion,,,,,false,,,,460375.799999997,460375.299999997,457176.504,457163.60000000894,457192.928,460378.495,8,400,,,
trial,html.Screen,4_90_0,2023-11-01T18:17:28.360Z,,0,2,,3429.1050000089454,response,ISIC_9948815.JPG,12,ISIC_2523776.JPG,ISIC_2523776.JPG,false,0,keypress(z),500,463808,463807.60000000894,460362.056,460376,460378.495,463814.175,8,400,41,,ISIC_9948815.JPG
break,html.Screen,4_90_1,2023-11-01T18:17:28.362Z,,0,,,NaN,,,,,,false,,,,463809.700000003,463809.299999997,,463808.40000000596,,463814.175,8,400,,,
break_continue,html.Screen,4_90_2,2023-11-01T18:17:28.363Z,,0,,,NaN,,,,,,false,,,,463810.40000000596,463810.200000003,,463810,,463814.175,8,400,,,
sequence,flow.Sequence,4_90,2023-11-01T18:17:28.363Z,,0,,,3431.705000002985,completion,,,,,false,,,,463810.700000003,463810.200000003,460362.056,460376,460378.495,463814.175,8,400,,,
trial,html.Screen,4_91_0,2023-11-01T18:17:31.407Z,,0,2,,3040.525000002992,response,ISIC_0711360.JPG,12,ISIC_2077116.JPG,ISIC_0711360.JPG,false,1,keypress(m),500,466855,466854.700000003,463797.713,463810.799999997,463814.175,466866.215,8,400,42,,ISIC_2077116.JPG
break,html.Screen,4_91_1,2023-11-01T18:17:31.409Z,,0,,,NaN,,,,,,false,,,,466856.799999997,466856.40000000596,,466855.40000000596,,466866.215,8,400,,,
break_continue,html.Screen,4_91_2,2023-11-01T18:17:31.410Z,,0,,,NaN,,,,,,false,,,,466857.40000000596,466857.200000003,,466857,,466866.215,8,400,,,
sequence,flow.Sequence,4_91,2023-11-01T18:17:31.410Z,,0,,,3043.025000002992,completion,,,,,false,,,,466857.700000003,466857.200000003,463797.713,463810.799999997,463814.175,466866.215,8,400,,,
trial,html.Screen,4_92_0,2023-11-01T18:17:34.381Z,,0,2,,2962.4850000029546,response,ISIC_0011752.JPG,12,ISIC_1988058.JPG,ISIC_0011752.JPG,false,1,keypress(m),500,469829.10000000894,469828.700000003,466849.784,466858,466866.215,469834.933,8,400,43,,ISIC_1988058.JPG
break,html.Screen,4_92_1,2023-11-01T18:17:34.383Z,,0,,,NaN,,,,,,false,,,,469830.700000003,469830.299999997,,469829.40000000596,,469834.933,8,400,,,
break_continue,html.Screen,4_92_2,2023-11-01T18:17:34.384Z,,0,,,NaN,,,,,,false,,,,469831.299999997,469831.10000000894,,469830.90000000596,,469834.933,8,400,,,
sequence,flow.Sequence,4_92,2023-11-01T18:17:34.384Z,,0,,,2964.885000008915,completion,,,,,false,,,,469831.700000003,469831.10000000894,466849.784,466857.90000000596,466866.215,469834.933,8,400,,,
trial,html.Screen,4_93_0,2023-11-01T18:17:37.621Z,,0,2,,3233.767000002961,response,ISIC_0072694.JPG,15,ISIC_0025061.JPG,ISIC_0025061.JPG,false,0,keypress(z),500,473069.200000003,473068.700000003,469818.473,469831.90000000596,469834.933,473096.37,8,400,44,,ISIC_0072694.JPG
break,html.Screen,4_93_1,2023-11-01T18:17:37.623Z,,0,,,NaN,,,,,,false,,,,473070.799999997,473070.40000000596,,473069.60000000894,,473096.37,8,400,,,
break_continue,html.Screen,4_93_2,2023-11-01T18:17:37.624Z,,0,,,NaN,,,,,,false,,,,473071.5,473071.299999997,,473071,,473096.37,8,400,,,
sequence,flow.Sequence,4_93,2023-11-01T18:17:37.624Z,,0,,,3236.3669999970007,completion,,,,,false,,,,473071.799999997,473071.299999997,469818.473,469831.799999997,469834.933,473096.37,8,400,,,
trial,html.Screen,4_94_0,2023-11-01T18:17:40.462Z,,0,2,,2812.530000005965,response,ISIC_0014270.JPG,13,ISIC_8650516.JPG,ISIC_0014270.JPG,false,1,keypress(m),500,475909.299999997,475908.90000000596,473054.058,473072,473096.37,475922.425,8,400,45,,ISIC_8650516.JPG
break,html.Screen,4_94_1,2023-11-01T18:17:40.463Z,,0,,,NaN,,,,,,false,,,,475910.90000000596,475910.5,,475909.700000003,,475922.425,8,400,,,
break_continue,html.Screen,4_94_2,2023-11-01T18:17:40.464Z,,0,,,NaN,,,,,,false,,,,475911.5,475911.299999997,,475911.10000000894,,475922.425,8,400,,,
sequence,flow.Sequence,4_94,2023-11-01T18:17:40.464Z,,0,,,2814.9299999970244,completion,,,,,false,,,,475911.799999997,475911.299999997,473054.058,473072,473096.37,475922.425,8,400,,,
trial,html.Screen,4_95_0,2023-11-01T18:17:44.131Z,,0,2,,3656.275000002992,response,ISIC_8197240.JPG,11,ISIC_0000349.JPG,ISIC_0000349.JPG,false,0,keypress(z),500,479579.10000000894,479578.700000003,475905.941,475912.10000000894,475922.425,479591.604,8,400,46,,ISIC_8197240.JPG
break,html.Screen,4_95_1,2023-11-01T18:17:44.133Z,,0,,,NaN,,,,,,false,,,,479580.700000003,479580.40000000596,,479579.40000000596,,479591.604,8,400,,,
break_continue,html.Screen,4_95_2,2023-11-01T18:17:44.134Z,,0,,,NaN,,,,,,false,,,,479581.5,479581.299999997,,479581.10000000894,,479591.604,8,400,,,
sequence,flow.Sequence,4_95,2023-11-01T18:17:44.134Z,,0,,,3658.8749999970314,completion,,,,,false,,,,479581.90000000596,479581.299999997,475905.941,475911.90000000596,475922.425,479591.604,8,400,,,
trial,html.Screen,4_96_0,2023-11-01T18:17:47.150Z,,0,2,,3005.9960000089486,response,ISIC_5576354.JPG,15,ISIC_0026868.JPG,ISIC_0026868.JPG,false,0,keypress(z),500,482598,482597.60000000894,479575.141,479582.10000000894,479591.604,482610.335,8,400,47,,ISIC_5576354.JPG
break,html.Screen,4_96_1,2023-11-01T18:17:47.152Z,,0,,,NaN,,,,,,false,,,,482599.5,482599.10000000894,,482598.40000000596,,482610.335,8,400,,,
break_continue,html.Screen,4_96_2,2023-11-01T18:17:47.152Z,,0,,,NaN,,,,,,false,,,,482600,482599.799999997,,482599.700000003,,482610.335,8,400,,,
sequence,flow.Sequence,4_96,2023-11-01T18:17:47.153Z,,0,,,3008.1959999970277,completion,,,,,false,,,,482600.299999997,482599.799999997,479575.141,479582.10000000894,479591.604,482610.335,8,400,,,
trial,html.Screen,4_97_0,2023-11-01T18:17:50.797Z,,0,2,,3633.7650000089197,response,ISIC_4069836.JPG,12,ISIC_9756858.JPG,ISIC_9756858.JPG,false,0,keypress(z),500,486244.5,486244.10000000894,482593.658,482600.5,482610.335,486271.929,8,400,48,,ISIC_4069836.JPG
break,html.Screen,4_97_1,2023-11-01T18:17:50.799Z,,0,,,NaN,,,,,,false,,,,486246.200000003,486245.700000003,,486244.799999997,,486271.929,8,400,,,
break_continue,html.Screen,4_97_2,2023-11-01T18:17:50.799Z,,0,,,NaN,,,,,,false,,,,486246.90000000596,486246.700000003,,486246.40000000596,,486271.929,8,400,,,
sequence,flow.Sequence,4_97,2023-11-01T18:17:50.800Z,,0,,,3636.3650000029593,completion,,,,,false,,,,486247.200000003,486246.700000003,482593.658,482600.5,482610.335,486271.929,8,400,,,
trial,html.Screen,4_98_0,2023-11-01T18:17:54.141Z,,0,2,,3316.370999997016,response,ISIC_0067905.JPG,8,ISIC_0063845.JPG,ISIC_0063845.JPG,false,0,keypress(z),500,489588.700000003,489588.299999997,486229.739,486247.60000000894,486271.929,489615.154,8,400,49,,ISIC_0067905.JPG
break,html.Screen,4_98_1,2023-11-01T18:17:54.142Z,,0,,,NaN,,,,,,false,,,,489590.10000000894,489589.799999997,,489589.200000003,,489615.154,8,400,,,
break_continue,html.Screen,4_98_2,2023-11-01T18:17:54.143Z,,0,,,NaN,,,,,,false,,,,489590.799999997,489590.60000000894,,489590.299999997,,489615.154,8,400,,,
sequence,flow.Sequence,4_98,2023-11-01T18:17:54.143Z,,0,,,3318.671000008937,completion,,,,,false,,,,489591.10000000894,489590.60000000894,486229.739,486247.40000000596,486271.929,489615.154,8,400,,,
trial,html.Screen,4_99_0,2023-11-01T18:17:57.240Z,,0,2,,3071.6459999970393,response,ISIC_0062456.JPG,6,ISIC_0065200.JPG,ISIC_0062456.JPG,false,1,keypress(m),500,492687.299999997,492686.799999997,489598.719,489591.40000000596,489615.154,492700.583,8,400,50,,ISIC_0065200.JPG
break,html.Screen,4_99_1,2023-11-01T18:18:07.245Z,,0,,,10007.113000000012,timeout,,,,,false,,,,502693.10000000894,502691.249,492684.22,492687.60000000894,492700.583,502707.696,8,400,,,
break_continue,html.Screen,4_99_2,2023-11-01T18:18:17.609Z,,0,,,10294.103999997023,response,,,,,false,continue,keypress(Space),,513056.40000000596,513001.799999997,502691.249,502693.700000003,502707.696,513064.61,8,400,,,
sequence,flow.Sequence,4_99,2023-11-01T18:18:17.609Z,,0,,,23386.64599999704,completion,,,,,false,,,,513056.799999997,513001.799999997,489598.719,489591.299999997,489615.154,513064.61,8,400,,,
trial,html.Screen,4_100_0,2023-11-01T18:18:21.378Z,,0,3,,3760.590000002994,response,ISIC_5998926.JPG,9,ISIC_0024507.JPG,ISIC_5998926.JPG,false,1,keypress(m),500,516825.799999997,516825.200000003,513048.131,513057,513064.61,516833.829,8,400,1,,ISIC_0024507.JPG
break,html.Screen,4_100_1,2023-11-01T18:18:21.380Z,,0,,,NaN,,,,,,false,,,,516827.5,516827.10000000894,,516826.200000003,,516833.829,8,400,,,
break_continue,html.Screen,4_100_2,2023-11-01T18:18:21.380Z,,0,,,NaN,,,,,,false,,,,516828.10000000894,516827.90000000596,,516827.60000000894,,516833.829,8,400,,,
sequence,flow.Sequence,4_100,2023-11-01T18:18:21.381Z,,0,,,3763.2900000059744,completion,,,,,false,,,,516828.40000000596,516827.90000000596,513048.131,513057,513064.61,516833.829,8,400,,,
trial,html.Screen,4_101_0,2023-11-01T18:18:24.528Z,,0,3,,3141.7710000089137,response,ISIC_0008510.JPG,8,ISIC_5336548.JPG,ISIC_5336548.JPG,false,0,keypress(z),500,519975.90000000596,519975.60000000894,516817.407,516828.60000000894,516833.829,519986.04,8,400,2,,ISIC_0008510.JPG
break,html.Screen,4_101_1,2023-11-01T18:18:24.530Z,,0,,,NaN,,,,,,false,,,,519977.60000000894,519977.299999997,,519976.299999997,,519986.04,8,400,,,
break_continue,html.Screen,4_101_2,2023-11-01T18:18:24.531Z,,0,,,NaN,,,,,,false,,,,519978.299999997,519978.10000000894,,519977.799999997,,519986.04,8,400,,,
sequence,flow.Sequence,4_101,2023-11-01T18:18:24.531Z,,0,,,3144.2710000089137,completion,,,,,false,,,,519978.60000000894,519978.10000000894,516817.407,516828.5,516833.829,519986.04,8,400,,,
trial,html.Screen,4_102_0,2023-11-01T18:18:28.206Z,,0,3,,3666.7599999970407,response,ISIC_0024565.JPG,7,ISIC_4718313.JPG,ISIC_0024565.JPG,false,1,keypress(m),500,523653.200000003,523652.799999997,519969.603,519978.799999997,519986.04,523678.632,8,400,3,,ISIC_4718313.JPG
break,html.Screen,4_102_1,2023-11-01T18:18:28.207Z,,0,,,NaN,,,,,,false,,,,523654.90000000596,523654.5,,523653.5,,523678.632,8,400,,,
break_continue,html.Screen,4_102_2,2023-11-01T18:18:28.208Z,,0,,,NaN,,,,,,false,,,,523655.799999997,523655.40000000596,,523655.10000000894,,523678.632,8,400,,,
sequence,flow.Sequence,4_102,2023-11-01T18:18:28.209Z,,0,,,3669.3600000059814,completion,,,,,false,,,,523656.299999997,523655.40000000596,519969.603,519978.700000003,519986.04,523678.632,8,400,,,
trial,html.Screen,4_103_0,2023-11-01T18:18:31.157Z,,0,3,,2925.3680000000168,response,ISIC_0000077.JPG,11,ISIC_5783440.JPG,ISIC_0000077.JPG,false,1,keypress(m),500,526604.400000006,526604,523638.748,523656.60000000894,523678.632,526607.186,8,400,4,,ISIC_5783440.JPG
break,html.Screen,4_103_1,2023-11-01T18:18:31.158Z,,0,,,NaN,,,,,,false,,,,526606,526605.700000003,,526604.799999997,,526607.186,8,400,,,
break_continue,html.Screen,4_103_2,2023-11-01T18:18:31.159Z,,0,,,NaN,,,,,,false,,,,526606.700000003,526606.6000000089,,526606.299999997,,526607.186,8,400,,,
sequence,flow.Sequence,4_103,2023-11-01T18:18:31.159Z,,0,,,2927.9680000089575,completion,,,,,false,,,,526607.1000000089,526606.6000000089,523638.748,523656.60000000894,523678.632,526607.186,8,400,,,
trial,html.Screen,4_104_0,2023-11-01T18:18:34.213Z,,0,3,,3052.5140000029933,response,ISIC_0007884.JPG,6,ISIC_0054705.JPG,ISIC_0007884.JPG,false,1,keypress(m),500,529660.5,529659.700000003,526590.771,526607.799999997,526607.186,529676.241,8,400,5,,ISIC_0054705.JPG
break,html.Screen,4_104_1,2023-11-01T18:18:34.214Z,,0,,,NaN,,,,,,false,,,,529662.200000003,529661.900000006,,529660.900000006,,529676.241,8,400,,,
break_continue,html.Screen,4_104_2,2023-11-01T18:18:34.215Z,,0,,,NaN,,,,,,false,,,,529662.799999997,529662.6000000089,,529662.400000006,,529676.241,8,400,,,
sequence,flow.Sequence,4_104,2023-11-01T18:18:34.215Z,,0,,,3055.4140000089537,completion,,,,,false,,,,529663.1000000089,529662.6000000089,526590.771,526607.700000003,526607.186,529676.241,8,400,,,
trial,html.Screen,4_105_0,2023-11-01T18:18:37.680Z,,0,3,,3451.459000002942,response,ISIC_4226975.JPG,12,ISIC_3300710.JPG,ISIC_3300710.JPG,false,0,keypress(z),500,533128.1000000089,533127.700000003,529659.518,529663.400000006,529676.241,533145.019,8,400,6,,ISIC_4226975.JPG
break,html.Screen,4_105_1,2023-11-01T18:18:37.683Z,,0,,,NaN,,,,,,false,,,,533130.200000003,533129.900000006,,533128.700000003,,533145.019,8,400,,,
break_continue,html.Screen,4_105_2,2023-11-01T18:18:37.683Z,,0,,,NaN,,,,,,false,,,,533131,533130.700000003,,533130.5,,533145.019,8,400,,,
sequence,flow.Sequence,4_105,2023-11-01T18:18:37.684Z,,0,,,3454.459000002942,completion,,,,,false,,,,533131.200000003,533130.700000003,529659.518,529663.299999997,529676.241,533145.019,8,400,,,
trial,html.Screen,4_106_0,2023-11-01T18:18:40.610Z,,0,3,,2912.181000003009,response,ISIC_7759376.JPG,7,ISIC_0204355.JPG,ISIC_7759376.JPG,false,1,keypress(m),500,536057.5,536057.200000003,533128.501,533131.400000006,533145.019,536063.675,8,400,7,,ISIC_0204355.JPG
break,html.Screen,4_106_1,2023-11-01T18:18:40.614Z,,0,,,NaN,,,,,,false,,,,536061.400000006,536058.6000000089,,536057.900000006,,536063.675,8,400,,,
break_continue,html.Screen,4_106_2,2023-11-01T18:18:40.614Z,,0,,,NaN,,,,,,false,,,,536062.200000003,536061.900000006,,536061.700000003,,536063.675,8,400,,,
sequence,flow.Sequence,4_106,2023-11-01T18:18:40.615Z,,0,,,2916.8810000059893,completion,,,,,false,,,,536062.5,536061.900000006,533128.501,533131.299999997,533145.019,536063.675,8,400,,,
trial,html.Screen,4_107_0,2023-11-01T18:18:44.225Z,,0,3,,3608.725000005914,response,ISIC_0238824.JPG,14,ISIC_0006772.JPG,ISIC_0238824.JPG,false,1,keypress(m),500,539672.900000006,539672.400000006,536047.224,536062.700000003,536063.675,539699.518,8,400,8,,ISIC_0006772.JPG
break,html.Screen,4_107_1,2023-11-01T18:18:44.226Z,,0,,,NaN,,,,,,false,,,,539674.200000003,539673.900000006,,539673.200000003,,539699.518,8,400,,,
break_continue,html.Screen,4_107_2,2023-11-01T18:18:44.227Z,,0,,,NaN,,,,,,false,,,,539674.799999997,539674.6000000089,,539674.400000006,,539699.518,8,400,,,
sequence,flow.Sequence,4_107,2023-11-01T18:18:44.227Z,,0,,,3610.925000008894,completion,,,,,false,,,,539675.1000000089,539674.6000000089,536047.224,536062.700000003,536063.675,539699.518,8,400,,,
trial,html.Screen,4_108_0,2023-11-01T18:18:48.920Z,,0,3,,4668.18200000294,response,ISIC_0000558.JPG,11,ISIC_0026586.JPG,ISIC_0026586.JPG,false,0,keypress(z),500,544368.200000003,544367.700000003,539683.116,539675.299999997,539699.518,544402.688,8,400,9,,ISIC_0000558.JPG
break,html.Screen,4_108_1,2023-11-01T18:18:48.923Z,,0,,,NaN,,,,,,false,,,,544370.299999997,544369.799999997,,544368.700000003,,544402.688,8,400,,,
break_continue,html.Screen,4_108_2,2023-11-01T18:18:48.924Z,,0,,,NaN,,,,,,false,,,,544371.400000006,544371,,544370.700000003,,544402.688,8,400,,,
sequence,flow.Sequence,4_108,2023-11-01T18:18:48.924Z,,0,,,4671.48199999996,completion,,,,,false,,,,544372,544371,539683.116,539675.200000003,539699.518,544402.688,8,400,,,
trial,html.Screen,4_109_0,2023-11-01T18:18:52.281Z,,0,3,,3325.212000005995,response,ISIC_1379405.JPG,6,ISIC_7096885.JPG,ISIC_1379405.JPG,false,1,keypress(m),500,547728.400000006,547727.900000006,544386.044,544372.400000006,544402.688,547755.328,8,400,10,,ISIC_7096885.JPG
break,html.Screen,4_109_1,2023-11-01T18:18:52.282Z,,0,,,NaN,,,,,,false,,,,547730,547729.700000003,,547728.799999997,,547755.328,8,400,,,
break_continue,html.Screen,4_109_2,2023-11-01T18:18:52.283Z,,0,,,NaN,,,,,,false,,,,547730.700000003,547730.5,,547730.299999997,,547755.328,8,400,,,
sequence,flow.Sequence,4_109,2023-11-01T18:18:52.283Z,,0,,,3327.8120000000345,completion,,,,,false,,,,547731,547730.5,544386.044,544372.299999997,544402.688,547755.328,8,400,,,
trial,html.Screen,4_110_0,2023-11-01T18:18:54.938Z,,0,3,,2630.072000005981,response,ISIC_4201891.JPG,6,ISIC_9002603.JPG,ISIC_4201891.JPG,false,1,keypress(m),500,550386,550385.400000006,547721.692,547731.299999997,547755.328,550390.188,8,400,11,,ISIC_9002603.JPG
break,html.Screen,4_110_1,2023-11-01T18:18:54.940Z,,0,,,NaN,,,,,,false,,,,550387.6000000089,550387.200000003,,550386.299999997,,550390.188,8,400,,,
break_continue,html.Screen,4_110_2,2023-11-01T18:18:54.941Z,,0,,,NaN,,,,,,false,,,,550388.200000003,550388,,550387.799999997,,550390.188,8,400,,,
sequence,flow.Sequence,4_110,2023-11-01T18:18:54.941Z,,0,,,2632.6720000000205,completion,,,,,false,,,,550388.5,550388,547721.692,547731.200000003,547755.328,550390.188,8,400,,,
trial,html.Screen,4_111_0,2023-11-01T18:18:57.762Z,,0,3,,2818.8120000000345,response,ISIC_0028086.JPG,8,ISIC_2700320.JPG,ISIC_0028086.JPG,false,1,keypress(m),500,553209.6000000089,553209,550373.559,550388.799999997,550390.188,553225.728,8,400,12,,ISIC_2700320.JPG
break,html.Screen,4_111_1,2023-11-01T18:18:57.764Z,,0,,,NaN,,,,,,false,,,,553211.6000000089,553211.200000003,,553210.1000000089,,553225.728,8,400,,,
break_continue,html.Screen,4_111_2,2023-11-01T18:18:57.765Z,,0,,,NaN,,,,,,false,,,,553212.299999997,553212,,553211.799999997,,553225.728,8,400,,,
sequence,flow.Sequence,4_111,2023-11-01T18:18:57.765Z,,0,,,2821.8120000000345,completion,,,,,false,,,,553212.5,553212,550373.559,550388.700000003,550390.188,553225.728,8,400,,,
trial,html.Screen,4_112_0,2023-11-01T18:19:01.387Z,,0,3,,3608.4720000029774,response,ISIC_4589609.JPG,10,ISIC_2031626.JPG,ISIC_2031626.JPG,false,0,keypress(z),500,556834.700000003,556834.200000003,553209.046,553212.799999997,553225.728,556844.627,8,400,13,,ISIC_4589609.JPG
break,html.Screen,4_112_1,2023-11-01T18:19:01.389Z,,0,,,NaN,,,,,,false,,,,556836.5,556836.200000003,,556835.200000003,,556844.627,8,400,,,
break_continue,html.Screen,4_112_2,2023-11-01T18:19:01.390Z,,0,,,NaN,,,,,,false,,,,556837.200000003,556836.900000006,,556836.700000003,,556844.627,8,400,,,
sequence,flow.Sequence,4_112,2023-11-01T18:19:01.390Z,,0,,,3611.1720000059577,completion,,,,,false,,,,556837.5,556836.900000006,553209.046,553212.799999997,553225.728,556844.627,8,400,,,
trial,html.Screen,4_113_0,2023-11-01T18:19:05.427Z,,0,3,,4029.8730000000214,response,ISIC_0000143.JPG,6,ISIC_7543736.JPG,ISIC_7543736.JPG,false,0,keypress(z),500,560875,560874.5,556828.217,556837.700000003,556844.627,560880.683,8,400,14,,ISIC_0000143.JPG
break,html.Screen,4_113_1,2023-11-01T18:19:05.429Z,,0,,,NaN,,,,,,false,,,,560876.700000003,560876.400000006,,560875.299999997,,560880.683,8,400,,,
break_continue,html.Screen,4_113_2,2023-11-01T18:19:05.430Z,,0,,,NaN,,,,,,false,,,,560877.5,560877.200000003,,560876.900000006,,560880.683,8,400,,,
sequence,flow.Sequence,4_113,2023-11-01T18:19:05.430Z,,0,,,4032.5730000030017,completion,,,,,false,,,,560877.700000003,560877.200000003,556828.217,556837.700000003,556844.627,560880.683,8,400,,,
trial,html.Screen,4_114_0,2023-11-01T18:19:09.182Z,,0,3,,3748.7170000059996,response,ISIC_0058906.JPG,12,ISIC_0024683.JPG,ISIC_0024683.JPG,false,0,keypress(z),500,564629.700000003,564629.400000006,560864.269,560877.900000006,560880.683,564633.278,8,400,15,,ISIC_0058906.JPG
break,html.Screen,4_114_1,2023-11-01T18:19:09.184Z,,0,,,NaN,,,,,,false,,,,564631.400000006,564631.1000000089,,564630.200000003,,564633.278,8,400,,,
break_continue,html.Screen,4_114_2,2023-11-01T18:19:09.185Z,,0,,,NaN,,,,,,false,,,,564632.200000003,564631.900000006,,564631.700000003,,564633.278,8,400,,,
sequence,flow.Sequence,4_114,2023-11-01T18:19:09.185Z,,0,,,3751.2170000059996,completion,,,,,false,,,,564632.5,564631.900000006,560864.269,560877.900000006,560880.683,564633.278,8,400,,,
trial,html.Screen,4_115_0,2023-11-01T18:19:13.052Z,,0,3,,3866.2219999999506,response,ISIC_0011035.JPG,8,ISIC_0026781.JPG,ISIC_0011035.JPG,false,1,keypress(m),500,568499.900000006,568499.5,564616.764,564632.700000003,564633.278,568502.569,8,400,16,,ISIC_0026781.JPG
break,html.Screen,4_115_1,2023-11-01T18:19:13.054Z,,0,,,NaN,,,,,,false,,,,568501.5,568501.1000000089,,568500.299999997,,568502.569,8,400,,,
break_continue,html.Screen,4_115_2,2023-11-01T18:19:13.055Z,,0,,,NaN,,,,,,false,,,,568502.200000003,568502,,568501.700000003,,568502.569,8,400,,,
sequence,flow.Sequence,4_115,2023-11-01T18:19:13.055Z,,0,,,3868.7219999999506,completion,,,,,false,,,,568502.400000006,568502,564616.764,564632.6000000089,564633.278,568502.569,8,400,,,
trial,html.Screen,4_116_0,2023-11-01T18:19:16.844Z,,0,3,,3788.230999997002,response,ISIC_0003117.JPG,11,ISIC_3303825.JPG,ISIC_0003117.JPG,false,1,keypress(m),500,572291.299999997,572290.799999997,568486.12,568503.200000003,568502.569,572305.174,8,400,17,,ISIC_3303825.JPG
break,html.Screen,4_116_1,2023-11-01T18:19:16.846Z,,0,,,NaN,,,,,,false,,,,572293.200000003,572292.799999997,,572291.799999997,,572305.174,8,400,,,
break_continue,html.Screen,4_116_2,2023-11-01T18:19:16.846Z,,0,,,NaN,,,,,,false,,,,572293.799999997,572293.6000000089,,572293.400000006,,572305.174,8,400,,,
sequence,flow.Sequence,4_116,2023-11-01T18:19:16.847Z,,0,,,3791.031000008923,completion,,,,,false,,,,572294.200000003,572293.6000000089,568486.12,568503.1000000089,568502.569,572305.174,8,400,,,
trial,html.Screen,4_117_0,2023-11-01T18:19:19.816Z,,0,3,,2957.826000000001,response,ISIC_8015541.JPG,12,ISIC_3913709.JPG,ISIC_8015541.JPG,false,1,keypress(m),500,575263.299999997,575263,572288.732,572294.400000006,572305.174,575273.865,8,400,18,,ISIC_3913709.JPG
break,html.Screen,4_117_1,2023-11-01T18:19:19.817Z,,0,,,NaN,,,,,,false,,,,575265,575264.6000000089,,575263.700000003,,575273.865,8,400,,,
break_continue,html.Screen,4_117_2,2023-11-01T18:19:19.818Z,,0,,,NaN,,,,,,false,,,,575265.799999997,575265.5,,575265.299999997,,575273.865,8,400,,,
sequence,flow.Sequence,4_117,2023-11-01T18:19:19.818Z,,0,,,2960.326000000001,completion,,,,,false,,,,575266,575265.5,572288.732,572294.299999997,572305.174,575273.865,8,400,,,
trial,html.Screen,4_118_0,2023-11-01T18:19:23.122Z,,0,3,,3295.23500000895,response,ISIC_5223280.JPG,6,ISIC_6155782.JPG,ISIC_6155782.JPG,false,0,keypress(z),500,578569.5,578569.1000000089,575257.432,575266.299999997,575273.865,578576.148,8,400,19,,ISIC_5223280.JPG
break,html.Screen,4_118_1,2023-11-01T18:19:23.123Z,,0,,,NaN,,,,,,false,,,,578570.900000006,578570.6000000089,,578569.799999997,,578576.148,8,400,,,
break_continue,html.Screen,4_118_2,2023-11-01T18:19:23.124Z,,0,,,NaN,,,,,,false,,,,578571.5,578571.299999997,,578571.1000000089,,578576.148,8,400,,,
sequence,flow.Sequence,4_118,2023-11-01T18:19:23.124Z,,0,,,3297.434999997029,completion,,,,,false,,,,578571.700000003,578571.299999997,575257.432,575266.200000003,575273.865,578576.148,8,400,,,
trial,html.Screen,4_119_0,2023-11-01T18:19:26.924Z,,0,3,,3795.3519999999553,response,ISIC_0010655.JPG,14,ISIC_0056799.JPG,ISIC_0056799.JPG,false,0,keypress(z),500,582371.799999997,582371.5,578559.768,578572,578576.148,582378.756,8,400,20,,ISIC_0010655.JPG
break,html.Screen,4_119_1,2023-11-01T18:19:26.926Z,,0,,,NaN,,,,,,false,,,,582373.5,582373.200000003,,582372.1000000089,,582378.756,8,400,,,
break_continue,html.Screen,4_119_2,2023-11-01T18:19:26.927Z,,0,,,NaN,,,,,,false,,,,582374.200000003,582374,,582373.799999997,,582378.756,8,400,,,
sequence,flow.Sequence,4_119,2023-11-01T18:19:26.927Z,,0,,,3797.8519999999553,completion,,,,,false,,,,582374.5,582374,578559.768,578571.900000006,578576.148,582378.756,8,400,,,
trial,html.Screen,4_120_0,2023-11-01T18:19:30.922Z,,0,3,,3990.5439999969676,response,ISIC_0005879.JPG,7,ISIC_4067693.JPG,ISIC_4067693.JPG,false,0,keypress(z),500,586369.700000003,586369.299999997,582362.343,582374.6000000089,582378.756,586381.513,8,400,21,,ISIC_0005879.JPG
break,html.Screen,4_120_1,2023-11-01T18:19:30.924Z,,0,,,NaN,,,,,,false,,,,586371.299999997,586371,,586370.1000000089,,586381.513,8,400,,,
break_continue,html.Screen,4_120_2,2023-11-01T18:19:30.924Z,,0,,,NaN,,,,,,false,,,,586372,586371.799999997,,586371.5,,586381.513,8,400,,,
sequence,flow.Sequence,4_120,2023-11-01T18:19:30.925Z,,0,,,3993.0439999969676,completion,,,,,false,,,,586372.299999997,586371.799999997,582362.343,582374.6000000089,582378.756,586381.513,8,400,,,
trial,html.Screen,4_121_0,2023-11-01T18:19:34.355Z,,0,3,,3420.5870000089053,response,ISIC_0004932.JPG,15,ISIC_6201695.JPG,ISIC_6201695.JPG,false,0,keypress(z),500,589802.700000003,589802.1000000089,586364.993,586372.6000000089,586381.513,589817.18,8,400,22,,ISIC_0004932.JPG
break,html.Screen,4_121_1,2023-11-01T18:19:34.357Z,,0,,,NaN,,,,,,false,,,,589804.299999997,589804,,589803.1000000089,,589817.18,8,400,,,
break_continue,html.Screen,4_121_2,2023-11-01T18:19:34.357Z,,0,,,NaN,,,,,,false,,,,589805,589804.900000006,,589804.6000000089,,589817.18,8,400,,,
sequence,flow.Sequence,4_121,2023-11-01T18:19:34.358Z,,0,,,3423.387000005925,completion,,,,,false,,,,589805.299999997,589804.900000006,586364.993,586372.6000000089,586381.513,589817.18,8,400,,,
trial,html.Screen,4_122_0,2023-11-01T18:19:38.667Z,,0,3,,4296.6199999969685,response,ISIC_2349743.JPG,12,ISIC_3690890.JPG,ISIC_2349743.JPG,false,1,keypress(m),500,594114.700000003,594113.799999997,589800.856,589805.6000000089,589817.18,594120.123,8,400,23,,ISIC_3690890.JPG
break,html.Screen,4_122_1,2023-11-01T18:19:38.669Z,,0,,,NaN,,,,,,false,,,,594116.6000000089,594116.1000000089,,594115.200000003,,594120.123,8,400,,,
break_continue,html.Screen,4_122_2,2023-11-01T18:19:38.670Z,,0,,,NaN,,,,,,false,,,,594117.400000006,594117.1000000089,,594116.900000006,,594120.123,8,400,,,
sequence,flow.Sequence,4_122,2023-11-01T18:19:38.670Z,,0,,,4299.9200000088895,completion,,,,,false,,,,594117.799999997,594117.1000000089,589800.856,589805.5,589817.18,594120.123,8,400,,,
trial,html.Screen,4_123_0,2023-11-01T18:19:43.077Z,,0,3,,4403.777000005939,response,ISIC_0011527.JPG,7,ISIC_1461507.JPG,ISIC_0011527.JPG,false,1,keypress(m),500,598524.400000006,598523.900000006,594103.704,594118,594120.123,598539.807,8,400,24,,ISIC_1461507.JPG
break,html.Screen,4_123_1,2023-11-01T18:19:43.078Z,,0,,,NaN,,,,,,false,,,,598526,598525.6000000089,,598524.799999997,,598539.807,8,400,,,
break_continue,html.Screen,4_123_2,2023-11-01T18:19:43.079Z,,0,,,NaN,,,,,,false,,,,598526.799999997,598526.400000006,,598526.299999997,,598539.807,8,400,,,
sequence,flow.Sequence,4_123,2023-11-01T18:19:43.080Z,,0,,,4406.277000005939,completion,,,,,false,,,,598527.1000000089,598526.400000006,594103.704,594118,594120.123,598539.807,8,400,,,
trial,html.Screen,4_124_0,2023-11-01T18:19:46.371Z,,0,3,,3278.19299999997,response,ISIC_9014036.JPG,15,ISIC_0010235.JPG,ISIC_0010235.JPG,false,0,keypress(z),500,601818.299999997,601818,598523.408,598527.400000006,598539.807,601825.424,8,400,25,,ISIC_9014036.JPG
break,html.Screen,4_124_1,2023-11-01T18:19:46.372Z,,0,,,NaN,,,,,,false,,,,601819.900000006,601819.5,,601818.6000000089,,601825.424,8,400,,,
break_continue,html.Screen,4_124_2,2023-11-01T18:19:46.373Z,,0,,,NaN,,,,,,false,,,,601820.6000000089,601820.200000003,,601820.1000000089,,601825.424,8,400,,,
sequence,flow.Sequence,4_124,2023-11-01T18:19:46.373Z,,0,,,3280.3930000029504,completion,,,,,false,,,,601820.900000006,601820.200000003,598523.408,598527.299999997,598539.807,601825.424,8,400,,,
trial,html.Screen,4_125_0,2023-11-01T18:19:49.726Z,,0,3,,3348.1760000089416,response,ISIC_0034120.JPG,6,ISIC_3230874.JPG,ISIC_3230874.JPG,false,0,keypress(z),500,605174.1000000089,605173.6000000089,601808.944,601821.299999997,601825.424,605177.704,8,400,26,,ISIC_0034120.JPG
break,html.Screen,4_125_1,2023-11-01T18:19:49.728Z,,0,,,NaN,,,,,,false,,,,605175.799999997,605175.5,,605174.700000003,,605177.704,8,400,,,
break_continue,html.Screen,4_125_2,2023-11-01T18:19:49.729Z,,0,,,NaN,,,,,,false,,,,605176.5,605176.299999997,,605176,,605177.704,8,400,,,
sequence,flow.Sequence,4_125,2023-11-01T18:19:49.729Z,,0,,,3350.8759999970207,completion,,,,,false,,,,605176.900000006,605176.299999997,601808.944,601821.1000000089,601825.424,605177.704,8,400,,,
