sender,sender_type,sender_id,timestamp,meta,,blockNo,condition,duration,ended_on,img_left,img_reveal,img_right,loser,practice,response,response_action,selection_duration,time_commit,time_end,time_render,time_run,time_show,time_switch,total_blocks,total_trials,trialNo,url,winner
informed_consent,html.Screen,0,2023-10-31T19:23:26.130Z,"{""labjs_version"":""20.2.4"",""labjs_build"":{""flavor"":""production"",""commit"":""f5b4a49f956347addd546a832a3327688c2c0fef""},""location"":""https://run.pavlovia.org/MurrayBennett/melanoma-2afc/?participant=67597&platform=sona"",""userAgent"":""Mozilla/5.0 (Macintosh; Intel Mac OS X 10_15_7) AppleWebKit/537.36 (KHTML, like Gecko) Chrome/118.0.0.0 Safari/537.36"",""platform"":""MacIntel"",""language"":""en-US"",""locale"":""en-US"",""timeZone"":""America/Chicago"",""timezoneOffset"":300,""screen_width"":1710,""screen_height"":1112,""scroll_width"":1710,""scroll_height"":839,""window_innerWidth"":1710,""window_innerHeight"":887,""devicePixelRatio"":2}",,,,3724.44300000298,response,,,,,,consent,click button,,5859.9000000059605,5857.70000000298,1966.597,2133.5,2133.257,5866.441,,,,"{""participant"":""67597"",""platform"":""sona""}",
Welcome,html.Screen,1,2023-10-31T19:23:44.757Z,,,,uniform,18616.95900000596,response,,,,,,continue,click button,,24486.70000000298,24483.40000000596,5849.775,5860.20000000298,5866.441,24499.692,,,,,
trial,html.Screen,2_0_0,2023-10-31T19:23:53.372Z,,0,0,,8601.10799999702,response,ISIC_0025593.JPG,,ISIC_0063388.JPG,ISIC_0025593.JPG,true,1,keypress(m),500,33101.70000000298,33100.79999999702,24483.026,24487.20000000298,24499.692,33116.014,1,6,1,,ISIC_0063388.JPG
sequence,flow.Sequence,2_0,2023-10-31T19:23:53.373Z,,0,,,8601.10799999702,completion,,,,,true,,,,33102.5,33100.79999999702,24483.026,24487.20000000298,24499.692,33116.014,1,6,,,
trial,html.Screen,2_1_0,2023-10-31T19:24:05.394Z,,0,0,,23216.532999999996,timeout,ISIC_1309015.JPG,,ISIC_0028178.JPG,,true,,,500,45124,45122.70000000298,33099.348,33102.59999999404,33116.014,56332.547,1,6,2,,
sequence,flow.Sequence,2_1,2023-10-31T19:24:05.395Z,,0,,,12006.686000002977,completion,,,,,true,,,,45124.29999999702,45122.70000000298,33099.348,33102.59999999404,33116.014,56332.547,1,6,,,
trial,html.Screen,2_2_0,2023-10-31T19:24:26.104Z,,0,0,,9500.853000005962,response,ISIC_0031128.JPG,,ISIC_3314853.JPG,ISIC_0031128.JPG,true,1,keypress(m),500,65833.90000000596,65833.40000000596,56315.881,45124.5,56332.547,65848.833,1,6,3,,ISIC_3314853.JPG
sequence,flow.Sequence,2_2,2023-10-31T19:24:26.105Z,,0,,,9500.853000005962,completion,,,,,true,,,,65834.40000000596,65833.40000000596,56315.881,45124.29999999702,56332.547,65848.833,1,6,,,
trial,html.Screen,2_3_0,2023-10-31T19:24:30.862Z,,0,0,,4742.466999997021,response,ISIC_0031612.JPG,,ISIC_8980141.JPG,ISIC_0031612.JPG,true,1,keypress(m),500,70591.79999999702,70591.29999999702,65832.167,65834.59999999404,65848.833,70598.908,1,6,4,,ISIC_8980141.JPG
sequence,flow.Sequence,2_3,2023-10-31T19:24:30.863Z,,0,,,4742.466999997021,completion,,,,,true,,,,70592.40000000596,70591.29999999702,65832.167,65834.59999999404,65848.833,70598.908,1,6,,,
trial,html.Screen,2_4_0,2023-10-31T19:24:35.779Z,,0,0,,4908.992000005965,response,ISIC_9721604.JPG,,ISIC_1197737.JPG,ISIC_1197737.JPG,true,0,keypress(z),500,75508,75507.90000000596,70582.242,70592.70000000298,70598.908,75515.378,1,6,5,,ISIC_9721604.JPG
sequence,flow.Sequence,2_4,2023-10-31T19:24:35.779Z,,0,,,4908.992000005965,completion,,,,,true,,,,75508.09999999404,75507.90000000596,70582.242,70592.59999999404,70598.908,75515.378,1,6,,,
trial,html.Screen,2_5_0,2023-10-31T19:24:39.304Z,,0,0,,3517.421999997023,response,ISIC_0010681.JPG,,ISIC_0025346.JPG,ISIC_0025346.JPG,true,0,keypress(z),500,79033.29999999702,79032.79999999702,75498.712,75508.29999999702,75515.378,79048.843,1,6,6,,ISIC_0010681.JPG
sequence,flow.Sequence,2_5,2023-10-31T19:24:39.305Z,,0,,,3517.421999997023,completion,,,,,true,,,,79033.79999999702,79032.79999999702,75498.712,75508.20000000298,75515.378,79048.843,1,6,,,
loop,flow.Loop,2,2023-10-31T19:24:39.305Z,,,,,54533.107999997024,completion,,,,,true,,,,79034.20000000298,79032.79999999702,24483.026,24487.09999999404,24499.692,79048.843,1,6,,,
exp_instructions,html.Screen,3,2023-10-31T19:24:47.501Z,,,,,8179.756999994046,response,,,,,,continue,keypress(Space),,87230.20000000298,87228.59999999404,79032.177,79034.40000000596,79048.843,87232.105,,,,,
trial,html.Screen,4_0_0,2023-10-31T19:24:51.749Z,,0,1,,4245.7950000059645,response,ISIC_7748144.JPG,10,ISIC_0058164.JPG,ISIC_0058164.JPG,false,0,keypress(z),500,91478.5,91477.90000000596,87215.439,87230.40000000596,87232.105,91481.935,8,400,1,,ISIC_7748144.JPG
break,html.Screen,4_0_1,2023-10-31T19:24:51.751Z,,0,,,NaN,,,,,,false,,,,91480.29999999702,91479.90000000596,,91478.79999999702,,91481.935,8,400,,,
break_continue,html.Screen,4_0_2,2023-10-31T19:24:51.752Z,,0,,,NaN,,,,,,false,,,,91480.59999999404,91480.5,,91480.40000000596,,91481.935,8,400,,,
sequence,flow.Sequence,4_0,2023-10-31T19:24:51.752Z,,0,,,4248.395000000004,completion,,,,,false,,,,91480.79999999702,91480.5,87215.439,87230.40000000596,87232.105,91481.935,8,400,,,
trial,html.Screen,4_1_0,2023-10-31T19:24:57.452Z,,0,1,,5698.664999994042,response,ISIC_1988335.JPG,7,ISIC_8893501.JPG,ISIC_8893501.JPG,false,0,keypress(z),500,97181.09999999404,97180.59999999404,91465.269,91480.90000000596,91481.935,97198.631,8,400,2,,ISIC_1988335.JPG
break,html.Screen,4_1_1,2023-10-31T19:24:57.454Z,,0,,,NaN,,,,,,false,,,,97182.5,97182.29999999702,,97181.5,,97198.631,8,400,,,
break_continue,html.Screen,4_1_2,2023-10-31T19:24:57.454Z,,0,,,NaN,,,,,,false,,,,97182.70000000298,97182.70000000298,,97182.59999999404,,97198.631,8,400,,,
sequence,flow.Sequence,4_1,2023-10-31T19:24:57.454Z,,0,,,5700.765000002983,completion,,,,,false,,,,97182.90000000596,97182.70000000298,91465.269,91480.79999999702,91481.935,97198.631,8,400,,,
trial,html.Screen,4_2_0,2023-10-31T19:25:02.885Z,,0,1,,5415.069000002986,response,ISIC_0010194.JPG,7,ISIC_3072382.JPG,ISIC_3072382.JPG,false,0,keypress(z),500,102614.20000000298,102613.70000000298,97181.965,97183,97198.631,102615.081,8,400,3,,ISIC_0010194.JPG
break,html.Screen,4_2_1,2023-10-31T19:25:02.886Z,,0,,,NaN,,,,,,false,,,,102615,102614.79999999702,,102614.29999999702,,102615.081,8,400,,,
break_continue,html.Screen,4_2_2,2023-10-31T19:25:02.886Z,,0,,,NaN,,,,,,false,,,,102615.29999999702,102615.29999999702,,102615.09999999404,,102615.081,8,400,,,
sequence,flow.Sequence,4_2,2023-10-31T19:25:02.887Z,,0,,,5416.668999997026,completion,,,,,false,,,,102615.40000000596,102615.29999999702,97181.965,97183,97198.631,102615.081,8,400,,,
trial,html.Screen,4_3_0,2023-10-31T19:25:09.934Z,,0,1,,7046.819000005955,response,ISIC_0010468.JPG,8,ISIC_0033081.JPG,ISIC_0010468.JPG,false,1,keypress(m),500,109662.59999999404,109661.90000000596,102598.415,102615.40000000596,102615.081,109665.062,8,400,4,,ISIC_0033081.JPG
break,html.Screen,4_3_1,2023-10-31T19:25:09.936Z,,0,,,NaN,,,,,,false,,,,109664.70000000298,109664.40000000596,,109663.29999999702,,109665.062,8,400,,,
break_continue,html.Screen,4_3_2,2023-10-31T19:25:09.936Z,,0,,,NaN,,,,,,false,,,,109665.29999999702,109665.09999999404,,109664.90000000596,,109665.062,8,400,,,
sequence,flow.Sequence,4_3,2023-10-31T19:25:09.937Z,,0,,,7050.018999994034,completion,,,,,false,,,,109665.40000000596,109665.09999999404,102598.415,102615.40000000596,102615.081,109665.062,8,400,,,
trial,html.Screen,4_4_0,2023-10-31T19:25:20.038Z,,0,1,,10100.937999999995,response,ISIC_0030818.JPG,9,ISIC_0029092.JPG,ISIC_0029092.JPG,false,0,keypress(z),500,119766.40000000596,119766,109648.396,109665.5,109665.062,119781.635,8,400,5,,ISIC_0030818.JPG
break,html.Screen,4_4_1,2023-10-31T19:25:20.039Z,,0,,,NaN,,,,,,false,,,,119767.5,119767.29999999702,,119766.70000000298,,119781.635,8,400,,,
break_continue,html.Screen,4_4_2,2023-10-31T19:25:20.040Z,,0,,,NaN,,,,,,false,,,,119768.29999999702,119767.90000000596,,119767.70000000298,,119781.635,8,400,,,
sequence,flow.Sequence,4_4,2023-10-31T19:25:20.040Z,,0,,,10102.838000005955,completion,,,,,false,,,,119768.90000000596,119767.90000000596,109648.396,109665.5,109665.062,119781.635,8,400,,,
trial,html.Screen,4_5_0,2023-10-31T19:25:25.374Z,,0,1,,5320.664999997025,response,ISIC_0002901.JPG,5,ISIC_2721699.JPG,ISIC_2721699.JPG,false,0,keypress(z),500,125102.90000000596,125102.29999999702,119764.969,119769,119781.635,125114.755,8,400,6,,ISIC_0002901.JPG
break,html.Screen,4_5_1,2023-10-31T19:25:25.376Z,,0,,,NaN,,,,,,false,,,,125104.70000000298,125104.40000000596,,125103.40000000596,,125114.755,8,400,,,
break_continue,html.Screen,4_5_2,2023-10-31T19:25:25.379Z,,0,,,NaN,,,,,,false,,,,125107.20000000298,125105,,125104.90000000596,,125114.755,8,400,,,
sequence,flow.Sequence,4_5,2023-10-31T19:25:25.379Z,,0,,,5323.365000000005,completion,,,,,false,,,,125107.5,125105,119764.969,119769,119781.635,125114.755,8,400,,,
trial,html.Screen,4_6_0,2023-10-31T19:25:28.791Z,,0,1,,3404.145000005956,response,ISIC_0046729.JPG,5,ISIC_0011733.JPG,ISIC_0011733.JPG,false,0,keypress(z),500,128519.20000000298,128518.90000000596,125098.089,125107.59999999404,125114.755,128531.285,8,400,7,,ISIC_0046729.JPG
break,html.Screen,4_6_1,2023-10-31T19:25:28.793Z,,0,,,NaN,,,,,,false,,,,128521,128520.70000000298,,128519.59999999404,,128531.285,8,400,,,
break_continue,html.Screen,4_6_2,2023-10-31T19:25:28.793Z,,0,,,NaN,,,,,,false,,,,128521.40000000596,128521.20000000298,,128521.09999999404,,128531.285,8,400,,,
sequence,flow.Sequence,4_6,2023-10-31T19:25:28.793Z,,0,,,3406.4450000029756,completion,,,,,false,,,,128521.5,128521.20000000298,125098.089,125107.5,125114.755,128531.285,8,400,,,
trial,html.Screen,4_7_0,2023-10-31T19:25:32.588Z,,0,1,,3784.814999994036,response,ISIC_2056104.JPG,8,ISIC_6268546.JPG,ISIC_2056104.JPG,false,1,keypress(m),500,132316.40000000596,132316.09999999404,128514.619,128521.59999999404,128531.285,132331.395,8,400,8,,ISIC_6268546.JPG
break,html.Screen,4_7_1,2023-10-31T19:25:32.590Z,,0,,,NaN,,,,,,false,,,,132318,132317.70000000298,,132316.90000000596,,132331.395,8,400,,,
break_continue,html.Screen,4_7_2,2023-10-31T19:25:32.590Z,,0,,,NaN,,,,,,false,,,,132318.59999999404,132318.5,,132318.20000000298,,132331.395,8,400,,,
sequence,flow.Sequence,4_7,2023-10-31T19:25:32.590Z,,0,,,3787.2149999999965,completion,,,,,false,,,,132318.90000000596,132318.5,128514.619,128521.59999999404,128531.285,132331.395,8,400,,,
trial,html.Screen,4_8_0,2023-10-31T19:25:36.977Z,,0,1,,4373.005000005971,response,ISIC_0031742.JPG,8,ISIC_0033998.JPG,ISIC_0031742.JPG,false,1,keypress(m),500,136705.09999999404,136704.40000000596,132314.729,132319,132331.395,136714.553,8,400,9,,ISIC_0033998.JPG
break,html.Screen,4_8_1,2023-10-31T19:25:36.978Z,,0,,,NaN,,,,,,false,,,,136706.59999999404,136706.20000000298,,136705.5,,136714.553,8,400,,,
break_continue,html.Screen,4_8_2,2023-10-31T19:25:36.979Z,,0,,,NaN,,,,,,false,,,,136706.79999999702,136706.79999999702,,136706.70000000298,,136714.553,8,400,,,
sequence,flow.Sequence,4_8,2023-10-31T19:25:36.979Z,,0,,,4375.40499999703,completion,,,,,false,,,,136706.90000000596,136706.79999999702,132314.729,132318.90000000596,132331.395,136714.553,8,400,,,
trial,html.Screen,4_9_0,2023-10-31T19:25:42.519Z,,0,1,,5531.647000002966,response,ISIC_0054748.JPG,7,ISIC_0011125.JPG,ISIC_0011125.JPG,false,0,keypress(z),500,142246.90000000596,142246.20000000298,136697.887,136707,136714.553,142264.642,8,400,10,,ISIC_0054748.JPG
break,html.Screen,4_9_1,2023-10-31T19:25:42.520Z,,0,,,NaN,,,,,,false,,,,142248.5,142248.20000000298,,142247.40000000596,,142264.642,8,400,,,
break_continue,html.Screen,4_9_2,2023-10-31T19:25:42.521Z,,0,,,NaN,,,,,,false,,,,142249,142248.90000000596,,142248.70000000298,,142264.642,8,400,,,
sequence,flow.Sequence,4_9,2023-10-31T19:25:42.521Z,,0,,,5534.347000005946,completion,,,,,false,,,,142249.20000000298,142248.90000000596,136697.887,136707,136714.553,142264.642,8,400,,,
trial,html.Screen,4_10_0,2023-10-31T19:25:48.400Z,,0,1,,5863.657999997027,response,ISIC_4438786.JPG,7,ISIC_0028579.JPG,ISIC_0028579.JPG,false,0,keypress(z),500,148128.59999999404,148128.29999999702,142247.976,142249.5,142264.642,148131.074,8,400,11,,ISIC_4438786.JPG
break,html.Screen,4_10_1,2023-10-31T19:25:48.401Z,,0,,,NaN,,,,,,false,,,,148129.59999999404,148129.29999999702,,148128.90000000596,,148131.074,8,400,,,
break_continue,html.Screen,4_10_2,2023-10-31T19:25:48.402Z,,0,,,NaN,,,,,,false,,,,148130.09999999404,148130,,148129.79999999702,,148131.074,8,400,,,
sequence,flow.Sequence,4_10,2023-10-31T19:25:48.402Z,,0,,,5865.358000000007,completion,,,,,false,,,,148130.09999999404,148130,142247.976,142249.5,142264.642,148131.074,8,400,,,
trial,html.Screen,4_11_0,2023-10-31T19:25:59.737Z,,0,1,,11333.626000002987,response,ISIC_0060832.JPG,8,ISIC_8865595.JPG,ISIC_8865595.JPG,false,0,keypress(z),500,159465.20000000298,159464.70000000298,148114.408,148130.29999999702,148131.074,159497.55,8,400,12,,ISIC_0060832.JPG
break,html.Screen,4_11_1,2023-10-31T19:25:59.738Z,,0,,,NaN,,,,,,false,,,,159466.09999999404,159465.90000000596,,159465.5,,159497.55,8,400,,,
break_continue,html.Screen,4_11_2,2023-10-31T19:25:59.738Z,,0,,,NaN,,,,,,false,,,,159466.40000000596,159466.40000000596,,159466.20000000298,,159497.55,8,400,,,
sequence,flow.Sequence,4_11,2023-10-31T19:25:59.739Z,,0,,,11335.326000005967,completion,,,,,false,,,,159466.59999999404,159466.40000000596,148114.408,148130.20000000298,148131.074,159497.55,8,400,,,
trial,html.Screen,4_12_0,2023-10-31T19:26:08.081Z,,0,1,,8310.350000005972,response,ISIC_5048124.JPG,9,ISIC_0001743.JPG,ISIC_5048124.JPG,false,1,keypress(m),500,167808.79999999702,167807.90000000596,159480.884,159466.70000000298,159497.55,167814.27,8,400,13,,ISIC_0001743.JPG
break,html.Screen,4_12_1,2023-10-31T19:26:08.082Z,,0,,,NaN,,,,,,false,,,,167810,167809.90000000596,,167809.29999999702,,167814.27,8,400,,,
break_continue,html.Screen,4_12_2,2023-10-31T19:26:08.082Z,,0,,,NaN,,,,,,false,,,,167810.40000000596,167810.29999999702,,167810.09999999404,,167814.27,8,400,,,
sequence,flow.Sequence,4_12,2023-10-31T19:26:08.083Z,,0,,,8312.749999997031,completion,,,,,false,,,,167810.40000000596,167810.29999999702,159480.884,159466.70000000298,159497.55,167814.27,8,400,,,
trial,html.Screen,4_13_0,2023-10-31T19:26:14.824Z,,0,1,,6736.930000002991,response,ISIC_3147084.JPG,8,ISIC_0000541.JPG,ISIC_0000541.JPG,false,0,keypress(z),500,174552,174551.20000000298,167797.604,167810.59999999404,167814.27,174564,8,400,14,,ISIC_3147084.JPG
break,html.Screen,4_13_1,2023-10-31T19:26:14.826Z,,0,,,NaN,,,,,,false,,,,174553.29999999702,174553.09999999404,,174552.5,,174564,8,400,,,
break_continue,html.Screen,4_13_2,2023-10-31T19:26:14.826Z,,0,,,NaN,,,,,,false,,,,174553.79999999702,174553.59999999404,,174553.5,,174564,8,400,,,
sequence,flow.Sequence,4_13,2023-10-31T19:26:14.826Z,,0,,,6739.32999999405,completion,,,,,false,,,,174554,174553.59999999404,167797.604,167810.59999999404,167814.27,174564,8,400,,,
trial,html.Screen,4_14_0,2023-10-31T19:26:24.439Z,,0,1,,9597,response,ISIC_0031034.JPG,9,ISIC_0011972.JPG,ISIC_0031034.JPG,false,1,keypress(m),500,184167,184161,174547.334,174554.20000000298,174564,184180.544,8,400,15,,ISIC_0011972.JPG
break,html.Screen,4_14_1,2023-10-31T19:26:24.440Z,,0,,,NaN,,,,,,false,,,,184168.09999999404,184167.79999999702,,184167.40000000596,,184180.544,8,400,,,
break_continue,html.Screen,4_14_2,2023-10-31T19:26:24.441Z,,0,,,NaN,,,,,,false,,,,184168.29999999702,184168.20000000298,,184168.09999999404,,184180.544,8,400,,,
sequence,flow.Sequence,4_14,2023-10-31T19:26:24.441Z,,0,,,9604.20000000298,completion,,,,,false,,,,184168.40000000596,184168.20000000298,174547.334,174554.20000000298,174564,184180.544,8,400,,,
trial,html.Screen,4_15_0,2023-10-31T19:26:29.792Z,,0,1,,5338.255999997025,response,ISIC_7271718.JPG,7,ISIC_0030032.JPG,ISIC_0030032.JPG,false,0,keypress(z),500,189519.40000000596,189518.79999999702,184163.878,184168.5,184180.544,189530.621,8,400,16,,ISIC_7271718.JPG
break,html.Screen,4_15_1,2023-10-31T19:26:29.793Z,,0,,,NaN,,,,,,false,,,,189520.79999999702,189520.70000000298,,189519.90000000596,,189530.621,8,400,,,
break_continue,html.Screen,4_15_2,2023-10-31T19:26:29.794Z,,0,,,NaN,,,,,,false,,,,189521.29999999702,189521.09999999404,,189521.09999999404,,189530.621,8,400,,,
sequence,flow.Sequence,4_15,2023-10-31T19:26:29.794Z,,0,,,5340.555999994045,completion,,,,,false,,,,189521.40000000596,189521.09999999404,184163.878,184168.5,184180.544,189530.621,8,400,,,
trial,html.Screen,4_16_0,2023-10-31T19:26:34.038Z,,0,1,,4234.878999999986,response,ISIC_0034210.JPG,5,ISIC_0029732.JPG,ISIC_0034210.JPG,false,1,keypress(m),500,193765.90000000596,193765.5,189513.955,189521.5,189530.621,193780.451,8,400,17,,ISIC_0029732.JPG
break,html.Screen,4_16_1,2023-10-31T19:26:34.040Z,,0,,,NaN,,,,,,false,,,,193767.09999999404,193766.90000000596,,193766.20000000298,,193780.451,8,400,,,
break_continue,html.Screen,4_16_2,2023-10-31T19:26:34.040Z,,0,,,NaN,,,,,,false,,,,193767.40000000596,193767.40000000596,,193767.29999999702,,193780.451,8,400,,,
sequence,flow.Sequence,4_16,2023-10-31T19:26:34.040Z,,0,,,4236.779000005947,completion,,,,,false,,,,193767.59999999404,193767.40000000596,189513.955,189521.40000000596,189530.621,193780.451,8,400,,,
trial,html.Screen,4_17_0,2023-10-31T19:26:37.995Z,,0,1,,3942.2490000029793,response,ISIC_0013342.JPG,8,ISIC_4183816.JPG,ISIC_4183816.JPG,false,0,keypress(z),500,197722.90000000596,197722.70000000298,193763.785,193767.70000000298,193780.451,197730.293,8,400,18,,ISIC_0013342.JPG
break,html.Screen,4_17_1,2023-10-31T19:26:37.996Z,,0,,,NaN,,,,,,false,,,,197723.59999999404,197723.5,,197723.09999999404,,197730.293,8,400,,,
break_continue,html.Screen,4_17_2,2023-10-31T19:26:37.997Z,,0,,,NaN,,,,,,false,,,,197723.90000000596,197723.79999999702,,197723.70000000298,,197730.293,8,400,,,
sequence,flow.Sequence,4_17,2023-10-31T19:26:37.997Z,,0,,,3943.348999997019,completion,,,,,false,,,,197724,197723.79999999702,193763.785,193767.59999999404,193780.451,197730.293,8,400,,,
trial,html.Screen,4_18_0,2023-10-31T19:26:43.857Z,,0,1,,5854.006999997015,response,ISIC_3926019.JPG,7,ISIC_0024235.JPG,ISIC_0024235.JPG,false,0,keypress(z),500,203584.79999999702,203584.29999999702,197713.627,197724.20000000298,197730.293,203596.985,8,400,19,,ISIC_3926019.JPG
break,html.Screen,4_18_1,2023-10-31T19:26:43.859Z,,0,,,NaN,,,,,,false,,,,203586.09999999404,203585.59999999404,,203585.09999999404,,203596.985,8,400,,,
break_continue,html.Screen,4_18_2,2023-10-31T19:26:43.859Z,,0,,,NaN,,,,,,false,,,,203586.40000000596,203586.40000000596,,203586.20000000298,,203596.985,8,400,,,
sequence,flow.Sequence,4_18,2023-10-31T19:26:43.859Z,,0,,,5856.107000005955,completion,,,,,false,,,,203586.5,203586.40000000596,197713.627,197724.09999999404,197730.293,203596.985,8,400,,,
trial,html.Screen,4_19_0,2023-10-31T19:26:48.761Z,,0,1,,4891.415000005974,response,ISIC_9672482.JPG,8,ISIC_2400177.JPG,ISIC_2400177.JPG,false,0,keypress(z),500,208488.59999999404,208488.40000000596,203580.319,203586.59999999404,203596.985,208496.789,8,400,20,,ISIC_9672482.JPG
break,html.Screen,4_19_1,2023-10-31T19:26:48.762Z,,0,,,NaN,,,,,,false,,,,208489.20000000298,208489.09999999404,,208488.79999999702,,208496.789,8,400,,,
break_continue,html.Screen,4_19_2,2023-10-31T19:26:48.762Z,,0,,,NaN,,,,,,false,,,,208489.5,208489.40000000596,,208489.40000000596,,208496.789,8,400,,,
sequence,flow.Sequence,4_19,2023-10-31T19:26:48.762Z,,0,,,4892.415000005974,completion,,,,,false,,,,208489.70000000298,208489.40000000596,203580.319,203586.5,203596.985,208496.789,8,400,,,
trial,html.Screen,4_20_0,2023-10-31T19:26:55.407Z,,0,1,,6636.9110000029905,response,ISIC_0067564.JPG,6,ISIC_9476244.JPG,ISIC_9476244.JPG,false,0,keypress(z),500,215134.09999999404,215133.70000000298,208480.123,208489.79999999702,208496.789,215146.784,8,400,21,,ISIC_0067564.JPG
break,html.Screen,4_20_1,2023-10-31T19:26:55.409Z,,0,,,NaN,,,,,,false,,,,215135.79999999702,215135.5,,215134.59999999404,,215146.784,8,400,,,
break_continue,html.Screen,4_20_2,2023-10-31T19:26:55.409Z,,0,,,NaN,,,,,,false,,,,215136.29999999702,215136.20000000298,,215136,,215146.784,8,400,,,
sequence,flow.Sequence,4_20,2023-10-31T19:26:55.409Z,,0,,,6639.4110000029905,completion,,,,,false,,,,215136.40000000596,215136.20000000298,208480.123,208489.70000000298,208496.789,215146.784,8,400,,,
trial,html.Screen,4_21_0,2023-10-31T19:27:01.142Z,,0,1,,5722.116000005946,response,ISIC_0028127.JPG,7,ISIC_0065206.JPG,ISIC_0028127.JPG,false,1,keypress(m),500,220869.29999999702,220868.90000000596,215130.118,215136.5,215146.784,220880.165,8,400,22,,ISIC_0065206.JPG
break,html.Screen,4_21_1,2023-10-31T19:27:01.143Z,,0,,,NaN,,,,,,false,,,,220870.5,220870.29999999702,,220869.5,,220880.165,8,400,,,
break_continue,html.Screen,4_21_2,2023-10-31T19:27:01.144Z,,0,,,NaN,,,,,,false,,,,220870.90000000596,220870.79999999702,,220870.59999999404,,220880.165,8,400,,,
sequence,flow.Sequence,4_21,2023-10-31T19:27:01.144Z,,0,,,5724.015999997006,completion,,,,,false,,,,220871.20000000298,220870.79999999702,215130.118,215136.5,215146.784,220880.165,8,400,,,
trial,html.Screen,4_22_0,2023-10-31T19:27:05.264Z,,0,1,,4110.035000002972,response,ISIC_5787517.JPG,7,ISIC_4964478.JPG,ISIC_5787517.JPG,false,1,keypress(m),500,224990.70000000298,224990.20000000298,220863.499,220871.20000000298,220880.165,225013.333,8,400,23,,ISIC_4964478.JPG
break,html.Screen,4_22_1,2023-10-31T19:27:05.265Z,,0,,,NaN,,,,,,false,,,,224992.20000000298,224991.90000000596,,224991.09999999404,,225013.333,8,400,,,
break_continue,html.Screen,4_22_2,2023-10-31T19:27:05.266Z,,0,,,NaN,,,,,,false,,,,224992.59999999404,224992.59999999404,,224992.40000000596,,225013.333,8,400,,,
sequence,flow.Sequence,4_22,2023-10-31T19:27:05.266Z,,0,,,4112.434999994031,completion,,,,,false,,,,224992.79999999702,224992.59999999404,220863.499,220871.20000000298,220880.165,225013.333,8,400,,,
trial,html.Screen,4_23_0,2023-10-31T19:27:09.238Z,,0,1,,3951.1669999999867,response,ISIC_0030060.JPG,8,ISIC_0001681.JPG,ISIC_0030060.JPG,false,1,keypress(m),500,228964.79999999702,228964.5,224996.667,224993,225013.333,228979.841,8,400,24,,ISIC_0001681.JPG
break,html.Screen,4_23_1,2023-10-31T19:27:09.238Z,,0,,,NaN,,,,,,false,,,,228965.5,228965.20000000298,,228965,,228979.841,8,400,,,
break_continue,html.Screen,4_23_2,2023-10-31T19:27:09.239Z,,0,,,NaN,,,,,,false,,,,228965.59999999404,228965.59999999404,,228965.59999999404,,228979.841,8,400,,,
sequence,flow.Sequence,4_23,2023-10-31T19:27:09.239Z,,0,,,3952.2669999940263,completion,,,,,false,,,,228965.70000000298,228965.59999999404,224996.667,224992.90000000596,225013.333,228979.841,8,400,,,
trial,html.Screen,4_24_0,2023-10-31T19:27:12.939Z,,0,1,,3685.7589999940537,response,ISIC_2915747.JPG,8,ISIC_7662910.JPG,ISIC_7662910.JPG,false,0,keypress(z),500,232665.90000000596,232665.59999999404,228963.175,228965.79999999702,228979.841,232679.949,8,400,25,,ISIC_2915747.JPG
break,html.Screen,4_24_1,2023-10-31T19:27:12.940Z,,0,,,NaN,,,,,,false,,,,232666.79999999702,232666.59999999404,,232666.09999999404,,232679.949,8,400,,,
break_continue,html.Screen,4_24_2,2023-10-31T19:27:12.940Z,,0,,,NaN,,,,,,false,,,,232667,232666.90000000596,,232666.90000000596,,232679.949,8,400,,,
sequence,flow.Sequence,4_24,2023-10-31T19:27:12.940Z,,0,,,3687.0590000059747,completion,,,,,false,,,,232667.20000000298,232666.90000000596,228963.175,228965.79999999702,228979.841,232679.949,8,400,,,
trial,html.Screen,4_25_0,2023-10-31T19:27:17.506Z,,0,1,,4552.8509999970265,response,ISIC_6192289.JPG,9,ISIC_5656921.JPG,ISIC_6192289.JPG,false,1,keypress(m),500,237233.29999999702,237232.79999999702,232663.283,232667.29999999702,232679.949,237246.433,8,400,26,,ISIC_5656921.JPG
break,html.Screen,4_25_1,2023-10-31T19:27:17.508Z,,0,,,NaN,,,,,,false,,,,237234.59999999404,237234,,237233.5,,237246.433,8,400,,,
break_continue,html.Screen,4_25_2,2023-10-31T19:27:17.508Z,,0,,,NaN,,,,,,false,,,,237235.09999999404,237235,,237234.70000000298,,237246.433,8,400,,,
sequence,flow.Sequence,4_25,2023-10-31T19:27:17.510Z,,0,,,4555.051000000007,completion,,,,,false,,,,237236.40000000596,237235,232663.283,232667.20000000298,232679.949,237246.433,8,400,,,
trial,html.Screen,4_26_0,2023-10-31T19:27:21.466Z,,0,1,,3945.56700000001,response,ISIC_0061334.JPG,7,ISIC_0054748.JPG,ISIC_0061334.JPG,false,1,keypress(m),500,241192.29999999702,241192,237229.767,237236.5,237246.433,241196.536,8,400,27,,ISIC_0054748.JPG
break,html.Screen,4_26_1,2023-10-31T19:27:21.466Z,,0,,,NaN,,,,,,false,,,,241193.09999999404,241192.90000000596,,241192.5,,241196.536,8,400,,,
break_continue,html.Screen,4_26_2,2023-10-31T19:27:21.467Z,,0,,,NaN,,,,,,false,,,,241193.59999999404,241193.5,,241193.29999999702,,241196.536,8,400,,,
sequence,flow.Sequence,4_26,2023-10-31T19:27:21.467Z,,0,,,3947.06700000001,completion,,,,,false,,,,241193.79999999702,241193.5,237229.767,237236.5,237246.433,241196.536,8,400,,,
trial,html.Screen,4_27_0,2023-10-31T19:27:25.281Z,,0,1,,3810.5639999940468,response,ISIC_8796769.JPG,5,ISIC_8496052.JPG,ISIC_8496052.JPG,false,0,keypress(z),500,245007.5,245007.09999999404,241179.87,241194,241196.536,245013.05,8,400,28,,ISIC_8796769.JPG
break,html.Screen,4_27_1,2023-10-31T19:27:25.282Z,,0,,,NaN,,,,,,false,,,,245009,245008.59999999404,,245007.90000000596,,245013.05,8,400,,,
break_continue,html.Screen,4_27_2,2023-10-31T19:27:25.283Z,,0,,,NaN,,,,,,false,,,,245009.29999999702,245009.09999999404,,245009,,245013.05,8,400,,,
sequence,flow.Sequence,4_27,2023-10-31T19:27:25.283Z,,0,,,3812.5639999940468,completion,,,,,false,,,,245009.40000000596,245009.09999999404,241179.87,241194,241196.536,245013.05,8,400,,,
trial,html.Screen,4_28_0,2023-10-31T19:27:28.520Z,,0,1,,3233.4500000000116,response,ISIC_0029970.JPG,9,ISIC_2256461.JPG,ISIC_0029970.JPG,false,1,keypress(m),500,248246.90000000596,248246.5,244996.384,245009.5,245013.05,248262.92,8,400,29,,ISIC_2256461.JPG
break,html.Screen,4_28_1,2023-10-31T19:27:28.521Z,,0,,,NaN,,,,,,false,,,,248248,248247.70000000298,,248247.20000000298,,248262.92,8,400,,,
break_continue,html.Screen,4_28_2,2023-10-31T19:27:28.522Z,,0,,,NaN,,,,,,false,,,,248248.5,248248.40000000596,,248248.09999999404,,248262.92,8,400,,,
sequence,flow.Sequence,4_28,2023-10-31T19:27:28.522Z,,0,,,3235.350000005972,completion,,,,,false,,,,248248.59999999404,248248.40000000596,244996.384,245009.5,245013.05,248262.92,8,400,,,
trial,html.Screen,4_29_0,2023-10-31T19:27:34.852Z,,0,1,,6315.679999994027,response,ISIC_0025289.JPG,6,ISIC_0011404.JPG,ISIC_0011404.JPG,false,0,keypress(z),500,254579,254578.59999999404,248246.254,248248.79999999702,248262.92,254596.263,8,400,30,,ISIC_0025289.JPG
break,html.Screen,4_29_1,2023-10-31T19:27:34.853Z,,0,,,NaN,,,,,,false,,,,254580,254579.90000000596,,254579.29999999702,,254596.263,8,400,,,
break_continue,html.Screen,4_29_2,2023-10-31T19:27:34.854Z,,0,,,NaN,,,,,,false,,,,254580.29999999702,254580.20000000298,,254580.09999999404,,254596.263,8,400,,,
sequence,flow.Sequence,4_29,2023-10-31T19:27:34.854Z,,0,,,6317.280000002967,completion,,,,,false,,,,254580.29999999702,254580.20000000298,248246.254,248248.70000000298,248262.92,254596.263,8,400,,,
trial,html.Screen,4_30_0,2023-10-31T19:27:39.390Z,,0,1,,4520.137000005954,response,ISIC_0025754.JPG,7,ISIC_0030843.JPG,ISIC_0025754.JPG,false,1,keypress(m),500,259116.70000000298,259116.40000000596,254579.597,254580.5,254596.263,259129.415,8,400,31,,ISIC_0030843.JPG
break,html.Screen,4_30_1,2023-10-31T19:27:39.391Z,,0,,,NaN,,,,,,false,,,,259117.70000000298,259117.40000000596,,259116.90000000596,,259129.415,8,400,,,
break_continue,html.Screen,4_30_2,2023-10-31T19:27:39.391Z,,0,,,NaN,,,,,,false,,,,259117.90000000596,259117.90000000596,,259117.70000000298,,259129.415,8,400,,,
sequence,flow.Sequence,4_30,2023-10-31T19:27:39.392Z,,0,,,4521.637000005954,completion,,,,,false,,,,259118.09999999404,259117.90000000596,254579.597,254580.5,254596.263,259129.415,8,400,,,
trial,html.Screen,4_31_0,2023-10-31T19:27:43.300Z,,0,1,,3896.584999999992,response,ISIC_1444154.JPG,7,ISIC_0027408.JPG,ISIC_0027408.JPG,false,0,keypress(z),500,263026.299999997,263026,259112.749,259118.09999999404,259129.415,263029.551,8,400,32,,ISIC_1444154.JPG
break,html.Screen,4_31_1,2023-10-31T19:27:43.301Z,,0,,,NaN,,,,,,false,,,,263027.200000003,263027,,263026.5,,263029.551,8,400,,,
break_continue,html.Screen,4_31_2,2023-10-31T19:27:43.301Z,,0,,,NaN,,,,,,false,,,,263027.5,263027.299999997,,263027.299999997,,263029.551,8,400,,,
sequence,flow.Sequence,4_31,2023-10-31T19:27:43.301Z,,0,,,3897.8849999970116,completion,,,,,false,,,,263027.5,263027.299999997,259112.749,259118.09999999404,259129.415,263029.551,8,400,,,
trial,html.Screen,4_32_0,2023-10-31T19:27:50.007Z,,0,1,,6703.649000003003,response,ISIC_9950866.JPG,4,ISIC_0014150.JPG,ISIC_0014150.JPG,false,0,keypress(z),500,269733.5,269733.200000003,263012.885,263027.59999999404,263029.551,269745.949,8,400,33,,ISIC_9950866.JPG
break,html.Screen,4_32_1,2023-10-31T19:27:50.008Z,,0,,,NaN,,,,,,false,,,,269734.40000000596,269734.299999997,,269733.799999997,,269745.949,8,400,,,
break_continue,html.Screen,4_32_2,2023-10-31T19:27:50.008Z,,0,,,NaN,,,,,,false,,,,269734.700000003,269734.700000003,,269734.59999999404,,269745.949,8,400,,,
sequence,flow.Sequence,4_32,2023-10-31T19:27:50.009Z,,0,,,6705.149000003003,completion,,,,,false,,,,269734.90000000596,269734.700000003,263012.885,263027.59999999404,263029.551,269745.949,8,400,,,
trial,html.Screen,4_33_0,2023-10-31T19:27:54.000Z,,0,1,,3979.951000005938,response,ISIC_0692990.JPG,9,ISIC_0034118.JPG,ISIC_0034118.JPG,false,0,keypress(z),500,273726.40000000596,273725.90000000596,269729.283,269735,269745.949,273729.385,8,400,34,,ISIC_0692990.JPG
break,html.Screen,4_33_1,2023-10-31T19:27:54.001Z,,0,,,NaN,,,,,,false,,,,273727.59999999404,273727.40000000596,,273726.799999997,,273729.385,8,400,,,
break_continue,html.Screen,4_33_2,2023-10-31T19:27:54.002Z,,0,,,NaN,,,,,,false,,,,273728.09999999404,273728,,273727.799999997,,273729.385,8,400,,,
sequence,flow.Sequence,4_33,2023-10-31T19:27:54.002Z,,0,,,3982.0509999999776,completion,,,,,false,,,,273728.299999997,273728,269729.283,269735,269745.949,273729.385,8,400,,,
trial,html.Screen,4_34_0,2023-10-31T19:28:09.316Z,,0,1,,15332.977000000014,timeout,ISIC_7899041.JPG,893,ISIC_0687593.JPG,,false,,,500,289042,289040.700000003,273712.719,273728.40000000596,273729.385,289062.362,8,400,35,,
break,html.Screen,4_34_1,2023-10-31T19:28:09.319Z,,0,,,NaN,,,,,,false,,,,289044.90000000596,289043.5,,289042.5,,289062.362,8,400,,,
break_continue,html.Screen,4_34_2,2023-10-31T19:28:09.321Z,,0,,,NaN,,,,,,false,,,,289047,289046.90000000596,,289046.09999999404,,289062.362,8,400,,,
sequence,flow.Sequence,4_34,2023-10-31T19:28:09.321Z,,0,,,15317.515000005951,completion,,,,,false,,,,289047.200000003,289046.90000000596,273712.719,273728.40000000596,273729.385,289062.362,8,400,,,
trial,html.Screen,4_35_0,2023-10-31T19:28:13.596Z,,0,1,,4259.137999999977,response,ISIC_9987485.JPG,541,ISIC_8431648.JPG,ISIC_9987485.JPG,false,1,keypress(m),500,293322.09999999404,293321.5,289045.696,289047.5,289062.362,293328.858,8,400,36,,ISIC_8431648.JPG
break,html.Screen,4_35_1,2023-10-31T19:28:13.597Z,,0,,,NaN,,,,,,false,,,,293323,293322.799999997,,293322.40000000596,,293328.858,8,400,,,
break_continue,html.Screen,4_35_2,2023-10-31T19:28:13.597Z,,0,,,NaN,,,,,,false,,,,293323.5,293323.299999997,,293323.200000003,,293328.858,8,400,,,
sequence,flow.Sequence,4_35,2023-10-31T19:28:13.598Z,,0,,,4260.937999996997,completion,,,,,false,,,,293323.5,293323.299999997,289045.696,289047.299999997,289062.362,293328.858,8,400,,,
trial,html.Screen,4_36_0,2023-10-31T19:28:16.787Z,,0,1,,3183.842000002973,response,ISIC_0071951.JPG,8,ISIC_1027512.JPG,ISIC_0071951.JPG,false,1,keypress(m),500,296513.09999999404,296512.700000003,293312.192,293323.59999999404,293328.858,296528.996,8,400,37,,ISIC_1027512.JPG
break,html.Screen,4_36_1,2023-10-31T19:28:16.788Z,,0,,,NaN,,,,,,false,,,,296514.200000003,296514,,296513.40000000596,,296528.996,8,400,,,
break_continue,html.Screen,4_36_2,2023-10-31T19:28:16.789Z,,0,,,NaN,,,,,,false,,,,296514.700000003,296514.59999999404,,296514.40000000596,,296528.996,8,400,,,
sequence,flow.Sequence,4_36,2023-10-31T19:28:16.789Z,,0,,,3185.741999994032,completion,,,,,false,,,,296514.90000000596,296514.59999999404,293312.192,293323.59999999404,293328.858,296528.996,8,400,,,
trial,html.Screen,4_37_0,2023-10-31T19:28:19.867Z,,0,1,,3063.103999994055,response,ISIC_0059065.JPG,5,ISIC_1534391.JPG,ISIC_0059065.JPG,false,1,keypress(m),500,299592.5,299592.09999999404,296512.33,296515.09999999404,296528.996,299595.54,8,400,38,,ISIC_1534391.JPG
break,html.Screen,4_37_1,2023-10-31T19:28:19.868Z,,0,,,NaN,,,,,,false,,,,299593.700000003,299593.40000000596,,299592.799999997,,299595.54,8,400,,,
break_continue,html.Screen,4_37_2,2023-10-31T19:28:19.868Z,,0,,,NaN,,,,,,false,,,,299594.200000003,299594,,299593.799999997,,299595.54,8,400,,,
sequence,flow.Sequence,4_37,2023-10-31T19:28:19.868Z,,0,,,3065.0040000000154,completion,,,,,false,,,,299594.40000000596,299594,296512.33,296515,296528.996,299595.54,8,400,,,
trial,html.Screen,4_38_0,2023-10-31T19:28:23.156Z,,0,1,,3286.3600000059814,response,ISIC_0011446.JPG,9,ISIC_0034187.JPG,ISIC_0034187.JPG,false,0,keypress(z),500,302882.200000003,302881.90000000596,299578.874,299594.5,299595.54,302895.408,8,400,39,,ISIC_0011446.JPG
break,html.Screen,4_38_1,2023-10-31T19:28:23.159Z,,0,,,NaN,,,,,,false,,,,302885.09999999404,302884.59999999404,,302882.5,,302895.408,8,400,,,
break_continue,html.Screen,4_38_2,2023-10-31T19:28:23.160Z,,0,,,NaN,,,,,,false,,,,302885.59999999404,302885.5,,302885.299999997,,302895.408,8,400,,,
sequence,flow.Sequence,4_38,2023-10-31T19:28:23.160Z,,0,,,3289.960000000021,completion,,,,,false,,,,302885.700000003,302885.5,299578.874,299594.40000000596,299595.54,302895.408,8,400,,,
trial,html.Screen,4_39_0,2023-10-31T19:28:26.873Z,,0,1,,3703.391999997024,response,ISIC_0032440.JPG,4,ISIC_0056155.JPG,ISIC_0032440.JPG,false,1,keypress(m),500,306599.200000003,306598.799999997,302878.742,302885.799999997,302895.408,306612.195,8,400,40,,ISIC_0056155.JPG
break,html.Screen,4_39_1,2023-10-31T19:28:26.875Z,,0,,,NaN,,,,,,false,,,,306600.40000000596,306600.09999999404,,306599.59999999404,,306612.195,8,400,,,
break_continue,html.Screen,4_39_2,2023-10-31T19:28:26.875Z,,0,,,NaN,,,,,,false,,,,306600.90000000596,306600.799999997,,306600.59999999404,,306612.195,8,400,,,
sequence,flow.Sequence,4_39,2023-10-31T19:28:26.875Z,,0,,,3705.391999997024,completion,,,,,false,,,,306601,306600.799999997,302878.742,302885.700000003,302895.408,306612.195,8,400,,,
trial,html.Screen,4_40_0,2023-10-31T19:28:29.812Z,,0,1,,2924.804999999993,response,ISIC_3909443.JPG,8,ISIC_5966190.JPG,ISIC_5966190.JPG,false,0,keypress(z),500,309537.299999997,309537,306595.529,306601.09999999404,306612.195,309562.077,8,400,41,,ISIC_3909443.JPG
break,html.Screen,4_40_1,2023-10-31T19:28:29.813Z,,0,,,NaN,,,,,,false,,,,309538.40000000596,309538.09999999404,,309537.59999999404,,309562.077,8,400,,,
break_continue,html.Screen,4_40_2,2023-10-31T19:28:29.813Z,,0,,,NaN,,,,,,false,,,,309538.700000003,309538.59999999404,,309538.40000000596,,309562.077,8,400,,,
sequence,flow.Sequence,4_40,2023-10-31T19:28:29.813Z,,0,,,2926.4049999940326,completion,,,,,false,,,,309538.799999997,309538.59999999404,306595.529,306601.09999999404,306612.195,309562.077,8,400,,,
trial,html.Screen,4_41_0,2023-10-31T19:28:33.420Z,,0,1,,3582.92300000001,response,ISIC_8147189.JPG,7,ISIC_0058138.JPG,ISIC_0058138.JPG,false,0,keypress(z),500,313145.59999999404,313145,309545.411,309538.90000000596,309562.077,313161.933,8,400,42,,ISIC_8147189.JPG
break,html.Screen,4_41_1,2023-10-31T19:28:33.421Z,,0,,,NaN,,,,,,false,,,,313146.59999999404,313146.299999997,,313145.799999997,,313161.933,8,400,,,
break_continue,html.Screen,4_41_2,2023-10-31T19:28:33.421Z,,0,,,NaN,,,,,,false,,,,313146.90000000596,313146.90000000596,,313146.700000003,,313161.933,8,400,,,
sequence,flow.Sequence,4_41,2023-10-31T19:28:33.421Z,,0,,,3584.8230000059702,completion,,,,,false,,,,313147.09999999404,313146.90000000596,309545.411,309538.90000000596,309562.077,313161.933,8,400,,,
trial,html.Screen,4_42_0,2023-10-31T19:28:38.291Z,,0,1,,4853.967000005941,response,ISIC_6515546.JPG,8,ISIC_0063745.JPG,ISIC_6515546.JPG,false,1,keypress(m),500,318016.40000000596,318015.90000000596,313145.267,313147.200000003,313161.933,318028.666,8,400,43,,ISIC_0063745.JPG
break,html.Screen,4_42_1,2023-10-31T19:28:38.292Z,,0,,,NaN,,,,,,false,,,,318017.59999999404,318017.40000000596,,318016.59999999404,,318028.666,8,400,,,
break_continue,html.Screen,4_42_2,2023-10-31T19:28:38.293Z,,0,,,NaN,,,,,,false,,,,318018.40000000596,318018.09999999404,,318017.799999997,,318028.666,8,400,,,
sequence,flow.Sequence,4_42,2023-10-31T19:28:38.293Z,,0,,,4856.16699999402,completion,,,,,false,,,,318018.5,318018.09999999404,313145.267,313147.200000003,313161.933,318028.666,8,400,,,
trial,html.Screen,4_43_0,2023-10-31T19:28:41.563Z,,0,1,,3258.933999994013,response,ISIC_2454898.JPG,7,ISIC_3591332.JPG,ISIC_3591332.JPG,false,0,keypress(z),500,321288.40000000596,321287.59999999404,318012,318018.59999999404,318028.666,321295.202,8,400,44,,ISIC_2454898.JPG
break,html.Screen,4_43_1,2023-10-31T19:28:41.565Z,,0,,,NaN,,,,,,false,,,,321290.09999999404,321289.700000003,,321289,,321295.202,8,400,,,
break_continue,html.Screen,4_43_2,2023-10-31T19:28:41.565Z,,0,,,NaN,,,,,,false,,,,321290.59999999404,321290.5,,321290.299999997,,321295.202,8,400,,,
sequence,flow.Sequence,4_43,2023-10-31T19:28:41.565Z,,0,,,3261.8339999999735,completion,,,,,false,,,,321290.799999997,321290.5,318012,318018.59999999404,318028.666,321295.202,8,400,,,
trial,html.Screen,4_44_0,2023-10-31T19:28:45.060Z,,0,1,,3489.6980000059702,response,ISIC_0981639.JPG,6,ISIC_0073238.JPG,ISIC_0073238.JPG,false,0,keypress(z),500,324785.200000003,324784.90000000596,321278.536,321291.09999999404,321295.202,324795.319,8,400,45,,ISIC_0981639.JPG
break,html.Screen,4_44_1,2023-10-31T19:28:45.061Z,,0,,,NaN,,,,,,false,,,,324786.09999999404,324786,,324785.5,,324795.319,8,400,,,
break_continue,html.Screen,4_44_2,2023-10-31T19:28:45.061Z,,0,,,NaN,,,,,,false,,,,324786.5,324786.299999997,,324786.299999997,,324795.319,8,400,,,
sequence,flow.Sequence,4_44,2023-10-31T19:28:45.061Z,,0,,,3491.0979999970295,completion,,,,,false,,,,324786.59999999404,324786.299999997,321278.536,321291,321295.202,324795.319,8,400,,,
trial,html.Screen,4_45_0,2023-10-31T19:28:48.090Z,,0,1,,3019.3810000029625,response,ISIC_0058098.JPG,7,ISIC_2366172.JPG,ISIC_0058098.JPG,false,1,keypress(m),500,327815.09999999404,327814.700000003,324778.653,324786.59999999404,324795.319,327828.531,8,400,46,,ISIC_2366172.JPG
break,html.Screen,4_45_1,2023-10-31T19:28:48.091Z,,0,,,NaN,,,,,,false,,,,327816.200000003,327815.90000000596,,327815.40000000596,,327828.531,8,400,,,
break_continue,html.Screen,4_45_2,2023-10-31T19:28:48.091Z,,0,,,NaN,,,,,,false,,,,327816.799999997,327816.59999999404,,327816.40000000596,,327828.531,8,400,,,
sequence,flow.Sequence,4_45,2023-10-31T19:28:48.091Z,,0,,,3021.280999994022,completion,,,,,false,,,,327817,327816.59999999404,324778.653,324786.59999999404,324795.319,327828.531,8,400,,,
trial,html.Screen,4_46_0,2023-10-31T19:28:52.529Z,,0,1,,4425.369000005943,response,ISIC_0027721.JPG,7,ISIC_8635853.JPG,ISIC_0027721.JPG,false,1,keypress(m),500,332254.299999997,332253.90000000596,327811.865,327817.09999999404,327828.531,332261.687,8,400,47,,ISIC_8635853.JPG
break,html.Screen,4_46_1,2023-10-31T19:28:52.530Z,,0,,,NaN,,,,,,false,,,,332255.59999999404,332255.299999997,,332254.59999999404,,332261.687,8,400,,,
break_continue,html.Screen,4_46_2,2023-10-31T19:28:52.531Z,,0,,,NaN,,,,,,false,,,,332256,332255.90000000596,,332255.799999997,,332261.687,8,400,,,
sequence,flow.Sequence,4_46,2023-10-31T19:28:52.531Z,,0,,,4427.369000005943,completion,,,,,false,,,,332256.299999997,332255.90000000596,327811.865,327817,327828.531,332261.687,8,400,,,
trial,html.Screen,4_47_0,2023-10-31T19:28:56.459Z,,0,1,,3922.3130000000237,response,ISIC_9028997.JPG,6,ISIC_0014291.JPG,ISIC_0014291.JPG,false,0,keypress(z),500,336184.5,336184,332245.021,332256.40000000596,332261.687,336195.125,8,400,48,,ISIC_9028997.JPG
break,html.Screen,4_47_1,2023-10-31T19:28:56.460Z,,0,,,NaN,,,,,,false,,,,336185.90000000596,336185.59999999404,,336184.799999997,,336195.125,8,400,,,
break_continue,html.Screen,4_47_2,2023-10-31T19:28:56.461Z,,0,,,NaN,,,,,,false,,,,336186.299999997,336186.09999999404,,336186,,336195.125,8,400,,,
sequence,flow.Sequence,4_47,2023-10-31T19:28:56.461Z,,0,,,3924.4129999940633,completion,,,,,false,,,,336186.59999999404,336186.09999999404,332245.021,332256.40000000596,332261.687,336195.125,8,400,,,
trial,html.Screen,4_48_0,2023-10-31T19:28:59.219Z,,0,1,,2748.2750000059605,response,ISIC_9896801.JPG,8,ISIC_0033561.JPG,ISIC_0033561.JPG,false,0,keypress(z),500,338943.90000000596,338943.40000000596,336178.459,336186.700000003,336195.125,338945.015,8,400,49,,ISIC_9896801.JPG
break,html.Screen,4_48_1,2023-10-31T19:28:59.220Z,,0,,,NaN,,,,,,false,,,,338945.200000003,338944.90000000596,,338944.200000003,,338945.015,8,400,,,
break_continue,html.Screen,4_48_2,2023-10-31T19:28:59.220Z,,0,,,NaN,,,,,,false,,,,338945.700000003,338945.59999999404,,338945.40000000596,,338945.015,8,400,,,
sequence,flow.Sequence,4_48,2023-10-31T19:28:59.221Z,,0,,,2750.4749999940395,completion,,,,,false,,,,338945.90000000596,338945.59999999404,336178.459,336186.59999999404,336195.125,338945.015,8,400,,,
trial,html.Screen,4_49_0,2023-10-31T19:29:02.749Z,,0,1,,3528.6850000029663,response,ISIC_0058926.JPG,8,ISIC_0011313.JPG,ISIC_0058926.JPG,false,1,keypress(m),500,342474.09999999404,342473.700000003,338928.349,338946.09999999404,338945.015,342478.207,8,400,50,,ISIC_0011313.JPG
break,html.Screen,4_49_1,2023-10-31T19:29:12.742Z,,0,,,9999.854999999981,timeout,,,,,false,,,,352466.90000000596,352461.396,342461.541,342474.299999997,342478.207,352478.062,8,400,,,
break_continue,html.Screen,4_49_2,2023-10-31T19:29:13.844Z,,0,,,1072.638000003004,response,,,,,false,continue,keypress(Space),,353568.700000003,353550.700000003,352461.396,352467.40000000596,352478.062,353578.018,8,400,,,
sequence,flow.Sequence,4_49,2023-10-31T19:29:13.844Z,,0,,,14605.685000002966,completion,,,,,false,,,,353568.90000000596,353550.700000003,338928.349,338946.09999999404,338945.015,353578.018,8,400,,,
trial,html.Screen,4_50_0,2023-10-31T19:29:17.340Z,,0,2,,3486.281999997038,response,ISIC_0010901.JPG,15,ISIC_8419663.JPG,ISIC_0010901.JPG,false,1,keypress(m),500,357064.90000000596,357064.299999997,353561.352,353568.90000000596,353578.018,357078.142,8,400,1,,ISIC_8419663.JPG
break,html.Screen,4_50_1,2023-10-31T19:29:17.341Z,,0,,,NaN,,,,,,false,,,,357066.40000000596,357066,,357065.40000000596,,357078.142,8,400,,,
break_continue,html.Screen,4_50_2,2023-10-31T19:29:17.342Z,,0,,,NaN,,,,,,false,,,,357066.700000003,357066.59999999404,,357066.40000000596,,357078.142,8,400,,,
sequence,flow.Sequence,4_50,2023-10-31T19:29:17.342Z,,0,,,3488.5819999940577,completion,,,,,false,,,,357066.799999997,357066.59999999404,353561.352,353568.90000000596,353578.018,357078.142,8,400,,,
trial,html.Screen,4_51_0,2023-10-31T19:29:20.579Z,,0,2,,3225.3580000000075,response,ISIC_0025616.JPG,6,ISIC_4308751.JPG,ISIC_4308751.JPG,false,0,keypress(z),500,360303.799999997,360303.5,357061.476,357067,357078.142,360311.346,8,400,2,,ISIC_0025616.JPG
break,html.Screen,4_51_1,2023-10-31T19:29:20.580Z,,0,,,NaN,,,,,,false,,,,360304.799999997,360304.5,,360304.09999999404,,360311.346,8,400,,,
break_continue,html.Screen,4_51_2,2023-10-31T19:29:20.580Z,,0,,,NaN,,,,,,false,,,,360305.200000003,360305.09999999404,,360304.90000000596,,360311.346,8,400,,,
sequence,flow.Sequence,4_51,2023-10-31T19:29:20.581Z,,0,,,3226.957999994047,completion,,,,,false,,,,360305.5,360305.09999999404,357061.476,357067,357078.142,360311.346,8,400,,,
trial,html.Screen,4_52_0,2023-10-31T19:29:23.689Z,,0,2,,3102.554000005941,response,ISIC_0029081.JPG,6,ISIC_3975743.JPG,ISIC_3975743.JPG,false,0,keypress(z),500,363414.200000003,363413.90000000596,360294.68,360305.799999997,360311.346,363427.888,8,400,3,,ISIC_0029081.JPG
break,html.Screen,4_52_1,2023-10-31T19:29:23.690Z,,0,,,NaN,,,,,,false,,,,363415.299999997,363415,,363414.5,,363427.888,8,400,,,
break_continue,html.Screen,4_52_2,2023-10-31T19:29:23.691Z,,0,,,NaN,,,,,,false,,,,363415.799999997,363415.59999999404,,363415.5,,363427.888,8,400,,,
sequence,flow.Sequence,4_52,2023-10-31T19:29:23.691Z,,0,,,3104.25399999402,completion,,,,,false,,,,363415.799999997,363415.59999999404,360294.68,360305.799999997,360311.346,363427.888,8,400,,,
trial,html.Screen,4_53_0,2023-10-31T19:29:27.087Z,,0,2,,3384.112000000023,response,ISIC_0013840.JPG,7,ISIC_6790780.JPG,ISIC_6790780.JPG,false,0,keypress(z),500,366812.40000000596,366812,363411.222,363416,363427.888,366828.039,8,400,4,,ISIC_0013840.JPG
break,html.Screen,4_53_1,2023-10-31T19:29:27.088Z,,0,,,NaN,,,,,,false,,,,366813.40000000596,366813.200000003,,366812.59999999404,,366828.039,8,400,,,
break_continue,html.Screen,4_53_2,2023-10-31T19:29:27.089Z,,0,,,NaN,,,,,,false,,,,366813.799999997,366813.700000003,,366813.5,,366828.039,8,400,,,
sequence,flow.Sequence,4_53,2023-10-31T19:29:27.089Z,,0,,,3385.812000003003,completion,,,,,false,,,,366813.90000000596,366813.700000003,363411.222,363415.90000000596,363427.888,366828.039,8,400,,,
trial,html.Screen,4_54_0,2023-10-31T19:29:30.438Z,,0,2,,3334.1610000029905,response,ISIC_0033962.JPG,8,ISIC_2058516.JPG,ISIC_0033962.JPG,false,1,keypress(m),500,370162.59999999404,370162.200000003,366811.373,366814,366828.039,370177.905,8,400,5,,ISIC_2058516.JPG
break,html.Screen,4_54_1,2023-10-31T19:29:30.439Z,,0,,,NaN,,,,,,false,,,,370163.5,370163.200000003,,370162.799999997,,370177.905,8,400,,,
break_continue,html.Screen,4_54_2,2023-10-31T19:29:30.439Z,,0,,,NaN,,,,,,false,,,,370163.90000000596,370163.700000003,,370163.59999999404,,370177.905,8,400,,,
sequence,flow.Sequence,4_54,2023-10-31T19:29:30.439Z,,0,,,3335.6610000029905,completion,,,,,false,,,,370164,370163.700000003,366811.373,366813.90000000596,366828.039,370177.905,8,400,,,
trial,html.Screen,4_55_0,2023-10-31T19:29:34.620Z,,0,2,,4166.894999996992,response,ISIC_0067801.JPG,5,ISIC_0011398.JPG,ISIC_0067801.JPG,false,1,keypress(m),500,374345.200000003,374344.799999997,370161.239,370164.09999999404,370177.905,374361.071,8,400,6,,ISIC_0011398.JPG
break,html.Screen,4_55_1,2023-10-31T19:29:34.622Z,,0,,,NaN,,,,,,false,,,,374346.5,374346.09999999404,,374345.59999999404,,374361.071,8,400,,,
break_continue,html.Screen,4_55_2,2023-10-31T19:29:34.622Z,,0,,,NaN,,,,,,false,,,,374346.90000000596,374346.799999997,,374346.700000003,,374361.071,8,400,,,
sequence,flow.Sequence,4_55,2023-10-31T19:29:34.622Z,,0,,,4168.894999996992,completion,,,,,false,,,,374347.200000003,374346.799999997,370161.239,370164,370177.905,374361.071,8,400,,,
trial,html.Screen,4_56_0,2023-10-31T19:29:38.517Z,,0,2,,3880.2289999970235,response,ISIC_0034062.JPG,5,ISIC_5611515.JPG,ISIC_0034062.JPG,false,1,keypress(m),500,378241.700000003,378241.299999997,374344.405,374347.299999997,374361.071,378244.512,8,400,7,,ISIC_5611515.JPG
break,html.Screen,4_56_1,2023-10-31T19:29:38.518Z,,0,,,NaN,,,,,,false,,,,378242.90000000596,378242.59999999404,,378242,,378244.512,8,400,,,
break_continue,html.Screen,4_56_2,2023-10-31T19:29:38.519Z,,0,,,NaN,,,,,,false,,,,378243.5,378243.299999997,,378243,,378244.512,8,400,,,
sequence,flow.Sequence,4_56,2023-10-31T19:29:38.519Z,,0,,,3882.2289999970235,completion,,,,,false,,,,378243.700000003,378243.299999997,374344.405,374347.299999997,374361.071,378244.512,8,400,,,
trial,html.Screen,4_57_0,2023-10-31T19:29:41.712Z,,0,2,,3191.488000000012,response,ISIC_0011403.JPG,6,ISIC_4871616.JPG,ISIC_0011403.JPG,false,1,keypress(m),500,381436.40000000596,381436,378227.846,378243.799999997,378244.512,381444.384,8,400,8,,ISIC_4871616.JPG
break,html.Screen,4_57_1,2023-10-31T19:29:41.713Z,,0,,,NaN,,,,,,false,,,,381437.59999999404,381437.299999997,,381436.700000003,,381444.384,8,400,,,
break_continue,html.Screen,4_57_2,2023-10-31T19:29:41.713Z,,0,,,NaN,,,,,,false,,,,381438.09999999404,381437.90000000596,,381437.700000003,,381444.384,8,400,,,
sequence,flow.Sequence,4_57,2023-10-31T19:29:41.714Z,,0,,,3193.3880000059726,completion,,,,,false,,,,381438.299999997,381437.90000000596,378227.846,378243.799999997,378244.512,381444.384,8,400,,,
trial,html.Screen,4_58_0,2023-10-31T19:29:45.705Z,,0,2,,3984.7159999940195,response,ISIC_0014974.JPG,10,ISIC_0032034.JPG,ISIC_0032034.JPG,false,0,keypress(z),500,385429.700000003,385429.09999999404,381427.718,381438.40000000596,381444.384,385444.224,8,400,9,,ISIC_0014974.JPG
break,html.Screen,4_58_1,2023-10-31T19:29:45.707Z,,0,,,NaN,,,,,,false,,,,385431.40000000596,385430.59999999404,,385430,,385444.224,8,400,,,
break_continue,html.Screen,4_58_2,2023-10-31T19:29:45.707Z,,0,,,NaN,,,,,,false,,,,385431.799999997,385431.700000003,,385431.5,,385444.224,8,400,,,
sequence,flow.Sequence,4_58,2023-10-31T19:29:45.707Z,,0,,,3987.31600000296,completion,,,,,false,,,,385432,385431.700000003,381427.718,381438.299999997,381444.384,385444.224,8,400,,,
trial,html.Screen,4_59_0,2023-10-31T19:29:50.082Z,,0,2,,4362.375999994052,response,ISIC_0346815.JPG,8,ISIC_9260499.JPG,ISIC_0346815.JPG,false,1,keypress(m),500,389807.09999999404,389806.59999999404,385427.558,385432.200000003,385444.224,389810.976,8,400,10,,ISIC_9260499.JPG
break,html.Screen,4_59_1,2023-10-31T19:29:50.084Z,,0,,,NaN,,,,,,false,,,,389808.200000003,389807.90000000596,,389807.299999997,,389810.976,8,400,,,
break_continue,html.Screen,4_59_2,2023-10-31T19:29:50.084Z,,0,,,NaN,,,,,,false,,,,389808.700000003,389808.59999999404,,389808.40000000596,,389810.976,8,400,,,
sequence,flow.Sequence,4_59,2023-10-31T19:29:50.084Z,,0,,,4364.375999994052,completion,,,,,false,,,,389809,389808.59999999404,385427.558,385432.200000003,385444.224,389810.976,8,400,,,
trial,html.Screen,4_60_0,2023-10-31T19:29:53.902Z,,0,2,,3814.8239999969956,response,ISIC_3084322.JPG,6,ISIC_4151356.JPG,ISIC_3084322.JPG,false,1,keypress(m),500,393626.200000003,393625.799999997,389794.31,389809.200000003,389810.976,393627.49,8,400,11,,ISIC_4151356.JPG
break,html.Screen,4_60_1,2023-10-31T19:29:53.903Z,,0,,,NaN,,,,,,false,,,,393627.40000000596,393627.09999999404,,393626.5,,393627.49,8,400,,,
break_continue,html.Screen,4_60_2,2023-10-31T19:29:53.903Z,,0,,,NaN,,,,,,false,,,,393627.799999997,393627.700000003,,393627.59999999404,,393627.49,8,400,,,
sequence,flow.Sequence,4_60,2023-10-31T19:29:53.903Z,,0,,,3816.724000002956,completion,,,,,false,,,,393628,393627.700000003,389794.31,389809.09999999404,389810.976,393627.49,8,400,,,
trial,html.Screen,4_61_0,2023-10-31T19:29:58.213Z,,0,2,,4309.71000000299,response,ISIC_0026683.JPG,8,ISIC_2927673.JPG,ISIC_0026683.JPG,false,1,keypress(m),500,397937.5,397937.200000003,393610.824,393628.09999999404,393627.49,397944.251,8,400,12,,ISIC_2927673.JPG
break,html.Screen,4_61_1,2023-10-31T19:29:58.214Z,,0,,,NaN,,,,,,false,,,,397938.59999999404,397938.299999997,,397937.799999997,,397944.251,8,400,,,
break_continue,html.Screen,4_61_2,2023-10-31T19:29:58.214Z,,0,,,NaN,,,,,,false,,,,397938.799999997,397938.700000003,,397938.59999999404,,397944.251,8,400,,,
sequence,flow.Sequence,4_61,2023-10-31T19:29:58.215Z,,0,,,4311.21000000299,completion,,,,,false,,,,397939,397938.700000003,393610.824,393628.09999999404,393627.49,397944.251,8,400,,,
trial,html.Screen,4_62_0,2023-10-31T19:30:01.196Z,,0,2,,2975.649000005971,response,ISIC_7095615.JPG,7,ISIC_0011127.JPG,ISIC_0011127.JPG,false,0,keypress(z),500,400920.200000003,400919.90000000596,397927.585,397940.200000003,397944.251,400927.465,8,400,13,,ISIC_7095615.JPG
break,html.Screen,4_62_1,2023-10-31T19:30:01.197Z,,0,,,NaN,,,,,,false,,,,400921,400920.700000003,,400920.5,,400927.465,8,400,,,
break_continue,html.Screen,4_62_2,2023-10-31T19:30:01.197Z,,0,,,NaN,,,,,,false,,,,400921.299999997,400921.200000003,,400921,,400927.465,8,400,,,
sequence,flow.Sequence,4_62,2023-10-31T19:30:01.197Z,,0,,,2976.949000002991,completion,,,,,false,,,,400921.40000000596,400921.200000003,397927.585,397940.09999999404,397944.251,400927.465,8,400,,,
trial,html.Screen,4_63_0,2023-10-31T19:30:05.047Z,,0,2,,3843.5349999999744,response,ISIC_0014973.JPG,8,ISIC_0047004.JPG,ISIC_0014973.JPG,false,1,keypress(m),500,404771.299999997,404771,400910.799,400921.40000000596,400927.465,404777.311,8,400,14,,ISIC_0047004.JPG
break,html.Screen,4_63_1,2023-10-31T19:30:05.048Z,,0,,,NaN,,,,,,false,,,,404772.299999997,404772,,404771.59999999404,,404777.311,8,400,,,
break_continue,html.Screen,4_63_2,2023-10-31T19:30:05.048Z,,0,,,NaN,,,,,,false,,,,404772.59999999404,404772.59999999404,,404772.40000000596,,404777.311,8,400,,,
sequence,flow.Sequence,4_63,2023-10-31T19:30:05.048Z,,0,,,3845.134999994014,completion,,,,,false,,,,404772.700000003,404772.59999999404,400910.799,400921.40000000596,400927.465,404777.311,8,400,,,
trial,html.Screen,4_64_0,2023-10-31T19:30:08.381Z,,0,2,,3327.488999997033,response,ISIC_0013634.JPG,6,ISIC_2349743.JPG,ISIC_0013634.JPG,false,1,keypress(m),500,408105.200000003,408104.799999997,404760.645,404772.799999997,404777.311,408110.769,8,400,15,,ISIC_2349743.JPG
break,html.Screen,4_64_1,2023-10-31T19:30:08.382Z,,0,,,NaN,,,,,,false,,,,408106.299999997,408106.09999999404,,408105.5,,408110.769,8,400,,,
break_continue,html.Screen,4_64_2,2023-10-31T19:30:08.383Z,,0,,,NaN,,,,,,false,,,,408106.799999997,408106.700000003,,408106.5,,408110.769,8,400,,,
sequence,flow.Sequence,4_64,2023-10-31T19:30:08.383Z,,0,,,3329.3890000029933,completion,,,,,false,,,,408106.90000000596,408106.700000003,404760.645,404772.700000003,404777.311,408110.769,8,400,,,
trial,html.Screen,4_65_0,2023-10-31T19:30:11.908Z,,0,2,,3521.231000000029,response,ISIC_0028755.JPG,6,ISIC_0027271.JPG,ISIC_0027271.JPG,false,0,keypress(z),500,411632.59999999404,411632,408094.103,408107.09999999404,408110.769,411643.961,8,400,16,,ISIC_0028755.JPG
break,html.Screen,4_65_1,2023-10-31T19:30:11.910Z,,0,,,NaN,,,,,,false,,,,411634.09999999404,411633.59999999404,,411633,,411643.961,8,400,,,
break_continue,html.Screen,4_65_2,2023-10-31T19:30:11.910Z,,0,,,NaN,,,,,,false,,,,411634.59999999404,411634.40000000596,,411634.200000003,,411643.961,8,400,,,
sequence,flow.Sequence,4_65,2023-10-31T19:30:11.911Z,,0,,,3523.6310000059893,completion,,,,,false,,,,411634.799999997,411634.40000000596,408094.103,408107,408110.769,411643.961,8,400,,,
trial,html.Screen,4_66_0,2023-10-31T19:30:15.068Z,,0,2,,3148.1389999940293,response,ISIC_8626909.JPG,9,ISIC_0004996.JPG,ISIC_8626909.JPG,false,1,keypress(m),500,414792.59999999404,414792.09999999404,411627.295,411635,411643.961,414793.835,8,400,17,,ISIC_0004996.JPG
break,html.Screen,4_66_1,2023-10-31T19:30:15.070Z,,0,,,NaN,,,,,,false,,,,414794,414793.59999999404,,414792.90000000596,,414793.835,8,400,,,
break_continue,html.Screen,4_66_2,2023-10-31T19:30:15.070Z,,0,,,NaN,,,,,,false,,,,414794.299999997,414794.200000003,,414794.09999999404,,414793.835,8,400,,,
sequence,flow.Sequence,4_66,2023-10-31T19:30:15.070Z,,0,,,3150.23900000297,completion,,,,,false,,,,414794.5,414794.200000003,411627.295,411634.90000000596,411643.961,414793.835,8,400,,,
trial,html.Screen,4_67_0,2023-10-31T19:30:18.689Z,,0,2,,3618.964999996999,response,ISIC_0679781.JPG,7,ISIC_5903193.JPG,ISIC_0679781.JPG,false,1,keypress(m),500,418413.09999999404,418412.799999997,414777.169,414794.59999999404,414793.835,418427.285,8,400,18,,ISIC_5903193.JPG
break,html.Screen,4_67_1,2023-10-31T19:30:18.690Z,,0,,,NaN,,,,,,false,,,,418414.59999999404,418414.09999999404,,418413.40000000596,,418427.285,8,400,,,
break_continue,html.Screen,4_67_2,2023-10-31T19:30:18.691Z,,0,,,NaN,,,,,,false,,,,418415.09999999404,418414.90000000596,,418414.799999997,,418427.285,8,400,,,
sequence,flow.Sequence,4_67,2023-10-31T19:30:18.691Z,,0,,,3621.0650000059395,completion,,,,,false,,,,418415.299999997,418414.90000000596,414777.169,414794.59999999404,414793.835,418427.285,8,400,,,
trial,html.Screen,4_68_0,2023-10-31T19:30:22.038Z,,0,2,,3334.7150000000256,response,ISIC_0072641.JPG,6,ISIC_9472209.JPG,ISIC_0072641.JPG,false,1,keypress(m),500,421762.299999997,421762,418410.619,418415.299999997,418427.285,421777.151,8,400,19,,ISIC_9472209.JPG
break,html.Screen,4_68_1,2023-10-31T19:30:22.039Z,,0,,,NaN,,,,,,false,,,,421763.5,421763.200000003,,421762.59999999404,,421777.151,8,400,,,
break_continue,html.Screen,4_68_2,2023-10-31T19:30:22.040Z,,0,,,NaN,,,,,,false,,,,421763.799999997,421763.59999999404,,421763.5,,421777.151,8,400,,,
sequence,flow.Sequence,4_68,2023-10-31T19:30:22.040Z,,0,,,3336.314999994065,completion,,,,,false,,,,421763.799999997,421763.59999999404,418410.619,418415.299999997,418427.285,421777.151,8,400,,,
trial,html.Screen,4_69_0,2023-10-31T19:30:25.453Z,,0,2,,3399.648999997007,response,ISIC_8292179.JPG,7,ISIC_2979268.JPG,ISIC_2979268.JPG,false,0,keypress(z),500,425177.40000000596,425176.799999997,421760.485,421764,421777.151,425193.681,8,400,20,,ISIC_8292179.JPG
break,html.Screen,4_69_1,2023-10-31T19:30:25.454Z,,0,,,NaN,,,,,,false,,,,425178.40000000596,425178.200000003,,425177.59999999404,,425193.681,8,400,,,
break_continue,html.Screen,4_69_2,2023-10-31T19:30:25.455Z,,0,,,NaN,,,,,,false,,,,425178.799999997,425178.700000003,,425178.5,,425193.681,8,400,,,
sequence,flow.Sequence,4_69,2023-10-31T19:30:25.455Z,,0,,,3401.5490000029677,completion,,,,,false,,,,425178.90000000596,425178.700000003,421760.485,421763.90000000596,421777.151,425193.681,8,400,,,
trial,html.Screen,4_70_0,2023-10-31T19:30:28.756Z,,0,2,,3285.4189999940572,response,ISIC_5491641.JPG,7,ISIC_0058607.JPG,ISIC_0058607.JPG,false,0,keypress(z),500,428479.700000003,428479.09999999404,425177.015,425179,425193.681,428493.804,8,400,21,,ISIC_5491641.JPG
break,html.Screen,4_70_1,2023-10-31T19:30:28.757Z,,0,,,NaN,,,,,,false,,,,428480.90000000596,428480.5,,428479.90000000596,,428493.804,8,400,,,
break_continue,html.Screen,4_70_2,2023-10-31T19:30:28.757Z,,0,,,NaN,,,,,,false,,,,428481.299999997,428481.200000003,,428481.09999999404,,428493.804,8,400,,,
sequence,flow.Sequence,4_70,2023-10-31T19:30:28.757Z,,0,,,3287.519000002998,completion,,,,,false,,,,428481.40000000596,428481.200000003,425177.015,425178.90000000596,425193.681,428493.804,8,400,,,
trial,html.Screen,4_71_0,2023-10-31T19:30:33.052Z,,0,2,,4281.695999999996,response,ISIC_0002349.JPG,8,ISIC_0064879.JPG,ISIC_0064879.JPG,false,0,keypress(z),500,432776,432775.5,428477.138,428481.5,428493.804,432793.632,8,400,22,,ISIC_0002349.JPG
break,html.Screen,4_71_1,2023-10-31T19:30:33.053Z,,0,,,NaN,,,,,,false,,,,432777.299999997,432776.90000000596,,432776.40000000596,,432793.632,8,400,,,
break_continue,html.Screen,4_71_2,2023-10-31T19:30:33.054Z,,0,,,NaN,,,,,,false,,,,432777.700000003,432777.59999999404,,432777.5,,432793.632,8,400,,,
sequence,flow.Sequence,4_71,2023-10-31T19:30:33.054Z,,0,,,4283.795999994036,completion,,,,,false,,,,432777.700000003,432777.59999999404,428477.138,428481.5,428493.804,432793.632,8,400,,,
trial,html.Screen,4_72_0,2023-10-31T19:30:38.018Z,,0,2,,4947.967999994056,response,ISIC_5622348.JPG,9,ISIC_0006754.JPG,ISIC_0006754.JPG,false,0,keypress(z),500,437741.90000000596,437741.59999999404,432776.966,432777.90000000596,432793.632,437743.434,8,400,23,,ISIC_5622348.JPG
break,html.Screen,4_72_1,2023-10-31T19:30:38.019Z,,0,,,NaN,,,,,,false,,,,437742.799999997,437742.59999999404,,437742.09999999404,,437743.434,8,400,,,
break_continue,html.Screen,4_72_2,2023-10-31T19:30:38.019Z,,0,,,NaN,,,,,,false,,,,437743.200000003,437743.09999999404,,437742.90000000596,,437743.434,8,400,,,
sequence,flow.Sequence,4_72,2023-10-31T19:30:38.019Z,,0,,,4949.467999994056,completion,,,,,false,,,,437743.40000000596,437743.09999999404,432776.966,432777.90000000596,432793.632,437743.434,8,400,,,
trial,html.Screen,4_73_0,2023-10-31T19:30:41.049Z,,0,2,,3028.966000005952,response,ISIC_4307205.JPG,7,ISIC_0033289.JPG,ISIC_0033289.JPG,false,0,keypress(z),500,440772.799999997,440772.40000000596,437726.768,437743.5,437743.434,440776.91,8,400,24,,ISIC_4307205.JPG
break,html.Screen,4_73_1,2023-10-31T19:30:41.051Z,,0,,,NaN,,,,,,false,,,,440774.299999997,440773.90000000596,,440773.200000003,,440776.91,8,400,,,
break_continue,html.Screen,4_73_2,2023-10-31T19:30:41.051Z,,0,,,NaN,,,,,,false,,,,440775,440774.799999997,,440774.59999999404,,440776.91,8,400,,,
sequence,flow.Sequence,4_73,2023-10-31T19:30:41.051Z,,0,,,3031.3659999970114,completion,,,,,false,,,,440775.200000003,440774.799999997,437726.768,437743.40000000596,437743.434,440776.91,8,400,,,
trial,html.Screen,4_74_0,2023-10-31T19:30:44.304Z,,0,2,,3250.0900000000256,response,ISIC_5296963.JPG,8,ISIC_0183290.JPG,ISIC_0183290.JPG,false,0,keypress(z),500,444027.5,444027,440760.244,440775.299999997,440776.91,444043.446,8,400,25,,ISIC_5296963.JPG
break,html.Screen,4_74_1,2023-10-31T19:30:44.305Z,,0,,,NaN,,,,,,false,,,,444028.700000003,444028.5,,444027.799999997,,444043.446,8,400,,,
break_continue,html.Screen,4_74_2,2023-10-31T19:30:44.306Z,,0,,,NaN,,,,,,false,,,,444029.299999997,444029.09999999404,,444028.90000000596,,444043.446,8,400,,,
sequence,flow.Sequence,4_74,2023-10-31T19:30:44.306Z,,0,,,3252.189999994065,completion,,,,,false,,,,444029.40000000596,444029.09999999404,440760.244,440775.299999997,440776.91,444043.446,8,400,,,
trial,html.Screen,4_75_0,2023-10-31T19:30:49.768Z,,0,2,,5447.554000000004,response,ISIC_0025996.JPG,5,ISIC_0071771.JPG,ISIC_0025996.JPG,false,1,keypress(m),500,449491.59999999404,449491,444026.78,444029.59999999404,444043.446,449493.498,8,400,26,,ISIC_0071771.JPG
break,html.Screen,4_75_1,2023-10-31T19:30:49.769Z,,0,,,NaN,,,,,,false,,,,449493.09999999404,449492.700000003,,449492,,449493.498,8,400,,,
break_continue,html.Screen,4_75_2,2023-10-31T19:30:49.770Z,,0,,,NaN,,,,,,false,,,,449493.5,449493.299999997,,449493.200000003,,449493.498,8,400,,,
sequence,flow.Sequence,4_75,2023-10-31T19:30:49.770Z,,0,,,5449.8539999970235,completion,,,,,false,,,,449493.59999999404,449493.299999997,444026.78,444029.59999999404,444043.446,449493.498,8,400,,,
trial,html.Screen,4_76_0,2023-10-31T19:30:52.798Z,,0,2,,3027.202000002959,response,ISIC_0002258.JPG,8,ISIC_8588033.JPG,ISIC_8588033.JPG,false,0,keypress(z),500,452521.200000003,452520.700000003,449476.832,449493.700000003,449493.498,452526.71,8,400,27,,ISIC_0002258.JPG
break,html.Screen,4_76_1,2023-10-31T19:30:52.799Z,,0,,,NaN,,,,,,false,,,,452522.90000000596,452522.5,,452521.700000003,,452526.71,8,400,,,
break_continue,html.Screen,4_76_2,2023-10-31T19:30:52.800Z,,0,,,NaN,,,,,,false,,,,452523.299999997,452523.09999999404,,452522.90000000596,,452526.71,8,400,,,
sequence,flow.Sequence,4_76,2023-10-31T19:30:52.800Z,,0,,,3029.601999994018,completion,,,,,false,,,,452523.40000000596,452523.09999999404,449476.832,449493.700000003,449493.498,452526.71,8,400,,,
trial,html.Screen,4_77_0,2023-10-31T19:30:57.300Z,,0,2,,4496.289999999979,response,ISIC_1604845.JPG,5,ISIC_0030492.JPG,ISIC_0030492.JPG,false,0,keypress(z),500,457023.5,457023,452510.044,452523.5,452526.71,457026.53,8,400,28,,ISIC_1604845.JPG
break,html.Screen,4_77_1,2023-10-31T19:30:57.301Z,,0,,,NaN,,,,,,false,,,,457024.799999997,457024.5,,457023.700000003,,457026.53,8,400,,,
break_continue,html.Screen,4_77_2,2023-10-31T19:30:57.302Z,,0,,,NaN,,,,,,false,,,,457025.200000003,457025.200000003,,457024.90000000596,,457026.53,8,400,,,
sequence,flow.Sequence,4_77,2023-10-31T19:30:57.302Z,,0,,,4498.490000002959,completion,,,,,false,,,,457025.40000000596,457025.200000003,452510.044,452523.5,452526.71,457026.53,8,400,,,
trial,html.Screen,4_78_0,2023-10-31T19:31:02.155Z,,0,2,,4850.969999999972,response,ISIC_0056635.JPG,5,ISIC_8979275.JPG,ISIC_0056635.JPG,false,1,keypress(m),500,461878,461877.5,457009.864,457025.59999999404,457026.53,461893.265,8,400,29,,ISIC_8979275.JPG
break,html.Screen,4_78_1,2023-10-31T19:31:02.156Z,,0,,,NaN,,,,,,false,,,,461879.299999997,461878.90000000596,,461878.299999997,,461893.265,8,400,,,
break_continue,html.Screen,4_78_2,2023-10-31T19:31:02.156Z,,0,,,NaN,,,,,,false,,,,461879.799999997,461879.59999999404,,461879.40000000596,,461893.265,8,400,,,
sequence,flow.Sequence,4_78,2023-10-31T19:31:02.156Z,,0,,,4853.069999994012,completion,,,,,false,,,,461880,461879.59999999404,457009.864,457025.5,457026.53,461893.265,8,400,,,
trial,html.Screen,4_79_0,2023-10-31T19:31:06.991Z,,0,2,,4820.234999999986,response,ISIC_4049598.JPG,8,ISIC_0028275.JPG,ISIC_4049598.JPG,false,1,keypress(m),500,466714.09999999404,466713.5,461876.599,461880.09999999404,461893.265,466726.405,8,400,30,,ISIC_0028275.JPG
break,html.Screen,4_79_1,2023-10-31T19:31:06.992Z,,0,,,NaN,,,,,,false,,,,466715.09999999404,466714.90000000596,,466714.299999997,,466726.405,8,400,,,
break_continue,html.Screen,4_79_2,2023-10-31T19:31:06.992Z,,0,,,NaN,,,,,,false,,,,466715.59999999404,466715.5,,466715.299999997,,466726.405,8,400,,,
sequence,flow.Sequence,4_79,2023-10-31T19:31:06.992Z,,0,,,4822.234999999986,completion,,,,,false,,,,466715.90000000596,466715.5,461876.599,461880.09999999404,461893.265,466726.405,8,400,,,
trial,html.Screen,4_80_0,2023-10-31T19:31:10.838Z,,0,2,,3834.094999999972,response,ISIC_0027836.JPG,8,ISIC_7246852.JPG,ISIC_0027836.JPG,false,1,keypress(m),500,470560.90000000596,470560.5,466709.739,466716,466726.405,470576.523,8,400,31,,ISIC_7246852.JPG
break,html.Screen,4_80_1,2023-10-31T19:31:10.839Z,,0,,,NaN,,,,,,false,,,,470561.90000000596,470561.700000003,,470561.200000003,,470576.523,8,400,,,
break_continue,html.Screen,4_80_2,2023-10-31T19:31:10.839Z,,0,,,NaN,,,,,,false,,,,470562.40000000596,470562.200000003,,470562,,470576.523,8,400,,,
sequence,flow.Sequence,4_80,2023-10-31T19:31:10.839Z,,0,,,3835.7950000029523,completion,,,,,false,,,,470562.5,470562.200000003,466709.739,466716,466726.405,470576.523,8,400,,,
trial,html.Screen,4_81_0,2023-10-31T19:31:14.624Z,,0,2,,3769.877000005974,response,ISIC_3157046.JPG,5,ISIC_9785077.JPG,ISIC_9785077.JPG,false,0,keypress(z),500,474346.90000000596,474346.40000000596,470559.857,470562.59999999404,470576.523,474359.705,8,400,32,,ISIC_3157046.JPG
break,html.Screen,4_81_1,2023-10-31T19:31:14.625Z,,0,,,NaN,,,,,,false,,,,474348.200000003,474347.799999997,,474347.200000003,,474359.705,8,400,,,
break_continue,html.Screen,4_81_2,2023-10-31T19:31:14.625Z,,0,,,NaN,,,,,,false,,,,474348.700000003,474348.5,,474348.40000000596,,474359.705,8,400,,,
sequence,flow.Sequence,4_81,2023-10-31T19:31:14.625Z,,0,,,3771.9770000000135,completion,,,,,false,,,,474348.799999997,474348.5,470559.857,470562.5,470576.523,474359.705,8,400,,,
trial,html.Screen,4_82_0,2023-10-31T19:31:18.731Z,,0,2,,4093.695000005944,response,ISIC_3494219.JPG,8,ISIC_2256461.JPG,ISIC_3494219.JPG,false,1,keypress(m),500,478453.700000003,478453.40000000596,474343.039,474348.90000000596,474359.705,478459.541,8,400,33,,ISIC_2256461.JPG
break,html.Screen,4_82_1,2023-10-31T19:31:18.731Z,,0,,,NaN,,,,,,false,,,,478454.59999999404,478454.5,,478454,,478459.541,8,400,,,
break_continue,html.Screen,4_82_2,2023-10-31T19:31:18.732Z,,0,,,NaN,,,,,,false,,,,478455,478454.90000000596,,478454.799999997,,478459.541,8,400,,,
sequence,flow.Sequence,4_82,2023-10-31T19:31:18.732Z,,0,,,4095.195000005944,completion,,,,,false,,,,478455.09999999404,478454.90000000596,474343.039,474348.90000000596,474359.705,478459.541,8,400,,,
trial,html.Screen,4_83_0,2023-10-31T19:31:23.094Z,,0,2,,4357.359000005934,response,ISIC_0006327.JPG,9,ISIC_2244564.JPG,ISIC_0006327.JPG,false,1,keypress(m),500,482817.700000003,482816.90000000596,478442.875,478455.299999997,478459.541,482826.295,8,400,34,,ISIC_2244564.JPG
break,html.Screen,4_83_1,2023-10-31T19:31:23.096Z,,0,,,NaN,,,,,,false,,,,482819.59999999404,482819.09999999404,,482818.40000000596,,482826.295,8,400,,,
break_continue,html.Screen,4_83_2,2023-10-31T19:31:23.097Z,,0,,,NaN,,,,,,false,,,,482820.09999999404,482819.90000000596,,482819.700000003,,482826.295,8,400,,,
sequence,flow.Sequence,4_83,2023-10-31T19:31:23.097Z,,0,,,4360.359000005934,completion,,,,,false,,,,482820.299999997,482819.90000000596,478442.875,478455.200000003,478459.541,482826.295,8,400,,,
trial,html.Screen,4_84_0,2023-10-31T19:31:26.238Z,,0,2,,3134.7050000000163,response,ISIC_0027132.JPG,7,ISIC_0034313.JPG,ISIC_0034313.JPG,false,0,keypress(z),500,485961.40000000596,485961,482809.629,482820.40000000596,482826.295,485976.169,8,400,35,,ISIC_0027132.JPG
break,html.Screen,4_84_1,2023-10-31T19:31:26.239Z,,0,,,NaN,,,,,,false,,,,485962.40000000596,485962.09999999404,,485961.700000003,,485976.169,8,400,,,
break_continue,html.Screen,4_84_2,2023-10-31T19:31:26.240Z,,0,,,NaN,,,,,,false,,,,485962.90000000596,485962.700000003,,485962.5,,485976.169,8,400,,,
sequence,flow.Sequence,4_84,2023-10-31T19:31:26.240Z,,0,,,3136.4050000029965,completion,,,,,false,,,,485963,485962.700000003,482809.629,482820.40000000596,482826.295,485976.169,8,400,,,
trial,html.Screen,4_85_0,2023-10-31T19:31:30.323Z,,0,2,,4069.3310000000056,response,ISIC_9667297.JPG,8,ISIC_0014324.JPG,ISIC_9667297.JPG,false,1,keypress(m),500,490046,490045.5,485959.503,485963.09999999404,485976.169,490059.339,8,400,36,,ISIC_0014324.JPG
break,html.Screen,4_85_1,2023-10-31T19:31:30.324Z,,0,,,NaN,,,,,,false,,,,490047.299999997,490046.700000003,,490046.200000003,,490059.339,8,400,,,
break_continue,html.Screen,4_85_2,2023-10-31T19:31:30.325Z,,0,,,NaN,,,,,,false,,,,490047.799999997,490047.700000003,,490047.5,,490059.339,8,400,,,
sequence,flow.Sequence,4_85,2023-10-31T19:31:30.325Z,,0,,,4071.531000002986,completion,,,,,false,,,,490048,490047.700000003,485959.503,485963,485976.169,490059.339,8,400,,,
trial,html.Screen,4_86_0,2023-10-31T19:31:34.301Z,,0,2,,3964.2609999940614,response,ISIC_4066726.JPG,8,ISIC_0006517.JPG,ISIC_4066726.JPG,false,1,keypress(m),500,494024.200000003,494023.59999999404,490042.673,490048.09999999404,490059.339,494026.118,8,400,37,,ISIC_0006517.JPG
break,html.Screen,4_86_1,2023-10-31T19:31:34.303Z,,0,,,NaN,,,,,,false,,,,494025.5,494025.09999999404,,494024.5,,494026.118,8,400,,,
break_continue,html.Screen,4_86_2,2023-10-31T19:31:34.303Z,,0,,,NaN,,,,,,false,,,,494026.09999999404,494025.90000000596,,494025.700000003,,494026.118,8,400,,,
sequence,flow.Sequence,4_86,2023-10-31T19:31:34.304Z,,0,,,3966.5610000059824,completion,,,,,false,,,,494026.5,494025.90000000596,490042.673,490048.09999999404,490059.339,494026.118,8,400,,,
trial,html.Screen,4_87_0,2023-10-31T19:31:38.804Z,,0,2,,4500.481999994023,response,ISIC_0026043.JPG,8,ISIC_1020369.JPG,ISIC_1020369.JPG,false,0,keypress(z),500,498527,498526.59999999404,494009.452,494026.799999997,494026.118,498542.604,8,400,38,,ISIC_0026043.JPG
break,html.Screen,4_87_1,2023-10-31T19:31:38.805Z,,0,,,NaN,,,,,,false,,,,498528.09999999404,498527.90000000596,,498527.299999997,,498542.604,8,400,,,
break_continue,html.Screen,4_87_2,2023-10-31T19:31:38.806Z,,0,,,NaN,,,,,,false,,,,498528.700000003,498528.40000000596,,498528.299999997,,498542.604,8,400,,,
sequence,flow.Sequence,4_87,2023-10-31T19:31:38.806Z,,0,,,4502.282000005944,completion,,,,,false,,,,498528.90000000596,498528.40000000596,494009.452,494026.700000003,494026.118,498542.604,8,400,,,
trial,html.Screen,4_88_0,2023-10-31T19:31:42.842Z,,0,2,,4022.096000002988,response,ISIC_0001875.JPG,7,ISIC_0007808.JPG,ISIC_0007808.JPG,false,0,keypress(z),500,502565.09999999404,502564.700000003,498525.938,498528.90000000596,498542.604,502576.055,8,400,39,,ISIC_0001875.JPG
break,html.Screen,4_88_1,2023-10-31T19:31:42.844Z,,0,,,NaN,,,,,,false,,,,502566.40000000596,502566,,502565.5,,502576.055,8,400,,,
break_continue,html.Screen,4_88_2,2023-10-31T19:31:42.844Z,,0,,,NaN,,,,,,false,,,,502566.799999997,502566.700000003,,502566.5,,502576.055,8,400,,,
sequence,flow.Sequence,4_88,2023-10-31T19:31:42.844Z,,0,,,4024.096000002988,completion,,,,,false,,,,502566.90000000596,502566.700000003,498525.938,498528.90000000596,498542.604,502576.055,8,400,,,
trial,html.Screen,4_89_0,2023-10-31T19:31:46.416Z,,0,2,,3561.7449999970268,response,ISIC_0032472.JPG,7,ISIC_0027125.JPG,ISIC_0032472.JPG,false,1,keypress(m),500,506138.40000000596,506137.799999997,502559.389,502567,502576.055,506142.579,8,400,40,,ISIC_0027125.JPG
break,html.Screen,4_89_1,2023-10-31T19:31:46.417Z,,0,,,NaN,,,,,,false,,,,506139.700000003,506139.299999997,,506138.700000003,,506142.579,8,400,,,
break_continue,html.Screen,4_89_2,2023-10-31T19:31:46.417Z,,0,,,NaN,,,,,,false,,,,506140.200000003,506140,,506139.799999997,,506142.579,8,400,,,
sequence,flow.Sequence,4_89,2023-10-31T19:31:46.418Z,,0,,,3563.945000000007,completion,,,,,false,,,,506140.299999997,506140,502559.389,502567,502576.055,506142.579,8,400,,,
trial,html.Screen,4_90_0,2023-10-31T19:31:49.478Z,,0,2,,3057.420999999973,response,ISIC_0027063.JPG,7,ISIC_0034076.JPG,ISIC_0034076.JPG,false,0,keypress(z),500,509200.40000000596,509200,506125.913,506140.5,506142.579,509209.123,8,400,41,,ISIC_0027063.JPG
break,html.Screen,4_90_1,2023-10-31T19:31:49.479Z,,0,,,NaN,,,,,,false,,,,509201.700000003,509201.40000000596,,509200.799999997,,509209.123,8,400,,,
break_continue,html.Screen,4_90_2,2023-10-31T19:31:49.479Z,,0,,,NaN,,,,,,false,,,,509202.09999999404,509202,,509201.90000000596,,509209.123,8,400,,,
sequence,flow.Sequence,4_90,2023-10-31T19:31:49.479Z,,0,,,3059.420999999973,completion,,,,,false,,,,509202.299999997,509202,506125.913,506140.40000000596,506142.579,509209.123,8,400,,,
trial,html.Screen,4_91_0,2023-10-31T19:31:52.811Z,,0,2,,3323.476999994018,response,ISIC_0027600.JPG,8,ISIC_0055783.JPG,ISIC_0055783.JPG,false,0,keypress(z),500,512533.299999997,512532.59999999404,509192.457,509202.40000000596,509209.123,512559.252,8,400,42,,ISIC_0027600.JPG
break,html.Screen,4_91_1,2023-10-31T19:31:52.812Z,,0,,,NaN,,,,,,false,,,,512534.799999997,512534.299999997,,512533.59999999404,,512559.252,8,400,,,
break_continue,html.Screen,4_91_2,2023-10-31T19:31:52.812Z,,0,,,NaN,,,,,,false,,,,512535.09999999404,512535,,512534.799999997,,512559.252,8,400,,,
sequence,flow.Sequence,4_91,2023-10-31T19:31:52.813Z,,0,,,3325.8769999999786,completion,,,,,false,,,,512535.200000003,512535,509192.457,509202.299999997,509209.123,512559.252,8,400,,,
trial,html.Screen,4_92_0,2023-10-31T19:31:56.498Z,,0,2,,3660.847999994061,response,ISIC_1960468.JPG,8,ISIC_7349772.JPG,ISIC_1960468.JPG,false,1,keypress(m),500,516220.5,516220.09999999404,512542.586,512535.40000000596,512559.252,516225.772,8,400,43,,ISIC_7349772.JPG
break,html.Screen,4_92_1,2023-10-31T19:31:56.499Z,,0,,,NaN,,,,,,false,,,,516221.5,516221.299999997,,516220.799999997,,516225.772,8,400,,,
break_continue,html.Screen,4_92_2,2023-10-31T19:31:56.499Z,,0,,,NaN,,,,,,false,,,,516221.90000000596,516221.90000000596,,516221.700000003,,516225.772,8,400,,,
sequence,flow.Sequence,4_92,2023-10-31T19:31:56.499Z,,0,,,3662.648000005982,completion,,,,,false,,,,516222.09999999404,516221.90000000596,512542.586,512535.40000000596,512559.252,516225.772,8,400,,,
trial,html.Screen,4_93_0,2023-10-31T19:32:00.217Z,,0,2,,3713.1280000059633,response,ISIC_0053594.JPG,6,ISIC_0054748.JPG,ISIC_0053594.JPG,false,1,keypress(m),500,519939.90000000596,519938.90000000596,516209.106,516222.200000003,516225.772,519942.29,8,400,44,,ISIC_0054748.JPG
break,html.Screen,4_93_1,2023-10-31T19:32:00.219Z,,0,,,NaN,,,,,,false,,,,519941.700000003,519941.40000000596,,519940.40000000596,,519942.29,8,400,,,
break_continue,html.Screen,4_93_2,2023-10-31T19:32:00.219Z,,0,,,NaN,,,,,,false,,,,519942.09999999404,519941.90000000596,,519941.799999997,,519942.29,8,400,,,
sequence,flow.Sequence,4_93,2023-10-31T19:32:00.220Z,,0,,,3716.1280000059633,completion,,,,,false,,,,519942.200000003,519941.90000000596,516209.106,516222.09999999404,516225.772,519942.29,8,400,,,
trial,html.Screen,4_94_0,2023-10-31T19:32:03.712Z,,0,2,,3491.8099999940605,response,ISIC_0010227.JPG,7,ISIC_0033479.JPG,ISIC_0033479.JPG,false,0,keypress(z),500,523434.5,523434.09999999404,519925.624,519942.200000003,519942.29,523442.404,8,400,45,,ISIC_0010227.JPG
break,html.Screen,4_94_1,2023-10-31T19:32:03.713Z,,0,,,NaN,,,,,,false,,,,523435.799999997,523435.5,,523434.799999997,,523442.404,8,400,,,
break_continue,html.Screen,4_94_2,2023-10-31T19:32:03.714Z,,0,,,NaN,,,,,,false,,,,523436.200000003,523436.09999999404,,523435.90000000596,,523442.404,8,400,,,
sequence,flow.Sequence,4_94,2023-10-31T19:32:03.714Z,,0,,,3493.8099999940605,completion,,,,,false,,,,523436.299999997,523436.09999999404,519925.624,519942.200000003,519942.29,523442.404,8,400,,,
trial,html.Screen,4_95_0,2023-10-31T19:32:07.927Z,,0,2,,4206.195999994059,response,ISIC_9234944.JPG,8,ISIC_3232329.JPG,ISIC_9234944.JPG,false,1,keypress(m),500,527649.200000003,527648.599999994,523425.738,523436.5,523442.404,527658.902,8,400,46,,ISIC_3232329.JPG
break,html.Screen,4_95_1,2023-10-31T19:32:07.928Z,,0,,,NaN,,,,,,false,,,,527650.5,527650.200000003,,527649.599999994,,527658.902,8,400,,,
break_continue,html.Screen,4_95_2,2023-10-31T19:32:07.929Z,,0,,,NaN,,,,,,false,,,,527651.099999994,527651,,527650.799999997,,527658.902,8,400,,,
sequence,flow.Sequence,4_95,2023-10-31T19:32:07.929Z,,0,,,4208.59600000002,completion,,,,,false,,,,527651.200000003,527651,523425.738,523436.40000000596,523442.404,527658.902,8,400,,,
trial,html.Screen,4_96_0,2023-10-31T19:32:13.007Z,,0,2,,5069.998000005959,response,ISIC_6463417.JPG,6,ISIC_5555140.JPG,ISIC_5555140.JPG,false,0,keypress(z),500,532729.400000006,532728.900000006,527642.236,527651.299999997,527658.902,532742.032,8,400,47,,ISIC_6463417.JPG
break,html.Screen,4_96_1,2023-10-31T19:32:13.008Z,,0,,,NaN,,,,,,false,,,,532730.700000003,532730.400000006,,532729.700000003,,532742.032,8,400,,,
break_continue,html.Screen,4_96_2,2023-10-31T19:32:13.009Z,,0,,,NaN,,,,,,false,,,,532731.200000003,532730.900000006,,532730.799999997,,532742.032,8,400,,,
sequence,flow.Sequence,4_96,2023-10-31T19:32:13.009Z,,0,,,5071.998000005959,completion,,,,,false,,,,532731.200000003,532730.900000006,527642.236,527651.200000003,527658.902,532742.032,8,400,,,
trial,html.Screen,4_97_0,2023-10-31T19:32:16.087Z,,0,2,,3066.6680000029737,response,ISIC_0032598.JPG,5,ISIC_0250064.JPG,ISIC_0250064.JPG,false,0,keypress(z),500,535809.299999997,535808.700000003,532725.366,532731.299999997,532742.032,535825.504,8,400,48,,ISIC_0032598.JPG
break,html.Screen,4_97_1,2023-10-31T19:32:16.088Z,,0,,,NaN,,,,,,false,,,,535810.5,535810.200000003,,535809.5,,535825.504,8,400,,,
break_continue,html.Screen,4_97_2,2023-10-31T19:32:16.089Z,,0,,,NaN,,,,,,false,,,,535811,535810.900000006,,535810.599999994,,535825.504,8,400,,,
sequence,flow.Sequence,4_97,2023-10-31T19:32:16.089Z,,0,,,3068.868000005954,completion,,,,,false,,,,535811.299999997,535810.900000006,532725.366,532731.299999997,532742.032,535825.504,8,400,,,
trial,html.Screen,4_98_0,2023-10-31T19:32:20.110Z,,0,2,,4006.5959999940824,response,ISIC_9077722.JPG,8,ISIC_0053555.JPG,ISIC_0053555.JPG,false,0,keypress(z),500,539832.400000006,539832.099999994,535808.838,535811.5,535825.504,539842.01,8,400,49,,ISIC_9077722.JPG
break,html.Screen,4_98_1,2023-10-31T19:32:20.111Z,,0,,,NaN,,,,,,false,,,,539833.400000006,539833.200000003,,539832.799999997,,539842.01,8,400,,,
break_continue,html.Screen,4_98_2,2023-10-31T19:32:20.112Z,,0,,,NaN,,,,,,false,,,,539834,539833.799999997,,539833.599999994,,539842.01,8,400,,,
sequence,flow.Sequence,4_98,2023-10-31T19:32:20.112Z,,0,,,4008.2959999970626,completion,,,,,false,,,,539834.099999994,539833.799999997,535808.838,535811.400000006,535825.504,539842.01,8,400,,,
trial,html.Screen,4_99_0,2023-10-31T19:32:23.365Z,,0,2,,3244.2899999970105,response,ISIC_0062524.JPG,5,ISIC_2126084.JPG,ISIC_0062524.JPG,false,1,keypress(m),500,543086.900000006,543086.299999997,539825.344,539834.400000006,539842.01,543091.88,8,400,50,,ISIC_2126084.JPG
break,html.Screen,4_99_1,2023-10-31T19:32:33.359Z,,0,,,9999.863000000012,timeout,,,,,false,,,,553081.400000006,553075.077,543075.214,543087.200000003,543091.88,553091.743,8,400,,,
break_continue,html.Screen,4_99_2,2023-10-31T19:32:34.095Z,,0,,,706.9570000029635,response,,,,,false,continue,keypress(Space),,553816.799999997,553798.700000003,553075.077,553081.599999994,553091.743,553825.301,8,400,,,
sequence,flow.Sequence,4_99,2023-10-31T19:32:34.095Z,,0,,,13956.690000002971,completion,,,,,false,,,,553817.099999994,553798.700000003,539825.344,539834.299999997,539842.01,553825.301,8,400,,,
trial,html.Screen,4_100_0,2023-10-31T19:32:38.325Z,,0,3,,4221.199000000022,response,ISIC_0778327.JPG,7,ISIC_4980328.JPG,ISIC_4980328.JPG,false,0,keypress(z),500,558047,558046.5,553808.635,553817.099999994,553825.301,558058.465,8,400,1,,ISIC_0778327.JPG
break,html.Screen,4_100_1,2023-10-31T19:32:38.327Z,,0,,,NaN,,,,,,false,,,,558048.599999994,558048.299999997,,558047.400000006,,558058.465,8,400,,,
break_continue,html.Screen,4_100_2,2023-10-31T19:32:38.327Z,,0,,,NaN,,,,,,false,,,,558049.299999997,558049.099999994,,558048.799999997,,558058.465,8,400,,,
sequence,flow.Sequence,4_100,2023-10-31T19:32:38.327Z,,0,,,4223.798999994062,completion,,,,,false,,,,558049.5,558049.099999994,553808.635,553817.099999994,553825.301,558058.465,8,400,,,
trial,html.Screen,4_101_0,2023-10-31T19:32:42.206Z,,0,3,,3868.735000003013,response,ISIC_0013342.JPG,7,ISIC_2819798.JPG,ISIC_2819798.JPG,false,0,keypress(z),500,561927.599999994,561927.200000003,558041.799,558049.700000003,558058.465,561941.643,8,400,2,,ISIC_0013342.JPG
break,html.Screen,4_101_1,2023-10-31T19:32:42.207Z,,0,,,NaN,,,,,,false,,,,561928.900000006,561928.5,,561928,,561941.643,8,400,,,
break_continue,html.Screen,4_101_2,2023-10-31T19:32:42.207Z,,0,,,NaN,,,,,,false,,,,561929.400000006,561929.299999997,,561929,,561941.643,8,400,,,
sequence,flow.Sequence,4_101,2023-10-31T19:32:42.208Z,,0,,,3870.8349999970524,completion,,,,,false,,,,561929.599999994,561929.299999997,558041.799,558049.599999994,558058.465,561941.643,8,400,,,
trial,html.Screen,4_102_0,2023-10-31T19:32:45.861Z,,0,3,,3640.6569999969797,response,ISIC_0029502.JPG,7,ISIC_0025303.JPG,ISIC_0029502.JPG,false,1,keypress(m),500,565582.700000003,565582.299999997,561924.977,561929.799999997,561941.643,565591.758,8,400,3,,ISIC_0025303.JPG
break,html.Screen,4_102_1,2023-10-31T19:32:45.862Z,,0,,,NaN,,,,,,false,,,,565583.900000006,565583.599999994,,565583,,565591.758,8,400,,,
break_continue,html.Screen,4_102_2,2023-10-31T19:32:45.862Z,,0,,,NaN,,,,,,false,,,,565584.299999997,565584.200000003,,565584.099999994,,565591.758,8,400,,,
sequence,flow.Sequence,4_102,2023-10-31T19:32:45.863Z,,0,,,3642.55700000294,completion,,,,,false,,,,565584.599999994,565584.200000003,561924.977,561929.700000003,561941.643,565591.758,8,400,,,
trial,html.Screen,4_103_0,2023-10-31T19:32:49.241Z,,0,3,,3371.2419999999693,response,ISIC_0060893.JPG,8,ISIC_2681497.JPG,ISIC_0060893.JPG,false,1,keypress(m),500,568963.400000006,568963,565575.092,565584.599999994,565591.758,568974.956,8,400,4,,ISIC_2681497.JPG
break,html.Screen,4_103_1,2023-10-31T19:32:49.242Z,,0,,,NaN,,,,,,false,,,,568964.400000006,568964.099999994,,568963.599999994,,568974.956,8,400,,,
break_continue,html.Screen,4_103_2,2023-10-31T19:32:49.243Z,,0,,,NaN,,,,,,false,,,,568964.799999997,568964.700000003,,568964.400000006,,568974.956,8,400,,,
sequence,flow.Sequence,4_103,2023-10-31T19:32:49.243Z,,0,,,3372.9420000029495,completion,,,,,false,,,,568965,568964.700000003,565575.092,565584.599999994,565591.758,568974.956,8,400,,,
trial,html.Screen,4_104_0,2023-10-31T19:32:53.217Z,,0,3,,3963.0439999999944,response,ISIC_0033387.JPG,6,ISIC_0059786.JPG,ISIC_0059786.JPG,false,0,keypress(z),500,572938.599999994,572938,568958.29,568965.099999994,568974.956,572941.464,8,400,5,,ISIC_0033387.JPG
break,html.Screen,4_104_1,2023-10-31T19:32:53.218Z,,0,,,NaN,,,,,,false,,,,572940,572939.700000003,,572938.900000006,,572941.464,8,400,,,
break_continue,html.Screen,4_104_2,2023-10-31T19:32:53.219Z,,0,,,NaN,,,,,,false,,,,572940.599999994,572940.5,,572940.299999997,,572941.464,8,400,,,
sequence,flow.Sequence,4_104,2023-10-31T19:32:53.219Z,,0,,,3965.5439999999944,completion,,,,,false,,,,572940.900000006,572940.5,568958.29,568965.099999994,568974.956,572941.464,8,400,,,
trial,html.Screen,4_105_0,2023-10-31T19:32:57.321Z,,0,3,,4100.535999999964,response,ISIC_4161113.JPG,8,ISIC_0032516.JPG,ISIC_0032516.JPG,false,0,keypress(z),500,577042.299999997,577042,572924.798,572941,572941.464,577058.233,8,400,6,,ISIC_4161113.JPG
break,html.Screen,4_105_1,2023-10-31T19:32:57.322Z,,0,,,NaN,,,,,,false,,,,577043.299999997,577043,,577042.5,,577058.233,8,400,,,
break_continue,html.Screen,4_105_2,2023-10-31T19:32:57.322Z,,0,,,NaN,,,,,,false,,,,577043.799999997,577043.599999994,,577043.400000006,,577058.233,8,400,,,
sequence,flow.Sequence,4_105,2023-10-31T19:32:57.322Z,,0,,,4102.135999994003,completion,,,,,false,,,,577043.900000006,577043.599999994,572924.798,572940.900000006,572941.464,577058.233,8,400,,,
trial,html.Screen,4_106_0,2023-10-31T19:33:01.392Z,,0,3,,4054.467000002973,response,ISIC_0013501.JPG,6,ISIC_9059250.JPG,ISIC_0013501.JPG,false,1,keypress(m),500,581113.299999997,581112.700000003,577041.567,577044,577058.233,581124.737,8,400,7,,ISIC_9059250.JPG
break,html.Screen,4_106_1,2023-10-31T19:33:01.393Z,,0,,,NaN,,,,,,false,,,,581114.700000003,581114.200000003,,581113.599999994,,581124.737,8,400,,,
break_continue,html.Screen,4_106_2,2023-10-31T19:33:01.393Z,,0,,,NaN,,,,,,false,,,,581115.099999994,581115.099999994,,581114.799999997,,581124.737,8,400,,,
sequence,flow.Sequence,4_106,2023-10-31T19:33:01.394Z,,0,,,4056.866999994032,completion,,,,,false,,,,581115.299999997,581115.099999994,577041.567,577043.900000006,577058.233,581124.737,8,400,,,
trial,html.Screen,4_107_0,2023-10-31T19:33:04.491Z,,0,3,,3086.9630000030156,response,ISIC_0029660.JPG,8,ISIC_1039970.JPG,ISIC_0029660.JPG,false,1,keypress(m),500,584212.200000003,584211.700000003,581108.071,581115.400000006,581124.737,584224.613,8,400,8,,ISIC_1039970.JPG
break,html.Screen,4_107_1,2023-10-31T19:33:04.492Z,,0,,,NaN,,,,,,false,,,,584213.599999994,584213.299999997,,584212.599999994,,584224.613,8,400,,,
break_continue,html.Screen,4_107_2,2023-10-31T19:33:04.492Z,,0,,,NaN,,,,,,false,,,,584214.099999994,584213.900000006,,584213.799999997,,584224.613,8,400,,,
sequence,flow.Sequence,4_107,2023-10-31T19:33:04.493Z,,0,,,3089.163000005996,completion,,,,,false,,,,584214.299999997,584213.900000006,581108.071,581115.400000006,581124.737,584224.613,8,400,,,
trial,html.Screen,4_108_0,2023-10-31T19:33:07.744Z,,0,3,,3240.2870000059484,response,ISIC_8094432.JPG,8,ISIC_0014127.JPG,ISIC_0014127.JPG,false,0,keypress(z),500,587465.299999997,587464.900000006,584207.947,584214.400000006,584224.613,587474.744,8,400,9,,ISIC_8094432.JPG
break,html.Screen,4_108_1,2023-10-31T19:33:07.745Z,,0,,,NaN,,,,,,false,,,,587466.700000003,587466.400000006,,587465.799999997,,587474.744,8,400,,,
break_continue,html.Screen,4_108_2,2023-10-31T19:33:07.746Z,,0,,,NaN,,,,,,false,,,,587467.299999997,587467.099999994,,587467,,587474.744,8,400,,,
sequence,flow.Sequence,4_108,2023-10-31T19:33:07.746Z,,0,,,3242.4869999940274,completion,,,,,false,,,,587467.5,587467.099999994,584207.947,584214.400000006,584224.613,587474.744,8,400,,,
trial,html.Screen,4_109_0,2023-10-31T19:33:10.984Z,,0,3,,3230.3559999940917,response,ISIC_0030484.JPG,7,ISIC_0066240.JPG,ISIC_0066240.JPG,false,0,keypress(z),500,590705.799999997,590705.099999994,587458.078,587467.599999994,587474.744,590707.948,8,400,10,,ISIC_0030484.JPG
break,html.Screen,4_109_1,2023-10-31T19:33:10.985Z,,0,,,NaN,,,,,,false,,,,590707,590706.799999997,,590706.099999994,,590707.948,8,400,,,
break_continue,html.Screen,4_109_2,2023-10-31T19:33:10.986Z,,0,,,NaN,,,,,,false,,,,590707.5,590707.400000006,,590707.200000003,,590707.948,8,400,,,
sequence,flow.Sequence,4_109,2023-10-31T19:33:10.986Z,,0,,,3232.6560000060126,completion,,,,,false,,,,590707.700000003,590707.400000006,587458.078,587467.599999994,587474.744,590707.948,8,400,,,
trial,html.Screen,4_110_0,2023-10-31T19:33:13.951Z,,0,3,,2964.351999997045,response,ISIC_8287726.JPG,4,ISIC_0015455.JPG,ISIC_0015455.JPG,false,0,keypress(z),500,593672.799999997,593672.299999997,590691.282,590707.799999997,590707.948,593674.496,8,400,11,,ISIC_8287726.JPG
break,html.Screen,4_110_1,2023-10-31T19:33:13.952Z,,0,,,NaN,,,,,,false,,,,593673.900000006,593673.700000003,,593673.099999994,,593674.496,8,400,,,
break_continue,html.Screen,4_110_2,2023-10-31T19:33:13.953Z,,0,,,NaN,,,,,,false,,,,593674.299999997,593674.200000003,,593674.099999994,,593674.496,8,400,,,
sequence,flow.Sequence,4_110,2023-10-31T19:33:13.953Z,,0,,,2966.2520000030054,completion,,,,,false,,,,593674.5,593674.200000003,590691.282,590707.700000003,590707.948,593674.496,8,400,,,
trial,html.Screen,4_111_0,2023-10-31T19:33:17.030Z,,0,3,,3076.2040000029374,response,ISIC_0055289.JPG,6,ISIC_0067338.JPG,ISIC_0055289.JPG,false,1,keypress(m),500,596751.5,596750.700000003,593657.83,593674.700000003,593674.496,596757.971,8,400,12,,ISIC_0067338.JPG
break,html.Screen,4_111_1,2023-10-31T19:33:17.032Z,,0,,,NaN,,,,,,false,,,,596753,596752.799999997,,596752,,596757.971,8,400,,,
break_continue,html.Screen,4_111_2,2023-10-31T19:33:17.032Z,,0,,,NaN,,,,,,false,,,,596753.299999997,596753.200000003,,596753.200000003,,596757.971,8,400,,,
sequence,flow.Sequence,4_111,2023-10-31T19:33:17.032Z,,0,,,3078.7040000029374,completion,,,,,false,,,,596753.5,596753.200000003,593657.83,593674.599999994,593674.496,596757.971,8,400,,,
trial,html.Screen,4_112_0,2023-10-31T19:33:20.253Z,,0,3,,3216.12899999402,response,ISIC_8671702.JPG,6,ISIC_0061379.JPG,ISIC_0061379.JPG,false,0,keypress(z),500,599974.5,599974.099999994,596741.305,596753.5,596757.971,599991.175,8,400,13,,ISIC_8671702.JPG
break,html.Screen,4_112_1,2023-10-31T19:33:20.254Z,,0,,,NaN,,,,,,false,,,,599975.400000006,599975.200000003,,599974.700000003,,599991.175,8,400,,,
break_continue,html.Screen,4_112_2,2023-10-31T19:33:20.254Z,,0,,,NaN,,,,,,false,,,,599975.799999997,599975.700000003,,599975.5,,599991.175,8,400,,,
sequence,flow.Sequence,4_112,2023-10-31T19:33:20.254Z,,0,,,3217.7290000029607,completion,,,,,false,,,,599975.900000006,599975.700000003,596741.305,596753.5,596757.971,599991.175,8,400,,,
trial,html.Screen,4_113_0,2023-10-31T19:33:24.004Z,,0,3,,3733.8249999999534,response,ISIC_0013610.JPG,8,ISIC_6380209.JPG,ISIC_6380209.JPG,false,0,keypress(z),500,603725.400000006,603725,599974.509,599976,599991.175,603741.025,8,400,14,,ISIC_0013610.JPG
break,html.Screen,4_113_1,2023-10-31T19:33:24.005Z,,0,,,NaN,,,,,,false,,,,603726.599999994,603726.299999997,,603725.700000003,,603741.025,8,400,,,
break_continue,html.Screen,4_113_2,2023-10-31T19:33:24.006Z,,0,,,NaN,,,,,,false,,,,603727.200000003,603727,,603726.799999997,,603741.025,8,400,,,
sequence,flow.Sequence,4_113,2023-10-31T19:33:24.006Z,,0,,,3735.8249999999534,completion,,,,,false,,,,603727.400000006,603727,599974.509,599975.900000006,599991.175,603741.025,8,400,,,
trial,html.Screen,4_114_0,2023-10-31T19:33:28.618Z,,0,3,,4597.474999999977,response,ISIC_0010067.JPG,6,ISIC_0591011.JPG,ISIC_0010067.JPG,false,1,keypress(m),500,608339,608338.5,603724.359,603727.5,603741.025,608341.096,8,400,15,,ISIC_0591011.JPG
break,html.Screen,4_114_1,2023-10-31T19:33:28.619Z,,0,,,NaN,,,,,,false,,,,608340.5,608340,,608339.299999997,,608341.096,8,400,,,
break_continue,html.Screen,4_114_2,2023-10-31T19:33:28.619Z,,0,,,NaN,,,,,,false,,,,608340.700000003,608340.700000003,,608340.5,,608341.096,8,400,,,
sequence,flow.Sequence,4_114,2023-10-31T19:33:28.620Z,,0,,,4599.675000002957,completion,,,,,false,,,,608340.900000006,608340.700000003,603724.359,603727.5,603741.025,608341.096,8,400,,,
trial,html.Screen,4_115_0,2023-10-31T19:33:31.824Z,,0,3,,3203.9039999999804,response,ISIC_0012260.JPG,5,ISIC_1059525.JPG,ISIC_0012260.JPG,false,1,keypress(m),500,611545.5,611545,608324.43,608341,608341.096,611557.634,8,400,16,,ISIC_1059525.JPG
break,html.Screen,4_115_1,2023-10-31T19:33:31.825Z,,0,,,NaN,,,,,,false,,,,611546.599999994,611546.200000003,,611545.700000003,,611557.634,8,400,,,
break_continue,html.Screen,4_115_2,2023-10-31T19:33:31.826Z,,0,,,NaN,,,,,,false,,,,611547.200000003,611547,,611546.799999997,,611557.634,8,400,,,
sequence,flow.Sequence,4_115,2023-10-31T19:33:31.826Z,,0,,,3205.9039999999804,completion,,,,,false,,,,611547.400000006,611547,608324.43,608340.900000006,608341.096,611557.634,8,400,,,
trial,html.Screen,4_116_0,2023-10-31T19:33:36.119Z,,0,3,,4281.866000000038,response,ISIC_4673648.JPG,8,ISIC_0000139.JPG,ISIC_4673648.JPG,false,1,keypress(m),500,615839.900000006,615839.5,611540.968,611547.400000006,611557.634,615857.732,8,400,17,,ISIC_0000139.JPG
break,html.Screen,4_116_1,2023-10-31T19:33:36.120Z,,0,,,NaN,,,,,,false,,,,615841.299999997,615841,,615840.299999997,,615857.732,8,400,,,
break_continue,html.Screen,4_116_2,2023-10-31T19:33:36.121Z,,0,,,NaN,,,,,,false,,,,615841.599999994,615841.5,,615841.299999997,,615857.732,8,400,,,
sequence,flow.Sequence,4_116,2023-10-31T19:33:36.121Z,,0,,,4283.866000000038,completion,,,,,false,,,,615841.900000006,615841.5,611540.968,611547.400000006,611557.634,615857.732,8,400,,,
trial,html.Screen,4_117_0,2023-10-31T19:33:40.508Z,,0,3,,4370.96800000302,response,ISIC_8789051.JPG,8,ISIC_3797095.JPG,ISIC_8789051.JPG,false,1,keypress(m),500,620229.400000006,620228.700000003,615841.066,615842,615857.732,620240.89,8,400,18,,ISIC_3797095.JPG
break,html.Screen,4_117_1,2023-10-31T19:33:40.510Z,,0,,,NaN,,,,,,false,,,,620231.400000006,620230.799999997,,620229.799999997,,620240.89,8,400,,,
break_continue,html.Screen,4_117_2,2023-10-31T19:33:40.511Z,,0,,,NaN,,,,,,false,,,,620232,620231.700000003,,620231.599999994,,620240.89,8,400,,,
sequence,flow.Sequence,4_117,2023-10-31T19:33:40.511Z,,0,,,4373.96800000302,completion,,,,,false,,,,620232.099999994,620231.700000003,615841.066,615841.900000006,615857.732,620240.89,8,400,,,
trial,html.Screen,4_118_0,2023-10-31T19:33:44.885Z,,0,3,,4364.5100000059465,response,ISIC_2841488.JPG,8,ISIC_0014920.JPG,ISIC_2841488.JPG,false,1,keypress(m),500,624605.799999997,624605.400000006,620224.224,620232.400000006,620240.89,624607.382,8,400,19,,ISIC_0014920.JPG
break,html.Screen,4_118_1,2023-10-31T19:33:44.886Z,,0,,,NaN,,,,,,false,,,,624606.599999994,624606.5,,624606,,624607.382,8,400,,,
break_continue,html.Screen,4_118_2,2023-10-31T19:33:44.886Z,,0,,,NaN,,,,,,false,,,,624607.099999994,624607,,624606.799999997,,624607.382,8,400,,,
sequence,flow.Sequence,4_118,2023-10-31T19:33:44.886Z,,0,,,4366.109999999986,completion,,,,,false,,,,624607.200000003,624607,620224.224,620232.299999997,620240.89,624607.382,8,400,,,
trial,html.Screen,4_119_0,2023-10-31T19:33:49.227Z,,0,3,,4339.9179999970365,response,ISIC_6398669.JPG,7,ISIC_6440229.JPG,ISIC_6440229.JPG,false,0,keypress(z),500,628947.700000003,628947.299999997,624590.716,624607.299999997,624607.382,628957.468,8,400,20,,ISIC_6398669.JPG
break,html.Screen,4_119_1,2023-10-31T19:33:49.228Z,,0,,,NaN,,,,,,false,,,,628948.5,628948.299999997,,628947.900000006,,628957.468,8,400,,,
break_continue,html.Screen,4_119_2,2023-10-31T19:33:49.228Z,,0,,,NaN,,,,,,false,,,,628948.900000006,628948.799999997,,628948.700000003,,628957.468,8,400,,,
sequence,flow.Sequence,4_119,2023-10-31T19:33:49.228Z,,0,,,4341.4179999970365,completion,,,,,false,,,,628949,628948.799999997,624590.716,624607.299999997,624607.382,628957.468,8,400,,,
trial,html.Screen,4_120_0,2023-10-31T19:33:52.481Z,,0,3,,3244.432000005967,response,ISIC_4810485.JPG,5,ISIC_0055289.JPG,ISIC_0055289.JPG,false,0,keypress(z),500,632202.299999997,632201.900000006,628940.802,628949.299999997,628957.468,632207.338,8,400,21,,ISIC_4810485.JPG
break,html.Screen,4_120_1,2023-10-31T19:33:52.483Z,,0,,,NaN,,,,,,false,,,,632203.599999994,632203.299999997,,632202.599999994,,632207.338,8,400,,,
break_continue,html.Screen,4_120_2,2023-10-31T19:33:52.483Z,,0,,,NaN,,,,,,false,,,,632204.299999997,632204,,632203.799999997,,632207.338,8,400,,,
sequence,flow.Sequence,4_120,2023-10-31T19:33:52.484Z,,0,,,3246.5320000000065,completion,,,,,false,,,,632204.400000006,632204,628940.802,628949.200000003,628957.468,632207.338,8,400,,,
trial,html.Screen,4_121_0,2023-10-31T19:33:55.867Z,,0,3,,3380.461999997031,response,ISIC_0185918.JPG,8,ISIC_6162545.JPG,ISIC_0185918.JPG,false,1,keypress(m),500,635588.299999997,635587.799999997,632190.672,632204.700000003,632207.338,635590.536,8,400,22,,ISIC_6162545.JPG
break,html.Screen,4_121_1,2023-10-31T19:33:55.869Z,,0,,,NaN,,,,,,false,,,,635589.700000003,635589.299999997,,635588.599999994,,635590.536,8,400,,,
break_continue,html.Screen,4_121_2,2023-10-31T19:33:55.869Z,,0,,,NaN,,,,,,false,,,,635590.200000003,635590.099999994,,635589.799999997,,635590.536,8,400,,,
sequence,flow.Sequence,4_121,2023-10-31T19:33:55.870Z,,0,,,3382.7619999940507,completion,,,,,false,,,,635590.5,635590.099999994,632190.672,632204.599999994,632207.338,635590.536,8,400,,,
trial,html.Screen,4_122_0,2023-10-31T19:33:59.043Z,,0,3,,3172.364000005997,response,ISIC_2513018.JPG,7,ISIC_1152559.JPG,ISIC_2513018.JPG,false,1,keypress(m),500,638763.400000006,638762.900000006,635573.87,635590.599999994,635590.536,638773.997,8,400,23,,ISIC_1152559.JPG
break,html.Screen,4_122_1,2023-10-31T19:33:59.044Z,,0,,,NaN,,,,,,false,,,,638765,638764.5,,638763.799999997,,638773.997,8,400,,,
break_continue,html.Screen,4_122_2,2023-10-31T19:33:59.045Z,,0,,,NaN,,,,,,false,,,,638765.700000003,638765.5,,638765.200000003,,638773.997,8,400,,,
sequence,flow.Sequence,4_122,2023-10-31T19:33:59.045Z,,0,,,3174.9640000000363,completion,,,,,false,,,,638765.900000006,638765.5,635573.87,635590.5,635590.536,638773.997,8,400,,,
trial,html.Screen,4_123_0,2023-10-31T19:34:02.619Z,,0,3,,3564.9030000059865,response,ISIC_8555379.JPG,8,ISIC_2208006.JPG,ISIC_8555379.JPG,false,1,keypress(m),500,642339.700000003,642338.900000006,638757.331,638766.099999994,638773.997,642357.187,8,400,24,,ISIC_2208006.JPG
break,html.Screen,4_123_1,2023-10-31T19:34:02.621Z,,0,,,NaN,,,,,,false,,,,642341.5,642341.099999994,,642340.299999997,,642357.187,8,400,,,
break_continue,html.Screen,4_123_2,2023-10-31T19:34:02.621Z,,0,,,NaN,,,,,,false,,,,642342,642341.799999997,,642341.799999997,,642357.187,8,400,,,
sequence,flow.Sequence,4_123,2023-10-31T19:34:02.624Z,,0,,,3567.802999997046,completion,,,,,false,,,,642344.599999994,642341.799999997,638757.331,638766,638773.997,642357.187,8,400,,,
trial,html.Screen,4_124_0,2023-10-31T19:34:05.747Z,,0,3,,3110.213000005926,response,ISIC_0013204.JPG,8,ISIC_0065539.JPG,ISIC_0065539.JPG,false,0,keypress(z),500,645467.900000006,645467.400000006,642340.521,642344.700000003,642357.187,645490.395,8,400,25,,ISIC_0013204.JPG
break,html.Screen,4_124_1,2023-10-31T19:34:05.749Z,,0,,,NaN,,,,,,false,,,,645469.400000006,645468.900000006,,645468.299999997,,645490.395,8,400,,,
break_continue,html.Screen,4_124_2,2023-10-31T19:34:05.749Z,,0,,,NaN,,,,,,false,,,,645469.900000006,645469.700000003,,645469.5,,645490.395,8,400,,,
sequence,flow.Sequence,4_124,2023-10-31T19:34:05.749Z,,0,,,3112.513000002946,completion,,,,,false,,,,645470.200000003,645469.700000003,642340.521,642344.700000003,642357.187,645490.395,8,400,,,
trial,html.Screen,4_125_0,2023-10-31T19:34:08.714Z,,0,3,,2944.204999994021,response,ISIC_9574101.JPG,7,ISIC_3688362.JPG,ISIC_9574101.JPG,false,1,keypress(m),500,648435,648434.599999994,645473.729,645470.299999997,645490.395,648440.552,8,400,26,,ISIC_3688362.JPG
break,html.Screen,4_125_1,2023-10-31T19:34:08.716Z,,0,,,NaN,,,,,,false,,,,648436.299999997,648436,,648435.299999997,,648440.552,8,400,,,
break_continue,html.Screen,4_125_2,2023-10-31T19:34:08.716Z,,0,,,NaN,,,,,,false,,,,648436.900000006,648436.799999997,,648436.5,,648440.552,8,400,,,
sequence,flow.Sequence,4_125,2023-10-31T19:34:08.717Z,,0,,,2946.404999997001,completion,,,,,false,,,,648437.200000003,648436.799999997,645473.729,645470.299999997,645490.395,648440.552,8,400,,,
trial,html.Screen,4_126_0,2023-10-31T19:34:11.825Z,,0,3,,3104.648000002955,response,ISIC_1265755.JPG,8,ISIC_3560519.JPG,ISIC_1265755.JPG,false,1,keypress(m),500,651545.599999994,651545.200000003,648423.886,648437.400000006,648440.552,651557.094,8,400,27,,ISIC_3560519.JPG
break,html.Screen,4_126_1,2023-10-31T19:34:11.826Z,,0,,,NaN,,,,,,false,,,,651546.900000006,651546.599999994,,651545.900000006,,651557.094,8,400,,,
break_continue,html.Screen,4_126_2,2023-10-31T19:34:11.827Z,,0,,,NaN,,,,,,false,,,,651547.200000003,651547,,651546.900000006,,651557.094,8,400,,,
sequence,flow.Sequence,4_126,2023-10-31T19:34:11.827Z,,0,,,3106.447999999975,completion,,,,,false,,,,651547.299999997,651547,648423.886,648437.299999997,648440.552,651557.094,8,400,,,
