sender,sender_type,sender_id,timestamp,meta,,blockNo,condition,duration,ended_on,img_left,img_reveal,img_right,loser,practice,response,response_action,selection_duration,time_commit,time_end,time_render,time_run,time_show,time_switch,total_blocks,total_trials,trialNo,url,winner
informed_consent,html.Screen,0,2023-09-12T21:38:41.256Z,"{""labjs_version"":""20.2.4"",""labjs_build"":{""flavor"":""production"",""commit"":""f5b4a49f956347addd546a832a3327688c2c0fef""},""location"":""https://run.pavlovia.org/MurrayBennett/melanoma-2afc/?participant=66123&platform=sona"",""userAgent"":""Mozilla/5.0 (Windows NT 10.0; Win64; x64) AppleWebKit/537.36 (KHTML, like Gecko) Chrome/116.0.0.0 Safari/537.36"",""platform"":""Win32"",""language"":""en-US"",""locale"":""en-US"",""timeZone"":""America/Chicago"",""timezoneOffset"":300,""screen_width"":1536,""screen_height"":864,""scroll_width"":1536,""scroll_height"":667,""window_innerWidth"":1536,""window_innerHeight"":715,""devicePixelRatio"":1.25}",,,,53383.06,response,,,,,,consent,click button,,106102.5,106097.5,52697.794,4374.600000023842,52714.44,106129.361,,,,"{""participant"":""66123"",""platform"":""sona""}",
Welcome,html.Screen,1,2023-09-12T21:39:11.052Z,,,,uniform,29768.43900007152,response,,,,,,continue,click button,,135898.70000004768,135897.80000007153,106096.031,106102.90000009537,106129.361,135911.811,,,,,
trial,html.Screen,2_0_0,2023-09-12T21:39:14.433Z,,0,0,,3367.289000023855,response,ISIC_0063388.JPG,,ISIC_0025593.JPG,ISIC_0063388.JPG,true,1,keypress(m),500,139280,139279.10000002384,135895.023,135898.90000009537,135911.811,139295.077,1,6,1,,ISIC_0025593.JPG
sequence,flow.Sequence,2_0,2023-09-12T21:39:14.434Z,,0,,,3367.289000023855,completion,,,,,true,,,,139280.70000004768,139279.10000002384,135895.023,135898.80000007153,135911.811,139295.077,1,6,,,
trial,html.Screen,2_1_0,2023-09-12T21:39:17.196Z,,0,0,,2747.823000095377,response,ISIC_0028178.JPG,,ISIC_1309015.JPG,ISIC_1309015.JPG,true,0,keypress(z),500,142043,142042.90000009537,139278.327,139280.90000009537,139295.077,142044.869,1,6,2,,ISIC_0028178.JPG
sequence,flow.Sequence,2_1,2023-09-12T21:39:17.197Z,,0,,,2747.823000095377,completion,,,,,true,,,,142043.20000004768,142042.90000009537,139278.327,139280.90000009537,139295.077,142044.869,1,6,,,
trial,html.Screen,2_2_0,2023-09-12T21:39:20.047Z,,0,0,,2849.0310000953614,response,ISIC_3314853.JPG,,ISIC_0031128.JPG,ISIC_3314853.JPG,true,1,keypress(m),500,144894,144893.90000009537,142028.204,142043.40000009537,142044.869,144894.769,1,6,3,,ISIC_0031128.JPG
sequence,flow.Sequence,2_2,2023-09-12T21:39:20.047Z,,0,,,2849.0310000953614,completion,,,,,true,,,,144894.20000004768,144893.90000009537,142028.204,142043.40000009537,142044.869,144894.769,1,6,,,
trial,html.Screen,2_3_0,2023-09-12T21:39:23.290Z,,0,0,,3241.7309999999998,response,ISIC_0031612.JPG,,ISIC_8980141.JPG,ISIC_0031612.JPG,true,1,keypress(m),500,148136.80000007153,148136.5,144878.104,144894.30000007153,144894.769,148144.7,1,6,4,,ISIC_8980141.JPG
sequence,flow.Sequence,2_3,2023-09-12T21:39:23.291Z,,0,,,3241.7309999999998,completion,,,,,true,,,,148137.20000004768,148136.5,144878.104,144894.20000004768,144894.769,148144.7,1,6,,,
trial,html.Screen,2_4_0,2023-09-12T21:39:26.671Z,,0,0,,3372.2999999999884,response,ISIC_1197737.JPG,,ISIC_9721604.JPG,ISIC_9721604.JPG,true,0,keypress(z),500,151517.20000004768,151517,148128.035,148137.40000009537,148144.7,151527.966,1,6,5,,ISIC_1197737.JPG
sequence,flow.Sequence,2_4,2023-09-12T21:39:26.671Z,,0,,,3372.2999999999884,completion,,,,,true,,,,151517.30000007153,151517,148128.035,148137.30000007153,148144.7,151527.966,1,6,,,
trial,html.Screen,2_5_0,2023-09-12T21:39:30.165Z,,0,0,,3483.4340000953816,response,ISIC_0025346.JPG,,ISIC_0010681.JPG,ISIC_0025346.JPG,true,1,keypress(m),500,155011.80000007153,155011.40000009537,151511.216,151517.40000009537,151527.966,155027.818,1,6,6,,ISIC_0010681.JPG
sequence,flow.Sequence,2_5,2023-09-12T21:39:30.166Z,,0,,,3483.4340000953816,completion,,,,,true,,,,155012.60000002384,155011.40000009537,151511.216,151517.40000009537,151527.966,155027.818,1,6,,,
loop,flow.Loop,2,2023-09-12T21:39:30.166Z,,,,,19099.58900009538,completion,,,,,true,,,,155012.90000009537,155011.40000009537,135895.023,135898.80000007153,135911.811,155027.818,1,6,,,
exp_instructions,html.Screen,3,2023-09-12T21:39:42.402Z,,,,,12220.182,response,,,,,,continue,keypress(Space),,167248.90000009537,167248,155011.145,155013,155027.818,167260.39,,,,,
trial,html.Screen,4_0_0,2023-09-12T21:39:47.337Z,,0,1,,4922.710000023828,response,ISIC_8624049.JPG,5,ISIC_0054599.JPG,ISIC_8624049.JPG,false,1,keypress(m),500,172183.20000004768,172183.10000002384,167243.725,167249.30000007153,167260.39,172185.463,8,400,1,,ISIC_0054599.JPG
break,html.Screen,4_0_1,2023-09-12T21:39:47.338Z,,0,,,NaN,,,,,,false,,,,172184.70000004768,172184.40000009537,,172183.30000007153,,172185.463,8,400,,,
break_continue,html.Screen,4_0_2,2023-09-12T21:39:47.339Z,,0,,,NaN,,,,,,false,,,,172185.5,172185.40000009537,,172184.70000004768,,172185.463,8,400,,,
sequence,flow.Sequence,4_0,2023-09-12T21:39:47.339Z,,0,,,4925.0100000953535,completion,,,,,false,,,,172185.60000002384,172185.40000009537,167243.725,167249.30000007153,167260.39,172185.463,8,400,,,
trial,html.Screen,4_1_0,2023-09-12T21:39:52.766Z,,0,1,,5426.637000023853,response,ISIC_0032940.JPG,6,ISIC_0990298.JPG,ISIC_0990298.JPG,false,0,keypress(z),500,177612.30000007153,177612.10000002384,172168.798,172185.70000004768,172185.463,177618.534,8,400,2,,ISIC_0032940.JPG
break,html.Screen,4_1_1,2023-09-12T21:39:52.767Z,,0,,,NaN,,,,,,false,,,,177613.70000004768,177613.5,,177612.40000009537,,177618.534,8,400,,,
break_continue,html.Screen,4_1_2,2023-09-12T21:39:52.768Z,,0,,,NaN,,,,,,false,,,,177614.30000007153,177614.20000004768,,177613.70000004768,,177618.534,8,400,,,
sequence,flow.Sequence,4_1,2023-09-12T21:39:52.768Z,,0,,,5428.737000047695,completion,,,,,false,,,,177614.40000009537,177614.20000004768,172168.798,172185.60000002384,172185.463,177618.534,8,400,,,
trial,html.Screen,4_2_0,2023-09-12T21:39:58.211Z,,0,1,,5439.366000095353,response,ISIC_5658900.JPG,6,ISIC_0033302.JPG,ISIC_5658900.JPG,false,1,keypress(m),500,183058.10000002384,183057.90000009537,177601.869,177614.40000009537,177618.534,183060.024,8,400,3,,ISIC_0033302.JPG
break,html.Screen,4_2_1,2023-09-12T21:39:58.214Z,,0,,,NaN,,,,,,false,,,,183060.60000002384,183060.40000009537,,183058.20000004768,,183060.024,8,400,,,
break_continue,html.Screen,4_2_2,2023-09-12T21:39:58.215Z,,0,,,NaN,,,,,,false,,,,183061.80000007153,183061.70000004768,,183060.70000004768,,183060.024,8,400,,,
sequence,flow.Sequence,4_2,2023-09-12T21:39:58.215Z,,0,,,5443.1660000476695,completion,,,,,false,,,,183061.90000009537,183061.70000004768,177601.869,177614.40000009537,177618.534,183060.024,8,400,,,
trial,html.Screen,4_3_0,2023-09-12T21:40:04.112Z,,0,1,,5898.076000023837,response,ISIC_0056330.JPG,5,ISIC_0024607.JPG,ISIC_0024607.JPG,false,0,keypress(z),500,188958.20000004768,188958.10000002384,183043.359,183062.10000002384,183060.024,188968.475,8,400,4,,ISIC_0056330.JPG
break,html.Screen,4_3_1,2023-09-12T21:40:04.113Z,,0,,,NaN,,,,,,false,,,,188959.40000009537,188959.30000007153,,188958.30000007153,,188968.475,8,400,,,
break_continue,html.Screen,4_3_2,2023-09-12T21:40:04.113Z,,0,,,NaN,,,,,,false,,,,188959.90000009537,188959.90000009537,,188959.5,,188968.475,8,400,,,
sequence,flow.Sequence,4_3,2023-09-12T21:40:04.113Z,,0,,,5899.8760000953625,completion,,,,,false,,,,188960.10000002384,188959.90000009537,183043.359,183062.10000002384,183060.024,188968.475,8,400,,,
trial,html.Screen,4_4_0,2023-09-12T21:40:09.828Z,,0,1,,5706.125000023836,response,ISIC_4170698.JPG,6,ISIC_5789994.JPG,ISIC_5789994.JPG,false,0,keypress(z),500,194674.70000004768,194674.60000002384,188951.597,188960.10000002384,188968.475,194684.685,8,400,5,,ISIC_4170698.JPG
break,html.Screen,4_4_1,2023-09-12T21:40:09.831Z,,0,,,NaN,,,,,,false,,,,194677.40000009537,194677.20000004768,,194675,,194684.685,8,400,,,
break_continue,html.Screen,4_4_2,2023-09-12T21:40:09.832Z,,0,,,NaN,,,,,,false,,,,194678.20000004768,194678.10000002384,,194677.60000002384,,194684.685,8,400,,,
sequence,flow.Sequence,4_4,2023-09-12T21:40:09.832Z,,0,,,5709.625000023836,completion,,,,,false,,,,194678.40000009537,194678.10000002384,188951.597,188960.10000002384,188968.475,194684.685,8,400,,,
trial,html.Screen,4_5_0,2023-09-12T21:40:17.086Z,,0,1,,7248.115000071528,response,ISIC_0525687.JPG,5,ISIC_8002729.JPG,ISIC_0525687.JPG,false,1,keypress(m),500,201932.90000009537,201932.80000007153,194668.02,194678.5,194684.685,201942.767,8,400,6,,ISIC_8002729.JPG
break,html.Screen,4_5_1,2023-09-12T21:40:17.088Z,,0,,,NaN,,,,,,false,,,,201934.60000002384,201934.40000009537,,201933.10000002384,,201942.767,8,400,,,
break_continue,html.Screen,4_5_2,2023-09-12T21:40:17.089Z,,0,,,NaN,,,,,,false,,,,201935.5,201935.40000009537,,201934.70000004768,,201942.767,8,400,,,
sequence,flow.Sequence,4_5,2023-09-12T21:40:17.089Z,,0,,,7250.71500009537,completion,,,,,false,,,,201935.60000002384,201935.40000009537,194668.02,194678.40000009537,194684.685,201942.767,8,400,,,
trial,html.Screen,4_6_0,2023-09-12T21:40:26.170Z,,0,1,,9073.933000047691,response,ISIC_0024292.JPG,5,ISIC_6487809.JPG,ISIC_6487809.JPG,false,0,keypress(z),500,211016.80000007153,211016.70000004768,201926.102,201935.60000002384,201942.767,211034.549,8,400,7,,ISIC_0024292.JPG
break,html.Screen,4_6_1,2023-09-12T21:40:26.171Z,,0,,,NaN,,,,,,false,,,,211018.10000002384,211017.90000009537,,211017,,211034.549,8,400,,,
break_continue,html.Screen,4_6_2,2023-09-12T21:40:26.172Z,,0,,,NaN,,,,,,false,,,,211018.70000004768,211018.60000002384,,211018.10000002384,,211034.549,8,400,,,
sequence,flow.Sequence,4_6,2023-09-12T21:40:26.172Z,,0,,,9075.83300002385,completion,,,,,false,,,,211018.70000004768,211018.60000002384,201926.102,201935.60000002384,201942.767,211034.549,8,400,,,
trial,html.Screen,4_7_0,2023-09-12T21:40:35.123Z,,0,1,,8935.051000023843,response,ISIC_6674797.JPG,5,ISIC_3696726.JPG,ISIC_6674797.JPG,false,1,keypress(m),500,219969.80000007153,219969.60000002384,211017.3,211018.80000007153,211034.549,219983.829,8,400,8,,ISIC_3696726.JPG
break,html.Screen,4_7_1,2023-09-12T21:40:35.125Z,,0,,,NaN,,,,,,false,,,,219971.80000007153,219971.60000002384,,219970,,219983.829,8,400,,,
break_continue,html.Screen,4_7_2,2023-09-12T21:40:35.126Z,,0,,,NaN,,,,,,false,,,,219973,219972.80000007153,,219971.90000009537,,219983.829,8,400,,,
sequence,flow.Sequence,4_7,2023-09-12T21:40:35.126Z,,0,,,8938.251000071527,completion,,,,,false,,,,219973.10000002384,219972.80000007153,211017.3,211018.80000007153,211034.549,219983.829,8,400,,,
trial,html.Screen,4_8_0,2023-09-12T21:40:44.298Z,,0,1,,9160.271000023844,response,ISIC_0030725.JPG,4,ISIC_0918078.JPG,ISIC_0918078.JPG,false,0,keypress(z),500,229144.30000007153,229144.10000002384,219967.164,219973.30000007153,219983.829,229158.558,8,400,9,,ISIC_0030725.JPG
break,html.Screen,4_8_1,2023-09-12T21:40:44.300Z,,0,,,NaN,,,,,,false,,,,229146.5,229146.30000007153,,229144.40000009537,,229158.558,8,400,,,
break_continue,html.Screen,4_8_2,2023-09-12T21:40:44.302Z,,0,,,NaN,,,,,,false,,,,229148.20000004768,229147.90000009537,,229146.70000004768,,229158.558,8,400,,,
sequence,flow.Sequence,4_8,2023-09-12T21:40:44.302Z,,0,,,9164.07100009537,completion,,,,,false,,,,229148.30000007153,229147.90000009537,219967.164,219973.20000004768,219983.829,229158.558,8,400,,,
trial,html.Screen,4_9_0,2023-09-12T21:40:51.057Z,,0,1,,6744.44200000001,response,ISIC_0054280.JPG,6,ISIC_5566396.JPG,ISIC_5566396.JPG,false,0,keypress(z),500,235903.10000002384,235903,229141.893,229148.5,229158.558,235908.425,8,400,10,,ISIC_0054280.JPG
break,html.Screen,4_9_1,2023-09-12T21:40:51.058Z,,0,,,NaN,,,,,,false,,,,235905.10000002384,235904.90000009537,,235903.30000007153,,235908.425,8,400,,,
break_continue,html.Screen,4_9_2,2023-09-12T21:40:51.060Z,,0,,,NaN,,,,,,false,,,,235906.20000004768,235906,,235905.20000004768,,235908.425,8,400,,,
sequence,flow.Sequence,4_9,2023-09-12T21:40:51.060Z,,0,,,6747.44200000001,completion,,,,,false,,,,235906.30000007153,235906,229141.893,229148.40000009537,229158.558,235908.425,8,400,,,
trial,html.Screen,4_10_0,2023-09-12T21:41:00.729Z,,0,1,,9666.775000047695,response,ISIC_0028768.JPG,6,ISIC_4731791.JPG,ISIC_4731791.JPG,false,0,keypress(z),500,245575.40000009537,245575.20000004768,235891.76,235906.40000009537,235908.425,245583.545,8,400,11,,ISIC_0028768.JPG
break,html.Screen,4_10_1,2023-09-12T21:41:00.731Z,,0,,,NaN,,,,,,false,,,,245577.30000007153,245577.10000002384,,245575.60000002384,,245583.545,8,400,,,
break_continue,html.Screen,4_10_2,2023-09-12T21:41:00.731Z,,0,,,NaN,,,,,,false,,,,245577.90000009537,245577.80000007153,,245577.40000009537,,245583.545,8,400,,,
sequence,flow.Sequence,4_10,2023-09-12T21:41:00.731Z,,0,,,9669.375000071537,completion,,,,,false,,,,245578,245577.80000007153,235891.76,235906.30000007153,235908.425,245583.545,8,400,,,
trial,html.Screen,4_11_0,2023-09-12T21:41:12.230Z,,0,1,,11524.709999999992,timeout,ISIC_6385296.JPG,6,ISIC_0000349.JPG,ISIC_0000349.JPG,false,,,500,257077.10000002384,257076.90000009537,245566.88,245578.10000002384,245583.545,257108.255,8,400,12,,ISIC_6385296.JPG
break,html.Screen,4_11_1,2023-09-12T21:41:12.232Z,,0,,,NaN,,,,,,false,,,,257078.5,257078.40000009537,,257077.20000004768,,257108.255,8,400,,,
break_continue,html.Screen,4_11_2,2023-09-12T21:41:12.233Z,,0,,,NaN,,,,,,false,,,,257079.30000007153,257079.20000004768,,257078.60000002384,,257108.255,8,400,,,
sequence,flow.Sequence,4_11,2023-09-12T21:41:12.233Z,,0,,,11495.655000047671,completion,,,,,false,,,,257079.30000007153,257079.20000004768,245566.88,245578,245583.545,257108.255,8,400,,,
trial,html.Screen,4_12_0,2023-09-12T21:41:19.147Z,,0,1,,6884.645000095363,response,ISIC_0014694.JPG,5,ISIC_0058418.JPG,ISIC_0058418.JPG,false,0,keypress(z),500,263993.10000002384,263992.90000009537,257091.59,257079.30000007153,257108.255,264007.954,8,400,13,,ISIC_0014694.JPG
break,html.Screen,4_12_1,2023-09-12T21:41:19.148Z,,0,,,NaN,,,,,,false,,,,263994.3000000715,263994.2000000477,,263993.2000000477,,264007.954,8,400,,,
break_continue,html.Screen,4_12_2,2023-09-12T21:41:19.149Z,,0,,,NaN,,,,,,false,,,,263995.2000000477,263995.10000002384,,263994.40000009537,,264007.954,8,400,,,
sequence,flow.Sequence,4_12,2023-09-12T21:41:19.149Z,,0,,,6886.845000023837,completion,,,,,false,,,,263995.3000000715,263995.10000002384,257091.59,257079.30000007153,257108.255,264007.954,8,400,,,
trial,html.Screen,4_13_0,2023-09-12T21:41:25.807Z,,0,1,,6645.545999999973,response,ISIC_0355177.JPG,5,ISIC_0055526.JPG,ISIC_0055526.JPG,false,0,keypress(z),500,270653.8000000715,270653.5,263990.997,263995.3000000715,264007.954,270665.866,8,400,14,,ISIC_0355177.JPG
break,html.Screen,4_13_1,2023-09-12T21:41:25.810Z,,0,,,NaN,,,,,,false,,,,270656.10000002384,270655.90000009537,,270654,,270665.866,8,400,,,
break_continue,html.Screen,4_13_2,2023-09-12T21:41:25.811Z,,0,,,NaN,,,,,,false,,,,270657.3000000715,270657.10000002384,,270656.2000000477,,270665.866,8,400,,,
sequence,flow.Sequence,4_13,2023-09-12T21:41:25.811Z,,0,,,6649.146000023815,completion,,,,,false,,,,270657.40000009537,270657.10000002384,263990.997,263995.3000000715,264007.954,270665.866,8,400,,,
trial,html.Screen,4_14_0,2023-09-12T21:41:32.934Z,,0,1,,7114.234000023862,response,ISIC_0013984.JPG,5,ISIC_0028081.JPG,ISIC_0028081.JPG,false,0,keypress(z),500,277780.3000000715,277780.10000002384,270649.201,270657.5,270665.866,277782.232,8,400,15,,ISIC_0013984.JPG
break,html.Screen,4_14_1,2023-09-12T21:41:32.935Z,,0,,,NaN,,,,,,false,,,,277781.8000000715,277781.60000002384,,277780.5,,277782.232,8,400,,,
break_continue,html.Screen,4_14_2,2023-09-12T21:41:32.936Z,,0,,,NaN,,,,,,false,,,,277782.40000009537,277782.40000009537,,277781.90000009537,,277782.232,8,400,,,
sequence,flow.Sequence,4_14,2023-09-12T21:41:32.936Z,,0,,,7116.5340000953875,completion,,,,,false,,,,277782.40000009537,277782.40000009537,270649.201,270657.5,270665.866,277782.232,8,400,,,
trial,html.Screen,4_15_0,2023-09-12T21:41:39.754Z,,0,1,,6817.767999999982,response,ISIC_2436560.JPG,4,ISIC_8849004.JPG,ISIC_2436560.JPG,false,1,keypress(m),500,284600,284600,277765.567,277782.5,277782.232,284615.792,8,400,16,,ISIC_8849004.JPG
break,html.Screen,4_15_1,2023-09-12T21:41:39.755Z,,0,,,NaN,,,,,,false,,,,284601.10000002384,284601,,284600.10000002384,,284615.792,8,400,,,
break_continue,html.Screen,4_15_2,2023-09-12T21:41:39.755Z,,0,,,NaN,,,,,,false,,,,284601.7000000477,284601.60000002384,,284601.10000002384,,284615.792,8,400,,,
sequence,flow.Sequence,4_15,2023-09-12T21:41:39.755Z,,0,,,6819.368000023824,completion,,,,,false,,,,284601.8000000715,284601.60000002384,277765.567,277782.5,277782.232,284615.792,8,400,,,
trial,html.Screen,4_16_0,2023-09-12T21:41:47.503Z,,0,1,,7733.707999999984,response,ISIC_0033174.JPG,5,ISIC_0057344.JPG,ISIC_0033174.JPG,false,1,keypress(m),500,292349.60000002384,292349.5,284599.041,284601.90000009537,284615.792,292356.882,8,400,17,,ISIC_0057344.JPG
break,html.Screen,4_16_1,2023-09-12T21:41:47.505Z,,0,,,NaN,,,,,,false,,,,292351.40000009537,292351.2000000477,,292349.90000009537,,292356.882,8,400,,,
break_continue,html.Screen,4_16_2,2023-09-12T21:41:47.507Z,,0,,,NaN,,,,,,false,,,,292353.40000009537,292353.2000000477,,292351.60000002384,,292356.882,8,400,,,
sequence,flow.Sequence,4_16,2023-09-12T21:41:47.507Z,,0,,,7737.408000047668,completion,,,,,false,,,,292353.5,292353.2000000477,284599.041,284601.8000000715,284615.792,292356.882,8,400,,,
trial,html.Screen,4_17_0,2023-09-12T21:41:53.866Z,,0,1,,6355.718000023859,response,ISIC_0032718.JPG,5,ISIC_0033337.JPG,ISIC_0032718.JPG,false,1,keypress(m),500,298712.8000000715,298712.60000002384,292340.217,292353.60000002384,292356.882,298715.085,8,400,18,,ISIC_0033337.JPG
break,html.Screen,4_17_1,2023-09-12T21:41:53.868Z,,0,,,NaN,,,,,,false,,,,298714.7000000477,298714.60000002384,,298713,,298715.085,8,400,,,
break_continue,html.Screen,4_17_2,2023-09-12T21:41:53.869Z,,0,,,NaN,,,,,,false,,,,298715.3000000715,298715.3000000715,,298714.8000000715,,298715.085,8,400,,,
sequence,flow.Sequence,4_17,2023-09-12T21:41:53.869Z,,0,,,6358.418000071542,completion,,,,,false,,,,298715.40000009537,298715.3000000715,292340.217,292353.5,292356.882,298715.085,8,400,,,
trial,html.Screen,4_18_0,2023-09-12T21:41:59.935Z,,0,1,,6066.615000047663,response,ISIC_4644299.JPG,5,ISIC_1919324.JPG,ISIC_1919324.JPG,false,0,keypress(z),500,304782,304781.7000000477,298698.42,298715.5,298715.085,304798.167,8,400,19,,ISIC_4644299.JPG
break,html.Screen,4_18_1,2023-09-12T21:41:59.938Z,,0,,,NaN,,,,,,false,,,,304784.5,304784.2000000477,,304782.2000000477,,304798.167,8,400,,,
break_continue,html.Screen,4_18_2,2023-09-12T21:41:59.940Z,,0,,,NaN,,,,,,false,,,,304786,304785.8000000715,,304784.5,,304798.167,8,400,,,
sequence,flow.Sequence,4_18,2023-09-12T21:41:59.940Z,,0,,,6070.715000071505,completion,,,,,false,,,,304786.2000000477,304785.8000000715,298698.42,298715.5,298715.085,304798.167,8,400,,,
trial,html.Screen,4_19_0,2023-09-12T21:42:07.052Z,,0,1,,7099.733000095352,response,ISIC_3671963.JPG,6,ISIC_0033325.JPG,ISIC_0033325.JPG,false,0,keypress(z),500,311898.10000002384,311897.90000009537,304781.502,304786.3000000715,304798.167,311914.607,8,400,20,,ISIC_3671963.JPG
break,html.Screen,4_19_1,2023-09-12T21:42:07.053Z,,0,,,NaN,,,,,,false,,,,311899.3000000715,311899.10000002384,,311898.2000000477,,311914.607,8,400,,,
break_continue,html.Screen,4_19_2,2023-09-12T21:42:07.053Z,,0,,,NaN,,,,,,false,,,,311899.90000009537,311899.8000000715,,311899.3000000715,,311914.607,8,400,,,
sequence,flow.Sequence,4_19,2023-09-12T21:42:07.053Z,,0,,,7101.63300007151,completion,,,,,false,,,,311900,311899.8000000715,304781.502,304786.3000000715,304798.167,311914.607,8,400,,,
trial,html.Screen,4_20_0,2023-09-12T21:42:12.847Z,,0,1,,5778.593000047666,response,ISIC_0070003.JPG,5,ISIC_0065513.JPG,ISIC_0070003.JPG,false,1,keypress(m),500,317693.5,317693.2000000477,311897.942,311900,311914.607,317706.522,8,400,21,,ISIC_0065513.JPG
break,html.Screen,4_20_1,2023-09-12T21:42:12.849Z,,0,,,NaN,,,,,,false,,,,317696.10000002384,317695.8000000715,,317693.60000002384,,317706.522,8,400,,,
break_continue,html.Screen,4_20_2,2023-09-12T21:42:12.850Z,,0,,,NaN,,,,,,false,,,,317696.90000009537,317696.90000009537,,317696.2000000477,,317706.522,8,400,,,
sequence,flow.Sequence,4_20,2023-09-12T21:42:12.850Z,,0,,,5782.293000095349,completion,,,,,false,,,,317697,317696.90000009537,311897.942,311900,311914.607,317706.522,8,400,,,
trial,html.Screen,4_21_0,2023-09-12T21:42:20.468Z,,0,1,,7608.1780000476865,response,ISIC_4643298.JPG,5,ISIC_4247149.JPG,ISIC_4247149.JPG,false,0,keypress(z),500,325314.90000009537,325314.7000000477,317689.715,317697.10000002384,317706.522,325330.929,8,400,22,,ISIC_4643298.JPG
break,html.Screen,4_21_1,2023-09-12T21:42:20.470Z,,0,,,NaN,,,,,,false,,,,325316.90000009537,325316.60000002384,,325315.3000000715,,325330.929,8,400,,,
break_continue,html.Screen,4_21_2,2023-09-12T21:42:20.471Z,,0,,,NaN,,,,,,false,,,,325317.7000000477,325317.7000000477,,325316.90000009537,,325330.929,8,400,,,
sequence,flow.Sequence,4_21,2023-09-12T21:42:20.471Z,,0,,,7611.1780000476865,completion,,,,,false,,,,325317.8000000715,325317.7000000477,317689.715,317697.10000002384,317706.522,325330.929,8,400,,,
trial,html.Screen,4_22_0,2023-09-12T21:42:27.852Z,,0,1,,7367.570999999996,response,ISIC_2466892.JPG,5,ISIC_0014912.JPG,ISIC_2466892.JPG,false,1,keypress(m),500,332698.7000000477,332698.5,325314.264,325317.90000009537,325330.929,332706.107,8,400,23,,ISIC_0014912.JPG
break,html.Screen,4_22_1,2023-09-12T21:42:27.853Z,,0,,,NaN,,,,,,false,,,,332699.90000009537,332699.8000000715,,332698.8000000715,,332706.107,8,400,,,
break_continue,html.Screen,4_22_2,2023-09-12T21:42:27.854Z,,0,,,NaN,,,,,,false,,,,332700.60000002384,332700.5,,332700,,332706.107,8,400,,,
sequence,flow.Sequence,4_22,2023-09-12T21:42:27.854Z,,0,,,7369.570999999996,completion,,,,,false,,,,332700.60000002384,332700.5,325314.264,325317.8000000715,325330.929,332706.107,8,400,,,
trial,html.Screen,4_23_0,2023-09-12T21:42:34.608Z,,0,1,,6748.793000095349,response,ISIC_0025039.JPG,5,ISIC_6685513.JPG,ISIC_6685513.JPG,false,0,keypress(z),500,339455.10000002384,339454.90000009537,332688.958,332700.7000000477,332706.107,339464.18,8,400,24,,ISIC_0025039.JPG
break,html.Screen,4_23_1,2023-09-12T21:42:34.610Z,,0,,,NaN,,,,,,false,,,,339456.60000002384,339456.5,,339455.3000000715,,339464.18,8,400,,,
break_continue,html.Screen,4_23_2,2023-09-12T21:42:34.611Z,,0,,,NaN,,,,,,false,,,,339457.3000000715,339457.3000000715,,339456.7000000477,,339464.18,8,400,,,
sequence,flow.Sequence,4_23,2023-09-12T21:42:34.611Z,,0,,,6751.193000071507,completion,,,,,false,,,,339457.5,339457.3000000715,332688.958,332700.7000000477,332706.107,339464.18,8,400,,,
trial,html.Screen,4_24_0,2023-09-12T21:42:41.702Z,,0,1,,7083.920000023849,response,ISIC_0029250.JPG,5,ISIC_0072624.JPG,ISIC_0029250.JPG,false,1,keypress(m),500,346548.3000000715,346548.10000002384,339447.336,339457.5,339464.18,346555.331,8,400,25,,ISIC_0072624.JPG
break,html.Screen,4_24_1,2023-09-12T21:42:41.703Z,,0,,,NaN,,,,,,false,,,,346549.40000009537,346549.3000000715,,346548.3000000715,,346555.331,8,400,,,
break_continue,html.Screen,4_24_2,2023-09-12T21:42:41.703Z,,0,,,NaN,,,,,,false,,,,346550,346549.90000009537,,346549.5,,346555.331,8,400,,,
sequence,flow.Sequence,4_24,2023-09-12T21:42:41.703Z,,0,,,7085.720000095374,completion,,,,,false,,,,346550,346549.90000009537,339447.336,339457.5,339464.18,346555.331,8,400,,,
trial,html.Screen,4_25_0,2023-09-12T21:42:47.931Z,,0,1,,6221.569000095362,response,ISIC_3677945.JPG,5,ISIC_9795458.JPG,ISIC_9795458.JPG,false,0,keypress(z),500,352777.3000000715,352776.90000009537,346538.666,346550.2000000477,346555.331,352788.542,8,400,26,,ISIC_3677945.JPG
break,html.Screen,4_25_1,2023-09-12T21:42:47.933Z,,0,,,NaN,,,,,,false,,,,352779.60000002384,352779.3000000715,,352777.40000009537,,352788.542,8,400,,,
break_continue,html.Screen,4_25_2,2023-09-12T21:42:47.934Z,,0,,,NaN,,,,,,false,,,,352780.90000009537,352780.7000000477,,352779.8000000715,,352788.542,8,400,,,
sequence,flow.Sequence,4_25,2023-09-12T21:42:47.934Z,,0,,,6225.369000047678,completion,,,,,false,,,,352781.10000002384,352780.7000000477,346538.666,346550.2000000477,346555.331,352788.542,8,400,,,
trial,html.Screen,4_26_0,2023-09-12T21:42:55.920Z,,0,1,,7978.358000095352,response,ISIC_0034162.JPG,6,ISIC_6002694.JPG,ISIC_0034162.JPG,false,1,keypress(m),500,360767,360766.90000009537,352771.877,352781.2000000477,352788.542,360771.46,8,400,27,,ISIC_6002694.JPG
break,html.Screen,4_26_1,2023-09-12T21:42:55.922Z,,0,,,NaN,,,,,,false,,,,360768.3000000715,360768.2000000477,,360767.10000002384,,360771.46,8,400,,,
break_continue,html.Screen,4_26_2,2023-09-12T21:42:55.922Z,,0,,,NaN,,,,,,false,,,,360768.8000000715,360768.7000000477,,360768.3000000715,,360771.46,8,400,,,
sequence,flow.Sequence,4_26,2023-09-12T21:42:55.922Z,,0,,,7980.158000047668,completion,,,,,false,,,,360768.90000009537,360768.7000000477,352771.877,352781.2000000477,352788.542,360771.46,8,400,,,
trial,html.Screen,4_27_0,2023-09-12T21:43:03.220Z,,0,1,,7294.9400000953465,response,ISIC_0012338.JPG,4,ISIC_9810276.JPG,ISIC_0012338.JPG,false,1,keypress(m),500,368066.5,368066.40000009537,360754.795,360769,360771.46,368071.539,8,400,28,,ISIC_9810276.JPG
break,html.Screen,4_27_1,2023-09-12T21:43:03.221Z,,0,,,NaN,,,,,,false,,,,368067.8000000715,368067.60000002384,,368066.60000002384,,368071.539,8,400,,,
break_continue,html.Screen,4_27_2,2023-09-12T21:43:03.222Z,,0,,,NaN,,,,,,false,,,,368068.5,368068.40000009537,,368067.8000000715,,368071.539,8,400,,,
sequence,flow.Sequence,4_27,2023-09-12T21:43:03.222Z,,0,,,7296.9400000953465,completion,,,,,false,,,,368068.60000002384,368068.40000009537,360754.795,360769,360771.46,368071.539,8,400,,,
trial,html.Screen,4_28_0,2023-09-12T21:43:09.481Z,,0,1,,6256.361000095378,response,ISIC_0000393.JPG,5,ISIC_8765068.JPG,ISIC_0000393.JPG,false,1,keypress(m),500,374328.10000002384,374327.90000009537,368054.874,368068.7000000477,368071.539,374329.643,8,400,29,,ISIC_8765068.JPG
break,html.Screen,4_28_1,2023-09-12T21:43:09.484Z,,0,,,NaN,,,,,,false,,,,374330.5,374330.3000000715,,374328.40000009537,,374329.643,8,400,,,
break_continue,html.Screen,4_28_2,2023-09-12T21:43:09.485Z,,0,,,NaN,,,,,,false,,,,374331.8000000715,374331.7000000477,,374330.7000000477,,374329.643,8,400,,,
sequence,flow.Sequence,4_28,2023-09-12T21:43:09.485Z,,0,,,6260.161000047694,completion,,,,,false,,,,374332,374331.7000000477,368054.874,368068.7000000477,368071.539,374329.643,8,400,,,
trial,html.Screen,4_29_0,2023-09-12T21:43:16.709Z,,0,1,,7225.657000071544,response,ISIC_2332127.JPG,4,ISIC_0033687.JPG,ISIC_2332127.JPG,false,1,keypress(m),500,381555.60000002384,381555.3000000715,374312.978,374332.2000000477,374329.643,381570.99,8,400,30,,ISIC_0033687.JPG
break,html.Screen,4_29_1,2023-09-12T21:43:16.711Z,,0,,,NaN,,,,,,false,,,,381557.40000009537,381557.2000000477,,381555.7000000477,,381570.99,8,400,,,
break_continue,html.Screen,4_29_2,2023-09-12T21:43:16.712Z,,0,,,NaN,,,,,,false,,,,381558.2000000477,381558.2000000477,,381557.5,,381570.99,8,400,,,
sequence,flow.Sequence,4_29,2023-09-12T21:43:16.712Z,,0,,,7228.557000047702,completion,,,,,false,,,,381558.3000000715,381558.2000000477,374312.978,374332.10000002384,374329.643,381570.99,8,400,,,
trial,html.Screen,4_30_0,2023-09-12T21:43:23.118Z,,0,1,,6393.910000095377,response,ISIC_8152423.JPG,5,ISIC_0014860.JPG,ISIC_8152423.JPG,false,1,keypress(m),500,387965.10000002384,387964.90000009537,381554.325,381558.40000009537,381570.99,387979.454,8,400,31,,ISIC_0014860.JPG
break,html.Screen,4_30_1,2023-09-12T21:43:23.121Z,,0,,,NaN,,,,,,false,,,,387968,387967.7000000477,,387965.3000000715,,387979.454,8,400,,,
break_continue,html.Screen,4_30_2,2023-09-12T21:43:23.123Z,,0,,,NaN,,,,,,false,,,,387969.2000000477,387969.10000002384,,387968.2000000477,,387979.454,8,400,,,
sequence,flow.Sequence,4_30,2023-09-12T21:43:23.123Z,,0,,,6398.110000023851,completion,,,,,false,,,,387969.40000009537,387969.10000002384,381554.325,381558.40000009537,381570.99,387979.454,8,400,,,
trial,html.Screen,4_31_0,2023-09-12T21:43:27.717Z,,0,1,,4584.246000047657,response,ISIC_0033299.JPG,4,ISIC_0056316.JPG,ISIC_0056316.JPG,false,0,keypress(z),500,392564,392563.7000000477,387962.483,387969.5,387979.454,392579.14,8,400,32,,ISIC_0033299.JPG
break,html.Screen,4_31_1,2023-09-12T21:43:27.719Z,,0,,,NaN,,,,,,false,,,,392565.60000002384,392565.60000002384,,392564.2000000477,,392579.14,8,400,,,
break_continue,html.Screen,4_31_2,2023-09-12T21:43:27.720Z,,0,,,NaN,,,,,,false,,,,392566.3000000715,392566.2000000477,,392565.8000000715,,392579.14,8,400,,,
sequence,flow.Sequence,4_31,2023-09-12T21:43:27.720Z,,0,,,4586.746000047657,completion,,,,,false,,,,392566.40000009537,392566.2000000477,387962.483,387969.40000009537,387979.454,392579.14,8,400,,,
trial,html.Screen,4_32_0,2023-09-12T21:43:33.389Z,,0,1,,5656.160000071512,response,ISIC_8427534.JPG,6,ISIC_2843983.JPG,ISIC_2843983.JPG,false,0,keypress(z),500,398235.7000000477,398235.3000000715,392562.475,392566.40000009537,392579.14,398237.287,8,400,33,,ISIC_8427534.JPG
break,html.Screen,4_32_1,2023-09-12T21:43:33.392Z,,0,,,NaN,,,,,,false,,,,398238.3000000715,398238,,398235.90000009537,,398237.287,8,400,,,
break_continue,html.Screen,4_32_2,2023-09-12T21:43:33.393Z,,0,,,NaN,,,,,,false,,,,398239.60000002384,398239.40000009537,,398238.5,,398237.287,8,400,,,
sequence,flow.Sequence,4_32,2023-09-12T21:43:33.393Z,,0,,,5660.2600000953535,completion,,,,,false,,,,398239.8000000715,398239.40000009537,392562.475,392566.40000009537,392579.14,398237.287,8,400,,,
trial,html.Screen,4_33_0,2023-09-12T21:43:39.460Z,,0,1,,6069.4130000476725,response,ISIC_0054974.JPG,5,ISIC_0054988.JPG,ISIC_0054974.JPG,false,1,keypress(m),500,404307.10000002384,404306.7000000477,398220.622,398239.90000009537,398237.287,404320.353,8,400,34,,ISIC_0054988.JPG
break,html.Screen,4_33_1,2023-09-12T21:43:39.463Z,,0,,,NaN,,,,,,false,,,,404309.40000009537,404309.2000000477,,404307.2000000477,,404320.353,8,400,,,
break_continue,html.Screen,4_33_2,2023-09-12T21:43:39.464Z,,0,,,NaN,,,,,,false,,,,404310.3000000715,404310.2000000477,,404309.5,,404320.353,8,400,,,
sequence,flow.Sequence,4_33,2023-09-12T21:43:39.464Z,,0,,,6072.9130000476725,completion,,,,,false,,,,404310.5,404310.2000000477,398220.622,398239.90000009537,398237.287,404320.353,8,400,,,
trial,html.Screen,4_34_0,2023-09-12T21:43:45.450Z,,0,1,,5976.347000047681,response,ISIC_5233226.JPG,5,ISIC_0058837.JPG,ISIC_5233226.JPG,false,1,keypress(m),500,410297,410296.7000000477,404303.688,404310.5,404320.353,410312.08,8,400,35,,ISIC_0058837.JPG
break,html.Screen,4_34_1,2023-09-12T21:43:45.452Z,,0,,,NaN,,,,,,false,,,,410298.8000000715,410298.60000002384,,410297.2000000477,,410312.08,8,400,,,
break_continue,html.Screen,4_34_2,2023-09-12T21:43:45.453Z,,0,,,NaN,,,,,,false,,,,410299.5,410299.5,,410298.90000009537,,410312.08,8,400,,,
sequence,flow.Sequence,4_34,2023-09-12T21:43:45.453Z,,0,,,5979.146999999997,completion,,,,,false,,,,410299.60000002384,410299.5,404303.688,404310.5,404320.353,410312.08,8,400,,,
trial,html.Screen,4_35_0,2023-09-12T21:43:51.461Z,,0,1,,5994.919999999984,response,ISIC_2639144.JPG,5,ISIC_6801680.JPG,ISIC_6801680.JPG,false,0,keypress(z),500,416307.2000000477,416307,410295.38,410299.7000000477,410312.08,416311.631,8,400,36,,ISIC_2639144.JPG
break,html.Screen,4_35_1,2023-09-12T21:43:51.462Z,,0,,,NaN,,,,,,false,,,,416308.60000002384,416308.40000009537,,416307.3000000715,,416311.631,8,400,,,
break_continue,html.Screen,4_35_2,2023-09-12T21:43:51.462Z,,0,,,NaN,,,,,,false,,,,416309.10000002384,416309.10000002384,,416308.60000002384,,416311.631,8,400,,,
sequence,flow.Sequence,4_35,2023-09-12T21:43:51.463Z,,0,,,5997.020000023826,completion,,,,,false,,,,416309.2000000477,416309.10000002384,410295.38,410299.7000000477,410312.08,416311.631,8,400,,,
trial,html.Screen,4_36_0,2023-09-12T21:43:56.121Z,,0,1,,4656.2690000953735,response,ISIC_0032782.JPG,5,ISIC_0060934.JPG,ISIC_0060934.JPG,false,0,keypress(z),500,420968.2000000477,420967.90000009537,416294.966,416309.3000000715,416311.631,420970.003,8,400,37,,ISIC_0032782.JPG
break,html.Screen,4_36_1,2023-09-12T21:43:56.124Z,,0,,,NaN,,,,,,false,,,,420970.7000000477,420970.40000009537,,420968.40000009537,,420970.003,8,400,,,
break_continue,html.Screen,4_36_2,2023-09-12T21:43:56.125Z,,0,,,NaN,,,,,,false,,,,420971.8000000715,420971.7000000477,,420970.8000000715,,420970.003,8,400,,,
sequence,flow.Sequence,4_36,2023-09-12T21:43:56.125Z,,0,,,4660.06900004769,completion,,,,,false,,,,420972,420971.7000000477,416294.966,416309.2000000477,416311.631,420970.003,8,400,,,
trial,html.Screen,4_37_0,2023-09-12T21:44:00.804Z,,0,1,,4680.2970000714995,response,ISIC_0030951.JPG,5,ISIC_0033555.JPG,ISIC_0030951.JPG,false,1,keypress(m),500,425650.60000002384,425650.3000000715,420953.338,420972,420970.003,425653.148,8,400,38,,ISIC_0033555.JPG
break,html.Screen,4_37_1,2023-09-12T21:44:00.806Z,,0,,,NaN,,,,,,false,,,,425653.10000002384,425652.8000000715,,425650.8000000715,,425653.148,8,400,,,
break_continue,html.Screen,4_37_2,2023-09-12T21:44:00.808Z,,0,,,NaN,,,,,,false,,,,425654.7000000477,425654.5,,425653.2000000477,,425653.148,8,400,,,
sequence,flow.Sequence,4_37,2023-09-12T21:44:00.808Z,,0,,,4684.496999999974,completion,,,,,false,,,,425655,425654.5,420953.338,420972,420970.003,425653.148,8,400,,,
trial,html.Screen,4_38_0,2023-09-12T21:44:05.483Z,,0,1,,4676.752000095381,response,ISIC_0026266.JPG,5,ISIC_7604596.JPG,ISIC_7604596.JPG,false,0,keypress(z),500,430329.90000009537,430329.90000009537,425636.483,425655.10000002384,425653.148,430336.531,8,400,39,,ISIC_0026266.JPG
break,html.Screen,4_38_1,2023-09-12T21:44:05.484Z,,0,,,NaN,,,,,,false,,,,430331.10000002384,430331,,430330,,430336.531,8,400,,,
break_continue,html.Screen,4_38_2,2023-09-12T21:44:05.485Z,,0,,,NaN,,,,,,false,,,,430331.60000002384,430331.5,,430331.10000002384,,430336.531,8,400,,,
sequence,flow.Sequence,4_38,2023-09-12T21:44:05.485Z,,0,,,4678.3520000000135,completion,,,,,false,,,,430331.7000000477,430331.5,425636.483,425655.10000002384,425653.148,430336.531,8,400,,,
trial,html.Screen,4_39_0,2023-09-12T21:44:11.183Z,,0,1,,5692.6690000476665,response,ISIC_0029905.JPG,6,ISIC_7575246.JPG,ISIC_0029905.JPG,false,1,keypress(m),500,436029.40000009537,436029.2000000477,430319.753,430331.8000000715,430336.531,436036.336,8,400,40,,ISIC_7575246.JPG
break,html.Screen,4_39_1,2023-09-12T21:44:11.184Z,,0,,,NaN,,,,,,false,,,,436030.7000000477,436030.60000002384,,436029.5,,436036.336,8,400,,,
break_continue,html.Screen,4_39_2,2023-09-12T21:44:11.185Z,,0,,,NaN,,,,,,false,,,,436031.2000000477,436031.10000002384,,436030.8000000715,,436036.336,8,400,,,
sequence,flow.Sequence,4_39,2023-09-12T21:44:11.185Z,,0,,,5694.569000023825,completion,,,,,false,,,,436031.3000000715,436031.10000002384,430319.753,430331.7000000477,430336.531,436036.336,8,400,,,
trial,html.Screen,4_40_0,2023-09-12T21:44:16.227Z,,0,1,,5037.3640000476735,response,ISIC_2519121.JPG,6,ISIC_0034170.JPG,ISIC_0034170.JPG,false,0,keypress(z),500,441074,441073.7000000477,436019.454,436031.40000009537,436036.336,441077.65,8,400,41,,ISIC_2519121.JPG
break,html.Screen,4_40_1,2023-09-12T21:44:16.229Z,,0,,,NaN,,,,,,false,,,,441076,441075.8000000715,,441074.2000000477,,441077.65,8,400,,,
break_continue,html.Screen,4_40_2,2023-09-12T21:44:16.230Z,,0,,,NaN,,,,,,false,,,,441076.8000000715,441076.8000000715,,441076.10000002384,,441077.65,8,400,,,
sequence,flow.Sequence,4_40,2023-09-12T21:44:16.230Z,,0,,,5040.464000071515,completion,,,,,false,,,,441076.90000009537,441076.8000000715,436019.454,436031.40000009537,436036.336,441077.65,8,400,,,
trial,html.Screen,4_41_0,2023-09-12T21:44:22.185Z,,0,1,,5954.05000004766,response,ISIC_0028352.JPG,6,ISIC_0026438.JPG,ISIC_0028352.JPG,false,1,keypress(m),500,447031.8000000715,447031.7000000477,441060.985,441077,441077.65,447035.839,8,400,42,,ISIC_0026438.JPG
break,html.Screen,4_41_1,2023-09-12T21:44:22.187Z,,0,,,NaN,,,,,,false,,,,447033.3000000715,447033.10000002384,,447032,,447035.839,8,400,,,
break_continue,html.Screen,4_41_2,2023-09-12T21:44:22.187Z,,0,,,NaN,,,,,,false,,,,447033.8000000715,447033.8000000715,,447033.3000000715,,447035.839,8,400,,,
sequence,flow.Sequence,4_41,2023-09-12T21:44:22.187Z,,0,,,5956.150000071502,completion,,,,,false,,,,447033.90000009537,447033.8000000715,441060.985,441077,441077.65,447035.839,8,400,,,
trial,html.Screen,4_42_0,2023-09-12T21:44:27.110Z,,0,1,,4920.361000047706,response,ISIC_0072691.JPG,4,ISIC_3303825.JPG,ISIC_0072691.JPG,false,1,keypress(m),500,451956.3000000715,451956.2000000477,447019.174,447034,447035.839,451969.293,8,400,43,,ISIC_3303825.JPG
break,html.Screen,4_42_1,2023-09-12T21:44:27.111Z,,0,,,NaN,,,,,,false,,,,451957.60000002384,451957.40000009537,,451956.3000000715,,451969.293,8,400,,,
break_continue,html.Screen,4_42_2,2023-09-12T21:44:27.111Z,,0,,,NaN,,,,,,false,,,,451958.10000002384,451958.10000002384,,451957.60000002384,,451969.293,8,400,,,
sequence,flow.Sequence,4_42,2023-09-12T21:44:27.111Z,,0,,,4922.261000023864,completion,,,,,false,,,,451958.2000000477,451958.10000002384,447019.174,447034,447035.839,451969.293,8,400,,,
trial,html.Screen,4_43_0,2023-09-12T21:44:31.593Z,,0,1,,4470.607000095362,response,ISIC_0070805.JPG,5,ISIC_5555140.JPG,ISIC_5555140.JPG,false,0,keypress(z),500,456440.10000002384,456439.90000009537,451952.438,451958.2000000477,451969.293,456452.425,8,400,44,,ISIC_0070805.JPG
break,html.Screen,4_43_1,2023-09-12T21:44:31.595Z,,0,,,NaN,,,,,,false,,,,456441.60000002384,456441.5,,456440.2000000477,,456452.425,8,400,,,
break_continue,html.Screen,4_43_2,2023-09-12T21:44:31.596Z,,0,,,NaN,,,,,,false,,,,456442.3000000715,456442.3000000715,,456441.7000000477,,456452.425,8,400,,,
sequence,flow.Sequence,4_43,2023-09-12T21:44:31.596Z,,0,,,4473.00700007152,completion,,,,,false,,,,456442.40000009537,456442.3000000715,451952.438,451958.2000000477,451969.293,456452.425,8,400,,,
trial,html.Screen,4_44_0,2023-09-12T21:44:36.798Z,,0,1,,5191.975000095379,response,ISIC_0000072.JPG,4,ISIC_9564379.JPG,ISIC_9564379.JPG,false,0,keypress(z),500,461644.7000000477,461644.40000009537,456435.735,456442.40000009537,456452.425,461652.096,8,400,45,,ISIC_0000072.JPG
break,html.Screen,4_44_1,2023-09-12T21:44:36.800Z,,0,,,NaN,,,,,,false,,,,461647.10000002384,461646.90000009537,,461644.8000000715,,461652.096,8,400,,,
break_continue,html.Screen,4_44_2,2023-09-12T21:44:36.802Z,,0,,,NaN,,,,,,false,,,,461648.60000002384,461648.5,,461647.3000000715,,461652.096,8,400,,,
sequence,flow.Sequence,4_44,2023-09-12T21:44:36.802Z,,0,,,5196.075000000012,completion,,,,,false,,,,461648.8000000715,461648.5,456435.735,456442.40000009537,456452.425,461652.096,8,400,,,
trial,html.Screen,4_45_0,2023-09-12T21:44:41.323Z,,0,1,,4517.40399999998,response,ISIC_0057026.JPG,5,ISIC_6699854.JPG,ISIC_6699854.JPG,false,0,keypress(z),500,466169.8000000715,466169.5,461635.431,461648.90000009537,461652.096,466176.974,8,400,46,,ISIC_0057026.JPG
break,html.Screen,4_45_1,2023-09-12T21:44:41.325Z,,0,,,NaN,,,,,,false,,,,466171.60000002384,466171.3000000715,,466170,,466176.974,8,400,,,
break_continue,html.Screen,4_45_2,2023-09-12T21:44:41.326Z,,0,,,NaN,,,,,,false,,,,466172.5,466172.40000009537,,466171.60000002384,,466176.974,8,400,,,
sequence,flow.Sequence,4_45,2023-09-12T21:44:41.326Z,,0,,,4520.304000095348,completion,,,,,false,,,,466172.7000000477,466172.40000009537,461635.431,461648.8000000715,461652.096,466176.974,8,400,,,
trial,html.Screen,4_46_0,2023-09-12T21:44:46.816Z,,0,1,,5485.92600009538,response,ISIC_4789784.JPG,5,ISIC_0064821.JPG,ISIC_4789784.JPG,false,1,keypress(m),500,471663.10000002384,471662.90000009537,466160.309,466172.7000000477,466176.974,471668.457,8,400,47,,ISIC_0064821.JPG
break,html.Screen,4_46_1,2023-09-12T21:44:46.819Z,,0,,,NaN,,,,,,false,,,,471665.40000009537,471665.2000000477,,471663.2000000477,,471668.457,8,400,,,
break_continue,html.Screen,4_46_2,2023-09-12T21:44:46.820Z,,0,,,NaN,,,,,,false,,,,471666.60000002384,471666.5,,471665.5,,471668.457,8,400,,,
sequence,flow.Sequence,4_46,2023-09-12T21:44:46.820Z,,0,,,5489.526000000013,completion,,,,,false,,,,471666.7000000477,471666.5,466160.309,466172.7000000477,466176.974,471668.457,8,400,,,
trial,html.Screen,4_47_0,2023-09-12T21:44:52.630Z,,0,1,,5808.543000000005,response,ISIC_0033279.JPG,6,ISIC_0071906.JPG,ISIC_0071906.JPG,false,0,keypress(z),500,477477.10000002384,477477,471651.792,471666.8000000715,471668.457,477493.545,8,400,48,,ISIC_0033279.JPG
break,html.Screen,4_47_1,2023-09-12T21:44:52.632Z,,0,,,NaN,,,,,,false,,,,477478.40000009537,477478.3000000715,,477477.2000000477,,477493.545,8,400,,,
break_continue,html.Screen,4_47_2,2023-09-12T21:44:52.632Z,,0,,,NaN,,,,,,false,,,,477479,477479,,477478.5,,477493.545,8,400,,,
sequence,flow.Sequence,4_47,2023-09-12T21:44:52.632Z,,0,,,5810.543000000005,completion,,,,,false,,,,477479.10000002384,477479,471651.792,471666.8000000715,471668.457,477493.545,8,400,,,
trial,html.Screen,4_48_0,2023-09-12T21:44:57.115Z,,0,1,,4467.555000023858,response,ISIC_0030824.JPG,0,ISIC_0059929.JPG,ISIC_0059929.JPG,false,0,keypress(z),500,481961.3000000715,481961.10000002384,477476.597,477479.2000000477,477493.545,481968.382,8,400,49,,ISIC_0030824.JPG
break,html.Screen,4_48_1,2023-09-12T21:44:57.116Z,,0,,,NaN,,,,,,false,,,,481962.8000000715,481962.7000000477,,481961.5,,481968.382,8,400,,,
break_continue,html.Screen,4_48_2,2023-09-12T21:44:57.117Z,,0,,,NaN,,,,,,false,,,,481963.3000000715,481963.3000000715,,481962.8000000715,,481968.382,8,400,,,
sequence,flow.Sequence,4_48,2023-09-12T21:44:57.117Z,,0,,,4469.755000071542,completion,,,,,false,,,,481963.3000000715,481963.3000000715,477476.597,477479.2000000477,477493.545,481968.382,8,400,,,
trial,html.Screen,4_49_0,2023-09-12T21:45:01.840Z,,0,1,,4717.918000071542,response,ISIC_1083681.JPG,5,ISIC_2134975.JPG,ISIC_1083681.JPG,false,1,keypress(m),500,486686.5,486686.3000000715,481951.542,481963.40000009537,481968.382,486693.295,8,400,50,,ISIC_2134975.JPG
break,html.Screen,4_49_1,2023-09-12T21:45:11.841Z,,0,,,10008.016999999993,timeout,,,,,false,,,,496687.7000000477,496684.633,486676.546,486686.60000002384,486693.295,496701.312,8,400,,,
break_continue,html.Screen,4_49_2,2023-09-12T21:45:14.277Z,,0,,,2414.588000095391,response,,,,,false,continue,keypress(Space),,499123.90000009537,499115.90000009537,496684.633,496688.2000000477,496701.312,499134.496,8,400,,,
sequence,flow.Sequence,4_49,2023-09-12T21:45:14.277Z,,0,,,17147.518000095384,completion,,,,,false,,,,499124,499115.90000009537,481951.542,481963.40000009537,481968.382,499134.496,8,400,,,
trial,html.Screen,4_50_0,2023-09-12T21:45:18.345Z,,0,2,,4056.604000023857,response,ISIC_3370062.JPG,5,ISIC_0169604.JPG,ISIC_3370062.JPG,false,1,keypress(m),500,503191.2000000477,503191.10000002384,499117.737,499124.10000002384,499134.496,503201.059,8,400,1,,ISIC_0169604.JPG
break,html.Screen,4_50_1,2023-09-12T21:45:18.346Z,,0,,,NaN,,,,,,false,,,,503192.2000000477,503192.10000002384,,503191.3000000715,,503201.059,8,400,,,
break_continue,html.Screen,4_50_2,2023-09-12T21:45:18.346Z,,0,,,NaN,,,,,,false,,,,503192.7000000477,503192.60000002384,,503192.2000000477,,503201.059,8,400,,,
sequence,flow.Sequence,4_50,2023-09-12T21:45:18.346Z,,0,,,4058.104000023857,completion,,,,,false,,,,503192.8000000715,503192.60000002384,499117.737,499124,499134.496,503201.059,8,400,,,
trial,html.Screen,4_51_0,2023-09-12T21:45:23.153Z,,0,2,,4798.641000047675,response,ISIC_4938638.JPG,5,ISIC_3016754.JPG,ISIC_4938638.JPG,false,1,keypress(m),500,508000,507999.7000000477,503184.394,503192.90000009537,503201.059,508000.848,8,400,2,,ISIC_3016754.JPG
break,html.Screen,4_51_1,2023-09-12T21:45:23.158Z,,0,,,NaN,,,,,,false,,,,508004.60000002384,508004,,508000.10000002384,,508000.848,8,400,,,
break_continue,html.Screen,4_51_2,2023-09-12T21:45:23.160Z,,0,,,NaN,,,,,,false,,,,508006.7000000477,508006.3000000715,,508004.90000009537,,508000.848,8,400,,,
sequence,flow.Sequence,4_51,2023-09-12T21:45:23.160Z,,0,,,4805.241000071517,completion,,,,,false,,,,508006.90000009537,508006.3000000715,503184.394,503192.90000009537,503201.059,508000.848,8,400,,,
trial,html.Screen,4_52_0,2023-09-12T21:45:28.334Z,,0,2,,5179.252000023844,response,ISIC_0026868.JPG,5,ISIC_4462476.JPG,ISIC_0026868.JPG,false,1,keypress(m),500,513180.2000000477,513180.10000002384,507984.183,508007,508000.848,513200.802,8,400,3,,ISIC_4462476.JPG
break,html.Screen,4_52_1,2023-09-12T21:45:28.335Z,,0,,,NaN,,,,,,false,,,,513181.60000002384,513181.40000009537,,513180.3000000715,,513200.802,8,400,,,
break_continue,html.Screen,4_52_2,2023-09-12T21:45:28.336Z,,0,,,NaN,,,,,,false,,,,513182.2000000477,513182,,513181.60000002384,,513200.802,8,400,,,
sequence,flow.Sequence,4_52,2023-09-12T21:45:28.336Z,,0,,,5181.152000000002,completion,,,,,false,,,,513182.3000000715,513182,507984.183,508007,508000.848,513200.802,8,400,,,
trial,html.Screen,4_53_0,2023-09-12T21:45:34.026Z,,0,2,,5670.9980000715,response,ISIC_6378169.JPG,5,ISIC_1027512.JPG,ISIC_6378169.JPG,false,1,keypress(m),500,518872.10000002384,518871.8000000715,513184.137,513182.40000009537,513200.802,518883.964,8,400,4,,ISIC_1027512.JPG
break,html.Screen,4_53_1,2023-09-12T21:45:34.028Z,,0,,,NaN,,,,,,false,,,,518874.2000000477,518873.8000000715,,518872.3000000715,,518883.964,8,400,,,
break_continue,html.Screen,4_53_2,2023-09-12T21:45:34.028Z,,0,,,NaN,,,,,,false,,,,518875.10000002384,518874.90000009537,,518874.2000000477,,518883.964,8,400,,,
sequence,flow.Sequence,4_53,2023-09-12T21:45:34.029Z,,0,,,5674.098000095342,completion,,,,,false,,,,518875.10000002384,518874.90000009537,513184.137,513182.40000009537,513200.802,518883.964,8,400,,,
trial,html.Screen,4_54_0,2023-09-12T21:45:39.215Z,,0,2,,5177.236000047706,response,ISIC_1608524.JPG,4,ISIC_1140410.JPG,ISIC_1140410.JPG,false,0,keypress(z),500,524061.3000000715,524061.2000000477,518867.299,518875.2000000477,518883.964,524067.058,8,400,5,,ISIC_1608524.JPG
break,html.Screen,4_54_1,2023-09-12T21:45:39.216Z,,0,,,NaN,,,,,,false,,,,524062.3000000715,524062.2000000477,,524061.40000009537,,524067.058,8,400,,,
break_continue,html.Screen,4_54_2,2023-09-12T21:45:39.216Z,,0,,,NaN,,,,,,false,,,,524062.90000009537,524062.8000000715,,524062.3000000715,,524067.058,8,400,,,
sequence,flow.Sequence,4_54,2023-09-12T21:45:39.216Z,,0,,,5178.8360000715475,completion,,,,,false,,,,524062.90000009537,524062.8000000715,518867.299,518875.2000000477,518883.964,524067.058,8,400,,,
trial,html.Screen,4_55_0,2023-09-12T21:45:44.740Z,,0,2,,5518.441999999981,response,ISIC_0006321.JPG,6,ISIC_0028306.JPG,ISIC_0028306.JPG,false,0,keypress(z),500,529586.3000000715,529585.5,524050.334,524063,524067.058,529600.24,8,400,6,,ISIC_0006321.JPG
break,html.Screen,4_55_1,2023-09-12T21:45:44.743Z,,0,,,NaN,,,,,,false,,,,529589.2000000477,529588.9000000954,,529586.4000000954,,529600.24,8,400,,,
break_continue,html.Screen,4_55_2,2023-09-12T21:45:44.744Z,,0,,,NaN,,,,,,false,,,,529590.1000000238,529590,,529589.3000000715,,529600.24,8,400,,,
sequence,flow.Sequence,4_55,2023-09-12T21:45:44.744Z,,0,,,5522.941999999981,completion,,,,,false,,,,529590.2000000477,529590,524050.334,524062.90000009537,524067.058,529600.24,8,400,,,
trial,html.Screen,4_56_0,2023-09-12T21:45:52.575Z,,0,2,,7821.060000071535,response,ISIC_0064318.JPG,5,ISIC_0032476.JPG,ISIC_0064318.JPG,false,1,keypress(m),500,537421.5,537421.3000000715,529583.505,529590.3000000715,529600.24,537433.279,8,400,7,,ISIC_0032476.JPG
break,html.Screen,4_56_1,2023-09-12T21:45:52.577Z,,0,,,NaN,,,,,,false,,,,537423.6000000238,537423.3000000715,,537421.6000000238,,537433.279,8,400,,,
break_continue,html.Screen,4_56_2,2023-09-12T21:45:52.578Z,,0,,,NaN,,,,,,false,,,,537424.9000000954,537424.7000000477,,537423.7000000477,,537433.279,8,400,,,
sequence,flow.Sequence,4_56,2023-09-12T21:45:52.579Z,,0,,,7824.460000047693,completion,,,,,false,,,,537425.1000000238,537424.7000000477,529583.505,529590.3000000715,529600.24,537433.279,8,400,,,
trial,html.Screen,4_57_0,2023-09-12T21:45:58.741Z,,0,2,,6154.121000095387,response,ISIC_3073339.JPG,5,ISIC_0027102.JPG,ISIC_0027102.JPG,false,0,keypress(z),500,543587.7000000477,543587.4000000954,537416.585,537425.2000000477,537433.279,543599.825,8,400,8,,ISIC_3073339.JPG
break,html.Screen,4_57_1,2023-09-12T21:45:58.743Z,,0,,,NaN,,,,,,false,,,,543589.1000000238,543589,,543587.9000000954,,543599.825,8,400,,,
break_continue,html.Screen,4_57_2,2023-09-12T21:45:58.743Z,,0,,,NaN,,,,,,false,,,,543589.7000000477,543589.7000000477,,543589.2000000477,,543599.825,8,400,,,
sequence,flow.Sequence,4_57,2023-09-12T21:45:58.743Z,,0,,,6156.421000047703,completion,,,,,false,,,,543589.7000000477,543589.7000000477,537416.585,537425.2000000477,537433.279,543599.825,8,400,,,
trial,html.Screen,4_58_0,2023-09-12T21:46:03.774Z,,0,2,,5021.075000095414,response,ISIC_3181358.JPG,5,ISIC_8077943.JPG,ISIC_8077943.JPG,false,0,keypress(z),500,548621,548620.9000000954,543583.057,543589.8000000715,543599.825,548632.93,8,400,9,,ISIC_3181358.JPG
break,html.Screen,4_58_1,2023-09-12T21:46:03.776Z,,0,,,NaN,,,,,,false,,,,548622.1000000238,548622,,548621.1000000238,,548632.93,8,400,,,
break_continue,html.Screen,4_58_2,2023-09-12T21:46:03.776Z,,0,,,NaN,,,,,,false,,,,548622.6000000238,548622.6000000238,,548622.2000000477,,548632.93,8,400,,,
sequence,flow.Sequence,4_58,2023-09-12T21:46:03.776Z,,0,,,5022.775000023888,completion,,,,,false,,,,548622.7000000477,548622.6000000238,543583.057,543589.8000000715,543599.825,548632.93,8,400,,,
trial,html.Screen,4_59_0,2023-09-12T21:46:09.780Z,,0,2,,5993.870000071474,response,ISIC_5885403.JPG,5,ISIC_0026531.JPG,ISIC_5885403.JPG,false,1,keypress(m),500,554626.8000000715,554626.8000000715,548616.261,548622.8000000715,548632.93,554632.681,8,400,10,,ISIC_0026531.JPG
break,html.Screen,4_59_1,2023-09-12T21:46:09.781Z,,0,,,NaN,,,,,,false,,,,554627.9000000954,554627.7000000477,,554627,,554632.681,8,400,,,
break_continue,html.Screen,4_59_2,2023-09-12T21:46:09.782Z,,0,,,NaN,,,,,,false,,,,554628.5,554628.4000000954,,554627.9000000954,,554632.681,8,400,,,
sequence,flow.Sequence,4_59,2023-09-12T21:46:09.790Z,,0,,,5995.470000095316,completion,,,,,false,,,,554636.6000000238,554628.4000000954,548616.261,548622.8000000715,548632.93,554632.681,8,400,,,
trial,html.Screen,4_60_0,2023-09-12T21:46:13.875Z,,0,2,,4089.1190000715433,response,ISIC_6937199.JPG,5,ISIC_0028945.JPG,ISIC_0028945.JPG,false,0,keypress(z),500,558722,558721.8000000715,554616.016,554636.8000000715,554632.681,558732.616,8,400,11,,ISIC_6937199.JPG
break,html.Screen,4_60_1,2023-09-12T21:46:13.876Z,,0,,,NaN,,,,,,false,,,,558723,558723,,558722.2000000477,,558732.616,8,400,,,
break_continue,html.Screen,4_60_2,2023-09-12T21:46:13.877Z,,0,,,NaN,,,,,,false,,,,558723.5,558723.4000000954,,558723.1000000238,,558732.616,8,400,,,
sequence,flow.Sequence,4_60,2023-09-12T21:46:13.877Z,,0,,,4090.719000095385,completion,,,,,false,,,,558723.5,558723.4000000954,554616.016,554636.8000000715,554632.681,558732.616,8,400,,,
trial,html.Screen,4_61_0,2023-09-12T21:46:18.391Z,,0,2,,4504.883999999962,response,ISIC_3230874.JPG,4,ISIC_1785627.JPG,ISIC_1785627.JPG,false,0,keypress(z),500,563237.9000000954,563237.5,558715.926,558723.6000000238,558732.616,563249.154,8,400,12,,ISIC_3230874.JPG
break,html.Screen,4_61_1,2023-09-12T21:46:18.393Z,,0,,,NaN,,,,,,false,,,,563239.6000000238,563239.4000000954,,563238,,563249.154,8,400,,,
break_continue,html.Screen,4_61_2,2023-09-12T21:46:18.394Z,,0,,,NaN,,,,,,false,,,,563240.2000000477,563240.1000000238,,563239.7000000477,,563249.154,8,400,,,
sequence,flow.Sequence,4_61,2023-09-12T21:46:18.394Z,,0,,,4507.484000023804,completion,,,,,false,,,,563240.3000000715,563240.1000000238,558715.926,558723.6000000238,558732.616,563249.154,8,400,,,
trial,html.Screen,4_62_0,2023-09-12T21:46:22.032Z,,0,2,,3629.3460000000196,response,ISIC_0029609.JPG,6,ISIC_1694817.JPG,ISIC_1694817.JPG,false,0,keypress(z),500,566878.7000000477,566878.5,563232.45,563240.3000000715,563249.154,566882.35,8,400,13,,ISIC_0029609.JPG
break,html.Screen,4_62_1,2023-09-12T21:46:22.034Z,,0,,,NaN,,,,,,false,,,,566880.4000000954,566880.1000000238,,566878.9000000954,,566882.35,8,400,,,
break_continue,html.Screen,4_62_2,2023-09-12T21:46:22.035Z,,0,,,NaN,,,,,,false,,,,566881.7000000477,566881.5,,566880.4000000954,,566882.35,8,400,,,
sequence,flow.Sequence,4_62,2023-09-12T21:46:22.035Z,,0,,,3632.3460000000196,completion,,,,,false,,,,566881.9000000954,566881.5,563232.45,563240.3000000715,563249.154,566882.35,8,400,,,
trial,html.Screen,4_63_0,2023-09-12T21:46:26.264Z,,0,2,,4227.550000095391,response,ISIC_0030032.JPG,5,ISIC_3642043.JPG,ISIC_3642043.JPG,false,0,keypress(z),500,571110.2000000477,571109.9000000954,566865.685,566882,566882.35,571115.586,8,400,14,,ISIC_0030032.JPG
break,html.Screen,4_63_1,2023-09-12T21:46:26.265Z,,0,,,NaN,,,,,,false,,,,571111.7000000477,571111.6000000238,,571110.8000000715,,571115.586,8,400,,,
break_continue,html.Screen,4_63_2,2023-09-12T21:46:26.266Z,,0,,,NaN,,,,,,false,,,,571112.3000000715,571112.1000000238,,571111.8000000715,,571115.586,8,400,,,
sequence,flow.Sequence,4_63,2023-09-12T21:46:26.266Z,,0,,,4229.750000023865,completion,,,,,false,,,,571112.3000000715,571112.1000000238,566865.685,566882,566882.35,571115.586,8,400,,,
trial,html.Screen,4_64_0,2023-09-12T21:46:31.163Z,,0,2,,4894.214000071515,response,ISIC_0046729.JPG,5,ISIC_7342840.JPG,ISIC_7342840.JPG,false,0,keypress(z),500,576010.1000000238,576009.8000000715,571098.921,571112.3000000715,571115.586,576015.33,8,400,15,,ISIC_0046729.JPG
break,html.Screen,4_64_1,2023-09-12T21:46:31.165Z,,0,,,NaN,,,,,,false,,,,576011.9000000954,576011.7000000477,,576010.2000000477,,576015.33,8,400,,,
break_continue,html.Screen,4_64_2,2023-09-12T21:46:31.166Z,,0,,,NaN,,,,,,false,,,,576012.8000000715,576012.7000000477,,576012,,576015.33,8,400,,,
sequence,flow.Sequence,4_64,2023-09-12T21:46:31.166Z,,0,,,4897.1140000476735,completion,,,,,false,,,,576013,576012.7000000477,571098.921,571112.3000000715,571115.586,576015.33,8,400,,,
trial,html.Screen,4_65_0,2023-09-12T21:46:35.090Z,,0,2,,3920.7700000238838,response,ISIC_8527092.JPG,6,ISIC_0055289.JPG,ISIC_8527092.JPG,false,1,keypress(m),500,579936.4000000954,579936.1000000238,575998.665,576013,576015.33,579948.638,8,400,16,,ISIC_0055289.JPG
break,html.Screen,4_65_1,2023-09-12T21:46:35.091Z,,0,,,NaN,,,,,,false,,,,579937.9000000954,579937.7000000477,,579936.5,,579948.638,8,400,,,
break_continue,html.Screen,4_65_2,2023-09-12T21:46:35.092Z,,0,,,NaN,,,,,,false,,,,579938.7000000477,579938.6000000238,,579938,,579948.638,8,400,,,
sequence,flow.Sequence,4_65,2023-09-12T21:46:35.092Z,,0,,,3923.2700000238838,completion,,,,,false,,,,579938.8000000715,579938.6000000238,575998.665,576013,576015.33,579948.638,8,400,,,
trial,html.Screen,4_66_0,2023-09-12T21:46:40.328Z,,0,2,,5225.762000095332,response,ISIC_2400177.JPG,5,ISIC_0009998.JPG,ISIC_2400177.JPG,false,1,keypress(m),500,585174.6000000238,585174.4000000954,579931.878,579938.9000000954,579948.638,585181.786,8,400,17,,ISIC_0009998.JPG
break,html.Screen,4_66_1,2023-09-12T21:46:40.329Z,,0,,,NaN,,,,,,false,,,,585175.7000000477,585175.5,,585174.6000000238,,585181.786,8,400,,,
break_continue,html.Screen,4_66_2,2023-09-12T21:46:40.330Z,,0,,,NaN,,,,,,false,,,,585176.3000000715,585176.2000000477,,585175.7000000477,,585181.786,8,400,,,
sequence,flow.Sequence,4_66,2023-09-12T21:46:40.330Z,,0,,,5227.562000047648,completion,,,,,false,,,,585176.3000000715,585176.2000000477,579931.878,579938.9000000954,579948.638,585181.786,8,400,,,
trial,html.Screen,4_67_0,2023-09-12T21:46:44.300Z,,0,2,,3964.514000071562,response,ISIC_1545544.JPG,4,ISIC_0413563.JPG,ISIC_1545544.JPG,false,1,keypress(m),500,589146.6000000238,589146.3000000715,585165.073,585176.4000000954,585181.786,589148.256,8,400,18,,ISIC_0413563.JPG
break,html.Screen,4_67_1,2023-09-12T21:46:44.301Z,,0,,,NaN,,,,,,false,,,,589147.8000000715,589147.6000000238,,589146.6000000238,,589148.256,8,400,,,
break_continue,html.Screen,4_67_2,2023-09-12T21:46:44.303Z,,0,,,NaN,,,,,,false,,,,589149.3000000715,589148.8000000715,,589147.8000000715,,589148.256,8,400,,,
sequence,flow.Sequence,4_67,2023-09-12T21:46:44.303Z,,0,,,3967.014000071562,completion,,,,,false,,,,589149.9000000954,589148.8000000715,585165.073,585176.4000000954,585181.786,589148.256,8,400,,,
trial,html.Screen,4_68_0,2023-09-12T21:46:48.483Z,,0,2,,4181.644000095315,response,ISIC_4248013.JPG,5,ISIC_4014307.JPG,ISIC_4248013.JPG,false,1,keypress(m),500,593330.1000000238,593329.9000000954,589131.591,589150.4000000954,589148.256,593331.457,8,400,19,,ISIC_4014307.JPG
break,html.Screen,4_68_1,2023-09-12T21:46:48.485Z,,0,,,NaN,,,,,,false,,,,593331.4000000954,593331.1000000238,,593330.1000000238,,593331.457,8,400,,,
break_continue,html.Screen,4_68_2,2023-09-12T21:46:48.486Z,,0,,,NaN,,,,,,false,,,,593332.8000000715,593332.4000000954,,593331.5,,593331.457,8,400,,,
sequence,flow.Sequence,4_68,2023-09-12T21:46:48.487Z,,0,,,4184.144000095315,completion,,,,,false,,,,593333.5,593332.4000000954,589131.591,589150.4000000954,589148.256,593331.457,8,400,,,
trial,html.Screen,4_69_0,2023-09-12T21:46:52.346Z,,0,2,,3861.3430000714725,response,ISIC_4303228.JPG,13,ISIC_0001134.JPG,ISIC_4303228.JPG,false,1,keypress(m),500,597192.9000000954,597192.8000000715,593314.792,593334,593331.457,597198.044,8,400,20,,ISIC_0001134.JPG
break,html.Screen,4_69_1,2023-09-12T21:46:52.348Z,,0,,,NaN,,,,,,false,,,,597194.2000000477,597194,,597193,,597198.044,8,400,,,
break_continue,html.Screen,4_69_2,2023-09-12T21:46:52.348Z,,0,,,NaN,,,,,,false,,,,597194.8000000715,597194.7000000477,,597194.2000000477,,597198.044,8,400,,,
sequence,flow.Sequence,4_69,2023-09-12T21:46:52.348Z,,0,,,3863.2430000476306,completion,,,,,false,,,,597194.9000000954,597194.7000000477,593314.792,593334,593331.457,597198.044,8,400,,,
trial,html.Screen,4_70_0,2023-09-12T21:46:57.206Z,,0,2,,4853.956000000006,response,ISIC_8843592.JPG,5,ISIC_0066935.JPG,ISIC_8843592.JPG,false,1,keypress(m),500,602052.2000000477,602052,597181.336,597194.9000000954,597198.044,602064.596,8,400,21,,ISIC_0066935.JPG
break,html.Screen,4_70_1,2023-09-12T21:46:57.207Z,,0,,,NaN,,,,,,false,,,,602053.5,602053.3000000715,,602052.4000000954,,602064.596,8,400,,,
break_continue,html.Screen,4_70_2,2023-09-12T21:46:57.207Z,,0,,,NaN,,,,,,false,,,,602054.1000000238,602054,,602053.5,,602064.596,8,400,,,
sequence,flow.Sequence,4_70,2023-09-12T21:46:57.208Z,,0,,,4855.956000000006,completion,,,,,false,,,,602054.1000000238,602054,597181.336,597194.9000000954,597198.044,602064.596,8,400,,,
trial,html.Screen,4_71_0,2023-09-12T21:47:02.524Z,,0,2,,5305.90399999998,response,ISIC_6737771.JPG,4,ISIC_6609484.JPG,ISIC_6737771.JPG,false,1,keypress(m),500,607370.6000000238,607370.5,602047.866,602054.2000000477,602064.596,607381.039,8,400,22,,ISIC_6609484.JPG
break,html.Screen,4_71_1,2023-09-12T21:47:02.525Z,,0,,,NaN,,,,,,false,,,,607372,607371.9000000954,,607370.7000000477,,607381.039,8,400,,,
break_continue,html.Screen,4_71_2,2023-09-12T21:47:02.526Z,,0,,,NaN,,,,,,false,,,,607372.7000000477,607372.5,,607372.2000000477,,607381.039,8,400,,,
sequence,flow.Sequence,4_71,2023-09-12T21:47:02.526Z,,0,,,5307.90399999998,completion,,,,,false,,,,607372.8000000715,607372.5,602047.866,602054.1000000238,602064.596,607381.039,8,400,,,
trial,html.Screen,4_72_0,2023-09-12T21:47:08.065Z,,0,2,,5529.861000095378,response,ISIC_8617084.JPG,6,ISIC_0057067.JPG,ISIC_8617084.JPG,false,1,keypress(m),500,612911.2000000477,612910.9000000954,607364.374,607372.9000000954,607381.039,612914.163,8,400,23,,ISIC_0057067.JPG
break,html.Screen,4_72_1,2023-09-12T21:47:08.066Z,,0,,,NaN,,,,,,false,,,,612912.7000000477,612912.5,,612911.3000000715,,612914.163,8,400,,,
break_continue,html.Screen,4_72_2,2023-09-12T21:47:08.067Z,,0,,,NaN,,,,,,false,,,,612913.5,612913.4000000954,,612912.9000000954,,612914.163,8,400,,,
sequence,flow.Sequence,4_72,2023-09-12T21:47:08.067Z,,0,,,5532.361000095378,completion,,,,,false,,,,612913.7000000477,612913.4000000954,607364.374,607372.9000000954,607381.039,612914.163,8,400,,,
trial,html.Screen,4_73_0,2023-09-12T21:47:11.774Z,,0,2,,3705.8370000000577,response,ISIC_0064034.JPG,6,ISIC_0068628.JPG,ISIC_0068628.JPG,false,0,keypress(z),500,616620.1000000238,616620,612897.498,612913.7000000477,612914.163,616630.755,8,400,24,,ISIC_0064034.JPG
break,html.Screen,4_73_1,2023-09-12T21:47:11.775Z,,0,,,NaN,,,,,,false,,,,616621.2000000477,616621.1000000238,,616620.2000000477,,616630.755,8,400,,,
break_continue,html.Screen,4_73_2,2023-09-12T21:47:11.775Z,,0,,,NaN,,,,,,false,,,,616621.7000000477,616621.7000000477,,616621.2000000477,,616630.755,8,400,,,
sequence,flow.Sequence,4_73,2023-09-12T21:47:11.775Z,,0,,,3707.5370000477415,completion,,,,,false,,,,616621.8000000715,616621.7000000477,612897.498,612913.7000000477,612914.163,616630.755,8,400,,,
trial,html.Screen,4_74_0,2023-09-12T21:47:16.131Z,,0,2,,4346.645000095363,response,ISIC_4715386.JPG,4,ISIC_0063492.JPG,ISIC_0063492.JPG,false,0,keypress(z),500,620977.5,620977.4000000954,616614.035,616621.8000000715,616630.755,620980.652,8,400,25,,ISIC_4715386.JPG
break,html.Screen,4_74_1,2023-09-12T21:47:16.132Z,,0,,,NaN,,,,,,false,,,,620978.7000000477,620978.5,,620977.5,,620980.652,8,400,,,
break_continue,html.Screen,4_74_2,2023-09-12T21:47:16.133Z,,0,,,NaN,,,,,,false,,,,620979.4000000954,620979.3000000715,,620978.7000000477,,620980.652,8,400,,,
sequence,flow.Sequence,4_74,2023-09-12T21:47:16.133Z,,0,,,4348.545000071521,completion,,,,,false,,,,620979.4000000954,620979.3000000715,616614.035,616621.8000000715,616630.755,620980.652,8,400,,,
trial,html.Screen,4_75_0,2023-09-12T21:47:21.111Z,,0,2,,4976.847999999998,response,ISIC_0002549.JPG,4,ISIC_4864523.JPG,ISIC_0002549.JPG,false,1,keypress(m),500,625957.7000000477,625957.5,620963.987,620979.5,620980.652,625963.768,8,400,26,,ISIC_4864523.JPG
break,html.Screen,4_75_1,2023-09-12T21:47:21.113Z,,0,,,NaN,,,,,,false,,,,625959.1000000238,625959,,625957.8000000715,,625963.768,8,400,,,
break_continue,html.Screen,4_75_2,2023-09-12T21:47:21.113Z,,0,,,NaN,,,,,,false,,,,625959.8000000715,625959.8000000715,,625959.3000000715,,625963.768,8,400,,,
sequence,flow.Sequence,4_75,2023-09-12T21:47:21.113Z,,0,,,4979.148000071524,completion,,,,,false,,,,625960,625959.8000000715,620963.987,620979.4000000954,620980.652,625963.768,8,400,,,
trial,html.Screen,4_76_0,2023-09-12T21:47:27.276Z,,0,2,,6158.432000047644,response,ISIC_5722914.JPG,5,ISIC_1847556.JPG,ISIC_5722914.JPG,false,1,keypress(m),500,632122.4000000954,632122.2000000477,625947.098,625960.1000000238,625963.768,632130.214,8,400,27,,ISIC_1847556.JPG
break,html.Screen,4_76_1,2023-09-12T21:47:27.277Z,,0,,,NaN,,,,,,false,,,,632123.4000000954,632123.3000000715,,632122.4000000954,,632130.214,8,400,,,
break_continue,html.Screen,4_76_2,2023-09-12T21:47:27.277Z,,0,,,NaN,,,,,,false,,,,632123.9000000954,632123.9000000954,,632123.5,,632130.214,8,400,,,
sequence,flow.Sequence,4_76,2023-09-12T21:47:27.277Z,,0,,,6160.132000095327,completion,,,,,false,,,,632124,632123.9000000954,625947.098,625960.1000000238,625963.768,632130.214,8,400,,,
trial,html.Screen,4_77_0,2023-09-12T21:47:30.766Z,,0,2,,3482.686000095331,response,ISIC_0046223.JPG,5,ISIC_8477065.JPG,ISIC_8477065.JPG,false,0,keypress(z),500,635613.1000000238,635612.9000000954,632113.549,632124,632130.214,635630.155,8,400,28,,ISIC_0046223.JPG
break,html.Screen,4_77_1,2023-09-12T21:47:30.769Z,,0,,,NaN,,,,,,false,,,,635615.9000000954,635615.4000000954,,635613.2000000477,,635630.155,8,400,,,
break_continue,html.Screen,4_77_2,2023-09-12T21:47:30.771Z,,0,,,NaN,,,,,,false,,,,635617.7000000477,635617.5,,635616.2000000477,,635630.155,8,400,,,
sequence,flow.Sequence,4_77,2023-09-12T21:47:30.771Z,,0,,,3487.2859999999637,completion,,,,,false,,,,635617.9000000954,635617.5,632113.549,632124,632130.214,635630.155,8,400,,,
trial,html.Screen,4_78_0,2023-09-12T21:47:35.035Z,,0,2,,4250.7450000953395,response,ISIC_4026569.JPG,5,ISIC_5857303.JPG,ISIC_5857303.JPG,false,0,keypress(z),500,639881.5,639880.9000000954,635613.461,635618,635630.155,639896.734,8,400,29,,ISIC_4026569.JPG
break,html.Screen,4_78_1,2023-09-12T21:47:35.037Z,,0,,,NaN,,,,,,false,,,,639883.6000000238,639883.4000000954,,639881.9000000954,,639896.734,8,400,,,
break_continue,html.Screen,4_78_2,2023-09-12T21:47:35.038Z,,0,,,NaN,,,,,,false,,,,639884.2000000477,639884.1000000238,,639883.7000000477,,639896.734,8,400,,,
sequence,flow.Sequence,4_78,2023-09-12T21:47:35.038Z,,0,,,4253.945000023814,completion,,,,,false,,,,639884.2000000477,639884.1000000238,635613.461,635618,635630.155,639896.734,8,400,,,
trial,html.Screen,4_79_0,2023-09-12T21:47:39.103Z,,0,2,,4053.0660000714706,response,ISIC_6444989.JPG,6,ISIC_7575246.JPG,ISIC_6444989.JPG,false,1,keypress(m),500,643950,643949.8000000715,639879.986,639884.3000000715,639896.734,643963.238,8,400,30,,ISIC_7575246.JPG
break,html.Screen,4_79_1,2023-09-12T21:47:39.105Z,,0,,,NaN,,,,,,false,,,,643951.3000000715,643951.1000000238,,643950.2000000477,,643963.238,8,400,,,
break_continue,html.Screen,4_79_2,2023-09-12T21:47:39.105Z,,0,,,NaN,,,,,,false,,,,643952,643951.9000000954,,643951.4000000954,,643963.238,8,400,,,
sequence,flow.Sequence,4_79,2023-09-12T21:47:39.105Z,,0,,,4055.1660000953125,completion,,,,,false,,,,643952.1000000238,643951.9000000954,639879.986,639884.3000000715,639896.734,643963.238,8,400,,,
trial,html.Screen,4_80_0,2023-09-12T21:47:44.388Z,,0,2,,5271.462000047672,response,ISIC_0011064.JPG,5,ISIC_0030139.JPG,ISIC_0030139.JPG,false,0,keypress(z),500,649234.9000000954,649234.7000000477,643946.526,643952.1000000238,643963.238,649246.408,8,400,31,,ISIC_0011064.JPG
break,html.Screen,4_80_1,2023-09-12T21:47:44.390Z,,0,,,NaN,,,,,,false,,,,649236.3000000715,649236.1000000238,,649234.9000000954,,649246.408,8,400,,,
break_continue,html.Screen,4_80_2,2023-09-12T21:47:44.391Z,,0,,,NaN,,,,,,false,,,,649237.4000000954,649237.2000000477,,649236.5,,649246.408,8,400,,,
sequence,flow.Sequence,4_80,2023-09-12T21:47:44.391Z,,0,,,5273.962000047672,completion,,,,,false,,,,649237.5,649237.2000000477,643946.526,643952.1000000238,643963.238,649246.408,8,400,,,
trial,html.Screen,4_81_0,2023-09-12T21:47:50.761Z,,0,2,,6361.192000023788,response,ISIC_9278685.JPG,5,ISIC_3816833.JPG,ISIC_3816833.JPG,false,0,keypress(z),500,655608,655607.6000000238,649229.666,649237.5,649246.408,655612.829,8,400,32,,ISIC_9278685.JPG
break,html.Screen,4_81_1,2023-09-12T21:47:50.764Z,,0,,,NaN,,,,,,false,,,,655610.7000000477,655610.4000000954,,655608.2000000477,,655612.829,8,400,,,
break_continue,html.Screen,4_81_2,2023-09-12T21:47:50.766Z,,0,,,NaN,,,,,,false,,,,655612.2000000477,655612,,655610.8000000715,,655612.829,8,400,,,
sequence,flow.Sequence,4_81,2023-09-12T21:47:50.766Z,,0,,,6365.591999999946,completion,,,,,false,,,,655612.4000000954,655612,649229.666,649237.5,649246.408,655612.829,8,400,,,
trial,html.Screen,4_82_0,2023-09-12T21:47:55.346Z,,0,2,,4579.971000071499,response,ISIC_5885403.JPG,6,ISIC_0026401.JPG,ISIC_5885403.JPG,false,1,keypress(m),500,660193,660192.8000000715,655596.164,655612.5,655612.829,660196.005,8,400,33,,ISIC_0026401.JPG
break,html.Screen,4_82_1,2023-09-12T21:47:55.347Z,,0,,,NaN,,,,,,false,,,,660194,660194,,660193.1000000238,,660196.005,8,400,,,
break_continue,html.Screen,4_82_2,2023-09-12T21:47:55.348Z,,0,,,NaN,,,,,,false,,,,660194.5,660194.5,,660194.1000000238,,660196.005,8,400,,,
sequence,flow.Sequence,4_82,2023-09-12T21:47:55.348Z,,0,,,4581.670999999973,completion,,,,,false,,,,660194.6000000238,660194.5,655596.164,655612.4000000954,655612.829,660196.005,8,400,,,
trial,html.Screen,4_83_0,2023-09-12T21:48:02.151Z,,0,2,,6801.295000071521,response,ISIC_3065253.JPG,4,ISIC_8479104.JPG,ISIC_3065253.JPG,false,1,keypress(m),500,666997.7000000477,666997.3000000715,660179.34,660194.6000000238,660196.005,667012.451,8,400,34,,ISIC_8479104.JPG
break,html.Screen,4_83_1,2023-09-12T21:48:02.154Z,,0,,,NaN,,,,,,false,,,,667000.8000000715,667000.2000000477,,666997.9000000954,,667012.451,8,400,,,
break_continue,html.Screen,4_83_2,2023-09-12T21:48:02.156Z,,0,,,NaN,,,,,,false,,,,667002.9000000954,667002,,667000.9000000954,,667012.451,8,400,,,
sequence,flow.Sequence,4_83,2023-09-12T21:48:02.157Z,,0,,,6805.994999999995,completion,,,,,false,,,,667003.2000000477,667002,660179.34,660194.6000000238,660196.005,667012.451,8,400,,,
trial,html.Screen,4_84_0,2023-09-12T21:48:06.479Z,,0,2,,4312.9490000953665,response,ISIC_0061252.JPG,4,ISIC_7302456.JPG,ISIC_7302456.JPG,false,0,keypress(z),500,671325.8000000715,671325.4000000954,666995.743,667003.3000000715,667012.451,671328.974,8,400,35,,ISIC_0061252.JPG
break,html.Screen,4_84_1,2023-09-12T21:48:06.482Z,,0,,,NaN,,,,,,false,,,,671328.1000000238,671327.9000000954,,671326,,671328.974,8,400,,,
break_continue,html.Screen,4_84_2,2023-09-12T21:48:06.483Z,,0,,,NaN,,,,,,false,,,,671330,671329.6000000238,,671328.3000000715,,671328.974,8,400,,,
sequence,flow.Sequence,4_84,2023-09-12T21:48:06.484Z,,0,,,4317.149000023841,completion,,,,,false,,,,671330.8000000715,671329.6000000238,666995.743,667003.3000000715,667012.451,671328.974,8,400,,,
trial,html.Screen,4_85_0,2023-09-12T21:48:11.577Z,,0,2,,5094.626000023796,response,ISIC_9486917.JPG,5,ISIC_6449065.JPG,ISIC_6449065.JPG,false,0,keypress(z),500,676423.7000000477,676423.6000000238,671312.309,671331.4000000954,671328.974,676428.892,8,400,36,,ISIC_9486917.JPG
break,html.Screen,4_85_1,2023-09-12T21:48:11.578Z,,0,,,NaN,,,,,,false,,,,676424.7000000477,676424.6000000238,,676423.8000000715,,676428.892,8,400,,,
break_continue,html.Screen,4_85_2,2023-09-12T21:48:11.579Z,,0,,,NaN,,,,,,false,,,,676425.1000000238,676425.1000000238,,676424.7000000477,,676428.892,8,400,,,
sequence,flow.Sequence,4_85,2023-09-12T21:48:11.579Z,,0,,,5096.126000023796,completion,,,,,false,,,,676425.2000000477,676425.1000000238,671312.309,671331.2000000477,671328.974,676428.892,8,400,,,
trial,html.Screen,4_86_0,2023-09-12T21:48:16.926Z,,0,2,,5343.608000000007,response,ISIC_0561249.JPG,5,ISIC_0010393.JPG,ISIC_0010393.JPG,false,0,keypress(z),500,681772.7000000477,681772.5,676412.227,676425.2000000477,676428.892,681778.641,8,400,37,,ISIC_0561249.JPG
break,html.Screen,4_86_1,2023-09-12T21:48:16.929Z,,0,,,NaN,,,,,,false,,,,681775.2000000477,681774.9000000954,,681772.9000000954,,681778.641,8,400,,,
break_continue,html.Screen,4_86_2,2023-09-12T21:48:16.930Z,,0,,,NaN,,,,,,false,,,,681776.6000000238,681776.4000000954,,681775.3000000715,,681778.641,8,400,,,
sequence,flow.Sequence,4_86,2023-09-12T21:48:16.930Z,,0,,,5347.508000095375,completion,,,,,false,,,,681776.8000000715,681776.4000000954,676412.227,676425.2000000477,676428.892,681778.641,8,400,,,
trial,html.Screen,4_87_0,2023-09-12T21:48:21.032Z,,0,2,,4099.759000095422,response,ISIC_0694677.JPG,5,ISIC_0059547.JPG,ISIC_0694677.JPG,false,1,keypress(m),500,685878.9000000954,685878.4000000954,681761.976,681776.9000000954,681778.641,685895.187,8,400,38,,ISIC_0059547.JPG
break,html.Screen,4_87_1,2023-09-12T21:48:21.036Z,,0,,,NaN,,,,,,false,,,,685882.6000000238,685882.2000000477,,685879.1000000238,,685895.187,8,400,,,
break_continue,html.Screen,4_87_2,2023-09-12T21:48:21.038Z,,0,,,NaN,,,,,,false,,,,685884.4000000954,685884.1000000238,,685882.7000000477,,685895.187,8,400,,,
sequence,flow.Sequence,4_87,2023-09-12T21:48:21.038Z,,0,,,4105.459000023897,completion,,,,,false,,,,685884.6000000238,685884.1000000238,681761.976,681776.9000000954,681778.641,685895.187,8,400,,,
trial,html.Screen,4_88_0,2023-09-12T21:48:24.754Z,,0,2,,3704.9130000238074,response,ISIC_0000301.JPG,4,ISIC_1628539.JPG,ISIC_1628539.JPG,false,0,keypress(z),500,689600.6000000238,689600.1000000238,685878.474,685884.7000000477,685895.187,689611.726,8,400,39,,ISIC_0000301.JPG
break,html.Screen,4_88_1,2023-09-12T21:48:24.756Z,,0,,,NaN,,,,,,false,,,,689602.9000000954,689602.6000000238,,689600.7000000477,,689611.726,8,400,,,
break_continue,html.Screen,4_88_2,2023-09-12T21:48:24.757Z,,0,,,NaN,,,,,,false,,,,689604.2000000477,689604.1000000238,,689603.4000000954,,689611.726,8,400,,,
sequence,flow.Sequence,4_88,2023-09-12T21:48:24.758Z,,0,,,3708.9130000238074,completion,,,,,false,,,,689604.3000000715,689604.1000000238,685878.474,685884.7000000477,685895.187,689611.726,8,400,,,
trial,html.Screen,4_89_0,2023-09-12T21:48:29.128Z,,0,2,,4362.674000095343,response,ISIC_0025900.JPG,6,ISIC_9782083.JPG,ISIC_9782083.JPG,false,0,keypress(z),500,693974.5,693974.4000000954,689595.053,689604.4000000954,689611.726,693978.261,8,400,40,,ISIC_0025900.JPG
break,html.Screen,4_89_1,2023-09-12T21:48:29.129Z,,0,,,NaN,,,,,,false,,,,693975.8000000715,693975.7000000477,,693974.7000000477,,693978.261,8,400,,,
break_continue,html.Screen,4_89_2,2023-09-12T21:48:29.130Z,,0,,,NaN,,,,,,false,,,,693976.4000000954,693976.3000000715,,693975.9000000954,,693978.261,8,400,,,
sequence,flow.Sequence,4_89,2023-09-12T21:48:29.130Z,,0,,,4364.574000071501,completion,,,,,false,,,,693976.5,693976.3000000715,689595.053,689604.3000000715,689611.726,693978.261,8,400,,,
trial,html.Screen,4_90_0,2023-09-12T21:48:33.851Z,,0,2,,4719.539000071469,response,ISIC_8297563.JPG,5,ISIC_7424320.JPG,ISIC_8297563.JPG,false,1,keypress(m),500,698698,698697.8000000715,693961.596,693976.6000000238,693978.261,698711.476,8,400,41,,ISIC_7424320.JPG
break,html.Screen,4_90_1,2023-09-12T21:48:33.853Z,,0,,,NaN,,,,,,false,,,,698699.5,698699.2000000477,,698698,,698711.476,8,400,,,
break_continue,html.Screen,4_90_2,2023-09-12T21:48:33.854Z,,0,,,NaN,,,,,,false,,,,698700.2000000477,698700.1000000238,,698699.6000000238,,698711.476,8,400,,,
sequence,flow.Sequence,4_90,2023-09-12T21:48:33.854Z,,0,,,4721.839000023785,completion,,,,,false,,,,698700.4000000954,698700.1000000238,693961.596,693976.5,693978.261,698711.476,8,400,,,
trial,html.Screen,4_91_0,2023-09-12T21:48:39.856Z,,0,2,,5991.523999999976,response,ISIC_9672482.JPG,5,ISIC_2467623.JPG,ISIC_9672482.JPG,false,1,keypress(m),500,704703.1000000238,704703,698694.761,698700.4000000954,698711.476,704711.254,8,400,42,,ISIC_2467623.JPG
break,html.Screen,4_91_1,2023-09-12T21:48:39.858Z,,0,,,NaN,,,,,,false,,,,704704.5,704704.2000000477,,704703.2000000477,,704711.254,8,400,,,
break_continue,html.Screen,4_91_2,2023-09-12T21:48:39.859Z,,0,,,NaN,,,,,,false,,,,704705.3000000715,704705.2000000477,,704704.5,,704711.254,8,400,,,
sequence,flow.Sequence,4_91,2023-09-12T21:48:39.859Z,,0,,,5993.7240000476595,completion,,,,,false,,,,704705.4000000954,704705.2000000477,698694.761,698700.4000000954,698711.476,704711.254,8,400,,,
trial,html.Screen,4_92_0,2023-09-12T21:48:43.194Z,,0,2,,3329.0460000715684,response,ISIC_0024307.JPG,5,ISIC_0053686.JPG,ISIC_0024307.JPG,false,1,keypress(m),500,708040.5,708040.3000000715,704694.556,704705.5,704711.254,708044.491,8,400,43,,ISIC_0053686.JPG
break,html.Screen,4_92_1,2023-09-12T21:48:43.195Z,,0,,,NaN,,,,,,false,,,,708042.1000000238,708042,,708040.6000000238,,708044.491,8,400,,,
break_continue,html.Screen,4_92_2,2023-09-12T21:48:43.196Z,,0,,,NaN,,,,,,false,,,,708042.9000000954,708042.8000000715,,708042.2000000477,,708044.491,8,400,,,
sequence,flow.Sequence,4_92,2023-09-12T21:48:43.196Z,,0,,,3331.5460000715684,completion,,,,,false,,,,708043,708042.8000000715,704694.556,704705.5,704711.254,708044.491,8,400,,,
trial,html.Screen,4_93_0,2023-09-12T21:48:46.191Z,,0,2,,2992.8090000714874,response,ISIC_6870208.JPG,5,ISIC_1956354.JPG,ISIC_6870208.JPG,false,1,keypress(m),500,711037.5,711037.3000000715,708027.826,708043.1000000238,708044.491,711044.386,8,400,44,,ISIC_1956354.JPG
break,html.Screen,4_93_1,2023-09-12T21:48:46.193Z,,0,,,NaN,,,,,,false,,,,711039.3000000715,711038.9000000954,,711037.6000000238,,711044.386,8,400,,,
break_continue,html.Screen,4_93_2,2023-09-12T21:48:46.194Z,,0,,,NaN,,,,,,false,,,,711040.5,711040.4000000954,,711039.4000000954,,711044.386,8,400,,,
sequence,flow.Sequence,4_93,2023-09-12T21:48:46.194Z,,0,,,2995.9090000953292,completion,,,,,false,,,,711040.6000000238,711040.4000000954,708027.826,708043.1000000238,708044.491,711044.386,8,400,,,
trial,html.Screen,4_94_0,2023-09-12T21:48:50.395Z,,0,2,,4196.814000047627,response,ISIC_9498448.JPG,6,ISIC_0068897.JPG,ISIC_9498448.JPG,false,1,keypress(m),500,715241.4000000954,715241.2000000477,711027.721,711040.7000000477,711044.386,715244.248,8,400,45,,ISIC_0068897.JPG
break,html.Screen,4_94_1,2023-09-12T21:48:50.396Z,,0,,,NaN,,,,,,false,,,,715242.5,715242.3000000715,,715241.5,,715244.248,8,400,,,
break_continue,html.Screen,4_94_2,2023-09-12T21:48:50.396Z,,0,,,NaN,,,,,,false,,,,715243,715243,,715242.5,,715244.248,8,400,,,
sequence,flow.Sequence,4_94,2023-09-12T21:48:50.396Z,,0,,,4198.613999999943,completion,,,,,false,,,,715243.1000000238,715243,711027.721,711040.7000000477,711044.386,715244.248,8,400,,,
trial,html.Screen,4_95_0,2023-09-12T21:48:53.728Z,,0,2,,3329.2519999999786,response,ISIC_0033186.JPG,5,ISIC_0032762.JPG,ISIC_0032762.JPG,false,0,keypress(z),500,718574.3000000715,718573.5,715227.583,715243.1000000238,715244.248,718577.447,8,400,46,,ISIC_0033186.JPG
break,html.Screen,4_95_1,2023-09-12T21:48:53.729Z,,0,,,NaN,,,,,,false,,,,718575.6000000238,718575.5,,718574.5,,718577.447,8,400,,,
break_continue,html.Screen,4_95_2,2023-09-12T21:48:53.729Z,,0,,,NaN,,,,,,false,,,,718576.2000000477,718576.2000000477,,718575.7000000477,,718577.447,8,400,,,
sequence,flow.Sequence,4_95,2023-09-12T21:48:53.730Z,,0,,,3331.9520000476623,completion,,,,,false,,,,718576.3000000715,718576.2000000477,715227.583,715243.1000000238,715244.248,718577.447,8,400,,,
trial,html.Screen,4_96_0,2023-09-12T21:48:57.017Z,,0,2,,3286.0529999999562,response,ISIC_0064932.JPG,6,ISIC_2513018.JPG,ISIC_2513018.JPG,false,0,keypress(z),500,721863.8000000715,721863.5,718560.782,718576.4000000954,718577.447,721877.37,8,400,47,,ISIC_0064932.JPG
break,html.Screen,4_96_1,2023-09-12T21:48:57.019Z,,0,,,NaN,,,,,,false,,,,721866.1000000238,721865.9000000954,,721863.9000000954,,721877.37,8,400,,,
break_continue,html.Screen,4_96_2,2023-09-12T21:48:57.020Z,,0,,,NaN,,,,,,false,,,,721867.2000000477,721867,,721866.3000000715,,721877.37,8,400,,,
sequence,flow.Sequence,4_96,2023-09-12T21:48:57.021Z,,0,,,3289.5529999999562,completion,,,,,false,,,,721867.3000000715,721867,718560.782,718576.3000000715,718577.447,721877.37,8,400,,,
trial,html.Screen,4_97_0,2023-09-12T21:49:00.688Z,,0,2,,3657.3300000476884,response,ISIC_5308066.JPG,6,ISIC_0014707.JPG,ISIC_5308066.JPG,false,1,keypress(m),500,725535.1000000238,725534.7000000477,721860.678,721867.4000000954,721877.37,725543.963,8,400,48,,ISIC_0014707.JPG
break,html.Screen,4_97_1,2023-09-12T21:49:00.690Z,,0,,,NaN,,,,,,false,,,,725536.6000000238,725536.5,,725535.3000000715,,725543.963,8,400,,,
break_continue,html.Screen,4_97_2,2023-09-12T21:49:00.691Z,,0,,,NaN,,,,,,false,,,,725537.3000000715,725537.2000000477,,725536.7000000477,,725543.963,8,400,,,
sequence,flow.Sequence,4_97,2023-09-12T21:49:00.691Z,,0,,,3659.8300000476884,completion,,,,,false,,,,725537.4000000954,725537.2000000477,721860.678,721867.4000000954,721877.37,725543.963,8,400,,,
trial,html.Screen,4_98_0,2023-09-12T21:49:04.922Z,,0,2,,4224.637000023853,response,ISIC_2482061.JPG,4,ISIC_7109582.JPG,ISIC_2482061.JPG,false,1,keypress(m),500,729768.8000000715,729768.6000000238,725527.249,725537.4000000954,725543.963,729777.117,8,400,49,,ISIC_7109582.JPG
break,html.Screen,4_98_1,2023-09-12T21:49:04.923Z,,0,,,NaN,,,,,,false,,,,729770.2000000477,729770.1000000238,,729768.9000000954,,729777.117,8,400,,,
break_continue,html.Screen,4_98_2,2023-09-12T21:49:04.924Z,,0,,,NaN,,,,,,false,,,,729770.8000000715,729770.8000000715,,729770.2000000477,,729777.117,8,400,,,
sequence,flow.Sequence,4_98,2023-09-12T21:49:04.924Z,,0,,,4226.837000071537,completion,,,,,false,,,,729770.9000000954,729770.8000000715,725527.249,725537.4000000954,725543.963,729777.117,8,400,,,
trial,html.Screen,4_99_0,2023-09-12T21:49:08.974Z,,0,2,,4043.0830000477144,response,ISIC_8906583.JPG,5,ISIC_6398669.JPG,ISIC_8906583.JPG,false,1,keypress(m),500,733820.3000000715,733820.2000000477,729760.417,729771,729777.117,733827.024,8,400,50,,ISIC_6398669.JPG
break,html.Screen,4_99_1,2023-09-12T21:49:18.965Z,,0,,,9999.646999999997,timeout,,,,,false,,,,743812.1000000238,743810.002,733810.302,733820.3000000715,733827.024,743826.671,8,400,,,
break_continue,html.Screen,4_99_2,2023-09-12T21:49:20.311Z,,0,,,1323.9290000238689,response,,,,,false,continue,keypress(Space),,745157.5,745150.6000000238,743810.002,743812.3000000715,743826.671,745159.871,8,400,,,
sequence,flow.Sequence,4_99,2023-09-12T21:49:20.311Z,,0,,,15373.483000023873,completion,,,,,false,,,,745157.6000000238,745150.6000000238,729760.417,729770.9000000954,729777.117,745159.871,8,400,,,
trial,html.Screen,4_100_0,2023-09-12T21:49:24.121Z,,0,3,,3808.128999999957,response,ISIC_1287370.JPG,4,ISIC_6207818.JPG,ISIC_1287370.JPG,false,1,keypress(m),500,748968.2000000477,748968,745143.206,745157.7000000477,745159.871,748976.497,8,400,1,,ISIC_6207818.JPG
break,html.Screen,4_100_1,2023-09-12T21:49:24.123Z,,0,,,NaN,,,,,,false,,,,748970.3000000715,748970.1000000238,,748968.3000000715,,748976.497,8,400,,,
break_continue,html.Screen,4_100_2,2023-09-12T21:49:24.125Z,,0,,,NaN,,,,,,false,,,,748972,748971.6000000238,,748970.4000000954,,748976.497,8,400,,,
sequence,flow.Sequence,4_100,2023-09-12T21:49:24.125Z,,0,,,3811.729000023799,completion,,,,,false,,,,748972.2000000477,748971.6000000238,745143.206,745157.7000000477,745159.871,748976.497,8,400,,,
trial,html.Screen,4_101_0,2023-09-12T21:49:28.068Z,,0,3,,3938.503000000026,response,ISIC_1519891.JPG,5,ISIC_0029950.JPG,ISIC_1519891.JPG,false,1,keypress(m),500,752915.2000000477,752915,748959.832,748972.3000000715,748976.497,752926.384,8,400,2,,ISIC_0029950.JPG
break,html.Screen,4_101_1,2023-09-12T21:49:28.069Z,,0,,,NaN,,,,,,false,,,,752916.3000000715,752916.3000000715,,752915.3000000715,,752926.384,8,400,,,
break_continue,html.Screen,4_101_2,2023-09-12T21:49:28.070Z,,0,,,NaN,,,,,,false,,,,752916.8000000715,752916.8000000715,,752916.5,,752926.384,8,400,,,
sequence,flow.Sequence,4_101,2023-09-12T21:49:28.070Z,,0,,,3940.3030000715517,completion,,,,,false,,,,752916.9000000954,752916.8000000715,748959.832,748972.3000000715,748976.497,752926.384,8,400,,,
trial,html.Screen,4_102_0,2023-09-12T21:49:31.790Z,,0,3,,3710.5160000954056,response,ISIC_0014173.JPG,5,ISIC_0025996.JPG,ISIC_0014173.JPG,false,1,keypress(m),500,756637.1000000238,756636.9000000954,752909.71,752916.9000000954,752926.384,756642.975,8,400,3,,ISIC_0025996.JPG
break,html.Screen,4_102_1,2023-09-12T21:49:31.791Z,,0,,,NaN,,,,,,false,,,,756638.5,756638.3000000715,,756637.2000000477,,756642.975,8,400,,,
break_continue,html.Screen,4_102_2,2023-09-12T21:49:31.792Z,,0,,,NaN,,,,,,false,,,,756638.9000000954,756638.8000000715,,756638.5,,756642.975,8,400,,,
sequence,flow.Sequence,4_102,2023-09-12T21:49:31.793Z,,0,,,3712.4160000715638,completion,,,,,false,,,,756639.9000000954,756638.8000000715,752909.71,752916.9000000954,752926.384,756642.975,8,400,,,
trial,html.Screen,4_103_0,2023-09-12T21:49:35.767Z,,0,3,,3970.825000071549,response,ISIC_6945634.JPG,5,ISIC_5167209.JPG,ISIC_6945634.JPG,false,1,keypress(m),500,760613.9000000954,760613.8000000715,756626.276,756640,756642.975,760626.195,8,400,4,,ISIC_5167209.JPG
break,html.Screen,4_103_1,2023-09-12T21:49:35.768Z,,0,,,NaN,,,,,,false,,,,760615,760614.9000000954,,760614,,760626.195,8,400,,,
break_continue,html.Screen,4_103_2,2023-09-12T21:49:35.769Z,,0,,,NaN,,,,,,false,,,,760615.5,760615.4000000954,,760615,,760626.195,8,400,,,
sequence,flow.Sequence,4_103,2023-09-12T21:49:35.769Z,,0,,,3972.4250000953907,completion,,,,,false,,,,760615.6000000238,760615.4000000954,756626.276,756640,756642.975,760626.195,8,400,,,
trial,html.Screen,4_104_0,2023-09-12T21:49:39.882Z,,0,3,,4102.305000000051,response,ISIC_5483119.JPG,5,ISIC_0010313.JPG,ISIC_5483119.JPG,false,1,keypress(m),500,764728.7000000477,764728.5,760609.45,760615.6000000238,760626.195,764742.688,8,400,5,,ISIC_0010313.JPG
break,html.Screen,4_104_1,2023-09-12T21:49:39.884Z,,0,,,NaN,,,,,,false,,,,764731.1000000238,764730.7000000477,,764729,,764742.688,8,400,,,
break_continue,html.Screen,4_104_2,2023-09-12T21:49:39.885Z,,0,,,NaN,,,,,,false,,,,764731.9000000954,764731.8000000715,,764731.2000000477,,764742.688,8,400,,,
sequence,flow.Sequence,4_104,2023-09-12T21:49:39.885Z,,0,,,4105.605000071577,completion,,,,,false,,,,764732.1000000238,764731.8000000715,760609.45,760615.6000000238,760626.195,764742.688,8,400,,,
trial,html.Screen,4_105_0,2023-09-12T21:49:43.831Z,,0,3,,3934.61200007156,response,ISIC_0002939.JPG,5,ISIC_5219334.JPG,ISIC_0002939.JPG,false,1,keypress(m),500,768677.8000000715,768677.3000000715,764725.956,764732.1000000238,764742.688,768692.526,8,400,6,,ISIC_5219334.JPG
break,html.Screen,4_105_1,2023-09-12T21:49:43.834Z,,0,,,NaN,,,,,,false,,,,768680.9000000954,768680.4000000954,,768678.1000000238,,768692.526,8,400,,,
break_continue,html.Screen,4_105_2,2023-09-12T21:49:43.835Z,,0,,,NaN,,,,,,false,,,,768682,768682,,768681.1000000238,,768692.526,8,400,,,
sequence,flow.Sequence,4_105,2023-09-12T21:49:43.835Z,,0,,,3939.3120000000345,completion,,,,,false,,,,768682.2000000477,768682,764725.956,764732.1000000238,764742.688,768692.526,8,400,,,
trial,html.Screen,4_106_0,2023-09-12T21:49:48.084Z,,0,3,,4237.974000000046,response,ISIC_5619654.JPG,5,ISIC_3856662.JPG,ISIC_3856662.JPG,false,0,keypress(z),500,772930.8000000715,772930.5,768675.834,768682.2000000477,768692.526,772942.382,8,400,7,,ISIC_5619654.JPG
break,html.Screen,4_106_1,2023-09-12T21:49:48.086Z,,0,,,NaN,,,,,,false,,,,772933,772932.8000000715,,772931,,772942.382,8,400,,,
break_continue,html.Screen,4_106_2,2023-09-12T21:49:48.087Z,,0,,,NaN,,,,,,false,,,,772933.6000000238,772933.5,,772933,,772942.382,8,400,,,
sequence,flow.Sequence,4_106,2023-09-12T21:49:48.087Z,,0,,,4240.974000000046,completion,,,,,false,,,,772933.7000000477,772933.5,768675.834,768682.2000000477,768692.526,772942.382,8,400,,,
trial,html.Screen,4_107_0,2023-09-12T21:49:52.505Z,,0,3,,4409.3180000477005,response,ISIC_9448281.JPG,5,ISIC_3747979.JPG,ISIC_9448281.JPG,false,1,keypress(m),500,777351.9000000954,777351.7000000477,772925.696,772933.7000000477,772942.382,777358.966,8,400,8,,ISIC_3747979.JPG
break,html.Screen,4_107_1,2023-09-12T21:49:52.506Z,,0,,,NaN,,,,,,false,,,,777353.4000000954,777353.2000000477,,777352.1000000238,,777358.966,8,400,,,
break_continue,html.Screen,4_107_2,2023-09-12T21:49:52.507Z,,0,,,NaN,,,,,,false,,,,777354,777354,,777353.4000000954,,777358.966,8,400,,,
sequence,flow.Sequence,4_107,2023-09-12T21:49:52.507Z,,0,,,4411.618000000017,completion,,,,,false,,,,777354.1000000238,777354,772925.696,772933.7000000477,772942.382,777358.966,8,400,,,
trial,html.Screen,4_108_0,2023-09-12T21:49:57.310Z,,0,3,,4797.4340000953525,response,ISIC_0069093.JPG,5,ISIC_0070048.JPG,ISIC_0069093.JPG,false,1,keypress(m),500,782156.6000000238,782156.4000000954,777342.228,777354.2000000477,777358.966,782158.746,8,400,9,,ISIC_0070048.JPG
break,html.Screen,4_108_1,2023-09-12T21:49:57.311Z,,0,,,NaN,,,,,,false,,,,782157.8000000715,782157.6000000238,,782156.8000000715,,782158.746,8,400,,,
break_continue,html.Screen,4_108_2,2023-09-12T21:49:57.311Z,,0,,,NaN,,,,,,false,,,,782158.4000000954,782158.3000000715,,782157.9000000954,,782158.746,8,400,,,
sequence,flow.Sequence,4_108,2023-09-12T21:49:57.312Z,,0,,,4799.334000071511,completion,,,,,false,,,,782158.4000000954,782158.3000000715,777342.228,777354.1000000238,777358.966,782158.746,8,400,,,
trial,html.Screen,4_109_0,2023-09-12T21:50:01.704Z,,0,3,,4391.854000023799,response,ISIC_2819721.JPG,6,ISIC_0706692.JPG,ISIC_2819721.JPG,false,1,keypress(m),500,786550.8000000715,786550.6000000238,782142.081,782158.5,782158.746,786558.661,8,400,10,,ISIC_0706692.JPG
break,html.Screen,4_109_1,2023-09-12T21:50:01.705Z,,0,,,NaN,,,,,,false,,,,786551.9000000954,786551.8000000715,,786550.9000000954,,786558.661,8,400,,,
break_continue,html.Screen,4_109_2,2023-09-12T21:50:01.705Z,,0,,,NaN,,,,,,false,,,,786552.3000000715,786552.3000000715,,786552,,786558.661,8,400,,,
sequence,flow.Sequence,4_109,2023-09-12T21:50:01.706Z,,0,,,4393.554000071483,completion,,,,,false,,,,786552.5,786552.3000000715,782142.081,782158.5,782158.746,786558.661,8,400,,,
trial,html.Screen,4_110_0,2023-09-12T21:50:05.995Z,,0,3,,4282.939000023878,response,ISIC_0032565.JPG,5,ISIC_0010421.JPG,ISIC_0010421.JPG,false,0,keypress(z),500,790841.7000000477,790841.6000000238,786541.919,786552.5,786558.661,790858.475,8,400,11,,ISIC_0032565.JPG
break,html.Screen,4_110_1,2023-09-12T21:50:05.998Z,,0,,,NaN,,,,,,false,,,,790844.7000000477,790844.4000000954,,790841.9000000954,,790858.475,8,400,,,
break_continue,html.Screen,4_110_2,2023-09-12T21:50:05.999Z,,0,,,NaN,,,,,,false,,,,790845.8000000715,790845.7000000477,,790844.9000000954,,790858.475,8,400,,,
sequence,flow.Sequence,4_110,2023-09-12T21:50:05.999Z,,0,,,4287.03900004772,completion,,,,,false,,,,790846,790845.7000000477,786541.919,786552.5,786558.661,790858.475,8,400,,,
trial,html.Screen,4_111_0,2023-09-12T21:50:09.510Z,,0,3,,3498.725000047707,response,ISIC_0000030.JPG,6,ISIC_0026516.JPG,ISIC_0026516.JPG,false,0,keypress(z),500,794357.3000000715,794357.2000000477,790841.78,790846,790858.475,794358.358,8,400,12,,ISIC_0000030.JPG
break,html.Screen,4_111_1,2023-09-12T21:50:09.512Z,,0,,,NaN,,,,,,false,,,,794358.7000000477,794358.4000000954,,794357.5,,794358.358,8,400,,,
break_continue,html.Screen,4_111_2,2023-09-12T21:50:09.515Z,,0,,,NaN,,,,,,false,,,,794361.8000000715,794361.5,,794358.8000000715,,794358.358,8,400,,,
sequence,flow.Sequence,4_111,2023-09-12T21:50:09.515Z,,0,,,3503.0250000000233,completion,,,,,false,,,,794362.1000000238,794361.5,790841.78,790846,790858.475,794358.358,8,400,,,
trial,html.Screen,4_112_0,2023-09-12T21:50:13.092Z,,0,3,,3580.04200009536,response,ISIC_0070822.JPG,5,ISIC_5992826.JPG,ISIC_0070822.JPG,false,1,keypress(m),500,797938.5,797938.4000000954,794341.693,794362.2000000477,794358.358,797941.564,8,400,13,,ISIC_5992826.JPG
break,html.Screen,4_112_1,2023-09-12T21:50:13.093Z,,0,,,NaN,,,,,,false,,,,797939.9000000954,797939.8000000715,,797938.8000000715,,797941.564,8,400,,,
break_continue,html.Screen,4_112_2,2023-09-12T21:50:13.093Z,,0,,,NaN,,,,,,false,,,,797940.5,797940.4000000954,,797939.9000000954,,797941.564,8,400,,,
sequence,flow.Sequence,4_112,2023-09-12T21:50:13.094Z,,0,,,3582.04200009536,completion,,,,,false,,,,797940.5,797940.4000000954,794341.693,794362.2000000477,794358.358,797941.564,8,400,,,
trial,html.Screen,4_113_0,2023-09-12T21:50:17.176Z,,0,3,,4081.036000023829,response,ISIC_0029868.JPG,5,ISIC_0031422.JPG,ISIC_0031422.JPG,false,0,keypress(z),500,802022.8000000715,802022.6000000238,797924.899,797940.5,797941.564,802024.797,8,400,14,,ISIC_0029868.JPG
break,html.Screen,4_113_1,2023-09-12T21:50:17.177Z,,0,,,NaN,,,,,,false,,,,802023.9000000954,802023.8000000715,,802022.9000000954,,802024.797,8,400,,,
break_continue,html.Screen,4_113_2,2023-09-12T21:50:17.178Z,,0,,,NaN,,,,,,false,,,,802024.5,802024.4000000954,,802024,,802024.797,8,400,,,
sequence,flow.Sequence,4_113,2023-09-12T21:50:17.178Z,,0,,,4082.8360000953544,completion,,,,,false,,,,802024.6000000238,802024.4000000954,797924.899,797940.5,797941.564,802024.797,8,400,,,
trial,html.Screen,4_114_0,2023-09-12T21:50:20.254Z,,0,3,,3075.3030000238214,response,ISIC_0030751.JPG,6,ISIC_1711185.JPG,ISIC_1711185.JPG,false,0,keypress(z),500,805100.2000000477,805100.1000000238,802008.132,802024.6000000238,802024.797,805108.06,8,400,15,,ISIC_0030751.JPG
break,html.Screen,4_114_1,2023-09-12T21:50:20.254Z,,0,,,NaN,,,,,,false,,,,805101.2000000477,805101,,805100.3000000715,,805108.06,8,400,,,
break_continue,html.Screen,4_114_2,2023-09-12T21:50:20.255Z,,0,,,NaN,,,,,,false,,,,805101.6000000238,805101.5,,805101.2000000477,,805108.06,8,400,,,
sequence,flow.Sequence,4_114,2023-09-12T21:50:20.255Z,,0,,,3076.7029999999795,completion,,,,,false,,,,805101.6000000238,805101.5,802008.132,802024.6000000238,802024.797,805108.06,8,400,,,
trial,html.Screen,4_115_0,2023-09-12T21:50:23.586Z,,0,3,,3324.2400000714697,response,ISIC_1676261.JPG,5,ISIC_0002821.JPG,ISIC_1676261.JPG,false,1,keypress(m),500,808432.4000000954,808432.3000000715,805091.338,805101.7000000477,805108.06,808441.31,8,400,16,,ISIC_0002821.JPG
break,html.Screen,4_115_1,2023-09-12T21:50:23.587Z,,0,,,NaN,,,,,,false,,,,808433.5,808433.4000000954,,808432.5,,808441.31,8,400,,,
break_continue,html.Screen,4_115_2,2023-09-12T21:50:23.587Z,,0,,,NaN,,,,,,false,,,,808433.9000000954,808433.9000000954,,808433.5,,808441.31,8,400,,,
sequence,flow.Sequence,4_115,2023-09-12T21:50:23.587Z,,0,,,3325.8400000953116,completion,,,,,false,,,,808434,808433.9000000954,805091.338,805101.7000000477,805108.06,808441.31,8,400,,,
trial,html.Screen,4_116_0,2023-09-12T21:50:27.109Z,,0,3,,3513.9900000714697,response,ISIC_3481133.JPG,4,ISIC_0068610.JPG,ISIC_3481133.JPG,false,1,keypress(m),500,811955.5,811955.3000000715,808424.596,808434.1000000238,808441.31,811974.484,8,400,17,,ISIC_0068610.JPG
break,html.Screen,4_116_1,2023-09-12T21:50:27.110Z,,0,,,NaN,,,,,,false,,,,811957,811956.8000000715,,811955.7000000477,,811974.484,8,400,,,
break_continue,html.Screen,4_116_2,2023-09-12T21:50:27.111Z,,0,,,NaN,,,,,,false,,,,811958,811957.8000000715,,811957.1000000238,,811974.484,8,400,,,
sequence,flow.Sequence,4_116,2023-09-12T21:50:27.111Z,,0,,,3516.4900000714697,completion,,,,,false,,,,811958.1000000238,811957.8000000715,808424.596,808434.1000000238,808441.31,811974.484,8,400,,,
trial,html.Screen,4_117_0,2023-09-12T21:50:30.813Z,,0,3,,3684.015999999945,response,ISIC_8689583.JPG,5,ISIC_0014319.JPG,ISIC_0014319.JPG,false,0,keypress(z),500,815659.3000000715,815658.5,811957.813,811958.2000000477,811974.484,815674.383,8,400,18,,ISIC_8689583.JPG
break,html.Screen,4_117_1,2023-09-12T21:50:30.816Z,,0,,,NaN,,,,,,false,,,,815662.2000000477,815661.9000000954,,815659.9000000954,,815674.383,8,400,,,
break_continue,html.Screen,4_117_2,2023-09-12T21:50:30.816Z,,0,,,NaN,,,,,,false,,,,815663.1000000238,815662.9000000954,,815662.3000000715,,815674.383,8,400,,,
sequence,flow.Sequence,4_117,2023-09-12T21:50:30.817Z,,0,,,3688.4160000953125,completion,,,,,false,,,,815663.2000000477,815662.9000000954,811957.813,811958.1000000238,811974.484,815674.383,8,400,,,
trial,html.Screen,4_118_0,2023-09-12T21:50:34.792Z,,0,3,,3964.217000023811,response,ISIC_8497457.JPG,5,ISIC_7378303.JPG,ISIC_8497457.JPG,false,1,keypress(m),500,819638.6000000238,819638.6000000238,815657.662,815663.3000000715,815674.383,819640.888,8,400,19,,ISIC_7378303.JPG
break,html.Screen,4_118_1,2023-09-12T21:50:34.793Z,,0,,,NaN,,,,,,false,,,,819639.6000000238,819639.6000000238,,819638.7000000477,,819640.888,8,400,,,
break_continue,html.Screen,4_118_2,2023-09-12T21:50:34.793Z,,0,,,NaN,,,,,,false,,,,819640.1000000238,819640,,819639.7000000477,,819640.888,8,400,,,
sequence,flow.Sequence,4_118,2023-09-12T21:50:34.794Z,,0,,,3965.6169999999693,completion,,,,,false,,,,819640.2000000477,819640,815657.662,815663.2000000477,815674.383,819640.888,8,400,,,
trial,html.Screen,4_119_0,2023-09-12T21:50:38.466Z,,0,3,,3671.1119999999646,response,ISIC_0058149.JPG,5,ISIC_0024811.JPG,ISIC_0024811.JPG,false,0,keypress(z),500,823312.2000000477,823312,819624.223,819640.2000000477,819640.888,823324.196,8,400,20,,ISIC_0058149.JPG
break,html.Screen,4_119_1,2023-09-12T21:50:38.467Z,,0,,,NaN,,,,,,false,,,,823313.8000000715,823313.5,,823312.4000000954,,823324.196,8,400,,,
break_continue,html.Screen,4_119_2,2023-09-12T21:50:38.468Z,,0,,,NaN,,,,,,false,,,,823314.4000000954,823314.3000000715,,823313.8000000715,,823324.196,8,400,,,
sequence,flow.Sequence,4_119,2023-09-12T21:50:38.468Z,,0,,,3673.41200007149,completion,,,,,false,,,,823314.5,823314.3000000715,819624.223,819640.2000000477,819640.888,823324.196,8,400,,,
trial,html.Screen,4_120_0,2023-09-12T21:50:42.711Z,,0,3,,4233.404000023846,response,ISIC_0182020.JPG,5,ISIC_4177043.JPG,ISIC_0182020.JPG,false,1,keypress(m),500,827558,827557.6000000238,823307.44,823314.5,823324.196,827574.005,8,400,21,,ISIC_4177043.JPG
break,html.Screen,4_120_1,2023-09-12T21:50:42.715Z,,0,,,NaN,,,,,,false,,,,827561.4000000954,827561.2000000477,,827558.2000000477,,827574.005,8,400,,,
break_continue,html.Screen,4_120_2,2023-09-12T21:50:42.716Z,,0,,,NaN,,,,,,false,,,,827562.5,827562.3000000715,,827561.6000000238,,827574.005,8,400,,,
sequence,flow.Sequence,4_120,2023-09-12T21:50:42.716Z,,0,,,4238.104000071529,completion,,,,,false,,,,827562.5,827562.3000000715,823307.44,823314.5,823324.196,827574.005,8,400,,,
trial,html.Screen,4_121_0,2023-09-12T21:50:47.449Z,,0,3,,4721.095000023837,response,ISIC_1426331.JPG,5,ISIC_1690909.JPG,ISIC_1690909.JPG,false,0,keypress(z),500,832295.2000000477,832295.1000000238,827557.34,827562.6000000238,827574.005,832307.206,8,400,22,,ISIC_1426331.JPG
break,html.Screen,4_121_1,2023-09-12T21:50:47.450Z,,0,,,NaN,,,,,,false,,,,832296.7000000477,832296.4000000954,,832295.3000000715,,832307.206,8,400,,,
break_continue,html.Screen,4_121_2,2023-09-12T21:50:47.451Z,,0,,,NaN,,,,,,false,,,,832297.4000000954,832297.3000000715,,832296.8000000715,,832307.206,8,400,,,
sequence,flow.Sequence,4_121,2023-09-12T21:50:47.451Z,,0,,,4723.295000071521,completion,,,,,false,,,,832297.4000000954,832297.3000000715,827557.34,827562.6000000238,827574.005,832307.206,8,400,,,
trial,html.Screen,4_122_0,2023-09-12T21:50:51.292Z,,0,3,,3831.2939999999944,response,ISIC_0034159.JPG,4,ISIC_0031028.JPG,ISIC_0031028.JPG,false,0,keypress(z),500,836138.9000000954,836138.5,832290.488,832297.5,832307.206,836140.371,8,400,23,,ISIC_0034159.JPG
break,html.Screen,4_122_1,2023-09-12T21:50:51.297Z,,0,,,NaN,,,,,,false,,,,836144,836142.6000000238,,836139.2000000477,,836140.371,8,400,,,
break_continue,html.Screen,4_122_2,2023-09-12T21:50:51.302Z,,0,,,NaN,,,,,,false,,,,836148.6000000238,836147.4000000954,,836145.1000000238,,836140.371,8,400,,,
sequence,flow.Sequence,4_122,2023-09-12T21:50:51.302Z,,0,,,3840.194000095362,completion,,,,,false,,,,836148.9000000954,836147.4000000954,832290.488,832297.4000000954,832307.206,836140.371,8,400,,,
trial,html.Screen,4_123_0,2023-09-12T21:50:54.672Z,,0,3,,3377.729000023799,response,ISIC_3429835.JPG,6,ISIC_0064010.JPG,ISIC_3429835.JPG,false,1,keypress(m),500,839518.3000000715,839518.1000000238,836123.706,836149.3000000715,836140.371,839523.618,8,400,24,,ISIC_0064010.JPG
break,html.Screen,4_123_1,2023-09-12T21:50:54.673Z,,0,,,NaN,,,,,,false,,,,839519.6000000238,839519.3000000715,,839518.4000000954,,839523.618,8,400,,,
break_continue,html.Screen,4_123_2,2023-09-12T21:50:54.673Z,,0,,,NaN,,,,,,false,,,,839520.1000000238,839520,,839519.6000000238,,839523.618,8,400,,,
sequence,flow.Sequence,4_123,2023-09-12T21:50:54.673Z,,0,,,3379.628999999957,completion,,,,,false,,,,839520.1000000238,839520,836123.706,836149.2000000477,836140.371,839523.618,8,400,,,
trial,html.Screen,4_124_0,2023-09-12T21:50:59.156Z,,0,3,,4478.881999999983,response,ISIC_0026347.JPG,5,ISIC_0014675.JPG,ISIC_0014675.JPG,false,0,keypress(z),500,844002.6000000238,844002.5,839506.888,839520.2000000477,839523.618,844006.814,8,400,25,,ISIC_0026347.JPG
break,html.Screen,4_124_1,2023-09-12T21:50:59.157Z,,0,,,NaN,,,,,,false,,,,844003.5,844003.4000000954,,844002.6000000238,,844006.814,8,400,,,
break_continue,html.Screen,4_124_2,2023-09-12T21:50:59.157Z,,0,,,NaN,,,,,,false,,,,844004,844004,,844003.6000000238,,844006.814,8,400,,,
sequence,flow.Sequence,4_124,2023-09-12T21:50:59.157Z,,0,,,4480.381999999983,completion,,,,,false,,,,844004.1000000238,844004,839506.888,839520.2000000477,839523.618,844006.814,8,400,,,
trial,html.Screen,4_125_0,2023-09-12T21:51:02.764Z,,0,3,,3603.286000023829,response,ISIC_0558485.JPG,5,ISIC_0011848.JPG,ISIC_0558485.JPG,false,1,keypress(m),500,847610.4000000954,847610.1000000238,843990.083,844004.1000000238,844006.814,847623.368,8,400,26,,ISIC_0011848.JPG
break,html.Screen,4_125_1,2023-09-12T21:51:02.765Z,,0,,,NaN,,,,,,false,,,,847612.1000000238,847611.9000000954,,847610.6000000238,,847623.368,8,400,,,
break_continue,html.Screen,4_125_2,2023-09-12T21:51:02.766Z,,0,,,NaN,,,,,,false,,,,847612.8000000715,847612.8000000715,,847612.1000000238,,847623.368,8,400,,,
sequence,flow.Sequence,4_125,2023-09-12T21:51:02.766Z,,0,,,3605.9860000715125,completion,,,,,false,,,,847613.1000000238,847612.8000000715,843990.083,844004.1000000238,844006.814,847623.368,8,400,,,
