sender,sender_type,sender_id,timestamp,meta,,blockNo,condition,duration,ended_on,img_left,img_reveal,img_right,loser,practice,response,response_action,selection_duration,time_commit,time_end,time_render,time_run,time_show,time_switch,total_blocks,total_trials,trialNo,url,winner
informed_consent,html.Screen,0,2023-11-06T18:51:19.452Z,"{""labjs_version"":""20.2.4"",""labjs_build"":{""flavor"":""production"",""commit"":""f5b4a49f956347addd546a832a3327688c2c0fef""},""location"":""https://run.pavlovia.org/MurrayBennett/melanoma-2afc/?participant=67611&platform=sona"",""userAgent"":""Mozilla/5.0 (Windows NT 10.0; Win64; x64) AppleWebKit/537.36 (KHTML, like Gecko) Chrome/119.0.0.0 Safari/537.36 Edg/119.0.0.0"",""platform"":""Win32"",""language"":""en-US"",""locale"":""en-US"",""timeZone"":""America/Chicago"",""timezoneOffset"":360,""screen_width"":1366,""screen_height"":768,""scroll_width"":1271,""scroll_height"":598,""window_innerWidth"":1271,""window_innerHeight"":646,""devicePixelRatio"":1}",,,,4263.112,response,,,,,,consent,click button,,8345.800000011921,8343.5,4063.803,4068.399999976158,4080.388,8359.627,,,,"{""participant"":""67611"",""platform"":""sona""}",
Welcome,html.Screen,1,2023-11-06T18:51:24.619Z,,,,uniform,5151.972999964237,response,,,,,,continue,click button,,13513.099999964237,13511.599999964237,8342.98,8346,8359.627,13521.438,,,,,
trial,html.Screen,2_0_0,2023-11-06T18:51:31.092Z,,0,0,,6463.461999976158,response,ISIC_0063388.JPG,,ISIC_0025593.JPG,ISIC_0063388.JPG,true,1,keypress(m),500,19985.30000001192,19984.899999976158,13504.907,13513.199999988079,13521.438,19998.561,1,6,1,,ISIC_0025593.JPG
sequence,flow.Sequence,2_0,2023-11-06T18:51:31.092Z,,0,,,6463.461999976158,completion,,,,,true,,,,19985.599999964237,19984.899999976158,13504.907,13513.199999988079,13521.438,19998.561,1,6,,,
trial,html.Screen,2_1_0,2023-11-06T18:51:33.976Z,,0,0,,2870.4389999999985,response,ISIC_0028178.JPG,,ISIC_1309015.JPG,ISIC_1309015.JPG,true,0,keypress(z),500,22869.30000001192,22869,19982.479,19985.69999998808,19998.561,22882.499,1,6,2,,ISIC_0028178.JPG
sequence,flow.Sequence,2_1,2023-11-06T18:51:33.976Z,,0,,,2870.4389999999985,completion,,,,,true,,,,22869.5,22869,19982.479,19985.69999998808,19998.561,22882.499,1,6,,,
trial,html.Screen,2_2_0,2023-11-06T18:51:36.602Z,,0,0,,2613.1009999642374,response,ISIC_0031128.JPG,,ISIC_3314853.JPG,ISIC_3314853.JPG,true,0,keypress(z),500,25495.899999976158,25495.599999964237,22862.115,22869.599999964237,22882.499,25510.632,1,6,3,,ISIC_0031128.JPG
sequence,flow.Sequence,2_2,2023-11-06T18:51:36.603Z,,0,,,2613.1009999642374,completion,,,,,true,,,,25496.19999998808,25495.599999964237,22862.115,22869.599999964237,22882.499,25510.632,1,6,,,
trial,html.Screen,2_3_0,2023-11-06T18:51:40.365Z,,0,0,,3747.6680000119195,response,ISIC_8980141.JPG,,ISIC_0031612.JPG,ISIC_8980141.JPG,true,1,keypress(m),500,29258.599999964237,29258.30000001192,25492.036,25496.399999976158,25510.632,29273.033,1,6,4,,ISIC_0031612.JPG
sequence,flow.Sequence,2_3,2023-11-06T18:51:40.365Z,,0,,,3747.6680000119195,completion,,,,,true,,,,29259,29258.30000001192,25492.036,25496.30000001192,25510.632,29273.033,1,6,,,
trial,html.Screen,2_4_0,2023-11-06T18:51:43.075Z,,0,0,,2695.0669999642378,response,ISIC_1197737.JPG,,ISIC_9721604.JPG,ISIC_9721604.JPG,true,0,keypress(z),500,31968.599999964237,31968.099999964237,29256.931,29259.099999964237,29273.033,31993.107,1,6,5,,ISIC_1197737.JPG
sequence,flow.Sequence,2_4,2023-11-06T18:51:43.075Z,,0,,,2695.0669999642378,completion,,,,,true,,,,31968.899999976158,31968.099999964237,29256.931,29259.099999964237,29273.033,31993.107,1,6,,,
trial,html.Screen,2_5_0,2023-11-06T18:51:46.537Z,,0,0,,3436.9929999642372,response,ISIC_0010681.JPG,,ISIC_0025346.JPG,ISIC_0025346.JPG,true,0,keypress(z),500,35430.39999997616,35430.09999996424,31954.017,31969,31993.107,35433.907,1,6,6,,ISIC_0010681.JPG
sequence,flow.Sequence,2_5,2023-11-06T18:51:46.537Z,,0,,,3436.9929999642372,completion,,,,,true,,,,35430.69999998808,35430.09999996424,31954.017,31969,31993.107,35433.907,1,6,,,
loop,flow.Loop,2,2023-11-06T18:51:46.537Z,,,,,21908.661999964235,completion,,,,,true,,,,35431,35430.09999996424,13504.907,13513.199999988079,13521.438,35433.907,1,6,,,
exp_instructions,html.Screen,3,2023-11-06T18:51:49.629Z,,,,,3087.8930000119217,response,,,,,,continue,keypress(Space),,38522.89999997616,38521.80000001192,35416.75,35431,35433.907,38530.881,,,,,
trial,html.Screen,4_0_0,2023-11-06T18:51:54.482Z,,0,1,,4844.018999976157,response,ISIC_9063429.JPG,5,ISIC_0057048.JPG,ISIC_9063429.JPG,false,1,keypress(m),500,43375.09999996424,43374.89999997616,38512.12,38523.19999998808,38530.881,43393.007,8,400,1,,ISIC_0057048.JPG
break,html.Screen,4_0_1,2023-11-06T18:51:54.483Z,,0,,,NaN,,,,,,false,,,,43376.80000001192,43376.5,,43375.30000001192,,43393.007,8,400,,,
break_continue,html.Screen,4_0_2,2023-11-06T18:51:54.484Z,,0,,,NaN,,,,,,false,,,,43377.19999998808,43377.09999996424,,43376.89999997616,,43393.007,8,400,,,
sequence,flow.Sequence,4_0,2023-11-06T18:51:54.484Z,,0,,,4846.218999964236,completion,,,,,false,,,,43377.30000001192,43377.09999996424,38512.12,38523,38530.881,43393.007,8,400,,,
trial,html.Screen,4_1_0,2023-11-06T18:51:57.469Z,,0,1,,2969.3929999761604,response,ISIC_0054080.JPG,19,ISIC_2457024.JPG,ISIC_2457024.JPG,false,0,keypress(z),500,46362.69999998808,46362.39999997616,43360.075,43377.39999997616,43393.007,46373.382,8,400,2,,ISIC_0054080.JPG
break,html.Screen,4_1_1,2023-11-06T18:51:57.470Z,,0,,,NaN,,,,,,false,,,,46363.59999996424,46363.39999997616,,46362.69999998808,,46373.382,8,400,,,
break_continue,html.Screen,4_1_2,2023-11-06T18:51:57.470Z,,0,,,NaN,,,,,,false,,,,46363.80000001192,46363.80000001192,,46363.69999998808,,46373.382,8,400,,,
sequence,flow.Sequence,4_1,2023-11-06T18:51:57.470Z,,0,,,2970.793000011923,completion,,,,,false,,,,46364,46363.80000001192,43360.075,43377.39999997616,43393.007,46373.382,8,400,,,
trial,html.Screen,4_2_0,2023-11-06T18:52:00.833Z,,0,1,,3352.8179999880813,response,ISIC_0029995.JPG,12,ISIC_1226440.JPG,ISIC_1226440.JPG,false,0,keypress(z),500,49726.39999997616,49726.19999998808,46362.566,46364,46373.382,49736.828,8,400,3,,ISIC_0029995.JPG
break,html.Screen,4_2_1,2023-11-06T18:52:00.834Z,,0,,,NaN,,,,,,false,,,,49727.39999997616,49727.09999996424,,49726.59999996424,,49736.828,8,400,,,
break_continue,html.Screen,4_2_2,2023-11-06T18:52:00.834Z,,0,,,NaN,,,,,,false,,,,49727.69999998808,49727.59999996424,,49727.5,,49736.828,8,400,,,
sequence,flow.Sequence,4_2,2023-11-06T18:52:00.834Z,,0,,,3354.2179999642394,completion,,,,,false,,,,49727.80000001192,49727.59999996424,46362.566,46364,46373.382,49736.828,8,400,,,
trial,html.Screen,4_3_0,2023-11-06T18:52:06.629Z,,0,1,,5785.071999976157,response,ISIC_0010380.JPG,31,ISIC_0029902.JPG,ISIC_0010380.JPG,false,1,keypress(m),500,55522.09999996424,55521.89999997616,49719.787,49727.89999997616,49736.828,55532.381,8,400,4,,ISIC_0029902.JPG
break,html.Screen,4_3_1,2023-11-06T18:52:06.630Z,,0,,,NaN,,,,,,false,,,,55524,55523.5,,55523.09999996424,,55532.381,8,400,,,
break_continue,html.Screen,4_3_2,2023-11-06T18:52:06.631Z,,0,,,NaN,,,,,,false,,,,55524.19999998808,55524.09999996424,,55524.09999996424,,55532.381,8,400,,,
sequence,flow.Sequence,4_3,2023-11-06T18:52:06.631Z,,0,,,5787.271999964236,completion,,,,,false,,,,55524.30000001192,55524.09999996424,49719.787,49727.89999997616,49736.828,55532.381,8,400,,,
trial,html.Screen,4_4_0,2023-11-06T18:52:10.496Z,,0,1,,3857.318999988078,response,ISIC_2219050.JPG,12,ISIC_0003925.JPG,ISIC_0003925.JPG,false,0,keypress(z),500,59390.09999996424,59389.69999998808,55513.872,55524.39999997616,55532.381,59394.39,8,400,5,,ISIC_2219050.JPG
break,html.Screen,4_4_1,2023-11-06T18:52:10.498Z,,0,,,NaN,,,,,,false,,,,59391.39999997616,59391,,59390.19999998808,,59394.39,8,400,,,
break_continue,html.Screen,4_4_2,2023-11-06T18:52:10.498Z,,0,,,NaN,,,,,,false,,,,59391.80000001192,59391.69999998808,,59391.59999996424,,59394.39,8,400,,,
sequence,flow.Sequence,4_4,2023-11-06T18:52:10.498Z,,0,,,3859.318999988078,completion,,,,,false,,,,59391.80000001192,59391.69999998808,55513.872,55524.30000001192,55532.381,59394.39,8,400,,,
trial,html.Screen,4_5_0,2023-11-06T18:52:16.156Z,,0,1,,5654.709999964238,response,ISIC_0068560.JPG,19,ISIC_7936755.JPG,ISIC_7936755.JPG,false,0,keypress(z),500,65049.39999997616,65049.09999996424,59378.599,59391.89999997616,59394.39,65059.415,8,400,6,,ISIC_0068560.JPG
break,html.Screen,4_5_1,2023-11-06T18:52:16.157Z,,0,,,NaN,,,,,,false,,,,65050.39999997616,65050.09999996424,,65049.59999996424,,65059.415,8,400,,,
break_continue,html.Screen,4_5_2,2023-11-06T18:52:16.157Z,,0,,,NaN,,,,,,false,,,,65050.69999998808,65050.59999996424,,65050.5,,65059.415,8,400,,,
sequence,flow.Sequence,4_5,2023-11-06T18:52:16.157Z,,0,,,5656.209999964238,completion,,,,,false,,,,65050.69999998808,65050.59999996424,59378.599,59391.89999997616,59394.39,65059.415,8,400,,,
trial,html.Screen,4_6_0,2023-11-06T18:52:19.555Z,,0,1,,3388.9849999761573,response,ISIC_5358568.JPG,4,ISIC_0031184.JPG,ISIC_5358568.JPG,false,1,keypress(m),500,68448.59999996424,68448.39999997616,65039.123,65050.89999997616,65059.415,68452.892,8,400,7,,ISIC_0031184.JPG
break,html.Screen,4_6_1,2023-11-06T18:52:19.556Z,,0,,,NaN,,,,,,false,,,,68449.69999998808,68449.59999996424,,68448.80000001192,,68452.892,8,400,,,
break_continue,html.Screen,4_6_2,2023-11-06T18:52:19.556Z,,0,,,NaN,,,,,,false,,,,68450.09999996424,68450,,68449.89999997616,,68452.892,8,400,,,
sequence,flow.Sequence,4_6,2023-11-06T18:52:19.557Z,,0,,,3390.584999999999,completion,,,,,false,,,,68450.09999996424,68450,65039.123,65050.89999997616,65059.415,68452.892,8,400,,,
trial,html.Screen,4_7_0,2023-11-06T18:52:22.600Z,,0,1,,3040.20799996423,response,ISIC_0071869.JPG,21,ISIC_0001126.JPG,ISIC_0001126.JPG,false,0,keypress(z),500,71493.39999997616,71493.09999996424,68435.58,68450.30000001192,68452.892,71500.44,8,400,8,,ISIC_0071869.JPG
break,html.Screen,4_7_1,2023-11-06T18:52:22.601Z,,0,,,NaN,,,,,,false,,,,71494.30000001192,71494.09999996424,,71493.59999996424,,71500.44,8,400,,,
break_continue,html.Screen,4_7_2,2023-11-06T18:52:22.601Z,,0,,,NaN,,,,,,false,,,,71494.69999998808,71494.5,,71494.5,,71500.44,8,400,,,
sequence,flow.Sequence,4_7,2023-11-06T18:52:22.601Z,,0,,,3041.607999999993,completion,,,,,false,,,,71494.80000001192,71494.5,68435.58,68450.19999998808,68452.892,71500.44,8,400,,,
trial,html.Screen,4_8_0,2023-11-06T18:52:25.345Z,,0,1,,2738.159999964235,response,ISIC_1241817.JPG,5,ISIC_8733345.JPG,ISIC_8733345.JPG,false,0,keypress(z),500,74238.80000001192,74238.59999996424,71481.683,71494.80000001192,71500.44,74247.078,8,400,9,,ISIC_1241817.JPG
break,html.Screen,4_8_1,2023-11-06T18:52:25.346Z,,0,,,NaN,,,,,,false,,,,74240,74239.89999997616,,74239.09999996424,,74247.078,8,400,,,
break_continue,html.Screen,4_8_2,2023-11-06T18:52:25.347Z,,0,,,NaN,,,,,,false,,,,74240.30000001192,74240.19999998808,,74240.09999996424,,74247.078,8,400,,,
sequence,flow.Sequence,4_8,2023-11-06T18:52:25.347Z,,0,,,2739.7599999880767,completion,,,,,false,,,,74240.5,74240.19999998808,71481.683,71494.80000001192,71500.44,74247.078,8,400,,,
trial,html.Screen,4_9_0,2023-11-06T18:52:29.404Z,,0,1,,4050.222000011927,response,ISIC_3181394.JPG,8,ISIC_4462476.JPG,ISIC_4462476.JPG,false,0,keypress(z),500,78298,78297.30000001192,74230.76,74240.69999998808,74247.078,78309.764,8,400,10,,ISIC_3181394.JPG
break,html.Screen,4_9_1,2023-11-06T18:52:29.405Z,,0,,,NaN,,,,,,false,,,,78298.89999997616,78298.59999996424,,78298.30000001192,,78309.764,8,400,,,
break_continue,html.Screen,4_9_2,2023-11-06T18:52:29.405Z,,0,,,NaN,,,,,,false,,,,78299,78299,,78298.89999997616,,78309.764,8,400,,,
sequence,flow.Sequence,4_9,2023-11-06T18:52:29.405Z,,0,,,4051.922000000006,completion,,,,,false,,,,78299.09999996424,78299,74230.76,74240.69999998808,74247.078,78309.764,8,400,,,
trial,html.Screen,4_10_0,2023-11-06T18:52:32.837Z,,0,1,,3420.3359999642416,response,ISIC_9302863.JPG,12,ISIC_5190484.JPG,ISIC_9302863.JPG,false,1,keypress(m),500,81730.39999997616,81730.09999996424,78292.619,78299.19999998808,78309.764,81739.696,8,400,11,,ISIC_5190484.JPG
break,html.Screen,4_10_1,2023-11-06T18:52:32.838Z,,0,,,NaN,,,,,,false,,,,81731.30000001192,81731.19999998808,,81730.5,,81739.696,8,400,,,
break_continue,html.Screen,4_10_2,2023-11-06T18:52:32.838Z,,0,,,NaN,,,,,,false,,,,81731.69999998808,81731.59999996424,,81731.5,,81739.696,8,400,,,
sequence,flow.Sequence,4_10,2023-11-06T18:52:32.838Z,,0,,,3421.8359999642416,completion,,,,,false,,,,81731.69999998808,81731.59999996424,78292.619,78299.19999998808,78309.764,81739.696,8,400,,,
trial,html.Screen,4_11_0,2023-11-06T18:52:35.664Z,,0,1,,2817.503999988083,response,ISIC_0014233.JPG,6,ISIC_6785041.JPG,ISIC_6785041.JPG,false,0,keypress(z),500,84557.5,84557.19999998808,81722.604,81731.80000001192,81739.696,84570.318,8,400,12,,ISIC_0014233.JPG
break,html.Screen,4_11_1,2023-11-06T18:52:35.665Z,,0,,,NaN,,,,,,false,,,,84558.39999997616,84558.19999998808,,84557.59999996424,,84570.318,8,400,,,
break_continue,html.Screen,4_11_2,2023-11-06T18:52:35.665Z,,0,,,NaN,,,,,,false,,,,84558.69999998808,84558.59999996424,,84558.39999997616,,84570.318,8,400,,,
sequence,flow.Sequence,4_11,2023-11-06T18:52:35.665Z,,0,,,2818.903999964241,completion,,,,,false,,,,84558.80000001192,84558.59999996424,81722.604,81731.80000001192,81739.696,84570.318,8,400,,,
trial,html.Screen,4_12_0,2023-11-06T18:52:38.533Z,,0,1,,2855.781999964238,response,ISIC_3314555.JPG,5,ISIC_0448485.JPG,ISIC_3314555.JPG,false,1,keypress(m),500,87426.39999997616,87426.09999996424,84554.332,84558.80000001192,84570.318,87435.023,8,400,13,,ISIC_0448485.JPG
break,html.Screen,4_12_1,2023-11-06T18:52:38.534Z,,0,,,NaN,,,,,,false,,,,87427.30000001192,87427.19999998808,,87426.5,,87435.023,8,400,,,
break_continue,html.Screen,4_12_2,2023-11-06T18:52:38.534Z,,0,,,NaN,,,,,,false,,,,87427.59999996424,87427.5,,87427.39999997616,,87435.023,8,400,,,
sequence,flow.Sequence,4_12,2023-11-06T18:52:38.534Z,,0,,,2857.1820000000007,completion,,,,,false,,,,87427.69999998808,87427.5,84554.332,84558.80000001192,84570.318,87435.023,8,400,,,
trial,html.Screen,4_13_0,2023-11-06T18:52:42.218Z,,0,1,,3676.376999976157,response,ISIC_9978107.JPG,9,ISIC_0025215.JPG,ISIC_0025215.JPG,false,0,keypress(z),500,91111.80000001192,91111.39999997616,87417.822,87427.80000001192,87435.023,91135.147,8,400,14,,ISIC_9978107.JPG
break,html.Screen,4_13_1,2023-11-06T18:52:42.219Z,,0,,,NaN,,,,,,false,,,,91112.69999998808,91112.5,,91112.09999996424,,91135.147,8,400,,,
break_continue,html.Screen,4_13_2,2023-11-06T18:52:42.220Z,,0,,,NaN,,,,,,false,,,,91113.19999998808,91113.09999996424,,91112.89999997616,,91135.147,8,400,,,
sequence,flow.Sequence,4_13,2023-11-06T18:52:42.220Z,,0,,,3678.076999964236,completion,,,,,false,,,,91113.39999997616,91113.09999996424,87417.822,87427.80000001192,87435.023,91135.147,8,400,,,
trial,html.Screen,4_14_0,2023-11-06T18:52:46.437Z,,0,1,,4195.45299996424,response,ISIC_8497457.JPG,12,ISIC_0000520.JPG,ISIC_0000520.JPG,false,0,keypress(z),500,95331,95330.59999996424,91097.663,91113.39999997616,91135.147,95343.642,8,400,15,,ISIC_8497457.JPG
break,html.Screen,4_14_1,2023-11-06T18:52:46.439Z,,0,,,NaN,,,,,,false,,,,95332.39999997616,95332.19999998808,,95331.30000001192,,95343.642,8,400,,,
break_continue,html.Screen,4_14_2,2023-11-06T18:52:46.439Z,,0,,,NaN,,,,,,false,,,,95332.69999998808,95332.59999996424,,95332.5,,95343.642,8,400,,,
sequence,flow.Sequence,4_14,2023-11-06T18:52:46.439Z,,0,,,4197.45299996424,completion,,,,,false,,,,95332.80000001192,95332.59999996424,91097.663,91113.39999997616,91135.147,95343.642,8,400,,,
trial,html.Screen,4_15_0,2023-11-06T18:52:49.280Z,,0,1,,2830.257999976151,response,ISIC_0069865.JPG,20,ISIC_7012881.JPG,ISIC_0069865.JPG,false,1,keypress(m),500,98174,98173.89999997616,95325.77,95332.89999997616,95343.642,98207.352,8,400,16,,ISIC_7012881.JPG
break,html.Screen,4_15_1,2023-11-06T18:52:49.281Z,,0,,,NaN,,,,,,false,,,,98174.80000001192,98174.69999998808,,98174.09999996424,,98207.352,8,400,,,
break_continue,html.Screen,4_15_2,2023-11-06T18:52:49.281Z,,0,,,NaN,,,,,,false,,,,98175,98175,,98174.80000001192,,98207.352,8,400,,,
sequence,flow.Sequence,4_15,2023-11-06T18:52:49.282Z,,0,,,2831.357999999993,completion,,,,,false,,,,98175.19999998808,98175,95325.77,95332.80000001192,95343.642,98207.352,8,400,,,
trial,html.Screen,4_16_0,2023-11-06T18:52:52.420Z,,0,1,,3105.84799998808,response,ISIC_0429825.JPG,12,ISIC_0058079.JPG,ISIC_0058079.JPG,false,0,keypress(z),500,101313.5,101313.19999998808,98190.831,98175.19999998808,98207.352,101321.649,8,400,17,,ISIC_0429825.JPG
break,html.Screen,4_16_1,2023-11-06T18:52:52.421Z,,0,,,NaN,,,,,,false,,,,101314.80000001192,101314.59999996424,,101313.80000001192,,101321.649,8,400,,,
break_continue,html.Screen,4_16_2,2023-11-06T18:52:52.422Z,,0,,,NaN,,,,,,false,,,,101315.30000001192,101315.19999998808,,101315,,101321.649,8,400,,,
sequence,flow.Sequence,4_16,2023-11-06T18:52:52.422Z,,0,,,3107.84799998808,completion,,,,,false,,,,101315.39999997616,101315.19999998808,98190.831,98175.19999998808,98207.352,101321.649,8,400,,,
trial,html.Screen,4_17_0,2023-11-06T18:52:55.610Z,,0,1,,3181.7509999761533,response,ISIC_9927486.JPG,10,ISIC_7714981.JPG,ISIC_7714981.JPG,false,0,keypress(z),500,104503.59999996424,104503.39999997616,101304.434,101315.59999996424,101321.649,104518.017,8,400,18,,ISIC_9927486.JPG
break,html.Screen,4_17_1,2023-11-06T18:52:55.611Z,,0,,,NaN,,,,,,false,,,,104504.39999997616,104504.09999996424,,104503.69999998808,,104518.017,8,400,,,
break_continue,html.Screen,4_17_2,2023-11-06T18:52:55.611Z,,0,,,NaN,,,,,,false,,,,104504.80000001192,104504.69999998808,,104504.59999996424,,104518.017,8,400,,,
sequence,flow.Sequence,4_17,2023-11-06T18:52:55.611Z,,0,,,3183.050999988074,completion,,,,,false,,,,104505,104504.69999998808,101304.434,101315.5,101321.649,104518.017,8,400,,,
trial,html.Screen,4_18_0,2023-11-06T18:52:59.230Z,,0,1,,3605.182999988072,response,ISIC_0003046.JPG,6,ISIC_7915065.JPG,ISIC_7915065.JPG,false,0,keypress(z),500,108123.39999997616,108123.19999998808,104501.038,104505.19999998808,104518.017,108149.114,8,400,19,,ISIC_0003046.JPG
break,html.Screen,4_18_1,2023-11-06T18:52:59.231Z,,0,,,NaN,,,,,,false,,,,108124.80000001192,108124.59999996424,,108123.80000001192,,108149.114,8,400,,,
break_continue,html.Screen,4_18_2,2023-11-06T18:52:59.231Z,,0,,,NaN,,,,,,false,,,,108125.19999998808,108125.09999996424,,108124.89999997616,,108149.114,8,400,,,
sequence,flow.Sequence,4_18,2023-11-06T18:52:59.232Z,,0,,,3607.08299996423,completion,,,,,false,,,,108125.30000001192,108125.09999996424,104501.038,104505,104518.017,108149.114,8,400,,,
trial,html.Screen,4_19_0,2023-11-06T18:53:01.989Z,,0,1,,2733.0859999880777,response,ISIC_0030985.JPG,5,ISIC_0028175.JPG,ISIC_0030985.JPG,false,1,keypress(m),500,110882.59999996424,110882.19999998808,108131.361,108125.39999997616,108149.114,110895.264,8,400,20,,ISIC_0028175.JPG
break,html.Screen,4_19_1,2023-11-06T18:53:01.990Z,,0,,,NaN,,,,,,false,,,,110883.5,110883.39999997616,,110882.80000001192,,110895.264,8,400,,,
break_continue,html.Screen,4_19_2,2023-11-06T18:53:01.990Z,,0,,,NaN,,,,,,false,,,,110883.80000001192,110883.80000001192,,110883.69999998808,,110895.264,8,400,,,
sequence,flow.Sequence,4_19,2023-11-06T18:53:01.990Z,,0,,,2734.6860000119195,completion,,,,,false,,,,110884,110883.80000001192,108131.361,108125.30000001192,108149.114,110895.264,8,400,,,
trial,html.Screen,4_20_0,2023-11-06T18:53:04.665Z,,0,1,,2663.2360000000044,response,ISIC_0068314.JPG,5,ISIC_8943906.JPG,ISIC_0068314.JPG,false,1,keypress(m),500,113558.80000001192,113558.5,110871.112,110884,110895.264,113576.354,8,400,21,,ISIC_8943906.JPG
break,html.Screen,4_20_1,2023-11-06T18:53:04.666Z,,0,,,NaN,,,,,,false,,,,113560,113559.80000001192,,113559.09999996424,,113576.354,8,400,,,
break_continue,html.Screen,4_20_2,2023-11-06T18:53:04.667Z,,0,,,NaN,,,,,,false,,,,113560.30000001192,113560.19999998808,,113560.09999996424,,113576.354,8,400,,,
sequence,flow.Sequence,4_20,2023-11-06T18:53:04.667Z,,0,,,2664.9359999880835,completion,,,,,false,,,,113560.39999997616,113560.19999998808,110871.112,110884,110895.264,113576.354,8,400,,,
trial,html.Screen,4_21_0,2023-11-06T18:53:12.308Z,,0,1,,7624.845999988072,response,ISIC_0033416.JPG,12,ISIC_2975167.JPG,ISIC_0033416.JPG,false,1,keypress(m),500,121201.5,121201.19999998808,113557.355,113560.39999997616,113576.354,121202.134,8,400,22,,ISIC_2975167.JPG
break,html.Screen,4_21_1,2023-11-06T18:53:12.309Z,,0,,,NaN,,,,,,false,,,,121202.5,121202.19999998808,,121201.69999998808,,121202.134,8,400,,,
break_continue,html.Screen,4_21_2,2023-11-06T18:53:12.309Z,,0,,,NaN,,,,,,false,,,,121202.69999998808,121202.69999998808,,121202.5,,121202.134,8,400,,,
sequence,flow.Sequence,4_21,2023-11-06T18:53:12.309Z,,0,,,7626.345999988072,completion,,,,,false,,,,121203,121202.69999998808,113557.355,113560.39999997616,113576.354,121202.134,8,400,,,
trial,html.Screen,4_22_0,2023-11-06T18:53:16.347Z,,0,1,,4037.8659999999945,response,ISIC_7145788.JPG,10,ISIC_5458290.JPG,ISIC_5458290.JPG,false,0,keypress(z),500,125240.30000001192,125240,121185.923,121203,121202.134,125248.281,8,400,23,,ISIC_7145788.JPG
break,html.Screen,4_22_1,2023-11-06T18:53:16.347Z,,0,,,NaN,,,,,,false,,,,125241.09999996424,125240.89999997616,,125240.5,,125248.281,8,400,,,
break_continue,html.Screen,4_22_2,2023-11-06T18:53:16.348Z,,0,,,NaN,,,,,,false,,,,125241.39999997616,125241.30000001192,,125241.19999998808,,125248.281,8,400,,,
sequence,flow.Sequence,4_22,2023-11-06T18:53:16.348Z,,0,,,4039.1660000119155,completion,,,,,false,,,,125241.5,125241.30000001192,121185.923,121203,121202.134,125248.281,8,400,,,
trial,html.Screen,4_23_0,2023-11-06T18:53:18.950Z,,0,1,,2595.1189999761555,response,ISIC_6876281.JPG,23,ISIC_8781751.JPG,ISIC_8781751.JPG,false,0,keypress(z),500,127843.69999998808,127843.39999997616,125229.411,125241.5,125248.281,127845.835,8,400,24,,ISIC_6876281.JPG
break,html.Screen,4_23_1,2023-11-06T18:53:18.951Z,,0,,,NaN,,,,,,false,,,,127844.59999996424,127844.39999997616,,127843.80000001192,,127845.835,8,400,,,
break_continue,html.Screen,4_23_2,2023-11-06T18:53:18.951Z,,0,,,NaN,,,,,,false,,,,127844.89999997616,127844.80000001192,,127844.69999998808,,127845.835,8,400,,,
sequence,flow.Sequence,4_23,2023-11-06T18:53:18.951Z,,0,,,2596.5190000119183,completion,,,,,false,,,,127845,127844.80000001192,125229.411,125241.5,125248.281,127845.835,8,400,,,
trial,html.Screen,4_24_0,2023-11-06T18:53:21.553Z,,0,1,,2600.3649999880727,response,ISIC_6056692.JPG,7,ISIC_1081430.JPG,ISIC_6056692.JPG,false,1,keypress(m),500,130446.59999996424,130446.19999998808,127836.679,127845.09999996424,127845.835,130459.953,8,400,25,,ISIC_1081430.JPG
break,html.Screen,4_24_1,2023-11-06T18:53:21.554Z,,0,,,NaN,,,,,,false,,,,130447.89999997616,130447.69999998808,,130446.69999998808,,130459.953,8,400,,,
break_continue,html.Screen,4_24_2,2023-11-06T18:53:21.554Z,,0,,,NaN,,,,,,false,,,,130448.09999996424,130448.09999996424,,130447.89999997616,,130459.953,8,400,,,
sequence,flow.Sequence,4_24,2023-11-06T18:53:21.555Z,,0,,,2602.264999964231,completion,,,,,false,,,,130448.30000001192,130448.09999996424,127836.679,127845.09999996424,127845.835,130459.953,8,400,,,
trial,html.Screen,4_25_0,2023-11-06T18:53:24.104Z,,0,1,,2537.446999976164,response,ISIC_2521424.JPG,5,ISIC_6447681.JPG,ISIC_6447681.JPG,false,0,keypress(z),500,132997.59999996424,132997.39999997616,130443.935,130448.39999997616,130459.953,133007.983,8,400,26,,ISIC_2521424.JPG
break,html.Screen,4_25_1,2023-11-06T18:53:24.105Z,,0,,,NaN,,,,,,false,,,,132998.89999997616,132998.69999998808,,132997.80000001192,,133007.983,8,400,,,
break_continue,html.Screen,4_25_2,2023-11-06T18:53:24.106Z,,0,,,NaN,,,,,,false,,,,132999.30000001192,132999.09999996424,,132999.09999996424,,133007.983,8,400,,,
sequence,flow.Sequence,4_25,2023-11-06T18:53:24.106Z,,0,,,2539.146999964243,completion,,,,,false,,,,132999.39999997616,132999.09999996424,130443.935,130448.30000001192,130459.953,133007.983,8,400,,,
trial,html.Screen,4_26_0,2023-11-06T18:53:26.639Z,,0,1,,2524.2169999880716,response,ISIC_5226353.JPG,7,ISIC_0011137.JPG,ISIC_0011137.JPG,false,0,keypress(z),500,135532.59999996424,135532.19999998808,132990.964,132999.39999997616,133007.983,135539.077,8,400,27,,ISIC_5226353.JPG
break,html.Screen,4_26_1,2023-11-06T18:53:26.640Z,,0,,,NaN,,,,,,false,,,,135533.89999997616,135533.59999996424,,135532.80000001192,,135539.077,8,400,,,
break_continue,html.Screen,4_26_2,2023-11-06T18:53:26.641Z,,0,,,NaN,,,,,,false,,,,135534.30000001192,135534.19999998808,,135534,,135539.077,8,400,,,
sequence,flow.Sequence,4_26,2023-11-06T18:53:26.641Z,,0,,,2526.2169999880716,completion,,,,,false,,,,135534.30000001192,135534.19999998808,132990.964,132999.39999997616,133007.983,135539.077,8,400,,,
trial,html.Screen,4_27_0,2023-11-06T18:53:29.875Z,,0,1,,3229.42300000001,response,ISIC_0053659.JPG,11,ISIC_6093728.JPG,ISIC_6093728.JPG,false,0,keypress(z),500,138768.89999997616,138768.5,135520.433,135534.30000001192,135539.077,138785.36,8,400,28,,ISIC_0053659.JPG
break,html.Screen,4_27_1,2023-11-06T18:53:29.876Z,,0,,,NaN,,,,,,false,,,,138770,138769.80000001192,,138769.09999996424,,138785.36,8,400,,,
break_continue,html.Screen,4_27_2,2023-11-06T18:53:29.877Z,,0,,,NaN,,,,,,false,,,,138770.5,138770.39999997616,,138770.09999996424,,138785.36,8,400,,,
sequence,flow.Sequence,4_27,2023-11-06T18:53:29.877Z,,0,,,3231.322999976168,completion,,,,,false,,,,138770.59999996424,138770.39999997616,135520.433,135534.30000001192,135539.077,138785.36,8,400,,,
trial,html.Screen,4_28_0,2023-11-06T18:53:32.732Z,,0,1,,2839.839999988093,response,ISIC_0067274.JPG,9,ISIC_0067719.JPG,ISIC_0067719.JPG,false,0,keypress(z),500,141625.39999997616,141625.19999998808,138766.88,138770.69999998808,138785.36,141649.35,8,400,29,,ISIC_0067274.JPG
break,html.Screen,4_28_1,2023-11-06T18:53:32.733Z,,0,,,NaN,,,,,,false,,,,141626.30000001192,141626,,141625.59999996424,,141649.35,8,400,,,
break_continue,html.Screen,4_28_2,2023-11-06T18:53:32.733Z,,0,,,NaN,,,,,,false,,,,141626.69999998808,141626.5,,141626.39999997616,,141649.35,8,400,,,
sequence,flow.Sequence,4_28,2023-11-06T18:53:32.733Z,,0,,,2841.140000000014,completion,,,,,false,,,,141626.80000001192,141626.5,138766.88,138770.69999998808,138785.36,141649.35,8,400,,,
trial,html.Screen,4_29_0,2023-11-06T18:53:37.844Z,,0,1,,5088.249999964231,response,ISIC_0059257.JPG,13,ISIC_0071536.JPG,ISIC_0071536.JPG,false,0,keypress(z),500,146737.89999997616,146737.59999996424,141633.013,141626.80000001192,141649.35,146746.478,8,400,30,,ISIC_0059257.JPG
break,html.Screen,4_29_1,2023-11-06T18:53:37.846Z,,0,,,NaN,,,,,,false,,,,146739.39999997616,146739.09999996424,,146738.09999996424,,146746.478,8,400,,,
break_continue,html.Screen,4_29_2,2023-11-06T18:53:37.846Z,,0,,,NaN,,,,,,false,,,,146739.89999997616,146739.69999998808,,146739.59999996424,,146746.478,8,400,,,
sequence,flow.Sequence,4_29,2023-11-06T18:53:37.846Z,,0,,,5090.349999988073,completion,,,,,false,,,,146740.19999998808,146739.69999998808,141633.013,141626.80000001192,141649.35,146746.478,8,400,,,
trial,html.Screen,4_30_0,2023-11-06T18:53:40.541Z,,0,1,,2687.822000011918,response,ISIC_3996796.JPG,8,ISIC_0633835.JPG,ISIC_3996796.JPG,false,1,keypress(m),500,149434.5,149434.30000001192,146728.03,146740.30000001192,146746.478,149442.384,8,400,31,,ISIC_0633835.JPG
break,html.Screen,4_30_1,2023-11-06T18:53:40.542Z,,0,,,NaN,,,,,,false,,,,149435.59999996424,149435.39999997616,,149434.80000001192,,149442.384,8,400,,,
break_continue,html.Screen,4_30_2,2023-11-06T18:53:40.542Z,,0,,,NaN,,,,,,false,,,,149435.80000001192,149435.80000001192,,149435.69999998808,,149442.384,8,400,,,
sequence,flow.Sequence,4_30,2023-11-06T18:53:40.542Z,,0,,,2689.322000011918,completion,,,,,false,,,,149436,149435.80000001192,146728.03,146740.19999998808,146746.478,149442.384,8,400,,,
trial,html.Screen,4_31_0,2023-11-06T18:53:43.112Z,,0,1,,2562.7159999642463,response,ISIC_1461068.JPG,7,ISIC_0026348.JPG,ISIC_0026348.JPG,false,0,keypress(z),500,152005.39999997616,152005.09999996424,149425.643,149436,149442.384,152022.771,8,400,32,,ISIC_1461068.JPG
break,html.Screen,4_31_1,2023-11-06T18:53:43.113Z,,0,,,NaN,,,,,,false,,,,152006.59999996424,152006.19999998808,,152005.59999996424,,152022.771,8,400,,,
break_continue,html.Screen,4_31_2,2023-11-06T18:53:43.113Z,,0,,,NaN,,,,,,false,,,,152007.09999996424,152006.89999997616,,152006.69999998808,,152022.771,8,400,,,
sequence,flow.Sequence,4_31,2023-11-06T18:53:43.114Z,,0,,,2564.515999976167,completion,,,,,false,,,,152007.30000001192,152006.89999997616,149425.643,149436,149442.384,152022.771,8,400,,,
trial,html.Screen,4_32_0,2023-11-06T18:53:46.175Z,,0,1,,3045.3289999642293,response,ISIC_4644299.JPG,11,ISIC_4679971.JPG,ISIC_4679971.JPG,false,0,keypress(z),500,155068.19999998808,155068.09999996424,152005.197,152007.39999997616,152022.771,155070.104,8,400,33,,ISIC_4644299.JPG
break,html.Screen,4_32_1,2023-11-06T18:53:46.175Z,,0,,,NaN,,,,,,false,,,,155069.09999996424,155069,,155068.30000001192,,155070.104,8,400,,,
break_continue,html.Screen,4_32_2,2023-11-06T18:53:46.176Z,,0,,,NaN,,,,,,false,,,,155069.39999997616,155069.30000001192,,155069.19999998808,,155070.104,8,400,,,
sequence,flow.Sequence,4_32,2023-11-06T18:53:46.176Z,,0,,,3046.529000011913,completion,,,,,false,,,,155069.5,155069.30000001192,152005.197,152007.39999997616,152022.771,155070.104,8,400,,,
trial,html.Screen,4_33_0,2023-11-06T18:53:51.224Z,,0,1,,5047.396000000008,response,ISIC_9134453.JPG,16,ISIC_0002693.JPG,ISIC_9134453.JPG,false,1,keypress(m),500,160117.80000001192,160117.5,155063.596,155070.69999998808,155070.104,160150.49,8,400,34,,ISIC_0002693.JPG
break,html.Screen,4_33_1,2023-11-06T18:53:51.225Z,,0,,,NaN,,,,,,false,,,,160118.69999998808,160118.59999996424,,160118,,160150.49,8,400,,,
break_continue,html.Screen,4_33_2,2023-11-06T18:53:51.225Z,,0,,,NaN,,,,,,false,,,,160119.19999998808,160119,,160118.80000001192,,160150.49,8,400,,,
sequence,flow.Sequence,4_33,2023-11-06T18:53:51.226Z,,0,,,5048.896000000008,completion,,,,,false,,,,160119.30000001192,160119,155063.596,155070.69999998808,155070.104,160150.49,8,400,,,
trial,html.Screen,4_34_0,2023-11-06T18:53:54.063Z,,0,1,,2805.8100000119302,response,ISIC_0056047.JPG,11,ISIC_2563948.JPG,ISIC_0056047.JPG,false,1,keypress(m),500,162956.59999996424,162956.30000001192,160115.094,160119.39999997616,160150.49,162962.994,8,400,35,,ISIC_2563948.JPG
break,html.Screen,4_34_1,2023-11-06T18:53:54.064Z,,0,,,NaN,,,,,,false,,,,162957.59999996424,162957.39999997616,,162956.80000001192,,162962.994,8,400,,,
break_continue,html.Screen,4_34_2,2023-11-06T18:53:54.064Z,,0,,,NaN,,,,,,false,,,,162957.80000001192,162957.80000001192,,162957.59999996424,,162962.994,8,400,,,
sequence,flow.Sequence,4_34,2023-11-06T18:53:54.064Z,,0,,,2807.3100000119302,completion,,,,,false,,,,162957.89999997616,162957.80000001192,160115.094,160119.39999997616,160150.49,162962.994,8,400,,,
trial,html.Screen,4_35_0,2023-11-06T18:54:05.559Z,,0,1,,11521.741999999998,timeout,ISIC_0025571.JPG,11,ISIC_0046623.JPG,,false,,,500,174452.59999996424,174452.30000001192,162945.017,162958,162962.994,174484.736,8,400,36,,
break,html.Screen,4_35_1,2023-11-06T18:54:05.560Z,,0,,,NaN,,,,,,false,,,,174453.39999997616,174453.30000001192,,174452.69999998808,,174484.736,8,400,,,
break_continue,html.Screen,4_35_2,2023-11-06T18:54:05.560Z,,0,,,NaN,,,,,,false,,,,174453.80000001192,174453.69999998808,,174453.59999996424,,174484.736,8,400,,,
sequence,flow.Sequence,4_35,2023-11-06T18:54:05.560Z,,0,,,11490.705999988073,completion,,,,,false,,,,174454,174453.69999998808,162945.017,162958,162962.994,174484.736,8,400,,,
trial,html.Screen,4_36_0,2023-11-06T18:54:08.219Z,,0,1,,2627.363999964233,response,ISIC_3685448.JPG,13,ISIC_0011703.JPG,ISIC_0011703.JPG,false,0,keypress(z),500,177112.39999997616,177112.09999996424,174469.233,174454.19999998808,174484.736,177115.611,8,400,37,,ISIC_3685448.JPG
break,html.Screen,4_36_1,2023-11-06T18:54:08.220Z,,0,,,NaN,,,,,,false,,,,177113.39999997616,177113.30000001192,,177112.69999998808,,177115.611,8,400,,,
break_continue,html.Screen,4_36_2,2023-11-06T18:54:08.220Z,,0,,,NaN,,,,,,false,,,,177113.69999998808,177113.69999998808,,177113.5,,177115.611,8,400,,,
sequence,flow.Sequence,4_36,2023-11-06T18:54:08.220Z,,0,,,2628.9639999880746,completion,,,,,false,,,,177113.80000001192,177113.69999998808,174469.233,174454.09999996424,174484.736,177115.611,8,400,,,
trial,html.Screen,4_37_0,2023-11-06T18:54:11.203Z,,0,1,,2981.1890000119165,response,ISIC_5514594.JPG,11,ISIC_5433087.JPG,ISIC_5433087.JPG,false,0,keypress(z),500,180097.09999996424,180096.80000001192,177098.978,177114,177115.611,180113.062,8,400,38,,ISIC_5514594.JPG
break,html.Screen,4_37_1,2023-11-06T18:54:11.204Z,,0,,,NaN,,,,,,false,,,,180098.09999996424,180097.80000001192,,180097.30000001192,,180113.062,8,400,,,
break_continue,html.Screen,4_37_2,2023-11-06T18:54:11.205Z,,0,,,NaN,,,,,,false,,,,180098.39999997616,180098.30000001192,,180098.19999998808,,180113.062,8,400,,,
sequence,flow.Sequence,4_37,2023-11-06T18:54:11.205Z,,0,,,2982.6890000119165,completion,,,,,false,,,,180098.39999997616,180098.30000001192,177098.978,177113.89999997616,177115.611,180113.062,8,400,,,
trial,html.Screen,4_38_0,2023-11-06T18:54:14.455Z,,0,1,,3234.7380000119156,response,ISIC_0030139.JPG,8,ISIC_0519386.JPG,ISIC_0030139.JPG,false,1,keypress(m),500,183348,183347.80000001192,180095.34,180098.5,180113.062,183360.368,8,400,39,,ISIC_0519386.JPG
break,html.Screen,4_38_1,2023-11-06T18:54:14.456Z,,0,,,NaN,,,,,,false,,,,183349.09999996424,183348.89999997616,,183348.39999997616,,183360.368,8,400,,,
break_continue,html.Screen,4_38_2,2023-11-06T18:54:14.456Z,,0,,,NaN,,,,,,false,,,,183349.5,183349.30000001192,,183349.30000001192,,183360.368,8,400,,,
sequence,flow.Sequence,4_38,2023-11-06T18:54:14.456Z,,0,,,3236.2380000119156,completion,,,,,false,,,,183349.5,183349.30000001192,180095.34,180098.39999997616,180113.062,183360.368,8,400,,,
trial,html.Screen,4_39_0,2023-11-06T18:54:17.136Z,,0,1,,2669.0319999761705,response,ISIC_2829088.JPG,12,ISIC_0014059.JPG,ISIC_0014059.JPG,false,0,keypress(z),500,186029.69999998808,186029.39999997616,183343.432,183349.5,183360.368,186040.369,8,400,40,,ISIC_2829088.JPG
break,html.Screen,4_39_1,2023-11-06T18:54:17.137Z,,0,,,NaN,,,,,,false,,,,186030.80000001192,186030.5,,186029.80000001192,,186040.369,8,400,,,
break_continue,html.Screen,4_39_2,2023-11-06T18:54:17.137Z,,0,,,NaN,,,,,,false,,,,186031,186031,,186030.89999997616,,186040.369,8,400,,,
sequence,flow.Sequence,4_39,2023-11-06T18:54:17.138Z,,0,,,2670.6320000000123,completion,,,,,false,,,,186031.09999996424,186031,183343.432,183349.5,183360.368,186040.369,8,400,,,
trial,html.Screen,4_40_0,2023-11-06T18:54:19.658Z,,0,1,,2510.830999988073,response,ISIC_9458746.JPG,5,ISIC_5216586.JPG,ISIC_5216586.JPG,false,0,keypress(z),500,188551.5,188551.19999998808,186023.934,186031.19999998808,186040.369,188554.668,8,400,41,,ISIC_9458746.JPG
break,html.Screen,4_40_1,2023-11-06T18:54:19.659Z,,0,,,NaN,,,,,,false,,,,188552.59999996424,188552.30000001192,,188551.80000001192,,188554.668,8,400,,,
break_continue,html.Screen,4_40_2,2023-11-06T18:54:19.659Z,,0,,,NaN,,,,,,false,,,,188552.80000001192,188552.80000001192,,188552.69999998808,,188554.668,8,400,,,
sequence,flow.Sequence,4_40,2023-11-06T18:54:19.659Z,,0,,,2512.431000011915,completion,,,,,false,,,,188552.89999997616,188552.80000001192,186023.934,186031.19999998808,186040.369,188554.668,8,400,,,
trial,html.Screen,4_41_0,2023-11-06T18:54:22.338Z,,0,1,,2677.031999988074,response,ISIC_0367225.JPG,8,ISIC_9801917.JPG,ISIC_0367225.JPG,false,1,keypress(m),500,191232,191231.69999998808,188538.201,188553,188554.668,191235.457,8,400,42,,ISIC_9801917.JPG
break,html.Screen,4_41_1,2023-11-06T18:54:22.339Z,,0,,,NaN,,,,,,false,,,,191233.09999996424,191232.80000001192,,191232.19999998808,,191235.457,8,400,,,
break_continue,html.Screen,4_41_2,2023-11-06T18:54:22.340Z,,0,,,NaN,,,,,,false,,,,191233.39999997616,191233.19999998808,,191233.19999998808,,191235.457,8,400,,,
sequence,flow.Sequence,4_41,2023-11-06T18:54:22.340Z,,0,,,2678.531999988074,completion,,,,,false,,,,191233.39999997616,191233.19999998808,188538.201,188553,188554.668,191235.457,8,400,,,
trial,html.Screen,4_42_0,2023-11-06T18:54:24.934Z,,0,1,,2591.742999988084,response,ISIC_1937197.JPG,12,ISIC_0055388.JPG,ISIC_0055388.JPG,false,0,keypress(z),500,193827.39999997616,193827.19999998808,191218.203,191233.5,191235.457,193833.773,8,400,43,,ISIC_1937197.JPG
break,html.Screen,4_42_1,2023-11-06T18:54:24.935Z,,0,,,NaN,,,,,,false,,,,193828.30000001192,193828,,193827.59999996424,,193833.773,8,400,,,
break_continue,html.Screen,4_42_2,2023-11-06T18:54:24.935Z,,0,,,NaN,,,,,,false,,,,193828.59999996424,193828.5,,193828.39999997616,,193833.773,8,400,,,
sequence,flow.Sequence,4_42,2023-11-06T18:54:24.935Z,,0,,,2593.043000000005,completion,,,,,false,,,,193828.80000001192,193828.5,191218.203,191233.39999997616,191235.457,193833.773,8,400,,,
trial,html.Screen,4_43_0,2023-11-06T18:54:27.710Z,,0,1,,2769.4269999880926,response,ISIC_2918128.JPG,5,ISIC_8624186.JPG,ISIC_2918128.JPG,false,1,keypress(m),500,196603.5,196603.19999998808,193817.021,193828.89999997616,193833.773,196613.676,8,400,44,,ISIC_8624186.JPG
break,html.Screen,4_43_1,2023-11-06T18:54:27.711Z,,0,,,NaN,,,,,,false,,,,196604.39999997616,196604.19999998808,,196603.69999998808,,196613.676,8,400,,,
break_continue,html.Screen,4_43_2,2023-11-06T18:54:27.711Z,,0,,,NaN,,,,,,false,,,,196604.69999998808,196604.59999996424,,196604.5,,196613.676,8,400,,,
sequence,flow.Sequence,4_43,2023-11-06T18:54:27.711Z,,0,,,2770.8269999642507,completion,,,,,false,,,,196604.80000001192,196604.59999996424,193817.021,193828.80000001192,193833.773,196613.676,8,400,,,
trial,html.Screen,4_44_0,2023-11-06T18:54:30.280Z,,0,1,,2559.624000011914,response,ISIC_9339756.JPG,5,ISIC_2822622.JPG,ISIC_2822622.JPG,false,0,keypress(z),500,199173.5,199173.30000001192,196597.475,196605,196613.676,199178.604,8,400,45,,ISIC_9339756.JPG
break,html.Screen,4_44_1,2023-11-06T18:54:30.281Z,,0,,,NaN,,,,,,false,,,,199174.39999997616,199174.19999998808,,199173.69999998808,,199178.604,8,400,,,
break_continue,html.Screen,4_44_2,2023-11-06T18:54:30.281Z,,0,,,NaN,,,,,,false,,,,199174.69999998808,199174.59999996424,,199174.5,,199178.604,8,400,,,
sequence,flow.Sequence,4_44,2023-11-06T18:54:30.281Z,,0,,,2560.9239999642305,completion,,,,,false,,,,199174.80000001192,199174.59999996424,196597.475,196604.89999997616,196613.676,199178.604,8,400,,,
trial,html.Screen,4_45_0,2023-11-06T18:54:33.692Z,,0,1,,3406.396000000008,response,ISIC_3816833.JPG,6,ISIC_6052437.JPG,ISIC_6052437.JPG,false,0,keypress(z),500,202585.30000001192,202585,199160.914,199174.89999997616,199178.604,202591.456,8,400,46,,ISIC_3816833.JPG
break,html.Screen,4_45_1,2023-11-06T18:54:33.693Z,,0,,,NaN,,,,,,false,,,,202586.19999998808,202586,,202585.5,,202591.456,8,400,,,
break_continue,html.Screen,4_45_2,2023-11-06T18:54:33.693Z,,0,,,NaN,,,,,,false,,,,202586.5,202586.5,,202586.30000001192,,202591.456,8,400,,,
sequence,flow.Sequence,4_45,2023-11-06T18:54:33.693Z,,0,,,3407.896000000008,completion,,,,,false,,,,202586.59999996424,202586.5,199160.914,199174.89999997616,199178.604,202591.456,8,400,,,
trial,html.Screen,4_46_0,2023-11-06T18:54:36.356Z,,0,1,,2657.4439999761526,response,ISIC_6780471.JPG,19,ISIC_0057898.JPG,ISIC_0057898.JPG,false,0,keypress(z),500,205249.30000001192,205248.89999997616,202575.021,202586.59999996424,202591.456,205256.255,8,400,47,,ISIC_6780471.JPG
break,html.Screen,4_46_1,2023-11-06T18:54:36.357Z,,0,,,NaN,,,,,,false,,,,205250.69999998808,205250.39999997616,,205249.5,,205256.255,8,400,,,
break_continue,html.Screen,4_46_2,2023-11-06T18:54:36.357Z,,0,,,NaN,,,,,,false,,,,205251,205250.89999997616,,205250.80000001192,,205256.255,8,400,,,
sequence,flow.Sequence,4_46,2023-11-06T18:54:36.358Z,,0,,,2659.4439999761526,completion,,,,,false,,,,205251.09999996424,205250.89999997616,202575.021,202586.59999996424,202591.456,205256.255,8,400,,,
trial,html.Screen,4_47_0,2023-11-06T18:54:39.355Z,,0,1,,2991.6449999761535,response,ISIC_5994645.JPG,13,ISIC_9140779.JPG,ISIC_5994645.JPG,false,1,keypress(m),500,208248.09999996424,208247.89999997616,205238.871,205251.30000001192,205256.255,208253.239,8,400,48,,ISIC_9140779.JPG
break,html.Screen,4_47_1,2023-11-06T18:54:39.356Z,,0,,,NaN,,,,,,false,,,,208249.09999996424,208249,,208248.30000001192,,208253.239,8,400,,,
break_continue,html.Screen,4_47_2,2023-11-06T18:54:39.356Z,,0,,,NaN,,,,,,false,,,,208249.39999997616,208249.30000001192,,208249.30000001192,,208253.239,8,400,,,
sequence,flow.Sequence,4_47,2023-11-06T18:54:39.356Z,,0,,,2993.0450000119163,completion,,,,,false,,,,208249.5,208249.30000001192,205238.871,205251.19999998808,205256.255,208253.239,8,400,,,
trial,html.Screen,4_48_0,2023-11-06T18:54:42.082Z,,0,1,,2722.1609999761567,response,ISIC_0033329.JPG,6,ISIC_0062935.JPG,ISIC_0062935.JPG,false,0,keypress(z),500,210975.59999996424,210975.39999997616,208235.766,208249.5,208253.239,210983.511,8,400,49,,ISIC_0033329.JPG
break,html.Screen,4_48_1,2023-11-06T18:54:42.083Z,,0,,,NaN,,,,,,false,,,,210976.5,210976.39999997616,,210975.69999998808,,210983.511,8,400,,,
break_continue,html.Screen,4_48_2,2023-11-06T18:54:42.083Z,,0,,,NaN,,,,,,false,,,,210977,210976.89999997616,,210976.69999998808,,210983.511,8,400,,,
sequence,flow.Sequence,4_48,2023-11-06T18:54:42.084Z,,0,,,2723.6609999761567,completion,,,,,false,,,,210977.09999996424,210976.89999997616,208235.766,208249.5,208253.239,210983.511,8,400,,,
trial,html.Screen,4_49_0,2023-11-06T18:54:45.432Z,,0,1,,3341.3889999761595,response,ISIC_0053791.JPG,5,ISIC_0061580.JPG,ISIC_0053791.JPG,false,1,keypress(m),500,214325.19999998808,214324.89999997616,210966.351,210977.19999998808,210983.511,214330.139,8,400,50,,ISIC_0061580.JPG
break,html.Screen,4_49_1,2023-11-06T18:54:55.429Z,,0,,,10007.089000000007,timeout,,,,,false,,,,224322.09999996424,224320.731,214313.892,214325.5,214330.139,224337.228,8,400,,,
break_continue,html.Screen,4_49_2,2023-11-06T18:54:57.424Z,,0,,,1966.1719999761553,response,,,,,false,continue,keypress(Space),,226318,226303.39999997616,224320.731,224322.30000001192,224337.228,226335.378,8,400,,,
sequence,flow.Sequence,4_49,2023-11-06T18:54:57.425Z,,0,,,15319.88899997616,completion,,,,,false,,,,226318.19999998808,226303.39999997616,210966.351,210977.19999998808,210983.511,226335.378,8,400,,,
trial,html.Screen,4_50_0,2023-11-06T18:55:00.121Z,,0,2,,2678.422000011924,response,ISIC_4372519.JPG,8,ISIC_0064141.JPG,ISIC_0064141.JPG,false,0,keypress(z),500,229014.19999998808,229013.80000001192,226317.528,226318.30000001192,226335.378,229038.425,8,400,1,,ISIC_4372519.JPG
break,html.Screen,4_50_1,2023-11-06T18:55:00.122Z,,0,,,NaN,,,,,,false,,,,229015.30000001192,229015,,229014.39999997616,,229038.425,8,400,,,
break_continue,html.Screen,4_50_2,2023-11-06T18:55:00.122Z,,0,,,NaN,,,,,,false,,,,229015.69999998808,229015.59999996424,,229015.39999997616,,229038.425,8,400,,,
sequence,flow.Sequence,4_50,2023-11-06T18:55:00.122Z,,0,,,2680.2219999642402,completion,,,,,false,,,,229015.80000001192,229015.59999996424,226317.528,226318.30000001192,226335.378,229038.425,8,400,,,
trial,html.Screen,4_51_0,2023-11-06T18:55:02.635Z,,0,2,,2489.97499997617,response,ISIC_0025929.JPG,11,ISIC_0010651.JPG,ISIC_0025929.JPG,false,1,keypress(m),500,231528.69999998808,231528.39999997616,229000.005,229015.89999997616,229038.425,231554.958,8,400,2,,ISIC_0010651.JPG
break,html.Screen,4_51_1,2023-11-06T18:55:02.636Z,,0,,,NaN,,,,,,false,,,,231529.69999998808,231529.39999997616,,231528.89999997616,,231554.958,8,400,,,
break_continue,html.Screen,4_51_2,2023-11-06T18:55:02.636Z,,0,,,NaN,,,,,,false,,,,231529.89999997616,231529.89999997616,,231529.80000001192,,231554.958,8,400,,,
sequence,flow.Sequence,4_51,2023-11-06T18:55:02.636Z,,0,,,2491.47499997617,completion,,,,,false,,,,231530.09999996424,231529.89999997616,229000.005,229015.89999997616,229038.425,231554.958,8,400,,,
trial,html.Screen,4_52_0,2023-11-06T18:55:05.360Z,,0,2,,2698.441999976145,response,ISIC_1037315.JPG,26,ISIC_7052658.JPG,ISIC_1037315.JPG,false,1,keypress(m),500,234253.59999996424,234253.39999997616,231514.074,231530.19999998808,231554.958,234261.93,8,400,3,,ISIC_7052658.JPG
break,html.Screen,4_52_1,2023-11-06T18:55:05.361Z,,0,,,NaN,,,,,,false,,,,234254.5,234254.30000001192,,234253.89999997616,,234261.93,8,400,,,
break_continue,html.Screen,4_52_2,2023-11-06T18:55:05.361Z,,0,,,NaN,,,,,,false,,,,234254.89999997616,234254.80000001192,,234254.69999998808,,234261.93,8,400,,,
sequence,flow.Sequence,4_52,2023-11-06T18:55:05.361Z,,0,,,2699.8420000119077,completion,,,,,false,,,,234255,234254.80000001192,231514.074,231530.09999996424,231554.958,234261.93,8,400,,,
trial,html.Screen,4_53_0,2023-11-06T18:55:07.988Z,,0,2,,2618.870000011928,response,ISIC_0025841.JPG,8,ISIC_0067905.JPG,ISIC_0067905.JPG,false,0,keypress(z),500,236881.19999998808,236880.80000001192,234244.844,234255.09999996424,234261.93,236891.926,8,400,4,,ISIC_0025841.JPG
break,html.Screen,4_53_1,2023-11-06T18:55:07.989Z,,0,,,NaN,,,,,,false,,,,236882.5,236882.30000001192,,236881.39999997616,,236891.926,8,400,,,
break_continue,html.Screen,4_53_2,2023-11-06T18:55:07.989Z,,0,,,NaN,,,,,,false,,,,236882.80000001192,236882.80000001192,,236882.69999998808,,236891.926,8,400,,,
sequence,flow.Sequence,4_53,2023-11-06T18:55:07.989Z,,0,,,2620.870000011928,completion,,,,,false,,,,236882.89999997616,236882.80000001192,234244.844,234255.09999996424,234261.93,236891.926,8,400,,,
trial,html.Screen,4_54_0,2023-11-06T18:55:10.633Z,,0,2,,2634.1739999642305,response,ISIC_0026428.JPG,9,ISIC_0006328.JPG,ISIC_0026428.JPG,false,1,keypress(m),500,239526.19999998808,239526.09999996424,236876.446,236883,236891.926,239539.427,8,400,5,,ISIC_0006328.JPG
break,html.Screen,4_54_1,2023-11-06T18:55:10.634Z,,0,,,NaN,,,,,,false,,,,239527.09999996424,239526.89999997616,,239526.5,,239539.427,8,400,,,
break_continue,html.Screen,4_54_2,2023-11-06T18:55:10.634Z,,0,,,NaN,,,,,,false,,,,239527.5,239527.5,,239527.30000001192,,239539.427,8,400,,,
sequence,flow.Sequence,4_54,2023-11-06T18:55:10.634Z,,0,,,2635.5739999999932,completion,,,,,false,,,,239527.69999998808,239527.5,236876.446,236883,236891.926,239539.427,8,400,,,
trial,html.Screen,4_55_0,2023-11-06T18:55:13.696Z,,0,2,,3050.272999988083,response,ISIC_5108076.JPG,10,ISIC_1920685.JPG,ISIC_1920685.JPG,false,0,keypress(z),500,242590,242589.69999998808,239522.848,239527.80000001192,239539.427,242603.715,8,400,6,,ISIC_5108076.JPG
break,html.Screen,4_55_1,2023-11-06T18:55:13.698Z,,0,,,NaN,,,,,,false,,,,242591.30000001192,242590.80000001192,,242590.19999998808,,242603.715,8,400,,,
break_continue,html.Screen,4_55_2,2023-11-06T18:55:13.698Z,,0,,,NaN,,,,,,false,,,,242591.69999998808,242591.59999996424,,242591.39999997616,,242603.715,8,400,,,
sequence,flow.Sequence,4_55,2023-11-06T18:55:13.698Z,,0,,,3052.172999964241,completion,,,,,false,,,,242591.80000001192,242591.59999996424,239522.848,239527.69999998808,239539.427,242603.715,8,400,,,
trial,html.Screen,4_56_0,2023-11-06T18:55:16.422Z,,0,2,,2711.2850000000035,response,ISIC_9767255.JPG,3,ISIC_1949126.JPG,ISIC_1949126.JPG,false,0,keypress(z),500,245315.30000001192,245315,242587.185,242591.89999997616,242603.715,245339.337,8,400,7,,ISIC_9767255.JPG
break,html.Screen,4_56_1,2023-11-06T18:55:16.423Z,,0,,,NaN,,,,,,false,,,,245316.5,245316.19999998808,,245315.59999996424,,245339.337,8,400,,,
break_continue,html.Screen,4_56_2,2023-11-06T18:55:16.423Z,,0,,,NaN,,,,,,false,,,,245316.89999997616,245316.80000001192,,245316.59999996424,,245339.337,8,400,,,
sequence,flow.Sequence,4_56,2023-11-06T18:55:16.423Z,,0,,,2713.0850000119244,completion,,,,,false,,,,245316.89999997616,245316.80000001192,242587.185,242591.89999997616,242603.715,245339.337,8,400,,,
trial,html.Screen,4_57_0,2023-11-06T18:55:19.439Z,,0,2,,2992.8629999880795,response,ISIC_0033689.JPG,11,ISIC_0033073.JPG,ISIC_0033073.JPG,false,0,keypress(z),500,248332.89999997616,248332.19999998808,245301.353,245317,245339.337,248347.681,8,400,8,,ISIC_0033689.JPG
break,html.Screen,4_57_1,2023-11-06T18:55:19.440Z,,0,,,NaN,,,,,,false,,,,248334,248333.80000001192,,248333.09999996424,,248347.681,8,400,,,
break_continue,html.Screen,4_57_2,2023-11-06T18:55:19.441Z,,0,,,NaN,,,,,,false,,,,248334.19999998808,248334.19999998808,,248334.09999996424,,248347.681,8,400,,,
sequence,flow.Sequence,4_57,2023-11-06T18:55:19.441Z,,0,,,2994.8629999880795,completion,,,,,false,,,,248334.39999997616,248334.19999998808,245301.353,245317,245339.337,248347.681,8,400,,,
trial,html.Screen,4_58_0,2023-11-06T18:55:21.895Z,,0,2,,2440.2189999761467,response,ISIC_2521424.JPG,23,ISIC_0011628.JPG,ISIC_0011628.JPG,false,0,keypress(z),500,250788.19999998808,250787.89999997616,248331.214,248334.5,248347.681,250795.955,8,400,9,,ISIC_2521424.JPG
break,html.Screen,4_58_1,2023-11-06T18:55:21.895Z,,0,,,NaN,,,,,,false,,,,250789.09999996424,250788.80000001192,,250788.39999997616,,250795.955,8,400,,,
break_continue,html.Screen,4_58_2,2023-11-06T18:55:21.896Z,,0,,,NaN,,,,,,false,,,,250789.5,250789.39999997616,,250789.30000001192,,250795.955,8,400,,,
sequence,flow.Sequence,4_58,2023-11-06T18:55:21.896Z,,0,,,2441.7189999761467,completion,,,,,false,,,,250789.59999996424,250789.39999997616,248331.214,248334.5,248347.681,250795.955,8,400,,,
trial,html.Screen,4_59_0,2023-11-06T18:55:24.798Z,,0,2,,2894.944999976171,response,ISIC_6745554.JPG,5,ISIC_0027193.JPG,ISIC_6745554.JPG,false,1,keypress(m),500,253691.19999998808,253690.89999997616,250778.923,250789.69999998808,250795.955,253693.547,8,400,10,,ISIC_0027193.JPG
break,html.Screen,4_59_1,2023-11-06T18:55:24.798Z,,0,,,NaN,,,,,,false,,,,253692.09999996424,253691.69999998808,,253691.39999997616,,253693.547,8,400,,,
break_continue,html.Screen,4_59_2,2023-11-06T18:55:24.799Z,,0,,,NaN,,,,,,false,,,,253692.39999997616,253692.30000001192,,253692.19999998808,,253693.547,8,400,,,
sequence,flow.Sequence,4_59,2023-11-06T18:55:24.799Z,,0,,,2896.3450000119337,completion,,,,,false,,,,253692.59999996424,253692.30000001192,250778.923,250789.69999998808,250795.955,253693.547,8,400,,,
trial,html.Screen,4_60_0,2023-11-06T18:55:27.522Z,,0,2,,2722.2530000119295,response,ISIC_1720840.JPG,10,ISIC_1508215.JPG,ISIC_1720840.JPG,false,1,keypress(m),500,256416.09999996424,256415.80000001192,253676.12,253692.80000001192,253693.547,256423.342,8,400,11,,ISIC_1508215.JPG
break,html.Screen,4_60_1,2023-11-06T18:55:27.524Z,,0,,,NaN,,,,,,false,,,,256417.19999998808,256416.80000001192,,256416.30000001192,,256423.342,8,400,,,
break_continue,html.Screen,4_60_2,2023-11-06T18:55:27.524Z,,0,,,NaN,,,,,,false,,,,256417.80000001192,256417.5,,256417.30000001192,,256423.342,8,400,,,
sequence,flow.Sequence,4_60,2023-11-06T18:55:27.524Z,,0,,,2723.9530000000086,completion,,,,,false,,,,256417.89999997616,256417.5,253676.12,253692.69999998808,253693.547,256423.342,8,400,,,
trial,html.Screen,4_61_0,2023-11-06T18:55:30.494Z,,0,2,,2963.557999976154,response,ISIC_0057344.JPG,7,ISIC_0010933.JPG,ISIC_0010933.JPG,false,0,keypress(z),500,259387.30000001192,259386.89999997616,256407.024,256418,256423.342,259403.919,8,400,12,,ISIC_0057344.JPG
break,html.Screen,4_61_1,2023-11-06T18:55:30.495Z,,0,,,NaN,,,,,,false,,,,259388.59999996424,259388.09999996424,,259387.5,,259403.919,8,400,,,
break_continue,html.Screen,4_61_2,2023-11-06T18:55:30.495Z,,0,,,NaN,,,,,,false,,,,259388.80000001192,259388.69999998808,,259388.69999998808,,259403.919,8,400,,,
sequence,flow.Sequence,4_61,2023-11-06T18:55:30.495Z,,0,,,2965.357999988075,completion,,,,,false,,,,259389,259388.69999998808,256407.024,256418,256423.342,259403.919,8,400,,,
trial,html.Screen,4_62_0,2023-11-06T18:55:33.059Z,,0,2,,2548.2809999880847,response,ISIC_3272999.JPG,6,ISIC_0011198.JPG,ISIC_3272999.JPG,false,1,keypress(m),500,261952.5,261952.19999998808,259387.354,259389,259403.919,261968.088,8,400,13,,ISIC_0011198.JPG
break,html.Screen,4_62_1,2023-11-06T18:55:33.060Z,,0,,,NaN,,,,,,false,,,,261953.5,261953.30000001192,,261952.69999998808,,261968.088,8,400,,,
break_continue,html.Screen,4_62_2,2023-11-06T18:55:33.060Z,,0,,,NaN,,,,,,false,,,,261953.80000001192,261953.69999998808,,261953.69999998808,,261968.088,8,400,,,
sequence,flow.Sequence,4_62,2023-11-06T18:55:33.060Z,,0,,,2549.7809999880847,completion,,,,,false,,,,261954,261953.69999998808,259387.354,259389,259403.919,261968.088,8,400,,,
trial,html.Screen,4_63_0,2023-11-06T18:55:35.645Z,,0,2,,2570.712000011932,response,ISIC_8073555.JPG,9,ISIC_0027327.JPG,ISIC_0027327.JPG,false,0,keypress(z),500,264539.09999996424,264538.8000000119,261951.702,261954,261968.088,264548.915,8,400,14,,ISIC_8073555.JPG
break,html.Screen,4_63_1,2023-11-06T18:55:35.647Z,,0,,,NaN,,,,,,false,,,,264540.1999999881,264539.89999997616,,264539.3000000119,,264548.915,8,400,,,
break_continue,html.Screen,4_63_2,2023-11-06T18:55:35.647Z,,0,,,NaN,,,,,,false,,,,264540.8000000119,264540.5,,264540.39999997616,,264548.915,8,400,,,
sequence,flow.Sequence,4_63,2023-11-06T18:55:35.647Z,,0,,,2572.412000000011,completion,,,,,false,,,,264541,264540.5,261951.702,261954,261968.088,264548.915,8,400,,,
trial,html.Screen,4_64_0,2023-11-06T18:55:38.133Z,,0,2,,2477.2849999881,response,ISIC_5021861.JPG,11,ISIC_8140072.JPG,ISIC_8140072.JPG,false,0,keypress(z),500,267026.39999997616,267026.1999999881,264532.622,264541.09999996424,264548.915,267029.923,8,400,15,,ISIC_5021861.JPG
break,html.Screen,4_64_1,2023-11-06T18:55:38.134Z,,0,,,NaN,,,,,,false,,,,267027.3000000119,267027.09999996424,,267026.5,,267029.923,8,400,,,
break_continue,html.Screen,4_64_2,2023-11-06T18:55:38.134Z,,0,,,NaN,,,,,,false,,,,267027.6999999881,267027.59999996424,,267027.39999997616,,267029.923,8,400,,,
sequence,flow.Sequence,4_64,2023-11-06T18:55:38.134Z,,0,,,2478.684999964258,completion,,,,,false,,,,267027.89999997616,267027.59999996424,264532.622,264541.09999996424,264548.915,267029.923,8,400,,,
trial,html.Screen,4_65_0,2023-11-06T18:55:40.889Z,,0,2,,2752.7769999880693,response,ISIC_1470245.JPG,6,ISIC_3463156.JPG,ISIC_1470245.JPG,false,1,keypress(m),500,269782.89999997616,269782.6999999881,267013.617,267028,267029.923,269793.916,8,400,16,,ISIC_3463156.JPG
break,html.Screen,4_65_1,2023-11-06T18:55:40.890Z,,0,,,NaN,,,,,,false,,,,269783.89999997616,269783.59999996424,,269783,,269793.916,8,400,,,
break_continue,html.Screen,4_65_2,2023-11-06T18:55:40.891Z,,0,,,NaN,,,,,,false,,,,269784.39999997616,269784.3000000119,,269784.09999996424,,269793.916,8,400,,,
sequence,flow.Sequence,4_65,2023-11-06T18:55:40.891Z,,0,,,2754.377000011911,completion,,,,,false,,,,269784.59999996424,269784.3000000119,267013.617,267028,267029.923,269793.916,8,400,,,
trial,html.Screen,4_66_0,2023-11-06T18:55:43.408Z,,0,2,,2507.2839999880525,response,ISIC_7973601.JPG,11,ISIC_0025759.JPG,ISIC_0025759.JPG,false,0,keypress(z),500,272301.5,272301.1999999881,269777.382,269784.6999999881,269793.916,272309.415,8,400,17,,ISIC_7973601.JPG
break,html.Screen,4_66_1,2023-11-06T18:55:43.409Z,,0,,,NaN,,,,,,false,,,,272303,272302.8000000119,,272302,,272309.415,8,400,,,
break_continue,html.Screen,4_66_2,2023-11-06T18:55:43.410Z,,0,,,NaN,,,,,,false,,,,272303.39999997616,272303.3000000119,,272303.09999996424,,272309.415,8,400,,,
sequence,flow.Sequence,4_66,2023-11-06T18:55:43.410Z,,0,,,2509.3840000118944,completion,,,,,false,,,,272303.39999997616,272303.3000000119,269777.382,269784.6999999881,269793.916,272309.415,8,400,,,
trial,html.Screen,4_67_0,2023-11-06T18:55:46.138Z,,0,2,,2722.2849999881,response,ISIC_4536709.JPG,5,ISIC_9324486.JPG,ISIC_4536709.JPG,false,1,keypress(m),500,275031.89999997616,275031.6999999881,272292.206,272303.5,272309.415,275039.235,8,400,18,,ISIC_9324486.JPG
break,html.Screen,4_67_1,2023-11-06T18:55:46.139Z,,0,,,NaN,,,,,,false,,,,275033.09999996424,275032.8000000119,,275032.09999996424,,275039.235,8,400,,,
break_continue,html.Screen,4_67_2,2023-11-06T18:55:46.140Z,,0,,,NaN,,,,,,false,,,,275033.39999997616,275033.3000000119,,275033.1999999881,,275039.235,8,400,,,
sequence,flow.Sequence,4_67,2023-11-06T18:55:46.140Z,,0,,,2723.885000011942,completion,,,,,false,,,,275033.59999996424,275033.3000000119,272292.206,272303.5,272309.415,275039.235,8,400,,,
trial,html.Screen,4_68_0,2023-11-06T18:55:49.150Z,,0,2,,3004.265000000014,response,ISIC_0032509.JPG,4,ISIC_9933790.JPG,ISIC_0032509.JPG,false,1,keypress(m),500,278043.6999999881,278043.5,275022.359,275033.6999999881,275039.235,278070.13,8,400,19,,ISIC_9933790.JPG
break,html.Screen,4_68_1,2023-11-06T18:55:49.151Z,,0,,,NaN,,,,,,false,,,,278044.39999997616,278044.1999999881,,278043.8000000119,,278070.13,8,400,,,
break_continue,html.Screen,4_68_2,2023-11-06T18:55:49.151Z,,0,,,NaN,,,,,,false,,,,278044.59999996424,278044.5,,278044.39999997616,,278070.13,8,400,,,
sequence,flow.Sequence,4_68,2023-11-06T18:55:49.151Z,,0,,,3005.265000000014,completion,,,,,false,,,,278044.59999996424,278044.5,275022.359,275033.59999996424,275039.235,278070.13,8,400,,,
trial,html.Screen,4_69_0,2023-11-06T18:55:51.766Z,,0,2,,2589.5699999880744,response,ISIC_6891226.JPG,5,ISIC_9983696.JPG,ISIC_9983696.JPG,false,0,keypress(z),500,280659.89999997616,280659.6999999881,278052.892,278044.6999999881,278070.13,280667.037,8,400,20,,ISIC_6891226.JPG
break,html.Screen,4_69_1,2023-11-06T18:55:51.767Z,,0,,,NaN,,,,,,false,,,,280660.89999997616,280660.59999996424,,280660.09999996424,,280667.037,8,400,,,
break_continue,html.Screen,4_69_2,2023-11-06T18:55:51.768Z,,0,,,NaN,,,,,,false,,,,280661.8000000119,280661.59999996424,,280661.09999996424,,280667.037,8,400,,,
sequence,flow.Sequence,4_69,2023-11-06T18:55:51.768Z,,0,,,2591.4699999642326,completion,,,,,false,,,,280661.89999997616,280661.59999996424,278052.892,278044.6999999881,278070.13,280667.037,8,400,,,
trial,html.Screen,4_70_0,2023-11-06T18:55:54.686Z,,0,2,,2912.062999964226,response,ISIC_0025619.JPG,8,ISIC_7776719.JPG,ISIC_0025619.JPG,false,1,keypress(m),500,283579.39999997616,283579.09999996424,280650.455,280662,280667.037,283603.746,8,400,21,,ISIC_7776719.JPG
break,html.Screen,4_70_1,2023-11-06T18:55:54.687Z,,0,,,NaN,,,,,,false,,,,283580.1999999881,283580.09999996424,,283579.5,,283603.746,8,400,,,
break_continue,html.Screen,4_70_2,2023-11-06T18:55:54.687Z,,0,,,NaN,,,,,,false,,,,283580.59999996424,283580.5,,283580.39999997616,,283603.746,8,400,,,
sequence,flow.Sequence,4_70,2023-11-06T18:55:54.687Z,,0,,,2913.462999999989,completion,,,,,false,,,,283580.6999999881,283580.5,280650.455,280662,280667.037,283603.746,8,400,,,
trial,html.Screen,4_71_0,2023-11-06T18:55:57.203Z,,0,2,,2492.6539999761735,response,ISIC_0030889.JPG,11,ISIC_0015436.JPG,ISIC_0015436.JPG,false,0,keypress(z),500,286096.8000000119,286096.39999997616,283564.27,283580.8000000119,283603.746,286144.186,8,400,22,,ISIC_0030889.JPG
break,html.Screen,4_71_1,2023-11-06T18:55:57.204Z,,0,,,NaN,,,,,,false,,,,286097.8000000119,286097.59999996424,,286096.89999997616,,286144.186,8,400,,,
break_continue,html.Screen,4_71_2,2023-11-06T18:55:57.204Z,,0,,,NaN,,,,,,false,,,,286098.09999996424,286098,,286097.8000000119,,286144.186,8,400,,,
sequence,flow.Sequence,4_71,2023-11-06T18:55:57.205Z,,0,,,2494.2540000000154,completion,,,,,false,,,,286098.3000000119,286098,283564.27,283580.8000000119,283603.746,286144.186,8,400,,,
trial,html.Screen,4_72_0,2023-11-06T18:55:59.726Z,,0,2,,2474.814000000013,response,ISIC_9829436.JPG,9,ISIC_4084359.JPG,ISIC_4084359.JPG,false,0,keypress(z),500,288619.1999999881,288619,286095.459,286098.3000000119,286144.186,288625.982,8,400,23,,ISIC_9829436.JPG
break,html.Screen,4_72_1,2023-11-06T18:55:59.727Z,,0,,,NaN,,,,,,false,,,,288620.3000000119,288620,,288619.5,,288625.982,8,400,,,
break_continue,html.Screen,4_72_2,2023-11-06T18:55:59.727Z,,0,,,NaN,,,,,,false,,,,288620.6999999881,288620.59999996424,,288620.5,,288625.982,8,400,,,
sequence,flow.Sequence,4_72,2023-11-06T18:55:59.727Z,,0,,,2476.4139999642503,completion,,,,,false,,,,288620.89999997616,288620.59999996424,286095.459,286098.3000000119,286144.186,288625.982,8,400,,,
trial,html.Screen,4_73_0,2023-11-06T18:56:02.260Z,,0,2,,2527.217999988061,response,ISIC_6618652.JPG,12,ISIC_1926656.JPG,ISIC_1926656.JPG,false,0,keypress(z),500,291153.39999997616,291153.1999999881,288609.532,288621,288625.982,291156.913,8,400,24,,ISIC_6618652.JPG
break,html.Screen,4_73_1,2023-11-06T18:56:02.261Z,,0,,,NaN,,,,,,false,,,,291154.1999999881,291154.09999996424,,291153.59999996424,,291156.913,8,400,,,
break_continue,html.Screen,4_73_2,2023-11-06T18:56:02.261Z,,0,,,NaN,,,,,,false,,,,291154.59999996424,291154.39999997616,,291154.39999997616,,291156.913,8,400,,,
sequence,flow.Sequence,4_73,2023-11-06T18:56:02.261Z,,0,,,2528.41799997614,completion,,,,,false,,,,291154.59999996424,291154.39999997616,288609.532,288620.89999997616,288625.982,291156.913,8,400,,,
trial,html.Screen,4_74_0,2023-11-06T18:56:05.127Z,,0,2,,2863.3870000119205,response,ISIC_2945891.JPG,7,ISIC_6806124.JPG,ISIC_2945891.JPG,false,1,keypress(m),500,294020.5,294020.3000000119,291140.476,291154.8000000119,291156.913,294037.551,8,400,25,,ISIC_6806124.JPG
break,html.Screen,4_74_1,2023-11-06T18:56:05.128Z,,0,,,NaN,,,,,,false,,,,294021.1999999881,294021,,294020.59999996424,,294037.551,8,400,,,
break_continue,html.Screen,4_74_2,2023-11-06T18:56:05.128Z,,0,,,NaN,,,,,,false,,,,294021.59999996424,294021.39999997616,,294021.3000000119,,294037.551,8,400,,,
sequence,flow.Sequence,4_74,2023-11-06T18:56:05.128Z,,0,,,2864.4869999761577,completion,,,,,false,,,,294021.59999996424,294021.39999997616,291140.476,291154.8000000119,291156.913,294037.551,8,400,,,
trial,html.Screen,4_75_0,2023-11-06T18:56:07.792Z,,0,2,,2648.3489999761805,response,ISIC_1912589.JPG,11,ISIC_0817654.JPG,ISIC_1912589.JPG,false,1,keypress(m),500,296686,296685.89999997616,294020.977,294021.6999999881,294037.551,296701.69,8,400,26,,ISIC_0817654.JPG
break,html.Screen,4_75_1,2023-11-06T18:56:07.793Z,,0,,,NaN,,,,,,false,,,,296686.6999999881,296686.5,,296686.09999996424,,296701.69,8,400,,,
break_continue,html.Screen,4_75_2,2023-11-06T18:56:07.793Z,,0,,,NaN,,,,,,false,,,,296687.09999996424,296687,,296686.89999997616,,296701.69,8,400,,,
sequence,flow.Sequence,4_75,2023-11-06T18:56:07.794Z,,0,,,2649.4490000000224,completion,,,,,false,,,,296687.3000000119,296687,294020.977,294021.59999996424,294037.551,296701.69,8,400,,,
trial,html.Screen,4_76_0,2023-11-06T18:56:10.324Z,,0,2,,2515.709999976156,response,ISIC_0010648.JPG,11,ISIC_9895436.JPG,ISIC_0010648.JPG,false,1,keypress(m),500,299217.59999996424,299217.39999997616,296684.786,296687.39999997616,296701.69,299232.952,8,400,27,,ISIC_9895436.JPG
break,html.Screen,4_76_1,2023-11-06T18:56:10.325Z,,0,,,NaN,,,,,,false,,,,299218.89999997616,299218.39999997616,,299217.8000000119,,299232.952,8,400,,,
break_continue,html.Screen,4_76_2,2023-11-06T18:56:10.326Z,,0,,,NaN,,,,,,false,,,,299219.3000000119,299219.1999999881,,299219,,299232.952,8,400,,,
sequence,flow.Sequence,4_76,2023-11-06T18:56:10.326Z,,0,,,2517.5099999880767,completion,,,,,false,,,,299219.5,299219.1999999881,296684.786,296687.3000000119,296701.69,299232.952,8,400,,,
trial,html.Screen,4_77_0,2023-11-06T18:56:12.846Z,,0,2,,2505.8480000119307,response,ISIC_9350507.JPG,8,ISIC_0028114.JPG,ISIC_0028114.JPG,false,0,keypress(z),500,301739.09999996424,301738.8000000119,299216.189,299219.59999996424,299232.952,301747.165,8,400,28,,ISIC_9350507.JPG
break,html.Screen,4_77_1,2023-11-06T18:56:12.847Z,,0,,,NaN,,,,,,false,,,,301740.39999997616,301740.1999999881,,301739.3000000119,,301747.165,8,400,,,
break_continue,html.Screen,4_77_2,2023-11-06T18:56:12.847Z,,0,,,NaN,,,,,,false,,,,301740.6999999881,301740.59999996424,,301740.5,,301747.165,8,400,,,
sequence,flow.Sequence,4_77,2023-11-06T18:56:12.847Z,,0,,,2507.647999964247,completion,,,,,false,,,,301740.8000000119,301740.59999996424,299216.189,299219.5,299232.952,301747.165,8,400,,,
trial,html.Screen,4_78_0,2023-11-06T18:56:15.495Z,,0,2,,2641.434999964258,response,ISIC_0013059.JPG,8,ISIC_4494516.JPG,ISIC_0013059.JPG,false,1,keypress(m),500,304388.89999997616,304388.59999996424,301731.619,301740.89999997616,301747.165,304395.281,8,400,29,,ISIC_4494516.JPG
break,html.Screen,4_78_1,2023-11-06T18:56:15.496Z,,0,,,NaN,,,,,,false,,,,304389.6999999881,304389.59999996424,,304389,,304395.281,8,400,,,
break_continue,html.Screen,4_78_2,2023-11-06T18:56:15.496Z,,0,,,NaN,,,,,,false,,,,304390,304390,,304389.89999997616,,304395.281,8,400,,,
sequence,flow.Sequence,4_78,2023-11-06T18:56:15.497Z,,0,,,2642.835000000021,completion,,,,,false,,,,304390.1999999881,304390,301731.619,301740.8000000119,301747.165,304395.281,8,400,,,
trial,html.Screen,4_79_0,2023-11-06T18:56:18.075Z,,0,2,,2572.418999988062,response,ISIC_4876378.JPG,6,ISIC_6697332.JPG,ISIC_4876378.JPG,false,1,keypress(m),500,306968.3000000119,306967.6999999881,304378.344,304390.3000000119,304395.281,306975.212,8,400,30,,ISIC_6697332.JPG
break,html.Screen,4_79_1,2023-11-06T18:56:18.076Z,,0,,,NaN,,,,,,false,,,,306969.39999997616,306969.09999996424,,306968.5,,306975.212,8,400,,,
break_continue,html.Screen,4_79_2,2023-11-06T18:56:18.076Z,,0,,,NaN,,,,,,false,,,,306969.6999999881,306969.59999996424,,306969.5,,306975.212,8,400,,,
sequence,flow.Sequence,4_79,2023-11-06T18:56:18.076Z,,0,,,2574.31899996422,completion,,,,,false,,,,306969.8000000119,306969.59999996424,304378.344,304390.1999999881,304395.281,306975.212,8,400,,,
trial,html.Screen,4_80_0,2023-11-06T18:56:20.625Z,,0,2,,2543.2880000000005,response,ISIC_0591011.JPG,9,ISIC_5859812.JPG,ISIC_5859812.JPG,false,0,keypress(z),500,309518.8000000119,309518.5,306958.472,306969.89999997616,306975.212,309522.83,8,400,31,,ISIC_0591011.JPG
break,html.Screen,4_80_1,2023-11-06T18:56:20.626Z,,0,,,NaN,,,,,,false,,,,309520,309519.5,,309519,,309522.83,8,400,,,
break_continue,html.Screen,4_80_2,2023-11-06T18:56:20.627Z,,0,,,NaN,,,,,,false,,,,309520.39999997616,309520.3000000119,,309520.1999999881,,309522.83,8,400,,,
sequence,flow.Sequence,4_80,2023-11-06T18:56:20.627Z,,0,,,2545.0880000119214,completion,,,,,false,,,,309520.59999996424,309520.3000000119,306958.472,306969.89999997616,306975.212,309522.83,8,400,,,
trial,html.Screen,4_81_0,2023-11-06T18:56:23.208Z,,0,2,,2578.1699999999837,response,ISIC_5498651.JPG,12,ISIC_4569077.JPG,ISIC_4569077.JPG,false,0,keypress(z),500,312101.39999997616,312101,309506.735,309520.59999996424,309522.83,312104.52,8,400,32,,ISIC_5498651.JPG
break,html.Screen,4_81_1,2023-11-06T18:56:23.209Z,,0,,,NaN,,,,,,false,,,,312103,312102.6999999881,,312101.59999996424,,312104.52,8,400,,,
break_continue,html.Screen,4_81_2,2023-11-06T18:56:23.210Z,,0,,,NaN,,,,,,false,,,,312103.5,312103.3000000119,,312103.1999999881,,312104.52,8,400,,,
sequence,flow.Sequence,4_81,2023-11-06T18:56:23.210Z,,0,,,2580.4700000119046,completion,,,,,false,,,,312103.6999999881,312103.3000000119,309506.735,309520.59999996424,309522.83,312104.52,8,400,,,
trial,html.Screen,4_82_0,2023-11-06T18:56:26.173Z,,0,2,,2961.9799999999814,response,ISIC_0056860.JPG,7,ISIC_9226193.JPG,ISIC_0056860.JPG,false,1,keypress(m),500,315066.6999999881,315066.5,312087.193,312103.8000000119,312104.52,315084.168,8,400,33,,ISIC_9226193.JPG
break,html.Screen,4_82_1,2023-11-06T18:56:26.174Z,,0,,,NaN,,,,,,false,,,,315067.89999997616,315067.5,,315067,,315084.168,8,400,,,
break_continue,html.Screen,4_82_2,2023-11-06T18:56:26.175Z,,0,,,NaN,,,,,,false,,,,315068.09999996424,315068,,315068,,315084.168,8,400,,,
sequence,flow.Sequence,4_82,2023-11-06T18:56:26.175Z,,0,,,2963.4799999999814,completion,,,,,false,,,,315068.1999999881,315068,312087.193,312103.8000000119,312104.52,315084.168,8,400,,,
trial,html.Screen,4_83_0,2023-11-06T18:56:28.819Z,,0,2,,2628.331999999995,response,ISIC_0056915.JPG,8,ISIC_4764568.JPG,ISIC_0056915.JPG,false,1,keypress(m),500,317712.89999997616,317712.5,315051.812,315068.3000000119,315084.168,317717.418,8,400,34,,ISIC_4764568.JPG
break,html.Screen,4_83_1,2023-11-06T18:56:28.821Z,,0,,,NaN,,,,,,false,,,,317714.1999999881,317713.8000000119,,317713.09999996424,,317717.418,8,400,,,
break_continue,html.Screen,4_83_2,2023-11-06T18:56:28.821Z,,0,,,NaN,,,,,,false,,,,317714.59999996424,317714.5,,317714.3000000119,,317717.418,8,400,,,
sequence,flow.Sequence,4_83,2023-11-06T18:56:28.821Z,,0,,,2630.331999999995,completion,,,,,false,,,,317714.6999999881,317714.5,315051.812,315068.3000000119,315084.168,317717.418,8,400,,,
trial,html.Screen,4_84_0,2023-11-06T18:56:31.489Z,,0,2,,2664.981999976153,response,ISIC_0013364.JPG,5,ISIC_7935007.JPG,ISIC_7935007.JPG,false,0,keypress(z),500,320382.59999996424,320382.39999997616,317699.163,317714.8000000119,317717.418,320395.74,8,400,35,,ISIC_0013364.JPG
break,html.Screen,4_84_1,2023-11-06T18:56:31.490Z,,0,,,NaN,,,,,,false,,,,320383.5,320383.09999996424,,320382.6999999881,,320395.74,8,400,,,
break_continue,html.Screen,4_84_2,2023-11-06T18:56:31.490Z,,0,,,NaN,,,,,,false,,,,320383.6999999881,320383.59999996424,,320383.59999996424,,320395.74,8,400,,,
sequence,flow.Sequence,4_84,2023-11-06T18:56:31.490Z,,0,,,2666.181999964232,completion,,,,,false,,,,320383.89999997616,320383.59999996424,317699.163,317714.8000000119,317717.418,320395.74,8,400,,,
trial,html.Screen,4_85_0,2023-11-06T18:56:34.057Z,,0,2,,2554.3599999642465,response,ISIC_0011305.JPG,12,ISIC_0438136.JPG,ISIC_0011305.JPG,false,1,keypress(m),500,322950.3000000119,322950.09999996424,320372.587,320383.89999997616,320395.74,322960.014,8,400,36,,ISIC_0438136.JPG
break,html.Screen,4_85_1,2023-11-06T18:56:34.058Z,,0,,,NaN,,,,,,false,,,,322951.1999999881,322951,,322950.5,,322960.014,8,400,,,
break_continue,html.Screen,4_85_2,2023-11-06T18:56:34.058Z,,0,,,NaN,,,,,,false,,,,322951.6999999881,322951.39999997616,,322951.3000000119,,322960.014,8,400,,,
sequence,flow.Sequence,4_85,2023-11-06T18:56:34.058Z,,0,,,2555.6599999761675,completion,,,,,false,,,,322951.8000000119,322951.39999997616,320372.587,320383.89999997616,320395.74,322960.014,8,400,,,
trial,html.Screen,4_86_0,2023-11-06T18:56:36.626Z,,0,2,,2558.8859999761335,response,ISIC_7418723.JPG,10,ISIC_1886756.JPG,ISIC_1886756.JPG,false,0,keypress(z),500,325519.1999999881,325518.89999997616,322944.246,322952,322960.014,325524.276,8,400,37,,ISIC_7418723.JPG
break,html.Screen,4_86_1,2023-11-06T18:56:36.626Z,,0,,,NaN,,,,,,false,,,,325520,325519.8000000119,,325519.39999997616,,325524.276,8,400,,,
break_continue,html.Screen,4_86_2,2023-11-06T18:56:36.627Z,,0,,,NaN,,,,,,false,,,,325520.3000000119,325520.1999999881,,325520.09999996424,,325524.276,8,400,,,
sequence,flow.Sequence,4_86,2023-11-06T18:56:36.627Z,,0,,,2560.1859999880544,completion,,,,,false,,,,325520.5,325520.1999999881,322944.246,322951.89999997616,322960.014,325524.276,8,400,,,
trial,html.Screen,4_87_0,2023-11-06T18:56:39.111Z,,0,2,,2480.3239999642246,response,ISIC_4973549.JPG,9,ISIC_9820910.JPG,ISIC_9820910.JPG,false,0,keypress(z),500,328004.89999997616,328004.59999996424,325508.436,325520.59999996424,325524.276,328021.836,8,400,38,,ISIC_4973549.JPG
break,html.Screen,4_87_1,2023-11-06T18:56:39.112Z,,0,,,NaN,,,,,,false,,,,328005.59999996424,328005.5,,328005,,328021.836,8,400,,,
break_continue,html.Screen,4_87_2,2023-11-06T18:56:39.112Z,,0,,,NaN,,,,,,false,,,,328005.89999997616,328005.8000000119,,328005.6999999881,,328021.836,8,400,,,
sequence,flow.Sequence,4_87,2023-11-06T18:56:39.113Z,,0,,,2481.5240000119084,completion,,,,,false,,,,328006.3000000119,328005.8000000119,325508.436,325520.5,325524.276,328021.836,8,400,,,
trial,html.Screen,4_88_0,2023-11-06T18:56:41.809Z,,0,2,,2680.563999976148,response,ISIC_7233368.JPG,10,ISIC_0000394.JPG,ISIC_7233368.JPG,false,1,keypress(m),500,330702.8000000119,330702.39999997616,328005.793,328006.39999997616,328021.836,330719.405,8,400,39,,ISIC_0000394.JPG
break,html.Screen,4_88_1,2023-11-06T18:56:41.810Z,,0,,,NaN,,,,,,false,,,,330704,330703.89999997616,,330703.09999996424,,330719.405,8,400,,,
break_continue,html.Screen,4_88_2,2023-11-06T18:56:41.811Z,,0,,,NaN,,,,,,false,,,,330704.39999997616,330704.3000000119,,330704.09999996424,,330719.405,8,400,,,
sequence,flow.Sequence,4_88,2023-11-06T18:56:41.811Z,,0,,,2682.4640000119107,completion,,,,,false,,,,330704.5,330704.3000000119,328005.793,328006.39999997616,328021.836,330719.405,8,400,,,
trial,html.Screen,4_89_0,2023-11-06T18:56:44.487Z,,0,2,,2661.395000011893,response,ISIC_7988794.JPG,8,ISIC_0029639.JPG,ISIC_0029639.JPG,false,0,keypress(z),500,333381,333380.8000000119,330689.871,330704.59999996424,330719.405,333383.395,8,400,40,,ISIC_7988794.JPG
break,html.Screen,4_89_1,2023-11-06T18:56:44.488Z,,0,,,NaN,,,,,,false,,,,333381.89999997616,333381.8000000119,,333381.09999996424,,333383.395,8,400,,,
break_continue,html.Screen,4_89_2,2023-11-06T18:56:44.489Z,,0,,,NaN,,,,,,false,,,,333382.1999999881,333382.09999996424,,333382,,333383.395,8,400,,,
sequence,flow.Sequence,4_89,2023-11-06T18:56:44.489Z,,0,,,2662.6949999642093,completion,,,,,false,,,,333382.39999997616,333382.09999996424,330689.871,330704.59999996424,330719.405,333383.395,8,400,,,
trial,html.Screen,4_90_0,2023-11-06T18:56:47.024Z,,0,2,,2533.6049999999814,response,ISIC_1654342.JPG,6,ISIC_3222447.JPG,ISIC_1654342.JPG,false,1,keypress(m),500,335917.5,335917,333367.598,333382.39999997616,333383.395,335930.936,8,400,41,,ISIC_3222447.JPG
break,html.Screen,4_90_1,2023-11-06T18:56:47.025Z,,0,,,NaN,,,,,,false,,,,335918.8000000119,335918.5,,335917.8000000119,,335930.936,8,400,,,
break_continue,html.Screen,4_90_2,2023-11-06T18:56:47.026Z,,0,,,NaN,,,,,,false,,,,335919.1999999881,335919.09999996424,,335919,,335930.936,8,400,,,
sequence,flow.Sequence,4_90,2023-11-06T18:56:47.026Z,,0,,,2535.7049999642186,completion,,,,,false,,,,335919.39999997616,335919.09999996424,333367.598,333382.39999997616,333383.395,335930.936,8,400,,,
trial,html.Screen,4_91_0,2023-11-06T18:56:49.450Z,,0,2,,2412.564000000013,response,ISIC_0523125.JPG,13,ISIC_7875088.JPG,ISIC_7875088.JPG,false,0,keypress(z),500,338343.8000000119,338343.5,335914.487,335919.5,335930.936,338368.134,8,400,42,,ISIC_0523125.JPG
break,html.Screen,4_91_1,2023-11-06T18:56:49.451Z,,0,,,NaN,,,,,,false,,,,338344.8000000119,338344.59999996424,,338344,,338368.134,8,400,,,
break_continue,html.Screen,4_91_2,2023-11-06T18:56:49.452Z,,0,,,NaN,,,,,,false,,,,338345.09999996424,338345,,338344.89999997616,,338368.134,8,400,,,
sequence,flow.Sequence,4_91,2023-11-06T18:56:49.452Z,,0,,,2414.064000000013,completion,,,,,false,,,,338345.1999999881,338345,335914.487,335919.5,335930.936,338368.134,8,400,,,
trial,html.Screen,4_92_0,2023-11-06T18:56:51.953Z,,0,2,,2478.166000011901,response,ISIC_1114966.JPG,12,ISIC_1438269.JPG,ISIC_1114966.JPG,false,1,keypress(m),500,340846.59999996424,340846.3000000119,338329.352,338345.1999999881,338368.134,340859.964,8,400,43,,ISIC_1438269.JPG
break,html.Screen,4_92_1,2023-11-06T18:56:51.954Z,,0,,,NaN,,,,,,false,,,,340847.59999996424,340847.39999997616,,340846.8000000119,,340859.964,8,400,,,
break_continue,html.Screen,4_92_2,2023-11-06T18:56:51.954Z,,0,,,NaN,,,,,,false,,,,340847.89999997616,340847.8000000119,,340847.6999999881,,340859.964,8,400,,,
sequence,flow.Sequence,4_92,2023-11-06T18:56:51.954Z,,0,,,2479.666000011901,completion,,,,,false,,,,340848,340847.8000000119,338329.352,338345.1999999881,338368.134,340859.964,8,400,,,
trial,html.Screen,4_93_0,2023-11-06T18:56:54.581Z,,0,2,,2614.43599997618,response,ISIC_7620514.JPG,9,ISIC_0014151.JPG,ISIC_7620514.JPG,false,1,keypress(m),500,343474.6999999881,343474.39999997616,340845.148,340848.09999996424,340859.964,343490.443,8,400,44,,ISIC_0014151.JPG
break,html.Screen,4_93_1,2023-11-06T18:56:54.582Z,,0,,,NaN,,,,,,false,,,,343475.89999997616,343475.5,,343474.8000000119,,343490.443,8,400,,,
break_continue,html.Screen,4_93_2,2023-11-06T18:56:54.583Z,,0,,,NaN,,,,,,false,,,,343476.1999999881,343476.09999996424,,343476,,343490.443,8,400,,,
sequence,flow.Sequence,4_93,2023-11-06T18:56:54.583Z,,0,,,2616.135999964259,completion,,,,,false,,,,343476.3000000119,343476.09999996424,340845.148,340848.09999996424,340859.964,343490.443,8,400,,,
trial,html.Screen,4_94_0,2023-11-06T18:56:57.166Z,,0,2,,2568.4569999761297,response,ISIC_8555379.JPG,7,ISIC_0056739.JPG,ISIC_0056739.JPG,false,0,keypress(z),500,346059.09999996424,346058.89999997616,343473.937,343476.39999997616,343490.443,346071.276,8,400,45,,ISIC_8555379.JPG
break,html.Screen,4_94_1,2023-11-06T18:56:57.167Z,,0,,,NaN,,,,,,false,,,,346060.09999996424,346059.89999997616,,346059.3000000119,,346071.276,8,400,,,
break_continue,html.Screen,4_94_2,2023-11-06T18:56:57.167Z,,0,,,NaN,,,,,,false,,,,346060.6999999881,346060.5,,346060.3000000119,,346071.276,8,400,,,
sequence,flow.Sequence,4_94,2023-11-06T18:56:57.167Z,,0,,,2570.0569999999716,completion,,,,,false,,,,346060.89999997616,346060.5,343473.937,343476.3000000119,343490.443,346071.276,8,400,,,
trial,html.Screen,4_95_0,2023-11-06T18:56:59.895Z,,0,2,,2716.6239999761456,response,ISIC_0025766.JPG,8,ISIC_0012653.JPG,ISIC_0025766.JPG,false,1,keypress(m),500,348788.1999999881,348787.89999997616,346054.925,346061,346071.276,348802.236,8,400,46,,ISIC_0012653.JPG
break,html.Screen,4_95_1,2023-11-06T18:56:59.896Z,,0,,,NaN,,,,,,false,,,,348789.3000000119,348789.09999996424,,348788.39999997616,,348802.236,8,400,,,
break_continue,html.Screen,4_95_2,2023-11-06T18:56:59.896Z,,0,,,NaN,,,,,,false,,,,348789.6999999881,348789.59999996424,,348789.39999997616,,348802.236,8,400,,,
sequence,flow.Sequence,4_95,2023-11-06T18:56:59.896Z,,0,,,2718.3239999642246,completion,,,,,false,,,,348789.89999997616,348789.59999996424,346054.925,346061,346071.276,348802.236,8,400,,,
trial,html.Screen,4_96_0,2023-11-06T18:57:02.464Z,,0,2,,2554.663999976183,response,ISIC_0064478.JPG,11,ISIC_5423896.JPG,ISIC_5423896.JPG,false,0,keypress(z),500,351357.5,351356.89999997616,348786.265,348790,348802.236,351366.257,8,400,47,,ISIC_0064478.JPG
break,html.Screen,4_96_1,2023-11-06T18:57:02.465Z,,0,,,NaN,,,,,,false,,,,351358.8000000119,351358.5,,351357.8000000119,,351366.257,8,400,,,
break_continue,html.Screen,4_96_2,2023-11-06T18:57:02.465Z,,0,,,NaN,,,,,,false,,,,351359,351359,,351358.89999997616,,351366.257,8,400,,,
sequence,flow.Sequence,4_96,2023-11-06T18:57:02.466Z,,0,,,2556.7640000000247,completion,,,,,false,,,,351359.09999996424,351359,348786.265,348790,348802.236,351366.257,8,400,,,
trial,html.Screen,4_97_0,2023-11-06T18:57:05.558Z,,0,2,,3084.642999976175,response,ISIC_0069250.JPG,6,ISIC_0072290.JPG,ISIC_0069250.JPG,false,1,keypress(m),500,354451.1999999881,354450.89999997616,351349.792,351359.1999999881,351366.257,354463.31,8,400,48,,ISIC_0072290.JPG
break,html.Screen,4_97_1,2023-11-06T18:57:05.559Z,,0,,,NaN,,,,,,false,,,,354452.39999997616,354452,,354451.39999997616,,354463.31,8,400,,,
break_continue,html.Screen,4_97_2,2023-11-06T18:57:05.559Z,,0,,,NaN,,,,,,false,,,,354452.59999996424,354452.5,,354452.39999997616,,354463.31,8,400,,,
sequence,flow.Sequence,4_97,2023-11-06T18:57:05.559Z,,0,,,3086.2430000000168,completion,,,,,false,,,,354452.6999999881,354452.5,351349.792,351359.1999999881,351366.257,354463.31,8,400,,,
trial,html.Screen,4_98_0,2023-11-06T18:57:08.474Z,,0,2,,2904.0899999761605,response,ISIC_0062440.JPG,9,ISIC_0032551.JPG,ISIC_0062440.JPG,false,1,keypress(m),500,357367.6999999881,357367.39999997616,354446.932,354452.8000000119,354463.31,357377.21,8,400,49,,ISIC_0032551.JPG
break,html.Screen,4_98_1,2023-11-06T18:57:08.475Z,,0,,,NaN,,,,,,false,,,,357368.6999999881,357368.39999997616,,357367.89999997616,,357377.21,8,400,,,
break_continue,html.Screen,4_98_2,2023-11-06T18:57:08.475Z,,0,,,NaN,,,,,,false,,,,357369.09999996424,357368.89999997616,,357368.8000000119,,357377.21,8,400,,,
sequence,flow.Sequence,4_98,2023-11-06T18:57:08.476Z,,0,,,2905.5899999761605,completion,,,,,false,,,,357369.1999999881,357368.89999997616,354446.932,354452.6999999881,354463.31,357377.21,8,400,,,
trial,html.Screen,4_99_0,2023-11-06T18:57:11.169Z,,0,2,,2685.0900000119,response,ISIC_3985782.JPG,11,ISIC_0033555.JPG,ISIC_0033555.JPG,false,0,keypress(z),500,360062.6999999881,360062.3000000119,357360.827,357369.39999997616,357377.21,360074.606,8,400,50,,ISIC_3985782.JPG
break,html.Screen,4_99_1,2023-11-06T18:57:21.172Z,,0,,,10007.347999999998,timeout,,,,,false,,,,370066,370065.183,360058.176,360062.8000000119,360074.606,370081.954,8,400,,,
break_continue,html.Screen,4_99_2,2023-11-06T18:57:21.886Z,,0,,,676.6459999642102,response,,,,,false,continue,keypress(Space),,370779.39999997616,370758.59999996424,370065.183,370066.09999996424,370081.954,370798.384,8,400,,,
sequence,flow.Sequence,4_99,2023-11-06T18:57:21.886Z,,0,,,13381.389999964216,completion,,,,,false,,,,370779.6999999881,370758.59999996424,357360.827,357369.3000000119,357377.21,370798.384,8,400,,,
trial,html.Screen,4_100_0,2023-11-06T18:57:25.796Z,,0,3,,3890.61599999998,response,ISIC_0000000.JPG,12,ISIC_9101441.JPG,ISIC_0000000.JPG,false,1,keypress(m),500,374689.3000000119,374689,370781.123,370779.8000000119,370798.384,374695.453,8,400,1,,ISIC_9101441.JPG
break,html.Screen,4_100_1,2023-11-06T18:57:25.797Z,,0,,,NaN,,,,,,false,,,,374690.3000000119,374690,,374689.5,,374695.453,8,400,,,
break_continue,html.Screen,4_100_2,2023-11-06T18:57:25.797Z,,0,,,NaN,,,,,,false,,,,374690.59999996424,374690.59999996424,,374690.5,,374695.453,8,400,,,
sequence,flow.Sequence,4_100,2023-11-06T18:57:25.797Z,,0,,,3892.215999964217,completion,,,,,false,,,,374690.8000000119,374690.59999996424,370781.123,370779.8000000119,370798.384,374695.453,8,400,,,
trial,html.Screen,4_101_0,2023-11-06T18:57:28.407Z,,0,3,,2605.2469999880996,response,ISIC_0033524.JPG,22,ISIC_7059794.JPG,ISIC_0033524.JPG,false,1,keypress(m),500,377300.89999997616,377300.6999999881,374677.435,374690.8000000119,374695.453,377308.786,8,400,2,,ISIC_7059794.JPG
break,html.Screen,4_101_1,2023-11-06T18:57:28.408Z,,0,,,NaN,,,,,,false,,,,377301.89999997616,377301.6999999881,,377301.09999996424,,377308.786,8,400,,,
break_continue,html.Screen,4_101_2,2023-11-06T18:57:28.409Z,,0,,,NaN,,,,,,false,,,,377302.09999996424,377302.09999996424,,377302,,377308.786,8,400,,,
sequence,flow.Sequence,4_101,2023-11-06T18:57:28.409Z,,0,,,2606.6469999642577,completion,,,,,false,,,,377302.1999999881,377302.09999996424,374677.435,374690.8000000119,374695.453,377308.786,8,400,,,
trial,html.Screen,4_102_0,2023-11-06T18:57:31.230Z,,0,3,,2814.913999988057,response,ISIC_0025931.JPG,11,ISIC_6447663.JPG,ISIC_0025931.JPG,false,1,keypress(m),500,380124,380123.6999999881,377291.68,377302.3000000119,377308.786,380138.861,8,400,3,,ISIC_6447663.JPG
break,html.Screen,4_102_1,2023-11-06T18:57:31.232Z,,0,,,NaN,,,,,,false,,,,380125.39999997616,380125.09999996424,,380124.39999997616,,380138.861,8,400,,,
break_continue,html.Screen,4_102_2,2023-11-06T18:57:31.232Z,,0,,,NaN,,,,,,false,,,,380125.59999996424,380125.59999996424,,380125.5,,380138.861,8,400,,,
sequence,flow.Sequence,4_102,2023-11-06T18:57:31.232Z,,0,,,2816.8139999642153,completion,,,,,false,,,,380125.6999999881,380125.59999996424,377291.68,377302.3000000119,377308.786,380138.861,8,400,,,
trial,html.Screen,4_103_0,2023-11-06T18:57:33.976Z,,0,3,,2730.1390000000247,response,ISIC_0070387.JPG,9,ISIC_0027472.JPG,ISIC_0070387.JPG,false,1,keypress(m),500,382869.39999997616,382869,380122.487,380125.8000000119,380138.861,382886.218,8,400,4,,ISIC_0027472.JPG
break,html.Screen,4_103_1,2023-11-06T18:57:33.977Z,,0,,,NaN,,,,,,false,,,,382870.59999996424,382870.3000000119,,382869.59999996424,,382886.218,8,400,,,
break_continue,html.Screen,4_103_2,2023-11-06T18:57:33.977Z,,0,,,NaN,,,,,,false,,,,382871,382870.8000000119,,382870.6999999881,,382886.218,8,400,,,
sequence,flow.Sequence,4_103,2023-11-06T18:57:33.977Z,,0,,,2731.9390000119456,completion,,,,,false,,,,382871,382870.8000000119,380122.487,380125.6999999881,380138.861,382886.218,8,400,,,
trial,html.Screen,4_104_0,2023-11-06T18:57:36.812Z,,0,3,,2819.3819999642437,response,ISIC_0058676.JPG,5,ISIC_0067417.JPG,ISIC_0058676.JPG,false,1,keypress(m),500,385706,385705.59999996424,382869.596,382871.09999996424,382886.218,385716.872,8,400,5,,ISIC_0067417.JPG
break,html.Screen,4_104_1,2023-11-06T18:57:36.813Z,,0,,,NaN,,,,,,false,,,,385706.89999997616,385706.6999999881,,385706.1999999881,,385716.872,8,400,,,
break_continue,html.Screen,4_104_2,2023-11-06T18:57:36.814Z,,0,,,NaN,,,,,,false,,,,385707.1999999881,385707.09999996424,,385707,,385716.872,8,400,,,
sequence,flow.Sequence,4_104,2023-11-06T18:57:36.814Z,,0,,,2820.8819999642437,completion,,,,,false,,,,385707.3000000119,385707.09999996424,382869.596,382871.09999996424,382886.218,385716.872,8,400,,,
trial,html.Screen,4_105_0,2023-11-06T18:57:39.393Z,,0,3,,2569.327999988105,response,ISIC_6907218.JPG,9,ISIC_0031310.JPG,ISIC_0031310.JPG,false,0,keypress(z),500,388286.5,388286.1999999881,385700.319,385707.3000000119,385716.872,388297.737,8,400,6,,ISIC_6907218.JPG
break,html.Screen,4_105_1,2023-11-06T18:57:39.394Z,,0,,,NaN,,,,,,false,,,,388287.8000000119,388287.5,,388286.6999999881,,388297.737,8,400,,,
break_continue,html.Screen,4_105_2,2023-11-06T18:57:39.395Z,,0,,,NaN,,,,,,false,,,,388288.09999996424,388288,,388288,,388297.737,8,400,,,
sequence,flow.Sequence,4_105,2023-11-06T18:57:39.395Z,,0,,,2571.128000000026,completion,,,,,false,,,,388288.3000000119,388288,385700.319,385707.3000000119,385716.872,388297.737,8,400,,,
trial,html.Screen,4_106_0,2023-11-06T18:57:42.021Z,,0,3,,2616.563000011898,response,ISIC_0006331.JPG,9,ISIC_0000129.JPG,ISIC_0000129.JPG,false,0,keypress(z),500,390914.6999999881,390914.3000000119,388281.231,388288.3000000119,388297.737,390928.556,8,400,7,,ISIC_0006331.JPG
break,html.Screen,4_106_1,2023-11-06T18:57:42.022Z,,0,,,NaN,,,,,,false,,,,390915.89999997616,390915.39999997616,,390914.89999997616,,390928.556,8,400,,,
break_continue,html.Screen,4_106_2,2023-11-06T18:57:42.023Z,,0,,,NaN,,,,,,false,,,,390916.3000000119,390916.1999999881,,390916.09999996424,,390928.556,8,400,,,
sequence,flow.Sequence,4_106,2023-11-06T18:57:42.023Z,,0,,,2618.4629999880563,completion,,,,,false,,,,390916.39999997616,390916.1999999881,388281.231,388288.3000000119,388297.737,390928.556,8,400,,,
trial,html.Screen,4_107_0,2023-11-06T18:57:44.809Z,,0,3,,2773.7440000119386,response,ISIC_0062048.JPG,6,ISIC_1519891.JPG,ISIC_0062048.JPG,false,1,keypress(m),500,393702.59999996424,393702.3000000119,390912.22,390916.5,390928.556,393709.28,8,400,8,,ISIC_1519891.JPG
break,html.Screen,4_107_1,2023-11-06T18:57:44.810Z,,0,,,NaN,,,,,,false,,,,393703.8000000119,393703.5,,393702.8000000119,,393709.28,8,400,,,
break_continue,html.Screen,4_107_2,2023-11-06T18:57:44.811Z,,0,,,NaN,,,,,,false,,,,393704.3000000119,393704.09999996424,,393703.89999997616,,393709.28,8,400,,,
sequence,flow.Sequence,4_107,2023-11-06T18:57:44.811Z,,0,,,2775.543999964255,completion,,,,,false,,,,393704.39999997616,393704.09999996424,390912.22,390916.5,390928.556,393709.28,8,400,,,
trial,html.Screen,4_108_0,2023-11-06T18:57:47.522Z,,0,3,,2705.520000011893,response,ISIC_6093728.JPG,11,ISIC_0007501.JPG,ISIC_6093728.JPG,false,1,keypress(m),500,396415.1999999881,396414.8000000119,393692.647,393704.5,393709.28,396423.385,8,400,9,,ISIC_0007501.JPG
break,html.Screen,4_108_1,2023-11-06T18:57:47.523Z,,0,,,NaN,,,,,,false,,,,396416.5,396416.1999999881,,396415.39999997616,,396423.385,8,400,,,
break_continue,html.Screen,4_108_2,2023-11-06T18:57:47.523Z,,0,,,NaN,,,,,,false,,,,396416.89999997616,396416.8000000119,,396416.6999999881,,396423.385,8,400,,,
sequence,flow.Sequence,4_108,2023-11-06T18:57:47.523Z,,0,,,2707.520000011893,completion,,,,,false,,,,396417,396416.8000000119,393692.647,393704.5,393709.28,396423.385,8,400,,,
trial,html.Screen,4_109_0,2023-11-06T18:57:50.781Z,,0,3,,3250.714999964228,response,ISIC_1566428.JPG,5,ISIC_1484659.JPG,ISIC_1566428.JPG,false,1,keypress(m),500,399674.5,399674.09999996424,396406.733,396417.09999996424,396423.385,399686.897,8,400,10,,ISIC_1484659.JPG
break,html.Screen,4_109_1,2023-11-06T18:57:50.782Z,,0,,,NaN,,,,,,false,,,,399675.89999997616,399675.59999996424,,399674.6999999881,,399686.897,8,400,,,
break_continue,html.Screen,4_109_2,2023-11-06T18:57:50.783Z,,0,,,NaN,,,,,,false,,,,399676.1999999881,399676.1999999881,,399676,,399686.897,8,400,,,
sequence,flow.Sequence,4_109,2023-11-06T18:57:50.783Z,,0,,,3252.8149999880698,completion,,,,,false,,,,399676.3000000119,399676.1999999881,396406.733,396417.09999996424,396423.385,399686.897,8,400,,,
trial,html.Screen,4_110_0,2023-11-06T18:57:53.696Z,,0,3,,2902.70299996424,response,ISIC_0062440.JPG,6,ISIC_0027104.JPG,ISIC_0062440.JPG,false,1,keypress(m),500,402590,402589.59999996424,399671.141,399676.39999997616,399686.897,402601.031,8,400,11,,ISIC_0027104.JPG
break,html.Screen,4_110_1,2023-11-06T18:57:53.697Z,,0,,,NaN,,,,,,false,,,,402590.89999997616,402590.6999999881,,402590.09999996424,,402601.031,8,400,,,
break_continue,html.Screen,4_110_2,2023-11-06T18:57:53.698Z,,0,,,NaN,,,,,,false,,,,402591.3000000119,402591.1999999881,,402591,,402601.031,8,400,,,
sequence,flow.Sequence,4_110,2023-11-06T18:57:53.698Z,,0,,,2904.302999988082,completion,,,,,false,,,,402591.3000000119,402591.1999999881,399671.141,399676.39999997616,399686.897,402601.031,8,400,,,
trial,html.Screen,4_111_0,2023-11-06T18:57:56.407Z,,0,3,,2699.668999988062,response,ISIC_8979567.JPG,7,ISIC_0061085.JPG,ISIC_0061085.JPG,false,0,keypress(z),500,405301,405300.6999999881,402584.689,402591.39999997616,402601.031,405314.856,8,400,12,,ISIC_8979567.JPG
break,html.Screen,4_111_1,2023-11-06T18:57:56.409Z,,0,,,NaN,,,,,,false,,,,405302.1999999881,405301.89999997616,,405301.09999996424,,405314.856,8,400,,,
break_continue,html.Screen,4_111_2,2023-11-06T18:57:56.409Z,,0,,,NaN,,,,,,false,,,,405302.59999996424,405302.5,,405302.39999997616,,405314.856,8,400,,,
sequence,flow.Sequence,4_111,2023-11-06T18:57:56.409Z,,0,,,2701.4689999999828,completion,,,,,false,,,,405302.8000000119,405302.5,402584.689,402591.39999997616,402601.031,405314.856,8,400,,,
trial,html.Screen,4_112_0,2023-11-06T18:57:59.326Z,,0,3,,2904.444000011892,response,ISIC_8389650.JPG,5,ISIC_8175453.JPG,ISIC_8175453.JPG,false,0,keypress(z),500,408219.6999999881,408219.3000000119,405298.224,405303,405314.856,408228.781,8,400,13,,ISIC_8389650.JPG
break,html.Screen,4_112_1,2023-11-06T18:57:59.327Z,,0,,,NaN,,,,,,false,,,,408221,408220.6999999881,,408219.8000000119,,408228.781,8,400,,,
break_continue,html.Screen,4_112_2,2023-11-06T18:57:59.328Z,,0,,,NaN,,,,,,false,,,,408221.39999997616,408221.1999999881,,408221.09999996424,,408228.781,8,400,,,
sequence,flow.Sequence,4_112,2023-11-06T18:57:59.328Z,,0,,,2906.34399998805,completion,,,,,false,,,,408221.59999996424,408221.1999999881,405298.224,405303,405314.856,408228.781,8,400,,,
trial,html.Screen,4_113_0,2023-11-06T18:58:01.928Z,,0,3,,2592.0190000119037,response,ISIC_0071988.JPG,10,ISIC_6425888.JPG,ISIC_0071988.JPG,false,1,keypress(m),500,410821.1999999881,410820.8000000119,408212.177,408221.6999999881,408228.781,410826.612,8,400,14,,ISIC_6425888.JPG
break,html.Screen,4_113_1,2023-11-06T18:58:01.929Z,,0,,,NaN,,,,,,false,,,,410822.6999999881,410822.5,,410821.39999997616,,410826.612,8,400,,,
break_continue,html.Screen,4_113_2,2023-11-06T18:58:01.929Z,,0,,,NaN,,,,,,false,,,,410823,410823,,410822.8000000119,,410826.612,8,400,,,
sequence,flow.Sequence,4_113,2023-11-06T18:58:01.930Z,,0,,,2594.2189999999828,completion,,,,,false,,,,410823.09999996424,410823,408212.177,408221.59999996424,408228.781,410826.612,8,400,,,
trial,html.Screen,4_114_0,2023-11-06T18:58:05.005Z,,0,3,,3071.2879999761353,response,ISIC_4099428.JPG,12,ISIC_0255997.JPG,ISIC_4099428.JPG,false,1,keypress(m),500,413898.39999997616,413897.89999997616,410809.849,410823.1999999881,410826.612,413911.583,8,400,15,,ISIC_0255997.JPG
break,html.Screen,4_114_1,2023-11-06T18:58:05.006Z,,0,,,NaN,,,,,,false,,,,413899.6999999881,413899.39999997616,,413898.8000000119,,413911.583,8,400,,,
break_continue,html.Screen,4_114_2,2023-11-06T18:58:05.006Z,,0,,,NaN,,,,,,false,,,,413900,413899.89999997616,,413899.8000000119,,413911.583,8,400,,,
sequence,flow.Sequence,4_114,2023-11-06T18:58:05.006Z,,0,,,3073.2879999761353,completion,,,,,false,,,,413900.09999996424,413899.89999997616,410809.849,410823.1999999881,410826.612,413911.583,8,400,,,
trial,html.Screen,4_115_0,2023-11-06T18:58:07.652Z,,0,3,,2633.816999976174,response,ISIC_2245069.JPG,21,ISIC_4236274.JPG,ISIC_2245069.JPG,false,1,keypress(m),500,416545.6999999881,416545.39999997616,413890.065,413900.09999996424,413911.583,416554.174,8,400,16,,ISIC_4236274.JPG
break,html.Screen,4_115_1,2023-11-06T18:58:07.653Z,,0,,,NaN,,,,,,false,,,,416546.59999996424,416546.39999997616,,416545.8000000119,,416554.174,8,400,,,
break_continue,html.Screen,4_115_2,2023-11-06T18:58:07.653Z,,0,,,NaN,,,,,,false,,,,416546.89999997616,416546.8000000119,,416546.6999999881,,416554.174,8,400,,,
sequence,flow.Sequence,4_115,2023-11-06T18:58:07.653Z,,0,,,2635.2170000119368,completion,,,,,false,,,,416547,416546.8000000119,413890.065,413900.09999996424,413911.583,416554.174,8,400,,,
trial,html.Screen,4_116_0,2023-11-06T18:58:10.652Z,,0,3,,2990.626000011922,response,ISIC_9100933.JPG,10,ISIC_4568084.JPG,ISIC_9100933.JPG,false,1,keypress(m),500,419545.09999996424,419544.8000000119,416537.623,416547,416554.174,419551.427,8,400,17,,ISIC_4568084.JPG
break,html.Screen,4_116_1,2023-11-06T18:58:10.653Z,,0,,,NaN,,,,,,false,,,,419546.1999999881,419546,,419545.39999997616,,419551.427,8,400,,,
break_continue,html.Screen,4_116_2,2023-11-06T18:58:10.653Z,,0,,,NaN,,,,,,false,,,,419547,419546.8000000119,,419546.39999997616,,419551.427,8,400,,,
sequence,flow.Sequence,4_116,2023-11-06T18:58:10.654Z,,0,,,2992.626000011922,completion,,,,,false,,,,419547.1999999881,419546.8000000119,416537.623,416547,416554.174,419551.427,8,400,,,
trial,html.Screen,4_117_0,2023-11-06T18:58:13.651Z,,0,3,,2992.672999964212,response,ISIC_0001743.JPG,15,ISIC_5361404.JPG,ISIC_5361404.JPG,false,0,keypress(z),500,422544.39999997616,422544.09999996424,419535.564,419547.39999997616,419551.427,422549.671,8,400,18,,ISIC_0001743.JPG
break,html.Screen,4_117_1,2023-11-06T18:58:13.652Z,,0,,,NaN,,,,,,false,,,,422545.39999997616,422545.09999996424,,422544.59999996424,,422549.671,8,400,,,
break_continue,html.Screen,4_117_2,2023-11-06T18:58:13.652Z,,0,,,NaN,,,,,,false,,,,422545.6999999881,422545.59999996424,,422545.5,,422549.671,8,400,,,
sequence,flow.Sequence,4_117,2023-11-06T18:58:13.652Z,,0,,,2994.172999964212,completion,,,,,false,,,,422545.6999999881,422545.59999996424,419535.564,419547.3000000119,419551.427,422549.671,8,400,,,
trial,html.Screen,4_118_0,2023-11-06T18:58:16.814Z,,0,3,,3157.329000000027,response,ISIC_6581765.JPG,8,ISIC_7685761.JPG,ISIC_6581765.JPG,false,1,keypress(m),500,425707.3000000119,425707,422531.843,422545.89999997616,422549.671,425713.268,8,400,19,,ISIC_7685761.JPG
break,html.Screen,4_118_1,2023-11-06T18:58:16.815Z,,0,,,NaN,,,,,,false,,,,425708.6999999881,425708.39999997616,,425707.5,,425713.268,8,400,,,
break_continue,html.Screen,4_118_2,2023-11-06T18:58:16.816Z,,0,,,NaN,,,,,,false,,,,425709.3000000119,425709.1999999881,,425709,,425713.268,8,400,,,
sequence,flow.Sequence,4_118,2023-11-06T18:58:16.816Z,,0,,,3159.528999988106,completion,,,,,false,,,,425709.39999997616,425709.1999999881,422531.843,422545.89999997616,422549.671,425713.268,8,400,,,
trial,html.Screen,4_119_0,2023-11-06T18:58:19.314Z,,0,3,,2493.9319999880972,response,ISIC_1315123.JPG,3,ISIC_0941085.JPG,ISIC_0941085.JPG,false,0,keypress(z),500,428207.5,428207.1999999881,425695.469,425709.5,425713.268,428209.747,8,400,20,,ISIC_1315123.JPG
break,html.Screen,4_119_1,2023-11-06T18:58:19.315Z,,0,,,NaN,,,,,,false,,,,428208.8000000119,428208.59999996424,,428207.6999999881,,428209.747,8,400,,,
break_continue,html.Screen,4_119_2,2023-11-06T18:58:19.316Z,,0,,,NaN,,,,,,false,,,,428209.1999999881,428209.09999996424,,428209,,428209.747,8,400,,,
sequence,flow.Sequence,4_119,2023-11-06T18:58:19.316Z,,0,,,2495.8319999642554,completion,,,,,false,,,,428209.3000000119,428209.09999996424,425695.469,425709.5,425713.268,428209.747,8,400,,,
trial,html.Screen,4_120_0,2023-11-06T18:58:22.222Z,,0,3,,2905.452999988105,response,ISIC_0394030.JPG,6,ISIC_4933735.JPG,ISIC_0394030.JPG,false,1,keypress(m),500,431115.5,431115.1999999881,428193.224,428209.3000000119,428209.747,431124.032,8,400,21,,ISIC_4933735.JPG
break,html.Screen,4_120_1,2023-11-06T18:58:22.223Z,,0,,,NaN,,,,,,false,,,,431116.6999999881,431116.1999999881,,431115.59999996424,,431124.032,8,400,,,
break_continue,html.Screen,4_120_2,2023-11-06T18:58:22.223Z,,0,,,NaN,,,,,,false,,,,431117.09999996424,431117,,431116.89999997616,,431124.032,8,400,,,
sequence,flow.Sequence,4_120,2023-11-06T18:58:22.224Z,,0,,,2907.253000000026,completion,,,,,false,,,,431117.3000000119,431117,428193.224,428209.3000000119,428209.747,431124.032,8,400,,,
trial,html.Screen,4_121_0,2023-11-06T18:58:24.805Z,,0,3,,2574.2680000119144,response,ISIC_0620587.JPG,12,ISIC_0058040.JPG,ISIC_0058040.JPG,false,0,keypress(z),500,433698.59999996424,433698.3000000119,431107.912,431117.5,431124.032,433705.886,8,400,22,,ISIC_0620587.JPG
break,html.Screen,4_121_1,2023-11-06T18:58:24.806Z,,0,,,NaN,,,,,,false,,,,433699.89999997616,433699.59999996424,,433698.89999997616,,433705.886,8,400,,,
break_continue,html.Screen,4_121_2,2023-11-06T18:58:24.807Z,,0,,,NaN,,,,,,false,,,,433700.09999996424,433700,,433699.89999997616,,433705.886,8,400,,,
sequence,flow.Sequence,4_121,2023-11-06T18:58:24.807Z,,0,,,2575.9679999999935,completion,,,,,false,,,,433700.1999999881,433700,431107.912,431117.5,431124.032,433705.886,8,400,,,
trial,html.Screen,4_122_0,2023-11-06T18:58:27.721Z,,0,3,,2908.5139999761595,response,ISIC_0055393.JPG,5,ISIC_0403458.JPG,ISIC_0403458.JPG,false,0,keypress(z),500,436614.8000000119,436614.39999997616,433688.285,433700.1999999881,433705.886,436618.431,8,400,23,,ISIC_0055393.JPG
break,html.Screen,4_122_1,2023-11-06T18:58:27.722Z,,0,,,NaN,,,,,,false,,,,436615.89999997616,436615.8000000119,,436615.09999996424,,436618.431,8,400,,,
break_continue,html.Screen,4_122_2,2023-11-06T18:58:27.723Z,,0,,,NaN,,,,,,false,,,,436616.3000000119,436616.09999996424,,436616.09999996424,,436618.431,8,400,,,
sequence,flow.Sequence,4_122,2023-11-06T18:58:27.723Z,,0,,,2910.2139999642386,completion,,,,,false,,,,436616.5,436616.09999996424,433688.285,433700.1999999881,433705.886,436618.431,8,400,,,
trial,html.Screen,4_123_0,2023-11-06T18:58:30.321Z,,0,3,,2596.3690000119386,response,ISIC_0010543.JPG,6,ISIC_9261199.JPG,ISIC_0010543.JPG,false,1,keypress(m),500,439215,439214.8000000119,436601.859,436616.59999996424,436618.431,439232.629,8,400,24,,ISIC_9261199.JPG
break,html.Screen,4_123_1,2023-11-06T18:58:30.322Z,,0,,,NaN,,,,,,false,,,,439216.09999996424,439215.8000000119,,439215.1999999881,,439232.629,8,400,,,
break_continue,html.Screen,4_123_2,2023-11-06T18:58:30.323Z,,0,,,NaN,,,,,,false,,,,439216.5,439216.3000000119,,439216.1999999881,,439232.629,8,400,,,
sequence,flow.Sequence,4_123,2023-11-06T18:58:30.323Z,,0,,,2597.8690000119386,completion,,,,,false,,,,439216.59999996424,439216.3000000119,436601.859,436616.59999996424,436618.431,439232.629,8,400,,,
trial,html.Screen,4_124_0,2023-11-06T18:58:32.937Z,,0,3,,2597.1710000119056,response,ISIC_0031472.JPG,11,ISIC_0015631.JPG,ISIC_0015631.JPG,false,0,keypress(z),500,441830.1999999881,441829.8000000119,439199.408,439216.6999999881,439232.629,441846.822,8,400,25,,ISIC_0031472.JPG
break,html.Screen,4_124_1,2023-11-06T18:58:32.937Z,,0,,,NaN,,,,,,false,,,,441831,441830.8000000119,,441830.3000000119,,441846.822,8,400,,,
break_continue,html.Screen,4_124_2,2023-11-06T18:58:32.938Z,,0,,,NaN,,,,,,false,,,,441831.39999997616,441831.1999999881,,441831.09999996424,,441846.822,8,400,,,
sequence,flow.Sequence,4_124,2023-11-06T18:58:32.938Z,,0,,,2598.5709999880637,completion,,,,,false,,,,441831.59999996424,441831.1999999881,439199.408,439216.6999999881,439232.629,441846.822,8,400,,,
trial,html.Screen,4_125_0,2023-11-06T18:58:35.597Z,,0,3,,2643.4780000119354,response,ISIC_8152423.JPG,4,ISIC_8393181.JPG,ISIC_8393181.JPG,false,0,keypress(z),500,444490.5,444490.3000000119,441814.409,441831.6999999881,441846.822,444494.567,8,400,26,,ISIC_8152423.JPG
break,html.Screen,4_125_1,2023-11-06T18:58:35.598Z,,0,,,NaN,,,,,,false,,,,444491.8000000119,444491.59999996424,,444490.8000000119,,444494.567,8,400,,,
break_continue,html.Screen,4_125_2,2023-11-06T18:58:35.599Z,,0,,,NaN,,,,,,false,,,,444492.09999996424,444492.09999996424,,444491.89999997616,,444494.567,8,400,,,
sequence,flow.Sequence,4_125,2023-11-06T18:58:35.599Z,,0,,,2645.2779999642516,completion,,,,,false,,,,444492.3000000119,444492.09999996424,441814.409,441831.6999999881,441846.822,444494.567,8,400,,,
