sender,sender_type,sender_id,timestamp,meta,,blockNo,condition,duration,ended_on,img_left,img_reveal,img_right,loser,practice,response,response_action,selection_duration,time_commit,time_end,time_render,time_run,time_show,time_switch,total_blocks,total_trials,trialNo,url,winner
informed_consent,html.Screen,0,2023-05-01T20:41:40.690Z,"{""labjs_version"":""20.2.4"",""labjs_build"":{""flavor"":""production"",""commit"":""f5b4a49f956347addd546a832a3327688c2c0fef""},""location"":""https://run.pavlovia.org/MurrayBennett/melanoma-2afc/?participant=64638"",""userAgent"":""Mozilla/5.0 (Windows NT 10.0; Win64; x64) AppleWebKit/537.36 (KHTML, like Gecko) Chrome/112.0.0.0 Safari/537.36 Edg/112.0.1722.58"",""platform"":""Win32"",""language"":""en-US"",""locale"":""en-US"",""timeZone"":""America/Chicago"",""timezoneOffset"":300,""screen_width"":1536,""screen_height"":864,""scroll_width"":1479,""scroll_height"":698,""window_innerWidth"":1479,""window_innerHeight"":746,""devicePixelRatio"":1.25}",,,,23209.589000023843,response,,,,,,consent,click button,,26493.200000047684,26491.100000023842,2898.139,3274.600000023842,3281.511,26498.566,,,,"{""participant"":""64638""}",
Welcome,html.Screen,1,2023-05-01T20:42:34.714Z,,,,regular,54014.83400009537,response,,,,,,continue,click button,,80516.5,80513.40000009537,26481.837,26493.600000023842,26498.566,80543.963,,,,,
trial,html.Screen,2_0_0,2023-05-01T20:42:39.861Z,,0,0,,5118.73700004768,response,ISIC_0061792.JPG,,ISIC_4679428.JPG,ISIC_4679428.JPG,true,0,keypress(z),500,85663.10000002384,85662.70000004768,80499.569,80516.90000009537,80543.963,85666.278,1,6,1,,ISIC_0061792.JPG
sequence,flow.Sequence,2_0,2023-05-01T20:42:39.861Z,,0,,,5118.73700004768,completion,,,,,true,,,,85663.40000009537,85662.70000004768,80499.569,80516.80000007153,80543.963,85666.278,1,6,,,
trial,html.Screen,2_1_0,2023-05-01T20:42:45.268Z,,0,0,,5403.422000047678,response,ISIC_0776486.JPG,,ISIC_5199497.JPG,ISIC_5199497.JPG,true,0,keypress(z),500,91070,91069.70000004768,85649.678,85663.60000002384,85666.278,91083.1,1,6,2,,ISIC_0776486.JPG
sequence,flow.Sequence,2_1,2023-05-01T20:42:45.268Z,,0,,,5403.422000047678,completion,,,,,true,,,,91070.30000007153,91069.70000004768,85649.678,85663.60000002384,85666.278,91083.1,1,6,,,
trial,html.Screen,2_2_0,2023-05-01T20:42:50.028Z,,0,0,,4746.899999999994,response,ISIC_2556187.JPG,,ISIC_8575776.JPG,ISIC_2556187.JPG,true,1,keypress(m),500,95830.20000004768,95830,91066.414,91070.40000009537,91083.1,95833.2,1,6,3,,ISIC_8575776.JPG
sequence,flow.Sequence,2_2,2023-05-01T20:42:50.028Z,,0,,,4746.899999999994,completion,,,,,true,,,,95830.5,95830,91066.414,91070.30000007153,91083.1,95833.2,1,6,,,
trial,html.Screen,2_3_0,2023-05-01T20:42:54.696Z,,0,0,,4665.000000047687,response,ISIC_8141769.JPG,,ISIC_9238366.JPG,ISIC_8141769.JPG,true,1,keypress(m),500,100498.40000009537,100498.20000004768,95816.564,95830.70000004768,95833.2,100516.616,1,6,4,,ISIC_9238366.JPG
sequence,flow.Sequence,2_3,2023-05-01T20:42:54.696Z,,0,,,4665.000000047687,completion,,,,,true,,,,100498.70000004768,100498.20000004768,95816.564,95830.60000002384,95833.2,100516.616,1,6,,,
trial,html.Screen,2_4_0,2023-05-01T20:42:58.657Z,,0,0,,3942.784000095373,response,ISIC_8949026.JPG,,ISIC_9959593.JPG,ISIC_9959593.JPG,true,0,keypress(z),500,104459.70000004768,104459.40000009537,100483.328,100499.10000002384,100516.616,104466.777,1,6,5,,ISIC_8949026.JPG
sequence,flow.Sequence,2_4,2023-05-01T20:42:58.658Z,,0,,,3942.784000095373,completion,,,,,true,,,,104460,104459.40000009537,100483.328,100499,100516.616,104466.777,1,6,,,
trial,html.Screen,2_5_0,2023-05-01T20:43:03.407Z,,0,0,,4742.32300002384,response,ISIC_0010479.JPG,,ISIC_0460240.JPG,ISIC_0010479.JPG,true,1,keypress(m),500,109209.40000009537,109209.10000002384,104450.037,104460.20000004768,104466.777,109216.903,1,6,6,,ISIC_0460240.JPG
sequence,flow.Sequence,2_5,2023-05-01T20:43:03.407Z,,0,,,4742.32300002384,completion,,,,,true,,,,109209.60000002384,109209.10000002384,104450.037,104460.20000004768,104466.777,109216.903,1,6,,,
loop,flow.Loop,2,2023-05-01T20:43:03.408Z,,,,,28665.13700002384,completion,,,,,true,,,,109209.90000009537,109209.10000002384,80499.569,80516.80000007153,80543.963,109216.903,1,6,,,
exp_instructions,html.Screen,3,2023-05-01T20:43:14.048Z,,,,,10632.497000095362,response,,,,,,continue,keypress(Space),,119849.90000009537,119849.40000009537,109200.077,109210.10000002384,109216.903,119866.965,,,,,
trial,html.Screen,4_0_0,2023-05-01T20:43:17.376Z,,0,1,,3311.0350000000035,response,ISIC_9696502.JPG,,ISIC_8979567.JPG,ISIC_9696502.JPG,false,1,keypress(m),500,123178.20000004768,123178,119849.703,119850.10000002384,119866.965,123184.001,8,400,1,,ISIC_8979567.JPG
break,html.Screen,4_0_1,2023-05-01T20:43:17.377Z,,0,,,NaN,,,,,,false,,,,123179.5,123179.20000004768,,123178.40000009537,,123184.001,8,400,,,
break_continue,html.Screen,4_0_2,2023-05-01T20:43:17.378Z,,0,,,NaN,,,,,,false,,,,123180,123179.80000007153,,123179.60000002384,,123184.001,8,400,,,
sequence,flow.Sequence,4_0,2023-05-01T20:43:17.378Z,,0,,,3312.835000071529,completion,,,,,false,,,,123180.20000004768,123179.80000007153,119849.703,119850,119866.965,123184.001,8,400,,,
trial,html.Screen,4_1_0,2023-05-01T20:43:22.147Z,,0,1,,4765.099000023838,response,ISIC_7109582.JPG,,ISIC_0029993.JPG,ISIC_0029993.JPG,false,0,keypress(z),500,127949.40000009537,127949.10000002384,123166.929,123180.40000009537,123184.001,127967.22,8,400,2,,ISIC_7109582.JPG
break,html.Screen,4_1_1,2023-05-01T20:43:22.148Z,,0,,,NaN,,,,,,false,,,,127950,127949.80000007153,,127949.5,,127967.22,8,400,,,
break_continue,html.Screen,4_1_2,2023-05-01T20:43:22.148Z,,0,,,NaN,,,,,,false,,,,127950.30000007153,127950.20000004768,,127950.10000002384,,127967.22,8,400,,,
sequence,flow.Sequence,4_1,2023-05-01T20:43:22.148Z,,0,,,4766.19900004768,completion,,,,,false,,,,127950.40000009537,127950.20000004768,123166.929,123180.30000007153,123184.001,127967.22,8,400,,,
trial,html.Screen,4_2_0,2023-05-01T20:43:25.796Z,,0,1,,3631.0800000715244,response,ISIC_7071944.JPG,,ISIC_9286292.JPG,ISIC_9286292.JPG,false,0,keypress(z),500,131598.5,131598.30000007153,127933.852,127950.60000002384,127967.22,131600.468,8,400,3,,ISIC_7071944.JPG
break,html.Screen,4_2_1,2023-05-01T20:43:25.797Z,,0,,,NaN,,,,,,false,,,,131599.60000002384,131599.10000002384,,131598.70000004768,,131600.468,8,400,,,
break_continue,html.Screen,4_2_2,2023-05-01T20:43:25.798Z,,0,,,NaN,,,,,,false,,,,131600,131599.90000009537,,131599.80000007153,,131600.468,8,400,,,
sequence,flow.Sequence,4_2,2023-05-01T20:43:25.798Z,,0,,,3632.6800000953663,completion,,,,,false,,,,131600.20000004768,131599.90000009537,127933.852,127950.5,127967.22,131600.468,8,400,,,
trial,html.Screen,4_3_0,2023-05-01T20:43:29.569Z,,0,1,,3770.832000071532,response,ISIC_0062313.JPG,,ISIC_0028407.JPG,ISIC_0062313.JPG,false,1,keypress(m),500,135371.5,135371.30000007153,131583.782,131600.30000007153,131600.468,135383.908,8,400,4,,ISIC_0028407.JPG
break,html.Screen,4_3_1,2023-05-01T20:43:29.570Z,,0,,,NaN,,,,,,false,,,,135372.80000007153,135372,,135371.70000004768,,135383.908,8,400,,,
break_continue,html.Screen,4_3_2,2023-05-01T20:43:29.571Z,,0,,,NaN,,,,,,false,,,,135373.10000002384,135373,,135372.90000009537,,135383.908,8,400,,,
sequence,flow.Sequence,4_3,2023-05-01T20:43:29.571Z,,0,,,3772.5320000000065,completion,,,,,false,,,,135373.30000007153,135373,131583.782,131600.30000007153,131600.468,135383.908,8,400,,,
trial,html.Screen,4_4_0,2023-05-01T20:43:33.130Z,,0,1,,3548.792000047688,response,ISIC_0062443.JPG,,ISIC_2086540.JPG,ISIC_0062443.JPG,false,1,keypress(m),500,138932.80000007153,138932.70000004768,135367.191,135373.30000007153,135383.908,138957.798,8,400,5,,ISIC_2086540.JPG
break,html.Screen,4_4_1,2023-05-01T20:43:33.131Z,,0,,,NaN,,,,,,false,,,,138933.20000004768,138933.10000002384,,138932.90000009537,,138957.798,8,400,,,
break_continue,html.Screen,4_4_2,2023-05-01T20:43:33.131Z,,0,,,NaN,,,,,,false,,,,138933.60000002384,138933.5,,138933.40000009537,,138957.798,8,400,,,
sequence,flow.Sequence,4_4,2023-05-01T20:43:33.131Z,,0,,,3549.592000000004,completion,,,,,false,,,,138933.70000004768,138933.5,135367.191,135373.30000007153,135383.908,138957.798,8,400,,,
trial,html.Screen,4_5_0,2023-05-01T20:43:36.982Z,,0,1,,3826.902000047674,response,ISIC_8028631.JPG,,ISIC_0013688.JPG,ISIC_0013688.JPG,false,0,keypress(z),500,142784.90000009537,142784.70000004768,138917.332,138933.70000004768,138957.798,142800.692,8,400,6,,ISIC_8028631.JPG
break,html.Screen,4_5_1,2023-05-01T20:43:36.983Z,,0,,,NaN,,,,,,false,,,,142785.5,142785.30000007153,,142785,,142800.692,8,400,,,
break_continue,html.Screen,4_5_2,2023-05-01T20:43:36.983Z,,0,,,NaN,,,,,,false,,,,142785.70000004768,142785.60000002384,,142785.60000002384,,142800.692,8,400,,,
sequence,flow.Sequence,4_5,2023-05-01T20:43:36.983Z,,0,,,3827.802000023832,completion,,,,,false,,,,142785.80000007153,142785.60000002384,138917.332,138933.70000004768,138957.798,142800.692,8,400,,,
trial,html.Screen,4_6_0,2023-05-01T20:43:39.866Z,,0,1,,2867.5080000476737,response,ISIC_0028341.JPG,,ISIC_2029418.JPG,ISIC_0028341.JPG,false,1,keypress(m),500,145668.40000009537,145668.20000004768,142784.024,142785.80000007153,142800.692,145684.148,8,400,7,,ISIC_2029418.JPG
break,html.Screen,4_6_1,2023-05-01T20:43:39.867Z,,0,,,NaN,,,,,,false,,,,145669,145668.70000004768,,145668.40000009537,,145684.148,8,400,,,
break_continue,html.Screen,4_6_2,2023-05-01T20:43:39.867Z,,0,,,NaN,,,,,,false,,,,145669.30000007153,145669.10000002384,,145669.10000002384,,145684.148,8,400,,,
sequence,flow.Sequence,4_6,2023-05-01T20:43:39.867Z,,0,,,2868.408000023832,completion,,,,,false,,,,145669.30000007153,145669.10000002384,142784.024,142785.80000007153,142800.692,145684.148,8,400,,,
trial,html.Screen,4_7_0,2023-05-01T20:43:43.166Z,,0,1,,3284.3520000000135,response,ISIC_7601403.JPG,,ISIC_0054239.JPG,ISIC_0054239.JPG,false,0,keypress(z),500,148968.70000004768,148968.5,145667.512,145669.40000009537,145684.148,148984.224,8,400,8,,ISIC_7601403.JPG
break,html.Screen,4_7_1,2023-05-01T20:43:43.167Z,,0,,,NaN,,,,,,false,,,,148969.90000009537,148969.20000004768,,148968.90000009537,,148984.224,8,400,,,
break_continue,html.Screen,4_7_2,2023-05-01T20:43:43.168Z,,0,,,NaN,,,,,,false,,,,148970.30000007153,148970.20000004768,,148970.10000002384,,148984.224,8,400,,,
sequence,flow.Sequence,4_7,2023-05-01T20:43:43.168Z,,0,,,3286.052000047697,completion,,,,,false,,,,148970.5,148970.20000004768,145667.512,145669.30000007153,145684.148,148984.224,8,400,,,
trial,html.Screen,4_8_0,2023-05-01T20:43:46.066Z,,0,1,,2884.076000071538,response,ISIC_0046315.JPG,,ISIC_6166247.JPG,ISIC_0046315.JPG,false,1,keypress(m),500,151868.60000002384,151868.30000007153,148967.502,148970.5,148984.224,151884.374,8,400,9,,ISIC_6166247.JPG
break,html.Screen,4_8_1,2023-05-01T20:43:46.067Z,,0,,,NaN,,,,,,false,,,,151869.30000007153,151868.90000009537,,151868.70000004768,,151884.374,8,400,,,
break_continue,html.Screen,4_8_2,2023-05-01T20:43:46.068Z,,0,,,NaN,,,,,,false,,,,151870,151869.80000007153,,151869.5,,151884.374,8,400,,,
sequence,flow.Sequence,4_8,2023-05-01T20:43:46.068Z,,0,,,2885.576000071538,completion,,,,,false,,,,151870.20000004768,151869.80000007153,148967.502,148970.5,148984.224,151884.374,8,400,,,
trial,html.Screen,4_9_0,2023-05-01T20:43:49.276Z,,0,1,,3193.426000071515,response,ISIC_0068217.JPG,,ISIC_0012883.JPG,ISIC_0068217.JPG,false,1,keypress(m),500,155078,155077.80000007153,151867.569,151870.30000007153,151884.374,155084.262,8,400,10,,ISIC_0012883.JPG
break,html.Screen,4_9_1,2023-05-01T20:43:49.277Z,,0,,,NaN,,,,,,false,,,,155079.10000002384,155078.60000002384,,155078.10000002384,,155084.262,8,400,,,
break_continue,html.Screen,4_9_2,2023-05-01T20:43:49.277Z,,0,,,NaN,,,,,,false,,,,155079.40000009537,155079.30000007153,,155079.20000004768,,155084.262,8,400,,,
sequence,flow.Sequence,4_9,2023-05-01T20:43:49.277Z,,0,,,3194.926000071515,completion,,,,,false,,,,155079.60000002384,155079.30000007153,151867.569,151870.30000007153,151884.374,155084.262,8,400,,,
trial,html.Screen,4_10_0,2023-05-01T20:43:52.263Z,,0,1,,2980.438000047696,response,ISIC_5055871.JPG,,ISIC_9050826.JPG,ISIC_9050826.JPG,false,0,keypress(z),500,158065,158064.70000004768,155067.596,155079.70000004768,155084.262,158067.633,8,400,11,,ISIC_5055871.JPG
break,html.Screen,4_10_1,2023-05-01T20:43:52.264Z,,0,,,NaN,,,,,,false,,,,158066.20000004768,158065.70000004768,,158065.20000004768,,158067.633,8,400,,,
break_continue,html.Screen,4_10_2,2023-05-01T20:43:52.264Z,,0,,,NaN,,,,,,false,,,,158066.60000002384,158066.5,,158066.40000009537,,158067.633,8,400,,,
sequence,flow.Sequence,4_10,2023-05-01T20:43:52.264Z,,0,,,2982.238000000012,completion,,,,,false,,,,158066.80000007153,158066.5,155067.596,155079.60000002384,155084.262,158067.633,8,400,,,
trial,html.Screen,4_11_0,2023-05-01T20:43:55.527Z,,0,1,,3262.267000095366,response,ISIC_5333058.JPG,,ISIC_3234816.JPG,ISIC_3234816.JPG,false,0,keypress(z),500,161329.90000009537,161329.90000009537,158051.072,158066.90000009537,158067.633,161334.368,8,400,12,,ISIC_5333058.JPG
break,html.Screen,4_11_1,2023-05-01T20:43:55.528Z,,0,,,NaN,,,,,,false,,,,161330.30000007153,161330.20000004768,,161330.10000002384,,161334.368,8,400,,,
break_continue,html.Screen,4_11_2,2023-05-01T20:43:55.528Z,,0,,,NaN,,,,,,false,,,,161330.60000002384,161330.60000002384,,161330.40000009537,,161334.368,8,400,,,
sequence,flow.Sequence,4_11,2023-05-01T20:43:55.528Z,,0,,,3262.9670000238402,completion,,,,,false,,,,161330.80000007153,161330.60000002384,158051.072,158066.90000009537,158067.633,161334.368,8,400,,,
trial,html.Screen,4_12_0,2023-05-01T20:43:59.172Z,,0,1,,3639.732000023854,response,ISIC_4538661.JPG,,ISIC_3069695.JPG,ISIC_3069695.JPG,false,0,keypress(z),500,164974.40000009537,164974.10000002384,161317.702,161330.90000009537,161334.368,164984.404,8,400,13,,ISIC_4538661.JPG
break,html.Screen,4_12_1,2023-05-01T20:43:59.173Z,,0,,,NaN,,,,,,false,,,,164975,164974.70000004768,,164974.5,,164984.404,8,400,,,
break_continue,html.Screen,4_12_2,2023-05-01T20:43:59.173Z,,0,,,NaN,,,,,,false,,,,164975.30000007153,164975.20000004768,,164975.10000002384,,164984.404,8,400,,,
sequence,flow.Sequence,4_12,2023-05-01T20:43:59.173Z,,0,,,3640.832000047696,completion,,,,,false,,,,164975.5,164975.20000004768,161317.702,161330.80000007153,161334.368,164984.404,8,400,,,
trial,html.Screen,4_13_0,2023-05-01T20:44:03.504Z,,0,1,,4321.196000023832,response,ISIC_0283541.JPG,,ISIC_9050608.JPG,ISIC_0283541.JPG,false,1,keypress(m),500,169306,169305.60000002384,164967.8,164975.5,164984.404,169317.893,8,400,14,,ISIC_9050608.JPG
break,html.Screen,4_13_1,2023-05-01T20:44:03.505Z,,0,,,NaN,,,,,,false,,,,169307.60000002384,169307.30000007153,,169306.30000007153,,169317.893,8,400,,,
break_continue,html.Screen,4_13_2,2023-05-01T20:44:03.505Z,,0,,,NaN,,,,,,false,,,,169307.90000009537,169307.80000007153,,169307.60000002384,,169317.893,8,400,,,
sequence,flow.Sequence,4_13,2023-05-01T20:44:03.506Z,,0,,,4323.396000071516,completion,,,,,false,,,,169308,169307.80000007153,164967.8,164975.5,164984.404,169317.893,8,400,,,
trial,html.Screen,4_14_0,2023-05-01T20:44:06.265Z,,0,1,,2749.707000023831,response,ISIC_0959863.JPG,,ISIC_0024591.JPG,ISIC_0024591.JPG,false,0,keypress(z),500,172067.70000004768,172067.60000002384,169301.258,169308.20000004768,169317.893,172084.668,8,400,15,,ISIC_0959863.JPG
break,html.Screen,4_14_1,2023-05-01T20:44:06.266Z,,0,,,NaN,,,,,,false,,,,172068.5,172068.30000007153,,172067.90000009537,,172084.668,8,400,,,
break_continue,html.Screen,4_14_2,2023-05-01T20:44:06.266Z,,0,,,NaN,,,,,,false,,,,172068.70000004768,172068.60000002384,,172068.60000002384,,172084.668,8,400,,,
sequence,flow.Sequence,4_14,2023-05-01T20:44:06.266Z,,0,,,2750.707000023831,completion,,,,,false,,,,172068.80000007153,172068.60000002384,169301.258,169308.20000004768,169317.893,172084.668,8,400,,,
trial,html.Screen,4_15_0,2023-05-01T20:44:09.739Z,,0,1,,3456.7320000953623,response,ISIC_0012208.JPG,,ISIC_0013636.JPG,ISIC_0013636.JPG,false,0,keypress(z),500,175541.60000002384,175541.40000009537,172067.962,172068.90000009537,172084.668,175551.274,8,400,16,,ISIC_0012208.JPG
break,html.Screen,4_15_1,2023-05-01T20:44:09.740Z,,0,,,NaN,,,,,,false,,,,175542.70000004768,175542.20000004768,,175541.80000007153,,175551.274,8,400,,,
break_continue,html.Screen,4_15_2,2023-05-01T20:44:09.741Z,,0,,,NaN,,,,,,false,,,,175543.10000002384,175543,,175542.80000007153,,175551.274,8,400,,,
sequence,flow.Sequence,4_15,2023-05-01T20:44:09.741Z,,0,,,3458.331999999995,completion,,,,,false,,,,175543.20000004768,175543,172067.962,172068.90000009537,172084.668,175551.274,8,400,,,
trial,html.Screen,4_16_0,2023-05-01T20:44:12.454Z,,0,1,,2704.725999999995,response,ISIC_0055003.JPG,,ISIC_0001792.JPG,ISIC_0055003.JPG,false,1,keypress(m),500,178256.20000004768,178256,175534.604,175543.40000009537,175551.274,178268.219,8,400,17,,ISIC_0001792.JPG
break,html.Screen,4_16_1,2023-05-01T20:44:12.455Z,,0,,,NaN,,,,,,false,,,,178257.5,178257.20000004768,,178256.40000009537,,178268.219,8,400,,,
break_continue,html.Screen,4_16_2,2023-05-01T20:44:12.455Z,,0,,,NaN,,,,,,false,,,,178257.90000009537,178257.80000007153,,178257.70000004768,,178268.219,8,400,,,
sequence,flow.Sequence,4_16,2023-05-01T20:44:12.456Z,,0,,,2706.5260000715207,completion,,,,,false,,,,178258.30000007153,178257.80000007153,175534.604,175543.30000007153,175551.274,178268.219,8,400,,,
trial,html.Screen,4_17_0,2023-05-01T20:44:15.398Z,,0,1,,2931.88100002383,response,ISIC_5674396.JPG,,ISIC_4116224.JPG,ISIC_4116224.JPG,false,0,keypress(z),500,181200.40000009537,181200.10000002384,178251.37,178258.40000009537,178268.219,181218.182,8,400,18,,ISIC_5674396.JPG
break,html.Screen,4_17_1,2023-05-01T20:44:15.399Z,,0,,,NaN,,,,,,false,,,,181201.70000004768,181201.40000009537,,181200.5,,181218.182,8,400,,,
break_continue,html.Screen,4_17_2,2023-05-01T20:44:15.400Z,,0,,,NaN,,,,,,false,,,,181202.20000004768,181202,,181201.90000009537,,181218.182,8,400,,,
sequence,flow.Sequence,4_17,2023-05-01T20:44:15.400Z,,0,,,2933.780999999988,completion,,,,,false,,,,181202.40000009537,181202,178251.37,178258.30000007153,178268.219,181218.182,8,400,,,
trial,html.Screen,4_18_0,2023-05-01T20:44:18.248Z,,0,1,,2831.918000023841,response,ISIC_4026540.JPG,,ISIC_0071043.JPG,ISIC_0071043.JPG,false,0,keypress(z),500,184050.30000007153,184050.10000002384,181184.841,181202.60000002384,181218.182,184074.171,8,400,19,,ISIC_4026540.JPG
break,html.Screen,4_18_1,2023-05-01T20:44:18.249Z,,0,,,NaN,,,,,,false,,,,184051.60000002384,184050.90000009537,,184050.5,,184074.171,8,400,,,
break_continue,html.Screen,4_18_2,2023-05-01T20:44:18.249Z,,0,,,NaN,,,,,,false,,,,184051.90000009537,184051.80000007153,,184051.60000002384,,184074.171,8,400,,,
sequence,flow.Sequence,4_18,2023-05-01T20:44:18.250Z,,0,,,2833.618000071525,completion,,,,,false,,,,184052,184051.80000007153,181184.841,181202.5,181218.182,184074.171,8,400,,,
trial,html.Screen,4_19_0,2023-05-01T20:44:21.586Z,,0,1,,3313.6290000715235,response,ISIC_1265382.JPG,,ISIC_5153848.JPG,ISIC_5153848.JPG,false,0,keypress(z),500,187388.10000002384,187387.80000007153,184034.861,184052.20000004768,184074.171,187401.579,8,400,20,,ISIC_1265382.JPG
break,html.Screen,4_19_1,2023-05-01T20:44:21.587Z,,0,,,NaN,,,,,,false,,,,187389.20000004768,187388.60000002384,,187388.20000004768,,187401.579,8,400,,,
break_continue,html.Screen,4_19_2,2023-05-01T20:44:21.587Z,,0,,,NaN,,,,,,false,,,,187389.60000002384,187389.5,,187389.30000007153,,187401.579,8,400,,,
sequence,flow.Sequence,4_19,2023-05-01T20:44:21.587Z,,0,,,3315.328999999998,completion,,,,,false,,,,187389.70000004768,187389.5,184034.861,184052.20000004768,184074.171,187401.579,8,400,,,
trial,html.Screen,4_20_0,2023-05-01T20:44:25.390Z,,0,1,,3791.021000023844,response,ISIC_8462364.JPG,,ISIC_0010098.JPG,ISIC_8462364.JPG,false,1,keypress(m),500,191192.80000007153,191192.60000002384,187385.014,187389.80000007153,187401.579,191201.738,8,400,21,,ISIC_0010098.JPG
break,html.Screen,4_20_1,2023-05-01T20:44:25.391Z,,0,,,NaN,,,,,,false,,,,191193.5,191193.20000004768,,191193,,191201.738,8,400,,,
break_continue,html.Screen,4_20_2,2023-05-01T20:44:25.391Z,,0,,,NaN,,,,,,false,,,,191193.90000009537,191193.80000007153,,191193.60000002384,,191201.738,8,400,,,
sequence,flow.Sequence,4_20,2023-05-01T20:44:25.392Z,,0,,,3792.2210000715277,completion,,,,,false,,,,191194.10000002384,191193.80000007153,187385.014,187389.80000007153,187401.579,191201.738,8,400,,,
trial,html.Screen,4_21_0,2023-05-01T20:44:29.496Z,,0,1,,4096.36200002383,response,ISIC_0071651.JPG,,ISIC_0056788.JPG,ISIC_0056788.JPG,false,0,keypress(z),500,195298.40000009537,195298.10000002384,191185.019,191194.20000004768,191201.738,195301.67,8,400,22,,ISIC_0071651.JPG
break,html.Screen,4_21_1,2023-05-01T20:44:29.497Z,,0,,,NaN,,,,,,false,,,,195299.5,195299,,195298.60000002384,,195301.67,8,400,,,
break_continue,html.Screen,4_21_2,2023-05-01T20:44:29.497Z,,0,,,NaN,,,,,,false,,,,195299.90000009537,195299.80000007153,,195299.70000004768,,195301.67,8,400,,,
sequence,flow.Sequence,4_21,2023-05-01T20:44:29.498Z,,0,,,4098.0620000715135,completion,,,,,false,,,,195300,195299.80000007153,191185.019,191194.20000004768,191201.738,195301.67,8,400,,,
trial,html.Screen,4_22_0,2023-05-01T20:44:32.527Z,,0,1,,3027.430000023829,response,ISIC_9513808.JPG,,ISIC_6691962.JPG,ISIC_9513808.JPG,false,1,keypress(m),500,198329.30000007153,198329.10000002384,195285.016,195300.20000004768,195301.67,198335.077,8,400,23,,ISIC_6691962.JPG
break,html.Screen,4_22_1,2023-05-01T20:44:32.528Z,,0,,,NaN,,,,,,false,,,,198330.40000009537,198329.90000009537,,198329.5,,198335.077,8,400,,,
break_continue,html.Screen,4_22_2,2023-05-01T20:44:32.528Z,,0,,,NaN,,,,,,false,,,,198330.80000007153,198330.60000002384,,198330.60000002384,,198335.077,8,400,,,
sequence,flow.Sequence,4_22,2023-05-01T20:44:32.528Z,,0,,,3028.930000023829,completion,,,,,false,,,,198330.90000009537,198330.60000002384,195285.016,195300.20000004768,195301.67,198335.077,8,400,,,
trial,html.Screen,4_23_0,2023-05-01T20:44:36.412Z,,0,1,,3879.0230000238516,response,ISIC_5625747.JPG,,ISIC_6274085.JPG,ISIC_6274085.JPG,false,0,keypress(z),500,202214.40000009537,202214.10000002384,198318.549,198331.10000002384,198335.077,202218.47,8,400,24,,ISIC_5625747.JPG
break,html.Screen,4_23_1,2023-05-01T20:44:36.413Z,,0,,,NaN,,,,,,false,,,,202215.60000002384,202215,,202214.60000002384,,202218.47,8,400,,,
break_continue,html.Screen,4_23_2,2023-05-01T20:44:36.413Z,,0,,,NaN,,,,,,false,,,,202215.80000007153,202215.70000004768,,202215.70000004768,,202218.47,8,400,,,
sequence,flow.Sequence,4_23,2023-05-01T20:44:36.414Z,,0,,,3880.6230000476935,completion,,,,,false,,,,202216,202215.70000004768,198318.549,198331.10000002384,198335.077,202218.47,8,400,,,
trial,html.Screen,4_24_0,2023-05-01T20:44:41.718Z,,0,1,,5301.430000095366,response,ISIC_5744196.JPG,,ISIC_0046471.JPG,ISIC_0046471.JPG,false,0,keypress(z),500,207520.20000004768,207519.90000009537,202201.835,202216.20000004768,202218.47,207536.064,8,400,25,,ISIC_5744196.JPG
break,html.Screen,4_24_1,2023-05-01T20:44:41.718Z,,0,,,NaN,,,,,,false,,,,207521,207520.70000004768,,207520.30000007153,,207536.064,8,400,,,
break_continue,html.Screen,4_24_2,2023-05-01T20:44:41.719Z,,0,,,NaN,,,,,,false,,,,207521.5,207521.40000009537,,207521.20000004768,,207536.064,8,400,,,
sequence,flow.Sequence,4_24,2023-05-01T20:44:41.719Z,,0,,,5302.930000095366,completion,,,,,false,,,,207521.80000007153,207521.40000009537,202201.835,202216.20000004768,202218.47,207536.064,8,400,,,
trial,html.Screen,4_25_0,2023-05-01T20:44:48.596Z,,0,1,,6862.435999999987,response,ISIC_9879693.JPG,,ISIC_0033813.JPG,ISIC_0033813.JPG,false,0,keypress(z),500,214398.80000007153,214398.5,207518.689,207521.90000009537,207536.064,214402.012,8,400,26,,ISIC_9879693.JPG
break,html.Screen,4_25_1,2023-05-01T20:44:48.597Z,,0,,,NaN,,,,,,false,,,,214399.40000009537,214399.30000007153,,214399,,214402.012,8,400,,,
break_continue,html.Screen,4_25_2,2023-05-01T20:44:48.597Z,,0,,,NaN,,,,,,false,,,,214399.60000002384,214399.60000002384,,214399.5,,214402.012,8,400,,,
sequence,flow.Sequence,4_25,2023-05-01T20:44:48.597Z,,0,,,6863.536000023829,completion,,,,,false,,,,214399.80000007153,214399.60000002384,207518.689,207521.90000009537,207536.064,214402.012,8,400,,,
trial,html.Screen,4_26_0,2023-05-01T20:44:52.412Z,,0,1,,3812.588000023854,response,ISIC_0010723.JPG,,ISIC_0009971.JPG,ISIC_0010723.JPG,false,1,keypress(m),500,218214.60000002384,218214.60000002384,214385.318,214399.80000007153,214402.012,218218.815,8,400,27,,ISIC_0009971.JPG
break,html.Screen,4_26_1,2023-05-01T20:44:52.413Z,,0,,,NaN,,,,,,false,,,,218215.10000002384,218215,,218214.80000007153,,218218.815,8,400,,,
break_continue,html.Screen,4_26_2,2023-05-01T20:44:52.413Z,,0,,,NaN,,,,,,false,,,,218215.20000004768,218215.20000004768,,218215.20000004768,,218218.815,8,400,,,
sequence,flow.Sequence,4_26,2023-05-01T20:44:52.413Z,,0,,,3813.188000047696,completion,,,,,false,,,,218215.30000007153,218215.20000004768,214385.318,214399.80000007153,214402.012,218218.815,8,400,,,
trial,html.Screen,4_27_0,2023-05-01T20:44:55.521Z,,0,1,,3104.8850000476814,response,ISIC_0000186.JPG,,ISIC_9445053.JPG,ISIC_0000186.JPG,false,1,keypress(m),500,221323.90000009537,221323.70000004768,218202.215,218215.40000009537,218218.815,221335.59,8,400,28,,ISIC_9445053.JPG
break,html.Screen,4_27_1,2023-05-01T20:44:55.522Z,,0,,,NaN,,,,,,false,,,,221324.60000002384,221324.40000009537,,221324.10000002384,,221335.59,8,400,,,
break_continue,html.Screen,4_27_2,2023-05-01T20:44:55.523Z,,0,,,NaN,,,,,,false,,,,221325.10000002384,221324.90000009537,,221324.90000009537,,221335.59,8,400,,,
sequence,flow.Sequence,4_27,2023-05-01T20:44:55.523Z,,0,,,3106.085000095365,completion,,,,,false,,,,221325.10000002384,221324.90000009537,218202.215,218215.40000009537,218218.815,221335.59,8,400,,,
trial,html.Screen,4_28_0,2023-05-01T20:45:00.203Z,,0,1,,4669.310000095371,response,ISIC_0062547.JPG,,ISIC_0025152.JPG,ISIC_0062547.JPG,false,1,keypress(m),500,226005,226004.90000009537,221318.86,221325.30000007153,221335.59,226019.015,8,400,29,,ISIC_0025152.JPG
break,html.Screen,4_28_1,2023-05-01T20:45:00.203Z,,0,,,NaN,,,,,,false,,,,226005.80000007153,226005.5,,226005.20000004768,,226019.015,8,400,,,
break_continue,html.Screen,4_28_2,2023-05-01T20:45:00.204Z,,0,,,NaN,,,,,,false,,,,226006.10000002384,226006,,226006,,226019.015,8,400,,,
sequence,flow.Sequence,4_28,2023-05-01T20:45:00.204Z,,0,,,4670.4100000000035,completion,,,,,false,,,,226006.20000004768,226006,221318.86,221325.30000007153,221335.59,226019.015,8,400,,,
trial,html.Screen,4_29_0,2023-05-01T20:45:03.019Z,,0,1,,2801.984999999986,response,ISIC_6455702.JPG,,ISIC_0024455.JPG,ISIC_0024455.JPG,false,0,keypress(z),500,228821.20000004768,228821,226002.275,226006.30000007153,226019.015,228835.655,8,400,30,,ISIC_6455702.JPG
break,html.Screen,4_29_1,2023-05-01T20:45:03.020Z,,0,,,NaN,,,,,,false,,,,228822.20000004768,228821.90000009537,,228821.5,,228835.655,8,400,,,
break_continue,html.Screen,4_29_2,2023-05-01T20:45:03.020Z,,0,,,NaN,,,,,,false,,,,228822.5,228822.40000009537,,228822.30000007153,,228835.655,8,400,,,
sequence,flow.Sequence,4_29,2023-05-01T20:45:03.020Z,,0,,,2803.3850000953535,completion,,,,,false,,,,228822.5,228822.40000009537,226002.275,226006.20000004768,226019.015,228835.655,8,400,,,
trial,html.Screen,4_30_0,2023-05-01T20:45:06.298Z,,0,1,,3264.545000047685,response,ISIC_0031752.JPG,,ISIC_0033574.JPG,ISIC_0031752.JPG,false,1,keypress(m),500,232100.40000009537,232100.20000004768,228819.009,228822.60000002384,228835.655,232102.368,8,400,31,,ISIC_0033574.JPG
break,html.Screen,4_30_1,2023-05-01T20:45:06.299Z,,0,,,NaN,,,,,,false,,,,232101.10000002384,232100.90000009537,,232100.60000002384,,232102.368,8,400,,,
break_continue,html.Screen,4_30_2,2023-05-01T20:45:06.299Z,,0,,,NaN,,,,,,false,,,,232101.40000009537,232101.20000004768,,232101.20000004768,,232102.368,8,400,,,
sequence,flow.Sequence,4_30,2023-05-01T20:45:06.299Z,,0,,,3265.545000047685,completion,,,,,false,,,,232101.40000009537,232101.20000004768,228819.009,228822.60000002384,228835.655,232102.368,8,400,,,
trial,html.Screen,4_31_0,2023-05-01T20:45:12.920Z,,0,1,,6620.432000071538,response,ISIC_8025644.JPG,,ISIC_9618489.JPG,ISIC_8025644.JPG,false,1,keypress(m),500,238723,238722.80000007153,232085.677,232101.5,232102.368,238735.837,8,400,32,,ISIC_9618489.JPG
break,html.Screen,4_31_1,2023-05-01T20:45:12.921Z,,0,,,NaN,,,,,,false,,,,238723.60000002384,238723.60000002384,,238723.10000002384,,238735.837,8,400,,,
break_continue,html.Screen,4_31_2,2023-05-01T20:45:12.921Z,,0,,,NaN,,,,,,false,,,,238723.90000009537,238723.80000007153,,238723.70000004768,,238735.837,8,400,,,
sequence,flow.Sequence,4_31,2023-05-01T20:45:12.921Z,,0,,,6621.432000071538,completion,,,,,false,,,,238723.90000009537,238723.80000007153,232085.677,232101.5,232102.368,238735.837,8,400,,,
trial,html.Screen,4_32_0,2023-05-01T20:45:17.787Z,,0,1,,4853.863000047684,response,ISIC_0060446.JPG,,ISIC_3060248.JPG,ISIC_0060446.JPG,false,1,keypress(m),500,243590,243589.70000004768,238719.234,238724,238735.837,243619.325,8,400,33,,ISIC_3060248.JPG
break,html.Screen,4_32_1,2023-05-01T20:45:17.788Z,,0,,,NaN,,,,,,false,,,,243590.70000004768,243590.5,,243590.20000004768,,243619.325,8,400,,,
break_continue,html.Screen,4_32_2,2023-05-01T20:45:17.788Z,,0,,,NaN,,,,,,false,,,,243591,243590.80000007153,,243590.70000004768,,243619.325,8,400,,,
sequence,flow.Sequence,4_32,2023-05-01T20:45:17.789Z,,0,,,4854.963000071526,completion,,,,,false,,,,243591.10000002384,243590.80000007153,238719.234,238724,238735.837,243619.325,8,400,,,
trial,html.Screen,4_33_0,2023-05-01T20:45:21.762Z,,0,1,,3945.27500002383,response,ISIC_0033479.JPG,,ISIC_0021442.JPG,ISIC_0021442.JPG,false,0,keypress(z),500,247564.80000007153,247564.60000002384,243602.664,243591.20000004768,243619.325,247569.31,8,400,34,,ISIC_0033479.JPG
break,html.Screen,4_33_1,2023-05-01T20:45:21.763Z,,0,,,NaN,,,,,,false,,,,247565.5,247565.40000009537,,247564.90000009537,,247569.31,8,400,,,
break_continue,html.Screen,4_33_2,2023-05-01T20:45:21.763Z,,0,,,NaN,,,,,,false,,,,247565.80000007153,247565.60000002384,,247565.60000002384,,247569.31,8,400,,,
sequence,flow.Sequence,4_33,2023-05-01T20:45:21.763Z,,0,,,3946.27500002383,completion,,,,,false,,,,247565.80000007153,247565.60000002384,243602.664,243591.10000002384,243619.325,247569.31,8,400,,,
trial,html.Screen,4_34_0,2023-05-01T20:45:24.600Z,,0,1,,2833.390000047686,response,ISIC_4801737.JPG,,ISIC_6443984.JPG,ISIC_6443984.JPG,false,0,keypress(z),500,250402.90000009537,250402.70000004768,247552.715,247565.90000009537,247569.31,250419.4,8,400,35,,ISIC_4801737.JPG
break,html.Screen,4_34_1,2023-05-01T20:45:24.601Z,,0,,,NaN,,,,,,false,,,,250403.10000002384,250403.10000002384,,250402.90000009537,,250419.4,8,400,,,
break_continue,html.Screen,4_34_2,2023-05-01T20:45:24.601Z,,0,,,NaN,,,,,,false,,,,250403.40000009537,250403.30000007153,,250403.20000004768,,250419.4,8,400,,,
sequence,flow.Sequence,4_34,2023-05-01T20:45:24.601Z,,0,,,2833.990000071528,completion,,,,,false,,,,250403.5,250403.30000007153,247552.715,247565.90000009537,247569.31,250419.4,8,400,,,
trial,html.Screen,4_35_0,2023-05-01T20:45:29.322Z,,0,1,,4705.100000000006,response,ISIC_0001875.JPG,,ISIC_1578253.JPG,ISIC_1578253.JPG,false,0,keypress(z),500,255124.70000004768,255124.5,250402.708,250403.5,250419.4,255136.151,8,400,36,,ISIC_0001875.JPG
break,html.Screen,4_35_1,2023-05-01T20:45:29.323Z,,0,,,NaN,,,,,,false,,,,255125.40000009537,255125.40000009537,,255124.90000009537,,255136.151,8,400,,,
break_continue,html.Screen,4_35_2,2023-05-01T20:45:29.323Z,,0,,,NaN,,,,,,false,,,,255125.60000002384,255125.5,,255125.5,,255136.151,8,400,,,
sequence,flow.Sequence,4_35,2023-05-01T20:45:29.323Z,,0,,,4706.100000000006,completion,,,,,false,,,,255125.70000004768,255125.5,250402.708,250403.5,250419.4,255136.151,8,400,,,
trial,html.Screen,4_36_0,2023-05-01T20:45:32.493Z,,0,1,,3159.049000047671,response,ISIC_9876004.JPG,,ISIC_6785680.JPG,ISIC_6785680.JPG,false,0,keypress(z),500,258295.5,258295.20000004768,255119.459,255125.70000004768,255136.151,258302.864,8,400,37,,ISIC_9876004.JPG
break,html.Screen,4_36_1,2023-05-01T20:45:32.494Z,,0,,,NaN,,,,,,false,,,,258296.80000007153,258296.5,,258295.60000002384,,258302.864,8,400,,,
break_continue,html.Screen,4_36_2,2023-05-01T20:45:32.495Z,,0,,,NaN,,,,,,false,,,,258297.20000004768,258297,,258296.90000009537,,258302.864,8,400,,,
sequence,flow.Sequence,4_36,2023-05-01T20:45:32.495Z,,0,,,3160.8489999999874,completion,,,,,false,,,,258297.40000009537,258297,255119.459,255125.70000004768,255136.151,258302.864,8,400,,,
trial,html.Screen,4_37_0,2023-05-01T20:45:35.478Z,,0,1,,2976.936000071524,response,ISIC_0069635.JPG,,ISIC_0001101.JPG,ISIC_0069635.JPG,false,1,keypress(m),500,261280.10000002384,261279.80000007153,258286.228,258297.5,258302.864,261286.286,8,400,38,,ISIC_0001101.JPG
break,html.Screen,4_37_1,2023-05-01T20:45:35.479Z,,0,,,NaN,,,,,,false,,,,261281.40000009537,261280.90000009537,,261280.30000007153,,261286.286,8,400,,,
break_continue,html.Screen,4_37_2,2023-05-01T20:45:35.479Z,,0,,,NaN,,,,,,false,,,,261281.90000009537,261281.70000004768,,261281.60000002384,,261286.286,8,400,,,
sequence,flow.Sequence,4_37,2023-05-01T20:45:35.480Z,,0,,,2978.8360000476823,completion,,,,,false,,,,261282.10000002384,261281.70000004768,258286.228,258297.40000009537,258302.864,261286.286,8,400,,,
trial,html.Screen,4_38_0,2023-05-01T20:45:38.511Z,,0,1,,3026.714000000007,response,ISIC_7694069.JPG,,ISIC_0013626.JPG,ISIC_0013626.JPG,false,0,keypress(z),500,264313.2000000477,264313,261269.623,261282.30000007153,261286.286,264319.679,8,400,39,,ISIC_7694069.JPG
break,html.Screen,4_38_1,2023-05-01T20:45:38.512Z,,0,,,NaN,,,,,,false,,,,264314.40000009537,264314.10000002384,,264313.5,,264319.679,8,400,,,
break_continue,html.Screen,4_38_2,2023-05-01T20:45:38.512Z,,0,,,NaN,,,,,,false,,,,264314.90000009537,264314.8000000715,,264314.60000002384,,264319.679,8,400,,,
sequence,flow.Sequence,4_38,2023-05-01T20:45:38.513Z,,0,,,3028.514000071533,completion,,,,,false,,,,264315.40000009537,264314.8000000715,261269.623,261282.20000004768,261286.286,264319.679,8,400,,,
trial,html.Screen,4_39_0,2023-05-01T20:45:41.096Z,,0,1,,2578.3209999999963,response,ISIC_0027596.JPG,,ISIC_9485536.JPG,ISIC_0027596.JPG,false,1,keypress(m),500,266898.2000000477,266898,264302.998,264315.60000002384,264319.679,266903.072,8,400,40,,ISIC_9485536.JPG
break,html.Screen,4_39_1,2023-05-01T20:45:41.096Z,,0,,,NaN,,,,,,false,,,,266899,266898.7000000477,,266898.3000000715,,266903.072,8,400,,,
break_continue,html.Screen,4_39_2,2023-05-01T20:45:41.097Z,,0,,,NaN,,,,,,false,,,,266899.3000000715,266899.2000000477,,266899.10000002384,,266903.072,8,400,,,
sequence,flow.Sequence,4_39,2023-05-01T20:45:41.097Z,,0,,,2579.52100004768,completion,,,,,false,,,,266899.40000009537,266899.2000000477,264302.998,264315.5,264319.679,266903.072,8,400,,,
trial,html.Screen,4_40_0,2023-05-01T20:45:43.752Z,,0,1,,2651.0280000238563,response,ISIC_0010998.JPG,,ISIC_0011691.JPG,ISIC_0011691.JPG,false,0,keypress(z),500,269554.3000000715,269554.10000002384,266886.392,266899.5,266903.072,269569.922,8,400,41,,ISIC_0010998.JPG
break,html.Screen,4_40_1,2023-05-01T20:45:43.752Z,,0,,,NaN,,,,,,false,,,,269555,269554.8000000715,,269554.5,,269569.922,8,400,,,
break_continue,html.Screen,4_40_2,2023-05-01T20:45:43.753Z,,0,,,NaN,,,,,,false,,,,269555.60000002384,269555.40000009537,,269555.3000000715,,269569.922,8,400,,,
sequence,flow.Sequence,4_40,2023-05-01T20:45:43.753Z,,0,,,2652.328000095382,completion,,,,,false,,,,269555.8000000715,269555.40000009537,266886.392,266899.5,266903.072,269569.922,8,400,,,
trial,html.Screen,4_41_0,2023-05-01T20:45:46.558Z,,0,1,,2790.1780000238214,response,ISIC_4404772.JPG,,ISIC_7601403.JPG,ISIC_4404772.JPG,false,1,keypress(m),500,272360.3000000715,272360.10000002384,269553.148,269555.90000009537,269569.922,272369.973,8,400,42,,ISIC_7601403.JPG
break,html.Screen,4_41_1,2023-05-01T20:45:46.559Z,,0,,,NaN,,,,,,false,,,,272361.5,272360.90000009537,,272360.5,,272369.973,8,400,,,
break_continue,html.Screen,4_41_2,2023-05-01T20:45:46.559Z,,0,,,NaN,,,,,,false,,,,272361.8000000715,272361.7000000477,,272361.60000002384,,272369.973,8,400,,,
sequence,flow.Sequence,4_41,2023-05-01T20:45:46.559Z,,0,,,2791.778000047663,completion,,,,,false,,,,272361.90000009537,272361.7000000477,269553.148,269555.90000009537,269569.922,272369.973,8,400,,,
trial,html.Screen,4_42_0,2023-05-01T20:45:50.449Z,,0,1,,3881.7270000476856,response,ISIC_6507792.JPG,,ISIC_0026924.JPG,ISIC_6507792.JPG,false,1,keypress(m),500,276252,276251.7000000477,272353.151,272362.10000002384,272369.973,276272.789,8,400,43,,ISIC_0026924.JPG
break,html.Screen,4_42_1,2023-05-01T20:45:50.451Z,,0,,,NaN,,,,,,false,,,,276253.10000002384,276252.60000002384,,276252.10000002384,,276272.789,8,400,,,
break_continue,html.Screen,4_42_2,2023-05-01T20:45:50.451Z,,0,,,NaN,,,,,,false,,,,276253.5,276253.40000009537,,276253.3000000715,,276272.789,8,400,,,
sequence,flow.Sequence,4_42,2023-05-01T20:45:50.451Z,,0,,,3883.4270000953693,completion,,,,,false,,,,276253.8000000715,276253.40000009537,272353.151,272362.10000002384,272369.973,276272.789,8,400,,,
trial,html.Screen,4_43_0,2023-05-01T20:45:54.676Z,,0,1,,4205.811000023852,response,ISIC_3163773.JPG,,ISIC_0011095.JPG,ISIC_0011095.JPG,false,0,keypress(z),500,280478.90000009537,280478.60000002384,276236.621,276254,276272.789,280486.636,8,400,44,,ISIC_3163773.JPG
break,html.Screen,4_43_1,2023-05-01T20:45:54.678Z,,0,,,NaN,,,,,,false,,,,280480.2000000477,280480,,280479.10000002384,,280486.636,8,400,,,
break_continue,html.Screen,4_43_2,2023-05-01T20:45:54.678Z,,0,,,NaN,,,,,,false,,,,280480.5,280480.40000009537,,280480.3000000715,,280486.636,8,400,,,
sequence,flow.Sequence,4_43,2023-05-01T20:45:54.678Z,,0,,,4207.611000095378,completion,,,,,false,,,,280480.7000000477,280480.40000009537,276236.621,276254,276272.789,280486.636,8,400,,,
trial,html.Screen,4_44_0,2023-05-01T20:45:57.404Z,,0,1,,2719.564000047685,response,ISIC_0063742.JPG,,ISIC_1294049.JPG,ISIC_0063742.JPG,false,1,keypress(m),500,283206.40000009537,283206.2000000477,280470.016,280480.7000000477,280486.636,283220.041,8,400,45,,ISIC_1294049.JPG
break,html.Screen,4_44_1,2023-05-01T20:45:57.405Z,,0,,,NaN,,,,,,false,,,,283207.60000002384,283207,,283206.60000002384,,283220.041,8,400,,,
break_continue,html.Screen,4_44_2,2023-05-01T20:45:57.405Z,,0,,,NaN,,,,,,false,,,,283207.90000009537,283207.8000000715,,283207.7000000477,,283220.041,8,400,,,
sequence,flow.Sequence,4_44,2023-05-01T20:45:57.405Z,,0,,,2721.164000071527,completion,,,,,false,,,,283208,283207.8000000715,280470.016,280480.7000000477,280486.636,283220.041,8,400,,,
trial,html.Screen,4_45_0,2023-05-01T20:46:00.281Z,,0,1,,2863.5590000238153,response,ISIC_6033222.JPG,,ISIC_0000413.JPG,ISIC_0000413.JPG,false,0,keypress(z),500,286083.7000000477,286083.60000002384,283203.304,283208.10000002384,283220.041,286086.746,8,400,46,,ISIC_6033222.JPG
break,html.Screen,4_45_1,2023-05-01T20:46:00.282Z,,0,,,NaN,,,,,,false,,,,286084.40000009537,286084.3000000715,,286084,,286086.746,8,400,,,
break_continue,html.Screen,4_45_2,2023-05-01T20:46:00.282Z,,0,,,NaN,,,,,,false,,,,286084.90000009537,286084.8000000715,,286084.7000000477,,286086.746,8,400,,,
sequence,flow.Sequence,4_45,2023-05-01T20:46:00.283Z,,0,,,2864.759000071499,completion,,,,,false,,,,286085.10000002384,286084.8000000715,283203.304,283208.10000002384,283220.041,286086.746,8,400,,,
trial,html.Screen,4_46_0,2023-05-01T20:46:03.517Z,,0,1,,3232.2540000000154,response,ISIC_6637542.JPG,,ISIC_0054206.JPG,ISIC_6637542.JPG,false,1,keypress(m),500,289319.2000000477,289319,286070.067,286085.3000000715,286086.746,289336.871,8,400,47,,ISIC_0054206.JPG
break,html.Screen,4_46_1,2023-05-01T20:46:03.517Z,,0,,,NaN,,,,,,false,,,,289319.90000009537,289319.7000000477,,289319.40000009537,,289336.871,8,400,,,
break_continue,html.Screen,4_46_2,2023-05-01T20:46:03.518Z,,0,,,NaN,,,,,,false,,,,289320.40000009537,289320.3000000715,,289320.10000002384,,289336.871,8,400,,,
sequence,flow.Sequence,4_46,2023-05-01T20:46:03.518Z,,0,,,3233.554000071541,completion,,,,,false,,,,289320.7000000477,289320.3000000715,286070.067,286085.2000000477,286086.746,289336.871,8,400,,,
trial,html.Screen,4_47_0,2023-05-01T20:46:06.496Z,,0,1,,2960.929000071541,response,ISIC_6392461.JPG,,ISIC_6640227.JPG,ISIC_6640227.JPG,false,0,keypress(z),500,292298.10000002384,292297.8000000715,289303.471,289320.8000000715,289336.871,292303.566,8,400,48,,ISIC_6392461.JPG
break,html.Screen,4_47_1,2023-05-01T20:46:06.497Z,,0,,,NaN,,,,,,false,,,,292299.2000000477,292299,,292298.2000000477,,292303.566,8,400,,,
break_continue,html.Screen,4_47_2,2023-05-01T20:46:06.497Z,,0,,,NaN,,,,,,false,,,,292299.7000000477,292299.5,,292299.40000009537,,292303.566,8,400,,,
sequence,flow.Sequence,4_47,2023-05-01T20:46:06.497Z,,0,,,2962.6290000000154,completion,,,,,false,,,,292300,292299.5,289303.471,289320.8000000715,289336.871,292303.566,8,400,,,
trial,html.Screen,4_48_0,2023-05-01T20:46:09.968Z,,0,1,,3466.834000095376,response,ISIC_0001101.JPG,,ISIC_0350472.JPG,ISIC_0001101.JPG,false,1,keypress(m),500,295770.60000002384,295770.40000009537,292286.866,292300.2000000477,292303.566,295786.965,8,400,49,,ISIC_0350472.JPG
break,html.Screen,4_48_1,2023-05-01T20:46:09.969Z,,0,,,NaN,,,,,,false,,,,295771.7000000477,295771.10000002384,,295770.8000000715,,295786.965,8,400,,,
break_continue,html.Screen,4_48_2,2023-05-01T20:46:09.970Z,,0,,,NaN,,,,,,false,,,,295772.10000002384,295772,,295771.90000009537,,295786.965,8,400,,,
sequence,flow.Sequence,4_48,2023-05-01T20:46:09.970Z,,0,,,3468.4340000000084,completion,,,,,false,,,,295772.2000000477,295772,292286.866,292300.10000002384,292303.566,295786.965,8,400,,,
trial,html.Screen,4_49_0,2023-05-01T20:46:13.278Z,,0,1,,3293.0349999999744,response,ISIC_3377082.JPG,,ISIC_1531204.JPG,ISIC_3377082.JPG,false,1,keypress(m),500,299080.2000000477,299080,295770.212,295772.3000000715,295786.965,299086.919,8,400,50,,ISIC_1531204.JPG
break,html.Screen,4_49_1,2023-05-01T20:46:18.269Z,,0,,,5000.237000000023,timeout,,,,,false,,,,304071.60000002384,304070.448,299070.313,299080.5,299086.919,304087.156,8,400,,,
break_continue,html.Screen,4_49_2,2023-05-01T20:46:20.100Z,,0,,,1801.9440000238246,response,,,,,false,continue,keypress(Space),,305902.3000000715,305889.10000002384,304070.448,304071.8000000715,304087.156,305922.572,8,400,,,
sequence,flow.Sequence,4_49,2023-05-01T20:46:20.100Z,,0,,,10102.135000023816,completion,,,,,false,,,,305902.40000009537,305889.10000002384,295770.212,295772.3000000715,295786.965,305922.572,8,400,,,
trial,html.Screen,4_50_0,2023-05-01T20:46:22.925Z,,0,2,,2804.128000047698,response,ISIC_8869249.JPG,,ISIC_0033881.JPG,ISIC_0033881.JPG,false,0,keypress(z),500,308726.90000009537,308726.7000000477,305887.204,305902.5,305922.572,308737.113,8,400,1,,ISIC_8869249.JPG
break,html.Screen,4_50_1,2023-05-01T20:46:22.926Z,,0,,,NaN,,,,,,false,,,,308728.3000000715,308728,,308727.10000002384,,308737.113,8,400,,,
break_continue,html.Screen,4_50_2,2023-05-01T20:46:22.926Z,,0,,,NaN,,,,,,false,,,,308728.7000000477,308728.60000002384,,308728.5,,308737.113,8,400,,,
sequence,flow.Sequence,4_50,2023-05-01T20:46:22.926Z,,0,,,2806.0280000238563,completion,,,,,false,,,,308728.90000009537,308728.60000002384,305887.204,305902.5,305922.572,308737.113,8,400,,,
trial,html.Screen,4_51_0,2023-05-01T20:46:26.370Z,,0,2,,3434.9870000238298,response,ISIC_0032149.JPG,,ISIC_7670817.JPG,ISIC_0032149.JPG,false,1,keypress(m),500,312172.2000000477,312172.10000002384,308720.479,308729,308737.113,312187.234,8,400,2,,ISIC_7670817.JPG
break,html.Screen,4_51_1,2023-05-01T20:46:26.371Z,,0,,,NaN,,,,,,false,,,,312173.40000009537,312172.8000000715,,312172.40000009537,,312187.234,8,400,,,
break_continue,html.Screen,4_51_2,2023-05-01T20:46:26.371Z,,0,,,NaN,,,,,,false,,,,312173.7000000477,312173.60000002384,,312173.5,,312187.234,8,400,,,
sequence,flow.Sequence,4_51,2023-05-01T20:46:26.372Z,,0,,,3436.4870000238298,completion,,,,,false,,,,312174,312173.60000002384,308720.479,308729,308737.113,312187.234,8,400,,,
trial,html.Screen,4_52_0,2023-05-01T20:46:29.093Z,,0,2,,2708.2660000000033,response,ISIC_0061624.JPG,,ISIC_0001137.JPG,ISIC_0061624.JPG,false,1,keypress(m),500,314895.7000000477,314895.5,312170.658,312174.10000002384,312187.234,314904.108,8,400,3,,ISIC_0001137.JPG
break,html.Screen,4_52_1,2023-05-01T20:46:29.095Z,,0,,,NaN,,,,,,false,,,,314897.10000002384,314896.90000009537,,314895.90000009537,,314904.108,8,400,,,
break_continue,html.Screen,4_52_2,2023-05-01T20:46:29.095Z,,0,,,NaN,,,,,,false,,,,314897.60000002384,314897.5,,314897.3000000715,,314904.108,8,400,,,
sequence,flow.Sequence,4_52,2023-05-01T20:46:29.095Z,,0,,,2710.2660000000033,completion,,,,,false,,,,314897.8000000715,314897.5,312170.658,312174,312187.234,314904.108,8,400,,,
trial,html.Screen,4_53_0,2023-05-01T20:46:32.084Z,,0,2,,2981.9920000238344,response,ISIC_5993356.JPG,,ISIC_9448281.JPG,ISIC_5993356.JPG,false,1,keypress(m),500,317886.3000000715,317886.10000002384,314887.26,314897.90000009537,314904.108,317920.709,8,400,4,,ISIC_9448281.JPG
break,html.Screen,4_53_1,2023-05-01T20:46:32.085Z,,0,,,NaN,,,,,,false,,,,317887.60000002384,317886.8000000715,,317886.5,,317920.709,8,400,,,
break_continue,html.Screen,4_53_2,2023-05-01T20:46:32.085Z,,0,,,NaN,,,,,,false,,,,317887.90000009537,317887.8000000715,,317887.8000000715,,317920.709,8,400,,,
sequence,flow.Sequence,4_53,2023-05-01T20:46:32.086Z,,0,,,2983.692000071518,completion,,,,,false,,,,317888.2000000477,317887.8000000715,314887.26,314897.90000009537,314904.108,317920.709,8,400,,,
trial,html.Screen,4_54_0,2023-05-01T20:46:34.935Z,,0,2,,2816.3910000238684,response,ISIC_4548995.JPG,,ISIC_8147189.JPG,ISIC_8147189.JPG,false,0,keypress(z),500,320737.40000009537,320737.10000002384,317904.006,317888.40000009537,317920.709,320754.219,8,400,5,,ISIC_4548995.JPG
break,html.Screen,4_54_1,2023-05-01T20:46:34.936Z,,0,,,NaN,,,,,,false,,,,320738.5,320737.90000009537,,320737.60000002384,,320754.219,8,400,,,
break_continue,html.Screen,4_54_2,2023-05-01T20:46:34.936Z,,0,,,NaN,,,,,,false,,,,320738.90000009537,320738.8000000715,,320738.7000000477,,320754.219,8,400,,,
sequence,flow.Sequence,4_54,2023-05-01T20:46:34.937Z,,0,,,2818.091000071552,completion,,,,,false,,,,320739,320738.8000000715,317904.006,317888.3000000715,317920.709,320754.219,8,400,,,
trial,html.Screen,4_55_0,2023-05-01T20:46:37.726Z,,0,2,,2773.7810000000172,response,ISIC_0655635.JPG,,ISIC_6732560.JPG,ISIC_0655635.JPG,false,1,keypress(m),500,323528.3000000715,323528,320737.45,320739.2000000477,320754.219,323537.418,8,400,6,,ISIC_6732560.JPG
break,html.Screen,4_55_1,2023-05-01T20:46:37.727Z,,0,,,NaN,,,,,,false,,,,323529.60000002384,323529.3000000715,,323528.5,,323537.418,8,400,,,
break_continue,html.Screen,4_55_2,2023-05-01T20:46:37.727Z,,0,,,NaN,,,,,,false,,,,323529.90000009537,323529.8000000715,,323529.7000000477,,323537.418,8,400,,,
sequence,flow.Sequence,4_55,2023-05-01T20:46:37.728Z,,0,,,2775.581000071543,completion,,,,,false,,,,323530,323529.8000000715,320737.45,320739.10000002384,320754.219,323537.418,8,400,,,
trial,html.Screen,4_56_0,2023-05-01T20:46:40.649Z,,0,2,,2914.2820000476786,response,ISIC_0026559.JPG,,ISIC_0014108.JPG,ISIC_0026559.JPG,false,1,keypress(m),500,326451.90000009537,326451.7000000477,323520.877,323530.10000002384,323537.418,326454.12,8,400,7,,ISIC_0014108.JPG
break,html.Screen,4_56_1,2023-05-01T20:46:40.651Z,,0,,,NaN,,,,,,false,,,,326453,326452.40000009537,,326452.10000002384,,326454.12,8,400,,,
break_continue,html.Screen,4_56_2,2023-05-01T20:46:40.651Z,,0,,,NaN,,,,,,false,,,,326453.3000000715,326453.2000000477,,326453.10000002384,,326454.12,8,400,,,
sequence,flow.Sequence,4_56,2023-05-01T20:46:40.651Z,,0,,,2915.7820000476786,completion,,,,,false,,,,326453.5,326453.2000000477,323520.877,323530.10000002384,323537.418,326454.12,8,400,,,
trial,html.Screen,4_57_0,2023-05-01T20:46:43.642Z,,0,2,,2989.6800000715302,response,ISIC_4632020.JPG,,ISIC_2375394.JPG,ISIC_4632020.JPG,false,1,keypress(m),500,329444,329443.8000000715,326437.556,326453.7000000477,326454.12,329454.401,8,400,8,,ISIC_2375394.JPG
break,html.Screen,4_57_1,2023-05-01T20:46:43.643Z,,0,,,NaN,,,,,,false,,,,329445.2000000477,329445,,329444.2000000477,,329454.401,8,400,,,
break_continue,html.Screen,4_57_2,2023-05-01T20:46:43.643Z,,0,,,NaN,,,,,,false,,,,329445.60000002384,329445.5,,329445.40000009537,,329454.401,8,400,,,
sequence,flow.Sequence,4_57,2023-05-01T20:46:43.643Z,,0,,,2991.3800000000047,completion,,,,,false,,,,329445.7000000477,329445.5,326437.556,326453.60000002384,326454.12,329454.401,8,400,,,
trial,html.Screen,4_58_0,2023-05-01T20:46:47.940Z,,0,2,,4287.999000095355,response,ISIC_0033678.JPG,,ISIC_0070092.JPG,ISIC_0070092.JPG,false,0,keypress(z),500,333742.7000000477,333742.40000009537,329437.609,329445.8000000715,329454.401,333754.432,8,400,9,,ISIC_0033678.JPG
break,html.Screen,4_58_1,2023-05-01T20:46:47.942Z,,0,,,NaN,,,,,,false,,,,333743.90000009537,333743.40000009537,,333742.90000009537,,333754.432,8,400,,,
break_continue,html.Screen,4_58_2,2023-05-01T20:46:47.942Z,,0,,,NaN,,,,,,false,,,,333744.3000000715,333744.10000002384,,333744.10000002384,,333754.432,8,400,,,
sequence,flow.Sequence,4_58,2023-05-01T20:46:47.942Z,,0,,,4289.699000023829,completion,,,,,false,,,,333744.40000009537,333744.10000002384,329437.609,329445.8000000715,329454.401,333754.432,8,400,,,
trial,html.Screen,4_59_0,2023-05-01T20:46:50.792Z,,0,2,,2839.768000047712,response,ISIC_0059601.JPG,,ISIC_0148751.JPG,ISIC_0059601.JPG,false,1,keypress(m),500,336594.40000009537,336594.2000000477,333737.578,333744.60000002384,333754.432,336604.333,8,400,10,,ISIC_0148751.JPG
break,html.Screen,4_59_1,2023-05-01T20:46:50.793Z,,0,,,NaN,,,,,,false,,,,336595.60000002384,336595.10000002384,,336594.60000002384,,336604.333,8,400,,,
break_continue,html.Screen,4_59_2,2023-05-01T20:46:50.794Z,,0,,,NaN,,,,,,false,,,,336596,336595.90000009537,,336595.8000000715,,336604.333,8,400,,,
sequence,flow.Sequence,4_59,2023-05-01T20:46:50.794Z,,0,,,2841.468000095396,completion,,,,,false,,,,336596.2000000477,336595.90000009537,333737.578,333744.60000002384,333754.432,336604.333,8,400,,,
trial,html.Screen,4_60_0,2023-05-01T20:46:53.455Z,,0,2,,2653.2670000238577,response,ISIC_1490986.JPG,,ISIC_1848300.JPG,ISIC_1490986.JPG,false,1,keypress(m),500,339257.8000000715,339257.60000002384,336587.723,336596.3000000715,336604.333,339271.086,8,400,11,,ISIC_1848300.JPG
break,html.Screen,4_60_1,2023-05-01T20:46:53.457Z,,0,,,NaN,,,,,,false,,,,339258.90000009537,339258.3000000715,,339258,,339271.086,8,400,,,
break_continue,html.Screen,4_60_2,2023-05-01T20:46:53.457Z,,0,,,NaN,,,,,,false,,,,339259.3000000715,339259.2000000477,,339259.10000002384,,339271.086,8,400,,,
sequence,flow.Sequence,4_60,2023-05-01T20:46:53.457Z,,0,,,2654.8670000476995,completion,,,,,false,,,,339259.40000009537,339259.2000000477,336587.723,336596.3000000715,336604.333,339271.086,8,400,,,
trial,html.Screen,4_61_0,2023-05-01T20:46:57.048Z,,0,2,,3579.1140000476735,response,ISIC_0025155.JPG,,ISIC_0028207.JPG,ISIC_0028207.JPG,false,0,keypress(z),500,342850.5,342850.2000000477,339254.435,339259.5,339271.086,342854.446,8,400,12,,ISIC_0025155.JPG
break,html.Screen,4_61_1,2023-05-01T20:46:57.049Z,,0,,,NaN,,,,,,false,,,,342851.7000000477,342851.10000002384,,342850.60000002384,,342854.446,8,400,,,
break_continue,html.Screen,4_61_2,2023-05-01T20:46:57.050Z,,0,,,NaN,,,,,,false,,,,342852.10000002384,342852,,342851.8000000715,,342854.446,8,400,,,
sequence,flow.Sequence,4_61,2023-05-01T20:46:57.050Z,,0,,,3580.9139999999898,completion,,,,,false,,,,342852.2000000477,342852,339254.435,339259.5,339271.086,342854.446,8,400,,,
trial,html.Screen,4_62_0,2023-05-01T20:46:59.968Z,,0,2,,2915.3540000715293,response,ISIC_0007084.JPG,,ISIC_0025732.JPG,ISIC_0025732.JPG,false,0,keypress(z),500,345770,345769.8000000715,342837.843,342852.3000000715,342854.446,345789.819,8,400,13,,ISIC_0007084.JPG
break,html.Screen,4_62_1,2023-05-01T20:46:59.969Z,,0,,,NaN,,,,,,false,,,,345771.3000000715,345770.60000002384,,345770.2000000477,,345789.819,8,400,,,
break_continue,html.Screen,4_62_2,2023-05-01T20:46:59.969Z,,0,,,NaN,,,,,,false,,,,345771.5,345771.40000009537,,345771.40000009537,,345789.819,8,400,,,
sequence,flow.Sequence,4_62,2023-05-01T20:46:59.969Z,,0,,,2916.954000095371,completion,,,,,false,,,,345771.7000000477,345771.40000009537,342837.843,342852.3000000715,342854.446,345789.819,8,400,,,
trial,html.Screen,4_63_0,2023-05-01T20:47:02.733Z,,0,2,,2745.781000023824,response,ISIC_1069587.JPG,,ISIC_0033192.JPG,ISIC_0033192.JPG,false,0,keypress(z),500,348535.8000000715,348535.60000002384,345754.576,345771.8000000715,345789.819,348537.871,8,400,14,,ISIC_1069587.JPG
break,html.Screen,4_63_1,2023-05-01T20:47:02.735Z,,0,,,NaN,,,,,,false,,,,348537,348536.40000009537,,348536,,348537.871,8,400,,,
break_continue,html.Screen,4_63_2,2023-05-01T20:47:02.735Z,,0,,,NaN,,,,,,false,,,,348537.40000009537,348537.3000000715,,348537.10000002384,,348537.871,8,400,,,
sequence,flow.Sequence,4_63,2023-05-01T20:47:02.735Z,,0,,,2747.481000071508,completion,,,,,false,,,,348537.7000000477,348537.3000000715,345754.576,345771.8000000715,345789.819,348537.871,8,400,,,
trial,html.Screen,4_64_0,2023-05-01T20:47:06.022Z,,0,2,,3285.929000071541,response,ISIC_0924902.JPG,,ISIC_0010649.JPG,ISIC_0010649.JPG,false,0,keypress(z),500,351824,351823.8000000715,348521.28,348537.8000000715,348537.871,351837.998,8,400,15,,ISIC_0924902.JPG
break,html.Screen,4_64_1,2023-05-01T20:47:06.023Z,,0,,,NaN,,,,,,false,,,,351825.10000002384,351824.5,,351824.2000000477,,351837.998,8,400,,,
break_continue,html.Screen,4_64_2,2023-05-01T20:47:06.023Z,,0,,,NaN,,,,,,false,,,,351825.40000009537,351825.3000000715,,351825.3000000715,,351837.998,8,400,,,
sequence,flow.Sequence,4_64,2023-05-01T20:47:06.023Z,,0,,,3287.429000071541,completion,,,,,false,,,,351825.60000002384,351825.3000000715,348521.28,348537.8000000715,348537.871,351837.998,8,400,,,
trial,html.Screen,4_65_0,2023-05-01T20:47:09.143Z,,0,2,,3107.402000095346,response,ISIC_0062770.JPG,,ISIC_0065022.JPG,ISIC_0065022.JPG,false,0,keypress(z),500,354945.60000002384,354945.40000009537,351821.258,351825.7000000477,351837.998,354954.659,8,400,16,,ISIC_0062770.JPG
break,html.Screen,4_65_1,2023-05-01T20:47:09.144Z,,0,,,NaN,,,,,,false,,,,354946.8000000715,354946.2000000477,,354945.90000009537,,354954.659,8,400,,,
break_continue,html.Screen,4_65_2,2023-05-01T20:47:09.145Z,,0,,,NaN,,,,,,false,,,,354947.2000000477,354947,,354946.90000009537,,354954.659,8,400,,,
sequence,flow.Sequence,4_65,2023-05-01T20:47:09.145Z,,0,,,3109.0019999999786,completion,,,,,false,,,,354947.3000000715,354947,351821.258,351825.60000002384,351837.998,354954.659,8,400,,,
trial,html.Screen,4_66_0,2023-05-01T20:47:11.576Z,,0,2,,2423.841000000015,response,ISIC_7340926.JPG,,ISIC_3529778.JPG,ISIC_7340926.JPG,false,1,keypress(m),500,357378.7000000477,357378.5,354938.11,354947.5,354954.659,357388.032,8,400,17,,ISIC_3529778.JPG
break,html.Screen,4_66_1,2023-05-01T20:47:11.577Z,,0,,,NaN,,,,,,false,,,,357379.90000009537,357379.3000000715,,357379,,357388.032,8,400,,,
break_continue,html.Screen,4_66_2,2023-05-01T20:47:11.578Z,,0,,,NaN,,,,,,false,,,,357380.3000000715,357380.2000000477,,357380,,357388.032,8,400,,,
sequence,flow.Sequence,4_66,2023-05-01T20:47:11.578Z,,0,,,2425.5410000476986,completion,,,,,false,,,,357380.40000009537,357380.2000000477,354938.11,354947.40000009537,354954.659,357388.032,8,400,,,
trial,html.Screen,4_67_0,2023-05-01T20:47:14.398Z,,0,2,,2812.4679999999935,response,ISIC_2021175.JPG,,ISIC_9887341.JPG,ISIC_2021175.JPG,false,1,keypress(m),500,360200.8000000715,360200.5,357371.386,357380.5,357388.032,360204.822,8,400,18,,ISIC_9887341.JPG
break,html.Screen,4_67_1,2023-05-01T20:47:14.400Z,,0,,,NaN,,,,,,false,,,,360202.2000000477,360202,,360200.90000009537,,360204.822,8,400,,,
break_continue,html.Screen,4_67_2,2023-05-01T20:47:14.400Z,,0,,,NaN,,,,,,false,,,,360202.60000002384,360202.5,,360202.40000009537,,360204.822,8,400,,,
sequence,flow.Sequence,4_67,2023-05-01T20:47:14.400Z,,0,,,2814.4679999999935,completion,,,,,false,,,,360202.8000000715,360202.5,357371.386,357380.40000009537,357388.032,360204.822,8,400,,,
trial,html.Screen,4_68_0,2023-05-01T20:47:18.246Z,,0,2,,3843.878000047698,response,ISIC_0027031.JPG,,ISIC_1166740.JPG,ISIC_1166740.JPG,false,0,keypress(z),500,364048.90000009537,364048.7000000477,360188.193,360202.8000000715,360204.822,364054.964,8,400,19,,ISIC_0027031.JPG
break,html.Screen,4_68_1,2023-05-01T20:47:18.248Z,,0,,,NaN,,,,,,false,,,,364050.10000002384,364049.5,,364049.10000002384,,364054.964,8,400,,,
break_continue,html.Screen,4_68_2,2023-05-01T20:47:18.248Z,,0,,,NaN,,,,,,false,,,,364050.40000009537,364050.3000000715,,364050.2000000477,,364054.964,8,400,,,
sequence,flow.Sequence,4_68,2023-05-01T20:47:18.248Z,,0,,,3845.47800007154,completion,,,,,false,,,,364050.60000002384,364050.3000000715,360188.193,360202.8000000715,360204.822,364054.964,8,400,,,
trial,html.Screen,4_69_0,2023-05-01T20:47:21.509Z,,0,2,,3256.536000000022,response,ISIC_0010376.JPG,,ISIC_0054244.JPG,ISIC_0010376.JPG,false,1,keypress(m),500,367311.7000000477,367311.5,364038.154,364050.7000000477,364054.964,367321.594,8,400,20,,ISIC_0054244.JPG
break,html.Screen,4_69_1,2023-05-01T20:47:21.510Z,,0,,,NaN,,,,,,false,,,,367312.8000000715,367312.3000000715,,367311.90000009537,,367321.594,8,400,,,
break_continue,html.Screen,4_69_2,2023-05-01T20:47:21.511Z,,0,,,NaN,,,,,,false,,,,367313.2000000477,367313.10000002384,,367313,,367321.594,8,400,,,
sequence,flow.Sequence,4_69,2023-05-01T20:47:21.511Z,,0,,,3258.1360000238637,completion,,,,,false,,,,367313.40000009537,367313.10000002384,364038.154,364050.60000002384,364054.964,367321.594,8,400,,,
trial,html.Screen,4_70_0,2023-05-01T20:47:24.452Z,,0,2,,2932.706000071543,response,ISIC_0029502.JPG,,ISIC_0060559.JPG,ISIC_0029502.JPG,false,1,keypress(m),500,370254.60000002384,370254.3000000715,367304.985,367313.40000009537,367321.594,370271.692,8,400,21,,ISIC_0060559.JPG
break,html.Screen,4_70_1,2023-05-01T20:47:24.453Z,,0,,,NaN,,,,,,false,,,,370255.90000009537,370255.2000000477,,370254.7000000477,,370271.692,8,400,,,
break_continue,html.Screen,4_70_2,2023-05-01T20:47:24.454Z,,0,,,NaN,,,,,,false,,,,370256.3000000715,370256.10000002384,,370256,,370271.692,8,400,,,
sequence,flow.Sequence,4_70,2023-05-01T20:47:24.454Z,,0,,,2934.506000023859,completion,,,,,false,,,,370256.5,370256.10000002384,367304.985,367313.40000009537,367321.594,370271.692,8,400,,,
trial,html.Screen,4_71_0,2023-05-01T20:47:27.550Z,,0,2,,3080.6080000715447,response,ISIC_0000541.JPG,,ISIC_3573969.JPG,ISIC_3573969.JPG,false,0,keypress(z),500,373352.5,373352.3000000715,370255.004,370256.60000002384,370271.692,373355.003,8,400,22,,ISIC_0000541.JPG
break,html.Screen,4_71_1,2023-05-01T20:47:27.551Z,,0,,,NaN,,,,,,false,,,,373353.60000002384,373353.10000002384,,373352.7000000477,,373355.003,8,400,,,
break_continue,html.Screen,4_71_2,2023-05-01T20:47:27.551Z,,0,,,NaN,,,,,,false,,,,373353.90000009537,373353.8000000715,,373353.7000000477,,373355.003,8,400,,,
sequence,flow.Sequence,4_71,2023-05-01T20:47:27.552Z,,0,,,3082.1080000715447,completion,,,,,false,,,,373354.10000002384,373353.8000000715,370255.004,370256.5,370271.692,373355.003,8,400,,,
trial,html.Screen,4_72_0,2023-05-01T20:47:30.393Z,,0,2,,2840.2970000714995,response,ISIC_0027882.JPG,,ISIC_5673859.JPG,ISIC_0027882.JPG,false,1,keypress(m),500,376195.40000009537,376195.3000000715,373338.39,373354.2000000477,373355.003,376205.029,8,400,23,,ISIC_5673859.JPG
break,html.Screen,4_72_1,2023-05-01T20:47:30.394Z,,0,,,NaN,,,,,,false,,,,376196.90000009537,376196.7000000477,,376195.7000000477,,376205.029,8,400,,,
break_continue,html.Screen,4_72_2,2023-05-01T20:47:30.395Z,,0,,,NaN,,,,,,false,,,,376197.2000000477,376197.10000002384,,376197.10000002384,,376205.029,8,400,,,
sequence,flow.Sequence,4_72,2023-05-01T20:47:30.395Z,,0,,,2842.097000023816,completion,,,,,false,,,,376197.40000009537,376197.10000002384,373338.39,373354.2000000477,373355.003,376205.029,8,400,,,
trial,html.Screen,4_73_0,2023-05-01T20:47:33.397Z,,0,2,,2994.0710000238614,response,ISIC_0069515.JPG,,ISIC_0000401.JPG,ISIC_0000401.JPG,false,0,keypress(z),500,379199.3000000715,379199.10000002384,376188.319,376197.5,376205.029,379205.09,8,400,24,,ISIC_0069515.JPG
break,html.Screen,4_73_1,2023-05-01T20:47:33.398Z,,0,,,NaN,,,,,,false,,,,379200.5,379200,,379199.60000002384,,379205.09,8,400,,,
break_continue,html.Screen,4_73_2,2023-05-01T20:47:33.398Z,,0,,,NaN,,,,,,false,,,,379200.8000000715,379200.7000000477,,379200.60000002384,,379205.09,8,400,,,
sequence,flow.Sequence,4_73,2023-05-01T20:47:33.398Z,,0,,,2995.6710000477033,completion,,,,,false,,,,379200.90000009537,379200.7000000477,376188.319,376197.40000009537,376205.029,379205.09,8,400,,,
trial,html.Screen,4_74_0,2023-05-01T20:47:36.473Z,,0,2,,3069.610000047658,response,ISIC_5771106.JPG,,ISIC_8626787.JPG,ISIC_5771106.JPG,false,1,keypress(m),500,382274.90000009537,382274.7000000477,379188.509,379201,379205.09,382288.561,8,400,25,,ISIC_8626787.JPG
break,html.Screen,4_74_1,2023-05-01T20:47:36.474Z,,0,,,NaN,,,,,,false,,,,382276.10000002384,382275.60000002384,,382275.10000002384,,382288.561,8,400,,,
break_continue,html.Screen,4_74_2,2023-05-01T20:47:36.474Z,,0,,,NaN,,,,,,false,,,,382276.5,382276.3000000715,,382276.2000000477,,382288.561,8,400,,,
sequence,flow.Sequence,4_74,2023-05-01T20:47:36.474Z,,0,,,3071.2100000715,completion,,,,,false,,,,382276.60000002384,382276.3000000715,379188.509,379201,379205.09,382288.561,8,400,,,
trial,html.Screen,4_75_0,2023-05-01T20:47:39.602Z,,0,2,,3115.8390000953805,response,ISIC_0753491.JPG,,ISIC_7935462.JPG,ISIC_7935462.JPG,false,0,keypress(z),500,385404.5,385404.40000009537,382271.794,382276.8000000715,382288.561,385421.928,8,400,26,,ISIC_0753491.JPG
break,html.Screen,4_75_1,2023-05-01T20:47:39.603Z,,0,,,NaN,,,,,,false,,,,385405.8000000715,385405.2000000477,,385404.8000000715,,385421.928,8,400,,,
break_continue,html.Screen,4_75_2,2023-05-01T20:47:39.604Z,,0,,,NaN,,,,,,false,,,,385406.3000000715,385406.10000002384,,385406,,385421.928,8,400,,,
sequence,flow.Sequence,4_75,2023-05-01T20:47:39.604Z,,0,,,3117.539000023855,completion,,,,,false,,,,385406.40000009537,385406.10000002384,382271.794,382276.7000000477,382288.561,385421.928,8,400,,,
trial,html.Screen,4_76_0,2023-05-01T20:47:42.249Z,,0,2,,2628.872000071511,response,ISIC_2430937.JPG,,ISIC_0012047.JPG,ISIC_0012047.JPG,false,0,keypress(z),500,388051.10000002384,388050.8000000715,385405.282,385406.5,385421.928,388055.292,8,400,27,,ISIC_2430937.JPG
break,html.Screen,4_76_1,2023-05-01T20:47:42.249Z,,0,,,NaN,,,,,,false,,,,388051.8000000715,388051.60000002384,,388051.40000009537,,388055.292,8,400,,,
break_continue,html.Screen,4_76_2,2023-05-01T20:47:42.250Z,,0,,,NaN,,,,,,false,,,,388052.40000009537,388052.3000000715,,388052.2000000477,,388055.292,8,400,,,
sequence,flow.Sequence,4_76,2023-05-01T20:47:42.250Z,,0,,,2630.372000071511,completion,,,,,false,,,,388052.5,388052.3000000715,385405.282,385406.5,385421.928,388055.292,8,400,,,
trial,html.Screen,4_77_0,2023-05-01T20:47:44.851Z,,0,2,,2598.0080000715097,response,ISIC_2307760.JPG,,ISIC_0028626.JPG,ISIC_0028626.JPG,false,0,keypress(z),500,390653.5,390653.3000000715,388038.635,388052.7000000477,388055.292,390679.985,8,400,28,,ISIC_2307760.JPG
break,html.Screen,4_77_1,2023-05-01T20:47:44.852Z,,0,,,NaN,,,,,,false,,,,390654.2000000477,390653.90000009537,,390653.7000000477,,390679.985,8,400,,,
break_continue,html.Screen,4_77_2,2023-05-01T20:47:44.852Z,,0,,,NaN,,,,,,false,,,,390654.60000002384,390654.5,,390654.3000000715,,390679.985,8,400,,,
sequence,flow.Sequence,4_77,2023-05-01T20:47:44.852Z,,0,,,2599.207999999984,completion,,,,,false,,,,390654.7000000477,390654.5,388038.635,388052.60000002384,388055.292,390679.985,8,400,,,
trial,html.Screen,4_78_0,2023-05-01T20:47:47.506Z,,0,2,,2628.2150000476977,response,ISIC_0014974.JPG,,ISIC_0032181.JPG,ISIC_0014974.JPG,false,1,keypress(m),500,393308.3000000715,393308.2000000477,390638.75,390654.8000000715,390679.985,393322.103,8,400,29,,ISIC_0032181.JPG
break,html.Screen,4_78_1,2023-05-01T20:47:47.507Z,,0,,,NaN,,,,,,false,,,,393309.7000000477,393308.90000009537,,393308.5,,393322.103,8,400,,,
break_continue,html.Screen,4_78_2,2023-05-01T20:47:47.508Z,,0,,,NaN,,,,,,false,,,,393310,393309.8000000715,,393309.8000000715,,393322.103,8,400,,,
sequence,flow.Sequence,4_78,2023-05-01T20:47:47.508Z,,0,,,2629.8150000715395,completion,,,,,false,,,,393310.10000002384,393309.8000000715,390638.75,390654.8000000715,390679.985,393322.103,8,400,,,
trial,html.Screen,4_79_0,2023-05-01T20:47:50.091Z,,0,2,,2570.697000071523,response,ISIC_0966527.JPG,,ISIC_6672654.JPG,ISIC_6672654.JPG,false,0,keypress(z),500,395893,395892.8000000715,393305.341,393310.2000000477,393322.103,395905.465,8,400,30,,ISIC_0966527.JPG
break,html.Screen,4_79_1,2023-05-01T20:47:50.092Z,,0,,,NaN,,,,,,false,,,,395894.3000000715,395893.60000002384,,395893.3000000715,,395905.465,8,400,,,
break_continue,html.Screen,4_79_2,2023-05-01T20:47:50.092Z,,0,,,NaN,,,,,,false,,,,395894.60000002384,395894.5,,395894.40000009537,,395905.465,8,400,,,
sequence,flow.Sequence,4_79,2023-05-01T20:47:50.092Z,,0,,,2572.396999999997,completion,,,,,false,,,,395894.8000000715,395894.5,393305.341,393310.2000000477,393322.103,395905.465,8,400,,,
trial,html.Screen,4_80_0,2023-05-01T20:47:52.607Z,,0,2,,2503.3350000715,response,ISIC_0273046.JPG,,ISIC_0653706.JPG,ISIC_0273046.JPG,false,1,keypress(m),500,398409,398408.8000000715,395888.854,395894.8000000715,395905.465,398422.267,8,400,31,,ISIC_0653706.JPG
break,html.Screen,4_80_1,2023-05-01T20:47:52.608Z,,0,,,NaN,,,,,,false,,,,398410.2000000477,398409.60000002384,,398409.10000002384,,398422.267,8,400,,,
break_continue,html.Screen,4_80_2,2023-05-01T20:47:52.608Z,,0,,,NaN,,,,,,false,,,,398410.60000002384,398410.5,,398410.40000009537,,398422.267,8,400,,,
sequence,flow.Sequence,4_80,2023-05-01T20:47:52.608Z,,0,,,2505.0349999999744,completion,,,,,false,,,,398410.7000000477,398410.5,395888.854,395894.8000000715,395905.465,398422.267,8,400,,,
trial,html.Screen,4_81_0,2023-05-01T20:47:55.146Z,,0,2,,2525.933000047691,response,ISIC_2908315.JPG,,ISIC_3593161.JPG,ISIC_3593161.JPG,false,0,keypress(z),500,400948.40000009537,400948.2000000477,398405.505,398410.90000009537,398422.267,400955.486,8,400,32,,ISIC_2908315.JPG
break,html.Screen,4_81_1,2023-05-01T20:47:55.147Z,,0,,,NaN,,,,,,false,,,,400949.5,400948.90000009537,,400948.60000002384,,400955.486,8,400,,,
break_continue,html.Screen,4_81_2,2023-05-01T20:47:55.147Z,,0,,,NaN,,,,,,false,,,,400949.90000009537,400949.8000000715,,400949.60000002384,,400955.486,8,400,,,
sequence,flow.Sequence,4_81,2023-05-01T20:47:55.148Z,,0,,,2527.533000071533,completion,,,,,false,,,,400950.2000000477,400949.8000000715,398405.505,398410.8000000715,398422.267,400955.486,8,400,,,
trial,html.Screen,4_82_0,2023-05-01T20:47:57.578Z,,0,2,,2425.0140000000247,response,ISIC_0025589.JPG,,ISIC_2876073.JPG,ISIC_0025589.JPG,false,1,keypress(m),500,403380.7000000477,403380.5,400939.097,400950.3000000715,400955.486,403405.62,8,400,33,,ISIC_2876073.JPG
break,html.Screen,4_82_1,2023-05-01T20:47:57.579Z,,0,,,NaN,,,,,,false,,,,403381.5,403381.3000000715,,403380.90000009537,,403405.62,8,400,,,
break_continue,html.Screen,4_82_2,2023-05-01T20:47:57.579Z,,0,,,NaN,,,,,,false,,,,403381.90000009537,403381.7000000477,,403381.7000000477,,403405.62,8,400,,,
sequence,flow.Sequence,4_82,2023-05-01T20:47:57.580Z,,0,,,2426.2140000477084,completion,,,,,false,,,,403382,403381.7000000477,400939.097,400950.3000000715,400955.486,403405.62,8,400,,,
trial,html.Screen,4_83_0,2023-05-01T20:48:00.216Z,,0,2,,2612.0800000476884,response,ISIC_0026356.JPG,,ISIC_0026167.JPG,ISIC_0026167.JPG,false,0,keypress(z),500,406018,406017.7000000477,403388.987,403382.10000002384,403405.62,406022.297,8,400,34,,ISIC_0026356.JPG
break,html.Screen,4_83_1,2023-05-01T20:48:00.216Z,,0,,,NaN,,,,,,false,,,,406018.60000002384,406018.5,,406018.2000000477,,406022.297,8,400,,,
break_continue,html.Screen,4_83_2,2023-05-01T20:48:00.216Z,,0,,,NaN,,,,,,false,,,,406019,406018.8000000715,,406018.7000000477,,406022.297,8,400,,,
sequence,flow.Sequence,4_83,2023-05-01T20:48:00.217Z,,0,,,2613.1800000715302,completion,,,,,false,,,,406019.10000002384,406018.8000000715,403388.987,403382.10000002384,403405.62,406022.297,8,400,,,
trial,html.Screen,4_84_0,2023-05-01T20:48:03.007Z,,0,2,,2786.403000047663,response,ISIC_0027221.JPG,,ISIC_7550510.JPG,ISIC_0027221.JPG,false,1,keypress(m),500,408808.90000009537,408808.7000000477,406005.73,406019.2000000477,406022.297,408822.405,8,400,35,,ISIC_7550510.JPG
break,html.Screen,4_84_1,2023-05-01T20:48:03.008Z,,0,,,NaN,,,,,,false,,,,408810.3000000715,408810,,408809.10000002384,,408822.405,8,400,,,
break_continue,html.Screen,4_84_2,2023-05-01T20:48:03.008Z,,0,,,NaN,,,,,,false,,,,408810.5,408810.5,,408810.40000009537,,408822.405,8,400,,,
sequence,flow.Sequence,4_84,2023-05-01T20:48:03.008Z,,0,,,2788.2029999999795,completion,,,,,false,,,,408810.7000000477,408810.5,406005.73,406019.2000000477,406022.297,408822.405,8,400,,,
trial,html.Screen,4_85_0,2023-05-01T20:48:05.559Z,,0,2,,2538.4950000953395,response,ISIC_0034217.JPG,,ISIC_5717433.JPG,ISIC_0034217.JPG,false,1,keypress(m),500,411361.10000002384,411360.90000009537,408805.598,408810.90000009537,408822.405,411372.345,8,400,36,,ISIC_5717433.JPG
break,html.Screen,4_85_1,2023-05-01T20:48:05.559Z,,0,,,NaN,,,,,,false,,,,411361.8000000715,411361.5,,411361.2000000477,,411372.345,8,400,,,
break_continue,html.Screen,4_85_2,2023-05-01T20:48:05.560Z,,0,,,NaN,,,,,,false,,,,411362,411362,,411361.90000009537,,411372.345,8,400,,,
sequence,flow.Sequence,4_85,2023-05-01T20:48:05.560Z,,0,,,2539.594999999972,completion,,,,,false,,,,411362.2000000477,411362,408805.598,408810.8000000715,408822.405,411372.345,8,400,,,
trial,html.Screen,4_86_0,2023-05-01T20:48:08.324Z,,0,2,,2753.655000000028,response,ISIC_0067719.JPG,,ISIC_8714502.JPG,ISIC_0067719.JPG,false,1,keypress(m),500,414126.2000000477,414126,411355.733,411362.3000000715,411372.345,414139.158,8,400,37,,ISIC_8714502.JPG
break,html.Screen,4_86_1,2023-05-01T20:48:08.325Z,,0,,,NaN,,,,,,false,,,,414127.5,414126.8000000715,,414126.40000009537,,414139.158,8,400,,,
break_continue,html.Screen,4_86_2,2023-05-01T20:48:08.325Z,,0,,,NaN,,,,,,false,,,,414127.7000000477,414127.7000000477,,414127.5,,414139.158,8,400,,,
sequence,flow.Sequence,4_86,2023-05-01T20:48:08.325Z,,0,,,2755.3550000477117,completion,,,,,false,,,,414127.90000009537,414127.7000000477,411355.733,411362.3000000715,411372.345,414139.158,8,400,,,
trial,html.Screen,4_87_0,2023-05-01T20:48:11.452Z,,0,2,,3114.6420000715298,response,ISIC_0067318.JPG,,ISIC_0027391.JPG,ISIC_0067318.JPG,false,1,keypress(m),500,417254,417253.8000000715,414122.459,414128,414139.158,417286.008,8,400,38,,ISIC_0027391.JPG
break,html.Screen,4_87_1,2023-05-01T20:48:11.453Z,,0,,,NaN,,,,,,false,,,,417255.2000000477,417254.60000002384,,417254.2000000477,,417286.008,8,400,,,
break_continue,html.Screen,4_87_2,2023-05-01T20:48:11.453Z,,0,,,NaN,,,,,,false,,,,417255.7000000477,417255.60000002384,,417255.3000000715,,417286.008,8,400,,,
sequence,flow.Sequence,4_87,2023-05-01T20:48:11.454Z,,0,,,3116.442000023846,completion,,,,,false,,,,417256,417255.60000002384,414122.459,414128,414139.158,417286.008,8,400,,,
trial,html.Screen,4_88_0,2023-05-01T20:48:14.995Z,,0,2,,3511.0920000238693,response,ISIC_0015436.JPG,,ISIC_0061441.JPG,ISIC_0015436.JPG,false,1,keypress(m),500,420797.3000000715,420797.10000002384,417239.173,417256.2000000477,417286.008,420805.995,8,400,39,,ISIC_0061441.JPG
break,html.Screen,4_88_1,2023-05-01T20:48:14.996Z,,0,,,NaN,,,,,,false,,,,420798.5,420797.90000009537,,420797.40000009537,,420805.995,8,400,,,
break_continue,html.Screen,4_88_2,2023-05-01T20:48:14.996Z,,0,,,NaN,,,,,,false,,,,420798.8000000715,420798.60000002384,,420798.5,,420805.995,8,400,,,
sequence,flow.Sequence,4_88,2023-05-01T20:48:14.996Z,,0,,,3512.5920000238693,completion,,,,,false,,,,420798.90000009537,420798.60000002384,417239.173,417256.2000000477,417286.008,420805.995,8,400,,,
trial,html.Screen,4_89_0,2023-05-01T20:48:18.276Z,,0,2,,3272.1050000238465,response,ISIC_0026671.JPG,,ISIC_0068012.JPG,ISIC_0026671.JPG,false,1,keypress(m),500,424078.3000000715,424078.10000002384,420789.222,420799,420805.995,424089.319,8,400,40,,ISIC_0068012.JPG
break,html.Screen,4_89_1,2023-05-01T20:48:18.277Z,,0,,,NaN,,,,,,false,,,,424079.40000009537,424078.90000009537,,424078.5,,424089.319,8,400,,,
break_continue,html.Screen,4_89_2,2023-05-01T20:48:18.277Z,,0,,,NaN,,,,,,false,,,,424079.7000000477,424079.60000002384,,424079.5,,424089.319,8,400,,,
sequence,flow.Sequence,4_89,2023-05-01T20:48:18.277Z,,0,,,3273.6050000238465,completion,,,,,false,,,,424080,424079.60000002384,420789.222,420799,420805.995,424089.319,8,400,,,
trial,html.Screen,4_90_0,2023-05-01T20:48:21.771Z,,0,2,,3483.6809999999823,response,ISIC_0031863.JPG,,ISIC_9512048.JPG,ISIC_9512048.JPG,false,0,keypress(z),500,427573.2000000477,427573,424072.568,424080.10000002384,424089.319,427589.398,8,400,41,,ISIC_0031863.JPG
break,html.Screen,4_90_1,2023-05-01T20:48:21.772Z,,0,,,NaN,,,,,,false,,,,427574.5,427573.90000009537,,427573.40000009537,,427589.398,8,400,,,
break_continue,html.Screen,4_90_2,2023-05-01T20:48:21.773Z,,0,,,NaN,,,,,,false,,,,427575,427574.8000000715,,427574.7000000477,,427589.398,8,400,,,
sequence,flow.Sequence,4_90,2023-05-01T20:48:21.773Z,,0,,,3485.481000071508,completion,,,,,false,,,,427575.3000000715,427574.8000000715,424072.568,424080,424089.319,427589.398,8,400,,,
trial,html.Screen,4_91_0,2023-05-01T20:48:24.629Z,,0,2,,2841.6020000000135,response,ISIC_3409824.JPG,,ISIC_0011780.JPG,ISIC_0011780.JPG,false,0,keypress(z),500,430431.3000000715,430431,427572.788,427575.40000009537,427589.398,430439.379,8,400,42,,ISIC_3409824.JPG
break,html.Screen,4_91_1,2023-05-01T20:48:24.630Z,,0,,,NaN,,,,,,false,,,,430432.60000002384,430432.10000002384,,430431.60000002384,,430439.379,8,400,,,
break_continue,html.Screen,4_91_2,2023-05-01T20:48:24.631Z,,0,,,NaN,,,,,,false,,,,430433,430432.8000000715,,430432.7000000477,,430439.379,8,400,,,
sequence,flow.Sequence,4_91,2023-05-01T20:48:24.631Z,,0,,,2843.402000071539,completion,,,,,false,,,,430433.10000002384,430432.8000000715,427572.788,427575.3000000715,427589.398,430439.379,8,400,,,
trial,html.Screen,4_92_0,2023-05-01T20:48:27.349Z,,0,2,,2712.2210000238265,response,ISIC_1976571.JPG,,ISIC_0032462.JPG,ISIC_0032462.JPG,false,0,keypress(z),500,433151.8000000715,433151.60000002384,430422.746,430433.2000000477,430439.379,433156.265,8,400,43,,ISIC_1976571.JPG
break,html.Screen,4_92_1,2023-05-01T20:48:27.351Z,,0,,,NaN,,,,,,false,,,,433153.10000002384,433152.40000009537,,433152,,433156.265,8,400,,,
break_continue,html.Screen,4_92_2,2023-05-01T20:48:27.351Z,,0,,,NaN,,,,,,false,,,,433153.40000009537,433153.3000000715,,433153.2000000477,,433156.265,8,400,,,
sequence,flow.Sequence,4_92,2023-05-01T20:48:27.351Z,,0,,,2713.92100007151,completion,,,,,false,,,,433153.5,433153.3000000715,430422.746,430433.2000000477,430439.379,433156.265,8,400,,,
trial,html.Screen,4_93_0,2023-05-01T20:48:30.327Z,,0,2,,2973.4350000476697,response,ISIC_1580034.JPG,,ISIC_1068686.JPG,ISIC_1068686.JPG,false,0,keypress(z),500,436130,436129.7000000477,433139.455,433153.7000000477,433156.265,436139.489,8,400,44,,ISIC_1580034.JPG
break,html.Screen,4_93_1,2023-05-01T20:48:30.329Z,,0,,,NaN,,,,,,false,,,,436131,436130.5,,436130.10000002384,,436139.489,8,400,,,
break_continue,html.Screen,4_93_2,2023-05-01T20:48:30.329Z,,0,,,NaN,,,,,,false,,,,436131.3000000715,436131.3000000715,,436131.10000002384,,436139.489,8,400,,,
sequence,flow.Sequence,4_93,2023-05-01T20:48:30.329Z,,0,,,2975.0350000715116,completion,,,,,false,,,,436131.40000009537,436131.3000000715,433139.455,433153.7000000477,433156.265,436139.489,8,400,,,
trial,html.Screen,4_94_0,2023-05-01T20:48:33.358Z,,0,2,,3020.6110000238405,response,ISIC_0024513.JPG,,ISIC_0010648.JPG,ISIC_0024513.JPG,false,1,keypress(m),500,439160.3000000715,439160.10000002384,436122.86,436131.5,436139.489,439172.93,8,400,45,,ISIC_0010648.JPG
break,html.Screen,4_94_1,2023-05-01T20:48:33.359Z,,0,,,NaN,,,,,,false,,,,439161.40000009537,439160.90000009537,,439160.5,,439172.93,8,400,,,
break_continue,html.Screen,4_94_2,2023-05-01T20:48:33.359Z,,0,,,NaN,,,,,,false,,,,439161.8000000715,439161.60000002384,,439161.5,,439172.93,8,400,,,
sequence,flow.Sequence,4_94,2023-05-01T20:48:33.359Z,,0,,,3022.1110000238405,completion,,,,,false,,,,439162,439161.60000002384,436122.86,436131.5,436139.489,439172.93,8,400,,,
trial,html.Screen,4_95_0,2023-05-01T20:48:36.407Z,,0,2,,3036.7700000476907,response,ISIC_8184471.JPG,,ISIC_5073160.JPG,ISIC_8184471.JPG,false,1,keypress(m),500,442210,442209.7000000477,439156.307,439162.10000002384,439172.93,442223.126,8,400,46,,ISIC_5073160.JPG
break,html.Screen,4_95_1,2023-05-01T20:48:36.408Z,,0,,,NaN,,,,,,false,,,,442210.60000002384,442210.40000009537,,442210.10000002384,,442223.126,8,400,,,
break_continue,html.Screen,4_95_2,2023-05-01T20:48:36.409Z,,0,,,NaN,,,,,,false,,,,442211.10000002384,442211,,442210.90000009537,,442223.126,8,400,,,
sequence,flow.Sequence,4_95,2023-05-01T20:48:36.409Z,,0,,,3038.070000000007,completion,,,,,false,,,,442211.3000000715,442211,439156.307,439162,439172.93,442223.126,8,400,,,
trial,html.Screen,4_96_0,2023-05-01T20:48:39.068Z,,0,2,,2647.0740000476944,response,ISIC_6176182.JPG,,ISIC_3888713.JPG,ISIC_6176182.JPG,false,1,keypress(m),500,444870.5,444870.2000000477,442206.302,442211.40000009537,442223.126,444873.009,8,400,47,,ISIC_3888713.JPG
break,html.Screen,4_96_1,2023-05-01T20:48:39.069Z,,0,,,NaN,,,,,,false,,,,444871.60000002384,444871,,444870.7000000477,,444873.009,8,400,,,
break_continue,html.Screen,4_96_2,2023-05-01T20:48:39.069Z,,0,,,NaN,,,,,,false,,,,444871.90000009537,444871.8000000715,,444871.7000000477,,444873.009,8,400,,,
sequence,flow.Sequence,4_96,2023-05-01T20:48:39.070Z,,0,,,2648.6740000715363,completion,,,,,false,,,,444872,444871.8000000715,442206.302,442211.40000009537,442223.126,444873.009,8,400,,,
trial,html.Screen,4_97_0,2023-05-01T20:48:41.869Z,,0,2,,2797.99099999998,response,ISIC_4887874.JPG,,ISIC_8724944.JPG,ISIC_8724944.JPG,false,0,keypress(z),500,447671.2000000477,447671,444856.267,444872.2000000477,444873.009,447673.053,8,400,48,,ISIC_4887874.JPG
break,html.Screen,4_97_1,2023-05-01T20:48:41.870Z,,0,,,NaN,,,,,,false,,,,447672.5,447671.7000000477,,447671.40000009537,,447673.053,8,400,,,
break_continue,html.Screen,4_97_2,2023-05-01T20:48:41.871Z,,0,,,NaN,,,,,,false,,,,447673,447672.8000000715,,447672.7000000477,,447673.053,8,400,,,
sequence,flow.Sequence,4_97,2023-05-01T20:48:41.871Z,,0,,,2799.7910000715056,completion,,,,,false,,,,447673.5,447672.8000000715,444856.267,444872.2000000477,444873.009,447673.053,8,400,,,
trial,html.Screen,4_98_0,2023-05-01T20:48:44.706Z,,0,2,,2835.1470000476693,response,ISIC_0465385.JPG,,ISIC_6759173.JPG,ISIC_6759173.JPG,false,0,keypress(z),500,450508.5,450508.2000000477,447656.455,447673.8000000715,447673.053,450523.23,8,400,49,,ISIC_0465385.JPG
break,html.Screen,4_98_1,2023-05-01T20:48:44.707Z,,0,,,NaN,,,,,,false,,,,450509.2000000477,450508.90000009537,,450508.7000000477,,450523.23,8,400,,,
break_continue,html.Screen,4_98_2,2023-05-01T20:48:44.707Z,,0,,,NaN,,,,,,false,,,,450509.7000000477,450509.60000002384,,450509.3000000715,,450523.23,8,400,,,
sequence,flow.Sequence,4_98,2023-05-01T20:48:44.707Z,,0,,,2836.5470000238274,completion,,,,,false,,,,450509.90000009537,450509.60000002384,447656.455,447673.7000000477,447673.053,450523.23,8,400,,,
trial,html.Screen,4_99_0,2023-05-01T20:48:47.380Z,,0,2,,2659.070000071544,response,ISIC_3031102.JPG,,ISIC_0032360.JPG,ISIC_0032360.JPG,false,0,keypress(z),500,453182.40000009537,453182.3000000715,450506.481,450510,450523.23,453189.923,8,400,50,,ISIC_3031102.JPG
break,html.Screen,4_99_1,2023-05-01T20:48:52.372Z,,0,,,5000.071999999986,timeout,,,,,false,,,,458174,458173.286,453173.437,453182.40000009537,453189.923,458189.995,8,400,,,
break_continue,html.Screen,4_99_2,2023-05-01T20:48:53.093Z,,0,,,689.7050000476884,response,,,,,false,continue,keypress(Space),,458895.90000009537,458879.7000000477,458173.286,458174.10000002384,458189.995,458906.711,8,400,,,
sequence,flow.Sequence,4_99,2023-05-01T20:48:53.094Z,,0,,,8356.470000047702,completion,,,,,false,,,,458896,458879.7000000477,450506.481,450510,450523.23,458906.711,8,400,,,
trial,html.Screen,4_100_0,2023-05-01T20:48:55.886Z,,0,3,,2781.189000095357,response,ISIC_0069050.JPG,,ISIC_0897526.JPG,ISIC_0069050.JPG,false,1,keypress(m),500,461688.2000000477,461687.90000009537,458889.939,458896.10000002384,458906.711,461689.996,8,400,1,,ISIC_0897526.JPG
break,html.Screen,4_100_1,2023-05-01T20:48:55.886Z,,0,,,NaN,,,,,,false,,,,461688.90000009537,461688.7000000477,,461688.3000000715,,461689.996,8,400,,,
break_continue,html.Screen,4_100_2,2023-05-01T20:48:55.887Z,,0,,,NaN,,,,,,false,,,,461689.3000000715,461689.2000000477,,461689.10000002384,,461689.996,8,400,,,
sequence,flow.Sequence,4_100,2023-05-01T20:48:55.887Z,,0,,,2782.4890000476735,completion,,,,,false,,,,461689.5,461689.2000000477,458889.939,458896,458906.711,461689.996,8,400,,,
trial,html.Screen,4_101_0,2023-05-01T20:48:58.396Z,,0,3,,2508.204000047699,response,ISIC_0061749.JPG,,ISIC_3043475.JPG,ISIC_0061749.JPG,false,1,keypress(m),500,464198.3000000715,464198.2000000477,461673.445,461689.5,461689.996,464206.715,8,400,2,,ISIC_3043475.JPG
break,html.Screen,4_101_1,2023-05-01T20:48:58.396Z,,0,,,NaN,,,,,,false,,,,464198.7000000477,464198.60000002384,,464198.3000000715,,464206.715,8,400,,,
break_continue,html.Screen,4_101_2,2023-05-01T20:48:58.397Z,,0,,,NaN,,,,,,false,,,,464199,464199,,464198.8000000715,,464206.715,8,400,,,
sequence,flow.Sequence,4_101,2023-05-01T20:48:58.397Z,,0,,,2509.0040000000154,completion,,,,,false,,,,464199,464199,461673.445,461689.5,461689.996,464206.715,8,400,,,
trial,html.Screen,4_102_0,2023-05-01T20:49:01.017Z,,0,3,,2612.5850000715,response,ISIC_9171071.JPG,,ISIC_0059390.JPG,ISIC_0059390.JPG,false,0,keypress(z),500,466819.5,466819.3000000715,464190.024,464199.10000002384,464206.715,466823.389,8,400,3,,ISIC_9171071.JPG
break,html.Screen,4_102_1,2023-05-01T20:49:01.018Z,,0,,,NaN,,,,,,false,,,,466820.3000000715,466820.2000000477,,466819.60000002384,,466823.389,8,400,,,
break_continue,html.Screen,4_102_2,2023-05-01T20:49:01.018Z,,0,,,NaN,,,,,,false,,,,466820.60000002384,466820.5,,466820.5,,466823.389,8,400,,,
sequence,flow.Sequence,4_102,2023-05-01T20:49:01.018Z,,0,,,2613.7849999999744,completion,,,,,false,,,,466820.60000002384,466820.5,464190.024,464199.10000002384,464206.715,466823.389,8,400,,,
trial,html.Screen,4_103_0,2023-05-01T20:49:03.504Z,,0,3,,2482.711000023817,response,ISIC_0012070.JPG,,ISIC_8897947.JPG,ISIC_0012070.JPG,false,1,keypress(m),500,469306.3000000715,469306.10000002384,466806.761,466820.7000000477,466823.389,469323.459,8,400,4,,ISIC_8897947.JPG
break,html.Screen,4_103_1,2023-05-01T20:49:03.504Z,,0,,,NaN,,,,,,false,,,,469306.8000000715,469306.7000000477,,469306.40000009537,,469323.459,8,400,,,
break_continue,html.Screen,4_103_2,2023-05-01T20:49:03.505Z,,0,,,NaN,,,,,,false,,,,469307.2000000477,469307.10000002384,,469307,,469323.459,8,400,,,
sequence,flow.Sequence,4_103,2023-05-01T20:49:03.505Z,,0,,,2483.711000023817,completion,,,,,false,,,,469307.40000009537,469307.10000002384,466806.761,466820.7000000477,466823.389,469323.459,8,400,,,
trial,html.Screen,4_104_0,2023-05-01T20:49:06.602Z,,0,3,,3080.341000071552,response,ISIC_0062864.JPG,,ISIC_0032360.JPG,ISIC_0062864.JPG,false,1,keypress(m),500,472404.10000002384,472403.8000000715,469306.767,469307.5,469323.459,472406.856,8,400,5,,ISIC_0032360.JPG
break,html.Screen,4_104_1,2023-05-01T20:49:06.602Z,,0,,,NaN,,,,,,false,,,,472404.7000000477,472404.40000009537,,472404.2000000477,,472406.856,8,400,,,
break_continue,html.Screen,4_104_2,2023-05-01T20:49:06.603Z,,0,,,NaN,,,,,,false,,,,472405,472405,,472404.90000009537,,472406.856,8,400,,,
sequence,flow.Sequence,4_104,2023-05-01T20:49:06.603Z,,0,,,3081.5410000000265,completion,,,,,false,,,,472405.10000002384,472405,469306.767,469307.40000009537,469323.459,472406.856,8,400,,,
trial,html.Screen,4_105_0,2023-05-01T20:49:09.926Z,,0,3,,3321.4440000714967,response,ISIC_2215276.JPG,,ISIC_3677945.JPG,ISIC_3677945.JPG,false,0,keypress(z),500,475728.5,475728.3000000715,472390.183,472405.2000000477,472406.856,475740.309,8,400,6,,ISIC_2215276.JPG
break,html.Screen,4_105_1,2023-05-01T20:49:09.927Z,,0,,,NaN,,,,,,false,,,,475729.60000002384,475729,,475728.60000002384,,475740.309,8,400,,,
break_continue,html.Screen,4_105_2,2023-05-01T20:49:09.927Z,,0,,,NaN,,,,,,false,,,,475729.90000009537,475729.8000000715,,475729.60000002384,,475740.309,8,400,,,
sequence,flow.Sequence,4_105,2023-05-01T20:49:09.928Z,,0,,,3322.9440000714967,completion,,,,,false,,,,475730,475729.8000000715,472390.183,472405.2000000477,472406.856,475740.309,8,400,,,
trial,html.Screen,4_106_0,2023-05-01T20:49:12.642Z,,0,3,,2704.3910000476753,response,ISIC_0015133.JPG,,ISIC_8287726.JPG,ISIC_0015133.JPG,false,1,keypress(m),500,478444.8000000715,478444.7000000477,475723.66,475730.10000002384,475740.309,478457.057,8,400,7,,ISIC_8287726.JPG
break,html.Screen,4_106_1,2023-05-01T20:49:12.643Z,,0,,,NaN,,,,,,false,,,,478445.5,478445.3000000715,,478445.10000002384,,478457.057,8,400,,,
break_continue,html.Screen,4_106_2,2023-05-01T20:49:12.644Z,,0,,,NaN,,,,,,false,,,,478446,478445.90000009537,,478445.8000000715,,478457.057,8,400,,,
sequence,flow.Sequence,4_106,2023-05-01T20:49:12.644Z,,0,,,2705.591000095359,completion,,,,,false,,,,478446.2000000477,478445.90000009537,475723.66,475730,475740.309,478457.057,8,400,,,
trial,html.Screen,4_107_0,2023-05-01T20:49:15.322Z,,0,3,,2667.4430000000284,response,ISIC_9395707.JPG,,ISIC_0059626.JPG,ISIC_0059626.JPG,false,0,keypress(z),500,481124.7000000477,481124.5,478440.251,478446.3000000715,478457.057,481140.425,8,400,8,,ISIC_9395707.JPG
break,html.Screen,4_107_1,2023-05-01T20:49:15.324Z,,0,,,NaN,,,,,,false,,,,481126,481125.2000000477,,481124.8000000715,,481140.425,8,400,,,
break_continue,html.Screen,4_107_2,2023-05-01T20:49:15.324Z,,0,,,NaN,,,,,,false,,,,481126.40000009537,481126.2000000477,,481126.10000002384,,481140.425,8,400,,,
sequence,flow.Sequence,4_107,2023-05-01T20:49:15.324Z,,0,,,2669.143000047712,completion,,,,,false,,,,481126.5,481126.2000000477,478440.251,478446.2000000477,478457.057,481140.425,8,400,,,
trial,html.Screen,4_108_0,2023-05-01T20:49:18.130Z,,0,3,,2791.7750000476954,response,ISIC_0055226.JPG,,ISIC_1233104.JPG,ISIC_0055226.JPG,false,1,keypress(m),500,483932.40000009537,483932.2000000477,481123.689,481126.60000002384,481140.425,483940.482,8,400,9,,ISIC_1233104.JPG
break,html.Screen,4_108_1,2023-05-01T20:49:18.131Z,,0,,,NaN,,,,,,false,,,,483933.5,483933,,483932.7000000477,,483940.482,8,400,,,
break_continue,html.Screen,4_108_2,2023-05-01T20:49:18.131Z,,0,,,NaN,,,,,,false,,,,483933.8000000715,483933.7000000477,,483933.60000002384,,483940.482,8,400,,,
sequence,flow.Sequence,4_108,2023-05-01T20:49:18.132Z,,0,,,2793.2750000476954,completion,,,,,false,,,,483933.90000009537,483933.7000000477,481123.689,481126.5,481140.425,483940.482,8,400,,,
trial,html.Screen,4_109_0,2023-05-01T20:49:21.564Z,,0,3,,3426.1180000238237,response,ISIC_0063544.JPG,,ISIC_4148086.JPG,ISIC_0063544.JPG,false,1,keypress(m),500,487366.8000000715,487366.60000002384,483923.78,483934.10000002384,483940.482,487373.81,8,400,10,,ISIC_4148086.JPG
break,html.Screen,4_109_1,2023-05-01T20:49:21.565Z,,0,,,NaN,,,,,,false,,,,487367.90000009537,487367.40000009537,,487367,,487373.81,8,400,,,
break_continue,html.Screen,4_109_2,2023-05-01T20:49:21.566Z,,0,,,NaN,,,,,,false,,,,487368.2000000477,487368.10000002384,,487368,,487373.81,8,400,,,
sequence,flow.Sequence,4_109,2023-05-01T20:49:21.566Z,,0,,,3427.6180000238237,completion,,,,,false,,,,487368.3000000715,487368.10000002384,483923.78,483934,483940.482,487373.81,8,400,,,
trial,html.Screen,4_110_0,2023-05-01T20:49:24.861Z,,0,3,,3289.890000047686,response,ISIC_0066209.JPG,,ISIC_3751090.JPG,ISIC_3751090.JPG,false,0,keypress(z),500,490663.90000009537,490663.7000000477,487357.161,487368.5,487373.81,490674.102,8,400,11,,ISIC_0066209.JPG
break,html.Screen,4_110_1,2023-05-01T20:49:24.862Z,,0,,,NaN,,,,,,false,,,,490664.5,490664.2000000477,,490664,,490674.102,8,400,,,
break_continue,html.Screen,4_110_2,2023-05-01T20:49:24.863Z,,0,,,NaN,,,,,,false,,,,490665,490664.90000009537,,490664.8000000715,,490674.102,8,400,,,
sequence,flow.Sequence,4_110,2023-05-01T20:49:24.863Z,,0,,,3291.0900000953698,completion,,,,,false,,,,490665.2000000477,490664.90000009537,487357.161,487368.40000009537,487373.81,490674.102,8,400,,,
trial,html.Screen,4_111_0,2023-05-01T20:49:27.641Z,,0,3,,2769.298000095354,response,ISIC_8414396.JPG,,ISIC_0033644.JPG,ISIC_0033644.JPG,false,0,keypress(z),500,493443.60000002384,493443.40000009537,490657.157,490665.40000009537,490674.102,493457.334,8,400,12,,ISIC_8414396.JPG
break,html.Screen,4_111_1,2023-05-01T20:49:27.642Z,,0,,,NaN,,,,,,false,,,,493444.8000000715,493444.3000000715,,493443.8000000715,,493457.334,8,400,,,
break_continue,html.Screen,4_111_2,2023-05-01T20:49:27.643Z,,0,,,NaN,,,,,,false,,,,493445,493445,,493444.8000000715,,493457.334,8,400,,,
sequence,flow.Sequence,4_111,2023-05-01T20:49:27.643Z,,0,,,2770.8979999999865,completion,,,,,false,,,,493445.2000000477,493445,490657.157,490665.3000000715,490674.102,493457.334,8,400,,,
trial,html.Screen,4_112_0,2023-05-01T20:49:30.685Z,,0,3,,3030.2660000238684,response,ISIC_3941123.JPG,,ISIC_8759207.JPG,ISIC_3941123.JPG,false,1,keypress(m),500,496487.90000009537,496487.60000002384,493440.57,493445.40000009537,493457.334,496490.634,8,400,13,,ISIC_8759207.JPG
break,html.Screen,4_112_1,2023-05-01T20:49:30.686Z,,0,,,NaN,,,,,,false,,,,496488.8000000715,496488.40000009537,,496488.10000002384,,496490.634,8,400,,,
break_continue,html.Screen,4_112_2,2023-05-01T20:49:30.687Z,,0,,,NaN,,,,,,false,,,,496489.10000002384,496489,,496488.90000009537,,496490.634,8,400,,,
sequence,flow.Sequence,4_112,2023-05-01T20:49:30.687Z,,0,,,3031.6660000000265,completion,,,,,false,,,,496489.10000002384,496489,493440.57,493445.3000000715,493457.334,496490.634,8,400,,,
trial,html.Screen,4_113_0,2023-05-01T20:49:33.364Z,,0,3,,2676.0660000476637,response,ISIC_7662910.JPG,,ISIC_0001572.JPG,ISIC_7662910.JPG,false,1,keypress(m),500,499167,499166.7000000477,496473.974,496489.2000000477,496490.634,499174.092,8,400,14,,ISIC_0001572.JPG
break,html.Screen,4_113_1,2023-05-01T20:49:33.366Z,,0,,,NaN,,,,,,false,,,,499168.10000002384,499167.60000002384,,499167.10000002384,,499174.092,8,400,,,
break_continue,html.Screen,4_113_2,2023-05-01T20:49:33.366Z,,0,,,NaN,,,,,,false,,,,499168.40000009537,499168.3000000715,,499168.2000000477,,499174.092,8,400,,,
sequence,flow.Sequence,4_113,2023-05-01T20:49:33.366Z,,0,,,2677.6660000715056,completion,,,,,false,,,,499168.5,499168.3000000715,496473.974,496489.2000000477,496490.634,499174.092,8,400,,,
trial,html.Screen,4_114_0,2023-05-01T20:49:37.258Z,,0,3,,3886.6080000476795,response,ISIC_9472725.JPG,,ISIC_0033771.JPG,ISIC_0033771.JPG,false,0,keypress(z),500,503060.90000009537,503060.7000000477,499157.423,499168.60000002384,499174.092,503074.274,8,400,15,,ISIC_9472725.JPG
break,html.Screen,4_114_1,2023-05-01T20:49:37.259Z,,0,,,NaN,,,,,,false,,,,503061.40000009537,503061.3000000715,,503061.10000002384,,503074.274,8,400,,,
break_continue,html.Screen,4_114_2,2023-05-01T20:49:37.260Z,,0,,,NaN,,,,,,false,,,,503062,503061.8000000715,,503061.60000002384,,503074.274,8,400,,,
sequence,flow.Sequence,4_114,2023-05-01T20:49:37.260Z,,0,,,3887.7080000715214,completion,,,,,false,,,,503062.3000000715,503061.8000000715,499157.423,499168.60000002384,499174.092,503074.274,8,400,,,
trial,html.Screen,4_115_0,2023-05-01T20:49:41.170Z,,0,3,,3898.1260000953916,response,ISIC_8035608.JPG,,ISIC_1619814.JPG,ISIC_1619814.JPG,false,0,keypress(z),500,506972.5,506972.40000009537,503057.378,503062.40000009537,503074.274,506974.142,8,400,16,,ISIC_8035608.JPG
break,html.Screen,4_115_1,2023-05-01T20:49:41.171Z,,0,,,NaN,,,,,,false,,,,506973.10000002384,506972.8000000715,,506972.5,,506974.142,8,400,,,
break_continue,html.Screen,4_115_2,2023-05-01T20:49:41.171Z,,0,,,NaN,,,,,,false,,,,506973.2000000477,506973.2000000477,,506973.2000000477,,506974.142,8,400,,,
sequence,flow.Sequence,4_115,2023-05-01T20:49:41.171Z,,0,,,3898.926000047708,completion,,,,,false,,,,506973.2000000477,506973.2000000477,503057.378,503062.40000009537,503074.274,506974.142,8,400,,,
trial,html.Screen,4_116_0,2023-05-01T20:49:43.950Z,,0,3,,2778.158000071533,response,ISIC_0787229.JPG,,ISIC_0010011.JPG,ISIC_0010011.JPG,false,0,keypress(z),500,509752.40000009537,509752.3000000715,506957.456,506973.3000000715,506974.142,509757.616,8,400,17,,ISIC_0787229.JPG
break,html.Screen,4_116_1,2023-05-01T20:49:43.951Z,,0,,,NaN,,,,,,false,,,,509753.10000002384,509753.10000002384,,509752.5,,509757.616,8,400,,,
break_continue,html.Screen,4_116_2,2023-05-01T20:49:43.951Z,,0,,,NaN,,,,,,false,,,,509753.40000009537,509753.3000000715,,509753.3000000715,,509757.616,8,400,,,
sequence,flow.Sequence,4_116,2023-05-01T20:49:43.951Z,,0,,,2779.158000071533,completion,,,,,false,,,,509753.40000009537,509753.3000000715,506957.456,506973.3000000715,506974.142,509757.616,8,400,,,
trial,html.Screen,4_117_0,2023-05-01T20:49:46.653Z,,0,3,,2697.2840000953875,response,ISIC_1795529.JPG,,ISIC_0071388.JPG,ISIC_0071388.JPG,false,0,keypress(z),500,512455.2000000477,512454.90000009537,509740.978,509753.5,509757.616,512457.637,8,400,18,,ISIC_1795529.JPG
break,html.Screen,4_117_1,2023-05-01T20:49:46.654Z,,0,,,NaN,,,,,,false,,,,512456.2000000477,512455.7000000477,,512455.3000000715,,512457.637,8,400,,,
break_continue,html.Screen,4_117_2,2023-05-01T20:49:46.654Z,,0,,,NaN,,,,,,false,,,,512456.60000002384,512456.40000009537,,512456.40000009537,,512457.637,8,400,,,
sequence,flow.Sequence,4_117,2023-05-01T20:49:46.654Z,,0,,,2698.7840000953875,completion,,,,,false,,,,512456.7000000477,512456.40000009537,509740.978,509753.40000009537,509757.616,512457.637,8,400,,,
trial,html.Screen,4_118_0,2023-05-01T20:49:49.303Z,,0,3,,2647.1630000715377,response,ISIC_2173158.JPG,,ISIC_9019691.JPG,ISIC_2173158.JPG,false,1,keypress(m),500,515105,515104.8000000715,512441.091,512456.8000000715,512457.637,515107.667,8,400,19,,ISIC_9019691.JPG
break,html.Screen,4_118_1,2023-05-01T20:49:49.304Z,,0,,,NaN,,,,,,false,,,,515106.10000002384,515105.60000002384,,515105.2000000477,,515107.667,8,400,,,
break_continue,html.Screen,4_118_2,2023-05-01T20:49:49.304Z,,0,,,NaN,,,,,,false,,,,515106.40000009537,515106.40000009537,,515106.3000000715,,515107.667,8,400,,,
sequence,flow.Sequence,4_118,2023-05-01T20:49:49.304Z,,0,,,2648.7630000953795,completion,,,,,false,,,,515106.60000002384,515106.40000009537,512441.091,512456.7000000477,512457.637,515107.667,8,400,,,
trial,html.Screen,4_119_0,2023-05-01T20:49:52.333Z,,0,3,,3027.1330000715097,response,ISIC_7938688.JPG,,ISIC_0069058.JPG,ISIC_0069058.JPG,false,0,keypress(z),500,518135.10000002384,518134.8000000715,515090.979,515106.7000000477,515107.667,518141.017,8,400,20,,ISIC_7938688.JPG
break,html.Screen,4_119_1,2023-05-01T20:49:52.334Z,,0,,,NaN,,,,,,false,,,,518136.3000000715,518135.7000000477,,518135.3000000715,,518141.017,8,400,,,
break_continue,html.Screen,4_119_2,2023-05-01T20:49:52.334Z,,0,,,NaN,,,,,,false,,,,518136.60000002384,518136.40000009537,,518136.40000009537,,518141.017,8,400,,,
sequence,flow.Sequence,4_119,2023-05-01T20:49:52.334Z,,0,,,3028.7330000953516,completion,,,,,false,,,,518136.8000000715,518136.40000009537,515090.979,515106.7000000477,515107.667,518141.017,8,400,,,
trial,html.Screen,4_120_0,2023-05-01T20:49:55.522Z,,0,3,,3183.383000095375,response,ISIC_0693902.JPG,,ISIC_5377237.JPG,ISIC_5377237.JPG,false,0,keypress(z),500,521324.60000002384,521324.40000009537,518124.415,518136.90000009537,518141.017,521341.28,8,400,21,,ISIC_0693902.JPG
break,html.Screen,4_120_1,2023-05-01T20:49:55.523Z,,0,,,NaN,,,,,,false,,,,521325.2000000477,521325,,521324.8000000715,,521341.28,8,400,,,
break_continue,html.Screen,4_120_2,2023-05-01T20:49:55.523Z,,0,,,NaN,,,,,,false,,,,521325.60000002384,521325.60000002384,,521325.5,,521341.28,8,400,,,
sequence,flow.Sequence,4_120,2023-05-01T20:49:55.523Z,,0,,,3184.5830000238493,completion,,,,,false,,,,521325.7000000477,521325.60000002384,518124.415,518136.8000000715,518141.017,521341.28,8,400,,,
trial,html.Screen,4_121_0,2023-05-01T20:49:58.654Z,,0,3,,3114.820000023814,response,ISIC_0024527.JPG,,ISIC_0013499.JPG,ISIC_0024527.JPG,false,1,keypress(m),500,524456.2000000477,524456.1000000238,521324.488,521325.90000009537,521341.28,524485.128,8,400,22,,ISIC_0013499.JPG
break,html.Screen,4_121_1,2023-05-01T20:49:58.655Z,,0,,,NaN,,,,,,false,,,,524457.4000000954,524456.9000000954,,524456.4000000954,,524485.128,8,400,,,
break_continue,html.Screen,4_121_2,2023-05-01T20:49:58.655Z,,0,,,NaN,,,,,,false,,,,524457.7000000477,524457.7000000477,,524457.5,,524485.128,8,400,,,
sequence,flow.Sequence,4_121,2023-05-01T20:49:58.656Z,,0,,,3116.420000047656,completion,,,,,false,,,,524458.1000000238,524457.7000000477,521324.488,521325.8000000715,521341.28,524485.128,8,400,,,
trial,html.Screen,4_122_0,2023-05-01T20:50:01.560Z,,0,3,,2877.371999999974,response,ISIC_0011532.JPG,,ISIC_0064932.JPG,ISIC_0011532.JPG,false,1,keypress(m),500,527362.7000000477,527362.5,524441.196,524458.2000000477,524485.128,527374.574,8,400,23,,ISIC_0064932.JPG
break,html.Screen,4_122_1,2023-05-01T20:50:01.561Z,,0,,,NaN,,,,,,false,,,,527363.8000000715,527363.3000000715,,527362.9000000954,,527374.574,8,400,,,
break_continue,html.Screen,4_122_2,2023-05-01T20:50:01.562Z,,0,,,NaN,,,,,,false,,,,527364,527364,,527363.8000000715,,527374.574,8,400,,,
sequence,flow.Sequence,4_122,2023-05-01T20:50:01.562Z,,0,,,2878.871999999974,completion,,,,,false,,,,527364.2000000477,527364,524441.196,524458.2000000477,524485.128,527374.574,8,400,,,
trial,html.Screen,4_123_0,2023-05-01T20:50:07.926Z,,0,3,,6353.326000095345,response,ISIC_4794052.JPG,,ISIC_0062997.JPG,ISIC_0062997.JPG,false,0,keypress(z),500,533728.2000000477,533727.9000000954,527357.917,527364.3000000715,527374.574,533741.381,8,400,24,,ISIC_4794052.JPG
break,html.Screen,4_123_1,2023-05-01T20:50:07.927Z,,0,,,NaN,,,,,,false,,,,533729.3000000715,533728.8000000715,,533728.4000000954,,533741.381,8,400,,,
break_continue,html.Screen,4_123_2,2023-05-01T20:50:07.927Z,,0,,,NaN,,,,,,false,,,,533729.7000000477,533729.5,,533729.4000000954,,533741.381,8,400,,,
sequence,flow.Sequence,4_123,2023-05-01T20:50:07.927Z,,0,,,6354.925999999978,completion,,,,,false,,,,533729.8000000715,533729.5,527357.917,527364.3000000715,527374.574,533741.381,8,400,,,
trial,html.Screen,4_124_0,2023-05-01T20:50:10.479Z,,0,3,,2539.7190000237897,response,ISIC_8478591.JPG,,ISIC_0033472.JPG,ISIC_0033472.JPG,false,0,keypress(z),500,536281.3000000715,536281.1000000238,533724.622,533729.9000000954,533741.381,536291.609,8,400,25,,ISIC_8478591.JPG
break,html.Screen,4_124_1,2023-05-01T20:50:10.480Z,,0,,,NaN,,,,,,false,,,,536282.5,536281.9000000954,,536281.5,,536291.609,8,400,,,
break_continue,html.Screen,4_124_2,2023-05-01T20:50:10.480Z,,0,,,NaN,,,,,,false,,,,536282.8000000715,536282.7000000477,,536282.5,,536291.609,8,400,,,
sequence,flow.Sequence,4_124,2023-05-01T20:50:10.480Z,,0,,,2541.3190000476316,completion,,,,,false,,,,536282.9000000954,536282.7000000477,533724.622,533729.8000000715,533741.381,536291.609,8,400,,,
trial,html.Screen,4_125_0,2023-05-01T20:50:17.455Z,,0,3,,6965.890999999945,response,ISIC_0072553.JPG,,ISIC_0064247.JPG,ISIC_0064247.JPG,false,0,keypress(z),500,543257.6000000238,543257.5,536274.731,536283,536291.609,543274.911,8,400,26,,ISIC_0072553.JPG
break,html.Screen,4_125_1,2023-05-01T20:50:17.456Z,,0,,,NaN,,,,,,false,,,,543258.9000000954,543258.2000000477,,543257.8000000715,,543274.911,8,400,,,
break_continue,html.Screen,4_125_2,2023-05-01T20:50:17.457Z,,0,,,NaN,,,,,,false,,,,543259.2000000477,543259.1000000238,,543259,,543274.911,8,400,,,
sequence,flow.Sequence,4_125,2023-05-01T20:50:17.457Z,,0,,,6967.491000023787,completion,,,,,false,,,,543259.4000000954,543259.1000000238,536274.731,536283,536291.609,543274.911,8,400,,,
