sender,sender_type,sender_id,timestamp,meta,,blockNo,condition,duration,ended_on,img_left,img_reveal,img_right,loser,practice,response,response_action,selection_duration,time_commit,time_end,time_render,time_run,time_show,time_switch,total_blocks,total_trials,trialNo,url,winner
informed_consent,html.Screen,0,2023-09-08T20:43:07.544Z,"{""labjs_version"":""20.2.4"",""labjs_build"":{""flavor"":""production"",""commit"":""f5b4a49f956347addd546a832a3327688c2c0fef""},""location"":""https://run.pavlovia.org/MurrayBennett/melanoma-2afc/?participant=5ef98087540ce971a8fb4280&STUDY_ID=64f8c92207ba404bcb356c90&SESSION_ID=64fb8732b4369101f52613b9&platform=prolific"",""userAgent"":""Mozilla/5.0 (Windows NT 10.0; Win64; x64) AppleWebKit/537.36 (KHTML, like Gecko) Chrome/116.0.0.0 Safari/537.36"",""platform"":""Win32"",""language"":""en-US"",""locale"":""en-US"",""timeZone"":""America/Chicago"",""timezoneOffset"":300,""screen_width"":1366,""screen_height"":768,""scroll_width"":1366,""scroll_height"":595,""window_innerWidth"":1366,""window_innerHeight"":643,""devicePixelRatio"":1}",,,,9270.100999904633,response,,,,,,consent,click button,,12888.599999904633,12883.599999904633,3596.771,3596.7999999523163,3613.499,12895.165,,,,"{""participant"":""5ef98087540ce971a8fb4280"",""STUDY_ID"":""64f8c92207ba404bcb356c90"",""SESSION_ID"":""64fb8732b4369101f52613b9"",""platform"":""prolific""}",
Welcome,html.Screen,1,2023-09-08T20:43:32.073Z,,,,uniform,24517.835,response,,,,,,continue,click button,,37416.799999952316,37413,12878.469,12888.899999856949,12895.165,37430.181,,,,,
trial,html.Screen,2_0_0,2023-09-08T20:43:36.460Z,,0,0,,4374.018999809268,response,ISIC_0025593.JPG,,ISIC_0063388.JPG,ISIC_0063388.JPG,true,0,keypress(z),500,41804.5,41804.199999809265,37413.365,37417.199999809265,37430.181,41806.121,1,6,1,,ISIC_0025593.JPG
sequence,flow.Sequence,2_0,2023-09-08T20:43:36.461Z,,0,,,4374.018999809268,completion,,,,,true,,,,41805,41804.199999809265,37413.365,37417.09999990463,37430.181,41806.121,1,6,,,
trial,html.Screen,2_1_0,2023-09-08T20:43:39.167Z,,0,0,,2705.178999952317,response,ISIC_1309015.JPG,,ISIC_0028178.JPG,ISIC_1309015.JPG,true,1,keypress(m),500,44511.59999990463,44511.299999952316,41789.446,41805.299999952316,41806.121,44526.977,1,6,2,,ISIC_0028178.JPG
sequence,flow.Sequence,2_1,2023-09-08T20:43:39.168Z,,0,,,2705.178999952317,completion,,,,,true,,,,44511.89999985695,44511.299999952316,41789.446,41805.199999809265,41806.121,44526.977,1,6,,,
trial,html.Screen,2_2_0,2023-09-08T20:43:42.218Z,,0,0,,3034.523000000001,response,ISIC_3314853.JPG,,ISIC_0031128.JPG,ISIC_3314853.JPG,true,1,keypress(m),500,47561.799999952316,47561.5,44510.318,44512.09999990463,44526.977,47572.559,1,6,3,,ISIC_0031128.JPG
sequence,flow.Sequence,2_2,2023-09-08T20:43:42.218Z,,0,,,3034.523000000001,completion,,,,,true,,,,47562,47561.5,44510.318,44512,44526.977,47572.559,1,6,,,
trial,html.Screen,2_3_0,2023-09-08T20:43:45.196Z,,0,0,,2967.0409999046315,response,ISIC_8980141.JPG,,ISIC_0031612.JPG,ISIC_8980141.JPG,true,1,keypress(m),500,50540,50539.59999990463,47555.887,47562.199999809265,47572.559,50545.147,1,6,4,,ISIC_0031612.JPG
sequence,flow.Sequence,2_3,2023-09-08T20:43:45.196Z,,0,,,2967.0409999046315,completion,,,,,true,,,,50540.5,50539.59999990463,47555.887,47562.09999990463,47572.559,50545.147,1,6,,,
trial,html.Screen,2_4_0,2023-09-08T20:43:47.870Z,,0,0,,2669.2529998569516,response,ISIC_1197737.JPG,,ISIC_9721604.JPG,ISIC_9721604.JPG,true,0,keypress(z),500,53214.699999809265,53214.39999985695,50528.448,50540.799999952316,50545.147,53227.067,1,6,5,,ISIC_1197737.JPG
sequence,flow.Sequence,2_4,2023-09-08T20:43:47.871Z,,0,,,2669.2529998569516,completion,,,,,true,,,,53214.89999985695,53214.39999985695,50528.448,50540.59999990463,50545.147,53227.067,1,6,,,
trial,html.Screen,2_5_0,2023-09-08T20:43:52.105Z,,0,0,,4221.432999999997,response,ISIC_0010681.JPG,,ISIC_0025346.JPG,ISIC_0010681.JPG,true,1,keypress(m),500,57448.799999952316,57448.5,53210.392,53215,53227.067,57462.474,1,6,6,,ISIC_0025346.JPG
sequence,flow.Sequence,2_5,2023-09-08T20:43:52.105Z,,0,,,4221.432999999997,completion,,,,,true,,,,57449,57448.5,53210.392,53215,53227.067,57462.474,1,6,,,
loop,flow.Loop,2,2023-09-08T20:43:52.105Z,,,,,20018.319000000003,completion,,,,,true,,,,57449.39999985695,57448.5,37413.365,37417.09999990463,37430.181,57462.474,1,6,,,
exp_instructions,html.Screen,3,2023-09-08T20:43:55.955Z,,,,,3834.725999809263,response,,,,,,continue,keypress(Space),,61298.89999985695,61297.199999809265,57445.358,57449.5,57462.474,61313.706,,,,,
trial,html.Screen,4_0_0,2023-09-08T20:43:58.795Z,,0,1,,2824.8939999046343,response,ISIC_0067857.JPG,5,ISIC_8814672.JPG,ISIC_8814672.JPG,false,0,keypress(z),500,64138.799999952316,64138.59999990463,61297.034,61299.39999985695,61313.706,64139.584,8,400,1,,ISIC_0067857.JPG
break,html.Screen,4_0_1,2023-09-08T20:43:58.796Z,,0,,,NaN,,,,,,false,,,,64140,64139.699999809265,,64139,,64139.584,8,400,,,
break_continue,html.Screen,4_0_2,2023-09-08T20:43:58.796Z,,0,,,NaN,,,,,,false,,,,64140.59999990463,64140.5,,64140.199999809265,,64139.584,8,400,,,
sequence,flow.Sequence,4_0,2023-09-08T20:43:58.797Z,,0,,,2826.7940000000017,completion,,,,,false,,,,64140.799999952316,64140.5,61297.034,61299.299999952316,61313.706,64139.584,8,400,,,
trial,html.Screen,4_1_0,2023-09-08T20:44:02.319Z,,0,1,,3523.1159998092626,response,ISIC_1412843.JPG,5,ISIC_0013184.JPG,ISIC_0013184.JPG,false,0,keypress(z),500,67663,67662.69999980927,64122.885,64141,64139.584,67675.973,8,400,2,,ISIC_1412843.JPG
break,html.Screen,4_1_1,2023-09-08T20:44:02.321Z,,0,,,NaN,,,,,,false,,,,67664.79999995232,67664.5,,67663.29999995232,,67675.973,8,400,,,
break_continue,html.Screen,4_1_2,2023-09-08T20:44:02.321Z,,0,,,NaN,,,,,,false,,,,67665.29999995232,67665.19999980927,,67664.89999985695,,67675.973,8,400,,,
sequence,flow.Sequence,4_1,2023-09-08T20:44:02.321Z,,0,,,3525.6159998092626,completion,,,,,false,,,,67665.39999985695,67665.19999980927,64122.885,64141,64139.584,67675.973,8,400,,,
trial,html.Screen,4_2_0,2023-09-08T20:44:05.219Z,,0,1,,2887.1269999046344,response,ISIC_9363106.JPG,5,ISIC_0034071.JPG,ISIC_9363106.JPG,false,1,keypress(m),500,70563.29999995232,70563.09999990463,67659.341,67665.69999980927,67675.973,70578.42,8,400,3,,ISIC_0034071.JPG
break,html.Screen,4_2_1,2023-09-08T20:44:05.220Z,,0,,,NaN,,,,,,false,,,,70564.19999980927,70564,,70563.5,,70578.42,8,400,,,
break_continue,html.Screen,4_2_2,2023-09-08T20:44:05.220Z,,0,,,NaN,,,,,,false,,,,70564.5,70564.5,,70564.29999995232,,70578.42,8,400,,,
sequence,flow.Sequence,4_2,2023-09-08T20:44:05.220Z,,0,,,2888.527000000002,completion,,,,,false,,,,70564.59999990463,70564.5,67659.341,67665.5,67675.973,70578.42,8,400,,,
trial,html.Screen,4_3_0,2023-09-08T20:44:07.916Z,,0,1,,2681.5800000000017,response,ISIC_0014800.JPG,4,ISIC_0012040.JPG,ISIC_0012040.JPG,false,0,keypress(z),500,73260.19999980927,73260,70561.765,70564.69999980927,70578.42,73271.381,8,400,4,,ISIC_0014800.JPG
break,html.Screen,4_3_1,2023-09-08T20:44:07.917Z,,0,,,NaN,,,,,,false,,,,73261.5,73261.19999980927,,73260.39999985695,,73271.381,8,400,,,
break_continue,html.Screen,4_3_2,2023-09-08T20:44:07.918Z,,0,,,NaN,,,,,,false,,,,73262.09999990463,73262,,73261.69999980927,,73271.381,8,400,,,
sequence,flow.Sequence,4_3,2023-09-08T20:44:07.918Z,,0,,,2683.5800000000017,completion,,,,,false,,,,73262.29999995232,73262,70561.765,70564.69999980927,70578.42,73271.381,8,400,,,
trial,html.Screen,4_4_0,2023-09-08T20:44:10.656Z,,0,1,,2729.018999856955,response,ISIC_3979826.JPG,5,ISIC_5908780.JPG,ISIC_5908780.JPG,false,0,keypress(z),500,76000.69999980927,76000.39999985695,73253.369,73262.5,73271.381,76002.696,8,400,5,,ISIC_3979826.JPG
break,html.Screen,4_4_1,2023-09-08T20:44:10.657Z,,0,,,NaN,,,,,,false,,,,76001.69999980927,76001.5,,76000.89999985695,,76002.696,8,400,,,
break_continue,html.Screen,4_4_2,2023-09-08T20:44:10.658Z,,0,,,NaN,,,,,,false,,,,76002.29999995232,76002.09999990463,,76001.89999985695,,76002.696,8,400,,,
sequence,flow.Sequence,4_4,2023-09-08T20:44:10.658Z,,0,,,2730.7189999046386,completion,,,,,false,,,,76002.39999985695,76002.09999990463,73253.369,73262.39999985695,73271.381,76002.696,8,400,,,
trial,html.Screen,4_5_0,2023-09-08T20:44:13.255Z,,0,1,,2596.60399995232,response,ISIC_1926656.JPG,6,ISIC_0033517.JPG,ISIC_1926656.JPG,false,1,keypress(m),500,78599.5,78599.29999995232,75986.019,76002.5,76002.696,78613.746,8,400,6,,ISIC_0033517.JPG
break,html.Screen,4_5_1,2023-09-08T20:44:13.256Z,,0,,,NaN,,,,,,false,,,,78600.69999980927,78600.39999985695,,78599.89999985695,,78613.746,8,400,,,
break_continue,html.Screen,4_5_2,2023-09-08T20:44:13.257Z,,0,,,NaN,,,,,,false,,,,78601.09999990463,78600.89999985695,,78600.69999980927,,78613.746,8,400,,,
sequence,flow.Sequence,4_5,2023-09-08T20:44:13.257Z,,0,,,2598.2039998569526,completion,,,,,false,,,,78601.09999990463,78600.89999985695,75986.019,76002.5,76002.696,78613.746,8,400,,,
trial,html.Screen,4_6_0,2023-09-08T20:44:16.894Z,,0,1,,3624.1539998569497,response,ISIC_0064823.JPG,5,ISIC_0062058.JPG,ISIC_0062058.JPG,false,0,keypress(z),500,82238.19999980927,82237.89999985695,78597.114,78601.19999980927,78613.746,82248.34,8,400,7,,ISIC_0064823.JPG
break,html.Screen,4_6_1,2023-09-08T20:44:16.895Z,,0,,,NaN,,,,,,false,,,,82239.29999995232,82239,,82238.39999985695,,82248.34,8,400,,,
break_continue,html.Screen,4_6_2,2023-09-08T20:44:16.896Z,,0,,,NaN,,,,,,false,,,,82239.79999995232,82239.69999980927,,82239.39999985695,,82248.34,8,400,,,
sequence,flow.Sequence,4_6,2023-09-08T20:44:16.896Z,,0,,,3625.953999809266,completion,,,,,false,,,,82240.09999990463,82239.69999980927,78597.114,78601.19999980927,78613.746,82248.34,8,400,,,
trial,html.Screen,4_7_0,2023-09-08T20:44:19.431Z,,0,1,,2526.5599998569523,response,ISIC_0010863.JPG,4,ISIC_4411889.JPG,ISIC_4411889.JPG,false,0,keypress(z),500,84775.09999990463,84774.89999985695,82231.685,82240.19999980927,82248.34,84789.218,8,400,8,,ISIC_0010863.JPG
break,html.Screen,4_7_1,2023-09-08T20:44:19.432Z,,0,,,NaN,,,,,,false,,,,84776.09999990463,84775.89999985695,,84775.29999995232,,84789.218,8,400,,,
break_continue,html.Screen,4_7_2,2023-09-08T20:44:19.432Z,,0,,,NaN,,,,,,false,,,,84776.29999995232,84776.19999980927,,84776.09999990463,,84789.218,8,400,,,
sequence,flow.Sequence,4_7,2023-09-08T20:44:19.432Z,,0,,,2527.8599998092686,completion,,,,,false,,,,84776.39999985695,84776.19999980927,82231.685,82240.09999990463,82248.34,84789.218,8,400,,,
trial,html.Screen,4_8_0,2023-09-08T20:44:22.314Z,,0,1,,2868.581999952323,response,ISIC_0024227.JPG,4,ISIC_0046670.JPG,ISIC_0024227.JPG,false,1,keypress(m),500,87658,87657.79999995232,84772.53,84776.39999985695,84789.218,87659.598,8,400,9,,ISIC_0046670.JPG
break,html.Screen,4_8_1,2023-09-08T20:44:22.315Z,,0,,,NaN,,,,,,false,,,,87659,87658.69999980927,,87658.19999980927,,87659.598,8,400,,,
break_continue,html.Screen,4_8_2,2023-09-08T20:44:22.315Z,,0,,,NaN,,,,,,false,,,,87659.5,87659.29999995232,,87659.19999980927,,87659.598,8,400,,,
sequence,flow.Sequence,4_8,2023-09-08T20:44:22.315Z,,0,,,2870.081999952323,completion,,,,,false,,,,87659.59999990463,87659.29999995232,84772.53,84776.39999985695,84789.218,87659.598,8,400,,,
trial,html.Screen,4_9_0,2023-09-08T20:44:24.894Z,,0,1,,2578.5019999046344,response,ISIC_0030616.JPG,5,ISIC_0022328.JPG,ISIC_0030616.JPG,false,1,keypress(m),500,90238.5,90238.09999990463,87642.945,87659.79999995232,87659.598,90245.852,8,400,10,,ISIC_0022328.JPG
break,html.Screen,4_9_1,2023-09-08T20:44:24.895Z,,0,,,NaN,,,,,,false,,,,90239.39999985695,90239.29999995232,,90238.69999980927,,90245.852,8,400,,,
break_continue,html.Screen,4_9_2,2023-09-08T20:44:24.896Z,,0,,,NaN,,,,,,false,,,,90239.79999995232,90239.69999980927,,90239.59999990463,,90245.852,8,400,,,
sequence,flow.Sequence,4_9,2023-09-08T20:44:24.896Z,,0,,,2580.101999809267,completion,,,,,false,,,,90240,90239.69999980927,87642.945,87659.69999980927,87659.598,90245.852,8,400,,,
trial,html.Screen,4_10_0,2023-09-08T20:44:30.409Z,,0,1,,5506.947999952317,response,ISIC_0064877.JPG,5,ISIC_9499185.JPG,ISIC_9499185.JPG,false,0,keypress(z),500,95753.09999990463,95752.79999995232,90229.19,90240.69999980927,90245.852,95770.062,8,400,11,,ISIC_0064877.JPG
break,html.Screen,4_10_1,2023-09-08T20:44:30.410Z,,0,,,NaN,,,,,,false,,,,95754.19999980927,95754,,95753.29999995232,,95770.062,8,400,,,
break_continue,html.Screen,4_10_2,2023-09-08T20:44:30.411Z,,0,,,NaN,,,,,,false,,,,95754.69999980927,95754.69999980927,,95754.29999995232,,95770.062,8,400,,,
sequence,flow.Sequence,4_10,2023-09-08T20:44:30.411Z,,0,,,5508.847999809266,completion,,,,,false,,,,95754.89999985695,95754.69999980927,90229.19,90240.59999990463,90245.852,95770.062,8,400,,,
trial,html.Screen,4_11_0,2023-09-08T20:44:33.217Z,,0,1,,2791.237999952311,response,ISIC_0010649.JPG,5,ISIC_0069475.JPG,ISIC_0010649.JPG,false,1,keypress(m),500,98561.5,98561.29999995232,95753.407,95755.09999990463,95770.062,98577.19,8,400,12,,ISIC_0069475.JPG
break,html.Screen,4_11_1,2023-09-08T20:44:33.218Z,,0,,,NaN,,,,,,false,,,,98562.39999985695,98562.19999980927,,98561.79999995232,,98577.19,8,400,,,
break_continue,html.Screen,4_11_2,2023-09-08T20:44:33.218Z,,0,,,NaN,,,,,,false,,,,98562.69999980927,98562.59999990463,,98562.5,,98577.19,8,400,,,
sequence,flow.Sequence,4_11,2023-09-08T20:44:33.219Z,,0,,,2792.537999904627,completion,,,,,false,,,,98562.79999995232,98562.59999990463,95753.407,95755,95770.062,98577.19,8,400,,,
trial,html.Screen,4_12_0,2023-09-08T20:44:35.816Z,,0,1,,2583.2099998569465,response,ISIC_9256438.JPG,5,ISIC_8156101.JPG,ISIC_8156101.JPG,false,0,keypress(z),500,101160.5,101160.39999985695,98560.537,98562.89999985695,98577.19,101163.072,8,400,13,,ISIC_9256438.JPG
break,html.Screen,4_12_1,2023-09-08T20:44:35.817Z,,0,,,NaN,,,,,,false,,,,101161.19999980927,101161.09999990463,,101160.69999980927,,101163.072,8,400,,,
break_continue,html.Screen,4_12_2,2023-09-08T20:44:35.817Z,,0,,,NaN,,,,,,false,,,,101161.59999990463,101161.5,,101161.39999985695,,101163.072,8,400,,,
sequence,flow.Sequence,4_12,2023-09-08T20:44:35.817Z,,0,,,2584.3099999999977,completion,,,,,false,,,,101161.69999980927,101161.5,98560.537,98562.89999985695,98577.19,101163.072,8,400,,,
trial,html.Screen,4_13_0,2023-09-08T20:44:38.690Z,,0,1,,2870.627999809265,response,ISIC_0032617.JPG,5,ISIC_8630818.JPG,ISIC_8630818.JPG,false,0,keypress(z),500,104033.89999985695,104033.69999980927,101146.395,101161.69999980927,101163.072,104046.142,8,400,14,,ISIC_0032617.JPG
break,html.Screen,4_13_1,2023-09-08T20:44:38.692Z,,0,,,NaN,,,,,,false,,,,104035.79999995232,104035.09999990463,,104034.09999990463,,104046.142,8,400,,,
break_continue,html.Screen,4_13_2,2023-09-08T20:44:38.692Z,,0,,,NaN,,,,,,false,,,,104036.09999990463,104036,,104035.79999995232,,104046.142,8,400,,,
sequence,flow.Sequence,4_13,2023-09-08T20:44:38.692Z,,0,,,2872.928,completion,,,,,false,,,,104036.19999980927,104036,101146.395,101161.69999980927,101163.072,104046.142,8,400,,,
trial,html.Screen,4_14_0,2023-09-08T20:44:43.722Z,,0,1,,5020.257999856942,response,ISIC_1589997.JPG,5,ISIC_4980328.JPG,ISIC_4980328.JPG,false,0,keypress(z),500,109066.59999990463,109066.39999985695,104029.51,104036.29999995232,104046.142,109082.736,8,400,15,,ISIC_1589997.JPG
break,html.Screen,4_14_1,2023-09-08T20:44:43.724Z,,0,,,NaN,,,,,,false,,,,109068.19999980927,109067.89999985695,,109067,,109082.736,8,400,,,
break_continue,html.Screen,4_14_2,2023-09-08T20:44:43.724Z,,0,,,NaN,,,,,,false,,,,109068.69999980927,109068.59999990463,,109068.29999995232,,109082.736,8,400,,,
sequence,flow.Sequence,4_14,2023-09-08T20:44:43.725Z,,0,,,5022.4579999046255,completion,,,,,false,,,,109068.89999985695,109068.59999990463,104029.51,104036.29999995232,104046.142,109082.736,8,400,,,
trial,html.Screen,4_15_0,2023-09-08T20:44:46.466Z,,0,1,,2727.2639999999956,response,ISIC_0014319.JPG,5,ISIC_0002899.JPG,ISIC_0002899.JPG,false,0,keypress(z),500,111810.19999980927,111810,109066.081,109069,109082.736,111812.183,8,400,16,,ISIC_0014319.JPG
break,html.Screen,4_15_1,2023-09-08T20:44:46.467Z,,0,,,NaN,,,,,,false,,,,111811.39999985695,111811,,111810.39999985695,,111812.183,8,400,,,
break_continue,html.Screen,4_15_2,2023-09-08T20:44:46.468Z,,0,,,NaN,,,,,,false,,,,111811.79999995232,111811.69999980927,,111811.5,,111812.183,8,400,,,
sequence,flow.Sequence,4_15,2023-09-08T20:44:46.468Z,,0,,,2728.9639998092607,completion,,,,,false,,,,111812.09999990463,111811.69999980927,109066.081,109069,109082.736,111812.183,8,400,,,
trial,html.Screen,4_16_0,2023-09-08T20:44:49.046Z,,0,1,,2577.916999904628,response,ISIC_0058768.JPG,4,ISIC_7236842.JPG,ISIC_7236842.JPG,false,0,keypress(z),500,114390.5,114390.09999990463,111795.508,111812.19999980927,111812.183,114394.835,8,400,17,,ISIC_0058768.JPG
break,html.Screen,4_16_1,2023-09-08T20:44:49.047Z,,0,,,NaN,,,,,,false,,,,114391.59999990463,114391.39999985695,,114390.69999980927,,114394.835,8,400,,,
break_continue,html.Screen,4_16_2,2023-09-08T20:44:49.048Z,,0,,,NaN,,,,,,false,,,,114391.89999985695,114391.79999995232,,114391.69999980927,,114394.835,8,400,,,
sequence,flow.Sequence,4_16,2023-09-08T20:44:49.048Z,,0,,,2579.6169999523117,completion,,,,,false,,,,114392.09999990463,114391.79999995232,111795.508,111812.09999990463,111812.183,114394.835,8,400,,,
trial,html.Screen,4_17_0,2023-09-08T20:44:51.721Z,,0,1,,2670.5649998569424,response,ISIC_4248013.JPG,6,ISIC_6771810.JPG,ISIC_6771810.JPG,false,0,keypress(z),500,117065.69999980927,117065.39999985695,114378.178,114392.19999980927,114394.835,117069.709,8,400,18,,ISIC_4248013.JPG
break,html.Screen,4_17_1,2023-09-08T20:44:51.723Z,,0,,,NaN,,,,,,false,,,,117067,117066.69999980927,,117065.89999985695,,117069.709,8,400,,,
break_continue,html.Screen,4_17_2,2023-09-08T20:44:51.723Z,,0,,,NaN,,,,,,false,,,,117067.79999995232,117067.5,,117067.09999990463,,117069.709,8,400,,,
sequence,flow.Sequence,4_17,2023-09-08T20:44:51.724Z,,0,,,2672.6649999999936,completion,,,,,false,,,,117068,117067.5,114378.178,114392.19999980927,114394.835,117069.709,8,400,,,
trial,html.Screen,4_18_0,2023-09-08T20:44:54.414Z,,0,1,,2688.2909999999974,response,ISIC_0064427.JPG,5,ISIC_6298228.JPG,ISIC_6298228.JPG,false,0,keypress(z),500,119758.19999980927,119758,117053.056,117068.09999990463,117069.709,119768.937,8,400,19,,ISIC_0064427.JPG
break,html.Screen,4_18_1,2023-09-08T20:44:54.415Z,,0,,,NaN,,,,,,false,,,,119759.19999980927,119758.89999985695,,119758.39999985695,,119768.937,8,400,,,
break_continue,html.Screen,4_18_2,2023-09-08T20:44:54.415Z,,0,,,NaN,,,,,,false,,,,119759.59999990463,119759.5,,119759.19999980927,,119768.937,8,400,,,
sequence,flow.Sequence,4_18,2023-09-08T20:44:54.416Z,,0,,,2689.7909999999974,completion,,,,,false,,,,119759.79999995232,119759.5,117053.056,117068.09999990463,117069.709,119768.937,8,400,,,
trial,html.Screen,4_19_0,2023-09-08T20:44:57.210Z,,0,1,,2784.862999952311,response,ISIC_3392451.JPG,5,ISIC_2197722.JPG,ISIC_3392451.JPG,false,1,keypress(m),500,122554,122553.79999995232,119752.249,119759.89999985695,119768.937,122558.699,8,400,20,,ISIC_2197722.JPG
break,html.Screen,4_19_1,2023-09-08T20:44:57.211Z,,0,,,NaN,,,,,,false,,,,122555.19999980927,122554.89999985695,,122554.19999980927,,122558.699,8,400,,,
break_continue,html.Screen,4_19_2,2023-09-08T20:44:57.212Z,,0,,,NaN,,,,,,false,,,,122555.79999995232,122555.59999990463,,122555.29999995232,,122558.699,8,400,,,
sequence,flow.Sequence,4_19,2023-09-08T20:44:57.212Z,,0,,,2786.662999904627,completion,,,,,false,,,,122556,122555.59999990463,119752.249,119759.79999995232,119768.937,122558.699,8,400,,,
trial,html.Screen,4_20_0,2023-09-08T20:44:59.733Z,,0,1,,2518.7009998569556,response,ISIC_8742407.JPG,4,ISIC_0056679.JPG,ISIC_8742407.JPG,false,1,keypress(m),500,125077.69999980927,125077.39999985695,122542.024,122556.09999990463,122558.699,125090.856,8,400,21,,ISIC_0056679.JPG
break,html.Screen,4_20_1,2023-09-08T20:44:59.735Z,,0,,,NaN,,,,,,false,,,,125078.79999995232,125078.5,,125078,,125090.856,8,400,,,
break_continue,html.Screen,4_20_2,2023-09-08T20:44:59.735Z,,0,,,NaN,,,,,,false,,,,125079.29999995232,125079.09999990463,,125079,,125090.856,8,400,,,
sequence,flow.Sequence,4_20,2023-09-08T20:44:59.735Z,,0,,,2520.4009999046393,completion,,,,,false,,,,125079.5,125079.09999990463,122542.024,122556.09999990463,122558.699,125090.856,8,400,,,
trial,html.Screen,4_21_0,2023-09-08T20:45:02.650Z,,0,1,,2902.6440000000002,response,ISIC_1763577.JPG,5,ISIC_2668481.JPG,ISIC_1763577.JPG,false,1,keypress(m),500,127993.79999995232,127993.5,125074.2,125079.69999980927,125090.856,127999.459,8,400,22,,ISIC_2668481.JPG
break,html.Screen,4_21_1,2023-09-08T20:45:02.651Z,,0,,,NaN,,,,,,false,,,,127994.89999985695,127994.69999980927,,127994,,127999.459,8,400,,,
break_continue,html.Screen,4_21_2,2023-09-08T20:45:02.651Z,,0,,,NaN,,,,,,false,,,,127995.19999980927,127995.09999990463,,127995.09999990463,,127999.459,8,400,,,
sequence,flow.Sequence,4_21,2023-09-08T20:45:02.651Z,,0,,,2904.243999904633,completion,,,,,false,,,,127995.29999995232,127995.09999990463,125074.2,125079.59999990463,125090.856,127999.459,8,400,,,
trial,html.Screen,4_22_0,2023-09-08T20:45:05.325Z,,0,1,,2669.64099990463,response,ISIC_5233769.JPG,5,ISIC_7373074.JPG,ISIC_5233769.JPG,false,1,keypress(m),500,130669.19999980927,130669.09999990463,127982.784,127995.5,127999.459,130678.306,8,400,23,,ISIC_7373074.JPG
break,html.Screen,4_22_1,2023-09-08T20:45:05.326Z,,0,,,NaN,,,,,,false,,,,130670.59999990463,130670.5,,130669.79999995232,,130678.306,8,400,,,
break_continue,html.Screen,4_22_2,2023-09-08T20:45:05.327Z,,0,,,NaN,,,,,,false,,,,130671.39999985695,130671.29999995232,,130670.79999995232,,130678.306,8,400,,,
sequence,flow.Sequence,4_22,2023-09-08T20:45:05.327Z,,0,,,2671.8409999523137,completion,,,,,false,,,,130671.5,130671.29999995232,127982.784,127995.5,127999.459,130678.306,8,400,,,
trial,html.Screen,4_23_0,2023-09-08T20:45:07.897Z,,0,1,,2562.694000000003,response,ISIC_0002811.JPG,4,ISIC_0063845.JPG,ISIC_0002811.JPG,false,1,keypress(m),500,133241.19999980927,133241,130661.649,130671.59999990463,130678.306,133243.329,8,400,24,,ISIC_0063845.JPG
break,html.Screen,4_23_1,2023-09-08T20:45:07.898Z,,0,,,NaN,,,,,,false,,,,133242.19999980927,133242,,133241.39999985695,,133243.329,8,400,,,
break_continue,html.Screen,4_23_2,2023-09-08T20:45:07.898Z,,0,,,NaN,,,,,,false,,,,133242.59999990463,133242.5,,133242.19999980927,,133243.329,8,400,,,
sequence,flow.Sequence,4_23,2023-09-08T20:45:07.898Z,,0,,,2564.194000000003,completion,,,,,false,,,,133242.69999980927,133242.5,130661.649,130671.59999990463,130678.306,133243.329,8,400,,,
trial,html.Screen,4_24_0,2023-09-08T20:45:10.844Z,,0,1,,2944.671000000002,response,ISIC_0066379.JPG,6,ISIC_0011333.JPG,ISIC_0066379.JPG,false,1,keypress(m),500,136188.19999980927,136188,133226.697,133242.79999995232,133243.329,136194.864,8,400,25,,ISIC_0011333.JPG
break,html.Screen,4_24_1,2023-09-08T20:45:10.845Z,,0,,,NaN,,,,,,false,,,,136189.69999980927,136189.19999980927,,136188.5,,136194.864,8,400,,,
break_continue,html.Screen,4_24_2,2023-09-08T20:45:10.846Z,,0,,,NaN,,,,,,false,,,,136190.29999995232,136190.09999990463,,136189.89999985695,,136194.864,8,400,,,
sequence,flow.Sequence,4_24,2023-09-08T20:45:10.846Z,,0,,,2946.7709999046347,completion,,,,,false,,,,136190.39999985695,136190.09999990463,133226.697,133242.79999995232,133243.329,136194.864,8,400,,,
trial,html.Screen,4_25_0,2023-09-08T20:45:13.489Z,,0,1,,2637.8359998092637,response,ISIC_0054248.JPG,6,ISIC_0003117.JPG,ISIC_0003117.JPG,false,0,keypress(z),500,138833,138832.69999980927,136178.165,136190.5,136194.864,138848.502,8,400,26,,ISIC_0054248.JPG
break,html.Screen,4_25_1,2023-09-08T20:45:13.490Z,,0,,,NaN,,,,,,false,,,,138833.79999995232,138833.5,,138833.09999990463,,138848.502,8,400,,,
break_continue,html.Screen,4_25_2,2023-09-08T20:45:13.490Z,,0,,,NaN,,,,,,false,,,,138834.19999980927,138834.19999980927,,138833.89999985695,,138848.502,8,400,,,
sequence,flow.Sequence,4_25,2023-09-08T20:45:13.490Z,,0,,,2639.3359998092637,completion,,,,,false,,,,138834.39999985695,138834.19999980927,136178.165,136190.5,136194.864,138848.502,8,400,,,
trial,html.Screen,4_26_0,2023-09-08T20:45:16.134Z,,0,1,,2628.9979999999923,response,ISIC_8041078.JPG,5,ISIC_9574101.JPG,ISIC_9574101.JPG,false,0,keypress(z),500,141477.79999995232,141477.5,138831.827,138834.5,138848.502,141481.815,8,400,27,,ISIC_8041078.JPG
break,html.Screen,4_26_1,2023-09-08T20:45:16.134Z,,0,,,NaN,,,,,,false,,,,141478.79999995232,141478.5,,141478,,141481.815,8,400,,,
break_continue,html.Screen,4_26_2,2023-09-08T20:45:16.135Z,,0,,,NaN,,,,,,false,,,,141479,141478.89999985695,,141478.79999995232,,141481.815,8,400,,,
sequence,flow.Sequence,4_26,2023-09-08T20:45:16.135Z,,0,,,2630.397999856941,completion,,,,,false,,,,141479.19999980927,141478.89999985695,138831.827,138834.39999985695,138848.502,141481.815,8,400,,,
trial,html.Screen,4_27_0,2023-09-08T20:45:18.697Z,,0,1,,2559.484999952314,response,ISIC_6234702.JPG,5,ISIC_2007396.JPG,ISIC_6234702.JPG,false,1,keypress(m),500,144041.59999990463,144041.29999995232,141465.162,141479.19999980927,141481.815,144045.548,8,400,28,,ISIC_2007396.JPG
break,html.Screen,4_27_1,2023-09-08T20:45:18.698Z,,0,,,NaN,,,,,,false,,,,144042.69999980927,144042.39999985695,,144041.79999995232,,144045.548,8,400,,,
break_continue,html.Screen,4_27_2,2023-09-08T20:45:18.699Z,,0,,,NaN,,,,,,false,,,,144043.19999980927,144043.19999980927,,144042.79999995232,,144045.548,8,400,,,
sequence,flow.Sequence,4_27,2023-09-08T20:45:18.699Z,,0,,,2561.384999809263,completion,,,,,false,,,,144043.39999985695,144043.19999980927,141465.162,141479.19999980927,141481.815,144045.548,8,400,,,
trial,html.Screen,4_28_0,2023-09-08T20:45:21.261Z,,0,1,,2559.6519998092554,response,ISIC_5282642.JPG,5,ISIC_6973257.JPG,ISIC_5282642.JPG,false,1,keypress(m),500,146605.39999985695,146605.19999980927,144028.876,144043.59999990463,144045.548,146609.541,8,400,29,,ISIC_6973257.JPG
break,html.Screen,4_28_1,2023-09-08T20:45:21.262Z,,0,,,NaN,,,,,,false,,,,146606.5,146606.19999980927,,146605.59999990463,,146609.541,8,400,,,
break_continue,html.Screen,4_28_2,2023-09-08T20:45:21.263Z,,0,,,NaN,,,,,,false,,,,146607.09999990463,146607,,146606.69999980927,,146609.541,8,400,,,
sequence,flow.Sequence,4_28,2023-09-08T20:45:21.263Z,,0,,,2561.45199999999,completion,,,,,false,,,,146607.19999980927,146607,144028.876,144043.5,144045.548,146609.541,8,400,,,
trial,html.Screen,4_29_0,2023-09-08T20:45:25.429Z,,0,1,,4163.758999952319,response,ISIC_0057988.JPG,4,ISIC_0013702.JPG,ISIC_0013702.JPG,false,0,keypress(z),500,150773.59999990463,150773.29999995232,146592.842,146607.39999985695,146609.541,150784.594,8,400,30,,ISIC_0057988.JPG
break,html.Screen,4_29_1,2023-09-08T20:45:25.430Z,,0,,,NaN,,,,,,false,,,,150774.59999990463,150774.29999995232,,150773.79999995232,,150784.594,8,400,,,
break_continue,html.Screen,4_29_2,2023-09-08T20:45:25.431Z,,0,,,NaN,,,,,,false,,,,150775.19999980927,150775,,150774.69999980927,,150784.594,8,400,,,
sequence,flow.Sequence,4_29,2023-09-08T20:45:25.431Z,,0,,,4165.459000000003,completion,,,,,false,,,,150775.29999995232,150775,146592.842,146607.39999985695,146609.541,150784.594,8,400,,,
trial,html.Screen,4_30_0,2023-09-08T20:45:28.030Z,,0,1,,2589.5059999046207,response,ISIC_0065013.JPG,4,ISIC_0959863.JPG,ISIC_0959863.JPG,false,0,keypress(z),500,153374.19999980927,153374.09999990463,150767.919,150775.5,150784.594,153379.813,8,400,31,,ISIC_0065013.JPG
break,html.Screen,4_30_1,2023-09-08T20:45:28.031Z,,0,,,NaN,,,,,,false,,,,153375.09999990463,153374.79999995232,,153374.39999985695,,153379.813,8,400,,,
break_continue,html.Screen,4_30_2,2023-09-08T20:45:28.031Z,,0,,,NaN,,,,,,false,,,,153375.5,153375.39999985695,,153375.19999980927,,153379.813,8,400,,,
sequence,flow.Sequence,4_30,2023-09-08T20:45:28.032Z,,0,,,2590.805999856937,completion,,,,,false,,,,153375.79999995232,153375.39999985695,150767.919,150775.39999985695,150784.594,153379.813,8,400,,,
trial,html.Screen,4_31_0,2023-09-08T20:45:30.567Z,,0,1,,2531.286999904638,response,ISIC_2928274.JPG,5,ISIC_0011295.JPG,ISIC_2928274.JPG,false,1,keypress(m),500,155911.39999985695,155911.09999990463,153363.16,153375.89999985695,153379.813,155921.379,8,400,32,,ISIC_0011295.JPG
break,html.Screen,4_31_1,2023-09-08T20:45:30.568Z,,0,,,NaN,,,,,,false,,,,155912.59999990463,155912.29999995232,,155911.69999980927,,155921.379,8,400,,,
break_continue,html.Screen,4_31_2,2023-09-08T20:45:30.569Z,,0,,,NaN,,,,,,false,,,,155913.19999980927,155913,,155912.69999980927,,155921.379,8,400,,,
sequence,flow.Sequence,4_31,2023-09-08T20:45:30.569Z,,0,,,2533.1870000000054,completion,,,,,false,,,,155913.29999995232,155913,153363.16,153375.89999985695,153379.813,155921.379,8,400,,,
trial,html.Screen,4_32_0,2023-09-08T20:45:33.395Z,,0,1,,2817.2209999046463,response,ISIC_8066660.JPG,6,ISIC_0013459.JPG,ISIC_0013459.JPG,false,0,keypress(z),500,158738.79999995232,158738.59999990463,155904.707,155913.39999985695,155921.379,158746.512,8,400,33,,ISIC_8066660.JPG
break,html.Screen,4_32_1,2023-09-08T20:45:33.395Z,,0,,,NaN,,,,,,false,,,,158739.5,158739.29999995232,,158738.89999985695,,158746.512,8,400,,,
break_continue,html.Screen,4_32_2,2023-09-08T20:45:33.396Z,,0,,,NaN,,,,,,false,,,,158739.89999985695,158739.79999995232,,158739.69999980927,,158746.512,8,400,,,
sequence,flow.Sequence,4_32,2023-09-08T20:45:33.396Z,,0,,,2818.42099995233,completion,,,,,false,,,,158740.09999990463,158739.79999995232,155904.707,155913.39999985695,155921.379,158746.512,8,400,,,
trial,html.Screen,4_33_0,2023-09-08T20:45:36.186Z,,0,1,,2783.5879999046447,response,ISIC_7509837.JPG,5,ISIC_9303594.JPG,ISIC_9303594.JPG,false,0,keypress(z),500,161530.29999995232,161530.09999990463,158729.813,158740.09999990463,158746.512,161535.567,8,400,34,,ISIC_7509837.JPG
break,html.Screen,4_33_1,2023-09-08T20:45:36.187Z,,0,,,NaN,,,,,,false,,,,161531.29999995232,161531,,161530.5,,161535.567,8,400,,,
break_continue,html.Screen,4_33_2,2023-09-08T20:45:36.188Z,,0,,,NaN,,,,,,false,,,,161531.69999980927,161531.69999980927,,161531.39999985695,,161535.567,8,400,,,
sequence,flow.Sequence,4_33,2023-09-08T20:45:36.188Z,,0,,,2785.1879998092772,completion,,,,,false,,,,161531.89999985695,161531.69999980927,158729.813,158740.09999990463,158746.512,161535.567,8,400,,,
trial,html.Screen,4_34_0,2023-09-08T20:45:39.054Z,,0,1,,2862.5329999046226,response,ISIC_4897852.JPG,5,ISIC_1445277.JPG,ISIC_4897852.JPG,false,1,keypress(m),500,164398.29999995232,164398.09999990463,161518.892,161532,161535.567,164403.164,8,400,35,,ISIC_1445277.JPG
break,html.Screen,4_34_1,2023-09-08T20:45:39.055Z,,0,,,NaN,,,,,,false,,,,164399.39999985695,164399.19999980927,,164398.5,,164403.164,8,400,,,
break_continue,html.Screen,4_34_2,2023-09-08T20:45:39.056Z,,0,,,NaN,,,,,,false,,,,164400.09999990463,164399.79999995232,,164399.69999980927,,164403.164,8,400,,,
sequence,flow.Sequence,4_34,2023-09-08T20:45:39.056Z,,0,,,2864.2329999523063,completion,,,,,false,,,,164400.39999985695,164399.79999995232,161518.892,161532,161535.567,164403.164,8,400,,,
trial,html.Screen,4_35_0,2023-09-08T20:45:41.667Z,,0,1,,2607.6359999523265,response,ISIC_1979534.JPG,5,ISIC_0011895.JPG,ISIC_1979534.JPG,false,1,keypress(m),500,167011,167010.79999995232,164386.508,164400.5,164403.164,167019.989,8,400,36,,ISIC_0011895.JPG
break,html.Screen,4_35_1,2023-09-08T20:45:41.668Z,,0,,,NaN,,,,,,false,,,,167012.29999995232,167012.19999980927,,167011.19999980927,,167019.989,8,400,,,
break_continue,html.Screen,4_35_2,2023-09-08T20:45:41.668Z,,0,,,NaN,,,,,,false,,,,167012.69999980927,167012.59999990463,,167012.39999985695,,167019.989,8,400,,,
sequence,flow.Sequence,4_35,2023-09-08T20:45:41.669Z,,0,,,2609.435999904643,completion,,,,,false,,,,167012.69999980927,167012.59999990463,164386.508,164400.5,164403.164,167019.989,8,400,,,
trial,html.Screen,4_36_0,2023-09-08T20:45:44.265Z,,0,1,,2588.7109998092637,response,ISIC_0010017.JPG,5,ISIC_2879267.JPG,ISIC_2879267.JPG,false,0,keypress(z),500,169608.89999985695,169608.69999980927,167003.336,167012.79999995232,167019.989,169624.09,8,400,37,,ISIC_0010017.JPG
break,html.Screen,4_36_1,2023-09-08T20:45:44.266Z,,0,,,NaN,,,,,,false,,,,169610,169609.69999980927,,169609.19999980927,,169624.09,8,400,,,
break_continue,html.Screen,4_36_2,2023-09-08T20:45:44.266Z,,0,,,NaN,,,,,,false,,,,169610.39999985695,169610.29999995232,,169610.09999990463,,169624.09,8,400,,,
sequence,flow.Sequence,4_36,2023-09-08T20:45:44.267Z,,0,,,2590.310999952315,completion,,,,,false,,,,169610.79999995232,169610.29999995232,167003.336,167012.69999980927,167019.989,169624.09,8,400,,,
trial,html.Screen,4_37_0,2023-09-08T20:45:46.812Z,,0,1,,2532.20999995232,response,ISIC_2021321.JPG,5,ISIC_2743014.JPG,ISIC_2743014.JPG,false,0,keypress(z),500,172156.5,172156.29999995232,169607.391,169610.89999985695,169624.09,172169.908,8,400,38,,ISIC_2021321.JPG
break,html.Screen,4_37_1,2023-09-08T20:45:46.813Z,,0,,,NaN,,,,,,false,,,,172157.39999985695,172157.29999995232,,172156.69999980927,,172169.908,8,400,,,
break_continue,html.Screen,4_37_2,2023-09-08T20:45:46.814Z,,0,,,NaN,,,,,,false,,,,172158,172157.89999985695,,172157.59999990463,,172169.908,8,400,,,
sequence,flow.Sequence,4_37,2023-09-08T20:45:46.814Z,,0,,,2533.8099998569523,completion,,,,,false,,,,172158.09999990463,172157.89999985695,169607.391,169610.79999995232,169624.09,172169.908,8,400,,,
trial,html.Screen,4_38_0,2023-09-08T20:45:49.952Z,,0,1,,3125.6919999046368,response,ISIC_0305800.JPG,5,ISIC_0567814.JPG,ISIC_0305800.JPG,false,1,keypress(m),500,175295.79999995232,175295.59999990463,172153.252,172158.19999980927,172169.908,175303.282,8,400,39,,ISIC_0567814.JPG
break,html.Screen,4_38_1,2023-09-08T20:45:49.953Z,,0,,,NaN,,,,,,false,,,,175296.69999980927,175296.5,,175295.89999985695,,175303.282,8,400,,,
break_continue,html.Screen,4_38_2,2023-09-08T20:45:49.953Z,,0,,,NaN,,,,,,false,,,,175297.09999990463,175297,,175296.89999985695,,175303.282,8,400,,,
sequence,flow.Sequence,4_38,2023-09-08T20:45:49.953Z,,0,,,3127.092000000004,completion,,,,,false,,,,175297.19999980927,175297,172153.252,172158.19999980927,172169.908,175303.282,8,400,,,
trial,html.Screen,4_39_0,2023-09-08T20:45:52.610Z,,0,1,,2650.817999904626,response,ISIC_0071906.JPG,4,ISIC_6052437.JPG,ISIC_6052437.JPG,false,0,keypress(z),500,177954.29999995232,177954.09999990463,175286.626,175297.29999995232,175303.282,177970.494,8,400,40,,ISIC_0071906.JPG
break,html.Screen,4_39_1,2023-09-08T20:45:52.611Z,,0,,,NaN,,,,,,false,,,,177955.39999985695,177955.19999980927,,177954.5,,177970.494,8,400,,,
break_continue,html.Screen,4_39_2,2023-09-08T20:45:52.612Z,,0,,,NaN,,,,,,false,,,,177956,177955.79999995232,,177955.5,,177970.494,8,400,,,
sequence,flow.Sequence,4_39,2023-09-08T20:45:52.612Z,,0,,,2652.5179999523098,completion,,,,,false,,,,177956.09999990463,177955.79999995232,175286.626,175297.29999995232,175303.282,177970.494,8,400,,,
trial,html.Screen,4_40_0,2023-09-08T20:45:55.542Z,,0,1,,2915.405999856943,response,ISIC_7806926.JPG,4,ISIC_5718805.JPG,ISIC_5718805.JPG,false,0,keypress(z),500,180886.19999980927,180885.89999985695,177953.839,177956.19999980927,177970.494,180897.857,8,400,41,,ISIC_7806926.JPG
break,html.Screen,4_40_1,2023-09-08T20:45:55.543Z,,0,,,NaN,,,,,,false,,,,180887.19999980927,180886.89999985695,,180886.39999985695,,180897.857,8,400,,,
break_continue,html.Screen,4_40_2,2023-09-08T20:45:55.544Z,,0,,,NaN,,,,,,false,,,,180887.79999995232,180887.59999990463,,180887.29999995232,,180897.857,8,400,,,
sequence,flow.Sequence,4_40,2023-09-08T20:45:55.544Z,,0,,,2917.1059999046265,completion,,,,,false,,,,180887.89999985695,180887.59999990463,177953.839,177956.09999990463,177970.494,180897.857,8,400,,,
trial,html.Screen,4_41_0,2023-09-08T20:45:58.737Z,,0,1,,3182.442999952327,response,ISIC_4153687.JPG,5,ISIC_7912104.JPG,ISIC_7912104.JPG,false,0,keypress(z),500,184080.69999980927,184080.29999995232,180881.203,180888,180897.857,184086.334,8,400,42,,ISIC_4153687.JPG
break,html.Screen,4_41_1,2023-09-08T20:45:58.738Z,,0,,,NaN,,,,,,false,,,,184081.89999985695,184081.59999990463,,184080.89999985695,,184086.334,8,400,,,
break_continue,html.Screen,4_41_2,2023-09-08T20:45:58.738Z,,0,,,NaN,,,,,,false,,,,184082.39999985695,184082.29999995232,,184082.09999990463,,184086.334,8,400,,,
sequence,flow.Sequence,4_41,2023-09-08T20:45:58.738Z,,0,,,3184.442999952327,completion,,,,,false,,,,184082.69999980927,184082.29999995232,180881.203,180888,180897.857,184086.334,8,400,,,
trial,html.Screen,4_42_0,2023-09-08T20:46:01.477Z,,0,1,,2734.4659999523137,response,ISIC_3305055.JPG,6,ISIC_0055820.JPG,ISIC_3305055.JPG,false,1,keypress(m),500,186821,186820.79999995232,184069.681,184082.79999995232,184086.334,186828.512,8,400,43,,ISIC_0055820.JPG
break,html.Screen,4_42_1,2023-09-08T20:46:01.478Z,,0,,,NaN,,,,,,false,,,,186822,186821.79999995232,,186821.19999980927,,186828.512,8,400,,,
break_continue,html.Screen,4_42_2,2023-09-08T20:46:01.478Z,,0,,,NaN,,,,,,false,,,,186822.59999990463,186822.39999985695,,186822.29999995232,,186828.512,8,400,,,
sequence,flow.Sequence,4_42,2023-09-08T20:46:01.479Z,,0,,,2736.0659998569463,completion,,,,,false,,,,186822.69999980927,186822.39999985695,184069.681,184082.79999995232,184086.334,186828.512,8,400,,,
trial,html.Screen,4_43_0,2023-09-08T20:46:04.744Z,,0,1,,3259.387999856961,response,ISIC_7441957.JPG,6,ISIC_0066209.JPG,ISIC_0066209.JPG,false,0,keypress(z),500,190088.29999995232,190087.89999985695,186811.816,186822.89999985695,186828.512,190089.178,8,400,44,,ISIC_7441957.JPG
break,html.Screen,4_43_1,2023-09-08T20:46:04.745Z,,0,,,NaN,,,,,,false,,,,190089.29999995232,190089.09999990463,,190088.5,,190089.178,8,400,,,
break_continue,html.Screen,4_43_2,2023-09-08T20:46:04.746Z,,0,,,NaN,,,,,,false,,,,190089.79999995232,190089.59999990463,,190089.5,,190089.178,8,400,,,
sequence,flow.Sequence,4_43,2023-09-08T20:46:04.746Z,,0,,,3261.0879999046447,completion,,,,,false,,,,190090,190089.59999990463,186811.816,186822.89999985695,186828.512,190089.178,8,400,,,
trial,html.Screen,4_44_0,2023-09-08T20:46:07.311Z,,0,1,,2565.5219998092507,response,ISIC_0026505.JPG,5,ISIC_6800044.JPG,ISIC_6800044.JPG,false,0,keypress(z),500,192655.09999990463,192654.69999980927,190072.522,190090.09999990463,190089.178,192668.47,8,400,45,,ISIC_0026505.JPG
break,html.Screen,4_44_1,2023-09-08T20:46:07.312Z,,0,,,NaN,,,,,,false,,,,192656.09999990463,192655.79999995232,,192655.29999995232,,192668.47,8,400,,,
break_continue,html.Screen,4_44_2,2023-09-08T20:46:07.312Z,,0,,,NaN,,,,,,false,,,,192656.59999990463,192656.5,,192656.19999980927,,192668.47,8,400,,,
sequence,flow.Sequence,4_44,2023-09-08T20:46:07.313Z,,0,,,2567.3219999999856,completion,,,,,false,,,,192656.79999995232,192656.5,190072.522,190090.09999990463,190089.178,192668.47,8,400,,,
trial,html.Screen,4_45_0,2023-09-08T20:46:10.311Z,,0,1,,2986.529999999999,response,ISIC_5441247.JPG,4,ISIC_4938994.JPG,ISIC_5441247.JPG,false,1,keypress(m),500,195655.29999995232,195655,192651.815,192657,192668.47,195657.898,8,400,46,,ISIC_4938994.JPG
break,html.Screen,4_45_1,2023-09-08T20:46:10.312Z,,0,,,NaN,,,,,,false,,,,195656.39999985695,195656,,195655.5,,195657.898,8,400,,,
break_continue,html.Screen,4_45_2,2023-09-08T20:46:10.313Z,,0,,,NaN,,,,,,false,,,,195656.89999985695,195656.69999980927,,195656.5,,195657.898,8,400,,,
sequence,flow.Sequence,4_45,2023-09-08T20:46:10.313Z,,0,,,2988.229999809264,completion,,,,,false,,,,195657.19999980927,195656.69999980927,192651.815,192657,192668.47,195657.898,8,400,,,
trial,html.Screen,4_46_0,2023-09-08T20:46:12.882Z,,0,1,,2568.201999904646,response,ISIC_4534608.JPG,5,ISIC_0061941.JPG,ISIC_4534608.JPG,false,1,keypress(m),500,198226.39999985695,198226.09999990463,195641.244,195657.29999995232,195657.898,198233.369,8,400,47,,ISIC_0061941.JPG
break,html.Screen,4_46_1,2023-09-08T20:46:12.883Z,,0,,,NaN,,,,,,false,,,,198227.39999985695,198227.19999980927,,198226.59999990463,,198233.369,8,400,,,
break_continue,html.Screen,4_46_2,2023-09-08T20:46:12.884Z,,0,,,NaN,,,,,,false,,,,198228,198227.79999995232,,198227.69999980927,,198233.369,8,400,,,
sequence,flow.Sequence,4_46,2023-09-08T20:46:12.884Z,,0,,,2569.90199995233,completion,,,,,false,,,,198228.09999990463,198227.79999995232,195641.244,195657.19999980927,195657.898,198233.369,8,400,,,
trial,html.Screen,4_47_0,2023-09-08T20:46:16.871Z,,0,1,,3981.9309999523102,response,ISIC_0009298.JPG,5,ISIC_3478437.JPG,ISIC_3478437.JPG,false,0,keypress(z),500,202215.5,202215.29999995232,198216.707,198228.29999995232,198233.369,202220.102,8,400,48,,ISIC_0009298.JPG
break,html.Screen,4_47_1,2023-09-08T20:46:16.872Z,,0,,,NaN,,,,,,false,,,,202216.59999990463,202216.29999995232,,202215.79999995232,,202220.102,8,400,,,
break_continue,html.Screen,4_47_2,2023-09-08T20:46:16.873Z,,0,,,NaN,,,,,,false,,,,202217.19999980927,202217,,202216.79999995232,,202220.102,8,400,,,
sequence,flow.Sequence,4_47,2023-09-08T20:46:16.873Z,,0,,,3983.630999999994,completion,,,,,false,,,,202217.29999995232,202217,198216.707,198228.19999980927,198233.369,202220.102,8,400,,,
trial,html.Screen,4_48_0,2023-09-08T20:46:19.676Z,,0,1,,2799.197999952303,response,ISIC_0638857.JPG,5,ISIC_0005639.JPG,ISIC_0638857.JPG,false,1,keypress(m),500,205019.89999985695,205019.29999995232,202203.446,202217.5,202220.102,205028.598,8,400,49,,ISIC_0005639.JPG
break,html.Screen,4_48_1,2023-09-08T20:46:19.677Z,,0,,,NaN,,,,,,false,,,,205020.79999995232,205020.59999990463,,205020.09999990463,,205028.598,8,400,,,
break_continue,html.Screen,4_48_2,2023-09-08T20:46:19.677Z,,0,,,NaN,,,,,,false,,,,205021.09999990463,205021,,205020.79999995232,,205028.598,8,400,,,
sequence,flow.Sequence,4_48,2023-09-08T20:46:19.677Z,,0,,,2800.8979999999865,completion,,,,,false,,,,205021.29999995232,205021,202203.446,202217.5,202220.102,205028.598,8,400,,,
trial,html.Screen,4_49_0,2023-09-08T20:46:22.272Z,,0,1,,2587.201999952318,response,ISIC_1693458.JPG,5,ISIC_0059411.JPG,ISIC_1693458.JPG,false,1,keypress(m),500,207616.09999990463,207615.79999995232,205011.942,205021.29999995232,205028.598,207628.417,8,400,50,,ISIC_0059411.JPG
break,html.Screen,4_49_1,2023-09-08T20:46:32.633Z,,0,,,19336.088000000018,timeout,,,,,false,,,,217977.89999985695,217977.69999980927,207611.763,207616.19999980927,207628.417,226964.505,8,400,,,
break_continue,html.Screen,4_49_2,2023-09-08T20:46:42.888Z,,0,,,1256.8949998569442,response,,,,,false,continue,keypress(Space),,228233.09999990463,228221.39999985695,217977.69999980927,217978,226964.505,228245.025,8,400,,,
sequence,flow.Sequence,4_49,2023-09-08T20:46:42.889Z,,0,,,23192.80199985695,completion,,,,,false,,,,228233.29999995232,228221.39999985695,205011.942,205021.29999995232,205028.598,228245.025,8,400,,,
trial,html.Screen,4_50_0,2023-09-08T20:46:46.652Z,,0,2,,3751.5749999046384,response,ISIC_4960784.JPG,5,ISIC_1580034.JPG,ISIC_1580034.JPG,false,0,keypress(z),500,231996.69999980927,231996.59999990463,228228.395,228233.39999985695,228245.025,232007.593,8,400,1,,ISIC_4960784.JPG
break,html.Screen,4_50_1,2023-09-08T20:46:46.653Z,,0,,,NaN,,,,,,false,,,,231997.39999985695,231997.19999980927,,231996.89999985695,,232007.593,8,400,,,
break_continue,html.Screen,4_50_2,2023-09-08T20:46:46.653Z,,0,,,NaN,,,,,,false,,,,231997.69999980927,231997.59999990463,,231997.5,,232007.593,8,400,,,
sequence,flow.Sequence,4_50,2023-09-08T20:46:46.653Z,,0,,,3752.5749999046384,completion,,,,,false,,,,231997.79999995232,231997.59999990463,228228.395,228233.39999985695,228245.025,232007.593,8,400,,,
trial,html.Screen,4_51_0,2023-09-08T20:46:49.423Z,,0,2,,2759.506999904639,response,ISIC_0070254.JPG,4,ISIC_0011094.JPG,ISIC_0011094.JPG,false,0,keypress(z),500,234767.5,234767.09999990463,231990.905,231997.79999995232,232007.593,234784.292,8,400,2,,ISIC_0070254.JPG
break,html.Screen,4_51_1,2023-09-08T20:46:49.424Z,,0,,,NaN,,,,,,false,,,,234768.5,234768.29999995232,,234767.69999980927,,234784.292,8,400,,,
break_continue,html.Screen,4_51_2,2023-09-08T20:46:49.424Z,,0,,,NaN,,,,,,false,,,,234768.89999985695,234768.79999995232,,234768.59999990463,,234784.292,8,400,,,
sequence,flow.Sequence,4_51,2023-09-08T20:46:49.424Z,,0,,,2761.206999952323,completion,,,,,false,,,,234769.09999990463,234768.79999995232,231990.905,231997.79999995232,232007.593,234784.292,8,400,,,
trial,html.Screen,4_52_0,2023-09-08T20:46:51.946Z,,0,2,,2506.4079998092784,response,ISIC_0071988.JPG,5,ISIC_1293743.JPG,ISIC_1293743.JPG,false,0,keypress(z),500,237290.89999985695,237290.69999980927,234767.661,234769.19999980927,234784.292,237300.127,8,400,3,,ISIC_0071988.JPG
break,html.Screen,4_52_1,2023-09-08T20:46:51.948Z,,0,,,NaN,,,,,,false,,,,237292.19999980927,237291.79999995232,,237291.09999990463,,237300.127,8,400,,,
break_continue,html.Screen,4_52_2,2023-09-08T20:46:51.948Z,,0,,,NaN,,,,,,false,,,,237293,237292.79999995232,,237292.39999985695,,237300.127,8,400,,,
sequence,flow.Sequence,4_52,2023-09-08T20:46:51.949Z,,0,,,2508.5079999523296,completion,,,,,false,,,,237293.39999985695,237292.79999995232,234767.661,234769.09999990463,234784.292,237300.127,8,400,,,
trial,html.Screen,4_53_0,2023-09-08T20:46:56.815Z,,0,2,,4859.272999856941,response,ISIC_6982386.JPG,5,ISIC_5983500.JPG,ISIC_6982386.JPG,false,1,keypress(m),500,242159.59999990463,242159.39999985695,237283.44,237293.69999980927,237300.127,242175.286,8,400,4,,ISIC_5983500.JPG
break,html.Screen,4_53_1,2023-09-08T20:46:56.816Z,,0,,,NaN,,,,,,false,,,,242160.5,242160.39999985695,,242159.79999995232,,242175.286,8,400,,,
break_continue,html.Screen,4_53_2,2023-09-08T20:46:56.816Z,,0,,,NaN,,,,,,false,,,,242160.79999995232,242160.79999995232,,242160.59999990463,,242175.286,8,400,,,
sequence,flow.Sequence,4_53,2023-09-08T20:46:56.816Z,,0,,,4860.672999952309,completion,,,,,false,,,,242161,242160.79999995232,237283.44,237293.59999990463,237300.127,242175.286,8,400,,,
trial,html.Screen,4_54_0,2023-09-08T20:46:59.993Z,,0,2,,3162.4139998092724,response,ISIC_0046596.JPG,4,ISIC_0072991.JPG,ISIC_0046596.JPG,false,1,keypress(m),500,245337.89999985695,245337.69999980927,242158.601,242161.09999990463,242175.286,245347.961,8,400,5,,ISIC_0072991.JPG
break,html.Screen,4_54_1,2023-09-08T20:46:59.994Z,,0,,,NaN,,,,,,false,,,,245338.89999985695,245338.69999980927,,245338.09999990463,,245347.961,8,400,,,
break_continue,html.Screen,4_54_2,2023-09-08T20:46:59.995Z,,0,,,NaN,,,,,,false,,,,245339.29999995232,245339.19999980927,,245339.09999990463,,245347.961,8,400,,,
sequence,flow.Sequence,4_54,2023-09-08T20:46:59.995Z,,0,,,3163.9139998092724,completion,,,,,false,,,,245339.5,245339.19999980927,242158.601,242161,242175.286,245347.961,8,400,,,
trial,html.Screen,4_55_0,2023-09-08T20:47:02.624Z,,0,2,,2620.238999809255,response,ISIC_0032682.JPG,4,ISIC_9072309.JPG,ISIC_9072309.JPG,false,0,keypress(z),500,247968.39999985695,247968.19999980927,245331.052,245339.59999990463,245347.961,247980.596,8,400,6,,ISIC_0032682.JPG
break,html.Screen,4_55_1,2023-09-08T20:47:02.624Z,,0,,,NaN,,,,,,false,,,,247969.09999990463,247968.89999985695,,247968.5,,247980.596,8,400,,,
break_continue,html.Screen,4_55_2,2023-09-08T20:47:02.625Z,,0,,,NaN,,,,,,false,,,,247969.59999990463,247969.5,,247969.29999995232,,247980.596,8,400,,,
sequence,flow.Sequence,4_55,2023-09-08T20:47:02.625Z,,0,,,2621.5389999999898,completion,,,,,false,,,,247969.69999980927,247969.5,245331.052,245339.59999990463,245347.961,247980.596,8,400,,,
trial,html.Screen,4_56_0,2023-09-08T20:47:05.164Z,,0,2,,2527.503999904642,response,ISIC_0031800.JPG,5,ISIC_9069800.JPG,ISIC_9069800.JPG,false,0,keypress(z),500,250508.19999980927,250508.09999990463,247963.718,247969.79999995232,247980.596,250513.104,8,400,7,,ISIC_0031800.JPG
break,html.Screen,4_56_1,2023-09-08T20:47:05.164Z,,0,,,NaN,,,,,,false,,,,250509.09999990463,250508.89999985695,,250508.29999995232,,250513.104,8,400,,,
break_continue,html.Screen,4_56_2,2023-09-08T20:47:05.165Z,,0,,,NaN,,,,,,false,,,,250509.39999985695,250509.29999995232,,250509.19999980927,,250513.104,8,400,,,
sequence,flow.Sequence,4_56,2023-09-08T20:47:05.165Z,,0,,,2528.703999952326,completion,,,,,false,,,,250509.5,250509.29999995232,247963.718,247969.79999995232,247980.596,250513.104,8,400,,,
trial,html.Screen,4_57_0,2023-09-08T20:47:08.111Z,,0,2,,2942.595999809273,response,ISIC_0011125.JPG,4,ISIC_3232329.JPG,ISIC_3232329.JPG,false,0,keypress(z),500,253455.89999985695,253455.69999980927,250496.419,250509.5,250513.104,253470.723,8,400,8,,ISIC_0011125.JPG
break,html.Screen,4_57_1,2023-09-08T20:47:08.112Z,,0,,,NaN,,,,,,false,,,,253457.09999990463,253456.79999995232,,253456.19999980927,,253470.723,8,400,,,
break_continue,html.Screen,4_57_2,2023-09-08T20:47:08.113Z,,0,,,NaN,,,,,,false,,,,253457.89999985695,253457.79999995232,,253457.29999995232,,253470.723,8,400,,,
sequence,flow.Sequence,4_57,2023-09-08T20:47:08.113Z,,0,,,2944.695999952324,completion,,,,,false,,,,253458.09999990463,253457.79999995232,250496.419,250509.5,250513.104,253470.723,8,400,,,
trial,html.Screen,4_58_0,2023-09-08T20:47:11.923Z,,0,2,,3797.076999952318,response,ISIC_9196033.JPG,5,ISIC_0028606.JPG,ISIC_9196033.JPG,false,1,keypress(m),500,257268.09999990463,257267.79999995232,253453.938,253458.29999995232,253470.723,257283.727,8,400,9,,ISIC_0028606.JPG
break,html.Screen,4_58_1,2023-09-08T20:47:11.924Z,,0,,,NaN,,,,,,false,,,,257269.09999990463,257268.89999985695,,257268.19999980927,,257283.727,8,400,,,
break_continue,html.Screen,4_58_2,2023-09-08T20:47:11.925Z,,0,,,NaN,,,,,,false,,,,257269.59999990463,257269.39999985695,,257269.29999995232,,257283.727,8,400,,,
sequence,flow.Sequence,4_58,2023-09-08T20:47:11.925Z,,0,,,3798.6769998569507,completion,,,,,false,,,,257269.69999980927,257269.39999985695,253453.938,253458.19999980927,253470.723,257283.727,8,400,,,
trial,html.Screen,4_59_0,2023-09-08T20:47:14.503Z,,0,2,,2563.372999904619,response,ISIC_0026727.JPG,5,ISIC_0027247.JPG,ISIC_0026727.JPG,false,1,keypress(m),500,259847.29999995232,259847.09999990463,257267.073,257269.79999995232,257283.727,259848.204,8,400,10,,ISIC_0027247.JPG
break,html.Screen,4_59_1,2023-09-08T20:47:14.504Z,,0,,,NaN,,,,,,false,,,,259848.29999995232,259848.09999990463,,259847.5,,259848.204,8,400,,,
break_continue,html.Screen,4_59_2,2023-09-08T20:47:14.504Z,,0,,,NaN,,,,,,false,,,,259848.89999985695,259848.79999995232,,259848.5,,259848.204,8,400,,,
sequence,flow.Sequence,4_59,2023-09-08T20:47:14.505Z,,0,,,2565.072999952303,completion,,,,,false,,,,259849.29999995232,259848.79999995232,257267.073,257269.79999995232,257283.727,259848.204,8,400,,,
trial,html.Screen,4_60_0,2023-09-08T20:47:17.293Z,,0,2,,2789.296000000002,response,ISIC_7453676.JPG,4,ISIC_8798059.JPG,ISIC_8798059.JPG,false,0,keypress(z),500,262637.69999980927,262637.5,259831.525,259849.39999985695,259848.204,262651.557,8,400,11,,ISIC_7453676.JPG
break,html.Screen,4_60_1,2023-09-08T20:47:17.294Z,,0,,,NaN,,,,,,false,,,,262638.5,262638.2999999523,,262637.89999985695,,262651.557,8,400,,,
break_continue,html.Screen,4_60_2,2023-09-08T20:47:17.294Z,,0,,,NaN,,,,,,false,,,,262638.89999985695,262638.7999999523,,262638.59999990463,,262651.557,8,400,,,
sequence,flow.Sequence,4_60,2023-09-08T20:47:17.294Z,,0,,,2790.5959999523184,completion,,,,,false,,,,262639.09999990463,262638.7999999523,259831.525,259849.39999985695,259848.204,262651.557,8,400,,,
trial,html.Screen,4_61_0,2023-09-08T20:47:22.320Z,,0,2,,5012.6429998092935,response,ISIC_0026868.JPG,4,ISIC_1306790.JPG,ISIC_1306790.JPG,false,0,keypress(z),500,267664.39999985695,267664.19999980927,262634.943,262639.19999980927,262651.557,267667.947,8,400,12,,ISIC_0026868.JPG
break,html.Screen,4_61_1,2023-09-08T20:47:22.320Z,,0,,,NaN,,,,,,false,,,,267665.19999980927,267665,,267664.59999990463,,267667.947,8,400,,,
break_continue,html.Screen,4_61_2,2023-09-08T20:47:22.321Z,,0,,,NaN,,,,,,false,,,,267665.39999985695,267665.39999985695,,267665.19999980927,,267667.947,8,400,,,
sequence,flow.Sequence,4_61,2023-09-08T20:47:22.321Z,,0,,,5013.842999856977,completion,,,,,false,,,,267665.5,267665.39999985695,262634.943,262639.19999980927,262651.557,267667.947,8,400,,,
trial,html.Screen,4_62_0,2023-09-08T20:47:26.339Z,,0,2,,4015.8529999523307,response,ISIC_7685761.JPG,5,ISIC_2283509.JPG,ISIC_7685761.JPG,false,1,keypress(m),500,271684,271683.7999999523,267651.29,267665.59999990463,267667.947,271694.775,8,400,13,,ISIC_2283509.JPG
break,html.Screen,4_62_1,2023-09-08T20:47:26.340Z,,0,,,NaN,,,,,,false,,,,271685,271684.7999999523,,271684.19999980927,,271694.775,8,400,,,
break_continue,html.Screen,4_62_2,2023-09-08T20:47:26.341Z,,0,,,NaN,,,,,,false,,,,271685.39999985695,271685.2999999523,,271685.09999990463,,271694.775,8,400,,,
sequence,flow.Sequence,4_62,2023-09-08T20:47:26.341Z,,0,,,4017.3529999523307,completion,,,,,false,,,,271685.59999990463,271685.2999999523,267651.29,267665.5,267667.947,271694.775,8,400,,,
trial,html.Screen,4_63_0,2023-09-08T20:47:31.303Z,,0,2,,4952.124999856926,response,ISIC_2720971.JPG,5,ISIC_1885174.JPG,ISIC_1885174.JPG,false,0,keypress(z),500,276647.2999999523,276646.89999985695,271678.121,271685.59999990463,271694.775,276651.953,8,400,14,,ISIC_2720971.JPG
break,html.Screen,4_63_1,2023-09-08T20:47:31.304Z,,0,,,NaN,,,,,,false,,,,276648.39999985695,276648.09999990463,,276647.5,,276651.953,8,400,,,
break_continue,html.Screen,4_63_2,2023-09-08T20:47:31.304Z,,0,,,NaN,,,,,,false,,,,276648.7999999523,276648.7999999523,,276648.5,,276651.953,8,400,,,
sequence,flow.Sequence,4_63,2023-09-08T20:47:31.304Z,,0,,,4954.024999952293,completion,,,,,false,,,,276649,276648.7999999523,271678.121,271685.59999990463,271694.775,276651.953,8,400,,,
trial,html.Screen,4_64_0,2023-09-08T20:47:34.043Z,,0,2,,2734.646999904653,response,ISIC_0013311.JPG,5,ISIC_7663476.JPG,ISIC_0013311.JPG,false,1,keypress(m),500,279386.89999985695,279386.59999990463,276635.329,276649.09999990463,276651.953,279396.471,8,400,15,,ISIC_7663476.JPG
break,html.Screen,4_64_1,2023-09-08T20:47:34.044Z,,0,,,NaN,,,,,,false,,,,279388,279387.69999980927,,279387.09999990463,,279396.471,8,400,,,
break_continue,html.Screen,4_64_2,2023-09-08T20:47:34.044Z,,0,,,NaN,,,,,,false,,,,279388.2999999523,279388.2999999523,,279388,,279396.471,8,400,,,
sequence,flow.Sequence,4_64,2023-09-08T20:47:34.044Z,,0,,,2736.346999952337,completion,,,,,false,,,,279388.5,279388.2999999523,276635.329,276649.09999990463,276651.953,279396.471,8,400,,,
trial,html.Screen,4_65_0,2023-09-08T20:47:37.119Z,,0,2,,3066.7289998092456,response,ISIC_0033268.JPG,5,ISIC_7109582.JPG,ISIC_0033268.JPG,false,1,keypress(m),500,282463.5,282463.19999980927,279379.857,279388.69999980927,279396.471,282464.892,8,400,16,,ISIC_7109582.JPG
break,html.Screen,4_65_1,2023-09-08T20:47:37.120Z,,0,,,NaN,,,,,,false,,,,282464.5,282464.19999980927,,282463.59999990463,,282464.892,8,400,,,
break_continue,html.Screen,4_65_2,2023-09-08T20:47:37.121Z,,0,,,NaN,,,,,,false,,,,282465,282464.89999985695,,282464.69999980927,,282464.892,8,400,,,
sequence,flow.Sequence,4_65,2023-09-08T20:47:37.121Z,,0,,,3068.4289998569293,completion,,,,,false,,,,282465.2999999523,282464.89999985695,279379.857,279388.5,279396.471,282464.892,8,400,,,
trial,html.Screen,4_66_0,2023-09-08T20:47:40.611Z,,0,2,,3490.20799990464,response,ISIC_7994337.JPG,4,ISIC_0072335.JPG,ISIC_7994337.JPG,false,1,keypress(m),500,285955.2999999523,285955.09999990463,282448.235,282465.5,282464.892,285967.062,8,400,17,,ISIC_0072335.JPG
break,html.Screen,4_66_1,2023-09-08T20:47:40.612Z,,0,,,NaN,,,,,,false,,,,285956,285955.89999985695,,285955.39999985695,,285967.062,8,400,,,
break_continue,html.Screen,4_66_2,2023-09-08T20:47:40.612Z,,0,,,NaN,,,,,,false,,,,285956.39999985695,285956.2999999523,,285956.19999980927,,285967.062,8,400,,,
sequence,flow.Sequence,4_66,2023-09-08T20:47:40.612Z,,0,,,3491.4079999523237,completion,,,,,false,,,,285956.5,285956.2999999523,282448.235,282465.39999985695,282464.892,285967.062,8,400,,,
trial,html.Screen,4_67_0,2023-09-08T20:47:43.238Z,,0,2,,2614.9380000000237,response,ISIC_0061806.JPG,5,ISIC_0064261.JPG,ISIC_0064261.JPG,false,0,keypress(z),500,288582.19999980927,288582,285950.408,285956.59999990463,285967.062,288595.476,8,400,18,,ISIC_0061806.JPG
break,html.Screen,4_67_1,2023-09-08T20:47:43.239Z,,0,,,NaN,,,,,,false,,,,288583.19999980927,288583,,288582.39999985695,,288595.476,8,400,,,
break_continue,html.Screen,4_67_2,2023-09-08T20:47:43.239Z,,0,,,NaN,,,,,,false,,,,288583.5,288583.39999985695,,288583.19999980927,,288595.476,8,400,,,
sequence,flow.Sequence,4_67,2023-09-08T20:47:43.240Z,,0,,,2616.3379998569726,completion,,,,,false,,,,288583.7999999523,288583.39999985695,285950.408,285956.5,285967.062,288595.476,8,400,,,
trial,html.Screen,4_68_0,2023-09-08T20:47:45.882Z,,0,2,,2630.723999809241,response,ISIC_0071875.JPG,5,ISIC_8249565.JPG,ISIC_8249565.JPG,false,0,keypress(z),500,291226.59999990463,291226.19999980927,288578.852,288583.7999999523,288595.476,291236.769,8,400,19,,ISIC_0071875.JPG
break,html.Screen,4_68_1,2023-09-08T20:47:45.883Z,,0,,,NaN,,,,,,false,,,,291227.59999990463,291227.39999985695,,291226.69999980927,,291236.769,8,400,,,
break_continue,html.Screen,4_68_2,2023-09-08T20:47:45.884Z,,0,,,NaN,,,,,,false,,,,291228.19999980927,291228,,291227.7999999523,,291236.769,8,400,,,
sequence,flow.Sequence,4_68,2023-09-08T20:47:45.884Z,,0,,,2632.523999999976,completion,,,,,false,,,,291228.2999999523,291228,288578.852,288583.7999999523,288595.476,291236.769,8,400,,,
trial,html.Screen,4_69_0,2023-09-08T20:47:48.478Z,,0,2,,2585.1309998569777,response,ISIC_8105020.JPG,5,ISIC_0028949.JPG,ISIC_8105020.JPG,false,1,keypress(m),500,293822.09999990463,293821.89999985695,291216.26,291228.39999985695,291236.769,293827.012,8,400,20,,ISIC_0028949.JPG
break,html.Screen,4_69_1,2023-09-08T20:47:48.479Z,,0,,,NaN,,,,,,false,,,,293823.19999980927,293823,,293822.2999999523,,293827.012,8,400,,,
break_continue,html.Screen,4_69_2,2023-09-08T20:47:48.480Z,,0,,,NaN,,,,,,false,,,,293824,293823.89999985695,,293823.39999985695,,293827.012,8,400,,,
sequence,flow.Sequence,4_69,2023-09-08T20:47:48.480Z,,0,,,2587.1309998569777,completion,,,,,false,,,,293824.09999990463,293823.89999985695,291216.26,291228.2999999523,291236.769,293827.012,8,400,,,
trial,html.Screen,4_70_0,2023-09-08T20:47:51.410Z,,0,2,,2927.0879999046447,response,ISIC_3632419.JPG,4,ISIC_0010630.JPG,ISIC_3632419.JPG,false,1,keypress(m),500,296754.39999985695,296754.09999990463,293810.36,293824.19999980927,293827.012,296755.704,8,400,21,,ISIC_0010630.JPG
break,html.Screen,4_70_1,2023-09-08T20:47:51.411Z,,0,,,NaN,,,,,,false,,,,296755.5,296755.2999999523,,296754.59999990463,,296755.704,8,400,,,
break_continue,html.Screen,4_70_2,2023-09-08T20:47:51.412Z,,0,,,NaN,,,,,,false,,,,296756.09999990463,296755.89999985695,,296755.59999990463,,296755.704,8,400,,,
sequence,flow.Sequence,4_70,2023-09-08T20:47:51.412Z,,0,,,2928.887999856961,completion,,,,,false,,,,296756.2999999523,296755.89999985695,293810.36,293824.19999980927,293827.012,296755.704,8,400,,,
trial,html.Screen,4_71_0,2023-09-08T20:47:54.198Z,,0,2,,2786.495999809238,response,ISIC_2490481.JPG,6,ISIC_0033916.JPG,ISIC_2490481.JPG,false,1,keypress(m),500,299542.5,299542.19999980927,296739.05,296756.39999985695,296755.704,299544.841,8,400,22,,ISIC_0033916.JPG
break,html.Screen,4_71_1,2023-09-08T20:47:54.199Z,,0,,,NaN,,,,,,false,,,,299543.59999990463,299543.19999980927,,299542.69999980927,,299544.841,8,400,,,
break_continue,html.Screen,4_71_2,2023-09-08T20:47:54.200Z,,0,,,NaN,,,,,,false,,,,299544,299543.89999985695,,299543.69999980927,,299544.841,8,400,,,
sequence,flow.Sequence,4_71,2023-09-08T20:47:54.200Z,,0,,,2788.195999856922,completion,,,,,false,,,,299544.2999999523,299543.89999985695,296739.05,296756.39999985695,296755.704,299544.841,8,400,,,
trial,html.Screen,4_72_0,2023-09-08T20:47:56.922Z,,0,2,,2720.9589999523014,response,ISIC_3181394.JPG,5,ISIC_2915747.JPG,ISIC_2915747.JPG,false,0,keypress(z),500,302266,302265.7999999523,299528.225,299544.39999985695,299544.841,302279.727,8,400,23,,ISIC_3181394.JPG
break,html.Screen,4_72_1,2023-09-08T20:47:56.923Z,,0,,,NaN,,,,,,false,,,,302267.19999980927,302267,,302266.2999999523,,302279.727,8,400,,,
break_continue,html.Screen,4_72_2,2023-09-08T20:47:56.924Z,,0,,,NaN,,,,,,false,,,,302267.7999999523,302267.59999990463,,302267.39999985695,,302279.727,8,400,,,
sequence,flow.Sequence,4_72,2023-09-08T20:47:56.924Z,,0,,,2722.7589999046177,completion,,,,,false,,,,302268,302267.59999990463,299528.225,299544.2999999523,299544.841,302279.727,8,400,,,
trial,html.Screen,4_73_0,2023-09-08T20:47:59.597Z,,0,2,,2661.372999904619,response,ISIC_0004686.JPG,5,ISIC_2126035.JPG,ISIC_0004686.JPG,false,1,keypress(m),500,304941.39999985695,304941.09999990463,302262.437,302268,302279.727,304945.585,8,400,24,,ISIC_2126035.JPG
break,html.Screen,4_73_1,2023-09-08T20:47:59.598Z,,0,,,NaN,,,,,,false,,,,304942.5,304942.19999980927,,304941.59999990463,,304945.585,8,400,,,
break_continue,html.Screen,4_73_2,2023-09-08T20:47:59.599Z,,0,,,NaN,,,,,,false,,,,304943.09999990463,304943,,304942.69999980927,,304945.585,8,400,,,
sequence,flow.Sequence,4_73,2023-09-08T20:47:59.599Z,,0,,,2663.2729999999865,completion,,,,,false,,,,304943.2999999523,304943,302262.437,302268,302279.727,304945.585,8,400,,,
trial,html.Screen,4_74_0,2023-09-08T20:48:03.251Z,,0,2,,3649.314999856928,response,ISIC_0009931.JPG,5,ISIC_0013334.JPG,ISIC_0009931.JPG,false,1,keypress(m),500,308595.19999980927,308594.89999985695,304928.889,304943.39999985695,304945.585,308596.28,8,400,25,,ISIC_0013334.JPG
break,html.Screen,4_74_1,2023-09-08T20:48:03.252Z,,0,,,NaN,,,,,,false,,,,308596.2999999523,308596,,308595.39999985695,,308596.28,8,400,,,
break_continue,html.Screen,4_74_2,2023-09-08T20:48:03.253Z,,0,,,NaN,,,,,,false,,,,308596.89999985695,308596.69999980927,,308596.39999985695,,308596.28,8,400,,,
sequence,flow.Sequence,4_74,2023-09-08T20:48:03.253Z,,0,,,3651.114999809244,completion,,,,,false,,,,308597,308596.69999980927,304928.889,304943.2999999523,304945.585,308596.28,8,400,,,
trial,html.Screen,4_75_0,2023-09-08T20:48:06.829Z,,0,2,,3576.719999999972,response,ISIC_0067979.JPG,4,ISIC_0026314.JPG,ISIC_0026314.JPG,false,0,keypress(z),500,312173.2999999523,312173,308579.401,308597.19999980927,308596.28,312194.919,8,400,26,,ISIC_0067979.JPG
break,html.Screen,4_75_1,2023-09-08T20:48:06.830Z,,0,,,NaN,,,,,,false,,,,312174.69999980927,312174.39999985695,,312173.89999985695,,312194.919,8,400,,,
break_continue,html.Screen,4_75_2,2023-09-08T20:48:06.831Z,,0,,,NaN,,,,,,false,,,,312175.19999980927,312175,,312174.7999999523,,312194.919,8,400,,,
sequence,flow.Sequence,4_75,2023-09-08T20:48:06.831Z,,0,,,3578.719999999972,completion,,,,,false,,,,312175.2999999523,312175,308579.401,308597.09999990463,308596.28,312194.919,8,400,,,
trial,html.Screen,4_76_0,2023-09-08T20:48:09.334Z,,0,2,,2482.680999904638,response,ISIC_5198780.JPG,4,ISIC_8692006.JPG,ISIC_8692006.JPG,false,0,keypress(z),500,314677.89999985695,314677.59999990463,312178.193,312175.5,312194.919,314683.76,8,400,27,,ISIC_5198780.JPG
break,html.Screen,4_76_1,2023-09-08T20:48:09.335Z,,0,,,NaN,,,,,,false,,,,314679.09999990463,314678.69999980927,,314678.19999980927,,314683.76,8,400,,,
break_continue,html.Screen,4_76_2,2023-09-08T20:48:09.335Z,,0,,,NaN,,,,,,false,,,,314679.5,314679.39999985695,,314679.09999990463,,314683.76,8,400,,,
sequence,flow.Sequence,4_76,2023-09-08T20:48:09.336Z,,0,,,2484.4809998569544,completion,,,,,false,,,,314679.69999980927,314679.39999985695,312178.193,312175.39999985695,312194.919,314683.76,8,400,,,
trial,html.Screen,4_77_0,2023-09-08T20:48:12.218Z,,0,2,,2877.939999809256,response,ISIC_0060341.JPG,5,ISIC_0057374.JPG,ISIC_0060341.JPG,false,1,keypress(m),500,317561.89999985695,317561.69999980927,314667.073,314679.7999999523,314683.76,317574.074,8,400,28,,ISIC_0057374.JPG
break,html.Screen,4_77_1,2023-09-08T20:48:12.219Z,,0,,,NaN,,,,,,false,,,,317563,317562.69999980927,,317562.09999990463,,317574.074,8,400,,,
break_continue,html.Screen,4_77_2,2023-09-08T20:48:12.219Z,,0,,,NaN,,,,,,false,,,,317563.59999990463,317563.39999985695,,317563.19999980927,,317574.074,8,400,,,
sequence,flow.Sequence,4_77,2023-09-08T20:48:12.220Z,,0,,,2879.6399998569395,completion,,,,,false,,,,317563.7999999523,317563.39999985695,314667.073,314679.7999999523,314683.76,317574.074,8,400,,,
trial,html.Screen,4_78_0,2023-09-08T20:48:14.942Z,,0,2,,2711.52599990461,response,ISIC_0031529.JPG,6,ISIC_0009947.JPG,ISIC_0009947.JPG,false,0,keypress(z),500,320285.89999985695,320285.59999990463,317557.392,317563.89999985695,317574.074,320299.305,8,400,29,,ISIC_0031529.JPG
break,html.Screen,4_78_1,2023-09-08T20:48:14.943Z,,0,,,NaN,,,,,,false,,,,320287.19999980927,320286.89999985695,,320286.2999999523,,320299.305,8,400,,,
break_continue,html.Screen,4_78_2,2023-09-08T20:48:14.944Z,,0,,,NaN,,,,,,false,,,,320288,320287.7999999523,,320287.39999985695,,320299.305,8,400,,,
sequence,flow.Sequence,4_78,2023-09-08T20:48:14.944Z,,0,,,2713.725999952294,completion,,,,,false,,,,320288.19999980927,320287.7999999523,317557.392,317563.7999999523,317574.074,320299.305,8,400,,,
trial,html.Screen,4_79_0,2023-09-08T20:48:17.778Z,,0,2,,2822.695000000007,response,ISIC_7271718.JPG,5,ISIC_1858989.JPG,ISIC_1858989.JPG,false,0,keypress(z),500,323122.19999980927,323122,320282.691,320288.39999985695,320299.305,323138.135,8,400,30,,ISIC_7271718.JPG
break,html.Screen,4_79_1,2023-09-08T20:48:17.779Z,,0,,,NaN,,,,,,false,,,,323122.89999985695,323122.69999980927,,323122.39999985695,,323138.135,8,400,,,
break_continue,html.Screen,4_79_2,2023-09-08T20:48:17.779Z,,0,,,NaN,,,,,,false,,,,323123.09999990463,323123.09999990463,,323123,,323138.135,8,400,,,
sequence,flow.Sequence,4_79,2023-09-08T20:48:17.779Z,,0,,,2823.7949999046396,completion,,,,,false,,,,323123.19999980927,323123.09999990463,320282.691,320288.2999999523,320299.305,323138.135,8,400,,,
trial,html.Screen,4_80_0,2023-09-08T20:48:20.409Z,,0,2,,2615.164999952307,response,ISIC_5959795.JPG,5,ISIC_9803747.JPG,ISIC_5959795.JPG,false,1,keypress(m),500,325753.5,325753.2999999523,323121.409,323123.2999999523,323138.135,325762.155,8,400,31,,ISIC_9803747.JPG
break,html.Screen,4_80_1,2023-09-08T20:48:20.410Z,,0,,,NaN,,,,,,false,,,,325754.2999999523,325754.09999990463,,325753.69999980927,,325762.155,8,400,,,
break_continue,html.Screen,4_80_2,2023-09-08T20:48:20.410Z,,0,,,NaN,,,,,,false,,,,325754.59999990463,325754.5,,325754.39999985695,,325762.155,8,400,,,
sequence,flow.Sequence,4_80,2023-09-08T20:48:20.410Z,,0,,,2616.3649999999907,completion,,,,,false,,,,325754.69999980927,325754.5,323121.409,323123.2999999523,323138.135,325762.155,8,400,,,
trial,html.Screen,4_81_0,2023-09-08T20:48:22.875Z,,0,2,,2457.1449999522883,response,ISIC_8176449.JPG,5,ISIC_1661837.JPG,ISIC_1661837.JPG,false,0,keypress(z),500,328219.59999990463,328219.2999999523,325745.468,325754.69999980927,325762.155,328221.679,8,400,32,,ISIC_8176449.JPG
break,html.Screen,4_81_1,2023-09-08T20:48:22.876Z,,0,,,NaN,,,,,,false,,,,328220.59999990463,328220.39999985695,,328219.7999999523,,328221.679,8,400,,,
break_continue,html.Screen,4_81_2,2023-09-08T20:48:22.877Z,,0,,,NaN,,,,,,false,,,,328221.09999990463,328221.09999990463,,328220.7999999523,,328221.679,8,400,,,
sequence,flow.Sequence,4_81,2023-09-08T20:48:22.877Z,,0,,,2458.9449999046046,completion,,,,,false,,,,328221.2999999523,328221.09999990463,325745.468,325754.69999980927,325762.155,328221.679,8,400,,,
trial,html.Screen,4_82_0,2023-09-08T20:48:25.488Z,,0,2,,2609.8209999999963,response,ISIC_2999018.JPG,4,ISIC_4257634.JPG,ISIC_2999018.JPG,false,1,keypress(m),500,330831.7999999523,330831.5,328205.047,328221.39999985695,328221.679,330845.685,8,400,33,,ISIC_4257634.JPG
break,html.Screen,4_82_1,2023-09-08T20:48:25.489Z,,0,,,NaN,,,,,,false,,,,330833,330832.69999980927,,330831.89999985695,,330845.685,8,400,,,
break_continue,html.Screen,4_82_2,2023-09-08T20:48:25.489Z,,0,,,NaN,,,,,,false,,,,330833.5,330833.39999985695,,330833.19999980927,,330845.685,8,400,,,
sequence,flow.Sequence,4_82,2023-09-08T20:48:25.489Z,,0,,,2611.720999856945,completion,,,,,false,,,,330833.69999980927,330833.39999985695,328205.047,328221.39999985695,328221.679,330845.685,8,400,,,
trial,html.Screen,4_83_0,2023-09-08T20:48:27.988Z,,0,2,,2485.914999904635,response,ISIC_5736979.JPG,6,ISIC_0010651.JPG,ISIC_0010651.JPG,false,0,keypress(z),500,333331.89999985695,333331.59999990463,330828.806,330833.7999999523,330845.685,333348.167,8,400,34,,ISIC_5736979.JPG
break,html.Screen,4_83_1,2023-09-08T20:48:27.989Z,,0,,,NaN,,,,,,false,,,,333332.7999999523,333332.59999990463,,333332,,333348.167,8,400,,,
break_continue,html.Screen,4_83_2,2023-09-08T20:48:27.989Z,,0,,,NaN,,,,,,false,,,,333333.2999999523,333333.19999980927,,333333,,333348.167,8,400,,,
sequence,flow.Sequence,4_83,2023-09-08T20:48:27.989Z,,0,,,2487.5149998092675,completion,,,,,false,,,,333333.39999985695,333333.19999980927,330828.806,330833.7999999523,330845.685,333348.167,8,400,,,
trial,html.Screen,4_84_0,2023-09-08T20:48:30.461Z,,0,2,,2456.4329999046167,response,ISIC_9590080.JPG,5,ISIC_0027964.JPG,ISIC_9590080.JPG,false,1,keypress(m),500,335804.7999999523,335804.59999990463,333331.515,333333.59999990463,333348.167,335808.973,8,400,35,,ISIC_0027964.JPG
break,html.Screen,4_84_1,2023-09-08T20:48:30.461Z,,0,,,NaN,,,,,,false,,,,335805.39999985695,335805.2999999523,,335804.89999985695,,335808.973,8,400,,,
break_continue,html.Screen,4_84_2,2023-09-08T20:48:30.462Z,,0,,,NaN,,,,,,false,,,,335805.69999980927,335805.69999980927,,335805.5,,335808.973,8,400,,,
sequence,flow.Sequence,4_84,2023-09-08T20:48:30.462Z,,0,,,2457.5329998092493,completion,,,,,false,,,,335805.7999999523,335805.69999980927,333331.515,333333.5,333348.167,335808.973,8,400,,,
trial,html.Screen,4_85_0,2023-09-08T20:48:33.008Z,,0,2,,2542.527000000002,response,ISIC_0025779.JPG,5,ISIC_6937905.JPG,ISIC_6937905.JPG,false,0,keypress(z),500,338351.7999999523,338351.5,335792.286,335805.89999985695,335808.973,338355.83,8,400,36,,ISIC_0025779.JPG
break,html.Screen,4_85_1,2023-09-08T20:48:33.009Z,,0,,,NaN,,,,,,false,,,,338352.89999985695,338352.59999990463,,338352,,338355.83,8,400,,,
break_continue,html.Screen,4_85_2,2023-09-08T20:48:33.009Z,,0,,,NaN,,,,,,false,,,,338353.39999985695,338353.19999980927,,338352.89999985695,,338355.83,8,400,,,
sequence,flow.Sequence,4_85,2023-09-08T20:48:33.009Z,,0,,,2544.226999809267,completion,,,,,false,,,,338353.5,338353.19999980927,335792.286,335805.89999985695,335808.973,338355.83,8,400,,,
trial,html.Screen,4_86_0,2023-09-08T20:48:37.787Z,,0,2,,4775.369999809249,response,ISIC_9572761.JPG,5,ISIC_6292348.JPG,ISIC_6292348.JPG,false,0,keypress(z),500,343131.39999985695,343131.19999980927,338339.198,338353.69999980927,338355.83,343146.97,8,400,37,,ISIC_9572761.JPG
break,html.Screen,4_86_1,2023-09-08T20:48:37.788Z,,0,,,NaN,,,,,,false,,,,343132.59999990463,343132.2999999523,,343131.69999980927,,343146.97,8,400,,,
break_continue,html.Screen,4_86_2,2023-09-08T20:48:37.789Z,,0,,,NaN,,,,,,false,,,,343132.89999985695,343132.89999985695,,343132.69999980927,,343146.97,8,400,,,
sequence,flow.Sequence,4_86,2023-09-08T20:48:37.789Z,,0,,,4777.069999856933,completion,,,,,false,,,,343133,343132.89999985695,338339.198,338353.69999980927,338355.83,343146.97,8,400,,,
trial,html.Screen,4_87_0,2023-09-08T20:48:40.270Z,,0,2,,2467.530000000028,response,ISIC_9183042.JPG,5,ISIC_0067006.JPG,ISIC_9183042.JPG,false,1,keypress(m),500,345614.59999990463,345614.5,343130.091,343133.09999990463,343146.97,345617.262,8,400,38,,ISIC_0067006.JPG
break,html.Screen,4_87_1,2023-09-08T20:48:40.271Z,,0,,,NaN,,,,,,false,,,,345615.2999999523,345615.09999990463,,345614.69999980927,,345617.262,8,400,,,
break_continue,html.Screen,4_87_2,2023-09-08T20:48:40.272Z,,0,,,NaN,,,,,,false,,,,345615.89999985695,345615.69999980927,,345615.5,,345617.262,8,400,,,
sequence,flow.Sequence,4_87,2023-09-08T20:48:40.272Z,,0,,,2468.729999809293,completion,,,,,false,,,,345616,345615.69999980927,343130.091,343133,343146.97,345617.262,8,400,,,
trial,html.Screen,4_88_0,2023-09-08T20:48:44.006Z,,0,2,,3732.637999856961,response,ISIC_1432058.JPG,6,ISIC_4738636.JPG,ISIC_4738636.JPG,false,0,keypress(z),500,349350.09999990463,349349.89999985695,345600.536,345616,345617.262,349359.231,8,400,39,,ISIC_1432058.JPG
break,html.Screen,4_88_1,2023-09-08T20:48:44.007Z,,0,,,NaN,,,,,,false,,,,349351.19999980927,349351,,349350.2999999523,,349359.231,8,400,,,
break_continue,html.Screen,4_88_2,2023-09-08T20:48:44.008Z,,0,,,NaN,,,,,,false,,,,349351.69999980927,349351.59999990463,,349351.2999999523,,349359.231,8,400,,,
sequence,flow.Sequence,4_88,2023-09-08T20:48:44.008Z,,0,,,3734.3379999046447,completion,,,,,false,,,,349352,349351.59999990463,345600.536,345616,345617.262,349359.231,8,400,,,
trial,html.Screen,4_89_0,2023-09-08T20:48:46.625Z,,0,2,,2609.268999999971,response,ISIC_0055911.JPG,4,ISIC_0032526.JPG,ISIC_0055911.JPG,false,1,keypress(m),500,351968.69999980927,351968.5,349341.67,349352.09999990463,349359.231,351971.486,8,400,40,,ISIC_0032526.JPG
break,html.Screen,4_89_1,2023-09-08T20:48:46.625Z,,0,,,NaN,,,,,,false,,,,351969.59999990463,351969.39999985695,,351968.7999999523,,351971.486,8,400,,,
break_continue,html.Screen,4_89_2,2023-09-08T20:48:46.626Z,,0,,,NaN,,,,,,false,,,,351970.09999990463,351970,,351969.69999980927,,351971.486,8,400,,,
sequence,flow.Sequence,4_89,2023-09-08T20:48:46.626Z,,0,,,2610.768999999971,completion,,,,,false,,,,351970.19999980927,351970,349341.67,349352.09999990463,349359.231,351971.486,8,400,,,
trial,html.Screen,4_90_0,2023-09-08T20:48:49.307Z,,0,2,,2679.4139998569735,response,ISIC_0033573.JPG,5,ISIC_0047008.JPG,ISIC_0047008.JPG,false,0,keypress(z),500,354651.09999990463,354650.89999985695,351954.868,351970.2999999523,351971.486,354663.051,8,400,41,,ISIC_0033573.JPG
break,html.Screen,4_90_1,2023-09-08T20:48:49.308Z,,0,,,NaN,,,,,,false,,,,354651.7999999523,354651.59999990463,,354651.19999980927,,354663.051,8,400,,,
break_continue,html.Screen,4_90_2,2023-09-08T20:48:49.308Z,,0,,,NaN,,,,,,false,,,,354652.09999990463,354652,,354651.7999999523,,354663.051,8,400,,,
sequence,flow.Sequence,4_90,2023-09-08T20:48:49.308Z,,0,,,2680.5140000000247,completion,,,,,false,,,,354652.09999990463,354652,351954.868,351970.2999999523,351971.486,354663.051,8,400,,,
trial,html.Screen,4_91_0,2023-09-08T20:48:51.869Z,,0,2,,2549.848999856971,response,ISIC_0026889.JPG,5,ISIC_0055147.JPG,ISIC_0026889.JPG,false,1,keypress(m),500,357213.09999990463,357212.89999985695,354646.418,354652.19999980927,354663.051,357229.198,8,400,42,,ISIC_0055147.JPG
break,html.Screen,4_91_1,2023-09-08T20:48:51.870Z,,0,,,NaN,,,,,,false,,,,357214.19999980927,357213.89999985695,,357213.2999999523,,357229.198,8,400,,,
break_continue,html.Screen,4_91_2,2023-09-08T20:48:51.871Z,,0,,,NaN,,,,,,false,,,,357214.7999999523,357214.69999980927,,357214.39999985695,,357229.198,8,400,,,
sequence,flow.Sequence,4_91,2023-09-08T20:48:51.871Z,,0,,,2551.6489998092875,completion,,,,,false,,,,357215.39999985695,357214.69999980927,354646.418,354652.19999980927,354663.051,357229.198,8,400,,,
trial,html.Screen,4_92_0,2023-09-08T20:48:54.423Z,,0,2,,2537.802000000025,response,ISIC_0032484.JPG,5,ISIC_5877410.JPG,ISIC_5877410.JPG,false,0,keypress(z),500,359767.2999999523,359767,357212.506,357215.5,357229.198,359779.751,8,400,43,,ISIC_0032484.JPG
break,html.Screen,4_92_1,2023-09-08T20:48:54.424Z,,0,,,NaN,,,,,,false,,,,359768.5,359768.19999980927,,359767.5,,359779.751,8,400,,,
break_continue,html.Screen,4_92_2,2023-09-08T20:48:54.425Z,,0,,,NaN,,,,,,false,,,,359769.2999999523,359769,,359768.59999990463,,359779.751,8,400,,,
sequence,flow.Sequence,4_92,2023-09-08T20:48:54.425Z,,0,,,2539.802000000025,completion,,,,,false,,,,359769.5,359769,357212.506,357215.5,357229.198,359779.751,8,400,,,
trial,html.Screen,4_93_0,2023-09-08T20:48:58.147Z,,0,2,,3710.8489999046433,response,ISIC_6344073.JPG,5,ISIC_5100319.JPG,ISIC_5100319.JPG,false,0,keypress(z),500,363490.89999985695,363490.59999990463,359763.119,359769.69999980927,359779.751,363504.062,8,400,44,,ISIC_6344073.JPG
break,html.Screen,4_93_1,2023-09-08T20:48:58.148Z,,0,,,NaN,,,,,,false,,,,363492,363491.59999990463,,363491,,363504.062,8,400,,,
break_continue,html.Screen,4_93_2,2023-09-08T20:48:58.148Z,,0,,,NaN,,,,,,false,,,,363492.39999985695,363492.2999999523,,363492,,363504.062,8,400,,,
sequence,flow.Sequence,4_93,2023-09-08T20:48:58.148Z,,0,,,3712.548999952327,completion,,,,,false,,,,363492.59999990463,363492.2999999523,359763.119,359769.69999980927,359779.751,363504.062,8,400,,,
trial,html.Screen,4_94_0,2023-09-08T20:49:00.806Z,,0,2,,2645.8379998569726,response,ISIC_0060397.JPG,5,ISIC_0239949.JPG,ISIC_0239949.JPG,false,0,keypress(z),500,366150.19999980927,366149.89999985695,363486.97,363492.69999980927,363504.062,366165.59,8,400,45,,ISIC_0060397.JPG
break,html.Screen,4_94_1,2023-09-08T20:49:00.807Z,,0,,,NaN,,,,,,false,,,,366151.2999999523,366151.09999990463,,366150.39999985695,,366165.59,8,400,,,
break_continue,html.Screen,4_94_2,2023-09-08T20:49:00.808Z,,0,,,NaN,,,,,,false,,,,366151.69999980927,366151.59999990463,,366151.39999985695,,366165.59,8,400,,,
sequence,flow.Sequence,4_94,2023-09-08T20:49:00.808Z,,0,,,2647.5379999046563,completion,,,,,false,,,,366151.89999985695,366151.59999990463,363486.97,363492.59999990463,363504.062,366165.59,8,400,,,
trial,html.Screen,4_95_0,2023-09-08T20:49:03.594Z,,0,2,,2772.1099998092395,response,ISIC_9527051.JPG,6,ISIC_3291765.JPG,ISIC_9527051.JPG,false,1,keypress(m),500,368937.89999985695,368937.69999980927,366148.869,366151.89999985695,366165.59,368954.872,8,400,46,,ISIC_3291765.JPG
break,html.Screen,4_95_1,2023-09-08T20:49:03.595Z,,0,,,NaN,,,,,,false,,,,368939,368938.7999999523,,368938.09999990463,,368954.872,8,400,,,
break_continue,html.Screen,4_95_2,2023-09-08T20:49:03.595Z,,0,,,NaN,,,,,,false,,,,368939.59999990463,368939.5,,368939.19999980927,,368954.872,8,400,,,
sequence,flow.Sequence,4_95,2023-09-08T20:49:03.596Z,,0,,,2773.9099999999744,completion,,,,,false,,,,368939.7999999523,368939.5,366148.869,366151.89999985695,366165.59,368954.872,8,400,,,
trial,html.Screen,4_96_0,2023-09-08T20:49:06.254Z,,0,2,,2643.128000000026,response,ISIC_0068152.JPG,5,ISIC_5324623.JPG,ISIC_5324623.JPG,false,0,keypress(z),500,371598.19999980927,371598,368938.254,368939.89999985695,368954.872,371603.636,8,400,47,,ISIC_0068152.JPG
break,html.Screen,4_96_1,2023-09-08T20:49:06.255Z,,0,,,NaN,,,,,,false,,,,371599.2999999523,371599,,371598.39999985695,,371603.636,8,400,,,
break_continue,html.Screen,4_96_2,2023-09-08T20:49:06.256Z,,0,,,NaN,,,,,,false,,,,371599.69999980927,371599.59999990463,,371599.39999985695,,371603.636,8,400,,,
sequence,flow.Sequence,4_96,2023-09-08T20:49:06.256Z,,0,,,2644.7279999046586,completion,,,,,false,,,,371599.7999999523,371599.59999990463,368938.254,368939.7999999523,368954.872,371603.636,8,400,,,
trial,html.Screen,4_97_0,2023-09-08T20:49:08.722Z,,0,2,,2462.1639999523177,response,ISIC_0490442.JPG,6,ISIC_0033636.JPG,ISIC_0490442.JPG,false,1,keypress(m),500,374066,374065.7999999523,371586.757,371599.89999985695,371603.636,374067.817,8,400,48,,ISIC_0033636.JPG
break,html.Screen,4_97_1,2023-09-08T20:49:08.723Z,,0,,,NaN,,,,,,false,,,,374067.09999990463,374066.89999985695,,374066.19999980927,,374067.817,8,400,,,
break_continue,html.Screen,4_97_2,2023-09-08T20:49:08.723Z,,0,,,NaN,,,,,,false,,,,374067.59999990463,374067.5,,374067.2999999523,,374067.817,8,400,,,
sequence,flow.Sequence,4_97,2023-09-08T20:49:08.724Z,,0,,,2463.8640000000014,completion,,,,,false,,,,374067.7999999523,374067.5,371586.757,371599.89999985695,371603.636,374067.817,8,400,,,
trial,html.Screen,4_98_0,2023-09-08T20:49:12.774Z,,0,2,,4049.8829998092842,response,ISIC_5576250.JPG,6,ISIC_4580926.JPG,ISIC_4580926.JPG,false,0,keypress(z),500,378118,378117.69999980927,374051.153,374068,374067.817,378127.248,8,400,49,,ISIC_5576250.JPG
break,html.Screen,4_98_1,2023-09-08T20:49:12.775Z,,0,,,NaN,,,,,,false,,,,378119.39999985695,378118.7999999523,,378118.2999999523,,378127.248,8,400,,,
break_continue,html.Screen,4_98_2,2023-09-08T20:49:12.776Z,,0,,,NaN,,,,,,false,,,,378119.89999985695,378119.7999999523,,378119.59999990463,,378127.248,8,400,,,
sequence,flow.Sequence,4_98,2023-09-08T20:49:12.776Z,,0,,,4051.9829999523354,completion,,,,,false,,,,378120.09999990463,378119.7999999523,374051.153,374068,374067.817,378127.248,8,400,,,
trial,html.Screen,4_99_0,2023-09-08T20:49:15.498Z,,0,2,,2714.851999904611,response,ISIC_8559515.JPG,5,ISIC_0028041.JPG,ISIC_8559515.JPG,false,1,keypress(m),500,380842.5,380842.09999990463,378110.477,378120.19999980927,378127.248,380852.751,8,400,50,,ISIC_0028041.JPG
break,html.Screen,4_99_1,2023-09-08T20:49:25.618Z,,0,,,10371.215000000026,timeout,,,,,false,,,,390961.89999985695,390961.7999999523,380836.133,380842.7999999523,380852.751,391223.966,8,400,,,
break_continue,html.Screen,4_99_2,2023-09-08T20:49:45.522Z,,0,,,19620.3339999523,response,,,,,false,continue,keypress(Space),,410866.69999980927,410844.2999999523,390961.7999999523,390962.09999990463,391223.966,410872.423,8,400,,,
sequence,flow.Sequence,4_99,2023-09-08T20:49:45.522Z,,0,,,32717.051999952295,completion,,,,,false,,,,410866.89999985695,410844.2999999523,378110.477,378120.09999990463,378127.248,410872.423,8,400,,,
trial,html.Screen,4_100_0,2023-09-08T20:49:50.934Z,,0,3,,5405.276999809255,response,ISIC_5581931.JPG,5,ISIC_0070351.JPG,ISIC_5581931.JPG,false,1,keypress(m),500,416278.7999999523,416277.69999980927,410855.729,410867,410872.423,416286.65,8,400,1,,ISIC_0070351.JPG
break,html.Screen,4_100_1,2023-09-08T20:49:50.935Z,,0,,,NaN,,,,,,false,,,,416280,416279.7999999523,,416279.09999990463,,416286.65,8,400,,,
break_continue,html.Screen,4_100_2,2023-09-08T20:49:50.936Z,,0,,,NaN,,,,,,false,,,,416280.5,416280.39999985695,,416280.09999990463,,416286.65,8,400,,,
sequence,flow.Sequence,4_100,2023-09-08T20:49:50.936Z,,0,,,5407.976999856939,completion,,,,,false,,,,416280.69999980927,416280.39999985695,410855.729,410867,410872.423,416286.65,8,400,,,
trial,html.Screen,4_101_0,2023-09-08T20:49:55.343Z,,0,3,,4401.449999904609,response,ISIC_9155855.JPG,4,ISIC_0073044.JPG,ISIC_0073044.JPG,false,0,keypress(z),500,420688.2999999523,420688.09999990463,416269.965,416280.7999999523,416286.65,420695.476,8,400,2,,ISIC_9155855.JPG
break,html.Screen,4_101_1,2023-09-08T20:49:55.344Z,,0,,,NaN,,,,,,false,,,,420689.09999990463,420688.89999985695,,420688.5,,420695.476,8,400,,,
break_continue,html.Screen,4_101_2,2023-09-08T20:49:55.344Z,,0,,,NaN,,,,,,false,,,,420689.2999999523,420689.19999980927,,420689.09999990463,,420695.476,8,400,,,
sequence,flow.Sequence,4_101,2023-09-08T20:49:55.344Z,,0,,,4402.549999809242,completion,,,,,false,,,,420689.39999985695,420689.19999980927,416269.965,416280.7999999523,416286.65,420695.476,8,400,,,
trial,html.Screen,4_102_0,2023-09-08T20:49:59.444Z,,0,3,,4092.9239998569246,response,ISIC_0026552.JPG,4,ISIC_0026296.JPG,ISIC_0026296.JPG,false,0,keypress(z),500,424788.69999980927,424788.39999985695,420678.818,420689.5,420695.476,424801.843,8,400,3,,ISIC_0026552.JPG
break,html.Screen,4_102_1,2023-09-08T20:49:59.445Z,,0,,,NaN,,,,,,false,,,,424789.89999985695,424789.5,,424788.7999999523,,424801.843,8,400,,,
break_continue,html.Screen,4_102_2,2023-09-08T20:49:59.446Z,,0,,,NaN,,,,,,false,,,,424790.5,424790.2999999523,,424790,,424801.843,8,400,,,
sequence,flow.Sequence,4_102,2023-09-08T20:49:59.446Z,,0,,,4094.823999952292,completion,,,,,false,,,,424790.7999999523,424790.2999999523,420678.818,420689.5,420695.476,424801.843,8,400,,,
trial,html.Screen,4_103_0,2023-09-08T20:50:03.608Z,,0,3,,4150.756999904639,response,ISIC_5666345.JPG,5,ISIC_0055601.JPG,ISIC_5666345.JPG,false,1,keypress(m),500,428953,428952.59999990463,424785.152,424790.89999985695,424801.843,428966.171,8,400,4,,ISIC_0055601.JPG
break,html.Screen,4_103_1,2023-09-08T20:50:03.609Z,,0,,,NaN,,,,,,false,,,,428954.39999985695,428953.89999985695,,428953.09999990463,,428966.171,8,400,,,
break_continue,html.Screen,4_103_2,2023-09-08T20:50:03.611Z,,0,,,NaN,,,,,,false,,,,428956.39999985695,428956.19999980927,,428954.39999985695,,428966.171,8,400,,,
sequence,flow.Sequence,4_103,2023-09-08T20:50:03.612Z,,0,,,4154.356999809272,completion,,,,,false,,,,428956.69999980927,428956.19999980927,424785.152,424790.89999985695,424801.843,428966.171,8,400,,,
trial,html.Screen,4_104_0,2023-09-08T20:50:06.286Z,,0,3,,2665.1289999523433,response,ISIC_0011500.JPG,5,ISIC_8527737.JPG,ISIC_8527737.JPG,false,0,keypress(z),500,431631.5,431631.2999999523,428949.441,428956.7999999523,428966.171,431646.952,8,400,5,,ISIC_0011500.JPG
break,html.Screen,4_104_1,2023-09-08T20:50:06.288Z,,0,,,NaN,,,,,,false,,,,431632.5,431632.2999999523,,431631.69999980927,,431646.952,8,400,,,
break_continue,html.Screen,4_104_2,2023-09-08T20:50:06.288Z,,0,,,NaN,,,,,,false,,,,431633,431632.89999985695,,431632.59999990463,,431646.952,8,400,,,
sequence,flow.Sequence,4_104,2023-09-08T20:50:06.288Z,,0,,,2666.728999856976,completion,,,,,false,,,,431633.19999980927,431632.89999985695,428949.441,428956.69999980927,428966.171,431646.952,8,400,,,
trial,html.Screen,4_105_0,2023-09-08T20:50:09.715Z,,0,3,,3412.4479998569586,response,ISIC_0070588.JPG,5,ISIC_3979826.JPG,ISIC_0070588.JPG,false,1,keypress(m),500,435059.59999990463,435059.39999985695,431630.264,431633.2999999523,431646.952,435071.995,8,400,6,,ISIC_3979826.JPG
break,html.Screen,4_105_1,2023-09-08T20:50:09.716Z,,0,,,NaN,,,,,,false,,,,435060.59999990463,435060.39999985695,,435059.69999980927,,435071.995,8,400,,,
break_continue,html.Screen,4_105_2,2023-09-08T20:50:09.716Z,,0,,,NaN,,,,,,false,,,,435061.09999990463,435060.89999985695,,435060.69999980927,,435071.995,8,400,,,
sequence,flow.Sequence,4_105,2023-09-08T20:50:09.716Z,,0,,,3413.9479998569586,completion,,,,,false,,,,435061.19999980927,435060.89999985695,431630.264,431633.2999999523,431646.952,435071.995,8,400,,,
trial,html.Screen,4_106_0,2023-09-08T20:50:12.294Z,,0,3,,2566.804999952321,response,ISIC_5709878.JPG,5,ISIC_6681802.JPG,ISIC_5709878.JPG,false,1,keypress(m),500,437639,437638.7999999523,435055.345,435061.5,435071.995,437652.898,8,400,7,,ISIC_6681802.JPG
break,html.Screen,4_106_1,2023-09-08T20:50:12.295Z,,0,,,NaN,,,,,,false,,,,437640.09999990463,437639.89999985695,,437639.2999999523,,437652.898,8,400,,,
break_continue,html.Screen,4_106_2,2023-09-08T20:50:12.296Z,,0,,,NaN,,,,,,false,,,,437640.69999980927,437640.5,,437640.2999999523,,437652.898,8,400,,,
sequence,flow.Sequence,4_106,2023-09-08T20:50:12.296Z,,0,,,2568.5050000000047,completion,,,,,false,,,,437640.7999999523,437640.5,435055.345,435061.39999985695,435071.995,437652.898,8,400,,,
trial,html.Screen,4_107_0,2023-09-08T20:50:14.956Z,,0,3,,2648.0019998569624,response,ISIC_0072292.JPG,5,ISIC_0594695.JPG,ISIC_0594695.JPG,false,0,keypress(z),500,440301.19999980927,440300.89999985695,437636.227,437641,437652.898,440313.147,8,400,8,,ISIC_0072292.JPG
break,html.Screen,4_107_1,2023-09-08T20:50:14.957Z,,0,,,NaN,,,,,,false,,,,440302.39999985695,440302.09999990463,,440301.39999985695,,440313.147,8,400,,,
break_continue,html.Screen,4_107_2,2023-09-08T20:50:14.958Z,,0,,,NaN,,,,,,false,,,,440303.19999980927,440303,,440302.69999980927,,440313.147,8,400,,,
sequence,flow.Sequence,4_107,2023-09-08T20:50:14.958Z,,0,,,2650.1020000000135,completion,,,,,false,,,,440303.5,440303,437636.227,437640.89999985695,437652.898,440313.147,8,400,,,
trial,html.Screen,4_108_0,2023-09-08T20:50:17.584Z,,0,3,,2616.052999809268,response,ISIC_0069669.JPG,4,ISIC_0027043.JPG,ISIC_0069669.JPG,false,1,keypress(m),500,442929.39999985695,442929.19999980927,440296.449,440303.59999990463,440313.147,442943.718,8,400,9,,ISIC_0027043.JPG
break,html.Screen,4_108_1,2023-09-08T20:50:17.585Z,,0,,,NaN,,,,,,false,,,,442930.09999990463,442929.89999985695,,442929.39999985695,,442943.718,8,400,,,
break_continue,html.Screen,4_108_2,2023-09-08T20:50:17.585Z,,0,,,NaN,,,,,,false,,,,442930.5,442930.39999985695,,442930.19999980927,,442943.718,8,400,,,
sequence,flow.Sequence,4_108,2023-09-08T20:50:17.586Z,,0,,,2617.2529998569516,completion,,,,,false,,,,442930.59999990463,442930.39999985695,440296.449,440303.59999990463,440313.147,442943.718,8,400,,,
trial,html.Screen,4_109_0,2023-09-08T20:50:20.244Z,,0,3,,2644.581999952323,response,ISIC_1608524.JPG,4,ISIC_0884550.JPG,ISIC_0884550.JPG,false,0,keypress(z),500,445588.69999980927,445588.2999999523,442927.062,442930.69999980927,442943.718,445590.351,8,400,10,,ISIC_1608524.JPG
break,html.Screen,4_109_1,2023-09-08T20:50:20.245Z,,0,,,NaN,,,,,,false,,,,445589.59999990463,445589.39999985695,,445588.89999985695,,445590.351,8,400,,,
break_continue,html.Screen,4_109_2,2023-09-08T20:50:20.245Z,,0,,,NaN,,,,,,false,,,,445589.89999985695,445589.7999999523,,445589.69999980927,,445590.351,8,400,,,
sequence,flow.Sequence,4_109,2023-09-08T20:50:20.245Z,,0,,,2646.081999952323,completion,,,,,false,,,,445590,445589.7999999523,442927.062,442930.69999980927,442943.718,445590.351,8,400,,,
trial,html.Screen,4_110_0,2023-09-08T20:50:23.038Z,,0,3,,2792.5489998569246,response,ISIC_2904474.JPG,6,ISIC_0031422.JPG,ISIC_2904474.JPG,false,1,keypress(m),500,448383.19999980927,448382.89999985695,445573.666,445590.09999990463,445590.351,448386.016,8,400,11,,ISIC_0031422.JPG
break,html.Screen,4_110_1,2023-09-08T20:50:23.039Z,,0,,,NaN,,,,,,false,,,,448384.19999980927,448384,,448383.39999985695,,448386.016,8,400,,,
break_continue,html.Screen,4_110_2,2023-09-08T20:50:23.040Z,,0,,,NaN,,,,,,false,,,,448384.69999980927,448384.59999990463,,448384.39999985695,,448386.016,8,400,,,
sequence,flow.Sequence,4_110,2023-09-08T20:50:23.040Z,,0,,,2794.2489999046084,completion,,,,,false,,,,448384.89999985695,448384.59999990463,445573.666,445590,445590.351,448386.016,8,400,,,
trial,html.Screen,4_111_0,2023-09-08T20:50:25.576Z,,0,3,,2534.5839999046293,response,ISIC_0014171.JPG,5,ISIC_0032699.JPG,ISIC_0014171.JPG,false,1,keypress(m),500,450920.7999999523,450920.59999990463,448369.316,448385,448386.016,450931.413,8,400,12,,ISIC_0032699.JPG
break,html.Screen,4_111_1,2023-09-08T20:50:25.577Z,,0,,,NaN,,,,,,false,,,,450921.89999985695,450921.5,,450921,,450931.413,8,400,,,
break_continue,html.Screen,4_111_2,2023-09-08T20:50:25.577Z,,0,,,NaN,,,,,,false,,,,450922.39999985695,450922.19999980927,,450922,,450931.413,8,400,,,
sequence,flow.Sequence,4_111,2023-09-08T20:50:25.578Z,,0,,,2536.183999809262,completion,,,,,false,,,,450922.59999990463,450922.19999980927,448369.316,448384.89999985695,448386.016,450931.413,8,400,,,
trial,html.Screen,4_112_0,2023-09-08T20:50:28.110Z,,0,3,,2523.5869999999995,response,ISIC_0033574.JPG,5,ISIC_6899527.JPG,ISIC_6899527.JPG,false,0,keypress(z),500,453455.2999999523,453455,450914.753,450922.69999980927,450931.413,453469.147,8,400,13,,ISIC_0033574.JPG
break,html.Screen,4_112_1,2023-09-08T20:50:28.111Z,,0,,,NaN,,,,,,false,,,,453456.19999980927,453456,,453455.39999985695,,453469.147,8,400,,,
break_continue,html.Screen,4_112_2,2023-09-08T20:50:28.112Z,,0,,,NaN,,,,,,false,,,,453456.7999999523,453456.59999990463,,453456.5,,453469.147,8,400,,,
sequence,flow.Sequence,4_112,2023-09-08T20:50:28.112Z,,0,,,2525.186999904632,completion,,,,,false,,,,453456.89999985695,453456.59999990463,450914.753,450922.59999990463,450931.413,453469.147,8,400,,,
trial,html.Screen,4_113_0,2023-09-08T20:50:30.705Z,,0,3,,2580.9529999046354,response,ISIC_0011924.JPG,5,ISIC_0053765.JPG,ISIC_0053765.JPG,false,0,keypress(z),500,456050.39999985695,456050.09999990463,453452.456,453457,453469.147,456056.141,8,400,14,,ISIC_0011924.JPG
break,html.Screen,4_113_1,2023-09-08T20:50:30.707Z,,0,,,NaN,,,,,,false,,,,456051.5,456051.19999980927,,456050.5,,456056.141,8,400,,,
break_continue,html.Screen,4_113_2,2023-09-08T20:50:30.707Z,,0,,,NaN,,,,,,false,,,,456052,456051.89999985695,,456051.59999990463,,456056.141,8,400,,,
sequence,flow.Sequence,4_113,2023-09-08T20:50:30.707Z,,0,,,2582.7529998569516,completion,,,,,false,,,,456052.19999980927,456051.89999985695,453452.456,453457,453469.147,456056.141,8,400,,,
trial,html.Screen,4_114_0,2023-09-08T20:50:33.324Z,,0,3,,2612.4589999046293,response,ISIC_8153123.JPG,5,ISIC_0010923.JPG,ISIC_8153123.JPG,false,1,keypress(m),500,458668.89999985695,458668.59999990463,456039.491,456052.39999985695,456056.141,458683.971,8,400,15,,ISIC_0010923.JPG
break,html.Screen,4_114_1,2023-09-08T20:50:33.325Z,,0,,,NaN,,,,,,false,,,,458669.89999985695,458669.59999990463,,458669,,458683.971,8,400,,,
break_continue,html.Screen,4_114_2,2023-09-08T20:50:33.325Z,,0,,,NaN,,,,,,false,,,,458670.39999985695,458670.2999999523,,458670.09999990463,,458683.971,8,400,,,
sequence,flow.Sequence,4_114,2023-09-08T20:50:33.326Z,,0,,,2614.158999952313,completion,,,,,false,,,,458670.59999990463,458670.2999999523,456039.491,456052.2999999523,456056.141,458683.971,8,400,,,
trial,html.Screen,4_115_0,2023-09-08T20:50:35.840Z,,0,3,,2500.9289998569293,response,ISIC_8685259.JPG,5,ISIC_1287370.JPG,ISIC_8685259.JPG,false,1,keypress(m),500,461185.19999980927,461184.89999985695,458667.271,458670.69999980927,458683.971,461199.797,8,400,16,,ISIC_1287370.JPG
break,html.Screen,4_115_1,2023-09-08T20:50:35.842Z,,0,,,NaN,,,,,,false,,,,461186.59999990463,461186.2999999523,,461185.2999999523,,461199.797,8,400,,,
break_continue,html.Screen,4_115_2,2023-09-08T20:50:35.842Z,,0,,,NaN,,,,,,false,,,,461187.09999990463,461186.89999985695,,461186.7999999523,,461199.797,8,400,,,
sequence,flow.Sequence,4_115,2023-09-08T20:50:35.842Z,,0,,,2502.9289998569293,completion,,,,,false,,,,461187.19999980927,461186.89999985695,458667.271,458670.69999980927,458683.971,461199.797,8,400,,,
trial,html.Screen,4_116_0,2023-09-08T20:50:38.484Z,,0,3,,2629.2029999999795,response,ISIC_1115160.JPG,5,ISIC_0014164.JPG,ISIC_0014164.JPG,false,0,keypress(z),500,463829.19999980927,463829,461183.099,461187.5,461199.797,463844.461,8,400,17,,ISIC_1115160.JPG
break,html.Screen,4_116_1,2023-09-08T20:50:38.485Z,,0,,,NaN,,,,,,false,,,,463830.2999999523,463829.89999985695,,463829.39999985695,,463844.461,8,400,,,
break_continue,html.Screen,4_116_2,2023-09-08T20:50:38.486Z,,0,,,NaN,,,,,,false,,,,463830.7999999523,463830.59999990463,,463830.5,,463844.461,8,400,,,
sequence,flow.Sequence,4_116,2023-09-08T20:50:38.486Z,,0,,,2630.802999904612,completion,,,,,false,,,,463831,463830.59999990463,461183.099,461187.39999985695,461199.797,463844.461,8,400,,,
trial,html.Screen,4_117_0,2023-09-08T20:50:41.224Z,,0,3,,2724.338999952306,response,ISIC_0064943.JPG,4,ISIC_0033802.JPG,ISIC_0033802.JPG,false,0,keypress(z),500,466569.09999990463,466568.7999999523,463827.805,463831.09999990463,463844.461,466581.983,8,400,18,,ISIC_0064943.JPG
break,html.Screen,4_117_1,2023-09-08T20:50:41.225Z,,0,,,NaN,,,,,,false,,,,466570.19999980927,466569.89999985695,,466569.2999999523,,466581.983,8,400,,,
break_continue,html.Screen,4_117_2,2023-09-08T20:50:41.226Z,,0,,,NaN,,,,,,false,,,,466570.69999980927,466570.69999980927,,466570.2999999523,,466581.983,8,400,,,
sequence,flow.Sequence,4_117,2023-09-08T20:50:41.226Z,,0,,,2726.238999809255,completion,,,,,false,,,,466570.7999999523,466570.69999980927,463827.805,463831,463844.461,466581.983,8,400,,,
trial,html.Screen,4_118_0,2023-09-08T20:50:43.822Z,,0,3,,2584.7169998092577,response,ISIC_0011219.JPG,4,ISIC_0064284.JPG,ISIC_0011219.JPG,false,1,keypress(m),500,469167,469166.69999980927,466565.302,466570.89999985695,466581.983,469172.136,8,400,19,,ISIC_0064284.JPG
break,html.Screen,4_118_1,2023-09-08T20:50:43.823Z,,0,,,NaN,,,,,,false,,,,469167.89999985695,469167.69999980927,,469167.19999980927,,469172.136,8,400,,,
break_continue,html.Screen,4_118_2,2023-09-08T20:50:43.823Z,,0,,,NaN,,,,,,false,,,,469168.2999999523,469168.09999990463,,469168,,469172.136,8,400,,,
sequence,flow.Sequence,4_118,2023-09-08T20:50:43.823Z,,0,,,2586.116999904625,completion,,,,,false,,,,469168.39999985695,469168.09999990463,466565.302,466570.89999985695,466581.983,469172.136,8,400,,,
trial,html.Screen,4_119_0,2023-09-08T20:50:46.514Z,,0,3,,2685.7639998569502,response,ISIC_0031575.JPG,4,ISIC_3084213.JPG,ISIC_3084213.JPG,false,0,keypress(z),500,471858,471857.89999985695,469155.436,469168.5,469172.136,471866.156,8,400,20,,ISIC_0031575.JPG
break,html.Screen,4_119_1,2023-09-08T20:50:46.515Z,,0,,,NaN,,,,,,false,,,,471858.69999980927,471858.39999985695,,471858.19999980927,,471866.156,8,400,,,
break_continue,html.Screen,4_119_2,2023-09-08T20:50:46.515Z,,0,,,NaN,,,,,,false,,,,471858.89999985695,471858.89999985695,,471858.7999999523,,471866.156,8,400,,,
sequence,flow.Sequence,4_119,2023-09-08T20:50:46.515Z,,0,,,2686.7639998569502,completion,,,,,false,,,,471859.09999990463,471858.89999985695,469155.436,469168.39999985695,469172.136,471866.156,8,400,,,
trial,html.Screen,4_120_0,2023-09-08T20:50:52.885Z,,0,3,,6362.943999904615,response,ISIC_0024244.JPG,5,ISIC_0482585.JPG,ISIC_0024244.JPG,false,1,keypress(m),500,478229.2999999523,478229.09999990463,471848.816,471859.2999999523,471866.156,478238.821,8,400,21,,ISIC_0482585.JPG
break,html.Screen,4_120_1,2023-09-08T20:50:52.886Z,,0,,,NaN,,,,,,false,,,,478230.2999999523,478230.09999990463,,478229.5,,478238.821,8,400,,,
break_continue,html.Screen,4_120_2,2023-09-08T20:50:52.887Z,,0,,,NaN,,,,,,false,,,,478230.7999999523,478230.59999990463,,478230.5,,478238.821,8,400,,,
sequence,flow.Sequence,4_120,2023-09-08T20:50:52.887Z,,0,,,6364.443999904615,completion,,,,,false,,,,478230.89999985695,478230.59999990463,471848.816,471859.19999980927,471866.156,478238.821,8,400,,,
trial,html.Screen,4_121_0,2023-09-08T20:50:56.009Z,,0,3,,3113.97899995232,response,ISIC_9543945.JPG,5,ISIC_5935362.JPG,ISIC_9543945.JPG,false,1,keypress(m),500,481352.89999985695,481352.7999999523,478222.165,478231,478238.821,481355.641,8,400,22,,ISIC_5935362.JPG
break,html.Screen,4_121_1,2023-09-08T20:50:56.010Z,,0,,,NaN,,,,,,false,,,,481353.89999985695,481353.69999980927,,481353.19999980927,,481355.641,8,400,,,
break_continue,html.Screen,4_121_2,2023-09-08T20:50:56.010Z,,0,,,NaN,,,,,,false,,,,481354.39999985695,481354.19999980927,,481354,,481355.641,8,400,,,
sequence,flow.Sequence,4_121,2023-09-08T20:50:56.010Z,,0,,,3115.378999809269,completion,,,,,false,,,,481354.5,481354.19999980927,478222.165,478231,478238.821,481355.641,8,400,,,
trial,html.Screen,4_122_0,2023-09-08T20:51:07.506Z,,0,3,,11525.648999999976,timeout,ISIC_0031626.JPG,110,ISIC_6475049.JPG,,false,,,500,492850.59999990463,492850.39999985695,481338.941,481354.59999990463,481355.641,492881.29,8,400,23,,
break,html.Screen,4_122_1,2023-09-08T20:51:07.507Z,,0,,,NaN,,,,,,false,,,,492851.2999999523,492851.19999980927,,492850.7999999523,,492881.29,8,400,,,
break_continue,html.Screen,4_122_2,2023-09-08T20:51:07.508Z,,0,,,NaN,,,,,,false,,,,492852.09999990463,492851.89999985695,,492851.5,,492881.29,8,400,,,
sequence,flow.Sequence,4_122,2023-09-08T20:51:07.508Z,,0,,,11496.258999856946,completion,,,,,false,,,,492852.2999999523,492851.89999985695,481338.941,481354.59999990463,481355.641,492881.29,8,400,,,
trial,html.Screen,4_123_0,2023-09-08T20:51:10.349Z,,0,3,,2811.710000000021,response,ISIC_5150938.JPG,5,ISIC_0027541.JPG,ISIC_5150938.JPG,false,1,keypress(m),500,495693.2999999523,495693,492864.646,492852.2999999523,492881.29,495702.854,8,400,24,,ISIC_0027541.JPG
break,html.Screen,4_123_1,2023-09-08T20:51:10.350Z,,0,,,NaN,,,,,,false,,,,495694.2999999523,495694,,495693.39999985695,,495702.854,8,400,,,
break_continue,html.Screen,4_123_2,2023-09-08T20:51:10.351Z,,0,,,NaN,,,,,,false,,,,495694.89999985695,495694.7999999523,,495694.39999985695,,495702.854,8,400,,,
sequence,flow.Sequence,4_123,2023-09-08T20:51:10.351Z,,0,,,2813.5099999523372,completion,,,,,false,,,,495695,495694.7999999523,492864.646,492852.2999999523,492881.29,495702.854,8,400,,,
trial,html.Screen,4_124_0,2023-09-08T20:51:12.882Z,,0,3,,2522.5459998569568,response,ISIC_0033730.JPG,5,ISIC_0032095.JPG,ISIC_0032095.JPG,false,0,keypress(z),500,498225.69999980927,498225.39999985695,495686.188,495695.19999980927,495702.854,498242.62,8,400,25,,ISIC_0033730.JPG
break,html.Screen,4_124_1,2023-09-08T20:51:12.883Z,,0,,,NaN,,,,,,false,,,,498226.69999980927,498226.5,,498225.7999999523,,498242.62,8,400,,,
break_continue,html.Screen,4_124_2,2023-09-08T20:51:12.883Z,,0,,,NaN,,,,,,false,,,,498227.09999990463,498227,,498226.7999999523,,498242.62,8,400,,,
sequence,flow.Sequence,4_124,2023-09-08T20:51:12.883Z,,0,,,2524.146000000008,completion,,,,,false,,,,498227.2999999523,498227,495686.188,495695.19999980927,495702.854,498242.62,8,400,,,
trial,html.Screen,4_125_0,2023-09-08T20:51:15.449Z,,0,3,,2550.7799998569535,response,ISIC_7738955.JPG,5,ISIC_0026150.JPG,ISIC_7738955.JPG,false,1,keypress(m),500,500793.59999990463,500793.39999985695,498225.929,498227.5,498242.62,500803.805,8,400,26,,ISIC_0026150.JPG
