sender,sender_type,sender_id,timestamp,meta,,blockNo,condition,duration,ended_on,img_left,img_reveal,img_right,loser,practice,response,response_action,selection_duration,time_commit,time_end,time_render,time_run,time_show,time_switch,total_blocks,total_trials,trialNo,url,winner
informed_consent,html.Screen,0,2023-05-02T19:49:00.334Z,"{""labjs_version"":""20.2.4"",""labjs_build"":{""flavor"":""production"",""commit"":""f5b4a49f956347addd546a832a3327688c2c0fef""},""location"":""https://run.pavlovia.org/MurrayBennett/melanoma-2afc/?participant=65213"",""userAgent"":""Mozilla/5.0 (Macintosh; Intel Mac OS X 10_15_7) AppleWebKit/537.36 (KHTML, like Gecko) Chrome/112.0.0.0 Safari/537.36"",""platform"":""MacIntel"",""language"":""en-US"",""locale"":""en-US"",""timeZone"":""America/Chicago"",""timezoneOffset"":300,""screen_width"":1792,""screen_height"":1120,""scroll_width"":1792,""scroll_height"":993,""window_innerWidth"":1792,""window_innerHeight"":1041,""devicePixelRatio"":2}",,,,4816.347999982118,response,,,,,,consent,click button,,6573.5999999940395,6570.799999982119,1487.796,1763.199999988079,1754.452,6587.592,,,,"{""participant"":""65213""}",
Welcome,html.Screen,1,2023-05-02T19:49:08.132Z,,,,regular,7781.107999988079,response,,,,,,continue,click button,,14371.09999999404,14368.699999988079,6570.926,6573.799999982119,6587.592,14387.28,,,,,
trial,html.Screen,2_0_0,2023-05-02T19:49:19.637Z,,0,0,,11517.408999999998,timeout,ISIC_0061792.JPG,,ISIC_4679428.JPG,ISIC_0061792.JPG,true,,,500,25876.29999998212,25876,14370.614,14371.199999988079,14387.28,25904.689,1,6,1,,ISIC_4679428.JPG
sequence,flow.Sequence,2_0,2023-05-02T19:49:19.637Z,,0,,,11488.72,completion,,,,,true,,,,25876.59999999404,25876,14370.614,14371.199999988079,14387.28,25904.689,1,6,,,
trial,html.Screen,2_1_0,2023-05-02T19:49:25.085Z,,0,0,,5419.11099998212,response,ISIC_0776486.JPG,,ISIC_5199497.JPG,ISIC_5199497.JPG,true,0,keypress(z),500,31324.09999999404,31323.79999998212,25888.023,25876.69999998808,25904.689,31337.805,1,6,2,,ISIC_0776486.JPG
sequence,flow.Sequence,2_1,2023-05-02T19:49:25.085Z,,0,,,5419.11099998212,completion,,,,,true,,,,31324.40000000596,31323.79999998212,25888.023,25876.69999998808,25904.689,31337.805,1,6,,,
trial,html.Screen,2_2_0,2023-05-02T19:49:30.839Z,,0,0,,5739.894999988079,response,ISIC_2556187.JPG,,ISIC_8575776.JPG,ISIC_2556187.JPG,true,1,keypress(m),500,37078,37077.69999998808,31321.139,31324.59999999404,31337.805,37087.904,1,6,3,,ISIC_8575776.JPG
sequence,flow.Sequence,2_2,2023-05-02T19:49:30.839Z,,0,,,5739.894999988079,completion,,,,,true,,,,37078.40000000596,37077.69999998808,31321.139,31324.5,31337.805,37087.904,1,6,,,
trial,html.Screen,2_3_0,2023-05-02T19:49:36.494Z,,0,0,,5645.395999982116,response,ISIC_8141769.JPG,,ISIC_9238366.JPG,ISIC_8141769.JPG,true,1,keypress(m),500,42733.59999999404,42733.29999998212,37071.238,37078.59999999404,37087.904,42737.678,1,6,4,,ISIC_9238366.JPG
sequence,flow.Sequence,2_3,2023-05-02T19:49:36.495Z,,0,,,5645.395999982116,completion,,,,,true,,,,42734.09999999404,42733.29999998212,37071.238,37078.59999999404,37087.904,42737.678,1,6,,,
trial,html.Screen,2_4_0,2023-05-02T19:49:43.510Z,,0,0,,7011.621999982119,response,ISIC_8949026.JPG,,ISIC_9959593.JPG,ISIC_9959593.JPG,true,0,keypress(z),500,49749.59999999404,49749.29999998212,42721.012,42734.19999998808,42737.678,49754.548,1,6,5,,ISIC_8949026.JPG
sequence,flow.Sequence,2_4,2023-05-02T19:49:43.511Z,,0,,,7011.621999982119,completion,,,,,true,,,,49749.90000000596,49749.29999998212,42721.012,42734.19999998808,42737.678,49754.548,1,6,,,
trial,html.Screen,2_5_0,2023-05-02T19:49:48.911Z,,0,0,,5395.651999988077,response,ISIC_0010479.JPG,,ISIC_0460240.JPG,ISIC_0010479.JPG,true,1,keypress(m),500,55150.40000000596,55150.19999998808,49737.882,49750.09999999404,49754.548,55154.332,1,6,6,,ISIC_0460240.JPG
sequence,flow.Sequence,2_5,2023-05-02T19:49:48.912Z,,0,,,5395.651999988077,completion,,,,,true,,,,55150.79999998212,55150.19999998808,49737.882,49750.09999999404,49754.548,55154.332,1,6,,,
loop,flow.Loop,2,2023-05-02T19:49:48.912Z,,,,,40762.91999998808,completion,,,,,true,,,,55151.09999999404,55150.19999998808,14370.614,14371.199999988079,14387.28,55154.332,1,6,,,
exp_instructions,html.Screen,3,2023-05-02T19:49:58.217Z,,,,,9297.068000005958,response,,,,,,continue,keypress(Space),,64455.79999998212,64451.40000000596,55137.666,55151.09999999404,55154.332,64470.626,,,,,
trial,html.Screen,4_0_0,2023-05-02T19:50:09.717Z,,0,1,,11517.382000000005,timeout,ISIC_8704668.JPG,,ISIC_4597707.JPG,,false,,,500,75956.40000000596,75956.19999998808,64453.96,64455.90000000596,64470.626,75988.008,8,400,1,,
break,html.Screen,4_0_1,2023-05-02T19:50:09.718Z,,0,,,NaN,,,,,,false,,,,75956.90000000596,75956.79999998212,,75956.5,,75988.008,8,400,,,
break_continue,html.Screen,4_0_2,2023-05-02T19:50:09.718Z,,0,,,NaN,,,,,,false,,,,75957.19999998808,75957.09999999404,,75957,,75988.008,8,400,,,
sequence,flow.Sequence,4_0,2023-05-02T19:50:09.718Z,,0,,,11486.473999994043,completion,,,,,false,,,,75957.29999998212,75957.09999999404,64453.96,64455.90000000596,64470.626,75988.008,8,400,,,
trial,html.Screen,4_1_0,2023-05-02T19:50:20.405Z,,0,1,,10655.991999999998,response,ISIC_0026281.JPG,,ISIC_0025796.JPG,ISIC_0025796.JPG,false,0,keypress(z),500,86644.19999998808,86644,75970.747,75957.5,75988.008,86654.507,8,400,2,,ISIC_0026281.JPG
break,html.Screen,4_1_1,2023-05-02T19:50:20.406Z,,0,,,NaN,,,,,,false,,,,86644.90000000596,86644.79999998212,,86644.5,,86654.507,8,400,,,
break_continue,html.Screen,4_1_2,2023-05-02T19:50:20.406Z,,0,,,NaN,,,,,,false,,,,86645.19999998808,86645,,86645,,86654.507,8,400,,,
sequence,flow.Sequence,4_1,2023-05-02T19:50:20.406Z,,0,,,10656.991999999998,completion,,,,,false,,,,86645.29999998212,86645,75970.747,75957.40000000596,75988.008,86654.507,8,400,,,
trial,html.Screen,4_2_0,2023-05-02T19:50:25.367Z,,0,1,,4950.792999982121,response,ISIC_0055393.JPG,,ISIC_4288307.JPG,ISIC_0055393.JPG,false,1,keypress(m),500,91605.5,91605.29999998212,86637.841,86645.29999998212,86654.507,91637.641,8,400,3,,ISIC_4288307.JPG
break,html.Screen,4_2_1,2023-05-02T19:50:25.367Z,,0,,,NaN,,,,,,false,,,,91606.19999998808,91606.09999999404,,91605.79999998212,,91637.641,8,400,,,
break_continue,html.Screen,4_2_2,2023-05-02T19:50:25.368Z,,0,,,NaN,,,,,,false,,,,91606.40000000596,91606.29999998212,,91606.29999998212,,91637.641,8,400,,,
sequence,flow.Sequence,4_2,2023-05-02T19:50:25.368Z,,0,,,4951.792999982121,completion,,,,,false,,,,91606.5,91606.29999998212,86637.841,86645.29999998212,86654.507,91637.641,8,400,,,
trial,html.Screen,4_3_0,2023-05-02T19:50:28.461Z,,0,1,,3061.9589999940363,response,ISIC_0062325.JPG,,ISIC_0056152.JPG,ISIC_0062325.JPG,false,1,keypress(m),500,94699.79999998212,94699.59999999404,91620.975,91606.59999999404,91637.641,94704.185,8,400,4,,ISIC_0056152.JPG
break,html.Screen,4_3_1,2023-05-02T19:50:28.462Z,,0,,,NaN,,,,,,false,,,,94700.5,94700.29999998212,,94700,,94704.185,8,400,,,
break_continue,html.Screen,4_3_2,2023-05-02T19:50:28.462Z,,0,,,NaN,,,,,,false,,,,94700.69999998808,94700.69999998808,,94700.59999999404,,94704.185,8,400,,,
sequence,flow.Sequence,4_3,2023-05-02T19:50:28.462Z,,0,,,3063.058999988076,completion,,,,,false,,,,94700.79999998212,94700.69999998808,91620.975,91606.59999999404,91637.641,94704.185,8,400,,,
trial,html.Screen,4_4_0,2023-05-02T19:50:33.576Z,,0,1,,5109.815000000002,response,ISIC_3833013.JPG,,ISIC_7727830.JPG,ISIC_7727830.JPG,false,0,keypress(z),500,99814.19999998808,99814,94687.519,94701,94704.185,99821.159,8,400,5,,ISIC_3833013.JPG
break,html.Screen,4_4_1,2023-05-02T19:50:33.576Z,,0,,,NaN,,,,,,false,,,,99815,99814.79999998212,,99814.5,,99821.159,8,400,,,
break_continue,html.Screen,4_4_2,2023-05-02T19:50:33.577Z,,0,,,NaN,,,,,,false,,,,99815.19999998808,99815.19999998808,,99815.09999999404,,99821.159,8,400,,,
sequence,flow.Sequence,4_4,2023-05-02T19:50:33.577Z,,0,,,5111.014999988081,completion,,,,,false,,,,99815.29999998212,99815.19999998808,94687.519,94700.90000000596,94704.185,99821.159,8,400,,,
trial,html.Screen,4_5_0,2023-05-02T19:50:37.637Z,,0,1,,4054.0409999880794,response,ISIC_0066149.JPG,,ISIC_0024246.JPG,ISIC_0066149.JPG,false,1,keypress(m),500,103875.5,103875.19999998808,99804.493,99815.5,99821.159,103887.663,8,400,6,,ISIC_0024246.JPG
break,html.Screen,4_5_1,2023-05-02T19:50:37.637Z,,0,,,NaN,,,,,,false,,,,103876.09999999404,103875.90000000596,,103875.79999998212,,103887.663,8,400,,,
break_continue,html.Screen,4_5_2,2023-05-02T19:50:37.638Z,,0,,,NaN,,,,,,false,,,,103876.29999998212,103876.29999998212,,103876.19999998808,,103887.663,8,400,,,
sequence,flow.Sequence,4_5,2023-05-02T19:50:37.638Z,,0,,,4055.140999982119,completion,,,,,false,,,,103876.40000000596,103876.29999998212,99804.493,99815.40000000596,99821.159,103887.663,8,400,,,
trial,html.Screen,4_6_0,2023-05-02T19:50:42.021Z,,0,1,,4371.636999982118,response,ISIC_0067008.JPG,,ISIC_4768512.JPG,ISIC_0067008.JPG,false,1,keypress(m),500,108259.59999999404,108259.29999998212,103870.997,103876.5,103887.663,108271.29,8,400,7,,ISIC_4768512.JPG
break,html.Screen,4_6_1,2023-05-02T19:50:42.022Z,,0,,,NaN,,,,,,false,,,,108260.19999998808,108260,,108259.69999998808,,108271.29,8,400,,,
break_continue,html.Screen,4_6_2,2023-05-02T19:50:42.022Z,,0,,,NaN,,,,,,false,,,,108260.5,108260.40000000596,,108260.29999998212,,108271.29,8,400,,,
sequence,flow.Sequence,4_6,2023-05-02T19:50:42.022Z,,0,,,4372.73700000596,completion,,,,,false,,,,108260.59999999404,108260.40000000596,103870.997,103876.5,103887.663,108271.29,8,400,,,
trial,html.Screen,4_7_0,2023-05-02T19:50:46.374Z,,0,1,,4341.009999982125,response,ISIC_0071492.JPG,,ISIC_0483289.JPG,ISIC_0071492.JPG,false,1,keypress(m),500,112612.5,112612.29999998212,108254.624,108260.69999998808,108271.29,112621.116,8,400,8,,ISIC_0483289.JPG
break,html.Screen,4_7_1,2023-05-02T19:50:46.375Z,,0,,,NaN,,,,,,false,,,,112613.19999998808,112613.09999999404,,112612.69999998808,,112621.116,8,400,,,
break_continue,html.Screen,4_7_2,2023-05-02T19:50:46.375Z,,0,,,NaN,,,,,,false,,,,112613.5,112613.5,,112613.40000000596,,112621.116,8,400,,,
sequence,flow.Sequence,4_7,2023-05-02T19:50:46.375Z,,0,,,4342.210000000006,completion,,,,,false,,,,112613.59999999404,112613.5,108254.624,108260.59999999404,108271.29,112621.116,8,400,,,
trial,html.Screen,4_8_0,2023-05-02T19:50:50.838Z,,0,1,,4455.5839999880845,response,ISIC_3926019.JPG,,ISIC_0033923.JPG,ISIC_0033923.JPG,false,0,keypress(z),500,117076.90000000596,117076.69999998808,112604.45,112613.69999998808,112621.116,117087.604,8,400,9,,ISIC_3926019.JPG
break,html.Screen,4_8_1,2023-05-02T19:50:50.839Z,,0,,,NaN,,,,,,false,,,,117077.69999998808,117077.40000000596,,117077.19999998808,,117087.604,8,400,,,
break_continue,html.Screen,4_8_2,2023-05-02T19:50:50.839Z,,0,,,NaN,,,,,,false,,,,117077.90000000596,117077.79999998212,,117077.79999998212,,117087.604,8,400,,,
sequence,flow.Sequence,4_8,2023-05-02T19:50:50.839Z,,0,,,4456.683999982124,completion,,,,,false,,,,117078.09999999404,117077.79999998212,112604.45,112613.59999999404,112621.116,117087.604,8,400,,,
trial,html.Screen,4_9_0,2023-05-02T19:50:54.880Z,,0,1,,4030.3959999999934,response,ISIC_6119202.JPG,,ISIC_0025619.JPG,ISIC_0025619.JPG,false,0,keypress(z),500,121118.29999998212,121118,117070.938,117078.09999999404,117087.604,121121.165,8,400,10,,ISIC_6119202.JPG
break,html.Screen,4_9_1,2023-05-02T19:50:54.880Z,,0,,,NaN,,,,,,false,,,,121119,121118.79999998212,,121118.5,,121121.165,8,400,,,
break_continue,html.Screen,4_9_2,2023-05-02T19:50:54.881Z,,0,,,NaN,,,,,,false,,,,121119.19999998808,121119.09999999404,,121119.09999999404,,121121.165,8,400,,,
sequence,flow.Sequence,4_9,2023-05-02T19:50:54.881Z,,0,,,4031.495999994033,completion,,,,,false,,,,121119.29999998212,121119.09999999404,117070.938,117078.09999999404,117087.604,121121.165,8,400,,,
trial,html.Screen,4_10_0,2023-05-02T19:50:58.061Z,,0,1,,3178.0349999880855,response,ISIC_0058054.JPG,,ISIC_0059273.JPG,ISIC_0059273.JPG,false,0,keypress(z),500,124299.29999998212,124299.19999998808,121104.499,121119.40000000596,121121.165,124304.371,8,400,11,,ISIC_0058054.JPG
break,html.Screen,4_10_1,2023-05-02T19:50:58.062Z,,0,,,NaN,,,,,,false,,,,124300.09999999404,124299.90000000596,,124299.59999999404,,124304.371,8,400,,,
break_continue,html.Screen,4_10_2,2023-05-02T19:50:58.062Z,,0,,,NaN,,,,,,false,,,,124300.29999998212,124300.29999998212,,124300.19999998808,,124304.371,8,400,,,
sequence,flow.Sequence,4_10,2023-05-02T19:50:58.062Z,,0,,,3179.134999982125,completion,,,,,false,,,,124300.40000000596,124300.29999998212,121104.499,121119.40000000596,121121.165,124304.371,8,400,,,
trial,html.Screen,4_11_0,2023-05-02T19:51:01.101Z,,0,1,,3035.0290000059613,response,ISIC_0292775.JPG,,ISIC_7973598.JPG,ISIC_7973598.JPG,false,0,keypress(z),500,127339.59999999404,127339.40000000596,124287.705,124300.5,124304.371,127354.249,8,400,12,,ISIC_0292775.JPG
break,html.Screen,4_11_1,2023-05-02T19:51:01.102Z,,0,,,NaN,,,,,,false,,,,127340.29999998212,127340,,127339.79999998212,,127354.249,8,400,,,
break_continue,html.Screen,4_11_2,2023-05-02T19:51:01.102Z,,0,,,NaN,,,,,,false,,,,127340.59999999404,127340.40000000596,,127340.40000000596,,127354.249,8,400,,,
sequence,flow.Sequence,4_11,2023-05-02T19:51:01.102Z,,0,,,3036.0290000059613,completion,,,,,false,,,,127340.59999999404,127340.40000000596,124287.705,124300.5,124304.371,127354.249,8,400,,,
trial,html.Screen,4_12_0,2023-05-02T19:51:04.150Z,,0,1,,3033.950999988083,response,ISIC_6297317.JPG,,ISIC_0054673.JPG,ISIC_0054673.JPG,false,0,keypress(z),500,130388.29999998212,130388.19999998808,127337.583,127340.79999998212,127354.249,130404.534,8,400,13,,ISIC_6297317.JPG
break,html.Screen,4_12_1,2023-05-02T19:51:04.151Z,,0,,,NaN,,,,,,false,,,,130389.09999999404,130389,,130388.59999999404,,130404.534,8,400,,,
break_continue,html.Screen,4_12_2,2023-05-02T19:51:04.151Z,,0,,,NaN,,,,,,false,,,,130389.29999998212,130389.19999998808,,130389.19999998808,,130404.534,8,400,,,
sequence,flow.Sequence,4_12,2023-05-02T19:51:04.151Z,,0,,,3034.950999988083,completion,,,,,false,,,,130389.40000000596,130389.19999998808,127337.583,127340.79999998212,127354.249,130404.534,8,400,,,
trial,html.Screen,4_13_0,2023-05-02T19:51:08.782Z,,0,1,,4615.866000005961,response,ISIC_0062234.JPG,,ISIC_9505595.JPG,ISIC_0062234.JPG,false,1,keypress(m),500,135020.59999999404,135020.40000000596,130387.868,130389.5,130404.534,135037.682,8,400,14,,ISIC_9505595.JPG
break,html.Screen,4_13_1,2023-05-02T19:51:08.783Z,,0,,,NaN,,,,,,false,,,,135021.40000000596,135021.19999998808,,135020.79999998212,,135037.682,8,400,,,
break_continue,html.Screen,4_13_2,2023-05-02T19:51:08.783Z,,0,,,NaN,,,,,,false,,,,135021.59999999404,135021.5,,135021.40000000596,,135037.682,8,400,,,
sequence,flow.Sequence,4_13,2023-05-02T19:51:08.783Z,,0,,,4616.966,completion,,,,,false,,,,135021.79999998212,135021.5,130387.868,130389.5,130404.534,135037.682,8,400,,,
trial,html.Screen,4_14_0,2023-05-02T19:51:14.135Z,,0,1,,5335.517999988078,response,ISIC_9407690.JPG,,ISIC_0061647.JPG,ISIC_0061647.JPG,false,0,keypress(z),500,140373.40000000596,140373.19999998808,135021.016,135021.90000000596,135037.682,140387.884,8,400,15,,ISIC_9407690.JPG
break,html.Screen,4_14_1,2023-05-02T19:51:14.136Z,,0,,,NaN,,,,,,false,,,,140374.09999999404,140373.90000000596,,140373.59999999404,,140387.884,8,400,,,
break_continue,html.Screen,4_14_2,2023-05-02T19:51:14.136Z,,0,,,NaN,,,,,,false,,,,140374.29999998212,140374.29999998212,,140374.19999998808,,140387.884,8,400,,,
sequence,flow.Sequence,4_14,2023-05-02T19:51:14.136Z,,0,,,5336.617999982118,completion,,,,,false,,,,140374.5,140374.29999998212,135021.016,135021.79999998212,135037.682,140387.884,8,400,,,
trial,html.Screen,4_15_0,2023-05-02T19:51:17.357Z,,0,1,,3207.0160000059695,response,ISIC_0030512.JPG,,ISIC_3787504.JPG,ISIC_3787504.JPG,false,0,keypress(z),500,143595,143594.90000000596,140371.218,140374.59999999404,140387.884,143604.422,8,400,16,,ISIC_0030512.JPG
break,html.Screen,4_15_1,2023-05-02T19:51:17.357Z,,0,,,NaN,,,,,,false,,,,143595.40000000596,143595.29999998212,,143595.09999999404,,143604.422,8,400,,,
break_continue,html.Screen,4_15_2,2023-05-02T19:51:17.357Z,,0,,,NaN,,,,,,false,,,,143595.5,143595.5,,143595.40000000596,,143604.422,8,400,,,
sequence,flow.Sequence,4_15,2023-05-02T19:51:17.357Z,,0,,,3207.616000000009,completion,,,,,false,,,,143595.5,143595.5,140371.218,140374.59999999404,140387.884,143604.422,8,400,,,
trial,html.Screen,4_16_0,2023-05-02T19:51:20.456Z,,0,1,,3089.677999994048,response,ISIC_5294540.JPG,,ISIC_0067667.JPG,ISIC_0067667.JPG,false,0,keypress(z),500,146694.40000000596,146694.09999999404,143587.756,143595.69999998808,143604.422,146704.298,8,400,17,,ISIC_5294540.JPG
break,html.Screen,4_16_1,2023-05-02T19:51:20.457Z,,0,,,NaN,,,,,,false,,,,146695.09999999404,146694.90000000596,,146694.59999999404,,146704.298,8,400,,,
break_continue,html.Screen,4_16_2,2023-05-02T19:51:20.457Z,,0,,,NaN,,,,,,false,,,,146695.29999998212,146695.29999998212,,146695.09999999404,,146704.298,8,400,,,
sequence,flow.Sequence,4_16,2023-05-02T19:51:20.457Z,,0,,,3090.877999982127,completion,,,,,false,,,,146695.40000000596,146695.29999998212,143587.756,143595.69999998808,143604.422,146704.298,8,400,,,
trial,html.Screen,4_17_0,2023-05-02T19:51:23.040Z,,0,1,,2573.4019999880693,response,ISIC_6062657.JPG,,ISIC_0031705.JPG,ISIC_0031705.JPG,false,0,keypress(z),500,149278,149277.69999998808,146687.632,146695.5,146704.298,149287.528,8,400,18,,ISIC_6062657.JPG
break,html.Screen,4_17_1,2023-05-02T19:51:23.040Z,,0,,,NaN,,,,,,false,,,,149278.69999998808,149278.5,,149278.19999998808,,149287.528,8,400,,,
break_continue,html.Screen,4_17_2,2023-05-02T19:51:23.041Z,,0,,,NaN,,,,,,false,,,,149278.90000000596,149278.79999998212,,149278.79999998212,,149287.528,8,400,,,
sequence,flow.Sequence,4_17,2023-05-02T19:51:23.041Z,,0,,,2574.501999982109,completion,,,,,false,,,,149279,149278.79999998212,146687.632,146695.5,146704.298,149287.528,8,400,,,
trial,html.Screen,4_18_0,2023-05-02T19:51:28.503Z,,0,1,,5453.071999994048,response,ISIC_2432848.JPG,,ISIC_0027921.JPG,ISIC_0027921.JPG,false,0,keypress(z),500,154740.79999998212,154740.59999999404,149270.862,149279.09999999404,149287.528,154754.389,8,400,19,,ISIC_2432848.JPG
break,html.Screen,4_18_1,2023-05-02T19:51:28.503Z,,0,,,NaN,,,,,,false,,,,154741.5,154741.29999998212,,154741,,154754.389,8,400,,,
break_continue,html.Screen,4_18_2,2023-05-02T19:51:28.504Z,,0,,,NaN,,,,,,false,,,,154741.69999998808,154741.59999999404,,154741.59999999404,,154754.389,8,400,,,
sequence,flow.Sequence,4_18,2023-05-02T19:51:28.504Z,,0,,,5454.071999994048,completion,,,,,false,,,,154741.90000000596,154741.59999999404,149270.862,149279.09999999404,149287.528,154754.389,8,400,,,
trial,html.Screen,4_19_0,2023-05-02T19:51:31.583Z,,0,1,,3066.910999982123,response,ISIC_9030482.JPG,,ISIC_0025546.JPG,ISIC_0025546.JPG,false,0,keypress(z),500,157821.69999998808,157821.29999998212,154737.723,154742,154754.389,157837.599,8,400,20,,ISIC_9030482.JPG
break,html.Screen,4_19_1,2023-05-02T19:51:31.584Z,,0,,,NaN,,,,,,false,,,,157822.40000000596,157822.09999999404,,157821.79999998212,,157837.599,8,400,,,
break_continue,html.Screen,4_19_2,2023-05-02T19:51:31.584Z,,0,,,NaN,,,,,,false,,,,157822.59999999404,157822.5,,157822.40000000596,,157837.599,8,400,,,
sequence,flow.Sequence,4_19,2023-05-02T19:51:31.585Z,,0,,,3068.1110000000044,completion,,,,,false,,,,157822.69999998808,157822.5,154737.723,154742,154754.389,157837.599,8,400,,,
trial,html.Screen,4_20_0,2023-05-02T19:51:34.526Z,,0,1,,2926.4010000000126,response,ISIC_0059390.JPG,,ISIC_5591622.JPG,ISIC_0059390.JPG,false,1,keypress(m),500,160764.29999998212,160764,157820.933,157822.79999998212,157837.599,160770.815,8,400,21,,ISIC_5591622.JPG
break,html.Screen,4_20_1,2023-05-02T19:51:34.527Z,,0,,,NaN,,,,,,false,,,,160764.90000000596,160764.69999998808,,160764.40000000596,,160770.815,8,400,,,
break_continue,html.Screen,4_20_2,2023-05-02T19:51:34.527Z,,0,,,NaN,,,,,,false,,,,160765.19999998808,160765,,160765,,160770.815,8,400,,,
sequence,flow.Sequence,4_20,2023-05-02T19:51:34.527Z,,0,,,2927.4010000000126,completion,,,,,false,,,,160765.29999998212,160765,157820.933,157822.69999998808,157837.599,160770.815,8,400,,,
trial,html.Screen,4_21_0,2023-05-02T19:51:38.133Z,,0,1,,3600.284999994037,response,ISIC_5979807.JPG,,ISIC_0004691.JPG,ISIC_5979807.JPG,false,1,keypress(m),500,164371.29999998212,164371.09999999404,160754.149,160765.40000000596,160770.815,164387.337,8,400,22,,ISIC_0004691.JPG
break,html.Screen,4_21_1,2023-05-02T19:51:38.134Z,,0,,,NaN,,,,,,false,,,,164371.90000000596,164371.79999998212,,164371.5,,164387.337,8,400,,,
break_continue,html.Screen,4_21_2,2023-05-02T19:51:38.134Z,,0,,,NaN,,,,,,false,,,,164372.19999998808,164372.09999999404,,164372,,164387.337,8,400,,,
sequence,flow.Sequence,4_21,2023-05-02T19:51:38.134Z,,0,,,3601.284999994037,completion,,,,,false,,,,164372.29999998212,164372.09999999404,160754.149,160765.40000000596,160770.815,164387.337,8,400,,,
trial,html.Screen,4_22_0,2023-05-02T19:51:41.382Z,,0,1,,3232.462999982119,response,ISIC_0067830.JPG,,ISIC_0072041.JPG,ISIC_0072041.JPG,false,0,keypress(z),500,167620.09999999404,167619.79999998212,164370.671,164372.40000000596,164387.337,167637.207,8,400,23,,ISIC_0067830.JPG
break,html.Screen,4_22_1,2023-05-02T19:51:41.383Z,,0,,,NaN,,,,,,false,,,,167620.69999998808,167620.5,,167620.29999998212,,167637.207,8,400,,,
break_continue,html.Screen,4_22_2,2023-05-02T19:51:41.383Z,,0,,,NaN,,,,,,false,,,,167621,167620.90000000596,,167620.79999998212,,167637.207,8,400,,,
sequence,flow.Sequence,4_22,2023-05-02T19:51:41.383Z,,0,,,3233.563000005961,completion,,,,,false,,,,167621.09999999404,167620.90000000596,164370.671,164372.29999998212,164387.337,167637.207,8,400,,,
trial,html.Screen,4_23_0,2023-05-02T19:51:44.629Z,,0,1,,3229.6930000059656,response,ISIC_0032856.JPG,,ISIC_1507583.JPG,ISIC_0032856.JPG,false,1,keypress(m),500,170867.09999999404,170866.90000000596,167620.541,167621.29999998212,167637.207,170871.177,8,400,24,,ISIC_1507583.JPG
break,html.Screen,4_23_1,2023-05-02T19:51:44.630Z,,0,,,NaN,,,,,,false,,,,170867.79999998212,170867.59999999404,,170867.29999998212,,170871.177,8,400,,,
break_continue,html.Screen,4_23_2,2023-05-02T19:51:44.630Z,,0,,,NaN,,,,,,false,,,,170868,170867.90000000596,,170867.79999998212,,170871.177,8,400,,,
sequence,flow.Sequence,4_23,2023-05-02T19:51:44.630Z,,0,,,3230.6930000059656,completion,,,,,false,,,,170868.19999998808,170867.90000000596,167620.541,167621.29999998212,167637.207,170871.177,8,400,,,
trial,html.Screen,4_24_0,2023-05-02T19:51:49.261Z,,0,1,,4628.022999988083,response,ISIC_0071111.JPG,,ISIC_0058508.JPG,ISIC_0058508.JPG,false,0,keypress(z),500,175499.5,175499.19999998808,170854.511,170868.29999998212,170871.177,175504.325,8,400,25,,ISIC_0071111.JPG
break,html.Screen,4_24_1,2023-05-02T19:51:49.262Z,,0,,,NaN,,,,,,false,,,,175500.09999999404,175499.90000000596,,175499.59999999404,,175504.325,8,400,,,
break_continue,html.Screen,4_24_2,2023-05-02T19:51:49.262Z,,0,,,NaN,,,,,,false,,,,175500.40000000596,175500.29999998212,,175500.19999998808,,175504.325,8,400,,,
sequence,flow.Sequence,4_24,2023-05-02T19:51:49.262Z,,0,,,4629.122999982123,completion,,,,,false,,,,175500.40000000596,175500.29999998212,170854.511,170868.19999998808,170871.177,175504.325,8,400,,,
trial,html.Screen,4_25_0,2023-05-02T19:51:52.216Z,,0,1,,2949.6749999999884,response,ISIC_0070032.JPG,,ISIC_2139752.JPG,ISIC_0070032.JPG,false,1,keypress(m),500,178454.09999999404,178454,175487.659,175500.5,175504.325,178470.873,8,400,26,,ISIC_2139752.JPG
break,html.Screen,4_25_1,2023-05-02T19:51:52.217Z,,0,,,NaN,,,,,,false,,,,178454.79999998212,178454.69999998808,,178454.40000000596,,178470.873,8,400,,,
break_continue,html.Screen,4_25_2,2023-05-02T19:51:52.217Z,,0,,,NaN,,,,,,false,,,,178455.09999999404,178455,,178454.90000000596,,178470.873,8,400,,,
sequence,flow.Sequence,4_25,2023-05-02T19:51:52.217Z,,0,,,2950.6749999999884,completion,,,,,false,,,,178455.29999998212,178455,175487.659,175500.5,175504.325,178470.873,8,400,,,
trial,html.Screen,4_26_0,2023-05-02T19:51:55.246Z,,0,1,,3013.3269999880868,response,ISIC_0064836.JPG,,ISIC_0061915.JPG,ISIC_0061915.JPG,false,0,keypress(z),500,181484.29999998212,181484.19999998808,178454.207,178455.29999998212,178470.873,181487.843,8,400,27,,ISIC_0064836.JPG
break,html.Screen,4_26_1,2023-05-02T19:51:55.247Z,,0,,,NaN,,,,,,false,,,,181485.09999999404,181484.90000000596,,181484.59999999404,,181487.843,8,400,,,
break_continue,html.Screen,4_26_2,2023-05-02T19:51:55.247Z,,0,,,NaN,,,,,,false,,,,181485.29999998212,181485.29999998212,,181485.19999998808,,181487.843,8,400,,,
sequence,flow.Sequence,4_26,2023-05-02T19:51:55.247Z,,0,,,3014.4269999821263,completion,,,,,false,,,,181485.40000000596,181485.29999998212,178454.207,178455.29999998212,178470.873,181487.843,8,400,,,
trial,html.Screen,4_27_0,2023-05-02T19:51:57.992Z,,0,1,,2741.956999982125,response,ISIC_6425888.JPG,,ISIC_3635014.JPG,ISIC_6425888.JPG,false,1,keypress(m),500,184230.19999998808,184229.79999998212,181471.177,181485.59999999404,181487.843,184237.733,8,400,28,,ISIC_3635014.JPG
break,html.Screen,4_27_1,2023-05-02T19:51:57.993Z,,0,,,NaN,,,,,,false,,,,184230.79999998212,184230.59999999404,,184230.29999998212,,184237.733,8,400,,,
break_continue,html.Screen,4_27_2,2023-05-02T19:51:57.993Z,,0,,,NaN,,,,,,false,,,,184231.09999999404,184231,,184230.90000000596,,184237.733,8,400,,,
sequence,flow.Sequence,4_27,2023-05-02T19:51:57.993Z,,0,,,2743.1570000000065,completion,,,,,false,,,,184231.09999999404,184231,181471.177,181485.5,181487.843,184237.733,8,400,,,
trial,html.Screen,4_28_0,2023-05-02T19:52:01.799Z,,0,1,,3798.866999994032,response,ISIC_0056501.JPG,,ISIC_0010546.JPG,ISIC_0056501.JPG,false,1,keypress(m),500,188036.79999998212,188036.59999999404,184221.067,184231.19999998808,184237.733,188037.581,8,400,29,,ISIC_0010546.JPG
break,html.Screen,4_28_1,2023-05-02T19:52:01.800Z,,0,,,NaN,,,,,,false,,,,188037.5,188037.29999998212,,188037,,188037.581,8,400,,,
break_continue,html.Screen,4_28_2,2023-05-02T19:52:01.800Z,,0,,,NaN,,,,,,false,,,,188037.79999998212,188037.69999998808,,188037.59999999404,,188037.581,8,400,,,
sequence,flow.Sequence,4_28,2023-05-02T19:52:01.800Z,,0,,,3799.9669999880716,completion,,,,,false,,,,188037.90000000596,188037.69999998808,184221.067,184231.19999998808,184237.733,188037.581,8,400,,,
trial,html.Screen,4_29_0,2023-05-02T19:52:05.510Z,,0,1,,3709.718999982113,response,ISIC_4538207.JPG,,ISIC_9631669.JPG,ISIC_9631669.JPG,false,0,keypress(z),500,191747.59999999404,191747.29999998212,188020.915,188038,188037.581,191754.488,8,400,30,,ISIC_4538207.JPG
break,html.Screen,4_29_1,2023-05-02T19:52:05.510Z,,0,,,NaN,,,,,,false,,,,191748.19999998808,191748.09999999404,,191747.69999998808,,191754.488,8,400,,,
break_continue,html.Screen,4_29_2,2023-05-02T19:52:05.511Z,,0,,,NaN,,,,,,false,,,,191748.5,191748.5,,191748.40000000596,,191754.488,8,400,,,
sequence,flow.Sequence,4_29,2023-05-02T19:52:05.511Z,,0,,,3710.9189999999944,completion,,,,,false,,,,191748.59999999404,191748.5,188020.915,188038,188037.581,191754.488,8,400,,,
trial,html.Screen,4_30_0,2023-05-02T19:52:08.614Z,,0,1,,3096.711999988067,response,ISIC_0054053.JPG,,ISIC_0027436.JPG,ISIC_0054053.JPG,false,1,keypress(m),500,194851.29999998212,194851.19999998808,191737.822,191748.69999998808,191754.488,194854.364,8,400,31,,ISIC_0027436.JPG
break,html.Screen,4_30_1,2023-05-02T19:52:08.614Z,,0,,,NaN,,,,,,false,,,,194852.29999998212,194852.09999999404,,194851.59999999404,,194854.364,8,400,,,
break_continue,html.Screen,4_30_2,2023-05-02T19:52:08.615Z,,0,,,NaN,,,,,,false,,,,194852.59999999404,194852.40000000596,,194852.40000000596,,194854.364,8,400,,,
sequence,flow.Sequence,4_30,2023-05-02T19:52:08.615Z,,0,,,3097.9120000059484,completion,,,,,false,,,,194852.69999998808,194852.40000000596,191737.822,191748.69999998808,191754.488,194854.364,8,400,,,
trial,html.Screen,4_31_0,2023-05-02T19:52:12.150Z,,0,1,,3532.935999982117,response,ISIC_1698119.JPG,,ISIC_9751601.JPG,ISIC_1698119.JPG,false,1,keypress(m),500,198387.59999999404,198387.29999998212,194837.698,194852.79999998212,194854.364,198404.222,8,400,32,,ISIC_9751601.JPG
break,html.Screen,4_31_1,2023-05-02T19:52:12.150Z,,0,,,NaN,,,,,,false,,,,198388.29999998212,198388.09999999404,,198387.79999998212,,198404.222,8,400,,,
break_continue,html.Screen,4_31_2,2023-05-02T19:52:12.151Z,,0,,,NaN,,,,,,false,,,,198388.5,198388.40000000596,,198388.40000000596,,198404.222,8,400,,,
sequence,flow.Sequence,4_31,2023-05-02T19:52:12.151Z,,0,,,3534.036000005959,completion,,,,,false,,,,198388.59999999404,198388.40000000596,194837.698,194852.79999998212,194854.364,198404.222,8,400,,,
trial,html.Screen,4_32_0,2023-05-02T19:52:15.231Z,,0,1,,3064.1780000059516,response,ISIC_3063260.JPG,,ISIC_5622348.JPG,ISIC_5622348.JPG,false,0,keypress(z),500,201468.59999999404,201468.40000000596,198387.556,198388.69999998808,198404.222,201470.766,8,400,33,,ISIC_3063260.JPG
break,html.Screen,4_32_1,2023-05-02T19:52:15.232Z,,0,,,NaN,,,,,,false,,,,201469.40000000596,201469.19999998808,,201468.90000000596,,201470.766,8,400,,,
break_continue,html.Screen,4_32_2,2023-05-02T19:52:15.232Z,,0,,,NaN,,,,,,false,,,,201469.59999999404,201469.5,,201469.5,,201470.766,8,400,,,
sequence,flow.Sequence,4_32,2023-05-02T19:52:15.232Z,,0,,,3065.277999999991,completion,,,,,false,,,,201469.69999998808,201469.5,198387.556,198388.69999998808,198404.222,201470.766,8,400,,,
trial,html.Screen,4_33_0,2023-05-02T19:52:18.424Z,,0,1,,3191.2339999999967,response,ISIC_0068215.JPG,,ISIC_0030128.JPG,ISIC_0068215.JPG,false,1,keypress(m),500,204662.19999998808,204662,201454.1,201469.79999998212,201470.766,204671.033,8,400,34,,ISIC_0030128.JPG
break,html.Screen,4_33_1,2023-05-02T19:52:18.425Z,,0,,,NaN,,,,,,false,,,,204662.79999998212,204662.69999998808,,204662.40000000596,,204671.033,8,400,,,
break_continue,html.Screen,4_33_2,2023-05-02T19:52:18.425Z,,0,,,NaN,,,,,,false,,,,204663.09999999404,204663.09999999404,,204663,,204671.033,8,400,,,
sequence,flow.Sequence,4_33,2023-05-02T19:52:18.426Z,,0,,,3192.3339999940363,completion,,,,,false,,,,204663.19999998808,204663.09999999404,201454.1,201469.79999998212,201470.766,204671.033,8,400,,,
trial,html.Screen,4_34_0,2023-05-02T19:52:21.575Z,,0,1,,3141.3670000059647,response,ISIC_9905633.JPG,,ISIC_2153301.JPG,ISIC_2153301.JPG,false,0,keypress(z),500,207812.69999998808,207812.40000000596,204654.367,204663.29999998212,204671.033,207820.907,8,400,35,,ISIC_9905633.JPG
break,html.Screen,4_34_1,2023-05-02T19:52:21.576Z,,0,,,NaN,,,,,,false,,,,207813.40000000596,207813.19999998808,,207812.90000000596,,207820.907,8,400,,,
break_continue,html.Screen,4_34_2,2023-05-02T19:52:21.576Z,,0,,,NaN,,,,,,false,,,,207813.59999999404,207813.59999999404,,207813.5,,207820.907,8,400,,,
sequence,flow.Sequence,4_34,2023-05-02T19:52:21.576Z,,0,,,3142.5669999940437,completion,,,,,false,,,,207813.69999998808,207813.59999999404,204654.367,204663.29999998212,204671.033,207820.907,8,400,,,
trial,html.Screen,4_35_0,2023-05-02T19:52:24.277Z,,0,1,,2693.892999982112,response,ISIC_0029433.JPG,,ISIC_3148533.JPG,ISIC_0029433.JPG,false,1,keypress(m),500,210515,210514.79999998212,207804.241,207813.90000000596,207820.907,210520.799,8,400,36,,ISIC_3148533.JPG
break,html.Screen,4_35_1,2023-05-02T19:52:24.278Z,,0,,,NaN,,,,,,false,,,,210515.19999998808,210515.09999999404,,210515,,210520.799,8,400,,,
break_continue,html.Screen,4_35_2,2023-05-02T19:52:24.278Z,,0,,,NaN,,,,,,false,,,,210515.40000000596,210515.29999998212,,210515.29999998212,,210520.799,8,400,,,
sequence,flow.Sequence,4_35,2023-05-02T19:52:24.278Z,,0,,,2694.392999982112,completion,,,,,false,,,,210515.40000000596,210515.29999998212,207804.241,207813.79999998212,207820.907,210520.799,8,400,,,
trial,html.Screen,4_36_0,2023-05-02T19:52:27.328Z,,0,1,,3045.1010000059614,response,ISIC_0031005.JPG,,ISIC_9278685.JPG,ISIC_0031005.JPG,false,1,keypress(m),500,213566.19999998808,213565.90000000596,210504.133,210515.5,210520.799,213570.984,8,400,37,,ISIC_9278685.JPG
break,html.Screen,4_36_1,2023-05-02T19:52:27.329Z,,0,,,NaN,,,,,,false,,,,213566.79999998212,213566.59999999404,,213566.29999998212,,213570.984,8,400,,,
break_continue,html.Screen,4_36_2,2023-05-02T19:52:27.329Z,,0,,,NaN,,,,,,false,,,,213567,213566.90000000596,,213566.79999998212,,213570.984,8,400,,,
sequence,flow.Sequence,4_36,2023-05-02T19:52:27.329Z,,0,,,3046.1010000059614,completion,,,,,false,,,,213567.09999999404,213566.90000000596,210504.133,210515.5,210520.799,213570.984,8,400,,,
trial,html.Screen,4_37_0,2023-05-02T19:52:31.087Z,,0,1,,3753.0160000000033,response,ISIC_9742891.JPG,,ISIC_7895093.JPG,ISIC_7895093.JPG,false,0,keypress(z),500,217324.19999998808,217324,213554.318,213567.29999998212,213570.984,217337.5,8,400,38,,ISIC_9742891.JPG
break,html.Screen,4_37_1,2023-05-02T19:52:31.087Z,,0,,,NaN,,,,,,false,,,,217324.59999999404,217324.59999999404,,217324.29999998212,,217337.5,8,400,,,
break_continue,html.Screen,4_37_2,2023-05-02T19:52:31.087Z,,0,,,NaN,,,,,,false,,,,217324.90000000596,217324.79999998212,,217324.79999998212,,217337.5,8,400,,,
sequence,flow.Sequence,4_37,2023-05-02T19:52:31.087Z,,0,,,3753.815999982122,completion,,,,,false,,,,217325,217324.79999998212,213554.318,213567.19999998808,213570.984,217337.5,8,400,,,
trial,html.Screen,4_38_0,2023-05-02T19:52:34.335Z,,0,1,,3235.199999988079,response,ISIC_0062223.JPG,,ISIC_1009042.JPG,ISIC_0062223.JPG,false,1,keypress(m),500,220572.90000000596,220572.69999998808,217320.834,217325.09999999404,217337.5,220587.37,8,400,39,,ISIC_1009042.JPG
break,html.Screen,4_38_1,2023-05-02T19:52:34.336Z,,0,,,NaN,,,,,,false,,,,220573.59999999404,220573.40000000596,,220573,,220587.37,8,400,,,
break_continue,html.Screen,4_38_2,2023-05-02T19:52:34.336Z,,0,,,NaN,,,,,,false,,,,220573.79999998212,220573.59999999404,,220573.59999999404,,220587.37,8,400,,,
sequence,flow.Sequence,4_38,2023-05-02T19:52:34.336Z,,0,,,3236.0999999940395,completion,,,,,false,,,,220573.79999998212,220573.59999999404,217320.834,217325.09999999404,217337.5,220587.37,8,400,,,
trial,html.Screen,4_39_0,2023-05-02T19:52:37.849Z,,0,1,,3498.6300000000047,response,ISIC_3436139.JPG,,ISIC_2784664.JPG,ISIC_2784664.JPG,false,0,keypress(z),500,224086.29999998212,224086,220570.704,220574,220587.37,224087.702,8,400,40,,ISIC_3436139.JPG
break,html.Screen,4_39_1,2023-05-02T19:52:37.849Z,,0,,,NaN,,,,,,false,,,,224087,224086.90000000596,,224086.5,,224087.702,8,400,,,
break_continue,html.Screen,4_39_2,2023-05-02T19:52:37.850Z,,0,,,NaN,,,,,,false,,,,224087.19999998808,224087.19999998808,,224087,,224087.702,8,400,,,
sequence,flow.Sequence,4_39,2023-05-02T19:52:37.850Z,,0,,,3499.8299999880837,completion,,,,,false,,,,224087.40000000596,224087.19999998808,220570.704,220573.90000000596,220587.37,224087.702,8,400,,,
trial,html.Screen,4_40_0,2023-05-02T19:52:40.624Z,,0,1,,2773.997999988089,response,ISIC_2661598.JPG,,ISIC_1616031.JPG,ISIC_1616031.JPG,false,0,keypress(z),500,226862,226861.69999998808,224071.036,224087.5,224087.702,226870.924,8,400,41,,ISIC_2661598.JPG
break,html.Screen,4_40_1,2023-05-02T19:52:40.625Z,,0,,,NaN,,,,,,false,,,,226862.69999998808,226862.40000000596,,226862.19999998808,,226870.924,8,400,,,
break_continue,html.Screen,4_40_2,2023-05-02T19:52:40.625Z,,0,,,NaN,,,,,,false,,,,226862.79999998212,226862.79999998212,,226862.69999998808,,226870.924,8,400,,,
sequence,flow.Sequence,4_40,2023-05-02T19:52:40.625Z,,0,,,2775.0979999821284,completion,,,,,false,,,,226863,226862.79999998212,224071.036,224087.5,224087.702,226870.924,8,400,,,
trial,html.Screen,4_41_0,2023-05-02T19:52:44.041Z,,0,1,,3407.77599998808,response,ISIC_0034061.JPG,,ISIC_2023592.JPG,ISIC_0034061.JPG,false,1,keypress(m),500,230278.90000000596,230278.69999998808,226854.258,226863.09999999404,226870.924,230287.454,8,400,42,,ISIC_2023592.JPG
break,html.Screen,4_41_1,2023-05-02T19:52:44.042Z,,0,,,NaN,,,,,,false,,,,230279.59999999404,230279.29999998212,,230279.09999999404,,230287.454,8,400,,,
break_continue,html.Screen,4_41_2,2023-05-02T19:52:44.042Z,,0,,,NaN,,,,,,false,,,,230279.79999998212,230279.69999998808,,230279.59999999404,,230287.454,8,400,,,
sequence,flow.Sequence,4_41,2023-05-02T19:52:44.042Z,,0,,,3408.77599998808,completion,,,,,false,,,,230279.90000000596,230279.69999998808,226854.258,226863.09999999404,226870.924,230287.454,8,400,,,
trial,html.Screen,4_42_0,2023-05-02T19:52:47.382Z,,0,1,,3331.4460000059626,response,ISIC_4548995.JPG,,ISIC_1638436.JPG,ISIC_1638436.JPG,false,0,keypress(z),500,233619.19999998808,233618.90000000596,230270.788,230280.09999999404,230287.454,233620.898,8,400,43,,ISIC_4548995.JPG
break,html.Screen,4_42_1,2023-05-02T19:52:47.382Z,,0,,,NaN,,,,,,false,,,,233619.90000000596,233619.69999998808,,233619.40000000596,,233620.898,8,400,,,
break_continue,html.Screen,4_42_2,2023-05-02T19:52:47.383Z,,0,,,NaN,,,,,,false,,,,233620.09999999404,233620,,233619.90000000596,,233620.898,8,400,,,
sequence,flow.Sequence,4_42,2023-05-02T19:52:47.383Z,,0,,,3332.546000000002,completion,,,,,false,,,,233620.29999998212,233620,230270.788,230280,230287.454,233620.898,8,400,,,
trial,html.Screen,4_43_0,2023-05-02T19:52:58.870Z,,0,1,,11516.867000000027,timeout,ISIC_0030856.JPG,,ISIC_9348809.JPG,,false,,,500,245107.29999998212,245107.09999999404,233604.232,233620.29999998212,233620.898,245137.765,8,400,44,,
break,html.Screen,4_43_1,2023-05-02T19:52:58.870Z,,0,,,NaN,,,,,,false,,,,245107.79999998212,245107.69999998808,,245107.40000000596,,245137.765,8,400,,,
break_continue,html.Screen,4_43_2,2023-05-02T19:52:58.871Z,,0,,,NaN,,,,,,false,,,,245108.09999999404,245108,,245107.90000000596,,245137.765,8,400,,,
sequence,flow.Sequence,4_43,2023-05-02T19:52:58.871Z,,0,,,11487.102000000014,completion,,,,,false,,,,245108.19999998808,245108,233604.232,233620.29999998212,233620.898,245137.765,8,400,,,
trial,html.Screen,4_44_0,2023-05-02T19:53:10.389Z,,0,1,,11516.667999999976,timeout,ISIC_0025732.JPG,,ISIC_5386244.JPG,,false,,,500,256625.79999998212,256625.59999999404,245120.438,245108.19999998808,245137.765,256654.433,8,400,45,,
break,html.Screen,4_44_1,2023-05-02T19:53:10.389Z,,0,,,NaN,,,,,,false,,,,256626.40000000596,256626.19999998808,,256626,,256654.433,8,400,,,
break_continue,html.Screen,4_44_2,2023-05-02T19:53:10.389Z,,0,,,NaN,,,,,,false,,,,256626.59999999404,256626.5,,256626.40000000596,,256654.433,8,400,,,
sequence,flow.Sequence,4_44,2023-05-02T19:53:10.389Z,,0,,,11488.734999999986,completion,,,,,false,,,,256626.69999998808,256626.5,245120.438,245108.19999998808,245137.765,256654.433,8,400,,,
trial,html.Screen,4_45_0,2023-05-02T19:53:21.902Z,,0,1,,11516.687000000005,timeout,ISIC_1860707.JPG,,ISIC_8945395.JPG,,false,,,500,268139.2999999821,268139.09999999404,256637.305,256626.79999998212,256654.433,268171.12,8,400,46,,
break,html.Screen,4_45_1,2023-05-02T19:53:21.903Z,,0,,,NaN,,,,,,false,,,,268140,268139.6999999881,,268139.5,,268171.12,8,400,,,
break_continue,html.Screen,4_45_2,2023-05-02T19:53:21.903Z,,0,,,NaN,,,,,,false,,,,268140.1999999881,268140,,268140,,268171.12,8,400,,,
sequence,flow.Sequence,4_45,2023-05-02T19:53:21.903Z,,0,,,11485.56700000001,completion,,,,,false,,,,268140.2999999821,268140,256637.305,256626.79999998212,256654.433,268171.12,8,400,,,
trial,html.Screen,4_46_0,2023-05-02T19:53:25.264Z,,0,1,,3329.3800000000047,response,ISIC_1543544.JPG,,ISIC_4985027.JPG,ISIC_4985027.JPG,false,0,keypress(z),500,271500.6999999881,271500.5,268153.973,268140.40000000596,268171.12,271504.32,8,400,47,,ISIC_1543544.JPG
break,html.Screen,4_46_1,2023-05-02T19:53:25.264Z,,0,,,NaN,,,,,,false,,,,271501.40000000596,271501.1999999881,,271501,,271504.32,8,400,,,
break_continue,html.Screen,4_46_2,2023-05-02T19:53:25.264Z,,0,,,NaN,,,,,,false,,,,271501.59999999404,271501.59999999404,,271501.5,,271504.32,8,400,,,
sequence,flow.Sequence,4_46,2023-05-02T19:53:25.265Z,,0,,,3330.479999994044,completion,,,,,false,,,,271501.7999999821,271501.59999999404,268153.973,268140.2999999821,268171.12,271504.32,8,400,,,
trial,html.Screen,4_47_0,2023-05-02T19:53:28.121Z,,0,1,,2853.7799999940326,response,ISIC_7746898.JPG,,ISIC_0011943.JPG,ISIC_0011943.JPG,false,0,keypress(z),500,274358.40000000596,274358.09999999404,271487.654,271501.7999999821,271504.32,274370.872,8,400,48,,ISIC_7746898.JPG
break,html.Screen,4_47_1,2023-05-02T19:53:28.122Z,,0,,,NaN,,,,,,false,,,,274359.09999999404,274358.7999999821,,274358.59999999404,,274370.872,8,400,,,
break_continue,html.Screen,4_47_2,2023-05-02T19:53:28.122Z,,0,,,NaN,,,,,,false,,,,274359.2999999821,274359.1999999881,,274359.1999999881,,274370.872,8,400,,,
sequence,flow.Sequence,4_47,2023-05-02T19:53:28.122Z,,0,,,2854.879999988072,completion,,,,,false,,,,274359.40000000596,274359.1999999881,271487.654,271501.7999999821,271504.32,274370.872,8,400,,,
trial,html.Screen,4_48_0,2023-05-02T19:53:30.807Z,,0,1,,2673.128000000026,response,ISIC_0058906.JPG,,ISIC_4097868.JPG,ISIC_0058906.JPG,false,1,keypress(m),500,277044.1999999881,277044,274354.206,274359.59999999404,274370.872,277054.098,8,400,49,,ISIC_4097868.JPG
break,html.Screen,4_48_1,2023-05-02T19:53:30.808Z,,0,,,NaN,,,,,,false,,,,277044.90000000596,277044.6999999881,,277044.40000000596,,277054.098,8,400,,,
break_continue,html.Screen,4_48_2,2023-05-02T19:53:30.808Z,,0,,,NaN,,,,,,false,,,,277045.09999999404,277045,,277045,,277054.098,8,400,,,
sequence,flow.Sequence,4_48,2023-05-02T19:53:30.808Z,,0,,,2674.128000000026,completion,,,,,false,,,,277045.1999999881,277045,274354.206,274359.40000000596,274370.872,277054.098,8,400,,,
trial,html.Screen,4_49_0,2023-05-02T19:53:34.344Z,,0,1,,3526.601999988081,response,ISIC_0002041.JPG,,ISIC_9605122.JPG,ISIC_9605122.JPG,false,0,keypress(z),500,280580.90000000596,280580.6999999881,277037.432,277045.2999999821,277054.098,280587.548,8,400,50,,ISIC_0002041.JPG
break,html.Screen,4_49_1,2023-05-02T19:53:39.336Z,,0,,,4999.799999999988,timeout,,,,,false,,,,285573.09999999404,285570.682,280570.882,280581.09999999404,280587.548,285587.348,8,400,,,
break_continue,html.Screen,4_49_2,2023-05-02T19:53:40.402Z,,0,,,1041.4519999821205,response,,,,,false,continue,keypress(Space),,286638.59999999404,286628.7999999821,285570.682,285573.09999999404,285587.348,286653.972,8,400,,,
sequence,flow.Sequence,4_49,2023-05-02T19:53:40.402Z,,0,,,9574.70199998212,completion,,,,,false,,,,286638.6999999881,286628.7999999821,277037.432,277045.1999999881,277054.098,286653.972,8,400,,,
trial,html.Screen,4_50_0,2023-05-02T19:53:44.448Z,,0,2,,4030.527999999991,response,ISIC_0026699.JPG,,ISIC_0363130.JPG,ISIC_0026699.JPG,false,1,keypress(m),500,290684.6999999881,290684.5,286637.306,286638.6999999881,286653.972,290687.677,8,400,1,,ISIC_0363130.JPG
break,html.Screen,4_50_1,2023-05-02T19:53:44.448Z,,0,,,NaN,,,,,,false,,,,290685.40000000596,290685.09999999404,,290684.90000000596,,290687.677,8,400,,,
break_continue,html.Screen,4_50_2,2023-05-02T19:53:44.449Z,,0,,,NaN,,,,,,false,,,,290685.59999999404,290685.59999999404,,290685.5,,290687.677,8,400,,,
sequence,flow.Sequence,4_50,2023-05-02T19:53:44.449Z,,0,,,4031.6279999940307,completion,,,,,false,,,,290685.6999999881,290685.59999999404,286637.306,286638.6999999881,286653.972,290687.677,8,400,,,
trial,html.Screen,4_51_0,2023-05-02T19:53:47.472Z,,0,2,,3020.6229999820935,response,ISIC_0010609.JPG,,ISIC_8969883.JPG,ISIC_8969883.JPG,false,0,keypress(z),500,293708.59999999404,293708.2999999821,290671.011,290685.7999999821,290687.677,293720.889,8,400,2,,ISIC_0010609.JPG
break,html.Screen,4_51_1,2023-05-02T19:53:47.472Z,,0,,,NaN,,,,,,false,,,,293709.2999999821,293709,,293708.6999999881,,293720.889,8,400,,,
break_continue,html.Screen,4_51_2,2023-05-02T19:53:47.473Z,,0,,,NaN,,,,,,false,,,,293709.5,293709.40000000596,,293709.2999999821,,293720.889,8,400,,,
sequence,flow.Sequence,4_51,2023-05-02T19:53:47.473Z,,0,,,3021.7230000059353,completion,,,,,false,,,,293709.59999999404,293709.40000000596,290671.011,290685.7999999821,290687.677,293720.889,8,400,,,
trial,html.Screen,4_52_0,2023-05-02T19:53:50.454Z,,0,2,,2970.210999994015,response,ISIC_8993666.JPG,,ISIC_2007034.JPG,ISIC_2007034.JPG,false,0,keypress(z),500,296691.40000000596,296691.09999999404,293704.223,293709.6999999881,293720.889,296704.103,8,400,3,,ISIC_8993666.JPG
break,html.Screen,4_52_1,2023-05-02T19:53:50.455Z,,0,,,NaN,,,,,,false,,,,296692.09999999404,296691.7999999821,,296691.59999999404,,296704.103,8,400,,,
break_continue,html.Screen,4_52_2,2023-05-02T19:53:50.455Z,,0,,,NaN,,,,,,false,,,,296692.1999999881,296692.1999999881,,296692.09999999404,,296704.103,8,400,,,
sequence,flow.Sequence,4_52,2023-05-02T19:53:50.455Z,,0,,,2971.3109999880544,completion,,,,,false,,,,296692.2999999821,296692.1999999881,293704.223,293709.6999999881,293720.889,296704.103,8,400,,,
trial,html.Screen,4_53_0,2023-05-02T19:53:53.294Z,,0,2,,2826.7970000059577,response,ISIC_9987485.JPG,,ISIC_0060481.JPG,ISIC_0060481.JPG,false,0,keypress(z),500,299531.09999999404,299530.90000000596,296687.437,296692.5,296704.103,299537.323,8,400,4,,ISIC_9987485.JPG
break,html.Screen,4_53_1,2023-05-02T19:53:53.295Z,,0,,,NaN,,,,,,false,,,,299531.7999999821,299531.59999999404,,299531.2999999821,,299537.323,8,400,,,
break_continue,html.Screen,4_53_2,2023-05-02T19:53:53.295Z,,0,,,NaN,,,,,,false,,,,299532,299532,,299531.90000000596,,299537.323,8,400,,,
sequence,flow.Sequence,4_53,2023-05-02T19:53:53.295Z,,0,,,2827.896999999997,completion,,,,,false,,,,299532.09999999404,299532,296687.437,296692.40000000596,296704.103,299537.323,8,400,,,
trial,html.Screen,4_54_0,2023-05-02T19:53:56.489Z,,0,2,,3188.7769999940647,response,ISIC_8917755.JPG,,ISIC_0010089.JPG,ISIC_8917755.JPG,false,1,keypress(m),500,302726.2999999821,302726.09999999404,299520.657,299532.2999999821,299537.323,302737.46,8,400,5,,ISIC_0010089.JPG
break,html.Screen,4_54_1,2023-05-02T19:53:56.490Z,,0,,,NaN,,,,,,false,,,,302726.90000000596,302726.6999999881,,302726.5,,302737.46,8,400,,,
break_continue,html.Screen,4_54_2,2023-05-02T19:53:56.490Z,,0,,,NaN,,,,,,false,,,,302727.1999999881,302727.09999999404,,302727,,302737.46,8,400,,,
sequence,flow.Sequence,4_54,2023-05-02T19:53:56.490Z,,0,,,3189.7769999940647,completion,,,,,false,,,,302727.2999999821,302727.09999999404,299520.657,299532.1999999881,299537.323,302737.46,8,400,,,
trial,html.Screen,4_55_0,2023-05-02T19:53:59.144Z,,0,2,,2642.739999988058,response,ISIC_8249565.JPG,,ISIC_0030901.JPG,ISIC_0030901.JPG,false,0,keypress(z),500,305380.40000000596,305380.1999999881,302720.794,302727.40000000596,302737.46,305387.354,8,400,6,,ISIC_8249565.JPG
break,html.Screen,4_55_1,2023-05-02T19:53:59.144Z,,0,,,NaN,,,,,,false,,,,305381.09999999404,305380.90000000596,,305380.59999999404,,305387.354,8,400,,,
break_continue,html.Screen,4_55_2,2023-05-02T19:53:59.145Z,,0,,,NaN,,,,,,false,,,,305381.40000000596,305381.2999999821,,305381.1999999881,,305387.354,8,400,,,
sequence,flow.Sequence,4_55,2023-05-02T19:53:59.145Z,,0,,,2643.8399999820977,completion,,,,,false,,,,305381.5,305381.2999999821,302720.794,302727.2999999821,302737.46,305387.354,8,400,,,
trial,html.Screen,4_56_0,2023-05-02T19:54:02.775Z,,0,2,,3624.4459999821265,response,ISIC_3914140.JPG,,ISIC_9685931.JPG,ISIC_3914140.JPG,false,1,keypress(m),500,309012,309011.7999999821,305370.688,305381.59999999404,305387.354,309020.542,8,400,7,,ISIC_9685931.JPG
break,html.Screen,4_56_1,2023-05-02T19:54:02.776Z,,0,,,NaN,,,,,,false,,,,309012.6999999881,309012.5,,309012.1999999881,,309020.542,8,400,,,
break_continue,html.Screen,4_56_2,2023-05-02T19:54:02.776Z,,0,,,NaN,,,,,,false,,,,309012.90000000596,309012.7999999821,,309012.7999999821,,309020.542,8,400,,,
sequence,flow.Sequence,4_56,2023-05-02T19:54:02.776Z,,0,,,3625.4459999821265,completion,,,,,false,,,,309013.09999999404,309012.7999999821,305370.688,305381.59999999404,305387.354,309020.542,8,400,,,
trial,html.Screen,4_57_0,2023-05-02T19:54:06.920Z,,0,2,,4135.957999999984,response,ISIC_9685931.JPG,,ISIC_0054422.JPG,ISIC_0054422.JPG,false,0,keypress(z),500,313156.7999999821,313156.5,309003.876,309013.1999999881,309020.542,313170.99,8,400,8,,ISIC_9685931.JPG
break,html.Screen,4_57_1,2023-05-02T19:54:06.921Z,,0,,,NaN,,,,,,false,,,,313157.40000000596,313157.1999999881,,313156.90000000596,,313170.99,8,400,,,
break_continue,html.Screen,4_57_2,2023-05-02T19:54:06.921Z,,0,,,NaN,,,,,,false,,,,313157.59999999404,313157.59999999404,,313157.5,,313170.99,8,400,,,
sequence,flow.Sequence,4_57,2023-05-02T19:54:06.921Z,,0,,,4137.057999994024,completion,,,,,false,,,,313157.7999999821,313157.59999999404,309003.876,309013.09999999404,309020.542,313170.99,8,400,,,
trial,html.Screen,4_58_0,2023-05-02T19:54:10.799Z,,0,2,,3864.91000000597,response,ISIC_0056723.JPG,,ISIC_0055826.JPG,ISIC_0056723.JPG,false,1,keypress(m),500,317036.09999999404,317035.90000000596,313154.324,313157.90000000596,313170.99,317037.502,8,400,9,,ISIC_0055826.JPG
break,html.Screen,4_58_1,2023-05-02T19:54:10.800Z,,0,,,NaN,,,,,,false,,,,317036.7999999821,317036.59999999404,,317036.2999999821,,317037.502,8,400,,,
break_continue,html.Screen,4_58_2,2023-05-02T19:54:10.800Z,,0,,,NaN,,,,,,false,,,,317037,317036.90000000596,,317036.90000000596,,317037.502,8,400,,,
sequence,flow.Sequence,4_58,2023-05-02T19:54:10.800Z,,0,,,3865.91000000597,completion,,,,,false,,,,317037.09999999404,317036.90000000596,313154.324,313157.7999999821,313170.99,317037.502,8,400,,,
trial,html.Screen,4_59_0,2023-05-02T19:54:14.048Z,,0,2,,3246.898000005982,response,ISIC_0070852.JPG,,ISIC_6666329.JPG,ISIC_0070852.JPG,false,1,keypress(m),500,320284.40000000596,320284.40000000596,317020.836,317037.2999999821,317037.502,320287.372,8,400,10,,ISIC_6666329.JPG
break,html.Screen,4_59_1,2023-05-02T19:54:14.048Z,,0,,,NaN,,,,,,false,,,,320284.7999999821,320284.6999999881,,320284.59999999404,,320287.372,8,400,,,
break_continue,html.Screen,4_59_2,2023-05-02T19:54:14.048Z,,0,,,NaN,,,,,,false,,,,320284.90000000596,320284.90000000596,,320284.90000000596,,320287.372,8,400,,,
sequence,flow.Sequence,4_59,2023-05-02T19:54:14.048Z,,0,,,3247.398000005982,completion,,,,,false,,,,320285.09999999404,320284.90000000596,317020.836,317037.2999999821,317037.502,320287.372,8,400,,,
trial,html.Screen,4_60_0,2023-05-02T19:54:17.887Z,,0,2,,3835.7279999940656,response,ISIC_9337870.JPG,,ISIC_0210282.JPG,ISIC_9337870.JPG,false,1,keypress(m),500,324123.1999999881,324123.09999999404,320270.706,320285.09999999404,320287.372,324137.649,8,400,11,,ISIC_0210282.JPG
break,html.Screen,4_60_1,2023-05-02T19:54:17.887Z,,0,,,NaN,,,,,,false,,,,324123.59999999404,324123.5,,324123.40000000596,,324137.649,8,400,,,
break_continue,html.Screen,4_60_2,2023-05-02T19:54:17.887Z,,0,,,NaN,,,,,,false,,,,324123.90000000596,324123.7999999821,,324123.7999999821,,324137.649,8,400,,,
sequence,flow.Sequence,4_60,2023-05-02T19:54:17.887Z,,0,,,3836.4279999821447,completion,,,,,false,,,,324124,324123.7999999821,320270.706,320285.09999999404,320287.372,324137.649,8,400,,,
trial,html.Screen,4_61_0,2023-05-02T19:54:20.840Z,,0,2,,2938.351000000024,response,ISIC_0024310.JPG,,ISIC_8382969.JPG,ISIC_0024310.JPG,false,1,keypress(m),500,327076.1999999881,327076,324120.983,324124.09999999404,324137.649,327087.531,8,400,12,,ISIC_8382969.JPG
break,html.Screen,4_61_1,2023-05-02T19:54:20.840Z,,0,,,NaN,,,,,,false,,,,327076.59999999404,327076.5,,327076.2999999821,,327087.531,8,400,,,
break_continue,html.Screen,4_61_2,2023-05-02T19:54:20.840Z,,0,,,NaN,,,,,,false,,,,327076.6999999881,327076.6999999881,,327076.59999999404,,327087.531,8,400,,,
sequence,flow.Sequence,4_61,2023-05-02T19:54:20.840Z,,0,,,2939.0509999881033,completion,,,,,false,,,,327076.7999999821,327076.6999999881,324120.983,324124.09999999404,324137.649,327087.531,8,400,,,
trial,html.Screen,4_62_0,2023-05-02T19:54:23.656Z,,0,2,,2805.168999988062,response,ISIC_6352730.JPG,,ISIC_0010587.JPG,ISIC_0010587.JPG,false,0,keypress(z),500,329893,329892.6999999881,327070.865,327076.90000000596,327087.531,329904.085,8,400,13,,ISIC_6352730.JPG
break,html.Screen,4_62_1,2023-05-02T19:54:23.657Z,,0,,,NaN,,,,,,false,,,,329893.6999999881,329893.5,,329893.1999999881,,329904.085,8,400,,,
break_continue,html.Screen,4_62_2,2023-05-02T19:54:23.657Z,,0,,,NaN,,,,,,false,,,,329893.90000000596,329893.7999999821,,329893.6999999881,,329904.085,8,400,,,
sequence,flow.Sequence,4_62,2023-05-02T19:54:23.657Z,,0,,,2806.2689999821014,completion,,,,,false,,,,329894,329893.7999999821,327070.865,327076.90000000596,327087.531,329904.085,8,400,,,
trial,html.Screen,4_63_0,2023-05-02T19:54:26.648Z,,0,2,,2979.914999999979,response,ISIC_2860618.JPG,,ISIC_0032872.JPG,ISIC_0032872.JPG,false,0,keypress(z),500,332884.1999999881,332884,329887.419,329894.09999999404,329904.085,332887.299,8,400,14,,ISIC_2860618.JPG
break,html.Screen,4_63_1,2023-05-02T19:54:26.648Z,,0,,,NaN,,,,,,false,,,,332884.7999999821,332884.6999999881,,332884.40000000596,,332887.299,8,400,,,
break_continue,html.Screen,4_63_2,2023-05-02T19:54:26.648Z,,0,,,NaN,,,,,,false,,,,332885.09999999404,332885,,332884.90000000596,,332887.299,8,400,,,
sequence,flow.Sequence,4_63,2023-05-02T19:54:26.649Z,,0,,,2980.914999999979,completion,,,,,false,,,,332885.1999999881,332885,329887.419,329894.09999999404,329904.085,332887.299,8,400,,,
trial,html.Screen,4_64_0,2023-05-02T19:54:29.823Z,,0,2,,3172.0009999821195,response,ISIC_0058906.JPG,,ISIC_0027507.JPG,ISIC_0058906.JPG,false,1,keypress(m),500,336059.5,336059.2999999821,332870.633,332885.2999999821,332887.299,336070.919,8,400,15,,ISIC_0027507.JPG
break,html.Screen,4_64_1,2023-05-02T19:54:29.824Z,,0,,,NaN,,,,,,false,,,,336060.1999999881,336060,,336059.6999999881,,336070.919,8,400,,,
break_continue,html.Screen,4_64_2,2023-05-02T19:54:29.824Z,,0,,,NaN,,,,,,false,,,,336060.5,336060.2999999821,,336060.2999999821,,336070.919,8,400,,,
sequence,flow.Sequence,4_64,2023-05-02T19:54:29.824Z,,0,,,3173.0009999821195,completion,,,,,false,,,,336060.59999999404,336060.2999999821,332870.633,332885.1999999881,332887.299,336070.919,8,400,,,
trial,html.Screen,4_65_0,2023-05-02T19:54:32.841Z,,0,2,,3006.0810000000056,response,ISIC_0069492.JPG,,ISIC_4798962.JPG,ISIC_0069492.JPG,false,1,keypress(m),500,339077.1999999881,339077,336054.253,336060.6999999881,336070.919,339087.465,8,400,16,,ISIC_4798962.JPG
break,html.Screen,4_65_1,2023-05-02T19:54:32.841Z,,0,,,NaN,,,,,,false,,,,339077.90000000596,339077.6999999881,,339077.40000000596,,339087.465,8,400,,,
break_continue,html.Screen,4_65_2,2023-05-02T19:54:32.842Z,,0,,,NaN,,,,,,false,,,,339078.09999999404,339078,,339078,,339087.465,8,400,,,
sequence,flow.Sequence,4_65,2023-05-02T19:54:32.842Z,,0,,,3007.0810000000056,completion,,,,,false,,,,339078.1999999881,339078,336054.253,336060.6999999881,336070.919,339087.465,8,400,,,
trial,html.Screen,4_66_0,2023-05-02T19:54:35.831Z,,0,2,,2980.0349999999744,response,ISIC_0011530.JPG,,ISIC_0301568.JPG,ISIC_0011530.JPG,false,1,keypress(m),500,342067.7999999821,342067.5,339070.799,339078.40000000596,339087.465,342070.679,8,400,17,,ISIC_0301568.JPG
break,html.Screen,4_66_1,2023-05-02T19:54:35.832Z,,0,,,NaN,,,,,,false,,,,342068.40000000596,342068.1999999881,,342067.90000000596,,342070.679,8,400,,,
break_continue,html.Screen,4_66_2,2023-05-02T19:54:35.832Z,,0,,,NaN,,,,,,false,,,,342068.6999999881,342068.59999999404,,342068.5,,342070.679,8,400,,,
sequence,flow.Sequence,4_66,2023-05-02T19:54:35.832Z,,0,,,2981.134999994014,completion,,,,,false,,,,342068.7999999821,342068.59999999404,339070.799,339078.2999999821,339087.465,342070.679,8,400,,,
trial,html.Screen,4_67_0,2023-05-02T19:54:38.815Z,,0,2,,2980.5209999880753,response,ISIC_0031356.JPG,,ISIC_6951506.JPG,ISIC_0031356.JPG,false,1,keypress(m),500,345051.40000000596,345051.1999999881,342054.013,342068.90000000596,342070.679,345054.149,8,400,18,,ISIC_6951506.JPG
break,html.Screen,4_67_1,2023-05-02T19:54:38.816Z,,0,,,NaN,,,,,,false,,,,345052.09999999404,345051.90000000596,,345051.6999999881,,345054.149,8,400,,,
break_continue,html.Screen,4_67_2,2023-05-02T19:54:38.816Z,,0,,,NaN,,,,,,false,,,,345052.2999999821,345052.2999999821,,345052.1999999881,,345054.149,8,400,,,
sequence,flow.Sequence,4_67,2023-05-02T19:54:38.816Z,,0,,,2981.620999982115,completion,,,,,false,,,,345052.5,345052.2999999821,342054.013,342068.90000000596,342070.679,345054.149,8,400,,,
trial,html.Screen,4_68_0,2023-05-02T19:54:41.642Z,,0,2,,2824.2510000059847,response,ISIC_0428257.JPG,,ISIC_3070206.JPG,ISIC_0428257.JPG,false,1,keypress(m),500,347878.59999999404,347878.40000000596,345037.483,345052.59999999404,345054.149,347887.369,8,400,19,,ISIC_3070206.JPG
break,html.Screen,4_68_1,2023-05-02T19:54:41.643Z,,0,,,NaN,,,,,,false,,,,347879.2999999821,347879.09999999404,,347878.7999999821,,347887.369,8,400,,,
break_continue,html.Screen,4_68_2,2023-05-02T19:54:41.643Z,,0,,,NaN,,,,,,false,,,,347879.5,347879.40000000596,,347879.2999999821,,347887.369,8,400,,,
sequence,flow.Sequence,4_68,2023-05-02T19:54:41.643Z,,0,,,2825.2510000059847,completion,,,,,false,,,,347879.6999999881,347879.40000000596,345037.483,345052.5,345054.149,347887.369,8,400,,,
trial,html.Screen,4_69_0,2023-05-02T19:54:44.434Z,,0,2,,2782.830999988073,response,ISIC_4973549.JPG,,ISIC_0033775.JPG,ISIC_0033775.JPG,false,0,keypress(z),500,350670.5,350670.1999999881,347870.703,347879.6999999881,347887.369,350687.257,8,400,20,,ISIC_4973549.JPG
break,html.Screen,4_69_1,2023-05-02T19:54:44.435Z,,0,,,NaN,,,,,,false,,,,350671.09999999404,350670.90000000596,,350670.59999999404,,350687.257,8,400,,,
break_continue,html.Screen,4_69_2,2023-05-02T19:54:44.435Z,,0,,,NaN,,,,,,false,,,,350671.40000000596,350671.1999999881,,350671.1999999881,,350687.257,8,400,,,
sequence,flow.Sequence,4_69,2023-05-02T19:54:44.435Z,,0,,,2783.830999988073,completion,,,,,false,,,,350671.5,350671.1999999881,347870.703,347879.6999999881,347887.369,350687.257,8,400,,,
trial,html.Screen,4_70_0,2023-05-02T19:54:48.167Z,,0,2,,3715.5429999821354,response,ISIC_0000078.JPG,,ISIC_3343475.JPG,ISIC_3343475.JPG,false,0,keypress(z),500,354403.09999999404,354402.7999999821,350670.591,350671.59999999404,350687.257,354420.441,8,400,21,,ISIC_0000078.JPG
break,html.Screen,4_70_1,2023-05-02T19:54:48.167Z,,0,,,NaN,,,,,,false,,,,354403.90000000596,354403.59999999404,,354403.2999999821,,354420.441,8,400,,,
break_continue,html.Screen,4_70_2,2023-05-02T19:54:48.168Z,,0,,,NaN,,,,,,false,,,,354404.09999999404,354403.90000000596,,354403.90000000596,,354420.441,8,400,,,
sequence,flow.Sequence,4_70,2023-05-02T19:54:48.168Z,,0,,,3716.6430000059772,completion,,,,,false,,,,354404.2999999821,354403.90000000596,350670.591,350671.59999999404,350687.257,354420.441,8,400,,,
trial,html.Screen,4_71_0,2023-05-02T19:54:52.144Z,,0,2,,3959.2589999880875,response,ISIC_2167209.JPG,,ISIC_0010364.JPG,ISIC_0010364.JPG,false,0,keypress(z),500,358380,358379.6999999881,354403.775,354404.2999999821,354420.441,358387.338,8,400,22,,ISIC_2167209.JPG
break,html.Screen,4_71_1,2023-05-02T19:54:52.144Z,,0,,,NaN,,,,,,false,,,,358380.6999999881,358380.5,,358380.1999999881,,358387.338,8,400,,,
break_continue,html.Screen,4_71_2,2023-05-02T19:54:52.145Z,,0,,,NaN,,,,,,false,,,,358381,358380.90000000596,,358380.7999999821,,358387.338,8,400,,,
sequence,flow.Sequence,4_71,2023-05-02T19:54:52.145Z,,0,,,3960.459000005969,completion,,,,,false,,,,358381.09999999404,358380.90000000596,354403.775,354404.2999999821,354420.441,358387.338,8,400,,,
trial,html.Screen,4_72_0,2023-05-02T19:54:55.098Z,,0,2,,2946.8619999880902,response,ISIC_3520750.JPG,,ISIC_0029026.JPG,ISIC_0029026.JPG,false,0,keypress(z),500,361334.5,361334.1999999881,358370.672,358381.09999999404,358387.338,361337.22,8,400,23,,ISIC_3520750.JPG
break,html.Screen,4_72_1,2023-05-02T19:54:55.099Z,,0,,,NaN,,,,,,false,,,,361335.1999999881,361335.09999999404,,361334.6999999881,,361337.22,8,400,,,
break_continue,html.Screen,4_72_2,2023-05-02T19:54:55.099Z,,0,,,NaN,,,,,,false,,,,361335.40000000596,361335.2999999821,,361335.1999999881,,361337.22,8,400,,,
sequence,flow.Sequence,4_72,2023-05-02T19:54:55.099Z,,0,,,2947.96199998213,completion,,,,,false,,,,361335.5,361335.2999999821,358370.672,358381.09999999404,358387.338,361337.22,8,400,,,
trial,html.Screen,4_73_0,2023-05-02T19:54:59.177Z,,0,2,,4075.479999988107,response,ISIC_2879267.JPG,,ISIC_2096695.JPG,ISIC_2879267.JPG,false,1,keypress(m),500,365412.90000000596,365412.6999999881,361320.554,361335.6999999881,361337.22,365420.39,8,400,24,,ISIC_2096695.JPG
break,html.Screen,4_73_1,2023-05-02T19:54:59.177Z,,0,,,NaN,,,,,,false,,,,365413.6999999881,365413.40000000596,,365413.1999999881,,365420.39,8,400,,,
break_continue,html.Screen,4_73_2,2023-05-02T19:54:59.178Z,,0,,,NaN,,,,,,false,,,,365413.90000000596,365413.90000000596,,365413.7999999821,,365420.39,8,400,,,
sequence,flow.Sequence,4_73,2023-05-02T19:54:59.178Z,,0,,,4076.6800000059884,completion,,,,,false,,,,365414,365413.90000000596,361320.554,361335.6999999881,361337.22,365420.39,8,400,,,
trial,html.Screen,4_74_0,2023-05-02T19:55:03.426Z,,0,2,,4242.109999999986,response,ISIC_0072375.JPG,,ISIC_4067693.JPG,ISIC_0072375.JPG,false,1,keypress(m),500,369662.6999999881,369662.5,365403.724,365414.1999999881,365420.39,369670.742,8,400,25,,ISIC_4067693.JPG
break,html.Screen,4_74_1,2023-05-02T19:55:03.427Z,,0,,,NaN,,,,,,false,,,,369663.5,369663.2999999821,,369663,,369670.742,8,400,,,
break_continue,html.Screen,4_74_2,2023-05-02T19:55:03.427Z,,0,,,NaN,,,,,,false,,,,369663.6999999881,369663.59999999404,,369663.5,,369670.742,8,400,,,
sequence,flow.Sequence,4_74,2023-05-02T19:55:03.428Z,,0,,,4243.209999994026,completion,,,,,false,,,,369663.7999999821,369663.59999999404,365403.724,365414.09999999404,365420.39,369670.742,8,400,,,
trial,html.Screen,4_75_0,2023-05-02T19:55:08.647Z,,0,2,,5212.2579999999725,response,ISIC_0025708.JPG,,ISIC_0027238.JPG,ISIC_0025708.JPG,false,1,keypress(m),500,374883.1999999881,374883,369654.076,369663.90000000596,369670.742,374887.2,8,400,26,,ISIC_0027238.JPG
break,html.Screen,4_75_1,2023-05-02T19:55:08.648Z,,0,,,NaN,,,,,,false,,,,374884,374883.7999999821,,374883.5,,374887.2,8,400,,,
break_continue,html.Screen,4_75_2,2023-05-02T19:55:08.648Z,,0,,,NaN,,,,,,false,,,,374884.2999999821,374884.1999999881,,374884.09999999404,,374887.2,8,400,,,
sequence,flow.Sequence,4_75,2023-05-02T19:55:08.648Z,,0,,,5213.457999988052,completion,,,,,false,,,,374884.5,374884.1999999881,369654.076,369663.90000000596,369670.742,374887.2,8,400,,,
trial,html.Screen,4_76_0,2023-05-02T19:55:11.496Z,,0,2,,2844.7999999999884,response,ISIC_0072990.JPG,,ISIC_0024752.JPG,ISIC_0024752.JPG,false,0,keypress(z),500,377732.1999999881,377732,374870.534,374884.5,374887.2,377737.458,8,400,27,,ISIC_0072990.JPG
break,html.Screen,4_76_1,2023-05-02T19:55:11.497Z,,0,,,NaN,,,,,,false,,,,377733,377732.6999999881,,377732.40000000596,,377737.458,8,400,,,
break_continue,html.Screen,4_76_2,2023-05-02T19:55:11.497Z,,0,,,NaN,,,,,,false,,,,377733.1999999881,377733.09999999404,,377733,,377737.458,8,400,,,
sequence,flow.Sequence,4_76,2023-05-02T19:55:11.497Z,,0,,,2845.899999994028,completion,,,,,false,,,,377733.2999999821,377733.09999999404,374870.534,374884.5,374887.2,377737.458,8,400,,,
trial,html.Screen,4_77_0,2023-05-02T19:55:14.153Z,,0,2,,2651.241999988095,response,ISIC_7630831.JPG,,ISIC_0070805.JPG,ISIC_0070805.JPG,false,0,keypress(z),500,380388.7999999821,380388.6999999881,377720.792,377733.40000000596,377737.458,380404.018,8,400,28,,ISIC_7630831.JPG
break,html.Screen,4_77_1,2023-05-02T19:55:14.153Z,,0,,,NaN,,,,,,false,,,,380389.59999999404,380389.40000000596,,380389.09999999404,,380404.018,8,400,,,
break_continue,html.Screen,4_77_2,2023-05-02T19:55:14.154Z,,0,,,NaN,,,,,,false,,,,380389.90000000596,380389.7999999821,,380389.59999999404,,380404.018,8,400,,,
sequence,flow.Sequence,4_77,2023-05-02T19:55:14.154Z,,0,,,2652.3419999821344,completion,,,,,false,,,,380390,380389.7999999821,377720.792,377733.40000000596,377737.458,380404.018,8,400,,,
trial,html.Screen,4_78_0,2023-05-02T19:55:17.711Z,,0,2,,3543.1819999880972,response,ISIC_1109641.JPG,,ISIC_0010401.JPG,ISIC_0010401.JPG,false,0,keypress(z),500,383947.5,383947.1999999881,380387.352,380390.09999999404,380404.018,383953.876,8,400,29,,ISIC_1109641.JPG
break,html.Screen,4_78_1,2023-05-02T19:55:17.712Z,,0,,,NaN,,,,,,false,,,,383948.09999999404,383948,,383947.59999999404,,383953.876,8,400,,,
break_continue,html.Screen,4_78_2,2023-05-02T19:55:17.712Z,,0,,,NaN,,,,,,false,,,,383948.40000000596,383948.2999999821,,383948.1999999881,,383953.876,8,400,,,
sequence,flow.Sequence,4_78,2023-05-02T19:55:17.712Z,,0,,,3544.2819999821368,completion,,,,,false,,,,383948.59999999404,383948.2999999821,380387.352,380390.09999999404,380404.018,383953.876,8,400,,,
trial,html.Screen,4_79_0,2023-05-02T19:55:20.896Z,,0,2,,3177.82399998809,response,ISIC_0057539.JPG,,ISIC_0032960.JPG,ISIC_0057539.JPG,false,1,keypress(m),500,387131.90000000596,387131.6999999881,383937.21,383948.59999999404,383953.876,387137.382,8,400,30,,ISIC_0032960.JPG
break,html.Screen,4_79_1,2023-05-02T19:55:20.896Z,,0,,,NaN,,,,,,false,,,,387132.59999999404,387132.40000000596,,387132.09999999404,,387137.382,8,400,,,
break_continue,html.Screen,4_79_2,2023-05-02T19:55:20.897Z,,0,,,NaN,,,,,,false,,,,387132.90000000596,387132.6999999881,,387132.6999999881,,387137.382,8,400,,,
sequence,flow.Sequence,4_79,2023-05-02T19:55:20.897Z,,0,,,3178.82399998809,completion,,,,,false,,,,387133,387132.6999999881,383937.21,383948.59999999404,383953.876,387137.382,8,400,,,
trial,html.Screen,4_80_0,2023-05-02T19:55:25.673Z,,0,2,,4771.717999994056,response,ISIC_0016137.JPG,,ISIC_1797795.JPG,ISIC_0016137.JPG,false,1,keypress(m),500,391909.40000000596,391909.09999999404,387120.716,387133.09999999404,387137.382,391920.524,8,400,31,,ISIC_1797795.JPG
break,html.Screen,4_80_1,2023-05-02T19:55:25.674Z,,0,,,NaN,,,,,,false,,,,391910.09999999404,391909.90000000596,,391909.6999999881,,391920.524,8,400,,,
break_continue,html.Screen,4_80_2,2023-05-02T19:55:25.674Z,,0,,,NaN,,,,,,false,,,,391910.40000000596,391910.2999999821,,391910.1999999881,,391920.524,8,400,,,
sequence,flow.Sequence,4_80,2023-05-02T19:55:25.674Z,,0,,,4772.917999982135,completion,,,,,false,,,,391910.5,391910.2999999821,387120.716,387133,387137.382,391920.524,8,400,,,
trial,html.Screen,4_81_0,2023-05-02T19:55:28.831Z,,0,2,,3146.476000000024,response,ISIC_0059846.JPG,,ISIC_5722914.JPG,ISIC_0059846.JPG,false,1,keypress(m),500,395067.2999999821,395067,391903.858,391910.59999999404,391920.524,395070.398,8,400,32,,ISIC_5722914.JPG
break,html.Screen,4_81_1,2023-05-02T19:55:28.832Z,,0,,,NaN,,,,,,false,,,,395068,395067.6999999881,,395067.5,,395070.398,8,400,,,
break_continue,html.Screen,4_81_2,2023-05-02T19:55:28.832Z,,0,,,NaN,,,,,,false,,,,395068.1999999881,395068.1999999881,,395068,,395070.398,8,400,,,
sequence,flow.Sequence,4_81,2023-05-02T19:55:28.832Z,,0,,,3147.6759999881033,completion,,,,,false,,,,395068.2999999821,395068.1999999881,391903.858,391910.59999999404,391920.524,395070.398,8,400,,,
trial,html.Screen,4_82_0,2023-05-02T19:55:31.904Z,,0,2,,3069.401999982132,response,ISIC_4257634.JPG,,ISIC_8737794.JPG,ISIC_8737794.JPG,false,0,keypress(z),500,398140.09999999404,398139.7999999821,395053.732,395068.40000000596,395070.398,398154.204,8,400,33,,ISIC_4257634.JPG
break,html.Screen,4_82_1,2023-05-02T19:55:31.905Z,,0,,,NaN,,,,,,false,,,,398140.7999999821,398140.5,,398140.2999999821,,398154.204,8,400,,,
break_continue,html.Screen,4_82_2,2023-05-02T19:55:31.905Z,,0,,,NaN,,,,,,false,,,,398141,398141,,398140.7999999821,,398154.204,8,400,,,
sequence,flow.Sequence,4_82,2023-05-02T19:55:31.905Z,,0,,,3070.6020000000135,completion,,,,,false,,,,398141.1999999881,398141,395053.732,395068.40000000596,395070.398,398154.204,8,400,,,
trial,html.Screen,4_83_0,2023-05-02T19:55:34.640Z,,0,2,,2721.6960000059335,response,ISIC_0070313.JPG,,ISIC_4311777.JPG,ISIC_0070313.JPG,false,1,keypress(m),500,400876.1999999881,400875.90000000596,398137.538,398141.1999999881,398154.204,400887.428,8,400,34,,ISIC_4311777.JPG
break,html.Screen,4_83_1,2023-05-02T19:55:34.641Z,,0,,,NaN,,,,,,false,,,,400876.90000000596,400876.6999999881,,400876.40000000596,,400887.428,8,400,,,
break_continue,html.Screen,4_83_2,2023-05-02T19:55:34.641Z,,0,,,NaN,,,,,,false,,,,400877.1999999881,400877,,400877,,400887.428,8,400,,,
sequence,flow.Sequence,4_83,2023-05-02T19:55:34.641Z,,0,,,2722.795999999973,completion,,,,,false,,,,400877.2999999821,400877,398137.538,398141.1999999881,398154.204,400887.428,8,400,,,
trial,html.Screen,4_84_0,2023-05-02T19:55:39.211Z,,0,2,,4558.871999982104,response,ISIC_7369690.JPG,,ISIC_4574865.JPG,ISIC_7369690.JPG,false,1,keypress(m),500,405446.5,405446.2999999821,400870.762,400877.40000000596,400887.428,405453.912,8,400,35,,ISIC_4574865.JPG
break,html.Screen,4_84_1,2023-05-02T19:55:39.211Z,,0,,,NaN,,,,,,false,,,,405447.1999999881,405447.09999999404,,405446.7999999821,,405453.912,8,400,,,
break_continue,html.Screen,4_84_2,2023-05-02T19:55:39.212Z,,0,,,NaN,,,,,,false,,,,405447.40000000596,405447.40000000596,,405447.2999999821,,405453.912,8,400,,,
sequence,flow.Sequence,4_84,2023-05-02T19:55:39.212Z,,0,,,4559.972000005946,completion,,,,,false,,,,405447.5,405447.40000000596,400870.762,400877.2999999821,400887.428,405453.912,8,400,,,
trial,html.Screen,4_85_0,2023-05-02T19:55:42.514Z,,0,2,,3295.3879999821074,response,ISIC_7277310.JPG,,ISIC_3771332.JPG,ISIC_7277310.JPG,false,1,keypress(m),500,408749.59999999404,408749.2999999821,405437.246,405447.59999999404,405453.912,408754.069,8,400,36,,ISIC_3771332.JPG
break,html.Screen,4_85_1,2023-05-02T19:55:42.514Z,,0,,,NaN,,,,,,false,,,,408750.2999999821,408750.09999999404,,408749.90000000596,,408754.069,8,400,,,
break_continue,html.Screen,4_85_2,2023-05-02T19:55:42.515Z,,0,,,NaN,,,,,,false,,,,408750.59999999404,408750.40000000596,,408750.2999999821,,408754.069,8,400,,,
sequence,flow.Sequence,4_85,2023-05-02T19:55:42.515Z,,0,,,3296.4880000059493,completion,,,,,false,,,,408750.6999999881,408750.40000000596,405437.246,405447.59999999404,405453.912,408754.069,8,400,,,
trial,html.Screen,4_86_0,2023-05-02T19:55:46.490Z,,0,2,,3971.9309999999823,response,ISIC_0030994.JPG,,ISIC_0029470.JPG,ISIC_0030994.JPG,false,1,keypress(m),500,412726.1999999881,412726,408737.403,408750.7999999821,408754.069,412737.243,8,400,37,,ISIC_0029470.JPG
break,html.Screen,4_86_1,2023-05-02T19:55:46.491Z,,0,,,NaN,,,,,,false,,,,412726.90000000596,412726.7999999821,,412726.40000000596,,412737.243,8,400,,,
break_continue,html.Screen,4_86_2,2023-05-02T19:55:46.491Z,,0,,,NaN,,,,,,false,,,,412727.1999999881,412727.09999999404,,412727,,412737.243,8,400,,,
sequence,flow.Sequence,4_86,2023-05-02T19:55:46.491Z,,0,,,3973.030999994022,completion,,,,,false,,,,412727.2999999821,412727.09999999404,408737.403,408750.7999999821,408754.069,412737.243,8,400,,,
trial,html.Screen,4_87_0,2023-05-02T19:55:49.416Z,,0,2,,2914.4569999880623,response,ISIC_0011922.JPG,,ISIC_4322723.JPG,ISIC_0011922.JPG,false,1,keypress(m),500,415652,415651.6999999881,412720.577,412727.40000000596,412737.243,415653.793,8,400,38,,ISIC_4322723.JPG
break,html.Screen,4_87_1,2023-05-02T19:55:49.417Z,,0,,,NaN,,,,,,false,,,,415652.6999999881,415652.40000000596,,415652.09999999404,,415653.793,8,400,,,
break_continue,html.Screen,4_87_2,2023-05-02T19:55:49.417Z,,0,,,NaN,,,,,,false,,,,415652.90000000596,415652.7999999821,,415652.6999999881,,415653.793,8,400,,,
sequence,flow.Sequence,4_87,2023-05-02T19:55:49.417Z,,0,,,2915.556999982102,completion,,,,,false,,,,415653,415652.7999999821,412720.577,412727.40000000596,412737.243,415653.793,8,400,,,
trial,html.Screen,4_88_0,2023-05-02T19:55:52.665Z,,0,2,,3247.0069999821135,response,ISIC_5439597.JPG,,ISIC_0010551.JPG,ISIC_0010551.JPG,false,0,keypress(z),500,418901,418900.7999999821,415637.127,415653.1999999881,415653.793,418904.16,8,400,39,,ISIC_5439597.JPG
break,html.Screen,4_88_1,2023-05-02T19:55:52.666Z,,0,,,NaN,,,,,,false,,,,418901.6999999881,418901.5,,418901.2999999821,,418904.16,8,400,,,
break_continue,html.Screen,4_88_2,2023-05-02T19:55:52.666Z,,0,,,NaN,,,,,,false,,,,418901.90000000596,418901.90000000596,,418901.7999999821,,418904.16,8,400,,,
sequence,flow.Sequence,4_88,2023-05-02T19:55:52.666Z,,0,,,3248.1070000059553,completion,,,,,false,,,,418902,418901.90000000596,415637.127,415653.09999999404,415653.793,418904.16,8,400,,,
trial,html.Screen,4_89_0,2023-05-02T19:55:55.656Z,,0,2,,2987.139999982144,response,ISIC_9792592.JPG,,ISIC_9955163.JPG,ISIC_9955163.JPG,false,0,keypress(z),500,421891.59999999404,421891.2999999821,418887.494,418902.09999999404,418904.16,421904.04,8,400,40,,ISIC_9792592.JPG
break,html.Screen,4_89_1,2023-05-02T19:55:55.656Z,,0,,,NaN,,,,,,false,,,,421892.2999999821,421892,,421891.6999999881,,421904.04,8,400,,,
break_continue,html.Screen,4_89_2,2023-05-02T19:55:55.657Z,,0,,,NaN,,,,,,false,,,,421892.5,421892.40000000596,,421892.2999999821,,421904.04,8,400,,,
sequence,flow.Sequence,4_89,2023-05-02T19:55:55.657Z,,0,,,2988.240000005986,completion,,,,,false,,,,421892.59999999404,421892.40000000596,418887.494,418902.09999999404,418904.16,421904.04,8,400,,,
trial,html.Screen,4_90_0,2023-05-02T19:56:02.560Z,,0,2,,6892.0599999940605,response,ISIC_0024688.JPG,,ISIC_0009992.JPG,ISIC_0009992.JPG,false,0,keypress(z),500,428796.1999999881,428796.09999999404,421887.374,421892.6999999881,421904.04,428803.764,8,400,41,,ISIC_0024688.JPG
break,html.Screen,4_90_1,2023-05-02T19:56:02.561Z,,0,,,NaN,,,,,,false,,,,428796.59999999404,428796.5,,428796.40000000596,,428803.764,8,400,,,
break_continue,html.Screen,4_90_2,2023-05-02T19:56:02.561Z,,0,,,NaN,,,,,,false,,,,428796.90000000596,428796.7999999821,,428796.6999999881,,428803.764,8,400,,,
sequence,flow.Sequence,4_90,2023-05-02T19:56:02.561Z,,0,,,6892.75999998214,completion,,,,,false,,,,428797,428796.7999999821,421887.374,421892.59999999404,421904.04,428803.764,8,400,,,
trial,html.Screen,4_91_0,2023-05-02T19:56:06.442Z,,0,2,,3874.035999982094,response,ISIC_0033029.JPG,,ISIC_0008510.JPG,ISIC_0033029.JPG,false,1,keypress(m),500,432678,432677.7999999821,428787.098,428797,428803.764,432687.353,8,400,42,,ISIC_0008510.JPG
break,html.Screen,4_91_1,2023-05-02T19:56:06.443Z,,0,,,NaN,,,,,,false,,,,432678.6999999881,432678.59999999404,,432678.1999999881,,432687.353,8,400,,,
break_continue,html.Screen,4_91_2,2023-05-02T19:56:06.443Z,,0,,,NaN,,,,,,false,,,,432679,432678.90000000596,,432678.7999999821,,432687.353,8,400,,,
sequence,flow.Sequence,4_91,2023-05-02T19:56:06.443Z,,0,,,3875.136000005936,completion,,,,,false,,,,432679.09999999404,432678.90000000596,428787.098,428797,428803.764,432687.353,8,400,,,
trial,html.Screen,4_92_0,2023-05-02T19:56:10.401Z,,0,2,,3949.2469999940367,response,ISIC_0029902.JPG,,ISIC_0000294.JPG,ISIC_0000294.JPG,false,0,keypress(z),500,436636.7999999821,436636.59999999404,432670.687,432679.1999999881,432687.353,436653.861,8,400,43,,ISIC_0029902.JPG
break,html.Screen,4_92_1,2023-05-02T19:56:10.402Z,,0,,,NaN,,,,,,false,,,,436637.5,436637.2999999821,,436637,,436653.861,8,400,,,
break_continue,html.Screen,4_92_2,2023-05-02T19:56:10.402Z,,0,,,NaN,,,,,,false,,,,436637.6999999881,436637.6999999881,,436637.59999999404,,436653.861,8,400,,,
sequence,flow.Sequence,4_92,2023-05-02T19:56:10.402Z,,0,,,3950.3469999880763,completion,,,,,false,,,,436637.90000000596,436637.6999999881,432670.687,432679.1999999881,432687.353,436653.861,8,400,,,
trial,html.Screen,4_93_0,2023-05-02T19:56:18.650Z,,0,2,,8231.838999988104,response,ISIC_0000042.JPG,,ISIC_3568218.JPG,ISIC_0000042.JPG,false,1,keypress(m),500,444886,444885.6999999881,436637.195,436637.90000000596,436653.861,444887.306,8,400,44,,ISIC_3568218.JPG
break,html.Screen,4_93_1,2023-05-02T19:56:18.651Z,,0,,,NaN,,,,,,false,,,,444886.59999999404,444886.40000000596,,444886.1999999881,,444887.306,8,400,,,
break_continue,html.Screen,4_93_2,2023-05-02T19:56:18.651Z,,0,,,NaN,,,,,,false,,,,444886.90000000596,444886.7999999821,,444886.6999999881,,444887.306,8,400,,,
sequence,flow.Sequence,4_93,2023-05-02T19:56:18.651Z,,0,,,8232.938999982143,completion,,,,,false,,,,444887,444886.7999999821,436637.195,436637.90000000596,436653.861,444887.306,8,400,,,
trial,html.Screen,4_94_0,2023-05-02T19:56:21.889Z,,0,2,,3236.7939999940572,response,ISIC_9837030.JPG,,ISIC_0033923.JPG,ISIC_0033923.JPG,false,0,keypress(z),500,448124.2999999821,448124.09999999404,444870.64,444887.09999999404,444887.306,448137.176,8,400,45,,ISIC_9837030.JPG
break,html.Screen,4_94_1,2023-05-02T19:56:21.889Z,,0,,,NaN,,,,,,false,,,,448125,448124.7999999821,,448124.5,,448137.176,8,400,,,
break_continue,html.Screen,4_94_2,2023-05-02T19:56:21.890Z,,0,,,NaN,,,,,,false,,,,448125.1999999881,448125.09999999404,,448125,,448137.176,8,400,,,
sequence,flow.Sequence,4_94,2023-05-02T19:56:21.890Z,,0,,,3237.7939999940572,completion,,,,,false,,,,448125.2999999821,448125.09999999404,444870.64,444887.09999999404,444887.306,448137.176,8,400,,,
trial,html.Screen,4_95_0,2023-05-02T19:56:25.115Z,,0,2,,3212.8240000000224,response,ISIC_7785723.JPG,,ISIC_4076162.JPG,ISIC_4076162.JPG,false,0,keypress(z),500,451350.1999999881,451350,448120.51,448125.40000000596,448137.176,451353.714,8,400,46,,ISIC_7785723.JPG
break,html.Screen,4_95_1,2023-05-02T19:56:25.115Z,,0,,,NaN,,,,,,false,,,,451350.90000000596,451350.7999999821,,451350.5,,451353.714,8,400,,,
break_continue,html.Screen,4_95_2,2023-05-02T19:56:25.116Z,,0,,,NaN,,,,,,false,,,,451351.1999999881,451351,,451351,,451353.714,8,400,,,
sequence,flow.Sequence,4_95,2023-05-02T19:56:25.116Z,,0,,,3213.8240000000224,completion,,,,,false,,,,451351.2999999821,451351,448120.51,448125.40000000596,448137.176,451353.714,8,400,,,
trial,html.Screen,4_96_0,2023-05-02T19:56:30.242Z,,0,2,,5123.985999988101,response,ISIC_2391053.JPG,,ISIC_0061705.JPG,ISIC_0061705.JPG,false,0,keypress(z),500,456477.90000000596,456477.6999999881,451337.048,451351.2999999821,451353.714,456487.426,8,400,47,,ISIC_2391053.JPG
break,html.Screen,4_96_1,2023-05-02T19:56:30.243Z,,0,,,NaN,,,,,,false,,,,456478.59999999404,456478.40000000596,,456478.1999999881,,456487.426,8,400,,,
break_continue,html.Screen,4_96_2,2023-05-02T19:56:30.243Z,,0,,,NaN,,,,,,false,,,,456478.7999999821,456478.7999999821,,456478.6999999881,,456487.426,8,400,,,
sequence,flow.Sequence,4_96,2023-05-02T19:56:30.243Z,,0,,,5125.0859999821405,completion,,,,,false,,,,456478.90000000596,456478.7999999821,451337.048,451351.2999999821,451353.714,456487.426,8,400,,,
trial,html.Screen,4_97_0,2023-05-02T19:56:35.217Z,,0,2,,4964.474000005983,response,ISIC_0058206.JPG,,ISIC_0016137.JPG,ISIC_0058206.JPG,false,1,keypress(m),500,461452.1999999881,461451.90000000596,456470.76,456479.09999999404,456487.426,461470.56,8,400,48,,ISIC_0016137.JPG
break,html.Screen,4_97_1,2023-05-02T19:56:35.217Z,,0,,,NaN,,,,,,false,,,,461452.7999999821,461452.6999999881,,461452.40000000596,,461470.56,8,400,,,
break_continue,html.Screen,4_97_2,2023-05-02T19:56:35.218Z,,0,,,NaN,,,,,,false,,,,461453,461453,,461452.90000000596,,461470.56,8,400,,,
sequence,flow.Sequence,4_97,2023-05-02T19:56:35.218Z,,0,,,4965.574000000022,completion,,,,,false,,,,461453.09999999404,461453,456470.76,456479,456487.426,461470.56,8,400,,,
trial,html.Screen,4_98_0,2023-05-02T19:56:43.376Z,,0,2,,8140.539999994042,response,ISIC_0015115.JPG,,ISIC_0014826.JPG,ISIC_0015115.JPG,false,1,keypress(m),500,469611.2999999821,469611.09999999404,461453.894,461453.2999999821,461470.56,469620.624,8,400,49,,ISIC_0014826.JPG
break,html.Screen,4_98_1,2023-05-02T19:56:43.377Z,,0,,,NaN,,,,,,false,,,,469612,469611.7999999821,,469611.5,,469620.624,8,400,,,
break_continue,html.Screen,4_98_2,2023-05-02T19:56:43.377Z,,0,,,NaN,,,,,,false,,,,469612.1999999881,469612.09999999404,,469612.09999999404,,469620.624,8,400,,,
sequence,flow.Sequence,4_98,2023-05-02T19:56:43.377Z,,0,,,8141.539999994042,completion,,,,,false,,,,469612.2999999821,469612.09999999404,461453.894,461453.1999999881,461470.56,469620.624,8,400,,,
trial,html.Screen,4_99_0,2023-05-02T19:56:49.346Z,,0,2,,5960.075999988068,response,ISIC_0011169.JPG,,ISIC_4958006.JPG,ISIC_4958006.JPG,false,0,keypress(z),500,475580.90000000596,475580.6999999881,469603.958,469612.40000000596,469620.624,475587.052,8,400,50,,ISIC_0011169.JPG
break,html.Screen,4_99_1,2023-05-02T19:56:54.337Z,,0,,,4999.799999999988,timeout,,,,,false,,,,480572.09999999404,480570.186,475570.386,475581.1999999881,475587.052,480586.852,8,400,,,
break_continue,html.Screen,4_99_2,2023-05-02T19:56:55.002Z,,0,,,636.8479999880656,response,,,,,false,continue,keypress(Space),,481236.7999999821,481223.6999999881,480570.186,480572.09999999404,480586.852,481253.492,8,400,,,
sequence,flow.Sequence,4_99,2023-05-02T19:56:55.002Z,,0,,,11603.075999988068,completion,,,,,false,,,,481236.90000000596,481223.6999999881,469603.958,469612.2999999821,469620.624,481253.492,8,400,,,
trial,html.Screen,4_100_0,2023-05-02T19:56:58.624Z,,0,3,,3605.307999982091,response,ISIC_0025458.JPG,,ISIC_0000482.JPG,ISIC_0025458.JPG,false,1,keypress(m),500,484859,484858.7999999821,481236.826,481237,481253.492,484870.014,8,400,1,,ISIC_0000482.JPG
break,html.Screen,4_100_1,2023-05-02T19:56:58.624Z,,0,,,NaN,,,,,,false,,,,484859.6999999881,484859.5,,484859.1999999881,,484870.014,8,400,,,
break_continue,html.Screen,4_100_2,2023-05-02T19:56:58.625Z,,0,,,NaN,,,,,,false,,,,484859.90000000596,484859.90000000596,,484859.7999999821,,484870.014,8,400,,,
sequence,flow.Sequence,4_100,2023-05-02T19:56:58.625Z,,0,,,3606.408000005933,completion,,,,,false,,,,484859.90000000596,484859.90000000596,481236.826,481237,481253.492,484870.014,8,400,,,
trial,html.Screen,4_101_0,2023-05-02T19:57:02.194Z,,0,3,,3558.6859999880544,response,ISIC_0063157.JPG,,ISIC_5281576.JPG,ISIC_0063157.JPG,false,1,keypress(m),500,488429,488428.6999999881,484853.348,484860,484870.014,488436.538,8,400,2,,ISIC_5281576.JPG
break,html.Screen,4_101_1,2023-05-02T19:57:02.194Z,,0,,,NaN,,,,,,false,,,,488429.59999999404,488429.5,,488429.09999999404,,488436.538,8,400,,,
break_continue,html.Screen,4_101_2,2023-05-02T19:57:02.195Z,,0,,,NaN,,,,,,false,,,,488429.7999999821,488429.6999999881,,488429.6999999881,,488436.538,8,400,,,
sequence,flow.Sequence,4_101,2023-05-02T19:57:02.195Z,,0,,,3559.6859999880544,completion,,,,,false,,,,488429.90000000596,488429.6999999881,484853.348,484860,484870.014,488436.538,8,400,,,
trial,html.Screen,4_102_0,2023-05-02T19:57:05.121Z,,0,3,,2919.761999982118,response,ISIC_6446779.JPG,,ISIC_0057656.JPG,ISIC_0057656.JPG,false,0,keypress(z),500,491356.59999999404,491356.2999999821,488419.872,488430,488436.538,491370.661,8,400,3,,ISIC_6446779.JPG
break,html.Screen,4_102_1,2023-05-02T19:57:05.122Z,,0,,,NaN,,,,,,false,,,,491357.1999999881,491357,,491356.7999999821,,491370.661,8,400,,,
break_continue,html.Screen,4_102_2,2023-05-02T19:57:05.122Z,,0,,,NaN,,,,,,false,,,,491357.5,491357.40000000596,,491357.40000000596,,491370.661,8,400,,,
sequence,flow.Sequence,4_102,2023-05-02T19:57:05.122Z,,0,,,2920.86200000596,completion,,,,,false,,,,491357.59999999404,491357.40000000596,488419.872,488430,488436.538,491370.661,8,400,,,
trial,html.Screen,4_103_0,2023-05-02T19:57:07.979Z,,0,3,,2843.2390000059386,response,ISIC_2507845.JPG,,ISIC_4425657.JPG,ISIC_2507845.JPG,false,1,keypress(m),500,494214.1999999881,494213.90000000596,491353.995,491357.6999999881,491370.661,494220.547,8,400,4,,ISIC_4425657.JPG
break,html.Screen,4_103_1,2023-05-02T19:57:07.980Z,,0,,,NaN,,,,,,false,,,,494214.7999999821,494214.6999999881,,494214.40000000596,,494220.547,8,400,,,
break_continue,html.Screen,4_103_2,2023-05-02T19:57:07.980Z,,0,,,NaN,,,,,,false,,,,494215,494215,,494215,,494220.547,8,400,,,
sequence,flow.Sequence,4_103,2023-05-02T19:57:07.980Z,,0,,,2844.338999999978,completion,,,,,false,,,,494215.1999999881,494215,491353.995,491357.6999999881,491370.661,494220.547,8,400,,,
trial,html.Screen,4_104_0,2023-05-02T19:57:10.930Z,,0,3,,2944.6529999880586,response,ISIC_5005869.JPG,,ISIC_0064125.JPG,ISIC_0064125.JPG,false,0,keypress(z),500,497165.5,497165.1999999881,494203.881,494215.2999999821,494220.547,497170.429,8,400,5,,ISIC_5005869.JPG
break,html.Screen,4_104_1,2023-05-02T19:57:10.931Z,,0,,,NaN,,,,,,false,,,,497166.09999999404,497165.90000000596,,497165.59999999404,,497170.429,8,400,,,
break_continue,html.Screen,4_104_2,2023-05-02T19:57:10.931Z,,0,,,NaN,,,,,,false,,,,497166.2999999821,497166.2999999821,,497166.1999999881,,497170.429,8,400,,,
sequence,flow.Sequence,4_104,2023-05-02T19:57:10.931Z,,0,,,2945.752999982098,completion,,,,,false,,,,497166.5,497166.2999999821,494203.881,494215.2999999821,494220.547,497170.429,8,400,,,
trial,html.Screen,4_105_0,2023-05-02T19:57:13.547Z,,0,3,,2611.5709999999963,response,ISIC_6991849.JPG,,ISIC_3736075.JPG,ISIC_6991849.JPG,false,1,keypress(m),500,499782.2999999821,499782,497153.763,497166.5,497170.429,499786.991,8,400,6,,ISIC_3736075.JPG
break,html.Screen,4_105_1,2023-05-02T19:57:13.548Z,,0,,,NaN,,,,,,false,,,,499782.90000000596,499782.6999999881,,499782.40000000596,,499786.991,8,400,,,
break_continue,html.Screen,4_105_2,2023-05-02T19:57:13.548Z,,0,,,NaN,,,,,,false,,,,499783.09999999404,499783.09999999404,,499783,,499786.991,8,400,,,
sequence,flow.Sequence,4_105,2023-05-02T19:57:13.548Z,,0,,,2612.670999994036,completion,,,,,false,,,,499783.2999999821,499783.09999999404,497153.763,497166.5,497170.429,499786.991,8,400,,,
trial,html.Screen,4_106_0,2023-05-02T19:57:17.008Z,,0,3,,3456.1089999940596,response,ISIC_0067857.JPG,,ISIC_9348809.JPG,ISIC_0067857.JPG,false,1,keypress(m),500,503243.2999999821,503243.09999999404,499770.325,499783.2999999821,499786.991,503253.924,8,400,7,,ISIC_9348809.JPG
break,html.Screen,4_106_1,2023-05-02T19:57:17.009Z,,0,,,NaN,,,,,,false,,,,503244,503243.7999999821,,503243.5,,503253.924,8,400,,,
break_continue,html.Screen,4_106_2,2023-05-02T19:57:17.009Z,,0,,,NaN,,,,,,false,,,,503244.1999999881,503244.09999999404,,503244.09999999404,,503253.924,8,400,,,
sequence,flow.Sequence,4_106,2023-05-02T19:57:17.009Z,,0,,,3457.1089999940596,completion,,,,,false,,,,503244.40000000596,503244.09999999404,499770.325,499783.2999999821,499786.991,503253.924,8,400,,,
trial,html.Screen,4_107_0,2023-05-02T19:57:20.305Z,,0,3,,3285.8759999821195,response,ISIC_0062997.JPG,,ISIC_2029418.JPG,ISIC_0062997.JPG,false,1,keypress(m),500,506540.09999999404,506539.7999999821,503237.258,503244.40000000596,503253.924,506553.792,8,400,8,,ISIC_2029418.JPG
break,html.Screen,4_107_1,2023-05-02T19:57:20.306Z,,0,,,NaN,,,,,,false,,,,506540.6999999881,506540.59999999404,,506540.1999999881,,506553.792,8,400,,,
break_continue,html.Screen,4_107_2,2023-05-02T19:57:20.306Z,,0,,,NaN,,,,,,false,,,,506540.90000000596,506540.90000000596,,506540.7999999821,,506553.792,8,400,,,
sequence,flow.Sequence,4_107,2023-05-02T19:57:20.306Z,,0,,,3286.9760000059614,completion,,,,,false,,,,506541,506540.90000000596,503237.258,503244.40000000596,503253.924,506553.792,8,400,,,
trial,html.Screen,4_108_0,2023-05-02T19:57:23.121Z,,0,3,,2801.9079999880632,response,ISIC_0010834.JPG,,ISIC_0071208.JPG,ISIC_0010834.JPG,false,1,keypress(m),500,509355.90000000596,509355.6999999881,506537.126,506541.09999999404,506553.792,509370.346,8,400,9,,ISIC_0071208.JPG
break,html.Screen,4_108_1,2023-05-02T19:57:23.122Z,,0,,,NaN,,,,,,false,,,,509356.59999999404,509356.40000000596,,509356.09999999404,,509370.346,8,400,,,
break_continue,html.Screen,4_108_2,2023-05-02T19:57:23.122Z,,0,,,NaN,,,,,,false,,,,509356.7999999821,509356.6999999881,,509356.6999999881,,509370.346,8,400,,,
sequence,flow.Sequence,4_108,2023-05-02T19:57:23.122Z,,0,,,2802.9079999880632,completion,,,,,false,,,,509356.90000000596,509356.6999999881,506537.126,506541.09999999404,506553.792,509370.346,8,400,,,
trial,html.Screen,4_109_0,2023-05-02T19:57:25.842Z,,0,3,,2706.3539999880595,response,ISIC_1009042.JPG,,ISIC_5718805.JPG,ISIC_1009042.JPG,false,1,keypress(m),500,512077.09999999404,512076.6999999881,509353.68,509357,509370.346,512087.319,8,400,10,,ISIC_5718805.JPG
break,html.Screen,4_109_1,2023-05-02T19:57:25.843Z,,0,,,NaN,,,,,,false,,,,512077.6999999881,512077.40000000596,,512077.1999999881,,512087.319,8,400,,,
break_continue,html.Screen,4_109_2,2023-05-02T19:57:25.843Z,,0,,,NaN,,,,,,false,,,,512077.90000000596,512077.7999999821,,512077.7999999821,,512087.319,8,400,,,
sequence,flow.Sequence,4_109,2023-05-02T19:57:25.843Z,,0,,,2707.453999982099,completion,,,,,false,,,,512078,512077.7999999821,509353.68,509357,509370.346,512087.319,8,400,,,
trial,html.Screen,4_110_0,2023-05-02T19:57:28.577Z,,0,3,,2724.3809999880614,response,ISIC_0046683.JPG,,ISIC_2228511.JPG,ISIC_0046683.JPG,false,1,keypress(m),500,514811.7999999821,514811.6999999881,512070.653,512078.09999999404,512087.319,514820.543,8,400,11,,ISIC_2228511.JPG
break,html.Screen,4_110_1,2023-05-02T19:57:28.578Z,,0,,,NaN,,,,,,false,,,,514812.59999999404,514812.40000000596,,514812.09999999404,,514820.543,8,400,,,
break_continue,html.Screen,4_110_2,2023-05-02T19:57:28.578Z,,0,,,NaN,,,,,,false,,,,514812.90000000596,514812.6999999881,,514812.6999999881,,514820.543,8,400,,,
sequence,flow.Sequence,4_110,2023-05-02T19:57:28.578Z,,0,,,2725.3809999880614,completion,,,,,false,,,,514812.90000000596,514812.6999999881,512070.653,512078.09999999404,512087.319,514820.543,8,400,,,
trial,html.Screen,4_111_0,2023-05-02T19:57:31.561Z,,0,3,,2975.656999988074,response,ISIC_5510604.JPG,,ISIC_0032766.JPG,ISIC_0032766.JPG,false,0,keypress(z),500,517796.40000000596,517796.1999999881,514803.877,514813,514820.543,517803.757,8,400,12,,ISIC_5510604.JPG
break,html.Screen,4_111_1,2023-05-02T19:57:31.562Z,,0,,,NaN,,,,,,false,,,,517797.09999999404,517796.90000000596,,517796.59999999404,,517803.757,8,400,,,
break_continue,html.Screen,4_111_2,2023-05-02T19:57:31.562Z,,0,,,NaN,,,,,,false,,,,517797.2999999821,517797.1999999881,,517797.09999999404,,517803.757,8,400,,,
sequence,flow.Sequence,4_111,2023-05-02T19:57:31.562Z,,0,,,2976.656999988074,completion,,,,,false,,,,517797.40000000596,517797.1999999881,514803.877,514813,514820.543,517803.757,8,400,,,
trial,html.Screen,4_112_0,2023-05-02T19:57:34.115Z,,0,3,,2546.2430000000168,response,ISIC_0014974.JPG,,ISIC_6737771.JPG,ISIC_0014974.JPG,false,1,keypress(m),500,520350.1999999881,520350,517787.091,517797.5,517803.757,520353.655,8,400,13,,ISIC_6737771.JPG
break,html.Screen,4_112_1,2023-05-02T19:57:34.116Z,,0,,,NaN,,,,,,false,,,,520350.90000000596,520350.6999999881,,520350.40000000596,,520353.655,8,400,,,
break_continue,html.Screen,4_112_2,2023-05-02T19:57:34.116Z,,0,,,NaN,,,,,,false,,,,520351.1999999881,520351.09999999404,,520351,,520353.655,8,400,,,
sequence,flow.Sequence,4_112,2023-05-02T19:57:34.116Z,,0,,,2547.3429999940563,completion,,,,,false,,,,520351.2999999821,520351.09999999404,517787.091,517797.40000000596,517803.757,520353.655,8,400,,,
trial,html.Screen,4_113_0,2023-05-02T19:57:37.137Z,,0,3,,3017.844999999972,response,ISIC_3914140.JPG,,ISIC_6761269.JPG,ISIC_3914140.JPG,false,1,keypress(m),500,523371.6999999881,523371.5,520336.989,520351.40000000596,520353.655,523386.867,8,400,14,,ISIC_6761269.JPG
break,html.Screen,4_113_1,2023-05-02T19:57:37.138Z,,0,,,NaN,,,,,,false,,,,523372.40000000596,523372.1999999881,,523371.90000000596,,523386.867,8,400,,,
break_continue,html.Screen,4_113_2,2023-05-02T19:57:37.138Z,,0,,,NaN,,,,,,false,,,,523372.6999999881,523372.59999999404,,523372.5,,523386.867,8,400,,,
sequence,flow.Sequence,4_113,2023-05-02T19:57:37.138Z,,0,,,3018.9449999940116,completion,,,,,false,,,,523372.7999999821,523372.59999999404,520336.989,520351.40000000596,520353.655,523386.867,8,400,,,
trial,html.Screen,4_114_0,2023-05-02T19:57:44.460Z,,0,3,,7307.232999994012,response,ISIC_0032441.JPG,,ISIC_0064692.JPG,ISIC_0032441.JPG,false,1,keypress(m),500,530694.400000006,530694.099999994,523370.201,523372.90000000596,523386.867,530703.241,8,400,15,,ISIC_0064692.JPG
break,html.Screen,4_114_1,2023-05-02T19:57:44.460Z,,0,,,NaN,,,,,,false,,,,530695,530694.7999999821,,530694.599999994,,530703.241,8,400,,,
break_continue,html.Screen,4_114_2,2023-05-02T19:57:44.460Z,,0,,,NaN,,,,,,false,,,,530695.2999999821,530695.099999994,,530695.099999994,,530703.241,8,400,,,
sequence,flow.Sequence,4_114,2023-05-02T19:57:44.461Z,,0,,,7308.232999994012,completion,,,,,false,,,,530695.2999999821,530695.099999994,523370.201,523372.90000000596,523386.867,530703.241,8,400,,,
trial,html.Screen,4_115_0,2023-05-02T19:57:48.036Z,,0,3,,3566.8589999940014,response,ISIC_0029761.JPG,,ISIC_1105263.JPG,ISIC_0029761.JPG,false,1,keypress(m),500,534270.400000006,534270.099999994,530686.575,530695.400000006,530703.241,534287.177,8,400,16,,ISIC_1105263.JPG
break,html.Screen,4_115_1,2023-05-02T19:57:48.036Z,,0,,,NaN,,,,,,false,,,,534271.099999994,534270.900000006,,534270.599999994,,534287.177,8,400,,,
break_continue,html.Screen,4_115_2,2023-05-02T19:57:48.037Z,,0,,,NaN,,,,,,false,,,,534271.2999999821,534271.1999999881,,534271.1999999881,,534287.177,8,400,,,
sequence,flow.Sequence,4_115,2023-05-02T19:57:48.037Z,,0,,,3567.958999988041,completion,,,,,false,,,,534271.400000006,534271.1999999881,530686.575,530695.400000006,530703.241,534287.177,8,400,,,
trial,html.Screen,4_116_0,2023-05-02T19:57:50.658Z,,0,3,,2605.522999988054,response,ISIC_7799968.JPG,,ISIC_8023705.JPG,ISIC_8023705.JPG,false,0,keypress(z),500,536892.900000006,536892.6999999881,534270.511,534271.5,534287.177,536903.739,8,400,17,,ISIC_7799968.JPG
break,html.Screen,4_116_1,2023-05-02T19:57:50.659Z,,0,,,NaN,,,,,,false,,,,536893.599999994,536893.400000006,,536893,,536903.739,8,400,,,
break_continue,html.Screen,4_116_2,2023-05-02T19:57:50.659Z,,0,,,NaN,,,,,,false,,,,536893.7999999821,536893.6999999881,,536893.6999999881,,536903.739,8,400,,,
sequence,flow.Sequence,4_116,2023-05-02T19:57:50.659Z,,0,,,2606.522999988054,completion,,,,,false,,,,536894,536893.6999999881,534270.511,534271.5,534287.177,536903.739,8,400,,,
trial,html.Screen,4_117_0,2023-05-02T19:57:53.185Z,,0,3,,2515.960999988136,response,ISIC_0033016.JPG,,ISIC_0025592.JPG,ISIC_0033016.JPG,false,1,keypress(m),500,539420,539419.6999999881,536887.073,536894,536903.739,539436.971,8,400,18,,ISIC_0025592.JPG
break,html.Screen,4_117_1,2023-05-02T19:57:53.186Z,,0,,,NaN,,,,,,false,,,,539420.6999999881,539420.5,,539420.099999994,,539436.971,8,400,,,
break_continue,html.Screen,4_117_2,2023-05-02T19:57:53.186Z,,0,,,NaN,,,,,,false,,,,539420.900000006,539420.900000006,,539420.6999999881,,539436.971,8,400,,,
sequence,flow.Sequence,4_117,2023-05-02T19:57:53.186Z,,0,,,2517.1610000060173,completion,,,,,false,,,,539421,539420.900000006,536887.073,536894,536903.739,539436.971,8,400,,,
trial,html.Screen,4_118_0,2023-05-02T19:57:55.802Z,,0,3,,2599.328999982099,response,ISIC_0031625.JPG,,ISIC_8724944.JPG,ISIC_8724944.JPG,false,0,keypress(z),500,542036.5,542036.2999999821,539420.305,539421.099999994,539436.971,542037.09,8,400,19,,ISIC_0031625.JPG
break,html.Screen,4_118_1,2023-05-02T19:57:55.802Z,,0,,,NaN,,,,,,false,,,,542036.900000006,542036.6999999881,,542036.5,,542037.09,8,400,,,
break_continue,html.Screen,4_118_2,2023-05-02T19:57:55.802Z,,0,,,NaN,,,,,,false,,,,542037.099999994,542037,,542036.900000006,,542037.09,8,400,,,
sequence,flow.Sequence,4_118,2023-05-02T19:57:55.803Z,,0,,,2600.0289999999804,completion,,,,,false,,,,542037.1999999881,542037,539420.305,539421.099999994,539436.971,542037.09,8,400,,,
trial,html.Screen,4_119_0,2023-05-02T19:57:58.681Z,,0,3,,2878.1099999881117,response,ISIC_6496765.JPG,,ISIC_0064557.JPG,ISIC_0064557.JPG,false,0,keypress(z),500,544915.5,544915.1999999881,542020.424,542037.400000006,542037.09,544920.308,8,400,20,,ISIC_6496765.JPG
break,html.Screen,4_119_1,2023-05-02T19:57:58.682Z,,0,,,NaN,,,,,,false,,,,544916.1999999881,544916,,544915.6999999881,,544920.308,8,400,,,
break_continue,html.Screen,4_119_2,2023-05-02T19:57:58.682Z,,0,,,NaN,,,,,,false,,,,544916.400000006,544916.400000006,,544916.2999999821,,544920.308,8,400,,,
sequence,flow.Sequence,4_119,2023-05-02T19:57:58.682Z,,0,,,2879.310000005993,completion,,,,,false,,,,544916.599999994,544916.400000006,542020.424,542037.2999999821,542037.09,544920.308,8,400,,,
trial,html.Screen,4_120_0,2023-05-02T19:58:08.330Z,,0,3,,9643.592000006,response,ISIC_8363485.JPG,,ISIC_0061559.JPG,ISIC_0061559.JPG,false,0,keypress(z),500,554564.099999994,554563.900000006,544903.642,544916.6999999881,544920.308,554570.606,8,400,21,,ISIC_8363485.JPG
break,html.Screen,4_120_1,2023-05-02T19:58:08.330Z,,0,,,NaN,,,,,,false,,,,554564.900000006,554564.599999994,,554564.2999999821,,554570.606,8,400,,,
break_continue,html.Screen,4_120_2,2023-05-02T19:58:08.330Z,,0,,,NaN,,,,,,false,,,,554565.099999994,554565,,554564.900000006,,554570.606,8,400,,,
sequence,flow.Sequence,4_120,2023-05-02T19:58:08.331Z,,0,,,9644.69200000004,completion,,,,,false,,,,554565.1999999881,554565,544903.642,544916.6999999881,544920.308,554570.606,8,400,,,
trial,html.Screen,4_121_0,2023-05-02T19:58:11.025Z,,0,3,,2688.4939999940107,response,ISIC_7134821.JPG,,ISIC_5557806.JPG,ISIC_5557806.JPG,false,0,keypress(z),500,557259.099999994,557259.099999994,554553.94,554565.2999999821,554570.606,557270.498,8,400,22,,ISIC_7134821.JPG
break,html.Screen,4_121_1,2023-05-02T19:58:11.025Z,,0,,,NaN,,,,,,false,,,,557259.400000006,557259.400000006,,557259.1999999881,,557270.498,8,400,,,
break_continue,html.Screen,4_121_2,2023-05-02T19:58:11.025Z,,0,,,NaN,,,,,,false,,,,557259.5,557259.5,,557259.400000006,,557270.498,8,400,,,
sequence,flow.Sequence,4_121,2023-05-02T19:58:11.025Z,,0,,,2688.893999999971,completion,,,,,false,,,,557259.599999994,557259.5,554553.94,554565.2999999821,554570.606,557270.498,8,400,,,
trial,html.Screen,4_122_0,2023-05-02T19:58:14.289Z,,0,3,,3252.7019999880577,response,ISIC_0030974.JPG,,ISIC_0070250.JPG,ISIC_0070250.JPG,false,0,keypress(z),500,560523.2999999821,560523.1999999881,557253.832,557259.599999994,557270.498,560537.034,8,400,23,,ISIC_0030974.JPG
break,html.Screen,4_122_1,2023-05-02T19:58:14.289Z,,0,,,NaN,,,,,,false,,,,560523.6999999881,560523.599999994,,560523.5,,560537.034,8,400,,,
break_continue,html.Screen,4_122_2,2023-05-02T19:58:14.289Z,,0,,,NaN,,,,,,false,,,,560524,560523.900000006,,560523.7999999821,,560537.034,8,400,,,
sequence,flow.Sequence,4_122,2023-05-02T19:58:14.290Z,,0,,,3253.402000005939,completion,,,,,false,,,,560524.099999994,560523.900000006,557253.832,557259.599999994,557270.498,560537.034,8,400,,,
trial,html.Screen,4_123_0,2023-05-02T19:58:17.026Z,,0,3,,2723.165999988094,response,ISIC_0030129.JPG,,ISIC_0016014.JPG,ISIC_0030129.JPG,false,1,keypress(m),500,563260.5,563260.1999999881,560520.368,560524.1999999881,560537.034,563270.258,8,400,24,,ISIC_0016014.JPG
break,html.Screen,4_123_1,2023-05-02T19:58:17.027Z,,0,,,NaN,,,,,,false,,,,563261.1999999881,563261,,563260.6999999881,,563270.258,8,400,,,
break_continue,html.Screen,4_123_2,2023-05-02T19:58:17.027Z,,0,,,NaN,,,,,,false,,,,563261.400000006,563261.400000006,,563261.1999999881,,563270.258,8,400,,,
sequence,flow.Sequence,4_123,2023-05-02T19:58:17.027Z,,0,,,2724.3660000059754,completion,,,,,false,,,,563261.5,563261.400000006,560520.368,560524.099999994,560537.034,563270.258,8,400,,,
trial,html.Screen,4_124_0,2023-05-02T19:58:20.353Z,,0,3,,3317.041999982088,response,ISIC_2502558.JPG,,ISIC_2753279.JPG,ISIC_2753279.JPG,false,0,keypress(z),500,566587.5,566587.2999999821,563253.592,563261.599999994,563270.258,566603.784,8,400,25,,ISIC_2502558.JPG
break,html.Screen,4_124_1,2023-05-02T19:58:20.354Z,,0,,,NaN,,,,,,false,,,,566588.1999999881,566588,,566587.7999999821,,566603.784,8,400,,,
break_continue,html.Screen,4_124_2,2023-05-02T19:58:20.354Z,,0,,,NaN,,,,,,false,,,,566588.400000006,566588.400000006,,566588.2999999821,,566603.784,8,400,,,
sequence,flow.Sequence,4_124,2023-05-02T19:58:20.354Z,,0,,,3318.1420000059297,completion,,,,,false,,,,566588.5,566588.400000006,563253.592,563261.599999994,563270.258,566603.784,8,400,,,
trial,html.Screen,4_125_0,2023-05-02T19:58:23.209Z,,0,3,,2839.3159999940544,response,ISIC_0034107.JPG,,ISIC_0006754.JPG,ISIC_0034107.JPG,false,1,keypress(m),500,569443.400000006,569443.099999994,566587.118,566588.6999999881,566603.784,569453.67,8,400,26,,ISIC_0006754.JPG
break,html.Screen,4_125_1,2023-05-02T19:58:23.210Z,,0,,,NaN,,,,,,false,,,,569444,569443.7999999821,,569443.599999994,,569453.67,8,400,,,
break_continue,html.Screen,4_125_2,2023-05-02T19:58:23.210Z,,0,,,NaN,,,,,,false,,,,569444.2999999821,569444.099999994,,569444.099999994,,569453.67,8,400,,,
sequence,flow.Sequence,4_125,2023-05-02T19:58:23.210Z,,0,,,2840.3159999940544,completion,,,,,false,,,,569444.2999999821,569444.099999994,566587.118,566588.599999994,566603.784,569453.67,8,400,,,
