sender,sender_type,sender_id,timestamp,meta,,blockNo,condition,duration,ended_on,img_left,img_reveal,img_right,loser,practice,response,response_action,selection_duration,time_commit,time_end,time_render,time_run,time_show,time_switch,total_blocks,total_trials,trialNo,url,winner
informed_consent,html.Screen,0,2023-11-01T15:46:37.639Z,"{""labjs_version"":""20.2.4"",""labjs_build"":{""flavor"":""production"",""commit"":""f5b4a49f956347addd546a832a3327688c2c0fef""},""location"":""https://run.pavlovia.org/MurrayBennett/melanoma-2afc/?participant=66160&platform=sona"",""userAgent"":""Mozilla/5.0 (Macintosh; Intel Mac OS X 10_15_7) AppleWebKit/605.1.15 (KHTML, like Gecko) Version/16.3 Safari/605.1.15"",""platform"":""MacIntel"",""language"":""en-US"",""locale"":""en-US"",""timeZone"":""America/Chicago"",""timezoneOffset"":300,""screen_width"":1440,""screen_height"":900,""scroll_width"":1440,""scroll_height"":772,""window_innerWidth"":1440,""window_innerHeight"":820,""devicePixelRatio"":2}",,,,4006,response,,,,,,consent,click button,,6183,6224,2218,2214,2241,6210,,,,"{""participant"":""66160"",""platform"":""sona""}",
Welcome,html.Screen,1,2023-11-01T15:47:48.273Z,,,,uniform,70667,response,,,,,,continue,click button,,76818,76861,6194,6183,6210,76845,,,,,
trial,html.Screen,2_0_0,2023-11-01T15:47:55.002Z,,0,0,,6718,response,ISIC_0025593.JPG,,ISIC_0063388.JPG,ISIC_0063388.JPG,true,0,keypress(z),500,83547,83546,76828,76818,76845,83579,1,6,1,,ISIC_0025593.JPG
sequence,flow.Sequence,2_0,2023-11-01T15:47:55.003Z,,0,,,6701,completion,,,,,true,,,,83548,83546,76828,76818,76845,83579,1,6,,,
trial,html.Screen,2_1_0,2023-11-01T15:47:58.944Z,,0,0,,3927,response,ISIC_1309015.JPG,,ISIC_0028178.JPG,ISIC_1309015.JPG,true,1,keypress(m),500,87490,87489,83562,83549,83579,87512,1,6,2,,ISIC_0028178.JPG
sequence,flow.Sequence,2_1,2023-11-01T15:47:58.945Z,,0,,,3910,completion,,,,,true,,,,87491,87489,83562,83548,83579,87512,1,6,,,
trial,html.Screen,2_2_0,2023-11-01T15:48:03.203Z,,0,0,,4253,response,ISIC_0031128.JPG,,ISIC_3314853.JPG,ISIC_0031128.JPG,true,1,keypress(m),500,91748,91748,87495,87491,87512,91779,1,6,3,,ISIC_3314853.JPG
sequence,flow.Sequence,2_2,2023-11-01T15:48:03.203Z,,0,,,4236,completion,,,,,true,,,,91749,91748,87495,87491,87512,91779,1,6,,,
trial,html.Screen,2_3_0,2023-11-01T15:48:06.878Z,,0,0,,3660,response,ISIC_8980141.JPG,,ISIC_0031612.JPG,ISIC_0031612.JPG,true,0,keypress(z),500,95424,95423,91763,91749,91779,95446,1,6,4,,ISIC_8980141.JPG
sequence,flow.Sequence,2_3,2023-11-01T15:48:06.878Z,,0,,,3644,completion,,,,,true,,,,95424,95423,91763,91749,91779,95446,1,6,,,
trial,html.Screen,2_4_0,2023-11-01T15:48:10.329Z,,0,0,,3445,response,ISIC_9721604.JPG,,ISIC_1197737.JPG,ISIC_9721604.JPG,true,1,keypress(m),500,98875,98874,95429,95425,95446,98913,1,6,5,,ISIC_1197737.JPG
sequence,flow.Sequence,2_4,2023-11-01T15:48:10.330Z,,0,,,3428,completion,,,,,true,,,,98876,98874,95429,95425,95446,98913,1,6,,,
trial,html.Screen,2_5_0,2023-11-01T15:48:14.080Z,,0,0,,3729,response,ISIC_0010681.JPG,,ISIC_0025346.JPG,ISIC_0025346.JPG,true,0,keypress(z),500,102626,102625,98896,98876,98913,102663,1,6,6,,ISIC_0010681.JPG
sequence,flow.Sequence,2_5,2023-11-01T15:48:14.080Z,,0,,,3712,completion,,,,,true,,,,102626,102625,98896,98876,98913,102663,1,6,,,
loop,flow.Loop,2,2023-11-01T15:48:14.081Z,,,,,25780,completion,,,,,true,,,,102627,102625,76828,76818,76845,102663,1,6,,,
exp_instructions,html.Screen,3,2023-11-01T15:48:23.967Z,,,,,9910,response,,,,,,continue,keypress(Space),,112514,112556,102646,102627,102663,112546,,,,,
trial,html.Screen,4_0_0,2023-11-01T15:48:28.200Z,,0,1,,4217.000000000015,response,ISIC_0058177.JPG,13,ISIC_0004000.JPG,ISIC_0004000.JPG,false,0,keypress(z),500,116746.00000000001,116746.00000000001,112529,112514,112546,116779,8,400,1,,ISIC_0058177.JPG
break,html.Screen,4_0_1,2023-11-01T15:48:28.202Z,,0,,,NaN,,,,,,false,,,,116748,116748,,116747,,116779,8,400,,,
break_continue,html.Screen,4_0_2,2023-11-01T15:48:28.202Z,,0,,,NaN,,,,,,false,,,,116749.00000000001,116749.00000000001,,116749.00000000001,,116779,8,400,,,
sequence,flow.Sequence,4_0,2023-11-01T15:48:28.203Z,,0,,,4203.000000000015,completion,,,,,false,,,,116749.00000000001,116749.00000000001,112529,112514,112546,116779,8,400,,,
trial,html.Screen,4_1_0,2023-11-01T15:48:31.804Z,,0,1,,3587.0000000000146,response,ISIC_0057963.JPG,15,ISIC_0065597.JPG,ISIC_0065597.JPG,false,0,keypress(z),500,120350.00000000001,120350.00000000001,116763,116750,116779,120380,8,400,2,,ISIC_0057963.JPG
break,html.Screen,4_1_1,2023-11-01T15:48:31.805Z,,0,,,NaN,,,,,,false,,,,120352,120352,,120351,,120380,8,400,,,
break_continue,html.Screen,4_1_2,2023-11-01T15:48:31.806Z,,0,,,NaN,,,,,,false,,,,120353.00000000001,120353.00000000001,,120352,,120380,8,400,,,
sequence,flow.Sequence,4_1,2023-11-01T15:48:31.807Z,,0,,,3574.0000000000146,completion,,,,,false,,,,120353.00000000001,120353.00000000001,116763,116750,116779,120380,8,400,,,
trial,html.Screen,4_2_0,2023-11-01T15:48:36.521Z,,0,1,,4703,response,ISIC_2720426.JPG,9,ISIC_0054936.JPG,ISIC_2720426.JPG,false,1,keypress(m),500,125067,125066,120363,120353.00000000001,120380,125097,8,400,3,,ISIC_0054936.JPG
break,html.Screen,4_2_1,2023-11-01T15:48:36.522Z,,0,,,NaN,,,,,,false,,,,125069,125069,,125068,,125097,8,400,,,
break_continue,html.Screen,4_2_2,2023-11-01T15:48:36.523Z,,0,,,NaN,,,,,,false,,,,125070.00000000001,125069,,125069,,125097,8,400,,,
sequence,flow.Sequence,4_2,2023-11-01T15:48:36.523Z,,0,,,4689,completion,,,,,false,,,,125070.00000000001,125069,120363,120353.00000000001,120380,125097,8,400,,,
trial,html.Screen,4_3_0,2023-11-01T15:48:41.556Z,,0,1,,5023.000000000015,response,ISIC_0026545.JPG,2,ISIC_5458933.JPG,ISIC_0026545.JPG,false,1,keypress(m),500,130103.00000000001,130103.00000000001,125080,125070.00000000001,125097,130130,8,400,4,,ISIC_5458933.JPG
break,html.Screen,4_3_1,2023-11-01T15:48:41.558Z,,0,,,NaN,,,,,,false,,,,130104.99999999999,130104.99999999999,,130104.00000000001,,130130,8,400,,,
break_continue,html.Screen,4_3_2,2023-11-01T15:48:41.559Z,,0,,,NaN,,,,,,false,,,,130106,130106,,130104.99999999999,,130130,8,400,,,
sequence,flow.Sequence,4_3,2023-11-01T15:48:41.559Z,,0,,,5009,completion,,,,,false,,,,130106,130106,125080,125070.00000000001,125097,130130,8,400,,,
trial,html.Screen,4_4_0,2023-11-01T15:48:45.046Z,,0,1,,3479,response,ISIC_5354827.JPG,5,ISIC_0010730.JPG,ISIC_0010730.JPG,false,0,keypress(z),500,133593,133592,130113,130107,130130,133630,8,400,5,,ISIC_5354827.JPG
break,html.Screen,4_4_1,2023-11-01T15:48:45.047Z,,0,,,NaN,,,,,,false,,,,133594,133594,,133593,,133630,8,400,,,
break_continue,html.Screen,4_4_2,2023-11-01T15:48:45.048Z,,0,,,NaN,,,,,,false,,,,133595,133595,,133595,,133630,8,400,,,
sequence,flow.Sequence,4_4,2023-11-01T15:48:45.048Z,,0,,,3465,completion,,,,,false,,,,133596,133595,130113,130107,130130,133630,8,400,,,
trial,html.Screen,4_5_0,2023-11-01T15:48:48.460Z,,0,1,,3392,response,ISIC_0024585.JPG,2,ISIC_0061379.JPG,ISIC_0024585.JPG,false,1,keypress(m),500,137008,137007,133615,133596,133630,137030,8,400,6,,ISIC_0061379.JPG
break,html.Screen,4_5_1,2023-11-01T15:48:48.462Z,,0,,,NaN,,,,,,false,,,,137009,137009,,137008,,137030,8,400,,,
break_continue,html.Screen,4_5_2,2023-11-01T15:48:48.462Z,,0,,,NaN,,,,,,false,,,,137010,137009,,137009,,137030,8,400,,,
sequence,flow.Sequence,4_5,2023-11-01T15:48:48.463Z,,0,,,3379,completion,,,,,false,,,,137010,137009,133615,133596,133630,137030,8,400,,,
trial,html.Screen,4_6_0,2023-11-01T15:48:51.774Z,,0,1,,3308,response,ISIC_3234816.JPG,2,ISIC_6595186.JPG,ISIC_6595186.JPG,false,0,keypress(z),500,140322,140321,137013,137010,137030,140347,8,400,7,,ISIC_3234816.JPG
break,html.Screen,4_6_1,2023-11-01T15:48:51.776Z,,0,,,NaN,,,,,,false,,,,140323,140323,,140322,,140347,8,400,,,
break_continue,html.Screen,4_6_2,2023-11-01T15:48:51.776Z,,0,,,NaN,,,,,,false,,,,140324,140323,,140323,,140347,8,400,,,
sequence,flow.Sequence,4_6,2023-11-01T15:48:51.777Z,,0,,,3293,completion,,,,,false,,,,140324,140323,137013,137010,137030,140347,8,400,,,
trial,html.Screen,4_7_0,2023-11-01T15:48:55.277Z,,0,1,,3494,response,ISIC_8759726.JPG,6,ISIC_6959281.JPG,ISIC_8759726.JPG,false,1,keypress(m),500,143825.00000000003,143824,140330,140325.00000000003,140347,143847,8,400,8,,ISIC_6959281.JPG
break,html.Screen,4_7_1,2023-11-01T15:48:55.279Z,,0,,,NaN,,,,,,false,,,,143826,143826,,143825.00000000003,,143847,8,400,,,
break_continue,html.Screen,4_7_2,2023-11-01T15:48:55.279Z,,0,,,NaN,,,,,,false,,,,143827,143827,,143827,,143847,8,400,,,
sequence,flow.Sequence,4_7,2023-11-01T15:48:55.280Z,,0,,,3480,completion,,,,,false,,,,143827,143827,140330,140324,140347,143847,8,400,,,
trial,html.Screen,4_8_0,2023-11-01T15:48:58.384Z,,0,1,,3100,response,ISIC_0033175.JPG,3,ISIC_4252285.JPG,ISIC_4252285.JPG,false,0,keypress(z),500,146931,146931,143831,143827,143847,146947,8,400,9,,ISIC_0033175.JPG
break,html.Screen,4_8_1,2023-11-01T15:48:58.385Z,,0,,,NaN,,,,,,false,,,,146933,146933,,146932.00000000003,,146947,8,400,,,
break_continue,html.Screen,4_8_2,2023-11-01T15:48:58.386Z,,0,,,NaN,,,,,,false,,,,146933,146933,,146933,,146947,8,400,,,
sequence,flow.Sequence,4_8,2023-11-01T15:48:58.386Z,,0,,,3086,completion,,,,,false,,,,146934,146933,143831,143827,143847,146947,8,400,,,
trial,html.Screen,4_9_0,2023-11-01T15:49:02.029Z,,0,1,,3639,response,ISIC_9672482.JPG,11,ISIC_9183042.JPG,ISIC_9672482.JPG,false,1,keypress(m),500,150576,150576,146937,146934,146947,150597,8,400,10,,ISIC_9183042.JPG
break,html.Screen,4_9_1,2023-11-01T15:49:02.030Z,,0,,,NaN,,,,,,false,,,,150578,150577,,150577,,150597,8,400,,,
break_continue,html.Screen,4_9_2,2023-11-01T15:49:02.031Z,,0,,,NaN,,,,,,false,,,,150578,150578,,150578,,150597,8,400,,,
sequence,flow.Sequence,4_9,2023-11-01T15:49:02.031Z,,0,,,3631,completion,,,,,false,,,,150578,150578,146937,146934,146947,150597,8,400,,,
trial,html.Screen,4_10_0,2023-11-01T15:49:04.658Z,,0,1,,2624,response,ISIC_0010834.JPG,13,ISIC_0010714.JPG,ISIC_0010834.JPG,false,1,keypress(m),500,153206.00000000003,153205,150581,150579,150597,153231,8,400,11,,ISIC_0010714.JPG
break,html.Screen,4_10_1,2023-11-01T15:49:04.659Z,,0,,,NaN,,,,,,false,,,,153207,153207,,153206.00000000003,,153231,8,400,,,
break_continue,html.Screen,4_10_2,2023-11-01T15:49:04.660Z,,0,,,NaN,,,,,,false,,,,153207,153207,,153207,,153231,8,400,,,
sequence,flow.Sequence,4_10,2023-11-01T15:49:04.660Z,,0,,,2610,completion,,,,,false,,,,153207,153207,150581,150579,150597,153231,8,400,,,
trial,html.Screen,4_11_0,2023-11-01T15:49:07.484Z,,0,1,,2817,response,ISIC_7526530.JPG,5,ISIC_8622365.JPG,ISIC_8622365.JPG,false,0,keypress(z),500,156031,156031,153214,153208,153231,156064,8,400,12,,ISIC_7526530.JPG
break,html.Screen,4_11_1,2023-11-01T15:49:07.485Z,,0,,,NaN,,,,,,false,,,,156033.00000000003,156033.00000000003,,156032,,156064,8,400,,,
break_continue,html.Screen,4_11_2,2023-11-01T15:49:07.486Z,,0,,,NaN,,,,,,false,,,,156033.00000000003,156033.00000000003,,156033.00000000003,,156064,8,400,,,
sequence,flow.Sequence,4_11,2023-11-01T15:49:07.486Z,,0,,,2802.000000000029,completion,,,,,false,,,,156034,156033.00000000003,153214,153208,153231,156064,8,400,,,
trial,html.Screen,4_12_0,2023-11-01T15:49:10.099Z,,0,1,,2598.000000000029,response,ISIC_9615486.JPG,16,ISIC_0026924.JPG,ISIC_9615486.JPG,false,1,keypress(m),500,158646.00000000003,158646.00000000003,156048,156034,156064,158681,8,400,13,,ISIC_0026924.JPG
break,html.Screen,4_12_1,2023-11-01T15:49:10.100Z,,0,,,NaN,,,,,,false,,,,158647,158647,,158647,,158681,8,400,,,
break_continue,html.Screen,4_12_2,2023-11-01T15:49:10.100Z,,0,,,NaN,,,,,,false,,,,158648,158648,,158648,,158681,8,400,,,
sequence,flow.Sequence,4_12,2023-11-01T15:49:10.100Z,,0,,,2584,completion,,,,,false,,,,158648,158648,156048,156034,156064,158681,8,400,,,
trial,html.Screen,4_13_0,2023-11-01T15:49:12.679Z,,0,1,,2562,response,ISIC_0059264.JPG,10,ISIC_9723646.JPG,ISIC_9723646.JPG,false,0,keypress(z),500,161227,161226,158664,158648,158681,161264,8,400,14,,ISIC_0059264.JPG
break,html.Screen,4_13_1,2023-11-01T15:49:12.681Z,,0,,,NaN,,,,,,false,,,,161229,161228,,161228,,161264,8,400,,,
break_continue,html.Screen,4_13_2,2023-11-01T15:49:12.681Z,,0,,,NaN,,,,,,false,,,,161229,161229,,161229,,161264,8,400,,,
sequence,flow.Sequence,4_13,2023-11-01T15:49:12.681Z,,0,,,2548,completion,,,,,false,,,,161229,161229,158664,158648,158681,161264,8,400,,,
trial,html.Screen,4_14_0,2023-11-01T15:49:15.899Z,,0,1,,3198,response,ISIC_7441957.JPG,14,ISIC_0064318.JPG,ISIC_0064318.JPG,false,0,keypress(z),500,164447,164446,161248,161229,161264,164481,8,400,15,,ISIC_7441957.JPG
break,html.Screen,4_14_1,2023-11-01T15:49:15.900Z,,0,,,NaN,,,,,,false,,,,164448,164448,,164447,,164481,8,400,,,
break_continue,html.Screen,4_14_2,2023-11-01T15:49:15.901Z,,0,,,NaN,,,,,,false,,,,164449,164449,,164449,,164481,8,400,,,
sequence,flow.Sequence,4_14,2023-11-01T15:49:15.901Z,,0,,,3185,completion,,,,,false,,,,164449,164449,161248,161229,161264,164481,8,400,,,
trial,html.Screen,4_15_0,2023-11-01T15:49:18.460Z,,0,1,,2542,response,ISIC_0033470.JPG,9,ISIC_0012150.JPG,ISIC_0012150.JPG,false,0,keypress(z),500,167008,167007,164465,164450.00000000003,164481,167031,8,400,16,,ISIC_0033470.JPG
break,html.Screen,4_15_1,2023-11-01T15:49:18.461Z,,0,,,NaN,,,,,,false,,,,167010,167009,,167009,,167031,8,400,,,
break_continue,html.Screen,4_15_2,2023-11-01T15:49:18.462Z,,0,,,NaN,,,,,,false,,,,167010,167010,,167010,,167031,8,400,,,
sequence,flow.Sequence,4_15,2023-11-01T15:49:18.462Z,,0,,,2529,completion,,,,,false,,,,167010,167010,164465,164450.00000000003,164481,167031,8,400,,,
trial,html.Screen,4_16_0,2023-11-01T15:49:22.153Z,,0,1,,3686.000000000029,response,ISIC_0031914.JPG,2,ISIC_0058858.JPG,ISIC_0031914.JPG,false,1,keypress(m),500,170701,170700.00000000003,167014,167010,167031,170731,8,400,17,,ISIC_0058858.JPG
break,html.Screen,4_16_1,2023-11-01T15:49:22.154Z,,0,,,NaN,,,,,,false,,,,170702,170702,,170701,,170731,8,400,,,
break_continue,html.Screen,4_16_2,2023-11-01T15:49:22.155Z,,0,,,NaN,,,,,,false,,,,170703,170702,,170702,,170731,8,400,,,
sequence,flow.Sequence,4_16,2023-11-01T15:49:22.155Z,,0,,,3671,completion,,,,,false,,,,170703,170702,167014,167010,167031,170731,8,400,,,
trial,html.Screen,4_17_0,2023-11-01T15:49:25.228Z,,0,1,,3061,response,ISIC_3198731.JPG,10,ISIC_0032036.JPG,ISIC_3198731.JPG,false,1,keypress(m),500,173777.00000000003,173776,170715,170703,170731,173814,8,400,18,,ISIC_0032036.JPG
break,html.Screen,4_17_1,2023-11-01T15:49:25.230Z,,0,,,NaN,,,,,,false,,,,173778,173778,,173777.00000000003,,173814,8,400,,,
break_continue,html.Screen,4_17_2,2023-11-01T15:49:25.230Z,,0,,,NaN,,,,,,false,,,,173778,173778,,173778,,173814,8,400,,,
sequence,flow.Sequence,4_17,2023-11-01T15:49:25.230Z,,0,,,3047,completion,,,,,false,,,,173779,173778,170715,170703,170731,173814,8,400,,,
trial,html.Screen,4_18_0,2023-11-01T15:49:28.509Z,,0,1,,3259.000000000029,response,ISIC_4433832.JPG,15,ISIC_0013499.JPG,ISIC_0013499.JPG,false,0,keypress(z),500,177057.00000000003,177057.00000000003,173798,173779,173814,177081,8,400,19,,ISIC_4433832.JPG
break,html.Screen,4_18_1,2023-11-01T15:49:28.510Z,,0,,,NaN,,,,,,false,,,,177058,177058,,177057.00000000003,,177081,8,400,,,
break_continue,html.Screen,4_18_2,2023-11-01T15:49:28.510Z,,0,,,NaN,,,,,,false,,,,177059,177059,,177059,,177081,8,400,,,
sequence,flow.Sequence,4_18,2023-11-01T15:49:28.510Z,,0,,,3245,completion,,,,,false,,,,177059,177059,173798,173779,173814,177081,8,400,,,
trial,html.Screen,4_19_0,2023-11-01T15:49:31.725Z,,0,1,,3208,response,ISIC_5746904.JPG,0,ISIC_3688362.JPG,ISIC_5746904.JPG,false,1,keypress(m),500,180273,180272,177064,177059,177081,180298,8,400,20,,ISIC_3688362.JPG
break,html.Screen,4_19_1,2023-11-01T15:49:31.726Z,,0,,,NaN,,,,,,false,,,,180274,180274,,180274,,180298,8,400,,,
break_continue,html.Screen,4_19_2,2023-11-01T15:49:31.726Z,,0,,,NaN,,,,,,false,,,,180275,180275,,180275,,180298,8,400,,,
sequence,flow.Sequence,4_19,2023-11-01T15:49:31.727Z,,0,,,3194,completion,,,,,false,,,,180275,180275,177064,177059,177081,180298,8,400,,,
trial,html.Screen,4_20_0,2023-11-01T15:49:34.595Z,,0,1,,2861,response,ISIC_0033386.JPG,4,ISIC_0894785.JPG,ISIC_0894785.JPG,false,0,keypress(z),500,183143,183142,180281,180275,180298,183181,8,400,21,,ISIC_0033386.JPG
break,html.Screen,4_20_1,2023-11-01T15:49:34.596Z,,0,,,NaN,,,,,,false,,,,183145,183144,,183144,,183181,8,400,,,
break_continue,html.Screen,4_20_2,2023-11-01T15:49:34.597Z,,0,,,NaN,,,,,,false,,,,183145,183145,,183145,,183181,8,400,,,
sequence,flow.Sequence,4_20,2023-11-01T15:49:34.597Z,,0,,,2847,completion,,,,,false,,,,183145,183145,180281,180275,180298,183181,8,400,,,
trial,html.Screen,4_21_0,2023-11-01T15:49:37.339Z,,0,1,,2721,response,ISIC_0013577.JPG,11,ISIC_0000516.JPG,ISIC_0013577.JPG,false,1,keypress(m),500,185887,185886,183165,183146.00000000003,183181,185915,8,400,22,,ISIC_0000516.JPG
break,html.Screen,4_21_1,2023-11-01T15:49:37.340Z,,0,,,NaN,,,,,,false,,,,185889,185888,,185888,,185915,8,400,,,
break_continue,html.Screen,4_21_2,2023-11-01T15:49:37.341Z,,0,,,NaN,,,,,,false,,,,185889,185889,,185889,,185915,8,400,,,
sequence,flow.Sequence,4_21,2023-11-01T15:49:37.341Z,,0,,,2708,completion,,,,,false,,,,185890.00000000003,185889,183165,183146.00000000003,183181,185915,8,400,,,
trial,html.Screen,4_22_0,2023-11-01T15:49:41.003Z,,0,1,,3654,response,ISIC_0010304.JPG,0,ISIC_5397818.JPG,ISIC_5397818.JPG,false,0,keypress(z),500,189552,189552,185898,185890.00000000003,185915,189582,8,400,23,,ISIC_0010304.JPG
break,html.Screen,4_22_1,2023-11-01T15:49:41.005Z,,0,,,NaN,,,,,,false,,,,189554,189553,,189553,,189582,8,400,,,
break_continue,html.Screen,4_22_2,2023-11-01T15:49:41.005Z,,0,,,NaN,,,,,,false,,,,189554,189554,,189554,,189582,8,400,,,
sequence,flow.Sequence,4_22,2023-11-01T15:49:41.006Z,,0,,,3639,completion,,,,,false,,,,189554,189554,185898,185890.00000000003,185915,189582,8,400,,,
trial,html.Screen,4_23_0,2023-11-01T15:49:43.715Z,,0,1,,2699,response,ISIC_5798331.JPG,5,ISIC_0010478.JPG,ISIC_0010478.JPG,false,0,keypress(z),500,192264,192264,189565,189555,189582,192298,8,400,24,,ISIC_5798331.JPG
break,html.Screen,4_23_1,2023-11-01T15:49:43.716Z,,0,,,NaN,,,,,,false,,,,192265.00000000003,192265.00000000003,,192265.00000000003,,192298,8,400,,,
break_continue,html.Screen,4_23_2,2023-11-01T15:49:43.717Z,,0,,,NaN,,,,,,false,,,,192266,192266,,192265.00000000003,,192298,8,400,,,
sequence,flow.Sequence,4_23,2023-11-01T15:49:43.717Z,,0,,,2684,completion,,,,,false,,,,192266,192266,189565,189555,189582,192298,8,400,,,
trial,html.Screen,4_24_0,2023-11-01T15:49:46.588Z,,0,1,,2854,response,ISIC_0026278.JPG,1,ISIC_0070951.JPG,ISIC_0070951.JPG,false,0,keypress(z),500,195137,195136,192282,192266,192298,195165,8,400,25,,ISIC_0026278.JPG
break,html.Screen,4_24_1,2023-11-01T15:49:46.589Z,,0,,,NaN,,,,,,false,,,,195138,195138,,195137,,195165,8,400,,,
break_continue,html.Screen,4_24_2,2023-11-01T15:49:46.590Z,,0,,,NaN,,,,,,false,,,,195139,195138,,195138,,195165,8,400,,,
sequence,flow.Sequence,4_24,2023-11-01T15:49:46.590Z,,0,,,2840,completion,,,,,false,,,,195139,195138,192282,192266,192298,195165,8,400,,,
trial,html.Screen,4_25_0,2023-11-01T15:49:49.411Z,,0,1,,2812,response,ISIC_0054748.JPG,3,ISIC_8130596.JPG,ISIC_0054748.JPG,false,1,keypress(m),500,197960,197960,195148,195139,195165,197998,8,400,26,,ISIC_8130596.JPG
break,html.Screen,4_25_1,2023-11-01T15:49:49.413Z,,0,,,NaN,,,,,,false,,,,197962.00000000003,197962.00000000003,,197961,,197998,8,400,,,
break_continue,html.Screen,4_25_2,2023-11-01T15:49:49.413Z,,0,,,NaN,,,,,,false,,,,197962.00000000003,197962.00000000003,,197962.00000000003,,197998,8,400,,,
sequence,flow.Sequence,4_25,2023-11-01T15:49:49.414Z,,0,,,2797.000000000029,completion,,,,,false,,,,197963,197962.00000000003,195148,195139,195165,197998,8,400,,,
trial,html.Screen,4_26_0,2023-11-01T15:49:51.927Z,,0,1,,2493,response,ISIC_7025208.JPG,0,ISIC_1470245.JPG,ISIC_7025208.JPG,false,1,keypress(m),500,200476,200475,197982,197963,197998,200498,8,400,27,,ISIC_1470245.JPG
break,html.Screen,4_26_1,2023-11-01T15:49:51.928Z,,0,,,NaN,,,,,,false,,,,200477,200477,,200476,,200498,8,400,,,
break_continue,html.Screen,4_26_2,2023-11-01T15:49:51.929Z,,0,,,NaN,,,,,,false,,,,200478,200478,,200477,,200498,8,400,,,
sequence,flow.Sequence,4_26,2023-11-01T15:49:51.929Z,,0,,,2480,completion,,,,,false,,,,200478,200478,197982,197963,197998,200498,8,400,,,
trial,html.Screen,4_27_0,2023-11-01T15:49:54.793Z,,0,1,,2860,response,ISIC_7180418.JPG,15,ISIC_3559222.JPG,ISIC_3559222.JPG,false,0,keypress(z),500,203342,203341,200481,200478,200498,203365,8,400,28,,ISIC_7180418.JPG
break,html.Screen,4_27_1,2023-11-01T15:49:54.794Z,,0,,,NaN,,,,,,false,,,,203343.00000000003,203343.00000000003,,203342,,203365,8,400,,,
break_continue,html.Screen,4_27_2,2023-11-01T15:49:54.795Z,,0,,,NaN,,,,,,false,,,,203344,203344,,203343.00000000003,,203365,8,400,,,
sequence,flow.Sequence,4_27,2023-11-01T15:49:54.795Z,,0,,,2846,completion,,,,,false,,,,203344,203344,200481,200478,200498,203365,8,400,,,
trial,html.Screen,4_28_0,2023-11-01T15:49:58.756Z,,0,1,,3957,response,ISIC_0030360.JPG,5,ISIC_7966295.JPG,ISIC_7966295.JPG,false,0,keypress(z),500,207306,207305,203348,203344,203365,207332,8,400,29,,ISIC_0030360.JPG
break,html.Screen,4_28_1,2023-11-01T15:49:58.758Z,,0,,,NaN,,,,,,false,,,,207307.00000000003,207307.00000000003,,207306,,207332,8,400,,,
break_continue,html.Screen,4_28_2,2023-11-01T15:49:58.758Z,,0,,,NaN,,,,,,false,,,,207308,207307.00000000003,,207307.00000000003,,207332,8,400,,,
sequence,flow.Sequence,4_28,2023-11-01T15:49:58.759Z,,0,,,3942.000000000029,completion,,,,,false,,,,207308,207307.00000000003,203348,203344,203365,207332,8,400,,,
trial,html.Screen,4_29_0,2023-11-01T15:50:02.804Z,,0,1,,4038,response,ISIC_0011532.JPG,9,ISIC_0011526.JPG,ISIC_0011526.JPG,false,0,keypress(z),500,211354,211353,207315,207308,207332,211382,8,400,30,,ISIC_0011532.JPG
break,html.Screen,4_29_1,2023-11-01T15:50:02.806Z,,0,,,NaN,,,,,,false,,,,211355.00000000003,211355.00000000003,,211354,,211382,8,400,,,
break_continue,html.Screen,4_29_2,2023-11-01T15:50:02.806Z,,0,,,NaN,,,,,,false,,,,211355.00000000003,211355.00000000003,,211355.00000000003,,211382,8,400,,,
sequence,flow.Sequence,4_29,2023-11-01T15:50:02.806Z,,0,,,4023.000000000029,completion,,,,,false,,,,211356,211355.00000000003,207315,207308,207332,211382,8,400,,,
trial,html.Screen,4_30_0,2023-11-01T15:50:06.628Z,,0,1,,3811,response,ISIC_0029343.JPG,12,ISIC_0010299.JPG,ISIC_0010299.JPG,false,0,keypress(z),500,215177,215177,211366,211356,211382,215216,8,400,31,,ISIC_0029343.JPG
break,html.Screen,4_30_1,2023-11-01T15:50:06.629Z,,0,,,NaN,,,,,,false,,,,215179,215179,,215178,,215216,8,400,,,
break_continue,html.Screen,4_30_2,2023-11-01T15:50:06.630Z,,0,,,NaN,,,,,,false,,,,215179,215179,,215179,,215216,8,400,,,
sequence,flow.Sequence,4_30,2023-11-01T15:50:06.630Z,,0,,,3797,completion,,,,,false,,,,215180,215179,211366,211356,211382,215216,8,400,,,
trial,html.Screen,4_31_0,2023-11-01T15:50:09.676Z,,0,1,,3026,response,ISIC_0062323.JPG,7,ISIC_0068477.JPG,ISIC_0062323.JPG,false,1,keypress(m),500,218225,218225,215199,215180,215216,218249,8,400,32,,ISIC_0068477.JPG
break,html.Screen,4_31_1,2023-11-01T15:50:09.677Z,,0,,,NaN,,,,,,false,,,,218227,218227,,218226,,218249,8,400,,,
break_continue,html.Screen,4_31_2,2023-11-01T15:50:09.678Z,,0,,,NaN,,,,,,false,,,,218227,218227,,218227,,218249,8,400,,,
sequence,flow.Sequence,4_31,2023-11-01T15:50:09.678Z,,0,,,3011,completion,,,,,false,,,,218228,218227,215199,215180,215216,218249,8,400,,,
trial,html.Screen,4_32_0,2023-11-01T15:50:12.595Z,,0,1,,2912,response,ISIC_0028696.JPG,13,ISIC_0031909.JPG,ISIC_0031909.JPG,false,0,keypress(z),500,221145,221144,218232,218228,218249,221182,8,400,33,,ISIC_0028696.JPG
break,html.Screen,4_32_1,2023-11-01T15:50:12.596Z,,0,,,NaN,,,,,,false,,,,221146.00000000003,221146.00000000003,,221145,,221182,8,400,,,
break_continue,html.Screen,4_32_2,2023-11-01T15:50:12.596Z,,0,,,NaN,,,,,,false,,,,221146.00000000003,221146.00000000003,,221146.00000000003,,221182,8,400,,,
sequence,flow.Sequence,4_32,2023-11-01T15:50:12.596Z,,0,,,2897.000000000029,completion,,,,,false,,,,221146.00000000003,221146.00000000003,218232,218228,218249,221182,8,400,,,
trial,html.Screen,4_33_0,2023-11-01T15:50:15.276Z,,0,1,,2659.000000000029,response,ISIC_0222299.JPG,11,ISIC_7650369.JPG,ISIC_7650369.JPG,false,0,keypress(z),500,223826,223825.00000000003,221166,221146.00000000003,221182,223849,8,400,34,,ISIC_0222299.JPG
break,html.Screen,4_33_1,2023-11-01T15:50:15.277Z,,0,,,NaN,,,,,,false,,,,223827,223827,,223826,,223849,8,400,,,
break_continue,html.Screen,4_33_2,2023-11-01T15:50:15.278Z,,0,,,NaN,,,,,,false,,,,223828,223828,,223827,,223849,8,400,,,
sequence,flow.Sequence,4_33,2023-11-01T15:50:15.278Z,,0,,,2646,completion,,,,,false,,,,223828,223828,221166,221146.00000000003,221182,223849,8,400,,,
trial,html.Screen,4_34_0,2023-11-01T15:50:18.446Z,,0,1,,3164,response,ISIC_0059303.JPG,7,ISIC_8130596.JPG,ISIC_0059303.JPG,false,1,keypress(m),500,226996,226996,223832,223828,223849,227032,8,400,35,,ISIC_8130596.JPG
break,html.Screen,4_34_1,2023-11-01T15:50:18.447Z,,0,,,NaN,,,,,,false,,,,226997,226997,,226996,,227032,8,400,,,
break_continue,html.Screen,4_34_2,2023-11-01T15:50:18.447Z,,0,,,NaN,,,,,,false,,,,226997,226997,,226997,,227032,8,400,,,
sequence,flow.Sequence,4_34,2023-11-01T15:50:18.447Z,,0,,,3148,completion,,,,,false,,,,226997,226997,223832,223828,223849,227032,8,400,,,
trial,html.Screen,4_35_0,2023-11-01T15:50:21.055Z,,0,1,,2588,response,ISIC_0062407.JPG,6,ISIC_4062017.JPG,ISIC_4062017.JPG,false,0,keypress(z),500,229605.00000000003,229604,227016,226997,227032,229632,8,400,36,,ISIC_0062407.JPG
break,html.Screen,4_35_1,2023-11-01T15:50:21.056Z,,0,,,NaN,,,,,,false,,,,229606,229606,,229605.00000000003,,229632,8,400,,,
break_continue,html.Screen,4_35_2,2023-11-01T15:50:21.057Z,,0,,,NaN,,,,,,false,,,,229607,229607,,229607,,229632,8,400,,,
sequence,flow.Sequence,4_35,2023-11-01T15:50:21.057Z,,0,,,2575,completion,,,,,false,,,,229607,229607,227016,226997,227032,229632,8,400,,,
trial,html.Screen,4_36_0,2023-11-01T15:50:23.615Z,,0,1,,2549.000000000029,response,ISIC_0966527.JPG,6,ISIC_9337570.JPG,ISIC_9337570.JPG,false,0,keypress(z),500,232165,232164.00000000003,229615,229607,229632,232199,8,400,37,,ISIC_0966527.JPG
break,html.Screen,4_36_1,2023-11-01T15:50:23.616Z,,0,,,NaN,,,,,,false,,,,232166,232166,,232165,,232199,8,400,,,
break_continue,html.Screen,4_36_2,2023-11-01T15:50:23.616Z,,0,,,NaN,,,,,,false,,,,232167,232166,,232166,,232199,8,400,,,
sequence,flow.Sequence,4_36,2023-11-01T15:50:23.617Z,,0,,,2534,completion,,,,,false,,,,232167,232166,229615,229607,229632,232199,8,400,,,
trial,html.Screen,4_37_0,2023-11-01T15:50:26.624Z,,0,1,,2990,response,ISIC_4438786.JPG,9,ISIC_0057978.JPG,ISIC_4438786.JPG,false,1,keypress(m),500,235174,235173,232183,232167,232199,235199,8,400,38,,ISIC_0057978.JPG
break,html.Screen,4_37_1,2023-11-01T15:50:26.625Z,,0,,,NaN,,,,,,false,,,,235175,235175,,235174,,235199,8,400,,,
break_continue,html.Screen,4_37_2,2023-11-01T15:50:26.626Z,,0,,,NaN,,,,,,false,,,,235176.00000000003,235176.00000000003,,235176.00000000003,,235199,8,400,,,
sequence,flow.Sequence,4_37,2023-11-01T15:50:26.626Z,,0,,,2977.000000000029,completion,,,,,false,,,,235176.00000000003,235176.00000000003,232183,232167,232199,235199,8,400,,,
trial,html.Screen,4_38_0,2023-11-01T15:50:29.785Z,,0,1,,3153,response,ISIC_4470206.JPG,15,ISIC_0385633.JPG,ISIC_0385633.JPG,false,0,keypress(z),500,238335,238335,235182,235177,235199,238365,8,400,39,,ISIC_4470206.JPG
break,html.Screen,4_38_1,2023-11-01T15:50:29.787Z,,0,,,NaN,,,,,,false,,,,238337.00000000003,238337.00000000003,,238336,,238365,8,400,,,
break_continue,html.Screen,4_38_2,2023-11-01T15:50:29.787Z,,0,,,NaN,,,,,,false,,,,238337.00000000003,238337.00000000003,,238337.00000000003,,238365,8,400,,,
sequence,flow.Sequence,4_38,2023-11-01T15:50:29.787Z,,0,,,3138.000000000029,completion,,,,,false,,,,238338,238337.00000000003,235182,235176.00000000003,235199,238365,8,400,,,
trial,html.Screen,4_39_0,2023-11-01T15:50:32.421Z,,0,1,,2621,response,ISIC_0012063.JPG,11,ISIC_0026613.JPG,ISIC_0026613.JPG,false,0,keypress(z),500,240972,240971,238350,238338,238365,241000,8,400,40,,ISIC_0012063.JPG
break,html.Screen,4_39_1,2023-11-01T15:50:32.423Z,,0,,,NaN,,,,,,false,,,,240973,240973,,240972,,241000,8,400,,,
break_continue,html.Screen,4_39_2,2023-11-01T15:50:32.423Z,,0,,,NaN,,,,,,false,,,,240973,240973,,240973,,241000,8,400,,,
sequence,flow.Sequence,4_39,2023-11-01T15:50:32.423Z,,0,,,2608,completion,,,,,false,,,,240974.00000000003,240973,238350,238338,238365,241000,8,400,,,
trial,html.Screen,4_40_0,2023-11-01T15:50:35.289Z,,0,1,,2856,response,ISIC_6520237.JPG,15,ISIC_0011917.JPG,ISIC_6520237.JPG,false,1,keypress(m),500,243840,243839,240983,240974.00000000003,241000,243866,8,400,41,,ISIC_0011917.JPG
break,html.Screen,4_40_1,2023-11-01T15:50:35.290Z,,0,,,NaN,,,,,,false,,,,243841,243841,,243840,,243866,8,400,,,
break_continue,html.Screen,4_40_2,2023-11-01T15:50:35.291Z,,0,,,NaN,,,,,,false,,,,243841,243841,,243841,,243866,8,400,,,
sequence,flow.Sequence,4_40,2023-11-01T15:50:35.291Z,,0,,,2841,completion,,,,,false,,,,243842,243841,240983,240974.00000000003,241000,243866,8,400,,,
trial,html.Screen,4_41_0,2023-11-01T15:50:38.272Z,,0,1,,2972,response,ISIC_2241388.JPG,14,ISIC_0026344.JPG,ISIC_2241388.JPG,false,1,keypress(m),500,246823,246822,243850,243842,243866,246850,8,400,42,,ISIC_0026344.JPG
break,html.Screen,4_41_1,2023-11-01T15:50:38.273Z,,0,,,NaN,,,,,,false,,,,246824,246824,,246823,,246850,8,400,,,
break_continue,html.Screen,4_41_2,2023-11-01T15:50:38.274Z,,0,,,NaN,,,,,,false,,,,246824,246824,,246824,,246850,8,400,,,
sequence,flow.Sequence,4_41,2023-11-01T15:50:38.274Z,,0,,,2958,completion,,,,,false,,,,246825.00000000003,246824,243850,243842,243866,246850,8,400,,,
trial,html.Screen,4_42_0,2023-11-01T15:50:41.369Z,,0,1,,3087,response,ISIC_0072294.JPG,1,ISIC_2075546.JPG,ISIC_0072294.JPG,false,1,keypress(m),500,249919,249919,246832,246825.00000000003,246850,249950,8,400,43,,ISIC_2075546.JPG
break,html.Screen,4_42_1,2023-11-01T15:50:41.370Z,,0,,,NaN,,,,,,false,,,,249921,249920.00000000003,,249920.00000000003,,249950,8,400,,,
break_continue,html.Screen,4_42_2,2023-11-01T15:50:41.371Z,,0,,,NaN,,,,,,false,,,,249921,249921,,249921,,249950,8,400,,,
sequence,flow.Sequence,4_42,2023-11-01T15:50:41.371Z,,0,,,3071,completion,,,,,false,,,,249921,249921,246832,246825.00000000003,246850,249950,8,400,,,
trial,html.Screen,4_43_0,2023-11-01T15:50:44.451Z,,0,1,,3068,response,ISIC_5837098.JPG,2,ISIC_0033697.JPG,ISIC_0033697.JPG,false,0,keypress(z),500,253001,253001,249933,249922,249950,253033,8,400,44,,ISIC_5837098.JPG
break,html.Screen,4_43_1,2023-11-01T15:50:44.452Z,,0,,,NaN,,,,,,false,,,,253003,253002,,253002,,253033,8,400,,,
break_continue,html.Screen,4_43_2,2023-11-01T15:50:44.452Z,,0,,,NaN,,,,,,false,,,,253003,253003,,253003,,253033,8,400,,,
sequence,flow.Sequence,4_43,2023-11-01T15:50:44.452Z,,0,,,3053,completion,,,,,false,,,,253003,253003,249933,249922,249950,253033,8,400,,,
trial,html.Screen,4_44_0,2023-11-01T15:50:47.496Z,,0,1,,3029,response,ISIC_0944273.JPG,8,ISIC_3591332.JPG,ISIC_3591332.JPG,false,0,keypress(z),500,256047.00000000003,256046,253017,253003,253033,256083,8,400,45,,ISIC_0944273.JPG
break,html.Screen,4_44_1,2023-11-01T15:50:47.497Z,,0,,,NaN,,,,,,false,,,,256048,256048,,256047.00000000003,,256083,8,400,,,
break_continue,html.Screen,4_44_2,2023-11-01T15:50:47.498Z,,0,,,NaN,,,,,,false,,,,256048.99999999997,256048.99999999997,,256048,,256083,8,400,,,
sequence,flow.Sequence,4_44,2023-11-01T15:50:47.498Z,,0,,,3015.999999999971,completion,,,,,false,,,,256048.99999999997,256048.99999999997,253017,253003,253033,256083,8,400,,,
trial,html.Screen,4_45_0,2023-11-01T15:50:51.303Z,,0,1,,3786,response,ISIC_1915890.JPG,1,ISIC_8873236.JPG,ISIC_8873236.JPG,false,0,keypress(z),500,259853.99999999997,259853,256067,256048.99999999997,256083,259883,8,400,46,,ISIC_1915890.JPG
break,html.Screen,4_45_1,2023-11-01T15:50:51.304Z,,0,,,NaN,,,,,,false,,,,259855.00000000003,259855.00000000003,,259853.99999999997,,259883,8,400,,,
break_continue,html.Screen,4_45_2,2023-11-01T15:50:51.305Z,,0,,,NaN,,,,,,false,,,,259855.00000000003,259855.00000000003,,259855.00000000003,,259883,8,400,,,
sequence,flow.Sequence,4_45,2023-11-01T15:50:51.305Z,,0,,,3772.000000000029,completion,,,,,false,,,,259856,259855.00000000003,256067,256048.99999999997,256083,259883,8,400,,,
trial,html.Screen,4_46_0,2023-11-01T15:50:54.538Z,,0,1,,3222,response,ISIC_0014985.JPG,16,ISIC_4166490.JPG,ISIC_0014985.JPG,false,1,keypress(m),500,263089,263089,259867,259856,259883,263116,8,400,47,,ISIC_4166490.JPG
break,html.Screen,4_46_1,2023-11-01T15:50:54.540Z,,0,,,NaN,,,,,,false,,,,263091,263091,,263090.00000000006,,263116,8,400,,,
break_continue,html.Screen,4_46_2,2023-11-01T15:50:54.540Z,,0,,,NaN,,,,,,false,,,,263091,263091,,263091,,263116,8,400,,,
sequence,flow.Sequence,4_46,2023-11-01T15:50:54.541Z,,0,,,3208,completion,,,,,false,,,,263092,263091,259867,259856,259883,263116,8,400,,,
trial,html.Screen,4_47_0,2023-11-01T15:50:57.062Z,,0,1,,2512,response,ISIC_1383822.JPG,9,ISIC_0011428.JPG,ISIC_1383822.JPG,false,1,keypress(m),500,265613,265612,263100,263092,263116,265650,8,400,48,,ISIC_0011428.JPG
break,html.Screen,4_47_1,2023-11-01T15:50:57.063Z,,0,,,NaN,,,,,,false,,,,265614.00000000006,265614.00000000006,,265613,,265650,8,400,,,
break_continue,html.Screen,4_47_2,2023-11-01T15:50:57.064Z,,0,,,NaN,,,,,,false,,,,265615,265615,,265615,,265650,8,400,,,
sequence,flow.Sequence,4_47,2023-11-01T15:50:57.064Z,,0,,,2499,completion,,,,,false,,,,265615,265615,263100,263092,263116,265650,8,400,,,
trial,html.Screen,4_48_0,2023-11-01T15:50:59.995Z,,0,1,,2911,response,ISIC_3067885.JPG,13,ISIC_0031931.JPG,ISIC_0031931.JPG,false,0,keypress(z),500,268546,268545,265634,265616,265650,268583,8,400,49,,ISIC_3067885.JPG
break,html.Screen,4_48_1,2023-11-01T15:50:59.996Z,,0,,,NaN,,,,,,false,,,,268548,268547,,268546,,268583,8,400,,,
break_continue,html.Screen,4_48_2,2023-11-01T15:50:59.997Z,,0,,,NaN,,,,,,false,,,,268548,268548,,268548,,268583,8,400,,,
sequence,flow.Sequence,4_48,2023-11-01T15:50:59.997Z,,0,,,2898,completion,,,,,false,,,,268548,268548,265634,265615,265650,268583,8,400,,,
trial,html.Screen,4_49_0,2023-11-01T15:51:03.453Z,,0,1,,3437,response,ISIC_9745038.JPG,9,ISIC_1380069.JPG,ISIC_9745038.JPG,false,1,keypress(m),500,272004,272004,268567,268549,268583,272034,8,400,50,,ISIC_1380069.JPG
break,html.Screen,4_49_1,2023-11-01T15:51:13.466Z,,0,,,10000,timeout,,,,,false,,,,282018,282017,272016,272005,272034,282034,8,400,,,
break_continue,html.Screen,4_49_2,2023-11-01T15:51:14.342Z,,0,,,920,response,,,,,false,continue,keypress(Space),,282893,282937,282017,282018,282034,282934,8,400,,,
sequence,flow.Sequence,4_49,2023-11-01T15:51:14.342Z,,0,,,14354,completion,,,,,false,,,,282894,282937,268567,268549,268583,282934,8,400,,,
trial,html.Screen,4_50_0,2023-11-01T15:51:17.506Z,,0,2,,3141,response,ISIC_4069836.JPG,1,ISIC_0060749.JPG,ISIC_0060749.JPG,false,0,keypress(z),500,286058,286058,282917,282894,282934,286084,8,400,1,,ISIC_4069836.JPG
break,html.Screen,4_50_1,2023-11-01T15:51:17.507Z,,0,,,NaN,,,,,,false,,,,286059,286059,,286058,,286084,8,400,,,
break_continue,html.Screen,4_50_2,2023-11-01T15:51:17.508Z,,0,,,NaN,,,,,,false,,,,286059,286059,,286059,,286084,8,400,,,
sequence,flow.Sequence,4_50,2023-11-01T15:51:17.508Z,,0,,,3125,completion,,,,,false,,,,286060,286059,282917,282894,282934,286084,8,400,,,
trial,html.Screen,4_51_0,2023-11-01T15:51:20.303Z,,0,2,,2787,response,ISIC_7630831.JPG,2,ISIC_3394080.JPG,ISIC_3394080.JPG,false,0,keypress(z),500,288855,288854,286067,286060,286084,288884,8,400,2,,ISIC_7630831.JPG
break,html.Screen,4_51_1,2023-11-01T15:51:20.305Z,,0,,,NaN,,,,,,false,,,,288856,288856,,288855,,288884,8,400,,,
break_continue,html.Screen,4_51_2,2023-11-01T15:51:20.305Z,,0,,,NaN,,,,,,false,,,,288857,288857,,288857,,288884,8,400,,,
sequence,flow.Sequence,4_51,2023-11-01T15:51:20.305Z,,0,,,2773,completion,,,,,false,,,,288857,288857,286067,286060,286084,288884,8,400,,,
trial,html.Screen,4_52_0,2023-11-01T15:51:23.087Z,,0,2,,2772.000000000058,response,ISIC_0030360.JPG,1,ISIC_0033574.JPG,ISIC_0030360.JPG,false,1,keypress(m),500,291639,291638.00000000006,288866,288857,288884,291667,8,400,3,,ISIC_0033574.JPG
break,html.Screen,4_52_1,2023-11-01T15:51:23.088Z,,0,,,NaN,,,,,,false,,,,291640,291640,,291639,,291667,8,400,,,
break_continue,html.Screen,4_52_2,2023-11-01T15:51:23.089Z,,0,,,NaN,,,,,,false,,,,291641,291641,,291641,,291667,8,400,,,
sequence,flow.Sequence,4_52,2023-11-01T15:51:23.089Z,,0,,,2757,completion,,,,,false,,,,291641,291641,288866,288857,288884,291667,8,400,,,
trial,html.Screen,4_53_0,2023-11-01T15:51:25.685Z,,0,2,,2586,response,ISIC_0667763.JPG,7,ISIC_1387456.JPG,ISIC_0667763.JPG,false,1,keypress(m),500,294237,294237,291651,291641,291667,294267,8,400,4,,ISIC_1387456.JPG
break,html.Screen,4_53_1,2023-11-01T15:51:25.686Z,,0,,,NaN,,,,,,false,,,,294238,294238,,294238,,294267,8,400,,,
break_continue,html.Screen,4_53_2,2023-11-01T15:51:25.687Z,,0,,,NaN,,,,,,false,,,,294239.00000000006,294239.00000000006,,294238,,294267,8,400,,,
sequence,flow.Sequence,4_53,2023-11-01T15:51:25.687Z,,0,,,2572.000000000058,completion,,,,,false,,,,294239.00000000006,294239.00000000006,291651,291641,291667,294267,8,400,,,
trial,html.Screen,4_54_0,2023-11-01T15:51:28.440Z,,0,2,,2741,response,ISIC_0647224.JPG,14,ISIC_7448231.JPG,ISIC_7448231.JPG,false,0,keypress(z),500,296992,296992,294251,294239.00000000006,294267,297018,8,400,5,,ISIC_0647224.JPG
break,html.Screen,4_54_1,2023-11-01T15:51:28.441Z,,0,,,NaN,,,,,,false,,,,296994,296993,,296992,,297018,8,400,,,
break_continue,html.Screen,4_54_2,2023-11-01T15:51:28.442Z,,0,,,NaN,,,,,,false,,,,296994,296994,,296994,,297018,8,400,,,
sequence,flow.Sequence,4_54,2023-11-01T15:51:28.442Z,,0,,,2727,completion,,,,,false,,,,296994,296994,294251,294239.00000000006,294267,297018,8,400,,,
trial,html.Screen,4_55_0,2023-11-01T15:51:31.180Z,,0,2,,2732,response,ISIC_0024275.JPG,0,ISIC_8388593.JPG,ISIC_0024275.JPG,false,1,keypress(m),500,299732,299732,297000,296994,297018,299767,8,400,6,,ISIC_8388593.JPG
break,html.Screen,4_55_1,2023-11-01T15:51:31.182Z,,0,,,NaN,,,,,,false,,,,299734,299733,,299733,,299767,8,400,,,
break_continue,html.Screen,4_55_2,2023-11-01T15:51:31.182Z,,0,,,NaN,,,,,,false,,,,299734,299734,,299734,,299767,8,400,,,
sequence,flow.Sequence,4_55,2023-11-01T15:51:31.182Z,,0,,,2716,completion,,,,,false,,,,299735,299734,297000,296994,297018,299767,8,400,,,
trial,html.Screen,4_56_0,2023-11-01T15:51:33.758Z,,0,2,,2559,response,ISIC_5484086.JPG,10,ISIC_5063476.JPG,ISIC_5484086.JPG,false,1,keypress(m),500,302310,302310,299751,299735,299767,302334,8,400,7,,ISIC_5063476.JPG
break,html.Screen,4_56_1,2023-11-01T15:51:33.759Z,,0,,,NaN,,,,,,false,,,,302312,302312,,302311,,302334,8,400,,,
break_continue,html.Screen,4_56_2,2023-11-01T15:51:33.760Z,,0,,,NaN,,,,,,false,,,,302312,302312,,302312,,302334,8,400,,,
sequence,flow.Sequence,4_56,2023-11-01T15:51:33.760Z,,0,,,2545,completion,,,,,false,,,,302312,302312,299751,299735,299767,302334,8,400,,,
trial,html.Screen,4_57_0,2023-11-01T15:51:36.235Z,,0,2,,2470.000000000058,response,ISIC_0009992.JPG,7,ISIC_2729109.JPG,ISIC_2729109.JPG,false,0,keypress(z),500,304788,304787.00000000006,302317,302313,302334,304818,8,400,8,,ISIC_0009992.JPG
break,html.Screen,4_57_1,2023-11-01T15:51:36.236Z,,0,,,NaN,,,,,,false,,,,304789,304788,,304788,,304818,8,400,,,
break_continue,html.Screen,4_57_2,2023-11-01T15:51:36.237Z,,0,,,NaN,,,,,,false,,,,304789,304789,,304789,,304818,8,400,,,
sequence,flow.Sequence,4_57,2023-11-01T15:51:36.237Z,,0,,,2455,completion,,,,,false,,,,304789,304789,302317,302313,302334,304818,8,400,,,
trial,html.Screen,4_58_0,2023-11-01T15:51:38.632Z,,0,2,,2384,response,ISIC_6114646.JPG,5,ISIC_0032558.JPG,ISIC_6114646.JPG,false,1,keypress(m),500,307184,307184,304800,304790,304818,307218,8,400,9,,ISIC_0032558.JPG
break,html.Screen,4_58_1,2023-11-01T15:51:38.633Z,,0,,,NaN,,,,,,false,,,,307186,307186,,307185,,307218,8,400,,,
break_continue,html.Screen,4_58_2,2023-11-01T15:51:38.634Z,,0,,,NaN,,,,,,false,,,,307186,307186,,307186,,307218,8,400,,,
sequence,flow.Sequence,4_58,2023-11-01T15:51:38.634Z,,0,,,2368,completion,,,,,false,,,,307186,307186,304800,304790,304818,307218,8,400,,,
trial,html.Screen,4_59_0,2023-11-01T15:51:41.128Z,,0,2,,2478.000000000058,response,ISIC_0046345.JPG,15,ISIC_3059367.JPG,ISIC_3059367.JPG,false,0,keypress(z),500,309680,309679.00000000006,307201,307187,307218,309701,8,400,10,,ISIC_0046345.JPG
break,html.Screen,4_59_1,2023-11-01T15:51:41.129Z,,0,,,NaN,,,,,,false,,,,309682,309681,,309680,,309701,8,400,,,
break_continue,html.Screen,4_59_2,2023-11-01T15:51:41.129Z,,0,,,NaN,,,,,,false,,,,309682,309682,,309682,,309701,8,400,,,
sequence,flow.Sequence,4_59,2023-11-01T15:51:41.130Z,,0,,,2464,completion,,,,,false,,,,309682,309682,307201,307187,307218,309701,8,400,,,
trial,html.Screen,4_60_0,2023-11-01T15:51:45.169Z,,0,2,,4035,response,ISIC_7260013.JPG,1,ISIC_0070974.JPG,ISIC_7260013.JPG,false,1,keypress(m),500,313721,313721,309686,309683,309701,313751,8,400,11,,ISIC_0070974.JPG
break,html.Screen,4_60_1,2023-11-01T15:51:45.170Z,,0,,,NaN,,,,,,false,,,,313723,313722,,313722,,313751,8,400,,,
break_continue,html.Screen,4_60_2,2023-11-01T15:51:45.170Z,,0,,,NaN,,,,,,false,,,,313723,313723,,313723,,313751,8,400,,,
sequence,flow.Sequence,4_60,2023-11-01T15:51:45.170Z,,0,,,4022,completion,,,,,false,,,,313723,313723,309686,309683,309701,313751,8,400,,,
trial,html.Screen,4_61_0,2023-11-01T15:51:47.751Z,,0,2,,2568,response,ISIC_0006158.JPG,5,ISIC_0029729.JPG,ISIC_0006158.JPG,false,1,keypress(m),500,316304.00000000006,316303,313735,313723,313751,316335,8,400,12,,ISIC_0029729.JPG
break,html.Screen,4_61_1,2023-11-01T15:51:47.752Z,,0,,,NaN,,,,,,false,,,,316305,316305,,316304.00000000006,,316335,8,400,,,
break_continue,html.Screen,4_61_2,2023-11-01T15:51:47.753Z,,0,,,NaN,,,,,,false,,,,316306,316305,,316305,,316335,8,400,,,
sequence,flow.Sequence,4_61,2023-11-01T15:51:47.753Z,,0,,,2554,completion,,,,,false,,,,316306,316305,313735,313723,313751,316335,8,400,,,
trial,html.Screen,4_62_0,2023-11-01T15:51:50.581Z,,0,2,,2816,response,ISIC_0027112.JPG,3,ISIC_9317483.JPG,ISIC_0027112.JPG,false,1,keypress(m),500,319134,319134,316318,316306,316335,319168,8,400,13,,ISIC_9317483.JPG
break,html.Screen,4_62_1,2023-11-01T15:51:50.582Z,,0,,,NaN,,,,,,false,,,,319135,319134,,319134,,319168,8,400,,,
break_continue,html.Screen,4_62_2,2023-11-01T15:51:50.582Z,,0,,,NaN,,,,,,false,,,,319135,319135,,319135,,319168,8,400,,,
sequence,flow.Sequence,4_62,2023-11-01T15:51:50.582Z,,0,,,2800,completion,,,,,false,,,,319135,319135,316318,316306,316335,319168,8,400,,,
trial,html.Screen,4_63_0,2023-11-01T15:51:53.406Z,,0,2,,2807,response,ISIC_1570390.JPG,16,ISIC_0594534.JPG,ISIC_1570390.JPG,false,1,keypress(m),500,321959,321958,319151,319135,319168,321985,8,400,14,,ISIC_0594534.JPG
break,html.Screen,4_63_1,2023-11-01T15:51:53.408Z,,0,,,NaN,,,,,,false,,,,321960,321960,,321959,,321985,8,400,,,
break_continue,html.Screen,4_63_2,2023-11-01T15:51:53.408Z,,0,,,NaN,,,,,,false,,,,321961,321961,,321961,,321985,8,400,,,
sequence,flow.Sequence,4_63,2023-11-01T15:51:53.408Z,,0,,,2793,completion,,,,,false,,,,321961,321961,319151,319135,319168,321985,8,400,,,
trial,html.Screen,4_64_0,2023-11-01T15:51:55.981Z,,0,2,,2565,response,ISIC_0010742.JPG,11,ISIC_3593161.JPG,ISIC_3593161.JPG,false,0,keypress(z),500,324534,324533,321968,321961,321985,324568,8,400,15,,ISIC_0010742.JPG
break,html.Screen,4_64_1,2023-11-01T15:51:55.982Z,,0,,,NaN,,,,,,false,,,,324535,324535,,324534,,324568,8,400,,,
break_continue,html.Screen,4_64_2,2023-11-01T15:51:55.983Z,,0,,,NaN,,,,,,false,,,,324535,324535,,324535,,324568,8,400,,,
sequence,flow.Sequence,4_64,2023-11-01T15:51:55.983Z,,0,,,2550,completion,,,,,false,,,,324536,324535,321968,321961,321985,324568,8,400,,,
trial,html.Screen,4_65_0,2023-11-01T15:51:58.555Z,,0,2,,2556,response,ISIC_8199467.JPG,10,ISIC_0068166.JPG,ISIC_0068166.JPG,false,0,keypress(z),500,327108,327108,324552,324536,324568,327135,8,400,16,,ISIC_8199467.JPG
break,html.Screen,4_65_1,2023-11-01T15:51:58.557Z,,0,,,NaN,,,,,,false,,,,327110,327110,,327109,,327135,8,400,,,
break_continue,html.Screen,4_65_2,2023-11-01T15:51:58.557Z,,0,,,NaN,,,,,,false,,,,327111,327110,,327110,,327135,8,400,,,
sequence,flow.Sequence,4_65,2023-11-01T15:51:58.558Z,,0,,,2542,completion,,,,,false,,,,327111,327110,324552,324536,324568,327135,8,400,,,
trial,html.Screen,4_66_0,2023-11-01T15:52:01.083Z,,0,2,,2518,response,ISIC_0028069.JPG,12,ISIC_0030333.JPG,ISIC_0028069.JPG,false,1,keypress(m),500,329636,329636,327118,327111,327135,329668,8,400,17,,ISIC_0030333.JPG
break,html.Screen,4_66_1,2023-11-01T15:52:01.085Z,,0,,,NaN,,,,,,false,,,,329638.00000000006,329638.00000000006,,329637,,329668,8,400,,,
break_continue,html.Screen,4_66_2,2023-11-01T15:52:01.085Z,,0,,,NaN,,,,,,false,,,,329638.00000000006,329638.00000000006,,329638.00000000006,,329668,8,400,,,
sequence,flow.Sequence,4_66,2023-11-01T15:52:01.085Z,,0,,,2503.000000000058,completion,,,,,false,,,,329639,329638.00000000006,327118,327111,327135,329668,8,400,,,
trial,html.Screen,4_67_0,2023-11-01T15:52:03.922Z,,0,2,,2823,response,ISIC_6254731.JPG,7,ISIC_4000087.JPG,ISIC_4000087.JPG,false,0,keypress(z),500,332475,332474,329651,329639,329668,332502,8,400,18,,ISIC_6254731.JPG
break,html.Screen,4_67_1,2023-11-01T15:52:03.923Z,,0,,,NaN,,,,,,false,,,,332476,332476,,332475,,332502,8,400,,,
break_continue,html.Screen,4_67_2,2023-11-01T15:52:03.923Z,,0,,,NaN,,,,,,false,,,,332476,332476,,332476,,332502,8,400,,,
sequence,flow.Sequence,4_67,2023-11-01T15:52:03.923Z,,0,,,2808,completion,,,,,false,,,,332476,332476,329651,329639,329668,332502,8,400,,,
trial,html.Screen,4_68_0,2023-11-01T15:52:07.290Z,,0,2,,3358,response,ISIC_0683389.JPG,9,ISIC_0012701.JPG,ISIC_0683389.JPG,false,1,keypress(m),500,335844,335843,332485,332477.00000000006,332502,335868,8,400,19,,ISIC_0012701.JPG
break,html.Screen,4_68_1,2023-11-01T15:52:07.291Z,,0,,,NaN,,,,,,false,,,,335844,335844,,335844,,335868,8,400,,,
break_continue,html.Screen,4_68_2,2023-11-01T15:52:07.291Z,,0,,,NaN,,,,,,false,,,,335844,335844,,335844,,335868,8,400,,,
sequence,flow.Sequence,4_68,2023-11-01T15:52:07.291Z,,0,,,3342,completion,,,,,false,,,,335844,335844,332485,332477.00000000006,332502,335868,8,400,,,
trial,html.Screen,4_69_0,2023-11-01T15:52:09.966Z,,0,2,,2666,response,ISIC_0055931.JPG,3,ISIC_0010648.JPG,ISIC_0055931.JPG,false,1,keypress(m),500,338519,338518,335852,335844,335868,338552,8,400,20,,ISIC_0010648.JPG
break,html.Screen,4_69_1,2023-11-01T15:52:09.967Z,,0,,,NaN,,,,,,false,,,,338521,338520,,338519,,338552,8,400,,,
break_continue,html.Screen,4_69_2,2023-11-01T15:52:09.968Z,,0,,,NaN,,,,,,false,,,,338521,338521,,338521,,338552,8,400,,,
sequence,flow.Sequence,4_69,2023-11-01T15:52:09.968Z,,0,,,2653,completion,,,,,false,,,,338521,338521,335852,335844,335868,338552,8,400,,,
trial,html.Screen,4_70_0,2023-11-01T15:52:12.529Z,,0,2,,2547,response,ISIC_0011701.JPG,13,ISIC_0032369.JPG,ISIC_0032369.JPG,false,0,keypress(z),500,341083,341082,338535,338521,338552,341119,8,400,21,,ISIC_0011701.JPG
break,html.Screen,4_70_1,2023-11-01T15:52:12.531Z,,0,,,NaN,,,,,,false,,,,341084,341084,,341083,,341119,8,400,,,
break_continue,html.Screen,4_70_2,2023-11-01T15:52:12.531Z,,0,,,NaN,,,,,,false,,,,341085,341085,,341084,,341119,8,400,,,
sequence,flow.Sequence,4_70,2023-11-01T15:52:12.532Z,,0,,,2533,completion,,,,,false,,,,341085,341085,338535,338521,338552,341119,8,400,,,
trial,html.Screen,4_71_0,2023-11-01T15:52:15.108Z,,0,2,,2559,response,ISIC_0000121.JPG,9,ISIC_1851112.JPG,ISIC_1851112.JPG,false,0,keypress(z),500,343662.00000000006,343661,341102,341085,341119,343685,8,400,22,,ISIC_0000121.JPG
break,html.Screen,4_71_1,2023-11-01T15:52:15.109Z,,0,,,NaN,,,,,,false,,,,343663,343663,,343662.00000000006,,343685,8,400,,,
break_continue,html.Screen,4_71_2,2023-11-01T15:52:15.110Z,,0,,,NaN,,,,,,false,,,,343663,343663,,343663,,343685,8,400,,,
sequence,flow.Sequence,4_71,2023-11-01T15:52:15.110Z,,0,,,2544,completion,,,,,false,,,,343664,343663,341102,341085,341119,343685,8,400,,,
trial,html.Screen,4_72_0,2023-11-01T15:52:17.956Z,,0,2,,2841,response,ISIC_0067727.JPG,7,ISIC_1663144.JPG,ISIC_0067727.JPG,false,1,keypress(m),500,346510,346509,343668,343664,343685,346535,8,400,23,,ISIC_1663144.JPG
break,html.Screen,4_72_1,2023-11-01T15:52:17.958Z,,0,,,NaN,,,,,,false,,,,346511,346511,,346510,,346535,8,400,,,
break_continue,html.Screen,4_72_2,2023-11-01T15:52:17.958Z,,0,,,NaN,,,,,,false,,,,346512,346511,,346511,,346535,8,400,,,
sequence,flow.Sequence,4_72,2023-11-01T15:52:17.958Z,,0,,,2826,completion,,,,,false,,,,346512,346511,343668,343664,343685,346535,8,400,,,
trial,html.Screen,4_73_0,2023-11-01T15:52:20.378Z,,0,2,,2412,response,ISIC_3495113.JPG,6,ISIC_1369967.JPG,ISIC_3495113.JPG,false,1,keypress(m),500,348932,348931,346519,346512,346535,348969,8,400,24,,ISIC_1369967.JPG
break,html.Screen,4_73_1,2023-11-01T15:52:20.379Z,,0,,,NaN,,,,,,false,,,,348933,348932,,348932,,348969,8,400,,,
break_continue,html.Screen,4_73_2,2023-11-01T15:52:20.379Z,,0,,,NaN,,,,,,false,,,,348933,348933,,348933,,348969,8,400,,,
sequence,flow.Sequence,4_73,2023-11-01T15:52:20.379Z,,0,,,2398,completion,,,,,false,,,,348933,348933,346519,346512,346535,348969,8,400,,,
trial,html.Screen,4_74_0,2023-11-01T15:52:22.867Z,,0,2,,2468,response,ISIC_0029328.JPG,8,ISIC_1132788.JPG,ISIC_1132788.JPG,false,0,keypress(z),500,351421,351420,348952,348933,348969,351452,8,400,25,,ISIC_0029328.JPG
break,html.Screen,4_74_1,2023-11-01T15:52:22.869Z,,0,,,NaN,,,,,,false,,,,351423,351422,,351421,,351452,8,400,,,
break_continue,html.Screen,4_74_2,2023-11-01T15:52:22.869Z,,0,,,NaN,,,,,,false,,,,351423,351423,,351423,,351452,8,400,,,
sequence,flow.Sequence,4_74,2023-11-01T15:52:22.870Z,,0,,,2454,completion,,,,,false,,,,351423,351423,348952,348933,348969,351452,8,400,,,
trial,html.Screen,4_75_0,2023-11-01T15:52:25.412Z,,0,2,,2530.000000000058,response,ISIC_0030481.JPG,14,ISIC_0024333.JPG,ISIC_0024333.JPG,false,0,keypress(z),500,353966,353965.00000000006,351435,351423,351452,353986,8,400,26,,ISIC_0030481.JPG
break,html.Screen,4_75_1,2023-11-01T15:52:25.413Z,,0,,,NaN,,,,,,false,,,,353967,353967,,353966,,353986,8,400,,,
break_continue,html.Screen,4_75_2,2023-11-01T15:52:25.413Z,,0,,,NaN,,,,,,false,,,,353967,353967,,353967,,353986,8,400,,,
sequence,flow.Sequence,4_75,2023-11-01T15:52:25.414Z,,0,,,2515,completion,,,,,false,,,,353968,353967,351435,351423,351452,353986,8,400,,,
trial,html.Screen,4_76_0,2023-11-01T15:52:27.805Z,,0,2,,2388,response,ISIC_0034193.JPG,15,ISIC_0000450.JPG,ISIC_0000450.JPG,false,0,keypress(z),500,356359,356359,353971,353968,353986,356386,8,400,27,,ISIC_0034193.JPG
break,html.Screen,4_76_1,2023-11-01T15:52:27.807Z,,0,,,NaN,,,,,,false,,,,356361,356360,,356359,,356386,8,400,,,
break_continue,html.Screen,4_76_2,2023-11-01T15:52:27.807Z,,0,,,NaN,,,,,,false,,,,356361,356361,,356361,,356386,8,400,,,
sequence,flow.Sequence,4_76,2023-11-01T15:52:27.807Z,,0,,,2375,completion,,,,,false,,,,356361,356361,353971,353968,353986,356386,8,400,,,
trial,html.Screen,4_77_0,2023-11-01T15:52:30.236Z,,0,2,,2420,response,ISIC_0066740.JPG,11,ISIC_1323048.JPG,ISIC_1323048.JPG,false,0,keypress(z),500,358790,358789,356369,356362,356386,358818,8,400,28,,ISIC_0066740.JPG
break,html.Screen,4_77_1,2023-11-01T15:52:30.237Z,,0,,,NaN,,,,,,false,,,,358791,358791,,358790,,358818,8,400,,,
break_continue,html.Screen,4_77_2,2023-11-01T15:52:30.238Z,,0,,,NaN,,,,,,false,,,,358792.00000000006,358792.00000000006,,358792.00000000006,,358818,8,400,,,
sequence,flow.Sequence,4_77,2023-11-01T15:52:30.238Z,,0,,,2406.000000000058,completion,,,,,false,,,,358792.00000000006,358792.00000000006,356369,356362,356386,358818,8,400,,,
trial,html.Screen,4_78_0,2023-11-01T15:52:32.799Z,,0,2,,2551,response,ISIC_9574191.JPG,3,ISIC_7136995.JPG,ISIC_7136995.JPG,false,0,keypress(z),500,361353,361353,358802,358792.00000000006,358818,361385,8,400,29,,ISIC_9574191.JPG
break,html.Screen,4_78_1,2023-11-01T15:52:32.801Z,,0,,,NaN,,,,,,false,,,,361355,361355,,361354,,361385,8,400,,,
break_continue,html.Screen,4_78_2,2023-11-01T15:52:32.801Z,,0,,,NaN,,,,,,false,,,,361355,361355,,361355,,361385,8,400,,,
sequence,flow.Sequence,4_78,2023-11-01T15:52:32.802Z,,0,,,2537,completion,,,,,false,,,,361356,361355,358802,358792.00000000006,358818,361385,8,400,,,
trial,html.Screen,4_79_0,2023-11-01T15:52:35.334Z,,0,2,,2519.000000000058,response,ISIC_7648726.JPG,7,ISIC_5308066.JPG,ISIC_5308066.JPG,false,0,keypress(z),500,363888.00000000006,363888.00000000006,361369,361356,361385,363919,8,400,30,,ISIC_7648726.JPG
break,html.Screen,4_79_1,2023-11-01T15:52:35.335Z,,0,,,NaN,,,,,,false,,,,363890,363889,,363889,,363919,8,400,,,
break_continue,html.Screen,4_79_2,2023-11-01T15:52:35.336Z,,0,,,NaN,,,,,,false,,,,363890,363890,,363890,,363919,8,400,,,
sequence,flow.Sequence,4_79,2023-11-01T15:52:35.336Z,,0,,,2505,completion,,,,,false,,,,363890,363890,361369,361356,361385,363919,8,400,,,
trial,html.Screen,4_80_0,2023-11-01T15:52:38.172Z,,0,2,,2824,response,ISIC_4329176.JPG,7,ISIC_0014222.JPG,ISIC_0014222.JPG,false,0,keypress(z),500,366726,366726,363902,363890,363919,366752,8,400,31,,ISIC_4329176.JPG
break,html.Screen,4_80_1,2023-11-01T15:52:38.174Z,,0,,,NaN,,,,,,false,,,,366728,366728,,366727.00000000006,,366752,8,400,,,
break_continue,html.Screen,4_80_2,2023-11-01T15:52:38.174Z,,0,,,NaN,,,,,,false,,,,366728,366728,,366728,,366752,8,400,,,
sequence,flow.Sequence,4_80,2023-11-01T15:52:38.174Z,,0,,,2809,completion,,,,,false,,,,366729,366728,363902,363890,363919,366752,8,400,,,
trial,html.Screen,4_81_0,2023-11-01T15:52:41.219Z,,0,2,,3037,response,ISIC_0070215.JPG,5,ISIC_4174983.JPG,ISIC_0070215.JPG,false,1,keypress(m),500,369774,369773,366736,366729,366752,369803,8,400,32,,ISIC_4174983.JPG
break,html.Screen,4_81_1,2023-11-01T15:52:41.221Z,,0,,,NaN,,,,,,false,,,,369775.00000000006,369775.00000000006,,369774,,369803,8,400,,,
break_continue,html.Screen,4_81_2,2023-11-01T15:52:41.221Z,,0,,,NaN,,,,,,false,,,,369776,369775.00000000006,,369775.00000000006,,369803,8,400,,,
sequence,flow.Sequence,4_81,2023-11-01T15:52:41.222Z,,0,,,3023.000000000058,completion,,,,,false,,,,369776,369775.00000000006,366736,366729,366752,369803,8,400,,,
trial,html.Screen,4_82_0,2023-11-01T15:52:44.166Z,,0,2,,2934,response,ISIC_4695396.JPG,5,ISIC_5951430.JPG,ISIC_5951430.JPG,false,0,keypress(z),500,372720,372720,369786,369776,369803,372752,8,400,33,,ISIC_4695396.JPG
break,html.Screen,4_82_1,2023-11-01T15:52:44.167Z,,0,,,NaN,,,,,,false,,,,372722,372721,,372720,,372752,8,400,,,
break_continue,html.Screen,4_82_2,2023-11-01T15:52:44.168Z,,0,,,NaN,,,,,,false,,,,372722,372722,,372722,,372752,8,400,,,
sequence,flow.Sequence,4_82,2023-11-01T15:52:44.168Z,,0,,,2919,completion,,,,,false,,,,372722,372722,369786,369776,369803,372752,8,400,,,
trial,html.Screen,4_83_0,2023-11-01T15:52:46.959Z,,0,2,,2777.000000000058,response,ISIC_2307760.JPG,11,ISIC_0025056.JPG,ISIC_2307760.JPG,false,1,keypress(m),500,375513.00000000006,375513.00000000006,372736,372723,372752,375536,8,400,34,,ISIC_0025056.JPG
break,html.Screen,4_83_1,2023-11-01T15:52:46.960Z,,0,,,NaN,,,,,,false,,,,375514,375514,,375513.00000000006,,375536,8,400,,,
break_continue,html.Screen,4_83_2,2023-11-01T15:52:46.960Z,,0,,,NaN,,,,,,false,,,,375515,375515,,375515,,375536,8,400,,,
sequence,flow.Sequence,4_83,2023-11-01T15:52:46.961Z,,0,,,2763,completion,,,,,false,,,,375515,375515,372736,372722,372752,375536,8,400,,,
trial,html.Screen,4_84_0,2023-11-01T15:52:49.787Z,,0,2,,2822,response,ISIC_5324623.JPG,2,ISIC_2002605.JPG,ISIC_5324623.JPG,false,1,keypress(m),500,378341,378341,375519,375515,375536,378370,8,400,35,,ISIC_2002605.JPG
break,html.Screen,4_84_1,2023-11-01T15:52:49.788Z,,0,,,NaN,,,,,,false,,,,378343,378342,,378342,,378370,8,400,,,
break_continue,html.Screen,4_84_2,2023-11-01T15:52:49.789Z,,0,,,NaN,,,,,,false,,,,378343,378343,,378343,,378370,8,400,,,
sequence,flow.Sequence,4_84,2023-11-01T15:52:49.789Z,,0,,,2807,completion,,,,,false,,,,378343,378343,375519,375515,375536,378370,8,400,,,
trial,html.Screen,4_85_0,2023-11-01T15:52:52.216Z,,0,2,,2417,response,ISIC_3342474.JPG,3,ISIC_0231167.JPG,ISIC_0231167.JPG,false,0,keypress(z),500,380771,380770,378353,378344,378370,380803,8,400,36,,ISIC_3342474.JPG
break,html.Screen,4_85_1,2023-11-01T15:52:52.218Z,,0,,,NaN,,,,,,false,,,,380772,380772,,380771,,380803,8,400,,,
break_continue,html.Screen,4_85_2,2023-11-01T15:52:52.218Z,,0,,,NaN,,,,,,false,,,,380773,380773,,380773,,380803,8,400,,,
sequence,flow.Sequence,4_85,2023-11-01T15:52:52.218Z,,0,,,2403,completion,,,,,false,,,,380773,380773,378353,378344,378370,380803,8,400,,,
trial,html.Screen,4_86_0,2023-11-01T15:52:54.701Z,,0,2,,2469,response,ISIC_0009721.JPG,12,ISIC_0010775.JPG,ISIC_0009721.JPG,false,1,keypress(m),500,383255,383255,380786,380773,380803,383286,8,400,37,,ISIC_0010775.JPG
break,html.Screen,4_86_1,2023-11-01T15:52:54.702Z,,0,,,NaN,,,,,,false,,,,383257,383257,,383256,,383286,8,400,,,
break_continue,html.Screen,4_86_2,2023-11-01T15:52:54.702Z,,0,,,NaN,,,,,,false,,,,383257,383257,,383257,,383286,8,400,,,
sequence,flow.Sequence,4_86,2023-11-01T15:52:54.703Z,,0,,,2454,completion,,,,,false,,,,383257,383257,380786,380773,380803,383286,8,400,,,
trial,html.Screen,4_87_0,2023-11-01T15:52:57.233Z,,0,2,,2517.000000000058,response,ISIC_0056156.JPG,6,ISIC_0053554.JPG,ISIC_0053554.JPG,false,0,keypress(z),500,385787.00000000006,385787.00000000006,383270,383258,383286,385820,8,400,38,,ISIC_0056156.JPG
break,html.Screen,4_87_1,2023-11-01T15:52:57.234Z,,0,,,NaN,,,,,,false,,,,385789,385789,,385788,,385820,8,400,,,
break_continue,html.Screen,4_87_2,2023-11-01T15:52:57.234Z,,0,,,NaN,,,,,,false,,,,385789,385789,,385789,,385820,8,400,,,
sequence,flow.Sequence,4_87,2023-11-01T15:52:57.234Z,,0,,,2503,completion,,,,,false,,,,385789,385789,383270,383258,383286,385820,8,400,,,
trial,html.Screen,4_88_0,2023-11-01T15:53:00.109Z,,0,2,,2860,response,ISIC_5267208.JPG,2,ISIC_0014790.JPG,ISIC_5267208.JPG,false,1,keypress(m),500,388664,388663,385803,385789,385820,388686,8,400,39,,ISIC_0014790.JPG
break,html.Screen,4_88_1,2023-11-01T15:53:00.111Z,,0,,,NaN,,,,,,false,,,,388665,388665,,388664,,388686,8,400,,,
break_continue,html.Screen,4_88_2,2023-11-01T15:53:00.111Z,,0,,,NaN,,,,,,false,,,,388666,388666,,388666,,388686,8,400,,,
sequence,flow.Sequence,4_88,2023-11-01T15:53:00.111Z,,0,,,2846,completion,,,,,false,,,,388666,388666,385803,385789,385820,388686,8,400,,,
trial,html.Screen,4_89_0,2023-11-01T15:53:02.719Z,,0,2,,2604,response,ISIC_0011460.JPG,6,ISIC_3492490.JPG,ISIC_3492490.JPG,false,0,keypress(z),500,391274,391274,388670,388666,388686,391303,8,400,40,,ISIC_0011460.JPG
break,html.Screen,4_89_1,2023-11-01T15:53:02.720Z,,0,,,NaN,,,,,,false,,,,391275.00000000006,391275.00000000006,,391274,,391303,8,400,,,
break_continue,html.Screen,4_89_2,2023-11-01T15:53:02.721Z,,0,,,NaN,,,,,,false,,,,391276,391276,,391276,,391303,8,400,,,
sequence,flow.Sequence,4_89,2023-11-01T15:53:02.721Z,,0,,,2590,completion,,,,,false,,,,391276,391276,388670,388666,388686,391303,8,400,,,
trial,html.Screen,4_90_0,2023-11-01T15:53:05.646Z,,0,2,,2914,response,ISIC_0026509.JPG,1,ISIC_0025219.JPG,ISIC_0026509.JPG,false,1,keypress(m),500,394201,394201,391287,391276,391303,394237,8,400,41,,ISIC_0025219.JPG
break,html.Screen,4_90_1,2023-11-01T15:53:05.648Z,,0,,,NaN,,,,,,false,,,,394203.00000000006,394202,,394202,,394237,8,400,,,
break_continue,html.Screen,4_90_2,2023-11-01T15:53:05.648Z,,0,,,NaN,,,,,,false,,,,394203.00000000006,394203.00000000006,,394203.00000000006,,394237,8,400,,,
sequence,flow.Sequence,4_90,2023-11-01T15:53:05.648Z,,0,,,2900.000000000058,completion,,,,,false,,,,394204,394203.00000000006,391287,391276,391303,394237,8,400,,,
trial,html.Screen,4_91_0,2023-11-01T15:53:08.327Z,,0,2,,2661,response,ISIC_0003150.JPG,11,ISIC_6811363.JPG,ISIC_0003150.JPG,false,1,keypress(m),500,396882,396881,394220,394204,394237,396920,8,400,42,,ISIC_6811363.JPG
break,html.Screen,4_91_1,2023-11-01T15:53:08.328Z,,0,,,NaN,,,,,,false,,,,396883,396883,,396882,,396920,8,400,,,
break_continue,html.Screen,4_91_2,2023-11-01T15:53:08.329Z,,0,,,NaN,,,,,,false,,,,396884,396884,,396883,,396920,8,400,,,
sequence,flow.Sequence,4_91,2023-11-01T15:53:08.329Z,,0,,,2647,completion,,,,,false,,,,396884,396884,394220,394204,394237,396920,8,400,,,
trial,html.Screen,4_92_0,2023-11-01T15:53:11.472Z,,0,2,,3124,response,ISIC_8738598.JPG,9,ISIC_0011139.JPG,ISIC_8738598.JPG,false,1,keypress(m),500,400027,400027,396903,396884,396920,400053,8,400,43,,ISIC_0011139.JPG
break,html.Screen,4_92_1,2023-11-01T15:53:11.473Z,,0,,,NaN,,,,,,false,,,,400029,400029,,400028,,400053,8,400,,,
break_continue,html.Screen,4_92_2,2023-11-01T15:53:11.474Z,,0,,,NaN,,,,,,false,,,,400029,400029,,400029,,400053,8,400,,,
sequence,flow.Sequence,4_92,2023-11-01T15:53:11.474Z,,0,,,3109,completion,,,,,false,,,,400029,400029,396903,396884,396920,400053,8,400,,,
trial,html.Screen,4_93_0,2023-11-01T15:53:16.218Z,,0,2,,4735,response,ISIC_0067808.JPG,4,ISIC_0066992.JPG,ISIC_0067808.JPG,false,1,keypress(m),500,404773,404772,400037,400030.00000000006,400053,404803,8,400,44,,ISIC_0066992.JPG
break,html.Screen,4_93_1,2023-11-01T15:53:16.220Z,,0,,,NaN,,,,,,false,,,,404775.00000000006,404775.00000000006,,404774,,404803,8,400,,,
break_continue,html.Screen,4_93_2,2023-11-01T15:53:16.220Z,,0,,,NaN,,,,,,false,,,,404776,404776,,404775.00000000006,,404803,8,400,,,
sequence,flow.Sequence,4_93,2023-11-01T15:53:16.221Z,,0,,,4723,completion,,,,,false,,,,404776,404776,400037,400029,400053,404803,8,400,,,
trial,html.Screen,4_94_0,2023-11-01T15:53:20.441Z,,0,2,,4209,response,ISIC_2987677.JPG,3,ISIC_0031958.JPG,ISIC_2987677.JPG,false,1,keypress(m),500,408996,408996,404787,404776,404803,409020,8,400,45,,ISIC_0031958.JPG
break,html.Screen,4_94_1,2023-11-01T15:53:20.442Z,,0,,,NaN,,,,,,false,,,,408997,408997,,408996,,409020,8,400,,,
break_continue,html.Screen,4_94_2,2023-11-01T15:53:20.442Z,,0,,,NaN,,,,,,false,,,,408998,408998,,408997,,409020,8,400,,,
sequence,flow.Sequence,4_94,2023-11-01T15:53:20.442Z,,0,,,4195,completion,,,,,false,,,,408998,408998,404787,404776,404803,409020,8,400,,,
trial,html.Screen,4_95_0,2023-11-01T15:53:23.207Z,,0,2,,2759,response,ISIC_0011288.JPG,14,ISIC_0356611.JPG,ISIC_0356611.JPG,false,0,keypress(z),500,411763.00000000006,411762,409003,408998,409020,411787,8,400,46,,ISIC_0011288.JPG
break,html.Screen,4_95_1,2023-11-01T15:53:23.209Z,,0,,,NaN,,,,,,false,,,,411764,411764,,411763.00000000006,,411787,8,400,,,
break_continue,html.Screen,4_95_2,2023-11-01T15:53:23.209Z,,0,,,NaN,,,,,,false,,,,411765,411765,,411764,,411787,8,400,,,
sequence,flow.Sequence,4_95,2023-11-01T15:53:23.209Z,,0,,,2745,completion,,,,,false,,,,411765,411765,409003,408998,409020,411787,8,400,,,
trial,html.Screen,4_96_0,2023-11-01T15:53:26.061Z,,0,2,,2846,response,ISIC_0033595.JPG,9,ISIC_9462738.JPG,ISIC_0033595.JPG,false,1,keypress(m),500,414616,414616,411770,411765,411787,414653,8,400,47,,ISIC_9462738.JPG
break,html.Screen,4_96_1,2023-11-01T15:53:26.062Z,,0,,,NaN,,,,,,false,,,,414617,414617,,414617,,414653,8,400,,,
break_continue,html.Screen,4_96_2,2023-11-01T15:53:26.062Z,,0,,,NaN,,,,,,false,,,,414618,414618,,414617,,414653,8,400,,,
sequence,flow.Sequence,4_96,2023-11-01T15:53:26.062Z,,0,,,2831,completion,,,,,false,,,,414618,414618,411770,411765,411787,414653,8,400,,,
trial,html.Screen,4_97_0,2023-11-01T15:53:29.336Z,,0,2,,3254,response,ISIC_0000176.JPG,11,ISIC_0033037.JPG,ISIC_0033037.JPG,false,0,keypress(z),500,417892,417891,414637,414618,414653,417921,8,400,48,,ISIC_0000176.JPG
break,html.Screen,4_97_1,2023-11-01T15:53:29.337Z,,0,,,NaN,,,,,,false,,,,417893,417893,,417892,,417921,8,400,,,
break_continue,html.Screen,4_97_2,2023-11-01T15:53:29.337Z,,0,,,NaN,,,,,,false,,,,417893,417893,,417893,,417921,8,400,,,
sequence,flow.Sequence,4_97,2023-11-01T15:53:29.337Z,,0,,,3240,completion,,,,,false,,,,417893,417893,414637,414618,414653,417921,8,400,,,
trial,html.Screen,4_98_0,2023-11-01T15:53:31.873Z,,0,2,,2524,response,ISIC_1612350.JPG,0,ISIC_0033061.JPG,ISIC_1612350.JPG,false,1,keypress(m),500,420429.00000000006,420428,417904,417893,417921,420454,8,400,49,,ISIC_0033061.JPG
break,html.Screen,4_98_1,2023-11-01T15:53:31.874Z,,0,,,NaN,,,,,,false,,,,420430,420430,,420429.00000000006,,420454,8,400,,,
break_continue,html.Screen,4_98_2,2023-11-01T15:53:31.875Z,,0,,,NaN,,,,,,false,,,,420431,420430,,420430,,420454,8,400,,,
sequence,flow.Sequence,4_98,2023-11-01T15:53:31.875Z,,0,,,2509,completion,,,,,false,,,,420431,420430,417904,417893,417921,420454,8,400,,,
trial,html.Screen,4_99_0,2023-11-01T15:53:34.595Z,,0,2,,2713.000000000058,response,ISIC_5866419.JPG,11,ISIC_9803747.JPG,ISIC_9803747.JPG,false,0,keypress(z),500,423151,423150.00000000006,420437,420431,420454,423187,8,400,50,,ISIC_5866419.JPG
break,html.Screen,4_99_1,2023-11-01T15:53:44.615Z,,0,,,10000,timeout,,,,,false,,,,433172,433171,423171,423151,423187,433187,8,400,,,
break_continue,html.Screen,4_99_2,2023-11-01T15:54:18.112Z,,0,,,33547,response,,,,,false,continue,keypress(Space),,466669,466718,433171,433172,433187,466705,8,400,,,
sequence,flow.Sequence,4_99,2023-11-01T15:54:18.112Z,,0,,,46264,completion,,,,,false,,,,466669,466718,420437,420431,420454,466705,8,400,,,
trial,html.Screen,4_100_0,2023-11-01T15:54:20.683Z,,0,3,,2552,response,ISIC_2299862.JPG,1,ISIC_5983500.JPG,ISIC_2299862.JPG,false,1,keypress(m),500,469240,469240,466688,466669,466705,469272,8,400,1,,ISIC_5983500.JPG
break,html.Screen,4_100_1,2023-11-01T15:54:20.684Z,,0,,,NaN,,,,,,false,,,,469242,469241,,469241,,469272,8,400,,,
break_continue,html.Screen,4_100_2,2023-11-01T15:54:20.685Z,,0,,,NaN,,,,,,false,,,,469242,469242,,469242,,469272,8,400,,,
sequence,flow.Sequence,4_100,2023-11-01T15:54:20.685Z,,0,,,2537,completion,,,,,false,,,,469243,469242,466688,466669,466705,469272,8,400,,,
trial,html.Screen,4_101_0,2023-11-01T15:54:23.320Z,,0,3,,2622,response,ISIC_7167811.JPG,16,ISIC_0063225.JPG,ISIC_7167811.JPG,false,1,keypress(m),500,471878,471877,469255,469243,469272,471905,8,400,2,,ISIC_0063225.JPG
break,html.Screen,4_101_1,2023-11-01T15:54:23.322Z,,0,,,NaN,,,,,,false,,,,471879,471879,,471878,,471905,8,400,,,
break_continue,html.Screen,4_101_2,2023-11-01T15:54:23.322Z,,0,,,NaN,,,,,,false,,,,471880,471879,,471879,,471905,8,400,,,
sequence,flow.Sequence,4_101,2023-11-01T15:54:23.322Z,,0,,,2607,completion,,,,,false,,,,471880,471879,469255,469243,469272,471905,8,400,,,
trial,html.Screen,4_102_0,2023-11-01T15:54:25.919Z,,0,3,,2588,response,ISIC_0813342.JPG,7,ISIC_0056739.JPG,ISIC_0813342.JPG,false,1,keypress(m),500,474476,474476,471888,471880,471905,474505,8,400,3,,ISIC_0056739.JPG
break,html.Screen,4_102_1,2023-11-01T15:54:25.920Z,,0,,,NaN,,,,,,false,,,,474478,474477.00000000006,,474476,,474505,8,400,,,
break_continue,html.Screen,4_102_2,2023-11-01T15:54:25.921Z,,0,,,NaN,,,,,,false,,,,474478,474478,,474478,,474505,8,400,,,
sequence,flow.Sequence,4_102,2023-11-01T15:54:25.921Z,,0,,,2573,completion,,,,,false,,,,474478,474478,471888,471880,471905,474505,8,400,,,
trial,html.Screen,4_103_0,2023-11-01T15:54:28.559Z,,0,3,,2627,response,ISIC_0163812.JPG,5,ISIC_0028420.JPG,ISIC_0028420.JPG,false,0,keypress(z),500,477116,477116,474489,474479,474505,477138,8,400,4,,ISIC_0163812.JPG
break,html.Screen,4_103_1,2023-11-01T15:54:28.560Z,,0,,,NaN,,,,,,false,,,,477118,477118,,477117,,477138,8,400,,,
break_continue,html.Screen,4_103_2,2023-11-01T15:54:28.561Z,,0,,,NaN,,,,,,false,,,,477118,477118,,477118,,477138,8,400,,,
sequence,flow.Sequence,4_103,2023-11-01T15:54:28.561Z,,0,,,2613,completion,,,,,false,,,,477118,477118,474489,474479,474505,477138,8,400,,,
trial,html.Screen,4_104_0,2023-11-01T15:54:31.265Z,,0,3,,2701,response,ISIC_0030656.JPG,0,ISIC_0029071.JPG,ISIC_0030656.JPG,false,1,keypress(m),500,479823.00000000006,479822,477121,477119,477138,479855,8,400,5,,ISIC_0029071.JPG
break,html.Screen,4_104_1,2023-11-01T15:54:31.266Z,,0,,,NaN,,,,,,false,,,,479824,479824,,479823.00000000006,,479855,8,400,,,
break_continue,html.Screen,4_104_2,2023-11-01T15:54:31.267Z,,0,,,NaN,,,,,,false,,,,479825,479824,,479824,,479855,8,400,,,
sequence,flow.Sequence,4_104,2023-11-01T15:54:31.267Z,,0,,,2686,completion,,,,,false,,,,479825,479824,477121,477119,477138,479855,8,400,,,
trial,html.Screen,4_105_0,2023-11-01T15:54:33.741Z,,0,3,,2460,response,ISIC_3305153.JPG,5,ISIC_7354733.JPG,ISIC_3305153.JPG,false,1,keypress(m),500,482299.00000000006,482298,479838,479825,479855,482322,8,400,6,,ISIC_7354733.JPG
break,html.Screen,4_105_1,2023-11-01T15:54:33.742Z,,0,,,NaN,,,,,,false,,,,482300,482300,,482299.00000000006,,482322,8,400,,,
break_continue,html.Screen,4_105_2,2023-11-01T15:54:33.743Z,,0,,,NaN,,,,,,false,,,,482300,482300,,482300,,482322,8,400,,,
sequence,flow.Sequence,4_105,2023-11-01T15:54:33.743Z,,0,,,2445,completion,,,,,false,,,,482300,482300,479838,479825,479855,482322,8,400,,,
trial,html.Screen,4_106_0,2023-11-01T15:54:37.051Z,,0,3,,3303,response,ISIC_4189981.JPG,1,ISIC_3463156.JPG,ISIC_3463156.JPG,false,0,keypress(z),500,485609.00000000006,485608,482305,482301,482322,485639,8,400,7,,ISIC_4189981.JPG
break,html.Screen,4_106_1,2023-11-01T15:54:37.052Z,,0,,,NaN,,,,,,false,,,,485610,485610,,485609.00000000006,,485639,8,400,,,
break_continue,html.Screen,4_106_2,2023-11-01T15:54:37.053Z,,0,,,NaN,,,,,,false,,,,485611,485611,,485611,,485639,8,400,,,
sequence,flow.Sequence,4_106,2023-11-01T15:54:37.053Z,,0,,,3289,completion,,,,,false,,,,485611,485611,482305,482301,482322,485639,8,400,,,
trial,html.Screen,4_107_0,2023-11-01T15:54:39.918Z,,0,3,,2853,response,ISIC_0065918.JPG,7,ISIC_0063516.JPG,ISIC_0065918.JPG,false,1,keypress(m),500,488476,488475,485622,485611,485639,488506,8,400,8,,ISIC_0063516.JPG
break,html.Screen,4_107_1,2023-11-01T15:54:39.919Z,,0,,,NaN,,,,,,false,,,,488477.00000000006,488477.00000000006,,488476,,488506,8,400,,,
break_continue,html.Screen,4_107_2,2023-11-01T15:54:39.920Z,,0,,,NaN,,,,,,false,,,,488478,488478,,488478,,488506,8,400,,,
sequence,flow.Sequence,4_107,2023-11-01T15:54:39.920Z,,0,,,2839,completion,,,,,false,,,,488478,488478,485622,485611,485639,488506,8,400,,,
trial,html.Screen,4_108_0,2023-11-01T15:54:42.840Z,,0,3,,2909,response,ISIC_5758316.JPG,12,ISIC_0033517.JPG,ISIC_5758316.JPG,false,1,keypress(m),500,491398,491398,488489,488478,488506,491422,8,400,9,,ISIC_0033517.JPG
break,html.Screen,4_108_1,2023-11-01T15:54:42.842Z,,0,,,NaN,,,,,,false,,,,491400.00000000006,491400.00000000006,,491399,,491422,8,400,,,
break_continue,html.Screen,4_108_2,2023-11-01T15:54:42.842Z,,0,,,NaN,,,,,,false,,,,491400.00000000006,491400.00000000006,,491400.00000000006,,491422,8,400,,,
sequence,flow.Sequence,4_108,2023-11-01T15:54:42.843Z,,0,,,2894.000000000058,completion,,,,,false,,,,491401,491400.00000000006,488489,488478,488506,491422,8,400,,,
trial,html.Screen,4_109_0,2023-11-01T15:54:45.376Z,,0,3,,2529,response,ISIC_0060705.JPG,1,ISIC_1383822.JPG,ISIC_1383822.JPG,false,0,keypress(z),500,493934,493934,491405,491401,491422,493972,8,400,10,,ISIC_0060705.JPG
break,html.Screen,4_109_1,2023-11-01T15:54:45.377Z,,0,,,NaN,,,,,,false,,,,493936.00000000006,493935,,493935,,493972,8,400,,,
break_continue,html.Screen,4_109_2,2023-11-01T15:54:45.378Z,,0,,,NaN,,,,,,false,,,,493936.00000000006,493936.00000000006,,493936.00000000006,,493972,8,400,,,
sequence,flow.Sequence,4_109,2023-11-01T15:54:45.378Z,,0,,,2514.000000000058,completion,,,,,false,,,,493937,493936.00000000006,491405,491401,491422,493972,8,400,,,
trial,html.Screen,4_110_0,2023-11-01T15:54:48.168Z,,0,3,,2769,response,ISIC_2964397.JPG,2,ISIC_3274493.JPG,ISIC_3274493.JPG,false,0,keypress(z),500,496726,496725,493956,493937,493972,496756,8,400,11,,ISIC_2964397.JPG
break,html.Screen,4_110_1,2023-11-01T15:54:48.169Z,,0,,,NaN,,,,,,false,,,,496727.00000000006,496727.00000000006,,496726,,496756,8,400,,,
break_continue,html.Screen,4_110_2,2023-11-01T15:54:48.170Z,,0,,,NaN,,,,,,false,,,,496728,496728,,496728,,496756,8,400,,,
sequence,flow.Sequence,4_110,2023-11-01T15:54:48.170Z,,0,,,2756,completion,,,,,false,,,,496728,496728,493956,493937,493972,496756,8,400,,,
trial,html.Screen,4_111_0,2023-11-01T15:54:50.695Z,,0,3,,2513,response,ISIC_0069492.JPG,0,ISIC_7765349.JPG,ISIC_7765349.JPG,false,0,keypress(z),500,499253,499252,496739,496729,496756,499289,8,400,12,,ISIC_0069492.JPG
break,html.Screen,4_111_1,2023-11-01T15:54:50.696Z,,0,,,NaN,,,,,,false,,,,499254,499254,,499253,,499289,8,400,,,
break_continue,html.Screen,4_111_2,2023-11-01T15:54:50.697Z,,0,,,NaN,,,,,,false,,,,499255,499255,,499255,,499289,8,400,,,
sequence,flow.Sequence,4_111,2023-11-01T15:54:50.697Z,,0,,,2499,completion,,,,,false,,,,499255,499255,496739,496728,496756,499289,8,400,,,
trial,html.Screen,4_112_0,2023-11-01T15:54:53.374Z,,0,3,,2659,response,ISIC_1177153.JPG,3,ISIC_7052658.JPG,ISIC_7052658.JPG,false,0,keypress(z),500,501932,501932,499273,499255,499289,501956,8,400,13,,ISIC_1177153.JPG
break,html.Screen,4_112_1,2023-11-01T15:54:53.375Z,,0,,,NaN,,,,,,false,,,,501934,501933,,501933,,501956,8,400,,,
break_continue,html.Screen,4_112_2,2023-11-01T15:54:53.376Z,,0,,,NaN,,,,,,false,,,,501934,501934,,501934,,501956,8,400,,,
sequence,flow.Sequence,4_112,2023-11-01T15:54:53.376Z,,0,,,2645,completion,,,,,false,,,,501934,501934,499273,499255,499289,501956,8,400,,,
trial,html.Screen,4_113_0,2023-11-01T15:55:04.881Z,,0,3,,11516,timeout,ISIC_0025814.JPG,7,ISIC_0014144.JPG,,false,,,500,513440.00000000006,513438.99999999994,501939,501935,501956,513472,8,400,14,,
break,html.Screen,4_113_1,2023-11-01T15:55:04.882Z,,0,,,NaN,,,,,,false,,,,513441.00000000006,513441.00000000006,,513440.00000000006,,513472,8,400,,,
break_continue,html.Screen,4_113_2,2023-11-01T15:55:04.883Z,,0,,,NaN,,,,,,false,,,,513442,513441.00000000006,,513441.00000000006,,513472,8,400,,,
sequence,flow.Sequence,4_113,2023-11-01T15:55:04.883Z,,0,,,11485.000000000058,completion,,,,,false,,,,513442,513441.00000000006,501939,501935,501956,513472,8,400,,,
trial,html.Screen,4_114_0,2023-11-01T15:55:08.729Z,,0,3,,3831.000000000058,response,ISIC_8749288.JPG,6,ISIC_8951909.JPG,ISIC_8749288.JPG,false,1,keypress(m),500,517288,517287.00000000006,513456,513442,513472,517323,8,400,15,,ISIC_8951909.JPG
break,html.Screen,4_114_1,2023-11-01T15:55:08.730Z,,0,,,NaN,,,,,,false,,,,517289,517289,,517288,,517323,8,400,,,
break_continue,html.Screen,4_114_2,2023-11-01T15:55:08.731Z,,0,,,NaN,,,,,,false,,,,517289.99999999994,517289.99999999994,,517289,,517323,8,400,,,
sequence,flow.Sequence,4_114,2023-11-01T15:55:08.731Z,,0,,,3817.999999999942,completion,,,,,false,,,,517289.99999999994,517289.99999999994,513456,513442,513472,517323,8,400,,,
trial,html.Screen,4_115_0,2023-11-01T15:55:11.872Z,,0,3,,3124.000000000058,response,ISIC_0028759.JPG,9,ISIC_2914160.JPG,ISIC_2914160.JPG,false,0,keypress(z),500,520431.00000000006,520430.00000000006,517306,517289.99999999994,517323,520456,8,400,16,,ISIC_0028759.JPG
break,html.Screen,4_115_1,2023-11-01T15:55:11.873Z,,0,,,NaN,,,,,,false,,,,520432,520432,,520431.00000000006,,520456,8,400,,,
break_continue,html.Screen,4_115_2,2023-11-01T15:55:11.874Z,,0,,,NaN,,,,,,false,,,,520433,520432,,520432,,520456,8,400,,,
sequence,flow.Sequence,4_115,2023-11-01T15:55:11.874Z,,0,,,3109,completion,,,,,false,,,,520433,520432,517306,517289.99999999994,517323,520456,8,400,,,
trial,html.Screen,4_116_0,2023-11-01T15:55:14.384Z,,0,3,,2504,response,ISIC_0026082.JPG,0,ISIC_0055680.JPG,ISIC_0055680.JPG,false,0,keypress(z),500,522943.99999999994,522943,520439,520433,520456,522973,8,400,17,,ISIC_0026082.JPG
break,html.Screen,4_116_1,2023-11-01T15:55:14.386Z,,0,,,NaN,,,,,,false,,,,522945.00000000006,522945.00000000006,,522943.99999999994,,522973,8,400,,,
break_continue,html.Screen,4_116_2,2023-11-01T15:55:14.386Z,,0,,,NaN,,,,,,false,,,,522945.00000000006,522945.00000000006,,522945.00000000006,,522973,8,400,,,
sequence,flow.Sequence,4_116,2023-11-01T15:55:14.386Z,,0,,,2489.000000000058,completion,,,,,false,,,,522945.00000000006,522945.00000000006,520439,520433,520456,522973,8,400,,,
trial,html.Screen,4_117_0,2023-11-01T15:55:16.863Z,,0,3,,2466,response,ISIC_2337786.JPG,0,ISIC_7468304.JPG,ISIC_7468304.JPG,false,0,keypress(z),500,525422,525422,522956,522946,522973,525456,8,400,18,,ISIC_2337786.JPG
break,html.Screen,4_117_1,2023-11-01T15:55:16.865Z,,0,,,NaN,,,,,,false,,,,525424,525423,,525423,,525456,8,400,,,
break_continue,html.Screen,4_117_2,2023-11-01T15:55:16.865Z,,0,,,NaN,,,,,,false,,,,525424,525424,,525424,,525456,8,400,,,
sequence,flow.Sequence,4_117,2023-11-01T15:55:16.865Z,,0,,,2451,completion,,,,,false,,,,525424,525424,522956,522946,522973,525456,8,400,,,
trial,html.Screen,4_118_0,2023-11-01T15:55:19.526Z,,0,3,,2646,response,ISIC_0004789.JPG,12,ISIC_3289651.JPG,ISIC_0004789.JPG,false,1,keypress(m),500,528085,528085,525439,525425,525456,528123,8,400,19,,ISIC_3289651.JPG
break,html.Screen,4_118_1,2023-11-01T15:55:19.527Z,,0,,,NaN,,,,,,false,,,,528086,528086,,528085,,528123,8,400,,,
break_continue,html.Screen,4_118_2,2023-11-01T15:55:19.527Z,,0,,,NaN,,,,,,false,,,,528086,528086,,528086,,528123,8,400,,,
sequence,flow.Sequence,4_118,2023-11-01T15:55:19.527Z,,0,,,2630,completion,,,,,false,,,,528086,528086,525439,525425,525456,528123,8,400,,,
trial,html.Screen,4_119_0,2023-11-01T15:55:22.187Z,,0,3,,2640,response,ISIC_0029675.JPG,11,ISIC_0014127.JPG,ISIC_0014127.JPG,false,0,keypress(z),500,530746,530746,528106,528087,528123,530773,8,400,20,,ISIC_0029675.JPG
break,html.Screen,4_119_1,2023-11-01T15:55:22.189Z,,0,,,NaN,,,,,,false,,,,530748,530748,,530747,,530773,8,400,,,
break_continue,html.Screen,4_119_2,2023-11-01T15:55:22.189Z,,0,,,NaN,,,,,,false,,,,530748,530748,,530748,,530773,8,400,,,
sequence,flow.Sequence,4_119,2023-11-01T15:55:22.189Z,,0,,,2625,completion,,,,,false,,,,530749,530748,528106,528087,528123,530773,8,400,,,
trial,html.Screen,4_120_0,2023-11-01T15:55:24.773Z,,0,3,,2576,response,ISIC_3356776.JPG,8,ISIC_1132966.JPG,ISIC_3356776.JPG,false,1,keypress(m),500,533333,533332,530756,530749,530773,533356,8,400,21,,ISIC_1132966.JPG
break,html.Screen,4_120_1,2023-11-01T15:55:24.775Z,,0,,,NaN,,,,,,false,,,,533334.0000000001,533334.0000000001,,533333,,533356,8,400,,,
break_continue,html.Screen,4_120_2,2023-11-01T15:55:24.776Z,,0,,,NaN,,,,,,false,,,,533335,533335,,533335,,533356,8,400,,,
sequence,flow.Sequence,4_120,2023-11-01T15:55:24.776Z,,0,,,2562,completion,,,,,false,,,,533335,533335,530756,530749,530773,533356,8,400,,,
trial,html.Screen,4_121_0,2023-11-01T15:55:27.279Z,,0,3,,2499,response,ISIC_0071735.JPG,15,ISIC_5569091.JPG,ISIC_5569091.JPG,false,0,keypress(z),500,535838,535838,533339,533335,533356,535873,8,400,22,,ISIC_0071735.JPG
break,html.Screen,4_121_1,2023-11-01T15:55:27.280Z,,0,,,NaN,,,,,,false,,,,535840,535839,,535839,,535873,8,400,,,
break_continue,html.Screen,4_121_2,2023-11-01T15:55:27.281Z,,0,,,NaN,,,,,,false,,,,535840,535840,,535840,,535873,8,400,,,
sequence,flow.Sequence,4_121,2023-11-01T15:55:27.281Z,,0,,,2484,completion,,,,,false,,,,535840,535840,533339,533335,533356,535873,8,400,,,
trial,html.Screen,4_122_0,2023-11-01T15:55:30.789Z,,0,3,,3492,response,ISIC_0069986.JPG,3,ISIC_1154109.JPG,ISIC_0069986.JPG,false,1,keypress(m),500,539349,539349,535857,535841,535873,539373,8,400,23,,ISIC_1154109.JPG
break,html.Screen,4_122_1,2023-11-01T15:55:30.790Z,,0,,,NaN,,,,,,false,,,,539350,539350,,539349,,539373,8,400,,,
break_continue,html.Screen,4_122_2,2023-11-01T15:55:30.791Z,,0,,,NaN,,,,,,false,,,,539350,539350,,539350,,539373,8,400,,,
sequence,flow.Sequence,4_122,2023-11-01T15:55:30.791Z,,0,,,3477,completion,,,,,false,,,,539351,539350,535857,535841,535873,539373,8,400,,,
trial,html.Screen,4_123_0,2023-11-01T15:55:33.316Z,,0,3,,2519,response,ISIC_0268187.JPG,6,ISIC_0056089.JPG,ISIC_0268187.JPG,false,1,keypress(m),500,541876,541875,539356,539351,539373,541906,8,400,24,,ISIC_0056089.JPG
break,html.Screen,4_123_1,2023-11-01T15:55:33.318Z,,0,,,NaN,,,,,,false,,,,541878,541877.0000000001,,541876,,541906,8,400,,,
break_continue,html.Screen,4_123_2,2023-11-01T15:55:33.318Z,,0,,,NaN,,,,,,false,,,,541878,541878,,541878,,541906,8,400,,,
sequence,flow.Sequence,4_123,2023-11-01T15:55:33.319Z,,0,,,2505,completion,,,,,false,,,,541878,541878,539356,539351,539373,541906,8,400,,,
trial,html.Screen,4_124_0,2023-11-01T15:55:35.946Z,,0,3,,2616,response,ISIC_6427157.JPG,0,ISIC_0053725.JPG,ISIC_0053725.JPG,false,0,keypress(z),500,544506,544505,541889,541878,541906,544540,8,400,25,,ISIC_6427157.JPG
break,html.Screen,4_124_1,2023-11-01T15:55:35.948Z,,0,,,NaN,,,,,,false,,,,544507.0000000001,544507.0000000001,,544506,,544540,8,400,,,
break_continue,html.Screen,4_124_2,2023-11-01T15:55:35.948Z,,0,,,NaN,,,,,,false,,,,544508,544508,,544507.0000000001,,544540,8,400,,,
sequence,flow.Sequence,4_124,2023-11-01T15:55:35.948Z,,0,,,2602,completion,,,,,false,,,,544508,544508,541889,541878,541906,544540,8,400,,,
trial,html.Screen,4_125_0,2023-11-01T15:55:40.307Z,,0,3,,4343,response,ISIC_2693412.JPG,1,ISIC_0024624.JPG,ISIC_2693412.JPG,false,1,keypress(m),500,548867,548866,544523,544508,544540,548890,8,400,26,,ISIC_0024624.JPG
break,html.Screen,4_125_1,2023-11-01T15:55:40.309Z,,0,,,NaN,,,,,,false,,,,548869,548868,,548867,,548890,8,400,,,
break_continue,html.Screen,4_125_2,2023-11-01T15:55:40.309Z,,0,,,NaN,,,,,,false,,,,548869,548869,,548869,,548890,8,400,,,
sequence,flow.Sequence,4_125,2023-11-01T15:55:40.310Z,,0,,,4329,completion,,,,,false,,,,548870,548869,544523,544508,544540,548890,8,400,,,
trial,html.Screen,4_126_0,2023-11-01T15:55:42.933Z,,0,3,,2619,response,ISIC_1366765.JPG,13,ISIC_0069189.JPG,ISIC_0069189.JPG,false,0,keypress(z),500,551493,551492,548873,548870,548890,551523,8,400,27,,ISIC_1366765.JPG
break,html.Screen,4_126_1,2023-11-01T15:55:42.935Z,,0,,,NaN,,,,,,false,,,,551495,551494,,551494,,551523,8,400,,,
break_continue,html.Screen,4_126_2,2023-11-01T15:55:42.935Z,,0,,,NaN,,,,,,false,,,,551495,551495,,551495,,551523,8,400,,,
sequence,flow.Sequence,4_126,2023-11-01T15:55:42.935Z,,0,,,2605,completion,,,,,false,,,,551495,551495,548873,548870,548890,551523,8,400,,,
trial,html.Screen,4_127_0,2023-11-01T15:55:45.818Z,,0,3,,2871,response,ISIC_7562175.JPG,13,ISIC_6174156.JPG,ISIC_6174156.JPG,false,0,keypress(z),500,554378,554378,551507,551495,551523,554407,8,400,28,,ISIC_7562175.JPG
break,html.Screen,4_127_1,2023-11-01T15:55:45.820Z,,0,,,NaN,,,,,,false,,,,554380,554379,,554379,,554407,8,400,,,
break_continue,html.Screen,4_127_2,2023-11-01T15:55:45.820Z,,0,,,NaN,,,,,,false,,,,554380,554380,,554380,,554407,8,400,,,
sequence,flow.Sequence,4_127,2023-11-01T15:55:45.821Z,,0,,,2857,completion,,,,,false,,,,554381,554380,551507,551495,551523,554407,8,400,,,
trial,html.Screen,4_128_0,2023-11-01T15:55:48.902Z,,0,3,,3072,response,ISIC_2124213.JPG,15,ISIC_0011370.JPG,ISIC_2124213.JPG,false,1,keypress(m),500,557462,557462,554390,554381,554407,557490,8,400,29,,ISIC_0011370.JPG
break,html.Screen,4_128_1,2023-11-01T15:55:48.903Z,,0,,,NaN,,,,,,false,,,,557464,557463,,557462,,557490,8,400,,,
break_continue,html.Screen,4_128_2,2023-11-01T15:55:48.904Z,,0,,,NaN,,,,,,false,,,,557464,557464,,557464,,557490,8,400,,,
sequence,flow.Sequence,4_128,2023-11-01T15:55:48.904Z,,0,,,3057,completion,,,,,false,,,,557464,557464,554390,554381,554407,557490,8,400,,,
trial,html.Screen,4_129_0,2023-11-01T15:55:51.624Z,,0,3,,2710,response,ISIC_0011757.JPG,9,ISIC_0263478.JPG,ISIC_0263478.JPG,false,0,keypress(z),500,560184,560184,557474,557464,557490,560207,8,400,30,,ISIC_0011757.JPG
break,html.Screen,4_129_1,2023-11-01T15:55:51.625Z,,0,,,NaN,,,,,,false,,,,560186,560185.0000000001,,560185.0000000001,,560207,8,400,,,
break_continue,html.Screen,4_129_2,2023-11-01T15:55:51.626Z,,0,,,NaN,,,,,,false,,,,560186,560186,,560186,,560207,8,400,,,
sequence,flow.Sequence,4_129,2023-11-01T15:55:51.626Z,,0,,,2696,completion,,,,,false,,,,560186,560186,557474,557464,557490,560207,8,400,,,
trial,html.Screen,4_130_0,2023-11-01T15:55:54.338Z,,0,3,,2708,response,ISIC_7755096.JPG,6,ISIC_0032779.JPG,ISIC_7755096.JPG,false,1,keypress(m),500,562898,562898,560190,560187,560207,562924,8,400,31,,ISIC_0032779.JPG
break,html.Screen,4_130_1,2023-11-01T15:55:54.339Z,,0,,,NaN,,,,,,false,,,,562900,562899,,562899,,562924,8,400,,,
break_continue,html.Screen,4_130_2,2023-11-01T15:55:54.340Z,,0,,,NaN,,,,,,false,,,,562900,562900,,562900,,562924,8,400,,,
sequence,flow.Sequence,4_130,2023-11-01T15:55:54.340Z,,0,,,2693,completion,,,,,false,,,,562900,562900,560190,560186,560207,562924,8,400,,,
trial,html.Screen,4_131_0,2023-11-01T15:55:56.901Z,,0,3,,2554,response,ISIC_8781751.JPG,4,ISIC_0030255.JPG,ISIC_8781751.JPG,false,1,keypress(m),500,565462,565461,562907,562900,562924,565491,8,400,32,,ISIC_0030255.JPG
break,html.Screen,4_131_1,2023-11-01T15:55:56.902Z,,0,,,NaN,,,,,,false,,,,565463,565462,,565462,,565491,8,400,,,
break_continue,html.Screen,4_131_2,2023-11-01T15:55:56.903Z,,0,,,NaN,,,,,,false,,,,565463,565463,,565463,,565491,8,400,,,
sequence,flow.Sequence,4_131,2023-11-01T15:55:56.903Z,,0,,,2539,completion,,,,,false,,,,565463,565463,562907,562900,562924,565491,8,400,,,
trial,html.Screen,4_132_0,2023-11-01T15:55:59.392Z,,0,3,,2478,response,ISIC_0033697.JPG,2,ISIC_0029078.JPG,ISIC_0029078.JPG,false,0,keypress(z),500,567953,567952,565474,565463,565491,567991,8,400,33,,ISIC_0033697.JPG
break,html.Screen,4_132_1,2023-11-01T15:55:59.393Z,,0,,,NaN,,,,,,false,,,,567954.0000000001,567954.0000000001,,567953,,567991,8,400,,,
break_continue,html.Screen,4_132_2,2023-11-01T15:55:59.394Z,,0,,,NaN,,,,,,false,,,,567954.0000000001,567954.0000000001,,567954.0000000001,,567991,8,400,,,
sequence,flow.Sequence,4_132,2023-11-01T15:55:59.394Z,,0,,,2463.0000000001164,completion,,,,,false,,,,567954.0000000001,567954.0000000001,565474,565463,565491,567991,8,400,,,
trial,html.Screen,4_133_0,2023-11-01T15:56:01.891Z,,0,3,,2477,response,ISIC_0071133.JPG,7,ISIC_0059423.JPG,ISIC_0059423.JPG,false,0,keypress(z),500,570452,570451,567974,567954.0000000001,567991,570474,8,400,34,,ISIC_0071133.JPG
break,html.Screen,4_133_1,2023-11-01T15:56:01.893Z,,0,,,NaN,,,,,,false,,,,570453,570453,,570452,,570474,8,400,,,
break_continue,html.Screen,4_133_2,2023-11-01T15:56:01.893Z,,0,,,NaN,,,,,,false,,,,570454.0000000001,570453,,570453,,570474,8,400,,,
sequence,flow.Sequence,4_133,2023-11-01T15:56:01.893Z,,0,,,2462,completion,,,,,false,,,,570454.0000000001,570453,567974,567954.0000000001,567991,570474,8,400,,,
trial,html.Screen,4_134_0,2023-11-01T15:56:04.329Z,,0,3,,2432,response,ISIC_0027125.JPG,16,ISIC_8689112.JPG,ISIC_8689112.JPG,false,0,keypress(z),500,572890,572889,570457,570454.0000000001,570474,572907,8,400,35,,ISIC_0027125.JPG
break,html.Screen,4_134_1,2023-11-01T15:56:04.331Z,,0,,,NaN,,,,,,false,,,,572892,572891,,572890,,572907,8,400,,,
break_continue,html.Screen,4_134_2,2023-11-01T15:56:04.331Z,,0,,,NaN,,,,,,false,,,,572892,572892,,572892,,572907,8,400,,,
sequence,flow.Sequence,4_134,2023-11-01T15:56:04.332Z,,0,,,2418,completion,,,,,false,,,,572892,572892,570457,570454.0000000001,570474,572907,8,400,,,
trial,html.Screen,4_135_0,2023-11-01T15:56:06.790Z,,0,3,,2455,response,ISIC_3932879.JPG,16,ISIC_0032954.JPG,ISIC_3932879.JPG,false,1,keypress(m),500,575351,575350,572895,572892,572907,575374,8,400,36,,ISIC_0032954.JPG
break,html.Screen,4_135_1,2023-11-01T15:56:06.792Z,,0,,,NaN,,,,,,false,,,,575352,575352,,575351,,575374,8,400,,,
break_continue,html.Screen,4_135_2,2023-11-01T15:56:06.792Z,,0,,,NaN,,,,,,false,,,,575353.0000000001,575352,,575352,,575374,8,400,,,
sequence,flow.Sequence,4_135,2023-11-01T15:56:06.792Z,,0,,,2445,completion,,,,,false,,,,575353.0000000001,575352,572895,572892,572907,575374,8,400,,,
trial,html.Screen,4_136_0,2023-11-01T15:56:09.645Z,,0,3,,2847,response,ISIC_0069946.JPG,15,ISIC_1053427.JPG,ISIC_0069946.JPG,false,1,keypress(m),500,578205,578205,575358,575353.0000000001,575374,578224,8,400,37,,ISIC_1053427.JPG
break,html.Screen,4_136_1,2023-11-01T15:56:09.646Z,,0,,,NaN,,,,,,false,,,,578207,578207,,578206,,578224,8,400,,,
break_continue,html.Screen,4_136_2,2023-11-01T15:56:09.646Z,,0,,,NaN,,,,,,false,,,,578207,578207,,578207,,578224,8,400,,,
sequence,flow.Sequence,4_136,2023-11-01T15:56:09.647Z,,0,,,2833,completion,,,,,false,,,,578207,578207,575358,575353.0000000001,575374,578224,8,400,,,
trial,html.Screen,4_137_0,2023-11-01T15:56:12.281Z,,0,3,,2631,response,ISIC_1280780.JPG,10,ISIC_8589961.JPG,ISIC_1280780.JPG,false,1,keypress(m),500,580842,580842,578211,578208,578224,580874,8,400,38,,ISIC_8589961.JPG
break,html.Screen,4_137_1,2023-11-01T15:56:12.283Z,,0,,,NaN,,,,,,false,,,,580843,580843,,580843,,580874,8,400,,,
break_continue,html.Screen,4_137_2,2023-11-01T15:56:12.283Z,,0,,,NaN,,,,,,false,,,,580844,580844,,580844,,580874,8,400,,,
sequence,flow.Sequence,4_137,2023-11-01T15:56:12.283Z,,0,,,2620,completion,,,,,false,,,,580844,580844,578211,578208,578224,580874,8,400,,,
trial,html.Screen,4_138_0,2023-11-01T15:56:14.786Z,,0,3,,2489,response,ISIC_0056409.JPG,4,ISIC_0011040.JPG,ISIC_0011040.JPG,false,0,keypress(z),500,583347,583347,580858,580844,580874,583374,8,400,39,,ISIC_0056409.JPG
break,html.Screen,4_138_1,2023-11-01T15:56:14.788Z,,0,,,NaN,,,,,,false,,,,583349,583348,,583347,,583374,8,400,,,
break_continue,html.Screen,4_138_2,2023-11-01T15:56:14.788Z,,0,,,NaN,,,,,,false,,,,583349,583349,,583349,,583374,8,400,,,
sequence,flow.Sequence,4_138,2023-11-01T15:56:14.788Z,,0,,,2475,completion,,,,,false,,,,583349,583349,580858,580844,580874,583374,8,400,,,
trial,html.Screen,4_139_0,2023-11-01T15:56:17.278Z,,0,3,,2481,response,ISIC_5778927.JPG,10,ISIC_0027327.JPG,ISIC_5778927.JPG,false,1,keypress(m),500,585839,585839,583358,583349,583374,585875,8,400,40,,ISIC_0027327.JPG
break,html.Screen,4_139_1,2023-11-01T15:56:17.280Z,,0,,,NaN,,,,,,false,,,,585841,585841,,585840,,585875,8,400,,,
break_continue,html.Screen,4_139_2,2023-11-01T15:56:17.281Z,,0,,,NaN,,,,,,false,,,,585842,585841,,585841,,585875,8,400,,,
sequence,flow.Sequence,4_139,2023-11-01T15:56:17.281Z,,0,,,2467,completion,,,,,false,,,,585842,585841,583358,583349,583374,585875,8,400,,,
trial,html.Screen,4_140_0,2023-11-01T15:56:19.733Z,,0,3,,2435,response,ISIC_0030541.JPG,10,ISIC_1686556.JPG,ISIC_1686556.JPG,false,0,keypress(z),500,588294,588293,585858,585842,585875,588324,8,400,41,,ISIC_0030541.JPG
break,html.Screen,4_140_1,2023-11-01T15:56:19.734Z,,0,,,NaN,,,,,,false,,,,588295,588295,,588294,,588324,8,400,,,
break_continue,html.Screen,4_140_2,2023-11-01T15:56:19.735Z,,0,,,NaN,,,,,,false,,,,588296,588295,,588295,,588324,8,400,,,
sequence,flow.Sequence,4_140,2023-11-01T15:56:19.735Z,,0,,,2420,completion,,,,,false,,,,588296,588295,585858,585842,585875,588324,8,400,,,
trial,html.Screen,4_141_0,2023-11-01T15:56:22.536Z,,0,3,,2788,response,ISIC_0001681.JPG,11,ISIC_6793983.JPG,ISIC_0001681.JPG,false,1,keypress(m),500,591097,591096,588308,588296,588324,591125,8,400,42,,ISIC_6793983.JPG
break,html.Screen,4_141_1,2023-11-01T15:56:22.537Z,,0,,,NaN,,,,,,false,,,,591098,591098,,591097,,591125,8,400,,,
break_continue,html.Screen,4_141_2,2023-11-01T15:56:22.538Z,,0,,,NaN,,,,,,false,,,,591099,591099,,591098,,591125,8,400,,,
sequence,flow.Sequence,4_141,2023-11-01T15:56:22.538Z,,0,,,2775,completion,,,,,false,,,,591099,591099,588308,588296,588324,591125,8,400,,,
trial,html.Screen,4_142_0,2023-11-01T15:56:27.016Z,,0,3,,4469,response,ISIC_0032687.JPG,9,ISIC_0031800.JPG,ISIC_0031800.JPG,false,0,keypress(z),500,595577,595577,591108,591099,591125,595608,8,400,43,,ISIC_0032687.JPG
break,html.Screen,4_142_1,2023-11-01T15:56:27.017Z,,0,,,NaN,,,,,,false,,,,595579.0000000001,595578,,595578,,595608,8,400,,,
break_continue,html.Screen,4_142_2,2023-11-01T15:56:27.018Z,,0,,,NaN,,,,,,false,,,,595579.0000000001,595579.0000000001,,595579.0000000001,,595608,8,400,,,
sequence,flow.Sequence,4_142,2023-11-01T15:56:27.018Z,,0,,,4454.000000000116,completion,,,,,false,,,,595579.0000000001,595579.0000000001,591108,591099,591125,595608,8,400,,,
trial,html.Screen,4_143_0,2023-11-01T15:56:29.632Z,,0,3,,2601,response,ISIC_3352799.JPG,15,ISIC_0033923.JPG,ISIC_3352799.JPG,false,1,keypress(m),500,598193,598192,595591,595580,595608,598225,8,400,44,,ISIC_0033923.JPG
break,html.Screen,4_143_1,2023-11-01T15:56:29.633Z,,0,,,NaN,,,,,,false,,,,598194,598194,,598193,,598225,8,400,,,
break_continue,html.Screen,4_143_2,2023-11-01T15:56:29.634Z,,0,,,NaN,,,,,,false,,,,598195,598195,,598195,,598225,8,400,,,
sequence,flow.Sequence,4_143,2023-11-01T15:56:29.634Z,,0,,,2587,completion,,,,,false,,,,598195,598195,595591,595580,595608,598225,8,400,,,
trial,html.Screen,4_144_0,2023-11-01T15:56:32.111Z,,0,3,,2463,response,ISIC_0010664.JPG,14,ISIC_0072694.JPG,ISIC_0010664.JPG,false,1,keypress(m),500,600672,600671,598208,598195,598225,600708,8,400,45,,ISIC_0072694.JPG
break,html.Screen,4_144_1,2023-11-01T15:56:32.112Z,,0,,,NaN,,,,,,false,,,,600674,600673,,600672,,600708,8,400,,,
break_continue,html.Screen,4_144_2,2023-11-01T15:56:32.113Z,,0,,,NaN,,,,,,false,,,,600674,600674,,600674,,600708,8,400,,,
sequence,flow.Sequence,4_144,2023-11-01T15:56:32.113Z,,0,,,2449,completion,,,,,false,,,,600674,600674,598208,598195,598225,600708,8,400,,,
trial,html.Screen,4_145_0,2023-11-01T15:56:35.447Z,,0,3,,3316,response,ISIC_0010440.JPG,12,ISIC_0031350.JPG,ISIC_0010440.JPG,false,1,keypress(m),500,604009,604008,600692,600674,600708,604041,8,400,46,,ISIC_0031350.JPG
break,html.Screen,4_145_1,2023-11-01T15:56:35.449Z,,0,,,NaN,,,,,,false,,,,604010,604010,,604009,,604041,8,400,,,
break_continue,html.Screen,4_145_2,2023-11-01T15:56:35.449Z,,0,,,NaN,,,,,,false,,,,604011,604011,,604011,,604041,8,400,,,
sequence,flow.Sequence,4_145,2023-11-01T15:56:35.450Z,,0,,,3303,completion,,,,,false,,,,604011,604011,600692,600674,600708,604041,8,400,,,
trial,html.Screen,4_146_0,2023-11-01T15:56:37.991Z,,0,3,,2528,response,ISIC_7145788.JPG,15,ISIC_0031709.JPG,ISIC_7145788.JPG,false,1,keypress(m),500,606553,606552,604024,604011,604041,606575,8,400,47,,ISIC_0031709.JPG
break,html.Screen,4_146_1,2023-11-01T15:56:37.992Z,,0,,,NaN,,,,,,false,,,,606554,606553,,606553,,606575,8,400,,,
break_continue,html.Screen,4_146_2,2023-11-01T15:56:37.993Z,,0,,,NaN,,,,,,false,,,,606554,606554,,606554,,606575,8,400,,,
sequence,flow.Sequence,4_146,2023-11-01T15:56:37.993Z,,0,,,2513,completion,,,,,false,,,,606554,606554,604024,604011,604041,606575,8,400,,,
trial,html.Screen,4_147_0,2023-11-01T15:56:43.405Z,,0,3,,5408,response,ISIC_0055378.JPG,8,ISIC_0000022.JPG,ISIC_0055378.JPG,false,1,keypress(m),500,611966,611966,606558,606555.0000000001,606575,611992,8,400,48,,ISIC_0000022.JPG
break,html.Screen,4_147_1,2023-11-01T15:56:43.406Z,,0,,,NaN,,,,,,false,,,,611968,611967,,611967,,611992,8,400,,,
break_continue,html.Screen,4_147_2,2023-11-01T15:56:43.406Z,,0,,,NaN,,,,,,false,,,,611968,611968,,611968,,611992,8,400,,,
sequence,flow.Sequence,4_147,2023-11-01T15:56:43.406Z,,0,,,5393,completion,,,,,false,,,,611968,611968,606558,606554,606575,611992,8,400,,,
trial,html.Screen,4_148_0,2023-11-01T15:56:46.844Z,,0,3,,3430,response,ISIC_6960446.JPG,5,ISIC_3463156.JPG,ISIC_6960446.JPG,false,1,keypress(m),500,615406.0000000001,615405,611975,611968,611992,615441,8,400,49,,ISIC_3463156.JPG
break,html.Screen,4_148_1,2023-11-01T15:56:46.845Z,,0,,,NaN,,,,,,false,,,,615407,615407,,615406.0000000001,,615441,8,400,,,
break_continue,html.Screen,4_148_2,2023-11-01T15:56:46.846Z,,0,,,NaN,,,,,,false,,,,615408,615407,,615407,,615441,8,400,,,
sequence,flow.Sequence,4_148,2023-11-01T15:56:46.846Z,,0,,,3415,completion,,,,,false,,,,615408,615407,611975,611968,611992,615441,8,400,,,
trial,html.Screen,4_149_0,2023-11-01T15:56:50.310Z,,0,3,,3446,response,ISIC_0000459.JPG,6,ISIC_0063742.JPG,ISIC_0000459.JPG,false,1,keypress(m),500,618872,618871,615425,615408,615441,618909,8,400,50,,ISIC_0063742.JPG
break,html.Screen,4_149_1,2023-11-01T15:57:00.331Z,,0,,,10000,timeout,,,,,false,,,,628893,628892,618892,618872,618909,628909,8,400,,,
break_continue,html.Screen,4_149_2,2023-11-01T15:57:01.490Z,,0,,,1212,response,,,,,false,continue,keypress(Space),,630053,630104,628892,628893,628909,630092,8,400,,,
sequence,flow.Sequence,4_149,2023-11-01T15:57:01.491Z,,0,,,14663,completion,,,,,false,,,,630053,630104,615425,615408,615441,630092,8,400,,,
trial,html.Screen,4_150_0,2023-11-01T15:57:04.284Z,,0,4,,2771,response,ISIC_0015046.JPG,6,ISIC_0057244.JPG,ISIC_0015046.JPG,false,1,keypress(m),500,632846,632846,630075,630053,630092,632876,8,400,1,,ISIC_0057244.JPG
break,html.Screen,4_150_1,2023-11-01T15:57:04.285Z,,0,,,NaN,,,,,,false,,,,632848,632847,,632847,,632876,8,400,,,
break_continue,html.Screen,4_150_2,2023-11-01T15:57:04.286Z,,0,,,NaN,,,,,,false,,,,632848,632848,,632848,,632876,8,400,,,
sequence,flow.Sequence,4_150,2023-11-01T15:57:04.286Z,,0,,,2756,completion,,,,,false,,,,632849,632848,630075,630053,630092,632876,8,400,,,
trial,html.Screen,4_151_0,2023-11-01T15:57:06.798Z,,0,4,,2501,response,ISIC_0027378.JPG,2,ISIC_9114539.JPG,ISIC_9114539.JPG,false,0,keypress(z),500,635361,635360,632859,632849,632876,635392,8,400,2,,ISIC_0027378.JPG
break,html.Screen,4_151_1,2023-11-01T15:57:06.800Z,,0,,,NaN,,,,,,false,,,,635362,635362,,635361,,635392,8,400,,,
break_continue,html.Screen,4_151_2,2023-11-01T15:57:06.800Z,,0,,,NaN,,,,,,false,,,,635363,635363,,635363,,635392,8,400,,,
sequence,flow.Sequence,4_151,2023-11-01T15:57:06.801Z,,0,,,2487,completion,,,,,false,,,,635363,635363,632859,632849,632876,635392,8,400,,,
trial,html.Screen,4_152_0,2023-11-01T15:57:09.236Z,,0,4,,2422,response,ISIC_0030440.JPG,13,ISIC_0010400.JPG,ISIC_0010400.JPG,false,0,keypress(z),500,637799,637798,635376,635363,635392,637826,8,400,3,,ISIC_0030440.JPG
break,html.Screen,4_152_1,2023-11-01T15:57:09.238Z,,0,,,NaN,,,,,,false,,,,637800.0000000001,637800.0000000001,,637799,,637826,8,400,,,
break_continue,html.Screen,4_152_2,2023-11-01T15:57:09.238Z,,0,,,NaN,,,,,,false,,,,637801,637801,,637801,,637826,8,400,,,
sequence,flow.Sequence,4_152,2023-11-01T15:57:09.239Z,,0,,,2409,completion,,,,,false,,,,637801,637801,635376,635363,635392,637826,8,400,,,
trial,html.Screen,4_153_0,2023-11-01T15:57:11.667Z,,0,4,,2421,response,ISIC_5529924.JPG,3,ISIC_0034036.JPG,ISIC_0034036.JPG,false,0,keypress(z),500,640230,640230,637809,637801,637826,640259,8,400,4,,ISIC_5529924.JPG
break,html.Screen,4_153_1,2023-11-01T15:57:11.668Z,,0,,,NaN,,,,,,false,,,,640231,640231,,640230,,640259,8,400,,,
break_continue,html.Screen,4_153_2,2023-11-01T15:57:11.669Z,,0,,,NaN,,,,,,false,,,,640231,640231,,640231,,640259,8,400,,,
sequence,flow.Sequence,4_153,2023-11-01T15:57:11.669Z,,0,,,2405,completion,,,,,false,,,,640232,640231,637809,637801,637826,640259,8,400,,,
trial,html.Screen,4_154_0,2023-11-01T15:57:14.245Z,,0,4,,2565,response,ISIC_9048507.JPG,8,ISIC_0073044.JPG,ISIC_0073044.JPG,false,0,keypress(z),500,642808,642807,640242,640232,640259,642826,8,400,5,,ISIC_9048507.JPG
break,html.Screen,4_154_1,2023-11-01T15:57:14.247Z,,0,,,NaN,,,,,,false,,,,642809,642809,,642808,,642826,8,400,,,
break_continue,html.Screen,4_154_2,2023-11-01T15:57:14.247Z,,0,,,NaN,,,,,,false,,,,642810.0000000001,642810.0000000001,,642810.0000000001,,642826,8,400,,,
sequence,flow.Sequence,4_154,2023-11-01T15:57:14.248Z,,0,,,2551.0000000001164,completion,,,,,false,,,,642810.0000000001,642810.0000000001,640242,640232,640259,642826,8,400,,,
trial,html.Screen,4_155_0,2023-11-01T15:57:16.735Z,,0,4,,2484,response,ISIC_0055081.JPG,10,ISIC_0031745.JPG,ISIC_0055081.JPG,false,1,keypress(m),500,645298,645297,642813,642810.0000000001,642826,645325,8,400,6,,ISIC_0031745.JPG
break,html.Screen,4_155_1,2023-11-01T15:57:16.737Z,,0,,,NaN,,,,,,false,,,,645299,645299,,645298,,645325,8,400,,,
break_continue,html.Screen,4_155_2,2023-11-01T15:57:16.737Z,,0,,,NaN,,,,,,false,,,,645300.0000000001,645300.0000000001,,645300.0000000001,,645325,8,400,,,
sequence,flow.Sequence,4_155,2023-11-01T15:57:16.737Z,,0,,,2474.0000000001164,completion,,,,,false,,,,645300.0000000001,645300.0000000001,642813,642810.0000000001,642826,645325,8,400,,,
trial,html.Screen,4_156_0,2023-11-01T15:57:19.196Z,,0,4,,2449,response,ISIC_3171104.JPG,10,ISIC_2879267.JPG,ISIC_2879267.JPG,false,0,keypress(z),500,647759,647758,645309,645300.0000000001,645325,647776,8,400,7,,ISIC_3171104.JPG
break,html.Screen,4_156_1,2023-11-01T15:57:19.198Z,,0,,,NaN,,,,,,false,,,,647761,647760,,647759,,647776,8,400,,,
break_continue,html.Screen,4_156_2,2023-11-01T15:57:19.198Z,,0,,,NaN,,,,,,false,,,,647761,647761,,647761,,647776,8,400,,,
sequence,flow.Sequence,4_156,2023-11-01T15:57:19.198Z,,0,,,2436,completion,,,,,false,,,,647761,647761,645309,645300.0000000001,645325,647776,8,400,,,
