sender,sender_type,sender_id,timestamp,meta,,blockNo,condition,duration,ended_on,img_left,img_reveal,img_right,loser,practice,response,response_action,selection_duration,time_commit,time_end,time_render,time_run,time_show,time_switch,total_blocks,total_trials,trialNo,url,winner
informed_consent,html.Screen,0,2023-09-08T20:46:25.476Z,"{""labjs_version"":""20.2.4"",""labjs_build"":{""flavor"":""production"",""commit"":""f5b4a49f956347addd546a832a3327688c2c0fef""},""location"":""https://run.pavlovia.org/MurrayBennett/melanoma-2afc/?participant=5b564fb0162d5d00011039c7&STUDY_ID=64f8c92207ba404bcb356c90&SESSION_ID=64fb871e5ddea49f89d744b2&platform=prolific"",""userAgent"":""Mozilla/5.0 (Windows NT 10.0; Win64; x64) AppleWebKit/537.36 (KHTML, like Gecko) Chrome/116.0.0.0 Safari/537.36"",""platform"":""Win32"",""language"":""en-US"",""locale"":""en-US"",""timeZone"":""America/Chicago"",""timezoneOffset"":300,""screen_width"":1154,""screen_height"":649,""scroll_width"":1732,""scroll_height"":698,""window_innerWidth"":1731,""window_innerHeight"":746,""devicePixelRatio"":1.1100000143051147}",,,,3832.474999988079,response,,,,,,consent,click button,,5706.799999982119,5704.199999988079,1855.039,1847,1871.725,5725.406,,,,"{""participant"":""5b564fb0162d5d00011039c7"",""STUDY_ID"":""64f8c92207ba404bcb356c90"",""SESSION_ID"":""64fb871e5ddea49f89d744b2"",""platform"":""prolific""}",
Welcome,html.Screen,1,2023-09-08T20:46:38.582Z,,,,regular,13085.594000000001,response,,,,,,continue,click button,,18812,18811,5692.199,5707,5725.406,18818.212,,,,,
trial,html.Screen,2_0_0,2023-09-08T20:46:42.873Z,,0,0,,4284.9879999880795,response,ISIC_0061792.JPG,,ISIC_4679428.JPG,ISIC_4679428.JPG,true,0,keypress(z),500,23103.5,23103.19999998808,18801.556,18812.19999998808,18818.212,23106.529,1,6,1,,ISIC_0061792.JPG
sequence,flow.Sequence,2_0,2023-09-08T20:46:42.873Z,,0,,,4284.9879999880795,completion,,,,,true,,,,23103.79999998212,23103.19999998808,18801.556,18812.19999998808,18818.212,23106.529,1,6,,,
trial,html.Screen,2_1_0,2023-09-08T20:46:47.563Z,,0,0,,4687.070999994041,response,ISIC_5199497.JPG,,ISIC_0776486.JPG,ISIC_5199497.JPG,true,1,keypress(m),500,27793.899999976158,27793.59999999404,23103.101,23103.899999976158,23106.529,27796.817,1,6,2,,ISIC_0776486.JPG
sequence,flow.Sequence,2_1,2023-09-08T20:46:47.564Z,,0,,,4687.070999994041,completion,,,,,true,,,,27794.09999999404,27793.59999999404,23103.101,23103.899999976158,23106.529,27796.817,1,6,,,
trial,html.Screen,2_2_0,2023-09-08T20:46:50.638Z,,0,0,,3071.4829999821195,response,ISIC_8575776.JPG,,ISIC_2556187.JPG,ISIC_2556187.JPG,true,0,keypress(z),500,30868.59999999404,30868.29999998212,27786.727,27794.29999998212,27796.817,30871.684,1,6,3,,ISIC_8575776.JPG
sequence,flow.Sequence,2_2,2023-09-08T20:46:50.639Z,,0,,,3071.4829999821195,completion,,,,,true,,,,30869.09999999404,30868.29999998212,27786.727,27794.19999998808,27796.817,30871.684,1,6,,,
trial,html.Screen,2_3_0,2023-09-08T20:46:54.835Z,,0,0,,4192.815999999999,response,ISIC_9238366.JPG,,ISIC_8141769.JPG,ISIC_8141769.JPG,true,0,keypress(z),500,35064.89999997616,35064.5,30869.347,30869.19999998808,30871.684,35067.922,1,6,4,,ISIC_9238366.JPG
sequence,flow.Sequence,2_3,2023-09-08T20:46:54.835Z,,0,,,4192.815999999999,completion,,,,,true,,,,35065.39999997616,35064.5,30869.347,30869.19999998808,30871.684,35067.922,1,6,,,
trial,html.Screen,2_4_0,2023-09-08T20:46:57.845Z,,0,0,,3007.2779999880804,response,ISIC_9959593.JPG,,ISIC_8949026.JPG,ISIC_9959593.JPG,true,1,keypress(m),500,38075.39999997616,38075.19999998808,35065.641,35065.59999999404,35067.922,38094.054,1,6,5,,ISIC_8949026.JPG
sequence,flow.Sequence,2_4,2023-09-08T20:46:57.845Z,,0,,,3007.2779999880804,completion,,,,,true,,,,38075.5,38075.19999998808,35065.641,35065.5,35067.922,38094.054,1,6,,,
trial,html.Screen,2_5_0,2023-09-08T20:47:01.478Z,,0,0,,3614.3459999761617,response,ISIC_0460240.JPG,,ISIC_0010479.JPG,ISIC_0010479.JPG,true,0,keypress(z),500,41708.69999998808,41708.39999997616,38072.763,38075.5,38094.054,41725.984,1,6,6,,ISIC_0460240.JPG
sequence,flow.Sequence,2_5,2023-09-08T20:47:01.479Z,,0,,,3614.3459999761617,completion,,,,,true,,,,41709.09999999404,41708.39999997616,38072.763,38075.5,38094.054,41725.984,1,6,,,
loop,flow.Loop,2,2023-09-08T20:47:01.479Z,,,,,22890.18799997616,completion,,,,,true,,,,41709.29999998212,41708.39999997616,18801.556,18812.19999998808,18818.212,41725.984,1,6,,,
exp_instructions,html.Screen,3,2023-09-08T20:47:10.119Z,,,,,8623.016000000003,response,,,,,,continue,keypress(Space),,50349.89999997616,50349,41699.933,41709.5,41725.984,50368.634,,,,,
trial,html.Screen,4_0_0,2023-09-08T20:47:14.026Z,,0,1,,3887.565999988081,response,ISIC_2642873.JPG,4,ISIC_6523459.JPG,ISIC_2642873.JPG,false,1,keypress(m),500,54256.5,54256.19999998808,50342.765,50350,50368.634,54259.042,8,400,1,,ISIC_6523459.JPG
break,html.Screen,4_0_1,2023-09-08T20:47:14.027Z,,0,,,NaN,,,,,,false,,,,54257.59999999404,54257.29999998212,,54256.69999998808,,54259.042,8,400,,,
break_continue,html.Screen,4_0_2,2023-09-08T20:47:14.027Z,,0,,,NaN,,,,,,false,,,,54258.09999999404,54257.89999997616,,54257.79999998212,,54259.042,8,400,,,
sequence,flow.Sequence,4_0,2023-09-08T20:47:14.028Z,,0,,,3889.26599997616,completion,,,,,false,,,,54258.29999998212,54257.89999997616,50342.765,50350,50368.634,54259.042,8,400,,,
trial,html.Screen,4_1_0,2023-09-08T20:47:18.031Z,,0,1,,4002.157999988078,response,ISIC_8397011.JPG,6,ISIC_3209501.JPG,ISIC_3209501.JPG,false,0,keypress(z),500,58261.39999997616,58261.19999998808,54252.888,54258.39999997616,54259.042,58264.287,8,400,2,,ISIC_8397011.JPG
break,html.Screen,4_1_1,2023-09-08T20:47:18.032Z,,0,,,NaN,,,,,,false,,,,58262.29999998212,58262.19999998808,,58261.59999999404,,58264.287,8,400,,,
break_continue,html.Screen,4_1_2,2023-09-08T20:47:18.032Z,,0,,,NaN,,,,,,false,,,,58262.59999999404,58262.59999999404,,58262.39999997616,,58264.287,8,400,,,
sequence,flow.Sequence,4_1,2023-09-08T20:47:18.032Z,,0,,,4003.5579999940383,completion,,,,,false,,,,58262.79999998212,58262.59999999404,54252.888,54258.29999998212,54259.042,58264.287,8,400,,,
trial,html.Screen,4_2_0,2023-09-08T20:47:22.311Z,,0,1,,4277.012999982122,response,ISIC_0059357.JPG,5,ISIC_9482039.JPG,ISIC_0059357.JPG,false,1,keypress(m),500,62541.5,62541.29999998212,58256.698,58262.89999997616,58264.287,62544.018,8,400,3,,ISIC_9482039.JPG
break,html.Screen,4_2_1,2023-09-08T20:47:22.312Z,,0,,,NaN,,,,,,false,,,,62542.5,62542.19999998808,,62541.69999998808,,62544.018,8,400,,,
break_continue,html.Screen,4_2_2,2023-09-08T20:47:22.312Z,,0,,,NaN,,,,,,false,,,,62542.89999997616,62542.69999998808,,62542.59999999404,,62544.018,8,400,,,
sequence,flow.Sequence,4_2,2023-09-08T20:47:22.313Z,,0,,,4278.412999988082,completion,,,,,false,,,,62543.5,62542.69999998808,58256.698,58262.89999997616,58264.287,62544.018,8,400,,,
trial,html.Screen,4_3_0,2023-09-08T20:47:26.030Z,,0,1,,3716.1819999880827,response,ISIC_6777714.JPG,5,ISIC_0192596.JPG,ISIC_0192596.JPG,false,0,keypress(z),500,66260.5,66260.19999998808,62542.394,62543.59999999404,62544.018,66279.947,8,400,4,,ISIC_6777714.JPG
break,html.Screen,4_3_1,2023-09-08T20:47:26.031Z,,0,,,NaN,,,,,,false,,,,66261.39999997616,66261.29999998212,,66260.69999998808,,66279.947,8,400,,,
break_continue,html.Screen,4_3_2,2023-09-08T20:47:26.031Z,,0,,,NaN,,,,,,false,,,,66261.69999998808,66261.59999999404,,66261.5,,66279.947,8,400,,,
sequence,flow.Sequence,4_3,2023-09-08T20:47:26.031Z,,0,,,3717.581999994043,completion,,,,,false,,,,66261.89999997616,66261.59999999404,62542.394,62543.5,62544.018,66279.947,8,400,,,
trial,html.Screen,4_4_0,2023-09-08T20:47:29.873Z,,0,1,,3823.452999976158,response,ISIC_6985859.JPG,5,ISIC_5961092.JPG,ISIC_5961092.JPG,false,0,keypress(z),500,70103.5,70103.39999997616,66263.357,66262.09999999404,66279.947,70105.339,8,400,5,,ISIC_6985859.JPG
break,html.Screen,4_4_1,2023-09-08T20:47:29.873Z,,0,,,NaN,,,,,,false,,,,70103.89999997616,70103.79999998212,,70103.59999999404,,70105.339,8,400,,,
break_continue,html.Screen,4_4_2,2023-09-08T20:47:29.873Z,,0,,,NaN,,,,,,false,,,,70104.09999999404,70104,,70104,,70105.339,8,400,,,
sequence,flow.Sequence,4_4,2023-09-08T20:47:29.873Z,,0,,,3824.053,completion,,,,,false,,,,70104.09999999404,70104,66263.357,66262,66279.947,70105.339,8,400,,,
trial,html.Screen,4_5_0,2023-09-08T20:47:34.052Z,,0,1,,4177.260999994032,response,ISIC_0063425.JPG,6,ISIC_0014695.JPG,ISIC_0014695.JPG,false,0,keypress(z),500,74282.79999998212,74282.59999999404,70100.917,70104.19999998808,70105.339,74285.782,8,400,6,,ISIC_0063425.JPG
break,html.Screen,4_5_1,2023-09-08T20:47:34.053Z,,0,,,NaN,,,,,,false,,,,74283.59999999404,74283.39999997616,,74283,,74285.782,8,400,,,
break_continue,html.Screen,4_5_2,2023-09-08T20:47:34.053Z,,0,,,NaN,,,,,,false,,,,74284.09999999404,74283.79999998212,,74283.79999998212,,74285.782,8,400,,,
sequence,flow.Sequence,4_5,2023-09-08T20:47:34.054Z,,0,,,4178.460999982111,completion,,,,,false,,,,74284.29999998212,74283.79999998212,70100.917,70104.19999998808,70105.339,74285.782,8,400,,,
trial,html.Screen,4_6_0,2023-09-08T20:47:37.227Z,,0,1,,3171.2179999999935,response,ISIC_6413346.JPG,6,ISIC_9957389.JPG,ISIC_6413346.JPG,false,1,keypress(m),500,77457.19999998808,77457,74274.787,74284.39999997616,74285.782,77459.999,8,400,7,,ISIC_9957389.JPG
break,html.Screen,4_6_1,2023-09-08T20:47:37.227Z,,0,,,NaN,,,,,,false,,,,77458.09999999404,77457.89999997616,,77457.5,,77459.999,8,400,,,
break_continue,html.Screen,4_6_2,2023-09-08T20:47:37.228Z,,0,,,NaN,,,,,,false,,,,77458.39999997616,77458.29999998212,,77458.19999998808,,77459.999,8,400,,,
sequence,flow.Sequence,4_6,2023-09-08T20:47:37.228Z,,0,,,3172.517999982112,completion,,,,,false,,,,77458.5,77458.29999998212,74274.787,74284.39999997616,74285.782,77459.999,8,400,,,
trial,html.Screen,4_7_0,2023-09-08T20:47:41.102Z,,0,1,,3872.200999988083,response,ISIC_1089617.JPG,4,ISIC_0033689.JPG,ISIC_0033689.JPG,false,0,keypress(z),500,81332.5,81332.19999998808,77458.407,77458.69999998808,77459.999,81335.162,8,400,8,,ISIC_1089617.JPG
break,html.Screen,4_7_1,2023-09-08T20:47:41.103Z,,0,,,NaN,,,,,,false,,,,81333.29999998212,81333.09999999404,,81332.69999998808,,81335.162,8,400,,,
break_continue,html.Screen,4_7_2,2023-09-08T20:47:41.103Z,,0,,,NaN,,,,,,false,,,,81333.59999999404,81333.5,,81333.39999997616,,81335.162,8,400,,,
sequence,flow.Sequence,4_7,2023-09-08T20:47:41.103Z,,0,,,3873.501000000004,completion,,,,,false,,,,81333.79999998212,81333.5,77458.407,77458.69999998808,77459.999,81335.162,8,400,,,
trial,html.Screen,4_8_0,2023-09-08T20:47:45.289Z,,0,1,,4184.2379999761615,response,ISIC_7612992.JPG,4,ISIC_0057089.JPG,ISIC_0057089.JPG,false,0,keypress(z),500,85519.5,85519.39999997616,81331.254,81333.89999997616,81335.162,85538.222,8,400,9,,ISIC_7612992.JPG
break,html.Screen,4_8_1,2023-09-08T20:47:45.289Z,,0,,,NaN,,,,,,false,,,,85519.89999997616,85519.79999998212,,85519.59999999404,,85538.222,8,400,,,
break_continue,html.Screen,4_8_2,2023-09-08T20:47:45.289Z,,0,,,NaN,,,,,,false,,,,85520.09999999404,85520,,85519.89999997616,,85538.222,8,400,,,
sequence,flow.Sequence,4_8,2023-09-08T20:47:45.289Z,,0,,,4184.838000000003,completion,,,,,false,,,,85520.09999999404,85520,81331.254,81333.89999997616,81335.162,85538.222,8,400,,,
trial,html.Screen,4_9_0,2023-09-08T20:47:48.395Z,,0,1,,3087.5779999821243,response,ISIC_0024344.JPG,4,ISIC_3941147.JPG,ISIC_0024344.JPG,false,1,keypress(m),500,88626,88625.79999998212,85521.48,85520.09999999404,85538.222,88628.718,8,400,10,,ISIC_3941147.JPG
break,html.Screen,4_9_1,2023-09-08T20:47:48.396Z,,0,,,NaN,,,,,,false,,,,88626.79999998212,88626.59999999404,,88626.19999998808,,88628.718,8,400,,,
break_continue,html.Screen,4_9_2,2023-09-08T20:47:48.397Z,,0,,,NaN,,,,,,false,,,,88627.19999998808,88627,,88627,,88628.718,8,400,,,
sequence,flow.Sequence,4_9,2023-09-08T20:47:48.397Z,,0,,,3088.7780000000057,completion,,,,,false,,,,88627.29999998212,88627,85521.48,85520.09999999404,85538.222,88628.718,8,400,,,
trial,html.Screen,4_10_0,2023-09-08T20:47:51.759Z,,0,1,,3361.2820000000065,response,ISIC_1806179.JPG,5,ISIC_0026309.JPG,ISIC_1806179.JPG,false,1,keypress(m),500,91990.09999999404,91990,88621.436,88627.39999997616,88628.718,92000.818,8,400,11,,ISIC_0026309.JPG
break,html.Screen,4_10_1,2023-09-08T20:47:51.760Z,,0,,,NaN,,,,,,false,,,,91991,91990.69999998808,,91990.29999998212,,92000.818,8,400,,,
break_continue,html.Screen,4_10_2,2023-09-08T20:47:51.761Z,,0,,,NaN,,,,,,false,,,,91991.29999998212,91991.09999999404,,91991,,92000.818,8,400,,,
sequence,flow.Sequence,4_10,2023-09-08T20:47:51.761Z,,0,,,3362.381999994046,completion,,,,,false,,,,91991.5,91991.09999999404,88621.436,88627.39999997616,88628.718,92000.818,8,400,,,
trial,html.Screen,4_11_0,2023-09-08T20:47:57.395Z,,0,1,,5624.78199999404,response,ISIC_5281576.JPG,6,ISIC_0028543.JPG,ISIC_5281576.JPG,false,1,keypress(m),500,97625.69999998808,97625.59999999404,91984.119,91991.5,92000.818,97628.639,8,400,12,,ISIC_0028543.JPG
break,html.Screen,4_11_1,2023-09-08T20:47:57.396Z,,0,,,NaN,,,,,,false,,,,97626.59999999404,97626.39999997616,,97625.89999997616,,97628.639,8,400,,,
break_continue,html.Screen,4_11_2,2023-09-08T20:47:57.396Z,,0,,,NaN,,,,,,false,,,,97627,97626.79999998212,,97626.69999998808,,97628.639,8,400,,,
sequence,flow.Sequence,4_11,2023-09-08T20:47:57.396Z,,0,,,5625.981999982119,completion,,,,,false,,,,97627.09999999404,97626.79999998212,91984.119,91991.5,92000.818,97628.639,8,400,,,
trial,html.Screen,4_12_0,2023-09-08T20:48:00.601Z,,0,1,,3202.5609999880835,response,ISIC_4654443.JPG,5,ISIC_0027636.JPG,ISIC_0027636.JPG,false,0,keypress(z),500,100831.69999998808,100831.19999998808,97620.692,97627.19999998808,97628.639,100838.036,8,400,13,,ISIC_4654443.JPG
break,html.Screen,4_12_1,2023-09-08T20:48:00.602Z,,0,,,NaN,,,,,,false,,,,100833,100832.69999998808,,100832,,100838.036,8,400,,,
break_continue,html.Screen,4_12_2,2023-09-08T20:48:00.603Z,,0,,,NaN,,,,,,false,,,,100833.39999997616,100833.19999998808,,100833.09999999404,,100838.036,8,400,,,
sequence,flow.Sequence,4_12,2023-09-08T20:48:00.603Z,,0,,,3204.5609999880835,completion,,,,,false,,,,100833.59999999404,100833.19999998808,97620.692,97627.19999998808,97628.639,100838.036,8,400,,,
trial,html.Screen,4_13_0,2023-09-08T20:48:04.653Z,,0,1,,4045.964000000007,response,ISIC_0030029.JPG,4,ISIC_0060326.JPG,ISIC_0060326.JPG,false,0,keypress(z),500,104884.09999999404,104884,100827.714,100833.79999998212,100838.036,104885.98,8,400,14,,ISIC_0030029.JPG
break,html.Screen,4_13_1,2023-09-08T20:48:04.654Z,,0,,,NaN,,,,,,false,,,,104884.79999998212,104884.59999999404,,104884.29999998212,,104885.98,8,400,,,
break_continue,html.Screen,4_13_2,2023-09-08T20:48:04.654Z,,0,,,NaN,,,,,,false,,,,104885,104884.89999997616,,104884.89999997616,,104885.98,8,400,,,
sequence,flow.Sequence,4_13,2023-09-08T20:48:04.654Z,,0,,,4046.8639999761654,completion,,,,,false,,,,104885,104884.89999997616,100827.714,100833.69999998808,100838.036,104885.98,8,400,,,
trial,html.Screen,4_14_0,2023-09-08T20:48:08.369Z,,0,1,,3713.1199999940436,response,ISIC_7565128.JPG,5,ISIC_0014926.JPG,ISIC_0014926.JPG,false,0,keypress(z),500,108599.39999997616,108599.09999999404,104880.718,104885.09999999404,104885.98,108602.205,8,400,15,,ISIC_7565128.JPG
break,html.Screen,4_14_1,2023-09-08T20:48:08.370Z,,0,,,NaN,,,,,,false,,,,108600.29999998212,108600.09999999404,,108599.59999999404,,108602.205,8,400,,,
break_continue,html.Screen,4_14_2,2023-09-08T20:48:08.370Z,,0,,,NaN,,,,,,false,,,,108600.59999999404,108600.5,,108600.39999997616,,108602.205,8,400,,,
sequence,flow.Sequence,4_14,2023-09-08T20:48:08.370Z,,0,,,3714.520000000004,completion,,,,,false,,,,108600.69999998808,108600.5,104880.718,104885.09999999404,104885.98,108602.205,8,400,,,
trial,html.Screen,4_15_0,2023-09-08T20:48:11.973Z,,0,1,,3600.7949999999983,response,ISIC_0011757.JPG,6,ISIC_0026141.JPG,ISIC_0011757.JPG,false,1,keypress(m),500,112203.19999998808,112203,108596.473,108600.79999998212,108602.205,112205.931,8,400,16,,ISIC_0026141.JPG
break,html.Screen,4_15_1,2023-09-08T20:48:11.974Z,,0,,,NaN,,,,,,false,,,,112204,112203.89999997616,,112203.29999998212,,112205.931,8,400,,,
break_continue,html.Screen,4_15_2,2023-09-08T20:48:11.974Z,,0,,,NaN,,,,,,false,,,,112204.39999997616,112204.29999998212,,112204.19999998808,,112205.931,8,400,,,
sequence,flow.Sequence,4_15,2023-09-08T20:48:11.974Z,,0,,,3602.094999982117,completion,,,,,false,,,,112204.59999999404,112204.29999998212,108596.473,108600.79999998212,108602.205,112205.931,8,400,,,
trial,html.Screen,4_16_0,2023-09-08T20:48:15.872Z,,0,1,,3896.268999988082,response,ISIC_0014308.JPG,4,ISIC_4918571.JPG,ISIC_0014308.JPG,false,1,keypress(m),500,116102.39999997616,116102.19999998808,112201.51,112204.69999998808,112205.931,116105.19,8,400,17,,ISIC_4918571.JPG
break,html.Screen,4_16_1,2023-09-08T20:48:15.873Z,,0,,,NaN,,,,,,false,,,,116103.19999998808,116103,,116102.59999999404,,116105.19,8,400,,,
break_continue,html.Screen,4_16_2,2023-09-08T20:48:15.873Z,,0,,,NaN,,,,,,false,,,,116103.5,116103.39999997616,,116103.29999998212,,116105.19,8,400,,,
sequence,flow.Sequence,4_16,2023-09-08T20:48:15.873Z,,0,,,3897.4689999761613,completion,,,,,false,,,,116103.79999998212,116103.39999997616,112201.51,112204.69999998808,112205.931,116105.19,8,400,,,
trial,html.Screen,4_17_0,2023-09-08T20:48:19.331Z,,0,1,,3456.0099999880767,response,ISIC_0025791.JPG,5,ISIC_0025759.JPG,ISIC_0025791.JPG,false,1,keypress(m),500,119561.5,119561.19999998808,116102.393,116103.89999997616,116105.19,119563.86,8,400,18,,ISIC_0025759.JPG
break,html.Screen,4_17_1,2023-09-08T20:48:19.332Z,,0,,,NaN,,,,,,false,,,,119562,119562,,119561.59999999404,,119563.86,8,400,,,
break_continue,html.Screen,4_17_2,2023-09-08T20:48:19.332Z,,0,,,NaN,,,,,,false,,,,119562.29999998212,119562.29999998212,,119562.09999999404,,119563.86,8,400,,,
sequence,flow.Sequence,4_17,2023-09-08T20:48:19.332Z,,0,,,3457.1099999821163,completion,,,,,false,,,,119562.39999997616,119562.29999998212,116102.393,116103.89999997616,116105.19,119563.86,8,400,,,
trial,html.Screen,4_18_0,2023-09-08T20:48:23.063Z,,0,1,,3729.8399999880785,response,ISIC_0026690.JPG,5,ISIC_2463014.JPG,ISIC_0026690.JPG,false,1,keypress(m),500,123293.89999997616,123293.69999998808,119546.94,119562.59999999404,119563.86,123296.662,8,400,19,,ISIC_2463014.JPG
break,html.Screen,4_18_1,2023-09-08T20:48:23.064Z,,0,,,NaN,,,,,,false,,,,123294.69999998808,123294.59999999404,,123294.09999999404,,123296.662,8,400,,,
break_continue,html.Screen,4_18_2,2023-09-08T20:48:23.064Z,,0,,,NaN,,,,,,false,,,,123295,123294.89999997616,,123294.79999998212,,123296.662,8,400,,,
sequence,flow.Sequence,4_18,2023-09-08T20:48:23.065Z,,0,,,3731.0399999761576,completion,,,,,false,,,,123295.19999998808,123294.89999997616,119546.94,119562.59999999404,119563.86,123296.662,8,400,,,
trial,html.Screen,4_19_0,2023-09-08T20:48:26.410Z,,0,1,,3343.937999994043,response,ISIC_0033129.JPG,5,ISIC_4640181.JPG,ISIC_0033129.JPG,false,1,keypress(m),500,126640.69999998808,126640.59999999404,123286.159,123295.29999998212,123296.662,126642.786,8,400,20,,ISIC_4640181.JPG
break,html.Screen,4_19_1,2023-09-08T20:48:26.411Z,,0,,,NaN,,,,,,false,,,,126641,126641,,126640.79999998212,,126642.786,8,400,,,
break_continue,html.Screen,4_19_2,2023-09-08T20:48:26.411Z,,0,,,NaN,,,,,,false,,,,126641.19999998808,126641.09999999404,,126641.09999999404,,126642.786,8,400,,,
sequence,flow.Sequence,4_19,2023-09-08T20:48:26.411Z,,0,,,3344.437999994043,completion,,,,,false,,,,126641.19999998808,126641.09999999404,123286.159,123295.19999998808,123296.662,126642.786,8,400,,,
trial,html.Screen,4_20_0,2023-09-08T20:48:29.981Z,,0,1,,3568.1139999761654,response,ISIC_5362038.JPG,5,ISIC_7711947.JPG,ISIC_7711947.JPG,false,0,keypress(z),500,130211,130210.89999997616,126638.849,126641.19999998808,126642.786,130213.707,8,400,21,,ISIC_5362038.JPG
break,html.Screen,4_20_1,2023-09-08T20:48:29.981Z,,0,,,NaN,,,,,,false,,,,130211.89999997616,130211.69999998808,,130211.19999998808,,130213.707,8,400,,,
break_continue,html.Screen,4_20_2,2023-09-08T20:48:29.982Z,,0,,,NaN,,,,,,false,,,,130212.09999999404,130212,,130212,,130213.707,8,400,,,
sequence,flow.Sequence,4_20,2023-09-08T20:48:29.982Z,,0,,,3569.214000000007,completion,,,,,false,,,,130212.39999997616,130212,126638.849,126641.19999998808,126642.786,130213.707,8,400,,,
trial,html.Screen,4_21_0,2023-09-08T20:48:33.568Z,,0,1,,3584.6929999761633,response,ISIC_6779421.JPG,4,ISIC_5823292.JPG,ISIC_5823292.JPG,false,0,keypress(z),500,133798.59999999404,133798.39999997616,130198.115,130212.39999997616,130213.707,133801.072,8,400,22,,ISIC_6779421.JPG
break,html.Screen,4_21_1,2023-09-08T20:48:33.569Z,,0,,,NaN,,,,,,false,,,,133799.29999998212,133799.19999998808,,133798.79999998212,,133801.072,8,400,,,
break_continue,html.Screen,4_21_2,2023-09-08T20:48:33.569Z,,0,,,NaN,,,,,,false,,,,133799.59999999404,133799.5,,133799.5,,133801.072,8,400,,,
sequence,flow.Sequence,4_21,2023-09-08T20:48:33.569Z,,0,,,3585.793000000005,completion,,,,,false,,,,133799.79999998212,133799.5,130198.115,130212.39999997616,130213.707,133801.072,8,400,,,
trial,html.Screen,4_22_0,2023-09-08T20:48:37.779Z,,0,1,,4207.928000000014,response,ISIC_0024236.JPG,4,ISIC_5611515.JPG,ISIC_5611515.JPG,false,0,keypress(z),500,138009.19999998808,138009,133798.018,133800,133801.072,138011.879,8,400,23,,ISIC_0024236.JPG
break,html.Screen,4_22_1,2023-09-08T20:48:37.779Z,,0,,,NaN,,,,,,false,,,,138010,138009.89999997616,,138009.39999997616,,138011.879,8,400,,,
break_continue,html.Screen,4_22_2,2023-09-08T20:48:37.780Z,,0,,,NaN,,,,,,false,,,,138010.29999998212,138010.19999998808,,138010.09999999404,,138011.879,8,400,,,
sequence,flow.Sequence,4_22,2023-09-08T20:48:37.780Z,,0,,,4209.1279999880935,completion,,,,,false,,,,138010.5,138010.19999998808,133798.018,133799.89999997616,133801.072,138011.879,8,400,,,
trial,html.Screen,4_23_0,2023-09-08T20:48:42.742Z,,0,1,,4960.320999988093,response,ISIC_2798803.JPG,4,ISIC_8051628.JPG,ISIC_8051628.JPG,false,0,keypress(z),500,142972.39999997616,142972.19999998808,138007.464,138010.69999998808,138011.879,142975.381,8,400,24,,ISIC_2798803.JPG
break,html.Screen,4_23_1,2023-09-08T20:48:42.743Z,,0,,,NaN,,,,,,false,,,,142973.19999998808,142973,,142972.59999999404,,142975.381,8,400,,,
break_continue,html.Screen,4_23_2,2023-09-08T20:48:42.743Z,,0,,,NaN,,,,,,false,,,,142973.5,142973.39999997616,,142973.29999998212,,142975.381,8,400,,,
sequence,flow.Sequence,4_23,2023-09-08T20:48:42.743Z,,0,,,4961.520999976172,completion,,,,,false,,,,142973.69999998808,142973.39999997616,138007.464,138010.59999999404,138011.879,142975.381,8,400,,,
trial,html.Screen,4_24_0,2023-09-08T20:48:46.187Z,,0,1,,3442.518999976164,response,ISIC_2481044.JPG,6,ISIC_2753279.JPG,ISIC_2481044.JPG,false,1,keypress(m),500,146418,146417.89999997616,142970.816,142973.69999998808,142975.381,146420.216,8,400,25,,ISIC_2753279.JPG
break,html.Screen,4_24_1,2023-09-08T20:48:46.188Z,,0,,,NaN,,,,,,false,,,,146418.39999997616,146418.29999998212,,146418.09999999404,,146420.216,8,400,,,
break_continue,html.Screen,4_24_2,2023-09-08T20:48:46.188Z,,0,,,NaN,,,,,,false,,,,146418.59999999404,146418.5,,146418.5,,146420.216,8,400,,,
sequence,flow.Sequence,4_24,2023-09-08T20:48:46.188Z,,0,,,3443.119000000006,completion,,,,,false,,,,146418.59999999404,146418.5,142970.816,142973.69999998808,142975.381,146420.216,8,400,,,
trial,html.Screen,4_25_0,2023-09-08T20:48:50.480Z,,0,1,,4290.483999988093,response,ISIC_0010942.JPG,5,ISIC_0011894.JPG,ISIC_0010942.JPG,false,1,keypress(m),500,150710.89999997616,150710.69999998808,146413.101,146418.59999999404,146420.216,150713.854,8,400,26,,ISIC_0011894.JPG
break,html.Screen,4_25_1,2023-09-08T20:48:50.481Z,,0,,,NaN,,,,,,false,,,,150711.79999998212,150711.69999998808,,150711.09999999404,,150713.854,8,400,,,
break_continue,html.Screen,4_25_2,2023-09-08T20:48:50.482Z,,0,,,NaN,,,,,,false,,,,150712.19999998808,150712.09999999404,,150712,,150713.854,8,400,,,
sequence,flow.Sequence,4_25,2023-09-08T20:48:50.482Z,,0,,,4291.883999994054,completion,,,,,false,,,,150712.29999998212,150712.09999999404,146413.101,146418.59999999404,146420.216,150713.854,8,400,,,
trial,html.Screen,4_26_0,2023-09-08T20:48:54.884Z,,0,1,,4400.245999994047,response,ISIC_6258744.JPG,5,ISIC_0060341.JPG,ISIC_0060341.JPG,false,0,keypress(z),500,155114.29999998212,155114.09999999404,150710.624,150712.5,150713.854,155116.309,8,400,27,,ISIC_6258744.JPG
break,html.Screen,4_26_1,2023-09-08T20:48:54.884Z,,0,,,NaN,,,,,,false,,,,155114.89999997616,155114.69999998808,,155114.5,,155116.309,8,400,,,
break_continue,html.Screen,4_26_2,2023-09-08T20:48:54.885Z,,0,,,NaN,,,,,,false,,,,155115.19999998808,155115.09999999404,,155115,,155116.309,8,400,,,
sequence,flow.Sequence,4_26,2023-09-08T20:48:54.885Z,,0,,,4401.245999994047,completion,,,,,false,,,,155115.29999998212,155115.09999999404,150710.624,150712.5,150713.854,155116.309,8,400,,,
trial,html.Screen,4_27_0,2023-09-08T20:48:58.838Z,,0,1,,3952.3909999880707,response,ISIC_0030725.JPG,5,ISIC_6976570.JPG,ISIC_0030725.JPG,false,1,keypress(m),500,159068.89999997616,159068.69999998808,155107.941,155115.5,155116.309,159071.449,8,400,28,,ISIC_6976570.JPG
break,html.Screen,4_27_1,2023-09-08T20:48:58.839Z,,0,,,NaN,,,,,,false,,,,159069.59999999404,159069.5,,159069.09999999404,,159071.449,8,400,,,
break_continue,html.Screen,4_27_2,2023-09-08T20:48:58.839Z,,0,,,NaN,,,,,,false,,,,159070,159069.79999998212,,159069.79999998212,,159071.449,8,400,,,
sequence,flow.Sequence,4_27,2023-09-08T20:48:58.840Z,,0,,,3953.49099998211,completion,,,,,false,,,,159070.19999998808,159069.79999998212,155107.941,155115.39999997616,155116.309,159071.449,8,400,,,
trial,html.Screen,4_28_0,2023-09-08T20:49:02.266Z,,0,1,,3424.6509999940463,response,ISIC_0028919.JPG,5,ISIC_0813423.JPG,ISIC_0813423.JPG,false,0,keypress(z),500,162496.39999997616,162496.09999999404,159068.451,159070.39999997616,159071.449,162499.035,8,400,29,,ISIC_0028919.JPG
break,html.Screen,4_28_1,2023-09-08T20:49:02.267Z,,0,,,NaN,,,,,,false,,,,162497.09999999404,162497,,162496.5,,162499.035,8,400,,,
break_continue,html.Screen,4_28_2,2023-09-08T20:49:02.267Z,,0,,,NaN,,,,,,false,,,,162497.5,162497.29999998212,,162497.29999998212,,162499.035,8,400,,,
sequence,flow.Sequence,4_28,2023-09-08T20:49:02.267Z,,0,,,3425.8509999821254,completion,,,,,false,,,,162497.59999999404,162497.29999998212,159068.451,159070.29999998212,159071.449,162499.035,8,400,,,
trial,html.Screen,4_29_0,2023-09-08T20:49:06.573Z,,0,1,,4304.164999988076,response,ISIC_0054377.JPG,4,ISIC_7799968.JPG,ISIC_0054377.JPG,false,1,keypress(m),500,166803.19999998808,166803.19999998808,162490.524,162497.69999998808,162499.035,166805.379,8,400,30,,ISIC_7799968.JPG
break,html.Screen,4_29_1,2023-09-08T20:49:06.573Z,,0,,,NaN,,,,,,false,,,,166803.59999999404,166803.59999999404,,166803.39999997616,,166805.379,8,400,,,
break_continue,html.Screen,4_29_2,2023-09-08T20:49:06.573Z,,0,,,NaN,,,,,,false,,,,166803.79999998212,166803.69999998808,,166803.69999998808,,166805.379,8,400,,,
sequence,flow.Sequence,4_29,2023-09-08T20:49:06.573Z,,0,,,4304.664999988076,completion,,,,,false,,,,166803.79999998212,166803.69999998808,162490.524,162497.69999998808,162499.035,166805.379,8,400,,,
trial,html.Screen,4_30_0,2023-09-08T20:49:10.865Z,,0,1,,4289.520999976172,response,ISIC_0065480.JPG,4,ISIC_0026008.JPG,ISIC_0026008.JPG,false,0,keypress(z),500,171095.09999999404,171094.89999997616,166801.514,166803.89999997616,166805.379,171097.951,8,400,31,,ISIC_0065480.JPG
break,html.Screen,4_30_1,2023-09-08T20:49:10.866Z,,0,,,NaN,,,,,,false,,,,171095.89999997616,171095.79999998212,,171095.39999997616,,171097.951,8,400,,,
break_continue,html.Screen,4_30_2,2023-09-08T20:49:10.866Z,,0,,,NaN,,,,,,false,,,,171096.39999997616,171096.19999998808,,171096.09999999404,,171097.951,8,400,,,
sequence,flow.Sequence,4_30,2023-09-08T20:49:10.866Z,,0,,,4290.820999988093,completion,,,,,false,,,,171096.59999999404,171096.19999998808,166801.514,166803.89999997616,166805.379,171097.951,8,400,,,
trial,html.Screen,4_31_0,2023-09-08T20:49:14.582Z,,0,1,,3714.3489999821177,response,ISIC_4394524.JPG,5,ISIC_0030932.JPG,ISIC_0030932.JPG,false,0,keypress(z),500,174812.5,174812.29999998212,171094.646,171096.69999998808,171097.951,174815.182,8,400,32,,ISIC_4394524.JPG
break,html.Screen,4_31_1,2023-09-08T20:49:14.583Z,,0,,,NaN,,,,,,false,,,,174813.29999998212,174813.19999998808,,174812.69999998808,,174815.182,8,400,,,
break_continue,html.Screen,4_31_2,2023-09-08T20:49:14.583Z,,0,,,NaN,,,,,,false,,,,174813.59999999404,174813.5,,174813.39999997616,,174815.182,8,400,,,
sequence,flow.Sequence,4_31,2023-09-08T20:49:14.584Z,,0,,,3715.548999999999,completion,,,,,false,,,,174813.89999997616,174813.5,171094.646,171096.59999999404,171097.951,174815.182,8,400,,,
trial,html.Screen,4_32_0,2023-09-08T20:49:17.741Z,,0,1,,3155.917999994039,response,ISIC_0065219.JPG,6,ISIC_5081382.JPG,ISIC_0065219.JPG,false,1,keypress(m),500,177971.29999998212,177971.09999999404,174811.67,174814,174815.182,177991.053,8,400,33,,ISIC_5081382.JPG
break,html.Screen,4_32_1,2023-09-08T20:49:17.742Z,,0,,,NaN,,,,,,false,,,,177972.19999998808,177972,,177971.5,,177991.053,8,400,,,
break_continue,html.Screen,4_32_2,2023-09-08T20:49:17.742Z,,0,,,NaN,,,,,,false,,,,177972.5,177972.39999997616,,177972.29999998212,,177991.053,8,400,,,
sequence,flow.Sequence,4_32,2023-09-08T20:49:17.742Z,,0,,,3157.2179999761574,completion,,,,,false,,,,177972.59999999404,177972.39999997616,174811.67,174813.89999997616,174815.182,177991.053,8,400,,,
trial,html.Screen,4_33_0,2023-09-08T20:49:21.202Z,,0,1,,3440.6469999880646,response,ISIC_4938791.JPG,5,ISIC_0066109.JPG,ISIC_4938791.JPG,false,1,keypress(m),500,181431.79999998212,181431.69999998808,177972.524,177972.89999997616,177991.053,181434.647,8,400,34,,ISIC_0066109.JPG
break,html.Screen,4_33_1,2023-09-08T20:49:21.202Z,,0,,,NaN,,,,,,false,,,,181432.69999998808,181432.5,,181432.09999999404,,181434.647,8,400,,,
break_continue,html.Screen,4_33_2,2023-09-08T20:49:21.203Z,,0,,,NaN,,,,,,false,,,,181433,181432.89999997616,,181432.79999998212,,181434.647,8,400,,,
sequence,flow.Sequence,4_33,2023-09-08T20:49:21.203Z,,0,,,3441.8469999761437,completion,,,,,false,,,,181433.19999998808,181432.89999997616,177972.524,177972.79999998212,177991.053,181434.647,8,400,,,
trial,html.Screen,4_34_0,2023-09-08T20:49:25.045Z,,0,1,,3840.052999988082,response,ISIC_0000384.JPG,4,ISIC_7276156.JPG,ISIC_7276156.JPG,false,0,keypress(z),500,185274.79999998212,185274.69999998808,181433.092,181433.29999998212,181434.647,185277.762,8,400,35,,ISIC_0000384.JPG
break,html.Screen,4_34_1,2023-09-08T20:49:25.045Z,,0,,,NaN,,,,,,false,,,,185275.79999998212,185275.59999999404,,185275.09999999404,,185277.762,8,400,,,
break_continue,html.Screen,4_34_2,2023-09-08T20:49:25.046Z,,0,,,NaN,,,,,,false,,,,185276.09999999404,185276,,185275.89999997616,,185277.762,8,400,,,
sequence,flow.Sequence,4_34,2023-09-08T20:49:25.046Z,,0,,,3841.353000000003,completion,,,,,false,,,,185276.19999998808,185276,181433.092,181433.29999998212,181434.647,185277.762,8,400,,,
trial,html.Screen,4_35_0,2023-09-08T20:49:28.632Z,,0,1,,3584.6379999761702,response,ISIC_6033222.JPG,5,ISIC_8002729.JPG,ISIC_6033222.JPG,false,1,keypress(m),500,188862.59999999404,188862.39999997616,185269.5,185276.39999997616,185277.762,188865.281,8,400,36,,ISIC_8002729.JPG
break,html.Screen,4_35_1,2023-09-08T20:49:28.633Z,,0,,,NaN,,,,,,false,,,,188863.29999998212,188863.29999998212,,188862.79999998212,,188865.281,8,400,,,
break_continue,html.Screen,4_35_2,2023-09-08T20:49:28.633Z,,0,,,NaN,,,,,,false,,,,188863.69999998808,188863.59999999404,,188863.5,,188865.281,8,400,,,
sequence,flow.Sequence,4_35,2023-09-08T20:49:28.634Z,,0,,,3585.8379999940516,completion,,,,,false,,,,188863.89999997616,188863.59999999404,185269.5,185276.29999998212,185277.762,188865.281,8,400,,,
trial,html.Screen,4_36_0,2023-09-08T20:49:33.067Z,,0,1,,4432.11899997617,response,ISIC_1798471.JPG,6,ISIC_7162711.JPG,ISIC_1798471.JPG,false,1,keypress(m),500,193297.59999999404,193297.39999997616,188854.663,188864,188865.281,193300.168,8,400,37,,ISIC_7162711.JPG
break,html.Screen,4_36_1,2023-09-08T20:49:33.068Z,,0,,,NaN,,,,,,false,,,,193298.39999997616,193298.19999998808,,193297.69999998808,,193300.168,8,400,,,
break_continue,html.Screen,4_36_2,2023-09-08T20:49:33.068Z,,0,,,NaN,,,,,,false,,,,193298.69999998808,193298.59999999404,,193298.39999997616,,193300.168,8,400,,,
sequence,flow.Sequence,4_36,2023-09-08T20:49:33.069Z,,0,,,4433.318999994051,completion,,,,,false,,,,193298.79999998212,193298.59999999404,188854.663,188864,188865.281,193300.168,8,400,,,
trial,html.Screen,4_37_0,2023-09-08T20:49:37.023Z,,0,1,,3952.731999976153,response,ISIC_1315123.JPG,5,ISIC_0066739.JPG,ISIC_1315123.JPG,false,1,keypress(m),500,197253.09999999404,197252.89999997616,193295.496,193299,193300.168,197255.747,8,400,38,,ISIC_0066739.JPG
break,html.Screen,4_37_1,2023-09-08T20:49:37.024Z,,0,,,NaN,,,,,,false,,,,197253.89999997616,197253.69999998808,,197253.19999998808,,197255.747,8,400,,,
break_continue,html.Screen,4_37_2,2023-09-08T20:49:37.024Z,,0,,,NaN,,,,,,false,,,,197254.09999999404,197254.09999999404,,197254,,197255.747,8,400,,,
sequence,flow.Sequence,4_37,2023-09-08T20:49:37.024Z,,0,,,3953.9319999940344,completion,,,,,false,,,,197254.39999997616,197254.09999999404,193295.496,193298.89999997616,193300.168,197255.747,8,400,,,
trial,html.Screen,4_38_0,2023-09-08T20:49:40.515Z,,0,1,,3489.0529999821156,response,ISIC_8504479.JPG,5,ISIC_0032726.JPG,ISIC_0032726.JPG,false,0,keypress(z),500,200745.09999999404,200744.79999998212,197252.983,197254.59999999404,197255.747,200747.469,8,400,39,,ISIC_8504479.JPG
break,html.Screen,4_38_1,2023-09-08T20:49:40.516Z,,0,,,NaN,,,,,,false,,,,200746,200745.79999998212,,200745.09999999404,,200747.469,8,400,,,
break_continue,html.Screen,4_38_2,2023-09-08T20:49:40.516Z,,0,,,NaN,,,,,,false,,,,200746.59999999404,200746.39999997616,,200746.19999998808,,200747.469,8,400,,,
sequence,flow.Sequence,4_38,2023-09-08T20:49:40.516Z,,0,,,3490.652999976155,completion,,,,,false,,,,200746.69999998808,200746.39999997616,197252.983,197254.5,197255.747,200747.469,8,400,,,
trial,html.Screen,4_39_0,2023-09-08T20:49:43.654Z,,0,1,,3136.3309999821067,response,ISIC_6793603.JPG,5,ISIC_0013688.JPG,ISIC_6793603.JPG,false,1,keypress(m),500,203883.89999997616,203883.79999998212,200732.184,200746.69999998808,200747.469,203886.867,8,400,40,,ISIC_0013688.JPG
break,html.Screen,4_39_1,2023-09-08T20:49:43.655Z,,0,,,NaN,,,,,,false,,,,203884.79999998212,203884.69999998808,,203884.19999998808,,203886.867,8,400,,,
break_continue,html.Screen,4_39_2,2023-09-08T20:49:43.655Z,,0,,,NaN,,,,,,false,,,,203885.19999998808,203885,,203885,,203886.867,8,400,,,
sequence,flow.Sequence,4_39,2023-09-08T20:49:43.655Z,,0,,,3137.530999999988,completion,,,,,false,,,,203885.39999997616,203885,200732.184,200746.69999998808,200747.469,203886.867,8,400,,,
trial,html.Screen,4_40_0,2023-09-08T20:49:47.359Z,,0,1,,3701.732999994041,response,ISIC_5552381.JPG,5,ISIC_1334438.JPG,ISIC_5552381.JPG,false,1,keypress(m),500,207588.79999998212,207588.59999999404,203884.197,203885.59999999404,203886.867,207591.87,8,400,41,,ISIC_1334438.JPG
break,html.Screen,4_40_1,2023-09-08T20:49:47.359Z,,0,,,NaN,,,,,,false,,,,207589.79999998212,207589.5,,207589.09999999404,,207591.87,8,400,,,
break_continue,html.Screen,4_40_2,2023-09-08T20:49:47.360Z,,0,,,NaN,,,,,,false,,,,207590.29999998212,207590.19999998808,,207590,,207591.87,8,400,,,
sequence,flow.Sequence,4_40,2023-09-08T20:49:47.360Z,,0,,,3703.3329999880807,completion,,,,,false,,,,207590.59999999404,207590.19999998808,203884.197,203885.5,203886.867,207591.87,8,400,,,
trial,html.Screen,4_41_0,2023-09-08T20:49:51.298Z,,0,1,,3936.229999994044,response,ISIC_0061884.JPG,6,ISIC_7533983.JPG,ISIC_7533983.JPG,false,0,keypress(z),500,211528.39999997616,211528.09999999404,207589.626,207590.59999999404,207591.87,211530.991,8,400,42,,ISIC_0061884.JPG
break,html.Screen,4_41_1,2023-09-08T20:49:51.299Z,,0,,,NaN,,,,,,false,,,,211529.19999998808,211529.09999999404,,211528.5,,211530.991,8,400,,,
break_continue,html.Screen,4_41_2,2023-09-08T20:49:51.299Z,,0,,,NaN,,,,,,false,,,,211529.5,211529.39999997616,,211529.29999998212,,211530.991,8,400,,,
sequence,flow.Sequence,4_41,2023-09-08T20:49:51.299Z,,0,,,3937.529999976163,completion,,,,,false,,,,211529.69999998808,211529.39999997616,207589.626,207590.59999999404,207591.87,211530.991,8,400,,,
trial,html.Screen,4_42_0,2023-09-08T20:49:54.773Z,,0,1,,3472.408999976149,response,ISIC_0062530.JPG,5,ISIC_9301005.JPG,ISIC_9301005.JPG,false,0,keypress(z),500,215003.5,215003.39999997616,211528.867,211529.89999997616,211530.991,215005.862,8,400,43,,ISIC_0062530.JPG
break,html.Screen,4_42_1,2023-09-08T20:49:54.774Z,,0,,,NaN,,,,,,false,,,,215003.89999997616,215003.79999998212,,215003.59999999404,,215005.862,8,400,,,
break_continue,html.Screen,4_42_2,2023-09-08T20:49:54.774Z,,0,,,NaN,,,,,,false,,,,215004.19999998808,215004.09999999404,,215004,,215005.862,8,400,,,
sequence,flow.Sequence,4_42,2023-09-08T20:49:54.774Z,,0,,,3473.1089999940305,completion,,,,,false,,,,215004.19999998808,215004.09999999404,211528.867,211529.79999998212,211530.991,215005.862,8,400,,,
trial,html.Screen,4_43_0,2023-09-08T20:49:58.375Z,,0,1,,3599.6380000000063,response,ISIC_0003113.JPG,5,ISIC_0001792.JPG,ISIC_0001792.JPG,false,0,keypress(z),500,218605.59999999404,218605.5,215003.465,215004.29999998212,215005.862,218607.585,8,400,44,,ISIC_0003113.JPG
break,html.Screen,4_43_1,2023-09-08T20:49:58.376Z,,0,,,NaN,,,,,,false,,,,218606,218605.89999997616,,218605.59999999404,,218607.585,8,400,,,
break_continue,html.Screen,4_43_2,2023-09-08T20:49:58.376Z,,0,,,NaN,,,,,,false,,,,218606.09999999404,218606.09999999404,,218606.09999999404,,218607.585,8,400,,,
sequence,flow.Sequence,4_43,2023-09-08T20:49:58.376Z,,0,,,3600.237999994046,completion,,,,,false,,,,218606.19999998808,218606.09999999404,215003.465,215004.29999998212,215005.862,218607.585,8,400,,,
trial,html.Screen,4_44_0,2023-09-08T20:50:01.691Z,,0,1,,3313.2149999821268,response,ISIC_0025814.JPG,5,ISIC_4764568.JPG,ISIC_0025814.JPG,false,1,keypress(m),500,221921.09999999404,221920.79999998212,218605.056,218606.19999998808,218607.585,221924.17,8,400,45,,ISIC_4764568.JPG
break,html.Screen,4_44_1,2023-09-08T20:50:01.692Z,,0,,,NaN,,,,,,false,,,,221922,221921.79999998212,,221921.39999997616,,221924.17,8,400,,,
break_continue,html.Screen,4_44_2,2023-09-08T20:50:01.692Z,,0,,,NaN,,,,,,false,,,,221922.29999998212,221922.19999998808,,221922.09999999404,,221924.17,8,400,,,
sequence,flow.Sequence,4_44,2023-09-08T20:50:01.692Z,,0,,,3314.614999988087,completion,,,,,false,,,,221922.5,221922.19999998808,218605.056,218606.19999998808,218607.585,221924.17,8,400,,,
trial,html.Screen,4_45_0,2023-09-08T20:50:05.808Z,,0,1,,4113.429999994027,response,ISIC_0302804.JPG,4,ISIC_0072004.JPG,ISIC_0072004.JPG,false,0,keypress(z),500,226037.89999997616,226037.59999999404,221910.983,221922.69999998808,221924.17,226056.651,8,400,46,,ISIC_0302804.JPG
break,html.Screen,4_45_1,2023-09-08T20:50:05.808Z,,0,,,NaN,,,,,,false,,,,226038.39999997616,226038.19999998808,,226038,,226056.651,8,400,,,
break_continue,html.Screen,4_45_2,2023-09-08T20:50:05.808Z,,0,,,NaN,,,,,,false,,,,226038.59999999404,226038.5,,226038.39999997616,,226056.651,8,400,,,
sequence,flow.Sequence,4_45,2023-09-08T20:50:05.808Z,,0,,,4114.329999999987,completion,,,,,false,,,,226038.79999998212,226038.5,221910.983,221922.59999999404,221924.17,226056.651,8,400,,,
trial,html.Screen,4_46_0,2023-09-08T20:50:09.906Z,,0,1,,4079.2489999761456,response,ISIC_3738751.JPG,6,ISIC_0046659.JPG,ISIC_0046659.JPG,false,0,keypress(z),500,230136,230135.89999997616,226032.877,226038.79999998212,226056.651,230137.994,8,400,47,,ISIC_3738751.JPG
break,html.Screen,4_46_1,2023-09-08T20:50:09.906Z,,0,,,NaN,,,,,,false,,,,230136.29999998212,230136.29999998212,,230136.09999999404,,230137.994,8,400,,,
break_continue,html.Screen,4_46_2,2023-09-08T20:50:09.906Z,,0,,,NaN,,,,,,false,,,,230136.5,230136.5,,230136.39999997616,,230137.994,8,400,,,
sequence,flow.Sequence,4_46,2023-09-08T20:50:09.906Z,,0,,,4079.8489999999874,completion,,,,,false,,,,230136.59999999404,230136.5,226032.877,226038.79999998212,226056.651,230137.994,8,400,,,
trial,html.Screen,4_47_0,2023-09-08T20:50:13.561Z,,0,1,,3653.205999988073,response,ISIC_7535412.JPG,4,ISIC_0062713.JPG,ISIC_0062713.JPG,false,0,keypress(z),500,233791.5,233791.19999998808,230132.527,230136.59999999404,230137.994,233794.028,8,400,48,,ISIC_7535412.JPG
break,html.Screen,4_47_1,2023-09-08T20:50:13.562Z,,0,,,NaN,,,,,,false,,,,233792.19999998808,233792.09999999404,,233791.59999999404,,233794.028,8,400,,,
break_continue,html.Screen,4_47_2,2023-09-08T20:50:13.562Z,,0,,,NaN,,,,,,false,,,,233792.59999999404,233792.5,,233792.39999997616,,233794.028,8,400,,,
sequence,flow.Sequence,4_47,2023-09-08T20:50:13.562Z,,0,,,3654.505999999994,completion,,,,,false,,,,233792.59999999404,233792.5,230132.527,230136.59999999404,230137.994,233794.028,8,400,,,
trial,html.Screen,4_48_0,2023-09-08T20:50:17.282Z,,0,1,,3718.0719999940484,response,ISIC_7853136.JPG,5,ISIC_0057192.JPG,ISIC_0057192.JPG,false,0,keypress(z),500,237512.39999997616,237512.09999999404,233776.234,233792.79999998212,233794.028,237515.03,8,400,49,,ISIC_7853136.JPG
break,html.Screen,4_48_1,2023-09-08T20:50:17.283Z,,0,,,NaN,,,,,,false,,,,237513.09999999404,237513,,237512.5,,237515.03,8,400,,,
break_continue,html.Screen,4_48_2,2023-09-08T20:50:17.283Z,,0,,,NaN,,,,,,false,,,,237513.5,237513.29999998212,,237513.19999998808,,237515.03,8,400,,,
sequence,flow.Sequence,4_48,2023-09-08T20:50:17.283Z,,0,,,3719.2719999821275,completion,,,,,false,,,,237513.59999999404,237513.29999998212,233776.234,233792.69999998808,233794.028,237515.03,8,400,,,
trial,html.Screen,4_49_0,2023-09-08T20:50:21.081Z,,0,1,,3796.2699999821198,response,ISIC_0057028.JPG,5,ISIC_9863059.JPG,ISIC_0057028.JPG,false,1,keypress(m),500,241311.5,241311.29999998212,237513.36,237513.69999998808,237515.03,241314.278,8,400,50,,ISIC_9863059.JPG
break,html.Screen,4_49_1,2023-09-08T20:50:31.066Z,,0,,,9997.774000000005,timeout,,,,,false,,,,251296,251295.25,241310.474,241311.69999998808,241314.278,251312.052,8,400,,,
break_continue,html.Screen,4_49_2,2023-09-08T20:50:32.161Z,,0,,,1072.7479999821226,response,,,,,false,continue,keypress(Space),,252390.89999997616,252384.79999998212,251295.25,251296.09999999404,251312.052,252392.871,8,400,,,
sequence,flow.Sequence,4_49,2023-09-08T20:50:32.161Z,,0,,,14869.76999998212,completion,,,,,false,,,,252391.09999999404,252384.79999998212,237513.36,237513.69999998808,237515.03,252392.871,8,400,,,
trial,html.Screen,4_50_0,2023-09-08T20:50:36.258Z,,0,2,,4095.728999994026,response,ISIC_7682938.JPG,6,ISIC_6038355.JPG,ISIC_6038355.JPG,false,0,keypress(z),500,256488.79999998212,256488.59999999404,252378.177,252391.19999998808,252392.871,256491.537,8,400,1,,ISIC_7682938.JPG
break,html.Screen,4_50_1,2023-09-08T20:50:36.259Z,,0,,,NaN,,,,,,false,,,,256489.5,256489.39999997616,,256489,,256491.537,8,400,,,
break_continue,html.Screen,4_50_2,2023-09-08T20:50:36.259Z,,0,,,NaN,,,,,,false,,,,256489.89999997616,256489.79999998212,,256489.69999998808,,256491.537,8,400,,,
sequence,flow.Sequence,4_50,2023-09-08T20:50:36.260Z,,0,,,4096.928999982105,completion,,,,,false,,,,256490.09999999404,256489.79999998212,252378.177,252391.19999998808,252392.871,256491.537,8,400,,,
trial,html.Screen,4_51_0,2023-09-08T20:50:39.800Z,,0,2,,3539.0629999940284,response,ISIC_0696303.JPG,5,ISIC_0031835.JPG,ISIC_0696303.JPG,false,1,keypress(m),500,260030.89999997616,260030.59999999404,256484.428,256490.19999998808,256491.537,260033.637,8,400,2,,ISIC_0031835.JPG
break,html.Screen,4_51_1,2023-09-08T20:50:39.801Z,,0,,,NaN,,,,,,false,,,,260031.79999998212,260031.69999998808,,260031.19999998808,,260033.637,8,400,,,
break_continue,html.Screen,4_51_2,2023-09-08T20:50:39.802Z,,0,,,NaN,,,,,,false,,,,260032.09999999404,260032,,260031.89999997616,,260033.637,8,400,,,
sequence,flow.Sequence,4_51,2023-09-08T20:50:39.802Z,,0,,,3540.462999999989,completion,,,,,false,,,,260032.19999998808,260032,256484.428,256490.09999999404,256491.537,260033.637,8,400,,,
trial,html.Screen,4_52_0,2023-09-08T20:50:43.260Z,,0,2,,3456.6629999821307,response,ISIC_7130929.JPG,5,ISIC_2371495.JPG,ISIC_7130929.JPG,false,1,keypress(m),500,263490.5,263490.2999999821,260015.855,260032.39999997616,260033.637,263493.211,8,400,3,,ISIC_2371495.JPG
break,html.Screen,4_52_1,2023-09-08T20:50:43.261Z,,0,,,NaN,,,,,,false,,,,263491.2999999821,263491.1999999881,,263490.6999999881,,263493.211,8,400,,,
break_continue,html.Screen,4_52_2,2023-09-08T20:50:43.261Z,,0,,,NaN,,,,,,false,,,,263491.59999999404,263491.5,,263491.39999997616,,263493.211,8,400,,,
sequence,flow.Sequence,4_52,2023-09-08T20:50:43.262Z,,0,,,3457.863000000012,completion,,,,,false,,,,263492,263491.5,260015.855,260032.39999997616,260033.637,263493.211,8,400,,,
trial,html.Screen,4_53_0,2023-09-08T20:50:47.311Z,,0,2,,4048.488999988069,response,ISIC_0070601.JPG,4,ISIC_0063070.JPG,ISIC_0063070.JPG,false,0,keypress(z),500,267541.89999997616,267541.6999999881,263487.218,263492.09999999404,263493.211,267544.611,8,400,4,,ISIC_0070601.JPG
break,html.Screen,4_53_1,2023-09-08T20:50:47.312Z,,0,,,NaN,,,,,,false,,,,267542.6999999881,267542.5,,267542.09999999404,,267544.611,8,400,,,
break_continue,html.Screen,4_53_2,2023-09-08T20:50:47.313Z,,0,,,NaN,,,,,,false,,,,267543,267542.89999997616,,267542.7999999821,,267544.611,8,400,,,
sequence,flow.Sequence,4_53,2023-09-08T20:50:47.313Z,,0,,,4049.688999976148,completion,,,,,false,,,,267543.1999999881,267542.89999997616,263487.218,263492.09999999404,263493.211,267544.611,8,400,,,
trial,html.Screen,4_54_0,2023-09-08T20:50:50.518Z,,0,2,,3203.3890000000247,response,ISIC_1223648.JPG,5,ISIC_0071809.JPG,ISIC_1223648.JPG,false,1,keypress(m),500,270748.09999999404,270748,267536.277,267543.2999999821,267544.611,270750.019,8,400,5,,ISIC_0071809.JPG
break,html.Screen,4_54_1,2023-09-08T20:50:50.518Z,,0,,,NaN,,,,,,false,,,,270748.5,270748.2999999821,,270748.1999999881,,270750.019,8,400,,,
break_continue,html.Screen,4_54_2,2023-09-08T20:50:50.518Z,,0,,,NaN,,,,,,false,,,,270748.5,270748.5,,270748.5,,270750.019,8,400,,,
sequence,flow.Sequence,4_54,2023-09-08T20:50:50.518Z,,0,,,3203.8890000000247,completion,,,,,false,,,,270748.6999999881,270748.5,267536.277,267543.1999999881,267544.611,270750.019,8,400,,,
trial,html.Screen,4_55_0,2023-09-08T20:50:53.752Z,,0,2,,3232.380999976187,response,ISIC_0034042.JPG,6,ISIC_0011125.JPG,ISIC_0034042.JPG,false,1,keypress(m),500,273982.59999999404,273982.39999997616,270732.906,270748.6999999881,270750.019,273984.479,8,400,6,,ISIC_0011125.JPG
break,html.Screen,4_55_1,2023-09-08T20:50:53.753Z,,0,,,NaN,,,,,,false,,,,273983,273982.89999997616,,273982.6999999881,,273984.479,8,400,,,
break_continue,html.Screen,4_55_2,2023-09-08T20:50:53.753Z,,0,,,NaN,,,,,,false,,,,273983.2999999821,273983.1999999881,,273983.09999999404,,273984.479,8,400,,,
sequence,flow.Sequence,4_55,2023-09-08T20:50:53.754Z,,0,,,3233.180999988108,completion,,,,,false,,,,273984,273983.1999999881,270732.906,270748.6999999881,270750.019,273984.479,8,400,,,
trial,html.Screen,4_56_0,2023-09-08T20:50:57.330Z,,0,2,,3575.3209999821265,response,ISIC_0027021.JPG,5,ISIC_0222299.JPG,ISIC_0027021.JPG,false,1,keypress(m),500,277560,277559.7999999821,273978.095,273984.09999999404,273984.479,277562.364,8,400,7,,ISIC_0222299.JPG
break,html.Screen,4_56_1,2023-09-08T20:50:57.330Z,,0,,,NaN,,,,,,false,,,,277560.7999999821,277560.59999999404,,277560.1999999881,,277562.364,8,400,,,
break_continue,html.Screen,4_56_2,2023-09-08T20:50:57.331Z,,0,,,NaN,,,,,,false,,,,277561.09999999404,277561,,277561,,277562.364,8,400,,,
sequence,flow.Sequence,4_56,2023-09-08T20:50:57.331Z,,0,,,3576.521000000008,completion,,,,,false,,,,277561.1999999881,277561,273978.095,273984,273984.479,277562.364,8,400,,,
trial,html.Screen,4_57_0,2023-09-08T20:51:00.518Z,,0,2,,3186.235999994038,response,ISIC_0024732.JPG,6,ISIC_0929483.JPG,ISIC_0024732.JPG,false,1,keypress(m),500,280748.7999999821,280748.59999999404,277545.923,277561.2999999821,277562.364,280767.665,8,400,8,,ISIC_0929483.JPG
break,html.Screen,4_57_1,2023-09-08T20:51:00.519Z,,0,,,NaN,,,,,,false,,,,280749.6999999881,280749.5,,280749.09999999404,,280767.665,8,400,,,
break_continue,html.Screen,4_57_2,2023-09-08T20:51:00.519Z,,0,,,NaN,,,,,,false,,,,280749.89999997616,280749.89999997616,,280749.7999999821,,280767.665,8,400,,,
sequence,flow.Sequence,4_57,2023-09-08T20:51:00.520Z,,0,,,3187.5359999761567,completion,,,,,false,,,,280750.09999999404,280749.89999997616,277545.923,277561.2999999821,277562.364,280767.665,8,400,,,
trial,html.Screen,4_58_0,2023-09-08T20:51:04.203Z,,0,2,,3665.5349999881,response,ISIC_4099428.JPG,5,ISIC_4237064.JPG,ISIC_4099428.JPG,false,1,keypress(m),500,284433.5,284433.1999999881,280751.111,280750.09999999404,280767.665,284436.454,8,400,9,,ISIC_4237064.JPG
break,html.Screen,4_58_1,2023-09-08T20:51:04.204Z,,0,,,NaN,,,,,,false,,,,284434.1999999881,284434,,284433.59999999404,,284436.454,8,400,,,
break_continue,html.Screen,4_58_2,2023-09-08T20:51:04.204Z,,0,,,NaN,,,,,,false,,,,284434.5,284434.39999997616,,284434.2999999821,,284436.454,8,400,,,
sequence,flow.Sequence,4_58,2023-09-08T20:51:04.204Z,,0,,,3666.734999976179,completion,,,,,false,,,,284434.59999999404,284434.39999997616,280751.111,280750.09999999404,280767.665,284436.454,8,400,,,
trial,html.Screen,4_59_0,2023-09-08T20:51:07.823Z,,0,2,,3616.945999976131,response,ISIC_0593591.JPG,4,ISIC_7532154.JPG,ISIC_7532154.JPG,false,0,keypress(z),500,288053.6999999881,288053.39999997616,284428.51,284434.7999999821,284436.454,288056.316,8,400,10,,ISIC_0593591.JPG
break,html.Screen,4_59_1,2023-09-08T20:51:07.824Z,,0,,,NaN,,,,,,false,,,,288054.5,288054.2999999821,,288053.7999999821,,288056.316,8,400,,,
break_continue,html.Screen,4_59_2,2023-09-08T20:51:07.824Z,,0,,,NaN,,,,,,false,,,,288054.7999999821,288054.7999999821,,288054.59999999404,,288056.316,8,400,,,
sequence,flow.Sequence,4_59,2023-09-08T20:51:07.825Z,,0,,,3618.3459999820916,completion,,,,,false,,,,288055.09999999404,288054.7999999821,284428.51,284434.7999999821,284436.454,288056.316,8,400,,,
trial,html.Screen,4_60_0,2023-09-08T20:51:11.510Z,,0,2,,3683.6840000000084,response,ISIC_8617084.JPG,5,ISIC_3474472.JPG,ISIC_3474472.JPG,false,0,keypress(z),500,291740.2999999821,291740,288051.819,288055.2999999821,288056.316,291743.078,8,400,11,,ISIC_8617084.JPG
break,html.Screen,4_60_1,2023-09-08T20:51:11.511Z,,0,,,NaN,,,,,,false,,,,291741.09999999404,291740.89999997616,,291740.39999997616,,291743.078,8,400,,,
break_continue,html.Screen,4_60_2,2023-09-08T20:51:11.511Z,,0,,,NaN,,,,,,false,,,,291741.59999999404,291741.39999997616,,291741.2999999821,,291743.078,8,400,,,
sequence,flow.Sequence,4_60,2023-09-08T20:51:11.511Z,,0,,,3685.0839999761665,completion,,,,,false,,,,291741.7999999821,291741.39999997616,288051.819,288055.2999999821,288056.316,291743.078,8,400,,,
trial,html.Screen,4_61_0,2023-09-08T20:51:14.858Z,,0,2,,3345.1219999880996,response,ISIC_0015129.JPG,5,ISIC_8822331.JPG,ISIC_0015129.JPG,false,1,keypress(m),500,295088.39999997616,295088.1999999881,291741.042,291742,291743.078,295091.07,8,400,12,,ISIC_8822331.JPG
break,html.Screen,4_61_1,2023-09-08T20:51:14.859Z,,0,,,NaN,,,,,,false,,,,295089.1999999881,295089,,295088.59999999404,,295091.07,8,400,,,
break_continue,html.Screen,4_61_2,2023-09-08T20:51:14.859Z,,0,,,NaN,,,,,,false,,,,295089.59999999404,295089.39999997616,,295089.2999999821,,295091.07,8,400,,,
sequence,flow.Sequence,4_61,2023-09-08T20:51:14.859Z,,0,,,3346.3219999761786,completion,,,,,false,,,,295089.6999999881,295089.39999997616,291741.042,291741.89999997616,291743.078,295091.07,8,400,,,
trial,html.Screen,4_62_0,2023-09-08T20:51:18.318Z,,0,2,,3457.429999999993,response,ISIC_4967639.JPG,6,ISIC_0004691.JPG,ISIC_0004691.JPG,false,0,keypress(z),500,298548.59999999404,298548.5,295073.822,295089.89999997616,295091.07,298551.379,8,400,13,,ISIC_4967639.JPG
break,html.Screen,4_62_1,2023-09-08T20:51:18.319Z,,0,,,NaN,,,,,,false,,,,298549.39999997616,298549.2999999821,,298548.89999997616,,298551.379,8,400,,,
break_continue,html.Screen,4_62_2,2023-09-08T20:51:18.319Z,,0,,,NaN,,,,,,false,,,,298549.7999999821,298549.6999999881,,298549.5,,298551.379,8,400,,,
sequence,flow.Sequence,4_62,2023-09-08T20:51:18.319Z,,0,,,3458.629999988072,completion,,,,,false,,,,298549.89999997616,298549.6999999881,295073.822,295089.89999997616,295091.07,298551.379,8,400,,,
trial,html.Screen,4_63_0,2023-09-08T20:51:21.351Z,,0,2,,3030.1209999999846,response,ISIC_3481133.JPG,5,ISIC_2948896.JPG,ISIC_3481133.JPG,false,1,keypress(m),500,301581.6999999881,301581.5,298543.765,298550.09999999404,298551.379,301595.087,8,400,14,,ISIC_2948896.JPG
break,html.Screen,4_63_1,2023-09-08T20:51:21.352Z,,0,,,NaN,,,,,,false,,,,301582.39999997616,301582.2999999821,,301581.89999997616,,301595.087,8,400,,,
break_continue,html.Screen,4_63_2,2023-09-08T20:51:21.352Z,,0,,,NaN,,,,,,false,,,,301582.6999999881,301582.59999999404,,301582.5,,301595.087,8,400,,,
sequence,flow.Sequence,4_63,2023-09-08T20:51:21.352Z,,0,,,3031.220999994024,completion,,,,,false,,,,301582.7999999821,301582.59999999404,298543.765,298550,298551.379,301595.087,8,400,,,
trial,html.Screen,4_64_0,2023-09-08T20:51:24.666Z,,0,2,,3301.01299999404,response,ISIC_3932879.JPG,5,ISIC_0273046.JPG,ISIC_0273046.JPG,false,0,keypress(z),500,304896.2999999821,304896.09999999404,301578.352,301582.89999997616,301595.087,304899.145,8,400,15,,ISIC_3932879.JPG
break,html.Screen,4_64_1,2023-09-08T20:51:24.667Z,,0,,,NaN,,,,,,false,,,,304897.1999999881,304897,,304896.5,,304899.145,8,400,,,
break_continue,html.Screen,4_64_2,2023-09-08T20:51:24.667Z,,0,,,NaN,,,,,,false,,,,304897.5,304897.2999999821,,304897.2999999821,,304899.145,8,400,,,
sequence,flow.Sequence,4_64,2023-09-08T20:51:24.667Z,,0,,,3302.212999982119,completion,,,,,false,,,,304897.6999999881,304897.2999999821,301578.352,301582.89999997616,301595.087,304899.145,8,400,,,
trial,html.Screen,4_65_0,2023-09-08T20:51:27.822Z,,0,2,,3152.7549999761395,response,ISIC_0054444.JPG,4,ISIC_3428523.JPG,ISIC_0054444.JPG,false,1,keypress(m),500,308052.1999999881,308051.89999997616,304894.599,304897.7999999821,304899.145,308054.933,8,400,16,,ISIC_3428523.JPG
break,html.Screen,4_65_1,2023-09-08T20:51:27.823Z,,0,,,NaN,,,,,,false,,,,308053,308052.7999999821,,308052.39999997616,,308054.933,8,400,,,
break_continue,html.Screen,4_65_2,2023-09-08T20:51:27.823Z,,0,,,NaN,,,,,,false,,,,308053.2999999821,308053.1999999881,,308053.09999999404,,308054.933,8,400,,,
sequence,flow.Sequence,4_65,2023-09-08T20:51:27.823Z,,0,,,3154.0549999880604,completion,,,,,false,,,,308053.39999997616,308053.1999999881,304894.599,304897.6999999881,304899.145,308054.933,8,400,,,
trial,html.Screen,4_66_0,2023-09-08T20:51:31.858Z,,0,2,,4032.8669999820995,response,ISIC_4307626.JPG,4,ISIC_0011987.JPG,ISIC_0011987.JPG,false,0,keypress(z),500,312088,312087.7999999821,308052.725,308053.5,308054.933,312090.626,8,400,17,,ISIC_4307626.JPG
break,html.Screen,4_66_1,2023-09-08T20:51:31.858Z,,0,,,NaN,,,,,,false,,,,312088.7999999821,312088.59999999404,,312088.1999999881,,312090.626,8,400,,,
break_continue,html.Screen,4_66_2,2023-09-08T20:51:31.859Z,,0,,,NaN,,,,,,false,,,,312089.09999999404,312089,,312088.89999997616,,312090.626,8,400,,,
sequence,flow.Sequence,4_66,2023-09-08T20:51:31.859Z,,0,,,4034.066999999981,completion,,,,,false,,,,312089.2999999821,312089,308052.725,308053.5,308054.933,312090.626,8,400,,,
trial,html.Screen,4_67_0,2023-09-08T20:51:35.706Z,,0,2,,3845.57399998809,response,ISIC_4088444.JPG,5,ISIC_2823287.JPG,ISIC_2823287.JPG,false,0,keypress(z),500,315936.39999997616,315936.1999999881,312088.316,312089.39999997616,312090.626,315939.248,8,400,18,,ISIC_4088444.JPG
break,html.Screen,4_67_1,2023-09-08T20:51:35.707Z,,0,,,NaN,,,,,,false,,,,315937.1999999881,315937.09999999404,,315936.59999999404,,315939.248,8,400,,,
break_continue,html.Screen,4_67_2,2023-09-08T20:51:35.707Z,,0,,,NaN,,,,,,false,,,,315937.5,315937.5,,315937.39999997616,,315939.248,8,400,,,
sequence,flow.Sequence,4_67,2023-09-08T20:51:35.707Z,,0,,,3846.8740000000107,completion,,,,,false,,,,315937.6999999881,315937.5,312088.316,312089.2999999821,312090.626,315939.248,8,400,,,
trial,html.Screen,4_68_0,2023-09-08T20:51:38.813Z,,0,2,,3103.9519999880577,response,ISIC_4642695.JPG,5,ISIC_0062318.JPG,ISIC_0062318.JPG,false,0,keypress(z),500,319043.39999997616,319043.1999999881,315922.513,315937.7999999821,315939.248,319046.162,8,400,19,,ISIC_4642695.JPG
break,html.Screen,4_68_1,2023-09-08T20:51:38.814Z,,0,,,NaN,,,,,,false,,,,319044.09999999404,319044,,319043.5,,319046.162,8,400,,,
break_continue,html.Screen,4_68_2,2023-09-08T20:51:38.814Z,,0,,,NaN,,,,,,false,,,,319044.5,319044.39999997616,,319044.1999999881,,319046.162,8,400,,,
sequence,flow.Sequence,4_68,2023-09-08T20:51:38.814Z,,0,,,3105.1519999761367,completion,,,,,false,,,,319044.5,319044.39999997616,315922.513,315937.7999999821,315939.248,319046.162,8,400,,,
trial,html.Screen,4_69_0,2023-09-08T20:51:42.336Z,,0,2,,3520.4379999940284,response,ISIC_0261253.JPG,5,ISIC_1676261.JPG,ISIC_0261253.JPG,false,1,keypress(m),500,322566.89999997616,322566.59999999404,319038.003,319044.6999999881,319046.162,322569.482,8,400,20,,ISIC_1676261.JPG
break,html.Screen,4_69_1,2023-09-08T20:51:42.337Z,,0,,,NaN,,,,,,false,,,,322567.6999999881,322567.5,,322567,,322569.482,8,400,,,
break_continue,html.Screen,4_69_2,2023-09-08T20:51:42.338Z,,0,,,NaN,,,,,,false,,,,322568.09999999404,322567.89999997616,,322567.6999999881,,322569.482,8,400,,,
sequence,flow.Sequence,4_69,2023-09-08T20:51:42.338Z,,0,,,3521.737999976147,completion,,,,,false,,,,322568.09999999404,322567.89999997616,319038.003,319044.6999999881,319046.162,322569.482,8,400,,,
trial,html.Screen,4_70_0,2023-09-08T20:51:45.827Z,,0,2,,3488.217999988061,response,ISIC_0011987.JPG,5,ISIC_0062525.JPG,ISIC_0062525.JPG,false,0,keypress(z),500,326057.89999997616,326057.6999999881,322556.366,322568.2999999821,322569.482,326072.839,8,400,21,,ISIC_0011987.JPG
break,html.Screen,4_70_1,2023-09-08T20:51:45.828Z,,0,,,NaN,,,,,,false,,,,326058.6999999881,326058.5,,326058.09999999404,,326072.839,8,400,,,
break_continue,html.Screen,4_70_2,2023-09-08T20:51:45.828Z,,0,,,NaN,,,,,,false,,,,326058.89999997616,326058.7999999821,,326058.6999999881,,326072.839,8,400,,,
sequence,flow.Sequence,4_70,2023-09-08T20:51:45.829Z,,0,,,3489.3179999821004,completion,,,,,false,,,,326059.09999999404,326058.7999999821,322556.366,322568.2999999821,322569.482,326072.839,8,400,,,
trial,html.Screen,4_71_0,2023-09-08T20:51:49.446Z,,0,2,,3603.7609999940614,response,ISIC_8760203.JPG,5,ISIC_9348399.JPG,ISIC_9348399.JPG,false,0,keypress(z),500,329676.89999997616,329676.59999999404,326056.128,326059.1999999881,326072.839,329679.646,8,400,22,,ISIC_8760203.JPG
break,html.Screen,4_71_1,2023-09-08T20:51:49.447Z,,0,,,NaN,,,,,,false,,,,329677.6999999881,329677.59999999404,,329677.09999999404,,329679.646,8,400,,,
break_continue,html.Screen,4_71_2,2023-09-08T20:51:49.448Z,,0,,,NaN,,,,,,false,,,,329678,329677.89999997616,,329677.7999999821,,329679.646,8,400,,,
sequence,flow.Sequence,4_71,2023-09-08T20:51:49.448Z,,0,,,3605.06099997618,completion,,,,,false,,,,329678.1999999881,329677.89999997616,326056.128,326059.1999999881,326072.839,329679.646,8,400,,,
trial,html.Screen,4_72_0,2023-09-08T20:51:53.504Z,,0,2,,4054.853999999992,response,ISIC_0030194.JPG,6,ISIC_1200192.JPG,ISIC_1200192.JPG,false,0,keypress(z),500,333734.7999999821,333734.5,329661.747,329678.2999999821,329679.646,333737.368,8,400,23,,ISIC_0030194.JPG
break,html.Screen,4_72_1,2023-09-08T20:51:53.505Z,,0,,,NaN,,,,,,false,,,,333735.5,333735.39999997616,,333734.89999997616,,333737.368,8,400,,,
break_continue,html.Screen,4_72_2,2023-09-08T20:51:53.505Z,,0,,,NaN,,,,,,false,,,,333735.89999997616,333735.6999999881,,333735.59999999404,,333737.368,8,400,,,
sequence,flow.Sequence,4_72,2023-09-08T20:51:53.506Z,,0,,,4056.053999988071,completion,,,,,false,,,,333736.09999999404,333735.6999999881,329661.747,329678.1999999881,329679.646,333737.368,8,400,,,
trial,html.Screen,4_73_0,2023-09-08T20:51:56.745Z,,0,2,,3237.8319999880623,response,ISIC_5709878.JPG,5,ISIC_0033607.JPG,ISIC_0033607.JPG,false,0,keypress(z),500,336975.5,336975.1999999881,333734.957,333736.09999999404,333737.368,336994.801,8,400,24,,ISIC_5709878.JPG
break,html.Screen,4_73_1,2023-09-08T20:51:56.746Z,,0,,,NaN,,,,,,false,,,,336976.2999999821,336976.09999999404,,336975.6999999881,,336994.801,8,400,,,
break_continue,html.Screen,4_73_2,2023-09-08T20:51:56.746Z,,0,,,NaN,,,,,,false,,,,336976.6999999881,336976.5,,336976.39999997616,,336994.801,8,400,,,
sequence,flow.Sequence,4_73,2023-09-08T20:51:56.746Z,,0,,,3239.1319999999832,completion,,,,,false,,,,336976.7999999821,336976.5,333734.957,333736.09999999404,333737.368,336994.801,8,400,,,
trial,html.Screen,4_74_0,2023-09-08T20:52:00.082Z,,0,2,,3317.5989999761805,response,ISIC_7302456.JPG,5,ISIC_7413149.JPG,ISIC_7302456.JPG,false,1,keypress(m),500,340312.6999999881,340312.39999997616,336976.473,336977,336994.801,340329.631,8,400,25,,ISIC_7413149.JPG
break,html.Screen,4_74_1,2023-09-08T20:52:00.083Z,,0,,,NaN,,,,,,false,,,,340313.5,340313.39999997616,,340312.89999997616,,340329.631,8,400,,,
break_continue,html.Screen,4_74_2,2023-09-08T20:52:00.083Z,,0,,,NaN,,,,,,false,,,,340313.7999999821,340313.7999999821,,340313.6999999881,,340329.631,8,400,,,
sequence,flow.Sequence,4_74,2023-09-08T20:52:00.084Z,,0,,,3318.998999982141,completion,,,,,false,,,,340314,340313.7999999821,336976.473,336976.89999997616,336994.801,340329.631,8,400,,,
trial,html.Screen,4_75_0,2023-09-08T20:52:03.398Z,,0,2,,3298.568999988085,response,ISIC_9791275.JPG,5,ISIC_2598575.JPG,ISIC_9791275.JPG,false,1,keypress(m),500,343628.39999997616,343628.1999999881,340309.207,340314.09999999404,340329.631,343650.445,8,400,26,,ISIC_2598575.JPG
break,html.Screen,4_75_1,2023-09-08T20:52:03.399Z,,0,,,NaN,,,,,,false,,,,343629.1999999881,343629,,343628.6999999881,,343650.445,8,400,,,
break_continue,html.Screen,4_75_2,2023-09-08T20:52:03.399Z,,0,,,NaN,,,,,,false,,,,343629.5,343629.39999997616,,343629.2999999821,,343650.445,8,400,,,
sequence,flow.Sequence,4_75,2023-09-08T20:52:03.399Z,,0,,,3299.768999976164,completion,,,,,false,,,,343629.6999999881,343629.39999997616,340309.207,340314.09999999404,340329.631,343650.445,8,400,,,
trial,html.Screen,4_76_0,2023-09-08T20:52:06.330Z,,0,2,,2909.954999976151,response,ISIC_6215631.JPG,6,ISIC_5458290.JPG,ISIC_6215631.JPG,false,1,keypress(m),500,346560.59999999404,346560.39999997616,343634.119,343629.6999999881,343650.445,346563.289,8,400,27,,ISIC_5458290.JPG
break,html.Screen,4_76_1,2023-09-08T20:52:06.331Z,,0,,,NaN,,,,,,false,,,,346561.39999997616,346561.2999999821,,346560.89999997616,,346563.289,8,400,,,
break_continue,html.Screen,4_76_2,2023-09-08T20:52:06.331Z,,0,,,NaN,,,,,,false,,,,346561.7999999821,346561.6999999881,,346561.5,,346563.289,8,400,,,
sequence,flow.Sequence,4_76,2023-09-08T20:52:06.332Z,,0,,,2911.254999988072,completion,,,,,false,,,,346562,346561.6999999881,343634.119,343629.6999999881,343650.445,346563.289,8,400,,,
trial,html.Screen,4_77_0,2023-09-08T20:52:09.789Z,,0,2,,3456.2110000000102,response,ISIC_0011463.JPG,5,ISIC_0029021.JPG,ISIC_0011463.JPG,false,1,keypress(m),500,350019.6999999881,350019.5,346557.158,346562.1999999881,346563.289,350022.422,8,400,28,,ISIC_0029021.JPG
break,html.Screen,4_77_1,2023-09-08T20:52:09.790Z,,0,,,NaN,,,,,,false,,,,350020.5,350020.2999999821,,350019.89999997616,,350022.422,8,400,,,
break_continue,html.Screen,4_77_2,2023-09-08T20:52:09.790Z,,0,,,NaN,,,,,,false,,,,350020.6999999881,350020.6999999881,,350020.59999999404,,350022.422,8,400,,,
sequence,flow.Sequence,4_77,2023-09-08T20:52:09.790Z,,0,,,3457.4109999880893,completion,,,,,false,,,,350020.89999997616,350020.6999999881,346557.158,346562.09999999404,346563.289,350022.422,8,400,,,
trial,html.Screen,4_78_0,2023-09-08T20:52:12.624Z,,0,2,,2831.7779999880586,response,ISIC_2000319.JPG,6,ISIC_0064763.JPG,ISIC_2000319.JPG,false,1,keypress(m),500,352854.5,352854.1999999881,350010.077,350021,350022.422,352857.036,8,400,29,,ISIC_0064763.JPG
break,html.Screen,4_78_1,2023-09-08T20:52:12.625Z,,0,,,NaN,,,,,,false,,,,352855.2999999821,352855,,352854.6999999881,,352857.036,8,400,,,
break_continue,html.Screen,4_78_2,2023-09-08T20:52:12.625Z,,0,,,NaN,,,,,,false,,,,352855.5,352855.39999997616,,352855.39999997616,,352857.036,8,400,,,
sequence,flow.Sequence,4_78,2023-09-08T20:52:12.625Z,,0,,,2832.9779999761377,completion,,,,,false,,,,352855.7999999821,352855.39999997616,350010.077,350021,350022.422,352857.036,8,400,,,
trial,html.Screen,4_79_0,2023-09-08T20:52:15.875Z,,0,2,,3248.5639999940176,response,ISIC_9604922.JPG,5,ISIC_0055747.JPG,ISIC_0055747.JPG,false,0,keypress(z),500,356105.7999999821,356105.59999999404,352849.745,352855.7999999821,352857.036,356108.672,8,400,30,,ISIC_9604922.JPG
break,html.Screen,4_79_1,2023-09-08T20:52:15.876Z,,0,,,NaN,,,,,,false,,,,356106.6999999881,356106.5,,356106,,356108.672,8,400,,,
break_continue,html.Screen,4_79_2,2023-09-08T20:52:15.877Z,,0,,,NaN,,,,,,false,,,,356107,356106.89999997616,,356106.89999997616,,356108.672,8,400,,,
sequence,flow.Sequence,4_79,2023-09-08T20:52:15.877Z,,0,,,3249.8639999761363,completion,,,,,false,,,,356107.1999999881,356106.89999997616,352849.745,352855.7999999821,352857.036,356108.672,8,400,,,
trial,html.Screen,4_80_0,2023-09-08T20:52:19.803Z,,0,2,,3924.8279999999795,response,ISIC_0054625.JPG,5,ISIC_0010636.JPG,ISIC_0054625.JPG,false,1,keypress(m),500,360033.6999999881,360033.5,356100.739,356107.2999999821,356108.672,360037.994,8,400,31,,ISIC_0010636.JPG
break,html.Screen,4_80_1,2023-09-08T20:52:19.804Z,,0,,,NaN,,,,,,false,,,,360034.39999997616,360034.1999999881,,360033.7999999821,,360037.994,8,400,,,
break_continue,html.Screen,4_80_2,2023-09-08T20:52:19.804Z,,0,,,NaN,,,,,,false,,,,360034.6999999881,360034.59999999404,,360034.5,,360037.994,8,400,,,
sequence,flow.Sequence,4_80,2023-09-08T20:52:19.804Z,,0,,,3925.927999994019,completion,,,,,false,,,,360034.7999999821,360034.59999999404,356100.739,356107.1999999881,356108.672,360037.994,8,400,,,
trial,html.Screen,4_81_0,2023-09-08T20:52:23.395Z,,0,2,,3587.405999976152,response,ISIC_0026470.JPG,5,ISIC_0028207.JPG,ISIC_0028207.JPG,false,0,keypress(z),500,363625.5,363625.39999997616,360021.381,360034.89999997616,360037.994,363628.179,8,400,32,,ISIC_0026470.JPG
break,html.Screen,4_81_1,2023-09-08T20:52:23.396Z,,0,,,NaN,,,,,,false,,,,363626.5,363626.1999999881,,363625.6999999881,,363628.179,8,400,,,
break_continue,html.Screen,4_81_2,2023-09-08T20:52:23.396Z,,0,,,NaN,,,,,,false,,,,363626.7999999821,363626.6999999881,,363626.59999999404,,363628.179,8,400,,,
sequence,flow.Sequence,4_81,2023-09-08T20:52:23.397Z,,0,,,3588.705999988073,completion,,,,,false,,,,363627,363626.6999999881,360021.381,360034.7999999821,360037.994,363628.179,8,400,,,
trial,html.Screen,4_82_0,2023-09-08T20:52:26.584Z,,0,2,,3185.7209999761544,response,ISIC_7755106.JPG,6,ISIC_8356468.JPG,ISIC_7755106.JPG,false,1,keypress(m),500,366814.09999999404,366813.89999997616,363626.364,363627.1999999881,363628.179,366816.788,8,400,33,,ISIC_8356468.JPG
break,html.Screen,4_82_1,2023-09-08T20:52:26.585Z,,0,,,NaN,,,,,,false,,,,366814.89999997616,366814.6999999881,,366814.2999999821,,366816.788,8,400,,,
break_continue,html.Screen,4_82_2,2023-09-08T20:52:26.585Z,,0,,,NaN,,,,,,false,,,,366815.2999999821,366815.09999999404,,366815,,366816.788,8,400,,,
sequence,flow.Sequence,4_82,2023-09-08T20:52:26.585Z,,0,,,3186.920999994036,completion,,,,,false,,,,366815.39999997616,366815.09999999404,363626.364,363627.09999999404,363628.179,366816.788,8,400,,,
trial,html.Screen,4_83_0,2023-09-08T20:52:29.681Z,,0,2,,3093.811999994039,response,ISIC_0012211.JPG,6,ISIC_0030457.JPG,ISIC_0012211.JPG,false,1,keypress(m),500,369910.89999997616,369910.59999999404,366815.048,366815.5,366816.788,369943.164,8,400,34,,ISIC_0030457.JPG
break,html.Screen,4_83_1,2023-09-08T20:52:29.681Z,,0,,,NaN,,,,,,false,,,,369911.59999999404,369911.39999997616,,369911.09999999404,,369943.164,8,400,,,
break_continue,html.Screen,4_83_2,2023-09-08T20:52:29.681Z,,0,,,NaN,,,,,,false,,,,369911.7999999821,369911.6999999881,,369911.6999999881,,369943.164,8,400,,,
sequence,flow.Sequence,4_83,2023-09-08T20:52:29.682Z,,0,,,3094.9119999880786,completion,,,,,false,,,,369911.89999997616,369911.6999999881,366815.048,366815.5,366816.788,369943.164,8,400,,,
trial,html.Screen,4_84_0,2023-09-08T20:52:32.549Z,,0,2,,2836.135999982129,response,ISIC_3933658.JPG,5,ISIC_0067609.JPG,ISIC_0067609.JPG,false,0,keypress(z),500,372779.59999999404,372779.2999999821,369926.349,369912,369943.164,372782.108,8,400,35,,ISIC_3933658.JPG
break,html.Screen,4_84_1,2023-09-08T20:52:32.550Z,,0,,,NaN,,,,,,false,,,,372780.39999997616,372780.2999999821,,372779.7999999821,,372782.108,8,400,,,
break_continue,html.Screen,4_84_2,2023-09-08T20:52:32.550Z,,0,,,NaN,,,,,,false,,,,372780.6999999881,372780.59999999404,,372780.5,,372782.108,8,400,,,
sequence,flow.Sequence,4_84,2023-09-08T20:52:32.550Z,,0,,,2837.43599999405,completion,,,,,false,,,,372780.7999999821,372780.59999999404,369926.349,369911.89999997616,369943.164,372782.108,8,400,,,
trial,html.Screen,4_85_0,2023-09-08T20:52:36.056Z,,0,2,,3503.691999982111,response,ISIC_7777873.JPG,5,ISIC_3591332.JPG,ISIC_3591332.JPG,false,0,keypress(z),500,376286,376285.7999999821,372780.174,372780.89999997616,372782.108,376288.713,8,400,36,,ISIC_7777873.JPG
break,html.Screen,4_85_1,2023-09-08T20:52:36.057Z,,0,,,NaN,,,,,,false,,,,376286.89999997616,376286.6999999881,,376286.2999999821,,376288.713,8,400,,,
break_continue,html.Screen,4_85_2,2023-09-08T20:52:36.057Z,,0,,,NaN,,,,,,false,,,,376287.1999999881,376287.09999999404,,376287,,376288.713,8,400,,,
sequence,flow.Sequence,4_85,2023-09-08T20:52:36.057Z,,0,,,3504.991999994032,completion,,,,,false,,,,376287.39999997616,376287.09999999404,372780.174,372780.89999997616,372782.108,376288.713,8,400,,,
trial,html.Screen,4_86_0,2023-09-08T20:52:38.843Z,,0,2,,2784.787000000011,response,ISIC_0011665.JPG,5,ISIC_2563374.JPG,ISIC_0011665.JPG,false,1,keypress(m),500,379073.6999999881,379073.5,376273.285,376287.5,376288.713,379076.436,8,400,37,,ISIC_2563374.JPG
break,html.Screen,4_86_1,2023-09-08T20:52:38.844Z,,0,,,NaN,,,,,,false,,,,379074.5,379074.39999997616,,379073.89999997616,,379076.436,8,400,,,
break_continue,html.Screen,4_86_2,2023-09-08T20:52:38.845Z,,0,,,NaN,,,,,,false,,,,379074.89999997616,379074.7999999821,,379074.59999999404,,379076.436,8,400,,,
sequence,flow.Sequence,4_86,2023-09-08T20:52:38.845Z,,0,,,2786.08699998213,completion,,,,,false,,,,379075.09999999404,379074.7999999821,376273.285,376287.39999997616,376288.713,379076.436,8,400,,,
trial,html.Screen,4_87_0,2023-09-08T20:52:42.655Z,,0,2,,3808.3639999821316,response,ISIC_9562442.JPG,6,ISIC_0062864.JPG,ISIC_0062864.JPG,false,0,keypress(z),500,382885,382884.7999999821,379067.297,379075.1999999881,379076.436,382898.706,8,400,38,,ISIC_9562442.JPG
break,html.Screen,4_87_1,2023-09-08T20:52:42.655Z,,0,,,NaN,,,,,,false,,,,382885.7999999821,382885.59999999404,,382885.1999999881,,382898.706,8,400,,,
break_continue,html.Screen,4_87_2,2023-09-08T20:52:42.656Z,,0,,,NaN,,,,,,false,,,,382886.09999999404,382886,,382886,,382898.706,8,400,,,
sequence,flow.Sequence,4_87,2023-09-08T20:52:42.656Z,,0,,,3809.564000000013,completion,,,,,false,,,,382886.2999999821,382886,379067.297,379075.09999999404,379076.436,382898.706,8,400,,,
trial,html.Screen,4_88_0,2023-09-08T20:52:46.051Z,,0,2,,3382.2939999999944,response,ISIC_1166522.JPG,6,ISIC_0058054.JPG,ISIC_1166522.JPG,false,1,keypress(m),500,386281.09999999404,386281,382882.21,382886.39999997616,382898.706,386306.274,8,400,39,,ISIC_0058054.JPG
break,html.Screen,4_88_1,2023-09-08T20:52:46.051Z,,0,,,NaN,,,,,,false,,,,386281.39999997616,386281.39999997616,,386281.1999999881,,386306.274,8,400,,,
break_continue,html.Screen,4_88_2,2023-09-08T20:52:46.051Z,,0,,,NaN,,,,,,false,,,,386281.59999999404,386281.5,,386281.39999997616,,386306.274,8,400,,,
sequence,flow.Sequence,4_88,2023-09-08T20:52:46.051Z,,0,,,3382.7939999999944,completion,,,,,false,,,,386281.59999999404,386281.5,382882.21,382886.39999997616,382898.706,386306.274,8,400,,,
trial,html.Screen,4_89_0,2023-09-08T20:52:49.189Z,,0,2,,3113.3259999940637,response,ISIC_9300579.JPG,5,ISIC_1930598.JPG,ISIC_9300579.JPG,false,1,keypress(m),500,389419.7999999821,389419.59999999404,386289.48,386281.59999999404,386306.274,389422.565,8,400,40,,ISIC_1930598.JPG
break,html.Screen,4_89_1,2023-09-08T20:52:49.190Z,,0,,,NaN,,,,,,false,,,,389420.6999999881,389420.5,,389420,,389422.565,8,400,,,
break_continue,html.Screen,4_89_2,2023-09-08T20:52:49.191Z,,0,,,NaN,,,,,,false,,,,389421.09999999404,389420.89999997616,,389420.7999999821,,389422.565,8,400,,,
sequence,flow.Sequence,4_89,2023-09-08T20:52:49.191Z,,0,,,3114.6259999761824,completion,,,,,false,,,,389421.1999999881,389420.89999997616,386289.48,386281.59999999404,386306.274,389422.565,8,400,,,
trial,html.Screen,4_90_0,2023-09-08T20:52:52.572Z,,0,2,,3379.034999994037,response,ISIC_7666224.JPG,4,ISIC_1008321.JPG,ISIC_7666224.JPG,false,1,keypress(m),500,392801.89999997616,392801.59999999404,389410.221,389421.39999997616,389422.565,392820.885,8,400,41,,ISIC_1008321.JPG
break,html.Screen,4_90_1,2023-09-08T20:52:52.572Z,,0,,,NaN,,,,,,false,,,,392802.59999999404,392802.5,,392802,,392820.885,8,400,,,
break_continue,html.Screen,4_90_2,2023-09-08T20:52:52.573Z,,0,,,NaN,,,,,,false,,,,392803,392802.89999997616,,392802.7999999821,,392820.885,8,400,,,
sequence,flow.Sequence,4_90,2023-09-08T20:52:52.573Z,,0,,,3380.334999976156,completion,,,,,false,,,,392803.09999999404,392802.89999997616,389410.221,389421.2999999821,389422.565,392820.885,8,400,,,
trial,html.Screen,4_91_0,2023-09-08T20:52:55.790Z,,0,2,,3199.6149999999907,response,ISIC_9874512.JPG,4,ISIC_8423248.JPG,ISIC_8423248.JPG,false,0,keypress(z),500,396020.6999999881,396020.5,392804.187,392803.1999999881,392820.885,396023.426,8,400,42,,ISIC_9874512.JPG
break,html.Screen,4_91_1,2023-09-08T20:52:55.791Z,,0,,,NaN,,,,,,false,,,,396021.5,396021.2999999821,,396020.7999999821,,396023.426,8,400,,,
break_continue,html.Screen,4_91_2,2023-09-08T20:52:55.791Z,,0,,,NaN,,,,,,false,,,,396021.6999999881,396021.6999999881,,396021.59999999404,,396023.426,8,400,,,
sequence,flow.Sequence,4_91,2023-09-08T20:52:55.792Z,,0,,,3200.8149999880698,completion,,,,,false,,,,396021.7999999821,396021.6999999881,392804.187,392803.09999999404,392820.885,396023.426,8,400,,,
trial,html.Screen,4_92_0,2023-09-08T20:52:58.692Z,,0,2,,2898.673999994062,response,ISIC_0071111.JPG,5,ISIC_2152875.JPG,ISIC_0071111.JPG,false,1,keypress(m),500,398922.39999997616,398922.09999999404,396015.861,396022,396023.426,398925.065,8,400,43,,ISIC_2152875.JPG
break,html.Screen,4_92_1,2023-09-08T20:52:58.693Z,,0,,,NaN,,,,,,false,,,,398923.1999999881,398923,,398922.5,,398925.065,8,400,,,
break_continue,html.Screen,4_92_2,2023-09-08T20:52:58.693Z,,0,,,NaN,,,,,,false,,,,398923.39999997616,398923.39999997616,,398923.2999999821,,398925.065,8,400,,,
sequence,flow.Sequence,4_92,2023-09-08T20:52:58.693Z,,0,,,2899.9739999761805,completion,,,,,false,,,,398923.59999999404,398923.39999997616,396015.861,396021.89999997616,396023.426,398925.065,8,400,,,
trial,html.Screen,4_93_0,2023-09-08T20:53:01.834Z,,0,2,,3138.7349999821163,response,ISIC_7144739.JPG,5,ISIC_7131689.JPG,ISIC_7131689.JPG,false,0,keypress(z),500,402063.89999997616,402063.7999999821,398923.39,398923.6999999881,398925.065,402065.877,8,400,44,,ISIC_7144739.JPG
break,html.Screen,4_93_1,2023-09-08T20:53:01.834Z,,0,,,NaN,,,,,,false,,,,402064.1999999881,402064.1999999881,,402063.89999997616,,402065.877,8,400,,,
break_continue,html.Screen,4_93_2,2023-09-08T20:53:01.834Z,,0,,,NaN,,,,,,false,,,,402064.2999999821,402064.2999999821,,402064.2999999821,,402065.877,8,400,,,
sequence,flow.Sequence,4_93,2023-09-08T20:53:01.834Z,,0,,,3139.2349999821163,completion,,,,,false,,,,402064.39999997616,402064.2999999821,398923.39,398923.6999999881,398925.065,402065.877,8,400,,,
trial,html.Screen,4_94_0,2023-09-08T20:53:04.876Z,,0,2,,3039.8229999881005,response,ISIC_9002603.JPG,6,ISIC_4022621.JPG,ISIC_4022621.JPG,false,0,keypress(z),500,405105.89999997616,405105.6999999881,402064.184,402064.39999997616,402065.877,405107.669,8,400,45,,ISIC_9002603.JPG
break,html.Screen,4_94_1,2023-09-08T20:53:04.876Z,,0,,,NaN,,,,,,false,,,,405106.1999999881,405106.1999999881,,405105.89999997616,,405107.669,8,400,,,
break_continue,html.Screen,4_94_2,2023-09-08T20:53:04.876Z,,0,,,NaN,,,,,,false,,,,405106.39999997616,405106.2999999821,,405106.2999999821,,405107.669,8,400,,,
sequence,flow.Sequence,4_94,2023-09-08T20:53:04.876Z,,0,,,3040.42299998214,completion,,,,,false,,,,405106.39999997616,405106.2999999821,402064.184,402064.39999997616,402065.877,405107.669,8,400,,,
trial,html.Screen,4_95_0,2023-09-08T20:53:07.841Z,,0,2,,2963.430999994045,response,ISIC_1996356.JPG,5,ISIC_0027499.JPG,ISIC_1996356.JPG,false,1,keypress(m),500,408071.2999999821,408071.09999999404,405101.144,405106.39999997616,405107.669,408073.021,8,400,46,,ISIC_0027499.JPG
break,html.Screen,4_95_1,2023-09-08T20:53:07.841Z,,0,,,NaN,,,,,,false,,,,408071.59999999404,408071.5,,408071.2999999821,,408073.021,8,400,,,
break_continue,html.Screen,4_95_2,2023-09-08T20:53:07.841Z,,0,,,NaN,,,,,,false,,,,408071.6999999881,408071.6999999881,,408071.59999999404,,408073.021,8,400,,,
sequence,flow.Sequence,4_95,2023-09-08T20:53:07.841Z,,0,,,2964.0309999880847,completion,,,,,false,,,,408071.6999999881,408071.6999999881,405101.144,405106.39999997616,405107.669,408073.021,8,400,,,
trial,html.Screen,4_96_0,2023-09-08T20:53:11.380Z,,0,2,,3536.678999988071,response,ISIC_7418723.JPG,5,ISIC_0057759.JPG,ISIC_0057759.JPG,false,0,keypress(z),500,411609.7999999821,411609.6999999881,408055.435,408071.7999999821,408073.021,411611.703,8,400,47,,ISIC_7418723.JPG
break,html.Screen,4_96_1,2023-09-08T20:53:11.380Z,,0,,,NaN,,,,,,false,,,,411610.2999999821,411610.1999999881,,411609.89999997616,,411611.703,8,400,,,
break_continue,html.Screen,4_96_2,2023-09-08T20:53:11.380Z,,0,,,NaN,,,,,,false,,,,411610.39999997616,411610.39999997616,,411610.2999999821,,411611.703,8,400,,,
sequence,flow.Sequence,4_96,2023-09-08T20:53:11.380Z,,0,,,3537.37899997615,completion,,,,,false,,,,411610.39999997616,411610.39999997616,408055.435,408071.7999999821,408073.021,411611.703,8,400,,,
trial,html.Screen,4_97_0,2023-09-08T20:53:14.823Z,,0,2,,3440.9969999880996,response,ISIC_0066001.JPG,5,ISIC_0032472.JPG,ISIC_0066001.JPG,false,1,keypress(m),500,415052.7999999821,415052.6999999881,411605.613,411610.5,411611.703,415074.489,8,400,48,,ISIC_0032472.JPG
break,html.Screen,4_97_1,2023-09-08T20:53:14.823Z,,0,,,NaN,,,,,,false,,,,415053.09999999404,415053,,415052.89999997616,,415074.489,8,400,,,
break_continue,html.Screen,4_97_2,2023-09-08T20:53:14.823Z,,0,,,NaN,,,,,,false,,,,415053.1999999881,415053.1999999881,,415053.09999999404,,415074.489,8,400,,,
sequence,flow.Sequence,4_97,2023-09-08T20:53:14.823Z,,0,,,3441.4969999880996,completion,,,,,false,,,,415053.1999999881,415053.1999999881,411605.613,411610.5,411611.703,415074.489,8,400,,,
trial,html.Screen,4_98_0,2023-09-08T20:53:18.345Z,,0,2,,3500.9109999761567,response,ISIC_5611515.JPG,5,ISIC_0027411.JPG,ISIC_0027411.JPG,false,0,keypress(z),500,418575.5,418575.39999997616,415057.791,415053.2999999821,415074.489,418577.417,8,400,49,,ISIC_5611515.JPG
break,html.Screen,4_98_1,2023-09-08T20:53:18.346Z,,0,,,NaN,,,,,,false,,,,418575.7999999821,418575.7999999821,,418575.59999999404,,418577.417,8,400,,,
break_continue,html.Screen,4_98_2,2023-09-08T20:53:18.346Z,,0,,,NaN,,,,,,false,,,,418576,418576,,418575.89999997616,,418577.417,8,400,,,
sequence,flow.Sequence,4_98,2023-09-08T20:53:18.346Z,,0,,,3501.5109999999986,completion,,,,,false,,,,418576.09999999404,418576,415057.791,415053.2999999821,415074.489,418577.417,8,400,,,
trial,html.Screen,4_99_0,2023-09-08T20:53:22.096Z,,0,2,,3748.1829999940237,response,ISIC_0206758.JPG,6,ISIC_9267202.JPG,ISIC_9267202.JPG,false,0,keypress(z),500,422325.6999999881,422325.59999999404,418571.072,418576.09999999404,418577.417,422344.574,8,400,50,,ISIC_0206758.JPG
break,html.Screen,4_99_1,2023-09-08T20:53:32.096Z,,0,,,9997.373999999953,timeout,,,,,false,,,,432325.89999997616,432325.305,422327.755,422325.7999999821,422344.574,432341.948,8,400,,,
break_continue,html.Screen,4_99_2,2023-09-08T20:53:33.532Z,,0,,,1414.3519999821438,response,,,,,false,continue,keypress(Space),,433762.2999999821,433756.2999999821,432325.305,432325.89999997616,432341.948,433775.989,8,400,,,
sequence,flow.Sequence,4_99,2023-09-08T20:53:33.532Z,,0,,,15178.882999982103,completion,,,,,false,,,,433762.39999997616,433756.2999999821,418571.072,418576.09999999404,418577.417,433775.989,8,400,,,
trial,html.Screen,4_100_0,2023-09-08T20:53:37.150Z,,0,3,,3604.5109999999986,response,ISIC_0073115.JPG,5,ISIC_1565767.JPG,ISIC_0073115.JPG,false,1,keypress(m),500,437380.59999999404,437380.5,433758.183,433762.39999997616,433775.989,437382.446,8,400,1,,ISIC_1565767.JPG
break,html.Screen,4_100_1,2023-09-08T20:53:37.151Z,,0,,,NaN,,,,,,false,,,,437381,437380.7999999821,,437380.6999999881,,437382.446,8,400,,,
break_continue,html.Screen,4_100_2,2023-09-08T20:53:37.151Z,,0,,,NaN,,,,,,false,,,,437381.09999999404,437381.09999999404,,437381,,437382.446,8,400,,,
sequence,flow.Sequence,4_100,2023-09-08T20:53:37.151Z,,0,,,3605.110999994038,completion,,,,,false,,,,437381.09999999404,437381.09999999404,433758.183,433762.39999997616,433775.989,437382.446,8,400,,,
trial,html.Screen,4_101_0,2023-09-08T20:53:40.529Z,,0,3,,3376.6539999940433,response,ISIC_0033530.JPG,5,ISIC_0029651.JPG,ISIC_0033530.JPG,false,1,keypress(m),500,440759.1999999881,440759.09999999404,437373.485,437381.1999999881,437382.446,440760.982,8,400,2,,ISIC_0029651.JPG
break,html.Screen,4_101_1,2023-09-08T20:53:40.529Z,,0,,,NaN,,,,,,false,,,,440759.59999999404,440759.39999997616,,440759.1999999881,,440760.982,8,400,,,
break_continue,html.Screen,4_101_2,2023-09-08T20:53:40.529Z,,0,,,NaN,,,,,,false,,,,440759.6999999881,440759.59999999404,,440759.59999999404,,440760.982,8,400,,,
sequence,flow.Sequence,4_101,2023-09-08T20:53:40.530Z,,0,,,3377.1539999940433,completion,,,,,false,,,,440759.7999999821,440759.59999999404,437373.485,437381.09999999404,437382.446,440760.982,8,400,,,
trial,html.Screen,4_102_0,2023-09-08T20:53:43.763Z,,0,3,,3232.217999988061,response,ISIC_0033157.JPG,6,ISIC_5223096.JPG,ISIC_0033157.JPG,false,1,keypress(m),500,443993.39999997616,443993.1999999881,440753.758,440759.89999997616,440760.982,444011.924,8,400,3,,ISIC_5223096.JPG
break,html.Screen,4_102_1,2023-09-08T20:53:43.764Z,,0,,,NaN,,,,,,false,,,,443993.7999999821,443993.7999999821,,443993.5,,444011.924,8,400,,,
break_continue,html.Screen,4_102_2,2023-09-08T20:53:43.764Z,,0,,,NaN,,,,,,false,,,,443993.89999997616,443993.89999997616,,443993.7999999821,,444011.924,8,400,,,
sequence,flow.Sequence,4_102,2023-09-08T20:53:43.764Z,,0,,,3232.91799997614,completion,,,,,false,,,,443994,443993.89999997616,440753.758,440759.7999999821,440760.982,444011.924,8,400,,,
trial,html.Screen,4_103_0,2023-09-08T20:53:47.445Z,,0,3,,3663.1759999940405,response,ISIC_4045781.JPG,5,ISIC_0021442.JPG,ISIC_0021442.JPG,false,0,keypress(z),500,447675.1999999881,447675.09999999404,443991.605,443994,444011.924,447677.073,8,400,4,,ISIC_4045781.JPG
break,html.Screen,4_103_1,2023-09-08T20:53:47.445Z,,0,,,NaN,,,,,,false,,,,447675.59999999404,447675.5,,447675.1999999881,,447677.073,8,400,,,
break_continue,html.Screen,4_103_2,2023-09-08T20:53:47.445Z,,0,,,NaN,,,,,,false,,,,447675.6999999881,447675.6999999881,,447675.6999999881,,447677.073,8,400,,,
sequence,flow.Sequence,4_103,2023-09-08T20:53:47.446Z,,0,,,3663.77599998808,completion,,,,,false,,,,447675.7999999821,447675.6999999881,443991.605,443994,444011.924,447677.073,8,400,,,
trial,html.Screen,4_104_0,2023-09-08T20:53:50.763Z,,0,3,,3315.7269999821438,response,ISIC_6174156.JPG,5,ISIC_0056440.JPG,ISIC_0056440.JPG,false,0,keypress(z),500,450992.7999999821,450992.7999999821,447669.985,447675.7999999821,447677.073,450994.639,8,400,5,,ISIC_6174156.JPG
break,html.Screen,4_104_1,2023-09-08T20:53:50.763Z,,0,,,NaN,,,,,,false,,,,450993.1999999881,450993.1999999881,,450992.89999997616,,450994.639,8,400,,,
break_continue,html.Screen,4_104_2,2023-09-08T20:53:50.763Z,,0,,,NaN,,,,,,false,,,,450993.39999997616,450993.2999999821,,450993.2999999821,,450994.639,8,400,,,
sequence,flow.Sequence,4_104,2023-09-08T20:53:50.763Z,,0,,,3316.2269999821438,completion,,,,,false,,,,450993.39999997616,450993.2999999821,447669.985,447675.7999999821,447677.073,450994.639,8,400,,,
trial,html.Screen,4_105_0,2023-09-08T20:53:54.238Z,,0,3,,3472.960999994015,response,ISIC_0066328.JPG,5,ISIC_7806926.JPG,ISIC_7806926.JPG,false,0,keypress(z),500,454467.6999999881,454467.59999999404,450993.259,450993.39999997616,450994.639,454469.769,8,400,6,,ISIC_0066328.JPG
break,html.Screen,4_105_1,2023-09-08T20:53:54.238Z,,0,,,NaN,,,,,,false,,,,454468.09999999404,454468,,454467.7999999821,,454469.769,8,400,,,
break_continue,html.Screen,4_105_2,2023-09-08T20:53:54.238Z,,0,,,NaN,,,,,,false,,,,454468.2999999821,454468.1999999881,,454468.1999999881,,454469.769,8,400,,,
sequence,flow.Sequence,4_105,2023-09-08T20:53:54.238Z,,0,,,3473.5609999880544,completion,,,,,false,,,,454468.2999999821,454468.1999999881,450993.259,450993.39999997616,450994.639,454469.769,8,400,,,
trial,html.Screen,4_106_0,2023-09-08T20:53:57.711Z,,0,3,,3471.231000000029,response,ISIC_1897507.JPG,6,ISIC_0029013.JPG,ISIC_1897507.JPG,false,1,keypress(m),500,457941.09999999404,457941,454461.773,454468.2999999821,454469.769,457959.677,8,400,7,,ISIC_0029013.JPG
break,html.Screen,4_106_1,2023-09-08T20:53:57.711Z,,0,,,NaN,,,,,,false,,,,457941.39999997616,457941.2999999821,,457941.1999999881,,457959.677,8,400,,,
break_continue,html.Screen,4_106_2,2023-09-08T20:53:57.711Z,,0,,,NaN,,,,,,false,,,,457941.59999999404,457941.5,,457941.39999997616,,457959.677,8,400,,,
sequence,flow.Sequence,4_106,2023-09-08T20:53:57.711Z,,0,,,3471.731000000029,completion,,,,,false,,,,457941.6999999881,457941.5,454461.773,454468.2999999821,454469.769,457959.677,8,400,,,
trial,html.Screen,4_107_0,2023-09-08T20:54:01.863Z,,0,3,,4133.022999988054,response,ISIC_2993032.JPG,5,ISIC_0064879.JPG,ISIC_2993032.JPG,false,1,keypress(m),500,462092.7999999821,462092.6999999881,457938.153,457941.6999999881,457959.677,462094.906,8,400,8,,ISIC_0064879.JPG
break,html.Screen,4_107_1,2023-09-08T20:54:01.863Z,,0,,,NaN,,,,,,false,,,,462093.09999999404,462093.09999999404,,462092.89999997616,,462094.906,8,400,,,
break_continue,html.Screen,4_107_2,2023-09-08T20:54:01.863Z,,0,,,NaN,,,,,,false,,,,462093.2999999821,462093.2999999821,,462093.1999999881,,462094.906,8,400,,,
sequence,flow.Sequence,4_107,2023-09-08T20:54:01.863Z,,0,,,4133.6229999820935,completion,,,,,false,,,,462093.39999997616,462093.2999999821,457938.153,457941.6999999881,457959.677,462094.906,8,400,,,
trial,html.Screen,4_108_0,2023-09-08T20:54:05.385Z,,0,3,,3519.793999988062,response,ISIC_1169724.JPG,6,ISIC_0066588.JPG,ISIC_0066588.JPG,false,0,keypress(z),500,465614.89999997616,465614.6999999881,462077.467,462093.5,462094.906,465617.04,8,400,9,,ISIC_1169724.JPG
break,html.Screen,4_108_1,2023-09-08T20:54:05.385Z,,0,,,NaN,,,,,,false,,,,465615.1999999881,465615.1999999881,,465615,,465617.04,8,400,,,
break_continue,html.Screen,4_108_2,2023-09-08T20:54:05.385Z,,0,,,NaN,,,,,,false,,,,465615.39999997616,465615.2999999821,,465615.2999999821,,465617.04,8,400,,,
sequence,flow.Sequence,4_108,2023-09-08T20:54:05.385Z,,0,,,3520.3939999821014,completion,,,,,false,,,,465615.39999997616,465615.2999999821,462077.467,462093.5,462094.906,465617.04,8,400,,,
trial,html.Screen,4_109_0,2023-09-08T20:54:08.975Z,,0,3,,3587.960000000021,response,ISIC_0033027.JPG,5,ISIC_0000118.JPG,ISIC_0033027.JPG,false,1,keypress(m),500,469205.1999999881,469205,465611.91,465615.39999997616,465617.04,469223.626,8,400,10,,ISIC_0000118.JPG
break,html.Screen,4_109_1,2023-09-08T20:54:08.975Z,,0,,,NaN,,,,,,false,,,,469205.59999999404,469205.39999997616,,469205.1999999881,,469223.626,8,400,,,
break_continue,html.Screen,4_109_2,2023-09-08T20:54:08.975Z,,0,,,NaN,,,,,,false,,,,469205.59999999404,469205.59999999404,,469205.59999999404,,469223.626,8,400,,,
sequence,flow.Sequence,4_109,2023-09-08T20:54:08.976Z,,0,,,3588.5599999940605,completion,,,,,false,,,,469205.6999999881,469205.59999999404,465611.91,465615.39999997616,465617.04,469223.626,8,400,,,
trial,html.Screen,4_110_0,2023-09-08T20:54:12.261Z,,0,3,,3267.6739999821293,response,ISIC_5433087.JPG,4,ISIC_0059929.JPG,ISIC_5433087.JPG,false,1,keypress(m),500,472491.5,472491.2999999821,469205.396,469205.7999999821,469223.626,472494.098,8,400,11,,ISIC_0059929.JPG
break,html.Screen,4_110_1,2023-09-08T20:54:12.262Z,,0,,,NaN,,,,,,false,,,,472492.2999999821,472492.09999999404,,472491.6999999881,,472494.098,8,400,,,
break_continue,html.Screen,4_110_2,2023-09-08T20:54:12.262Z,,0,,,NaN,,,,,,false,,,,472492.59999999404,472492.5,,472492.39999997616,,472494.098,8,400,,,
sequence,flow.Sequence,4_110,2023-09-08T20:54:12.262Z,,0,,,3268.8740000000107,completion,,,,,false,,,,472492.6999999881,472492.5,469205.396,469205.6999999881,469223.626,472494.098,8,400,,,
trial,html.Screen,4_111_0,2023-09-08T20:54:15.565Z,,0,3,,3300.80199997616,response,ISIC_0056391.JPG,5,ISIC_4980656.JPG,ISIC_4980656.JPG,false,0,keypress(z),500,475795.1999999881,475794.89999997616,472479.475,472492.7999999821,472494.098,475797.72,8,400,12,,ISIC_0056391.JPG
break,html.Screen,4_111_1,2023-09-08T20:54:15.566Z,,0,,,NaN,,,,,,false,,,,475796,475795.7999999821,,475795.39999997616,,475797.72,8,400,,,
break_continue,html.Screen,4_111_2,2023-09-08T20:54:15.566Z,,0,,,NaN,,,,,,false,,,,475796.5,475796.2999999821,,475796.1999999881,,475797.72,8,400,,,
sequence,flow.Sequence,4_111,2023-09-08T20:54:15.566Z,,0,,,3302.2019999821205,completion,,,,,false,,,,475796.6999999881,475796.2999999821,472479.475,472492.7999999821,472494.098,475797.72,8,400,,,
trial,html.Screen,4_112_0,2023-09-08T20:54:18.599Z,,0,3,,3031.0799999821465,response,ISIC_0000660.JPG,5,ISIC_0014857.JPG,ISIC_0014857.JPG,false,0,keypress(z),500,478829,478828.7999999821,475795.883,475796.7999999821,475797.72,478848.278,8,400,13,,ISIC_0000660.JPG
break,html.Screen,4_112_1,2023-09-08T20:54:18.599Z,,0,,,NaN,,,,,,false,,,,478829.7999999821,478829.6999999881,,478829.09999999404,,478848.278,8,400,,,
break_continue,html.Screen,4_112_2,2023-09-08T20:54:18.600Z,,0,,,NaN,,,,,,false,,,,478830.09999999404,478830,,478829.89999997616,,478848.278,8,400,,,
sequence,flow.Sequence,4_112,2023-09-08T20:54:18.600Z,,0,,,3032.280000000028,completion,,,,,false,,,,478830.2999999821,478830,475795.883,475796.7999999821,475797.72,478848.278,8,400,,,
trial,html.Screen,4_113_0,2023-09-08T20:54:21.802Z,,0,3,,3184.121999976167,response,ISIC_2936321.JPG,5,ISIC_0024546.JPG,ISIC_0024546.JPG,false,0,keypress(z),500,482032.59999999404,482032.39999997616,478831.644,478830.39999997616,478848.278,482035.389,8,400,14,,ISIC_2936321.JPG
break,html.Screen,4_113_1,2023-09-08T20:54:21.803Z,,0,,,NaN,,,,,,false,,,,482033.39999997616,482033.2999999821,,482032.7999999821,,482035.389,8,400,,,
break_continue,html.Screen,4_113_2,2023-09-08T20:54:21.803Z,,0,,,NaN,,,,,,false,,,,482033.7999999821,482033.6999999881,,482033.59999999404,,482035.389,8,400,,,
sequence,flow.Sequence,4_113,2023-09-08T20:54:21.804Z,,0,,,3185.421999988088,completion,,,,,false,,,,482034,482033.6999999881,478831.644,478830.2999999821,478848.278,482035.389,8,400,,,
trial,html.Screen,4_114_0,2023-09-08T20:54:24.899Z,,0,3,,3094.1109999999753,response,ISIC_0059350.JPG,5,ISIC_5237059.JPG,ISIC_5237059.JPG,false,0,keypress(z),500,485129.59999999404,485129.5,482033.504,482034.09999999404,482035.389,485131.628,8,400,15,,ISIC_0059350.JPG
break,html.Screen,4_114_1,2023-09-08T20:54:24.900Z,,0,,,NaN,,,,,,false,,,,485130,485129.89999997616,,485129.59999999404,,485131.628,8,400,,,
break_continue,html.Screen,4_114_2,2023-09-08T20:54:24.900Z,,0,,,NaN,,,,,,false,,,,485130.09999999404,485130,,485130,,485131.628,8,400,,,
sequence,flow.Sequence,4_114,2023-09-08T20:54:24.900Z,,0,,,3094.6109999999753,completion,,,,,false,,,,485130.1999999881,485130,482033.504,482034,482035.389,485131.628,8,400,,,
trial,html.Screen,4_115_0,2023-09-08T20:54:28.236Z,,0,3,,3334.771999976132,response,ISIC_0027411.JPG,5,ISIC_0025571.JPG,ISIC_0025571.JPG,false,0,keypress(z),500,488466.59999999404,488466.39999997616,485129.477,485130.1999999881,485131.628,488469.285,8,400,16,,ISIC_0027411.JPG
break,html.Screen,4_115_1,2023-09-08T20:54:28.237Z,,0,,,NaN,,,,,,false,,,,488467.5,488467.2999999821,,488466.89999997616,,488469.285,8,400,,,
break_continue,html.Screen,4_115_2,2023-09-08T20:54:28.237Z,,0,,,NaN,,,,,,false,,,,488467.7999999821,488467.6999999881,,488467.5,,488469.285,8,400,,,
sequence,flow.Sequence,4_115,2023-09-08T20:54:28.238Z,,0,,,3336.071999988053,completion,,,,,false,,,,488467.89999997616,488467.6999999881,485129.477,485130.1999999881,485131.628,488469.285,8,400,,,
trial,html.Screen,4_116_0,2023-09-08T20:54:31.111Z,,0,3,,2871.9149999881047,response,ISIC_5830274.JPG,5,ISIC_2808323.JPG,ISIC_5830274.JPG,false,1,keypress(m),500,491341.5,491341.1999999881,488467.077,488468,488469.285,491344.816,8,400,17,,ISIC_2808323.JPG
break,html.Screen,4_116_1,2023-09-08T20:54:31.112Z,,0,,,NaN,,,,,,false,,,,491342.1999999881,491342.09999999404,,491341.59999999404,,491344.816,8,400,,,
break_continue,html.Screen,4_116_2,2023-09-08T20:54:31.112Z,,0,,,NaN,,,,,,false,,,,491342.5,491342.39999997616,,491342.2999999821,,491344.816,8,400,,,
sequence,flow.Sequence,4_116,2023-09-08T20:54:31.112Z,,0,,,2873.1149999761838,completion,,,,,false,,,,491342.6999999881,491342.39999997616,488467.077,488468,488469.285,491344.816,8,400,,,
trial,html.Screen,4_117_0,2023-09-08T20:54:34.187Z,,0,3,,3072.1840000000084,response,ISIC_0011366.JPG,4,ISIC_5377693.JPG,ISIC_5377693.JPG,false,0,keypress(z),500,494417.2999999821,494417,491341.706,491342.7999999821,491344.816,494420.065,8,400,18,,ISIC_0011366.JPG
break,html.Screen,4_117_1,2023-09-08T20:54:34.188Z,,0,,,NaN,,,,,,false,,,,494418.09999999404,494417.89999997616,,494417.5,,494420.065,8,400,,,
break_continue,html.Screen,4_117_2,2023-09-08T20:54:34.188Z,,0,,,NaN,,,,,,false,,,,494418.39999997616,494418.2999999821,,494418.1999999881,,494420.065,8,400,,,
sequence,flow.Sequence,4_117,2023-09-08T20:54:34.188Z,,0,,,3073.483999982127,completion,,,,,false,,,,494418.5,494418.2999999821,491341.706,491342.7999999821,491344.816,494420.065,8,400,,,
trial,html.Screen,4_118_0,2023-09-08T20:54:37.998Z,,0,3,,3808.2349999821163,response,ISIC_8502869.JPG,5,ISIC_0015455.JPG,ISIC_0015455.JPG,false,0,keypress(z),500,498228.5,498228.2999999821,494417.163,494418.6999999881,494420.065,498231.219,8,400,19,,ISIC_8502869.JPG
break,html.Screen,4_118_1,2023-09-08T20:54:37.999Z,,0,,,NaN,,,,,,false,,,,498229.39999997616,498229.1999999881,,498228.6999999881,,498231.219,8,400,,,
break_continue,html.Screen,4_118_2,2023-09-08T20:54:37.999Z,,0,,,NaN,,,,,,false,,,,498229.6999999881,498229.59999999404,,498229.39999997616,,498231.219,8,400,,,
sequence,flow.Sequence,4_118,2023-09-08T20:54:38.000Z,,0,,,3809.534999994037,completion,,,,,false,,,,498229.89999997616,498229.59999999404,494417.163,494418.6999999881,494420.065,498231.219,8,400,,,
trial,html.Screen,4_119_0,2023-09-08T20:54:40.805Z,,0,3,,2803.9809999880963,response,ISIC_0032913.JPG,5,ISIC_0067167.JPG,ISIC_0032913.JPG,false,1,keypress(m),500,501035.39999997616,501035.1999999881,498223.324,498230,498231.219,501037.85,8,400,20,,ISIC_0067167.JPG
break,html.Screen,4_119_1,2023-09-08T20:54:40.806Z,,0,,,NaN,,,,,,false,,,,501036.2999999821,501036.09999999404,,501035.59999999404,,501037.85,8,400,,,
break_continue,html.Screen,4_119_2,2023-09-08T20:54:40.806Z,,0,,,NaN,,,,,,false,,,,501036.59999999404,501036.5,,501036.2999999821,,501037.85,8,400,,,
sequence,flow.Sequence,4_119,2023-09-08T20:54:40.806Z,,0,,,2805.2810000000172,completion,,,,,false,,,,501036.7999999821,501036.5,498223.324,498229.89999997616,498231.219,501037.85,8,400,,,
trial,html.Screen,4_120_0,2023-09-08T20:54:43.993Z,,0,3,,3184.8499999881024,response,ISIC_2801008.JPG,5,ISIC_4243283.JPG,ISIC_4243283.JPG,false,0,keypress(z),500,504222.7999999821,504222.6999999881,501035.888,501036.89999997616,501037.85,504224.82,8,400,21,,ISIC_2801008.JPG
break,html.Screen,4_120_1,2023-09-08T20:54:43.993Z,,0,,,NaN,,,,,,false,,,,504223.1999999881,504223.1999999881,,504222.89999997616,,504224.82,8,400,,,
break_continue,html.Screen,4_120_2,2023-09-08T20:54:43.993Z,,0,,,NaN,,,,,,false,,,,504223.39999997616,504223.39999997616,,504223.2999999821,,504224.82,8,400,,,
sequence,flow.Sequence,4_120,2023-09-08T20:54:43.993Z,,0,,,3185.5499999761814,completion,,,,,false,,,,504223.39999997616,504223.39999997616,501035.888,501036.89999997616,501037.85,504224.82,8,400,,,
trial,html.Screen,4_121_0,2023-09-08T20:54:46.923Z,,0,3,,2928.579999976151,response,ISIC_0010664.JPG,5,ISIC_3568801.JPG,ISIC_0010664.JPG,false,1,keypress(m),500,507153.59999999404,507153.39999997616,504221.156,504223.39999997616,504224.82,507156.648,8,400,22,,ISIC_3568801.JPG
break,html.Screen,4_121_1,2023-09-08T20:54:46.924Z,,0,,,NaN,,,,,,false,,,,507154.6999999881,507154.39999997616,,507154,,507156.648,8,400,,,
break_continue,html.Screen,4_121_2,2023-09-08T20:54:46.925Z,,0,,,NaN,,,,,,false,,,,507155,507154.89999997616,,507154.6999999881,,507156.648,8,400,,,
sequence,flow.Sequence,4_121,2023-09-08T20:54:46.925Z,,0,,,2930.079999976151,completion,,,,,false,,,,507155.09999999404,507154.89999997616,504221.156,504223.39999997616,504224.82,507156.648,8,400,,,
trial,html.Screen,4_122_0,2023-09-08T20:54:50.836Z,,0,3,,3909.2519999761716,response,ISIC_0011463.JPG,5,ISIC_0068048.JPG,ISIC_0011463.JPG,false,1,keypress(m),500,511066.09999999404,511065.89999997616,507153.287,507155.2999999821,507156.648,511087.027,8,400,23,,ISIC_0068048.JPG
break,html.Screen,4_122_1,2023-09-08T20:54:50.836Z,,0,,,NaN,,,,,,false,,,,511066.5,511066.5,,511066.09999999404,,511087.027,8,400,,,
break_continue,html.Screen,4_122_2,2023-09-08T20:54:50.836Z,,0,,,NaN,,,,,,false,,,,511066.6999999881,511066.59999999404,,511066.59999999404,,511087.027,8,400,,,
sequence,flow.Sequence,4_122,2023-09-08T20:54:50.836Z,,0,,,3909.951999994053,completion,,,,,false,,,,511066.6999999881,511066.59999999404,507153.287,507155.1999999881,507156.648,511087.027,8,400,,,
trial,html.Screen,4_123_0,2023-09-08T20:54:54.407Z,,0,3,,3549.7729999821167,response,ISIC_8043299.JPG,6,ISIC_2772581.JPG,ISIC_2772581.JPG,false,0,keypress(z),500,514637,514636.7999999821,511071.249,511066.7999999821,511087.027,514639.681,8,400,24,,ISIC_8043299.JPG
break,html.Screen,4_123_1,2023-09-08T20:54:54.407Z,,0,,,NaN,,,,,,false,,,,514637.7999999821,514637.6999999881,,514637.1999999881,,514639.681,8,400,,,
break_continue,html.Screen,4_123_2,2023-09-08T20:54:54.408Z,,0,,,NaN,,,,,,false,,,,514638.09999999404,514638,,514637.89999997616,,514639.681,8,400,,,
sequence,flow.Sequence,4_123,2023-09-08T20:54:54.408Z,,0,,,3550.972999999998,completion,,,,,false,,,,514638.2999999821,514638,511071.249,511066.7999999821,511087.027,514639.681,8,400,,,
trial,html.Screen,4_124_0,2023-09-08T20:54:58.043Z,,0,3,,3633.6189999821363,response,ISIC_0030029.JPG,5,ISIC_7775535.JPG,ISIC_7775535.JPG,false,0,keypress(z),500,518273.59999999404,518273.2999999821,514623.331,514638.39999997616,514639.681,518293.011,8,400,25,,ISIC_0030029.JPG
break,html.Screen,4_124_1,2023-09-08T20:54:58.044Z,,0,,,NaN,,,,,,false,,,,518274.39999997616,518274.1999999881,,518273.6999999881,,518293.011,8,400,,,
break_continue,html.Screen,4_124_2,2023-09-08T20:54:58.044Z,,0,,,NaN,,,,,,false,,,,518274.7999999821,518274.6999999881,,518274.5,,518293.011,8,400,,,
sequence,flow.Sequence,4_124,2023-09-08T20:54:58.045Z,,0,,,3635.0189999880968,completion,,,,,false,,,,518274.89999997616,518274.6999999881,514623.331,514638.39999997616,514639.681,518293.011,8,400,,,
trial,html.Screen,4_125_0,2023-09-08T20:55:01.232Z,,0,3,,3168.6889999880805,response,ISIC_0068798.JPG,5,ISIC_2162728.JPG,ISIC_0068798.JPG,false,1,keypress(m),500,521461.89999997616,521461.6999999881,518274.431,518275.09999999404,518293.011,521464.584,8,400,26,,ISIC_2162728.JPG
break,html.Screen,4_125_1,2023-09-08T20:55:01.232Z,,0,,,NaN,,,,,,false,,,,521462.6999999881,521462.59999999404,,521462.09999999404,,521464.584,8,400,,,
