sender,sender_type,sender_id,timestamp,meta,,blockNo,condition,duration,ended_on,img_left,img_reveal,img_right,loser,practice,response,response_action,selection_duration,time_commit,time_end,time_render,time_run,time_show,time_switch,total_blocks,total_trials,trialNo,url,winner
informed_consent,html.Screen,0,2023-09-11T17:43:49.646Z,"{""labjs_version"":""20.2.4"",""labjs_build"":{""flavor"":""production"",""commit"":""f5b4a49f956347addd546a832a3327688c2c0fef""},""location"":""https://run.pavlovia.org/MurrayBennett/melanoma-2afc/?participant=67298&platform=sona"",""userAgent"":""Mozilla/5.0 (Macintosh; Intel Mac OS X 10_15_7) AppleWebKit/537.36 (KHTML, like Gecko) Chrome/116.0.0.0 Safari/537.36"",""platform"":""MacIntel"",""language"":""en-US"",""locale"":""en-US"",""timeZone"":""America/Chicago"",""timezoneOffset"":300,""screen_width"":1440,""screen_height"":900,""scroll_width"":1440,""scroll_height"":767,""window_innerWidth"":1440,""window_innerHeight"":815,""devicePixelRatio"":2}",,,,14106.237999997764,response,,,,,,consent,click button,,16240.599999997765,16237.099999997765,1964.202,2129.699999999255,2130.862,16248.288,,,,"{""participant"":""67298"",""platform"":""sona""}",
Welcome,html.Screen,1,2023-09-11T17:44:42.446Z,,,,irregular,52790.512000000745,response,,,,,,continue,click button,,69040.89999999851,69038.80000000075,16231.622,16241,16248.288,69047.121,,,,,
trial,html.Screen,2_0_0,2023-09-11T17:44:51.765Z,,0,0,,9312.478999997766,response,ISIC_4679428.JPG,,ISIC_0061792.JPG,ISIC_4679428.JPG,true,1,keypress(m),500,78360.30000000075,78359.59999999776,69030.455,69041.19999999925,69047.121,78366.797,1,6,1,,ISIC_0061792.JPG
sequence,flow.Sequence,2_0,2023-09-11T17:44:51.766Z,,0,,,9312.478999997766,completion,,,,,true,,,,78360.80000000075,78359.59999999776,69030.455,69041.19999999925,69047.121,78366.797,1,6,,,
trial,html.Screen,2_1_0,2023-09-11T17:45:00.587Z,,0,0,,8814.802999997759,response,ISIC_5199497.JPG,,ISIC_0776486.JPG,ISIC_0776486.JPG,true,0,keypress(z),500,87181.89999999851,87181.59999999776,78350.131,78361.09999999776,78366.797,87183.842,1,6,2,,ISIC_5199497.JPG
sequence,flow.Sequence,2_1,2023-09-11T17:45:00.587Z,,0,,,8814.802999997759,completion,,,,,true,,,,87182.39999999851,87181.59999999776,78350.131,78360.89999999851,78366.797,87183.842,1,6,,,
trial,html.Screen,2_2_0,2023-09-11T17:45:06.369Z,,0,0,,5779.857999999251,response,ISIC_2556187.JPG,,ISIC_8575776.JPG,ISIC_8575776.JPG,true,0,keypress(z),500,92964.19999999925,92963.69999999925,87167.176,87182.59999999776,87183.842,92967.764,1,6,3,,ISIC_2556187.JPG
sequence,flow.Sequence,2_2,2023-09-11T17:45:06.370Z,,0,,,5779.857999999251,completion,,,,,true,,,,92964.69999999925,92963.69999999925,87167.176,87182.5,87183.842,92967.764,1,6,,,
trial,html.Screen,2_3_0,2023-09-11T17:45:12.336Z,,0,0,,5962.835999997769,response,ISIC_8141769.JPG,,ISIC_9238366.JPG,ISIC_8141769.JPG,true,1,keypress(m),500,98931.09999999776,98930.59999999776,92951.098,92965,92967.764,98934.192,1,6,4,,ISIC_9238366.JPG
sequence,flow.Sequence,2_3,2023-09-11T17:45:12.337Z,,0,,,5962.835999997769,completion,,,,,true,,,,98931.59999999776,98930.59999999776,92951.098,92964.89999999851,92967.764,98934.192,1,6,,,
trial,html.Screen,2_4_0,2023-09-11T17:45:23.827Z,,0,0,,11487.10800000075,response,ISIC_9959593.JPG,,ISIC_8949026.JPG,ISIC_8949026.JPG,true,0,keypress(z),500,110421.89999999851,110421.30000000075,98917.526,98931.89999999851,98934.192,110435.066,1,6,5,,ISIC_9959593.JPG
sequence,flow.Sequence,2_4,2023-09-11T17:45:23.827Z,,0,,,11487.10800000075,completion,,,,,true,,,,110422.30000000075,110421.30000000075,98917.526,98931.80000000075,98934.192,110435.066,1,6,,,
trial,html.Screen,2_5_0,2023-09-11T17:45:30.553Z,,0,0,,6712.033999997759,response,ISIC_0010479.JPG,,ISIC_0460240.JPG,ISIC_0010479.JPG,true,1,keypress(m),500,117147.69999999925,117147.09999999776,110418.4,110422.59999999776,110435.066,117151.464,1,6,6,,ISIC_0460240.JPG
sequence,flow.Sequence,2_5,2023-09-11T17:45:30.553Z,,0,,,6712.033999997759,completion,,,,,true,,,,117148.09999999776,117147.09999999776,110418.4,110422.5,110435.066,117151.464,1,6,,,
loop,flow.Loop,2,2023-09-11T17:45:30.554Z,,,,,48099.978999997766,completion,,,,,true,,,,117148.39999999851,117147.09999999776,69030.455,69041.19999999925,69047.121,117151.464,1,6,,,
exp_instructions,html.Screen,3,2023-09-11T17:45:59.743Z,,,,,29180.435999998503,response,,,,,,continue,keypress(Space),,146338.09999999776,146331.8999999985,117134.798,117148.59999999776,117151.464,146350.296,,,,,
trial,html.Screen,4_0_0,2023-09-11T17:46:04.037Z,,0,1,,4281.004000000743,response,ISIC_0060832.JPG,6,ISIC_5854552.JPG,ISIC_5854552.JPG,false,0,keypress(z),500,150631.69999999925,150631.30000000075,146333.63,146338.5,146350.296,150635.875,8,400,1,,ISIC_0060832.JPG
break,html.Screen,4_0_1,2023-09-11T17:46:04.038Z,,0,,,NaN,,,,,,false,,,,150633,150632.69999999925,,150632,,150635.875,8,400,,,
break_continue,html.Screen,4_0_2,2023-09-11T17:46:04.038Z,,0,,,NaN,,,,,,false,,,,150633.3999999985,150633.19999999925,,150633.09999999776,,150635.875,8,400,,,
sequence,flow.Sequence,4_0,2023-09-11T17:46:04.039Z,,0,,,4282.903999999253,completion,,,,,false,,,,150633.5,150633.19999999925,146333.63,146338.5,146350.296,150635.875,8,400,,,
trial,html.Screen,4_1_0,2023-09-11T17:46:09.753Z,,0,1,,5712.02499999851,response,ISIC_3936223.JPG,8,ISIC_4836699.JPG,ISIC_4836699.JPG,false,0,keypress(z),500,156348.3999999985,156347.8999999985,150619.209,150633.59999999776,150635.875,156352.313,8,400,2,,ISIC_3936223.JPG
break,html.Screen,4_1_1,2023-09-11T17:46:09.755Z,,0,,,NaN,,,,,,false,,,,156349.59999999776,156349.30000000075,,156348.69999999925,,156352.313,8,400,,,
break_continue,html.Screen,4_1_2,2023-09-11T17:46:09.755Z,,0,,,NaN,,,,,,false,,,,156350,156349.80000000075,,156349.69999999925,,156352.313,8,400,,,
sequence,flow.Sequence,4_1,2023-09-11T17:46:09.755Z,,0,,,5713.925000000745,completion,,,,,false,,,,156350,156349.80000000075,150619.209,150633.59999999776,150635.875,156352.313,8,400,,,
trial,html.Screen,4_2_0,2023-09-11T17:46:13.207Z,,0,1,,3448.9870000007504,response,ISIC_7462746.JPG,8,ISIC_0012756.JPG,ISIC_7462746.JPG,false,1,keypress(m),500,159801.69999999925,159801.30000000075,156335.647,156350.19999999925,156352.313,159803.033,8,400,3,,ISIC_0012756.JPG
break,html.Screen,4_2_1,2023-09-11T17:46:13.208Z,,0,,,NaN,,,,,,false,,,,159802.80000000075,159802.59999999776,,159802,,159803.033,8,400,,,
break_continue,html.Screen,4_2_2,2023-09-11T17:46:13.208Z,,0,,,NaN,,,,,,false,,,,159803.09999999776,159803,,159802.8999999985,,159803.033,8,400,,,
sequence,flow.Sequence,4_2,2023-09-11T17:46:13.208Z,,0,,,3450.6870000000054,completion,,,,,false,,,,159803.19999999925,159803,156335.647,156350.09999999776,156352.313,159803.033,8,400,,,
trial,html.Screen,4_3_0,2023-09-11T17:46:19.769Z,,0,1,,6560.666999999259,response,ISIC_4658487.JPG,9,ISIC_5932383.JPG,ISIC_4658487.JPG,false,1,keypress(m),500,166364,166363.69999999925,159786.367,159803.3999999985,159803.033,166369.437,8,400,4,,ISIC_5932383.JPG
break,html.Screen,4_3_1,2023-09-11T17:46:19.770Z,,0,,,NaN,,,,,,false,,,,166365.19999999925,166364.8999999985,,166364.30000000075,,166369.437,8,400,,,
break_continue,html.Screen,4_3_2,2023-09-11T17:46:19.771Z,,0,,,NaN,,,,,,false,,,,166365.59999999776,166365.3999999985,,166365.30000000075,,166369.437,8,400,,,
sequence,flow.Sequence,4_3,2023-09-11T17:46:19.771Z,,0,,,6562.366999998514,completion,,,,,false,,,,166365.69999999925,166365.3999999985,159786.367,159803.30000000075,159803.033,166369.437,8,400,,,
trial,html.Screen,4_4_0,2023-09-11T17:46:30.888Z,,0,1,,11112.962999998505,response,ISIC_5854552.JPG,6,ISIC_0031914.JPG,ISIC_0031914.JPG,false,0,keypress(z),500,177482.80000000075,177482.3999999985,166352.771,166365.8999999985,166369.437,177486.471,8,400,5,,ISIC_5854552.JPG
break,html.Screen,4_4_1,2023-09-11T17:46:30.889Z,,0,,,NaN,,,,,,false,,,,177484,177483.80000000075,,177483.09999999776,,177486.471,8,400,,,
break_continue,html.Screen,4_4_2,2023-09-11T17:46:30.889Z,,0,,,NaN,,,,,,false,,,,177484.3999999985,177484.19999999925,,177484.09999999776,,177486.471,8,400,,,
sequence,flow.Sequence,4_4,2023-09-11T17:46:30.890Z,,0,,,11114.76299999925,completion,,,,,false,,,,177484.59999999776,177484.19999999925,166352.771,166365.8999999985,166369.437,177486.471,8,400,,,
trial,html.Screen,4_5_0,2023-09-11T17:46:34.392Z,,0,1,,3500.2289999992645,response,ISIC_3932879.JPG,6,ISIC_0226072.JPG,ISIC_0226072.JPG,false,0,keypress(z),500,180987.19999999925,180986.69999999925,177469.805,177484.69999999925,177486.471,181002.997,8,400,6,,ISIC_3932879.JPG
break,html.Screen,4_5_1,2023-09-11T17:46:34.393Z,,0,,,NaN,,,,,,false,,,,180988.3999999985,180988.09999999776,,180987.5,,181002.997,8,400,,,
break_continue,html.Screen,4_5_2,2023-09-11T17:46:34.394Z,,0,,,NaN,,,,,,false,,,,180988.69999999925,180988.59999999776,,180988.5,,181002.997,8,400,,,
sequence,flow.Sequence,4_5,2023-09-11T17:46:34.394Z,,0,,,3502.1289999977744,completion,,,,,false,,,,180988.8999999985,180988.59999999776,177469.805,177484.69999999925,177486.471,181002.997,8,400,,,
trial,html.Screen,4_6_0,2023-09-11T17:46:38.287Z,,0,1,,3878.002999999997,response,ISIC_0032913.JPG,9,ISIC_0029118.JPG,ISIC_0029118.JPG,false,0,keypress(z),500,184881.3999999985,184881,180986.331,180989,181002.997,184886.175,8,400,7,,ISIC_0032913.JPG
break,html.Screen,4_6_1,2023-09-11T17:46:38.288Z,,0,,,NaN,,,,,,false,,,,184882.59999999776,184882.3999999985,,184881.69999999925,,184886.175,8,400,,,
break_continue,html.Screen,4_6_2,2023-09-11T17:46:38.288Z,,0,,,NaN,,,,,,false,,,,184883,184882.8999999985,,184882.8999999985,,184886.175,8,400,,,
sequence,flow.Sequence,4_6,2023-09-11T17:46:38.288Z,,0,,,3879.902999998507,completion,,,,,false,,,,184883.30000000075,184882.8999999985,180986.331,180989,181002.997,184886.175,8,400,,,
trial,html.Screen,4_7_0,2023-09-11T17:46:42.294Z,,0,1,,4001.9249999977765,response,ISIC_8130596.JPG,8,ISIC_1337726.JPG,ISIC_1337726.JPG,false,0,keypress(z),500,188888.5,188888.09999999776,184869.509,184883.5,184886.175,188903.987,8,400,8,,ISIC_8130596.JPG
break,html.Screen,4_7_1,2023-09-11T17:46:42.295Z,,0,,,NaN,,,,,,false,,,,188889.80000000075,188889.5,,188888.80000000075,,188903.987,8,400,,,
break_continue,html.Screen,4_7_2,2023-09-11T17:46:42.295Z,,0,,,NaN,,,,,,false,,,,188890.09999999776,188890,,188889.80000000075,,188903.987,8,400,,,
sequence,flow.Sequence,4_7,2023-09-11T17:46:42.295Z,,0,,,4003.8250000000116,completion,,,,,false,,,,188890.30000000075,188890,184869.509,184883.3999999985,184886.175,188903.987,8,400,,,
trial,html.Screen,4_8_0,2023-09-11T17:46:46.025Z,,0,1,,3715.912999998516,response,ISIC_6157226.JPG,8,ISIC_0351547.JPG,ISIC_0351547.JPG,false,0,keypress(z),500,192620.30000000075,192619.8999999985,188887.321,188890.3999999985,188903.987,192637.171,8,400,9,,ISIC_6157226.JPG
break,html.Screen,4_8_1,2023-09-11T17:46:46.027Z,,0,,,NaN,,,,,,false,,,,192621.5,192621.30000000075,,192620.59999999776,,192637.171,8,400,,,
break_continue,html.Screen,4_8_2,2023-09-11T17:46:46.027Z,,0,,,NaN,,,,,,false,,,,192621.8999999985,192621.80000000075,,192621.59999999776,,192637.171,8,400,,,
sequence,flow.Sequence,4_8,2023-09-11T17:46:46.027Z,,0,,,3717.8130000007513,completion,,,,,false,,,,192622.09999999776,192621.80000000075,188887.321,188890.30000000075,188903.987,192637.171,8,400,,,
trial,html.Screen,4_9_0,2023-09-11T17:46:49.368Z,,0,1,,3324.728999998508,response,ISIC_0065264.JPG,5,ISIC_0013988.JPG,ISIC_0013988.JPG,false,0,keypress(z),500,195962.3999999985,195961.8999999985,192620.505,192623.30000000075,192637.171,195970.371,8,400,10,,ISIC_0065264.JPG
break,html.Screen,4_9_1,2023-09-11T17:46:49.369Z,,0,,,NaN,,,,,,false,,,,195963.59999999776,195963.30000000075,,195962.69999999925,,195970.371,8,400,,,
break_continue,html.Screen,4_9_2,2023-09-11T17:46:49.369Z,,0,,,NaN,,,,,,false,,,,195964,195963.8999999985,,195963.69999999925,,195970.371,8,400,,,
sequence,flow.Sequence,4_9,2023-09-11T17:46:49.369Z,,0,,,3326.728999998508,completion,,,,,false,,,,195964.19999999925,195963.8999999985,192620.505,192622.09999999776,192637.171,195970.371,8,400,,,
trial,html.Screen,4_10_0,2023-09-11T17:46:54.446Z,,0,1,,5070.429000000731,response,ISIC_0170101.JPG,8,ISIC_0033625.JPG,ISIC_0033625.JPG,false,0,keypress(z),500,201041.30000000075,201040.80000000075,195953.705,195964.30000000075,195970.371,201054.282,8,400,11,,ISIC_0170101.JPG
break,html.Screen,4_10_1,2023-09-11T17:46:54.448Z,,0,,,NaN,,,,,,false,,,,201042.5,201042.30000000075,,201041.59999999776,,201054.282,8,400,,,
break_continue,html.Screen,4_10_2,2023-09-11T17:46:54.448Z,,0,,,NaN,,,,,,false,,,,201042.80000000075,201042.69999999925,,201042.59999999776,,201054.282,8,400,,,
sequence,flow.Sequence,4_10,2023-09-11T17:46:54.448Z,,0,,,5072.328999999241,completion,,,,,false,,,,201042.8999999985,201042.69999999925,195953.705,195964.19999999925,195970.371,201054.282,8,400,,,
trial,html.Screen,4_11_0,2023-09-11T17:47:00.534Z,,0,1,,6073.617999998503,response,ISIC_0032722.JPG,6,ISIC_0030952.JPG,ISIC_0030952.JPG,false,0,keypress(z),500,207128.3999999985,207127.8999999985,201037.616,201043.09999999776,201054.282,207137.372,8,400,12,,ISIC_0032722.JPG
break,html.Screen,4_11_1,2023-09-11T17:47:00.535Z,,0,,,NaN,,,,,,false,,,,207129.59999999776,207129.3999999985,,207128.69999999925,,207137.372,8,400,,,
break_continue,html.Screen,4_11_2,2023-09-11T17:47:00.535Z,,0,,,NaN,,,,,,false,,,,207130,207129.8999999985,,207129.69999999925,,207137.372,8,400,,,
sequence,flow.Sequence,4_11,2023-09-11T17:47:00.535Z,,0,,,6075.617999998503,completion,,,,,false,,,,207130.19999999925,207129.8999999985,201037.616,201043.09999999776,201054.282,207137.372,8,400,,,
trial,html.Screen,4_12_0,2023-09-11T17:47:03.596Z,,0,1,,3053.327999999252,response,ISIC_0014936.JPG,9,ISIC_0034239.JPG,ISIC_0014936.JPG,false,1,keypress(m),500,210191.09999999776,210190.69999999925,207120.706,207130.30000000075,207137.372,210204.668,8,400,13,,ISIC_0034239.JPG
break,html.Screen,4_12_1,2023-09-11T17:47:03.597Z,,0,,,NaN,,,,,,false,,,,210192.19999999925,210192.09999999776,,210191.3999999985,,210204.668,8,400,,,
break_continue,html.Screen,4_12_2,2023-09-11T17:47:03.598Z,,0,,,NaN,,,,,,false,,,,210192.59999999776,210192.59999999776,,210192.3999999985,,210204.668,8,400,,,
sequence,flow.Sequence,4_12,2023-09-11T17:47:03.598Z,,0,,,3055.227999997762,completion,,,,,false,,,,210192.8999999985,210192.59999999776,207120.706,207130.19999999925,207137.372,210204.668,8,400,,,
trial,html.Screen,4_13_0,2023-09-11T17:47:06.914Z,,0,1,,3303.9319999977597,response,ISIC_3617159.JPG,8,ISIC_5908780.JPG,ISIC_3617159.JPG,false,1,keypress(m),500,213509,213508.59999999776,210188.002,210193,210204.668,213521.202,8,400,14,,ISIC_5908780.JPG
break,html.Screen,4_13_1,2023-09-11T17:47:06.915Z,,0,,,NaN,,,,,,false,,,,213510,213509.8999999985,,213509.30000000075,,213521.202,8,400,,,
break_continue,html.Screen,4_13_2,2023-09-11T17:47:06.916Z,,0,,,NaN,,,,,,false,,,,213510.5,213510.30000000075,,213510.19999999925,,213521.202,8,400,,,
sequence,flow.Sequence,4_13,2023-09-11T17:47:06.916Z,,0,,,3305.63200000074,completion,,,,,false,,,,213510.69999999925,213510.30000000075,210188.002,210193,210204.668,213521.202,8,400,,,
trial,html.Screen,4_14_0,2023-09-11T17:47:10.624Z,,0,1,,3697.4979999992647,response,ISIC_8174881.JPG,7,ISIC_7670817.JPG,ISIC_7670817.JPG,false,0,keypress(z),500,217219.09999999776,217218.69999999925,213504.536,213510.8999999985,213521.202,217221.054,8,400,15,,ISIC_8174881.JPG
break,html.Screen,4_14_1,2023-09-11T17:47:10.625Z,,0,,,NaN,,,,,,false,,,,217220.30000000075,217220,,217219.3999999985,,217221.054,8,400,,,
break_continue,html.Screen,4_14_2,2023-09-11T17:47:10.626Z,,0,,,NaN,,,,,,false,,,,217220.59999999776,217220.59999999776,,217220.3999999985,,217221.054,8,400,,,
sequence,flow.Sequence,4_14,2023-09-11T17:47:10.626Z,,0,,,3699.3979999977746,completion,,,,,false,,,,217220.8999999985,217220.59999999776,213504.536,213510.80000000075,213521.202,217221.054,8,400,,,
trial,html.Screen,4_15_0,2023-09-11T17:47:14.133Z,,0,1,,3506.2460000007413,response,ISIC_0033202.JPG,8,ISIC_0009642.JPG,ISIC_0009642.JPG,false,0,keypress(z),500,220727.59999999776,220727.30000000075,217204.388,217221,217221.054,220738.221,8,400,16,,ISIC_0033202.JPG
break,html.Screen,4_15_1,2023-09-11T17:47:14.134Z,,0,,,NaN,,,,,,false,,,,220728.8999999985,220728.59999999776,,220728,,220738.221,8,400,,,
break_continue,html.Screen,4_15_2,2023-09-11T17:47:14.134Z,,0,,,NaN,,,,,,false,,,,220729.30000000075,220729.19999999925,,220729,,220738.221,8,400,,,
sequence,flow.Sequence,4_15,2023-09-11T17:47:14.135Z,,0,,,3508.145999999251,completion,,,,,false,,,,220729.3999999985,220729.19999999925,217204.388,217221,217221.054,220738.221,8,400,,,
trial,html.Screen,4_16_0,2023-09-11T17:47:17.424Z,,0,1,,3280.0790000007546,response,ISIC_0026460.JPG,9,ISIC_4372519.JPG,ISIC_4372519.JPG,false,0,keypress(z),500,224018.80000000075,224018.30000000075,220721.555,220729.59999999776,220738.221,224021.423,8,400,17,,ISIC_0026460.JPG
break,html.Screen,4_16_1,2023-09-11T17:47:17.425Z,,0,,,NaN,,,,,,false,,,,224019.8999999985,224019.59999999776,,224019.09999999776,,224021.423,8,400,,,
break_continue,html.Screen,4_16_2,2023-09-11T17:47:17.425Z,,0,,,NaN,,,,,,false,,,,224020.19999999925,224020.09999999776,,224020,,224021.423,8,400,,,
sequence,flow.Sequence,4_16,2023-09-11T17:47:17.426Z,,0,,,3281.8789999977744,completion,,,,,false,,,,224020.3999999985,224020.09999999776,220721.555,220729.59999999776,220738.221,224021.423,8,400,,,
trial,html.Screen,4_17_0,2023-09-11T17:47:21.205Z,,0,1,,3777.9769999985,response,ISIC_2521424.JPG,7,ISIC_0004564.JPG,ISIC_2521424.JPG,false,1,keypress(m),500,227799.80000000075,227799.3999999985,224004.757,224020.59999999776,224021.423,227804.605,8,400,18,,ISIC_0004564.JPG
break,html.Screen,4_17_1,2023-09-11T17:47:21.206Z,,0,,,NaN,,,,,,false,,,,227801,227800.80000000075,,227800.09999999776,,227804.605,8,400,,,
break_continue,html.Screen,4_17_2,2023-09-11T17:47:21.206Z,,0,,,NaN,,,,,,false,,,,227801.3999999985,227801.30000000075,,227801.09999999776,,227804.605,8,400,,,
sequence,flow.Sequence,4_17,2023-09-11T17:47:21.207Z,,0,,,3779.8770000007353,completion,,,,,false,,,,227801.5,227801.30000000075,224004.757,224020.59999999776,224021.423,227804.605,8,400,,,
trial,html.Screen,4_18_0,2023-09-11T17:47:25.405Z,,0,1,,4194.294999998499,response,ISIC_1226440.JPG,8,ISIC_3060145.JPG,ISIC_1226440.JPG,false,1,keypress(m),500,231999.3999999985,231998.8999999985,227787.939,227801.80000000075,227804.605,232005.253,8,400,19,,ISIC_3060145.JPG
break,html.Screen,4_18_1,2023-09-11T17:47:25.406Z,,0,,,NaN,,,,,,false,,,,232000.59999999776,232000.3999999985,,231999.80000000075,,232005.253,8,400,,,
break_continue,html.Screen,4_18_2,2023-09-11T17:47:25.406Z,,0,,,NaN,,,,,,false,,,,232001,232000.80000000075,,232000.80000000075,,232005.253,8,400,,,
sequence,flow.Sequence,4_18,2023-09-11T17:47:25.406Z,,0,,,4196.195000000735,completion,,,,,false,,,,232001.19999999925,232000.80000000075,227787.939,227801.59999999776,227804.605,232005.253,8,400,,,
trial,html.Screen,4_19_0,2023-09-11T17:47:29.556Z,,0,1,,4144.747000000003,response,ISIC_0533930.JPG,8,ISIC_5920470.JPG,ISIC_5920470.JPG,false,0,keypress(z),500,236150.3999999985,236150,231988.587,232001.3999999985,232005.253,236155.087,8,400,20,,ISIC_0533930.JPG
break,html.Screen,4_19_1,2023-09-11T17:47:29.557Z,,0,,,NaN,,,,,,false,,,,236151.59999999776,236151.5,,236150.80000000075,,236155.087,8,400,,,
break_continue,html.Screen,4_19_2,2023-09-11T17:47:29.557Z,,0,,,NaN,,,,,,false,,,,236151.8999999985,236151.8999999985,,236151.80000000075,,236155.087,8,400,,,
sequence,flow.Sequence,4_19,2023-09-11T17:47:29.557Z,,0,,,4146.646999998513,completion,,,,,false,,,,236152.19999999925,236151.8999999985,231988.587,232001.30000000075,232005.253,236155.087,8,400,,,
trial,html.Screen,4_20_0,2023-09-11T17:47:32.831Z,,0,1,,3269.8129999985103,response,ISIC_0013517.JPG,5,ISIC_7161002.JPG,ISIC_0013517.JPG,false,1,keypress(m),500,239425.3999999985,239424.8999999985,236138.421,236152.30000000075,236155.087,239439.002,8,400,21,,ISIC_7161002.JPG
break,html.Screen,4_20_1,2023-09-11T17:47:32.832Z,,0,,,NaN,,,,,,false,,,,239426.59999999776,239426.30000000075,,239425.69999999925,,239439.002,8,400,,,
break_continue,html.Screen,4_20_2,2023-09-11T17:47:32.832Z,,0,,,NaN,,,,,,false,,,,239426.8999999985,239426.80000000075,,239426.59999999776,,239439.002,8,400,,,
sequence,flow.Sequence,4_20,2023-09-11T17:47:32.832Z,,0,,,3271.7130000007455,completion,,,,,false,,,,239427.09999999776,239426.80000000075,236138.421,236152.19999999925,236155.087,239439.002,8,400,,,
trial,html.Screen,4_21_0,2023-09-11T17:47:36.230Z,,0,1,,3385.097999997757,response,ISIC_0014434.JPG,6,ISIC_2457024.JPG,ISIC_0014434.JPG,false,1,keypress(m),500,242824.59999999776,242824.09999999776,239422.336,239427.30000000075,239439.002,242838.866,8,400,22,,ISIC_2457024.JPG
break,html.Screen,4_21_1,2023-09-11T17:47:36.231Z,,0,,,NaN,,,,,,false,,,,242825.69999999925,242825.5,,242824.80000000075,,242838.866,8,400,,,
break_continue,html.Screen,4_21_2,2023-09-11T17:47:36.231Z,,0,,,NaN,,,,,,false,,,,242826,242826,,242825.8999999985,,242838.866,8,400,,,
sequence,flow.Sequence,4_21,2023-09-11T17:47:36.231Z,,0,,,3386.9979999999923,completion,,,,,false,,,,242826.19999999925,242826,239422.336,239427.19999999925,239439.002,242838.866,8,400,,,
trial,html.Screen,4_22_0,2023-09-11T17:47:39.867Z,,0,1,,3622.533999998501,response,ISIC_0033025.JPG,9,ISIC_4024062.JPG,ISIC_4024062.JPG,false,0,keypress(z),500,246461.80000000075,246461.3999999985,242822.2,242826.3999999985,242838.866,246472.054,8,400,23,,ISIC_0033025.JPG
break,html.Screen,4_22_1,2023-09-11T17:47:39.868Z,,0,,,NaN,,,,,,false,,,,246462.8999999985,246462.80000000075,,246462.09999999776,,246472.054,8,400,,,
break_continue,html.Screen,4_22_2,2023-09-11T17:47:39.868Z,,0,,,NaN,,,,,,false,,,,246463.19999999925,246463.09999999776,,246463,,246472.054,8,400,,,
sequence,flow.Sequence,4_22,2023-09-11T17:47:39.868Z,,0,,,3624.2339999977557,completion,,,,,false,,,,246463.30000000075,246463.09999999776,242822.2,242826.3999999985,242838.866,246472.054,8,400,,,
trial,html.Screen,4_23_0,2023-09-11T17:47:43.136Z,,0,1,,3258.045999997761,response,ISIC_5504560.JPG,6,ISIC_4527661.JPG,ISIC_4527661.JPG,false,0,keypress(z),500,249730.59999999776,249730.09999999776,246455.388,246463.3999999985,246472.054,249739.317,8,400,24,,ISIC_5504560.JPG
break,html.Screen,4_23_1,2023-09-11T17:47:43.137Z,,0,,,NaN,,,,,,false,,,,249731.69999999925,249731.59999999776,,249730.8999999985,,249739.317,8,400,,,
break_continue,html.Screen,4_23_2,2023-09-11T17:47:43.137Z,,0,,,NaN,,,,,,false,,,,249732.09999999776,249732,,249731.8999999985,,249739.317,8,400,,,
sequence,flow.Sequence,4_23,2023-09-11T17:47:43.137Z,,0,,,3259.9459999999963,completion,,,,,false,,,,249732.30000000075,249732,246455.388,246463.3999999985,246472.054,249739.317,8,400,,,
trial,html.Screen,4_24_0,2023-09-11T17:47:46.886Z,,0,1,,3741.5829999985,response,ISIC_0010837.JPG,8,ISIC_0014707.JPG,ISIC_0010837.JPG,false,1,keypress(m),500,253481.3999999985,253480.8999999985,249722.651,249732.5,249739.317,253489.167,8,400,25,,ISIC_0014707.JPG
break,html.Screen,4_24_1,2023-09-11T17:47:46.888Z,,0,,,NaN,,,,,,false,,,,253482.59999999776,253482.30000000075,,253481.69999999925,,253489.167,8,400,,,
break_continue,html.Screen,4_24_2,2023-09-11T17:47:46.888Z,,0,,,NaN,,,,,,false,,,,253482.8999999985,253482.80000000075,,253482.69999999925,,253489.167,8,400,,,
sequence,flow.Sequence,4_24,2023-09-11T17:47:46.888Z,,0,,,3743.483000000735,completion,,,,,false,,,,253483,253482.80000000075,249722.651,249732.3999999985,249739.317,253489.167,8,400,,,
trial,html.Screen,4_25_0,2023-09-11T17:47:50.238Z,,0,1,,3343.232999998523,response,ISIC_5439597.JPG,9,ISIC_4363603.JPG,ISIC_5439597.JPG,false,1,keypress(m),500,256832.80000000075,256832.3999999985,253472.501,253483.30000000075,253489.167,256839.033,8,400,26,,ISIC_4363603.JPG
break,html.Screen,4_25_1,2023-09-11T17:47:50.239Z,,0,,,NaN,,,,,,false,,,,256833.8999999985,256833.69999999925,,256833,,256839.033,8,400,,,
break_continue,html.Screen,4_25_2,2023-09-11T17:47:50.239Z,,0,,,NaN,,,,,,false,,,,256834.3999999985,256834.30000000075,,256834.09999999776,,256839.033,8,400,,,
sequence,flow.Sequence,4_25,2023-09-11T17:47:50.240Z,,0,,,3345.1330000007583,completion,,,,,false,,,,256834.5,256834.30000000075,253472.501,253483.09999999776,253489.167,256839.033,8,400,,,
trial,html.Screen,4_26_0,2023-09-11T17:47:53.892Z,,0,1,,3647.066999997769,response,ISIC_1091626.JPG,8,ISIC_0054925.JPG,ISIC_1091626.JPG,false,1,keypress(m),500,260486.3999999985,260486.09999999776,256822.367,256834.69999999925,256839.033,260489.53,8,400,27,,ISIC_0054925.JPG
break,html.Screen,4_26_1,2023-09-11T17:47:53.893Z,,0,,,NaN,,,,,,false,,,,260487.5,260487.3999999985,,260486.69999999925,,260489.53,8,400,,,
break_continue,html.Screen,4_26_2,2023-09-11T17:47:53.893Z,,0,,,NaN,,,,,,false,,,,260487.8999999985,260487.80000000075,,260487.69999999925,,260489.53,8,400,,,
sequence,flow.Sequence,4_26,2023-09-11T17:47:53.893Z,,0,,,3648.7670000007492,completion,,,,,false,,,,260488.09999999776,260487.80000000075,256822.367,256834.69999999925,256839.033,260489.53,8,400,,,
trial,html.Screen,4_27_0,2023-09-11T17:47:57.642Z,,0,1,,3746.470000000001,response,ISIC_4796100.JPG,6,ISIC_1508215.JPG,ISIC_1508215.JPG,false,0,keypress(z),500,264236.5,264236,260472.864,260488.19999999925,260489.53,264239.38,8,400,28,,ISIC_4796100.JPG
break,html.Screen,4_27_1,2023-09-11T17:47:57.643Z,,0,,,NaN,,,,,,false,,,,264237.69999999925,264237.5,,264236.80000000075,,264239.38,8,400,,,
break_continue,html.Screen,4_27_2,2023-09-11T17:47:57.643Z,,0,,,NaN,,,,,,false,,,,264238.09999999776,264238,,264237.8999999985,,264239.38,8,400,,,
sequence,flow.Sequence,4_27,2023-09-11T17:47:57.643Z,,0,,,3748.470000000001,completion,,,,,false,,,,264238.30000000075,264238,260472.864,260488.19999999925,260489.53,264239.38,8,400,,,
trial,html.Screen,4_28_0,2023-09-11T17:48:03.608Z,,0,1,,5962.92000000074,response,ISIC_0000313.JPG,8,ISIC_2822718.JPG,ISIC_0000313.JPG,false,1,keypress(m),500,270202.80000000075,270202.30000000075,264222.714,264238.3999999985,264239.38,270206.389,8,400,29,,ISIC_2822718.JPG
break,html.Screen,4_28_1,2023-09-11T17:48:03.609Z,,0,,,NaN,,,,,,false,,,,270203.80000000075,270203.69999999925,,270203,,270206.389,8,400,,,
break_continue,html.Screen,4_28_2,2023-09-11T17:48:03.609Z,,0,,,NaN,,,,,,false,,,,270204.19999999925,270204.09999999776,,270204,,270206.389,8,400,,,
sequence,flow.Sequence,4_28,2023-09-11T17:48:03.610Z,,0,,,5964.71999999776,completion,,,,,false,,,,270204.5,270204.09999999776,264222.714,264238.3999999985,264239.38,270206.389,8,400,,,
trial,html.Screen,4_29_0,2023-09-11T17:48:07.341Z,,0,1,,3728.9110000007204,response,ISIC_0002675.JPG,8,ISIC_0004996.JPG,ISIC_0004996.JPG,false,0,keypress(z),500,273935.80000000075,273935.30000000075,270189.723,270204.59999999776,270206.389,273939.573,8,400,30,,ISIC_0002675.JPG
break,html.Screen,4_29_1,2023-09-11T17:48:07.342Z,,0,,,NaN,,,,,,false,,,,273936.8999999985,273936.69999999925,,273936.09999999776,,273939.573,8,400,,,
break_continue,html.Screen,4_29_2,2023-09-11T17:48:07.342Z,,0,,,NaN,,,,,,false,,,,273937.30000000075,273937.09999999776,,273937,,273939.573,8,400,,,
sequence,flow.Sequence,4_29,2023-09-11T17:48:07.343Z,,0,,,3730.71099999774,completion,,,,,false,,,,273937.5,273937.09999999776,270189.723,270204.59999999776,270206.389,273939.573,8,400,,,
trial,html.Screen,4_30_0,2023-09-11T17:48:11.684Z,,0,1,,4338.826999998535,response,ISIC_0014173.JPG,9,ISIC_0027436.JPG,ISIC_0027436.JPG,false,0,keypress(z),500,278278.8999999985,278278.3999999985,273922.907,273937.69999999925,273939.573,278289.399,8,400,31,,ISIC_0014173.JPG
break,html.Screen,4_30_1,2023-09-11T17:48:11.685Z,,0,,,NaN,,,,,,false,,,,278280,278279.80000000075,,278279.19999999925,,278289.399,8,400,,,
break_continue,html.Screen,4_30_2,2023-09-11T17:48:11.685Z,,0,,,NaN,,,,,,false,,,,278280.3999999985,278280.19999999925,,278280.09999999776,,278289.399,8,400,,,
sequence,flow.Sequence,4_30,2023-09-11T17:48:11.686Z,,0,,,4340.62699999928,completion,,,,,false,,,,278280.59999999776,278280.19999999925,273922.907,273937.59999999776,273939.573,278289.399,8,400,,,
trial,html.Screen,4_31_0,2023-09-11T17:48:16.896Z,,0,1,,5200.700999997789,response,ISIC_0011370.JPG,8,ISIC_9072309.JPG,ISIC_9072309.JPG,false,0,keypress(z),500,283490.59999999776,283490.09999999776,278272.733,278280.69999999925,278289.399,283506.788,8,400,32,,ISIC_0011370.JPG
break,html.Screen,4_31_1,2023-09-11T17:48:16.897Z,,0,,,NaN,,,,,,false,,,,283491.8999999985,283491.59999999776,,283490.80000000075,,283506.788,8,400,,,
break_continue,html.Screen,4_31_2,2023-09-11T17:48:16.897Z,,0,,,NaN,,,,,,false,,,,283492.19999999925,283492.09999999776,,283492,,283506.788,8,400,,,
sequence,flow.Sequence,4_31,2023-09-11T17:48:16.897Z,,0,,,5202.700999997789,completion,,,,,false,,,,283492.3999999985,283492.09999999776,278272.733,278280.59999999776,278289.399,283506.788,8,400,,,
trial,html.Screen,4_32_0,2023-09-11T17:48:20.438Z,,0,1,,3526.0120000007446,response,ISIC_4153542.JPG,9,ISIC_0011904.JPG,ISIC_4153542.JPG,false,1,keypress(m),500,287033.19999999925,287032.80000000075,283490.122,283492.5,283506.788,287039.98,8,400,33,,ISIC_0011904.JPG
break,html.Screen,4_32_1,2023-09-11T17:48:20.439Z,,0,,,NaN,,,,,,false,,,,287034.30000000075,287034.19999999925,,287033.5,,287039.98,8,400,,,
break_continue,html.Screen,4_32_2,2023-09-11T17:48:20.440Z,,0,,,NaN,,,,,,false,,,,287034.69999999925,287034.5,,287034.5,,287039.98,8,400,,,
sequence,flow.Sequence,4_32,2023-09-11T17:48:20.440Z,,0,,,3527.7119999999995,completion,,,,,false,,,,287034.8999999985,287034.5,283490.122,283492.5,283506.788,287039.98,8,400,,,
trial,html.Screen,4_33_0,2023-09-11T17:48:23.277Z,,0,1,,2831.3200000007637,response,ISIC_0029944.JPG,8,ISIC_5330187.JPG,ISIC_0029944.JPG,false,1,keypress(m),500,289871.8999999985,289871.30000000075,287023.314,287035.09999999776,287039.98,289873.2,8,400,34,,ISIC_5330187.JPG
break,html.Screen,4_33_1,2023-09-11T17:48:23.278Z,,0,,,NaN,,,,,,false,,,,289872.8999999985,289872.69999999925,,289872.09999999776,,289873.2,8,400,,,
break_continue,html.Screen,4_33_2,2023-09-11T17:48:23.278Z,,0,,,NaN,,,,,,false,,,,289873.19999999925,289873.09999999776,,289873.09999999776,,289873.2,8,400,,,
sequence,flow.Sequence,4_33,2023-09-11T17:48:23.279Z,,0,,,2833.1199999977835,completion,,,,,false,,,,289873.3999999985,289873.09999999776,287023.314,287034.8999999985,287039.98,289873.2,8,400,,,
trial,html.Screen,4_34_0,2023-09-11T17:48:26.179Z,,0,1,,2900.1999999984982,response,ISIC_0055388.JPG,9,ISIC_0053734.JPG,ISIC_0055388.JPG,false,1,keypress(m),500,292773.80000000075,292773.3999999985,289856.534,289873.59999999776,289873.2,292790.424,8,400,35,,ISIC_0053734.JPG
break,html.Screen,4_34_1,2023-09-11T17:48:26.180Z,,0,,,NaN,,,,,,false,,,,292774.8999999985,292774.80000000075,,292774.09999999776,,292790.424,8,400,,,
break_continue,html.Screen,4_34_2,2023-09-11T17:48:26.180Z,,0,,,NaN,,,,,,false,,,,292775.3999999985,292775.19999999925,,292775.09999999776,,292790.424,8,400,,,
sequence,flow.Sequence,4_34,2023-09-11T17:48:26.181Z,,0,,,2901.9999999992433,completion,,,,,false,,,,292775.5,292775.19999999925,289856.534,289873.59999999776,289873.2,292790.424,8,400,,,
trial,html.Screen,4_35_0,2023-09-11T17:48:28.927Z,,0,1,,2731.275999999256,response,ISIC_0034087.JPG,7,ISIC_0059686.JPG,ISIC_0034087.JPG,false,1,keypress(m),500,295522.19999999925,295521.69999999925,292773.758,292775.69999999925,292790.424,295523.648,8,400,36,,ISIC_0059686.JPG
break,html.Screen,4_35_1,2023-09-11T17:48:28.928Z,,0,,,NaN,,,,,,false,,,,295523.19999999925,295523,,295522.3999999985,,295523.648,8,400,,,
break_continue,html.Screen,4_35_2,2023-09-11T17:48:28.929Z,,0,,,NaN,,,,,,false,,,,295523.69999999925,295523.59999999776,,295523.3999999985,,295523.648,8,400,,,
sequence,flow.Sequence,4_35,2023-09-11T17:48:28.929Z,,0,,,2733.1759999977658,completion,,,,,false,,,,295523.80000000075,295523.59999999776,292773.758,292775.59999999776,292790.424,295523.648,8,400,,,
trial,html.Screen,4_36_0,2023-09-11T17:48:33.878Z,,0,1,,4948.8520000000135,response,ISIC_7134821.JPG,4,ISIC_6210962.JPG,ISIC_6210962.JPG,false,0,keypress(z),500,300473,300472.5,295506.982,295524,295523.648,300474.196,8,400,37,,ISIC_7134821.JPG
break,html.Screen,4_36_1,2023-09-11T17:48:33.879Z,,0,,,NaN,,,,,,false,,,,300474.09999999776,300474,,300473.19999999925,,300474.196,8,400,,,
break_continue,html.Screen,4_36_2,2023-09-11T17:48:33.880Z,,0,,,NaN,,,,,,false,,,,300474.5,300474.3999999985,,300474.19999999925,,300474.196,8,400,,,
sequence,flow.Sequence,4_36,2023-09-11T17:48:33.880Z,,0,,,4950.751999998523,completion,,,,,false,,,,300474.69999999925,300474.3999999985,295506.982,295524,295523.648,300474.196,8,400,,,
trial,html.Screen,4_37_0,2023-09-11T17:48:36.743Z,,0,1,,2863.104000000749,response,ISIC_2349994.JPG,4,ISIC_0024686.JPG,ISIC_2349994.JPG,false,1,keypress(m),500,303337.80000000075,303337.30000000075,300457.53,300474.8999999985,300474.196,303340.748,8,400,38,,ISIC_0024686.JPG
break,html.Screen,4_37_1,2023-09-11T17:48:36.744Z,,0,,,NaN,,,,,,false,,,,303338.8999999985,303338.69999999925,,303338.09999999776,,303340.748,8,400,,,
break_continue,html.Screen,4_37_2,2023-09-11T17:48:36.744Z,,0,,,NaN,,,,,,false,,,,303339.30000000075,303339.09999999776,,303339,,303340.748,8,400,,,
sequence,flow.Sequence,4_37,2023-09-11T17:48:36.745Z,,0,,,2864.9039999977686,completion,,,,,false,,,,303339.5,303339.09999999776,300457.53,300474.80000000075,300474.196,303340.748,8,400,,,
trial,html.Screen,4_38_0,2023-09-11T17:48:40.732Z,,0,1,,3985.7519999999786,response,ISIC_9439034.JPG,6,ISIC_8960223.JPG,ISIC_8960223.JPG,false,0,keypress(z),500,307327.09999999776,307326.5,303324.082,303339.69999999925,303340.748,307340.588,8,400,39,,ISIC_9439034.JPG
break,html.Screen,4_38_1,2023-09-11T17:48:40.733Z,,0,,,NaN,,,,,,false,,,,307328.19999999925,307328,,307327.3999999985,,307340.588,8,400,,,
break_continue,html.Screen,4_38_2,2023-09-11T17:48:40.734Z,,0,,,NaN,,,,,,false,,,,307328.59999999776,307328.5,,307328.30000000075,,307340.588,8,400,,,
sequence,flow.Sequence,4_38,2023-09-11T17:48:40.734Z,,0,,,3987.7519999999786,completion,,,,,false,,,,307328.80000000075,307328.5,303324.082,303339.59999999776,303340.748,307340.588,8,400,,,
trial,html.Screen,4_39_0,2023-09-11T17:48:45.184Z,,0,1,,4438.111999999266,response,ISIC_0028071.JPG,5,ISIC_5628615.JPG,ISIC_5628615.JPG,false,0,keypress(z),500,311779.19999999925,311778.69999999925,307323.922,307328.8999999985,307340.588,311791.08,8,400,40,,ISIC_0028071.JPG
break,html.Screen,4_39_1,2023-09-11T17:48:45.185Z,,0,,,NaN,,,,,,false,,,,311780.3999999985,311780.09999999776,,311779.59999999776,,311791.08,8,400,,,
break_continue,html.Screen,4_39_2,2023-09-11T17:48:45.186Z,,0,,,NaN,,,,,,false,,,,311780.80000000075,311780.69999999925,,311780.5,,311791.08,8,400,,,
sequence,flow.Sequence,4_39,2023-09-11T17:48:45.186Z,,0,,,4440.111999999266,completion,,,,,false,,,,311781,311780.69999999925,307323.922,307328.8999999985,307340.588,311791.08,8,400,,,
trial,html.Screen,4_40_0,2023-09-11T17:48:48.905Z,,0,1,,3708.2200000007288,response,ISIC_4646815.JPG,7,ISIC_5920470.JPG,ISIC_5920470.JPG,false,0,keypress(z),500,315499.69999999925,315499.30000000075,311774.414,311781.09999999776,311791.08,315507.598,8,400,41,,ISIC_4646815.JPG
break,html.Screen,4_40_1,2023-09-11T17:48:48.906Z,,0,,,NaN,,,,,,false,,,,315500.69999999925,315500.59999999776,,315499.8999999985,,315507.598,8,400,,,
break_continue,html.Screen,4_40_2,2023-09-11T17:48:48.906Z,,0,,,NaN,,,,,,false,,,,315501.09999999776,315501,,315500.8999999985,,315507.598,8,400,,,
sequence,flow.Sequence,4_40,2023-09-11T17:48:48.906Z,,0,,,3709.9199999999837,completion,,,,,false,,,,315501.30000000075,315501,311774.414,311781.09999999776,311791.08,315507.598,8,400,,,
trial,html.Screen,4_41_0,2023-09-11T17:48:52.400Z,,0,1,,3486.902000000002,response,ISIC_0029182.JPG,8,ISIC_0025397.JPG,ISIC_0029182.JPG,false,1,keypress(m),500,318995.09999999776,318994.5,315490.932,315501.5,315507.598,319007.458,8,400,42,,ISIC_0025397.JPG
break,html.Screen,4_41_1,2023-09-11T17:48:52.401Z,,0,,,NaN,,,,,,false,,,,318996.09999999776,318995.8999999985,,318995.30000000075,,319007.458,8,400,,,
break_continue,html.Screen,4_41_2,2023-09-11T17:48:52.402Z,,0,,,NaN,,,,,,false,,,,318996.5,318996.3999999985,,318996.30000000075,,319007.458,8,400,,,
sequence,flow.Sequence,4_41,2023-09-11T17:48:52.402Z,,0,,,3488.8019999985117,completion,,,,,false,,,,318996.69999999925,318996.3999999985,315490.932,315501.5,315507.598,319007.458,8,400,,,
trial,html.Screen,4_42_0,2023-09-11T17:48:57.200Z,,0,1,,4787.441999998526,response,ISIC_0031338.JPG,7,ISIC_2377039.JPG,ISIC_2377039.JPG,false,0,keypress(z),500,323795.09999999776,323794.8999999985,318990.792,318996.80000000075,319007.458,323808.029,8,400,43,,ISIC_0031338.JPG
break,html.Screen,4_42_1,2023-09-11T17:48:57.201Z,,0,,,NaN,,,,,,false,,,,323795.69999999925,323795.59999999776,,323795.19999999925,,323808.029,8,400,,,
break_continue,html.Screen,4_42_2,2023-09-11T17:48:57.201Z,,0,,,NaN,,,,,,false,,,,323795.80000000075,323795.80000000075,,323795.80000000075,,323808.029,8,400,,,
sequence,flow.Sequence,4_42,2023-09-11T17:48:57.201Z,,0,,,4788.342000000761,completion,,,,,false,,,,323796,323795.80000000075,318990.792,318996.80000000075,319007.458,323808.029,8,400,,,
trial,html.Screen,4_43_0,2023-09-11T17:49:01.110Z,,0,1,,3896.6709999992745,response,ISIC_0003150.JPG,9,ISIC_0025500.JPG,ISIC_0003150.JPG,false,1,keypress(m),500,327705.19999999925,327704.69999999925,323791.363,323796,323808.029,327707.873,8,400,44,,ISIC_0025500.JPG
break,html.Screen,4_43_1,2023-09-11T17:49:01.111Z,,0,,,NaN,,,,,,false,,,,327706.3999999985,327706.09999999776,,327705.5,,327707.873,8,400,,,
break_continue,html.Screen,4_43_2,2023-09-11T17:49:01.112Z,,0,,,NaN,,,,,,false,,,,327706.80000000075,327706.59999999776,,327706.5,,327707.873,8,400,,,
sequence,flow.Sequence,4_43,2023-09-11T17:49:01.112Z,,0,,,3898.5709999977844,completion,,,,,false,,,,327706.8999999985,327706.59999999776,323791.363,323796,323808.029,327707.873,8,400,,,
trial,html.Screen,4_44_0,2023-09-11T17:49:03.900Z,,0,1,,2786.3269999992335,response,ISIC_8082460.JPG,8,ISIC_0056339.JPG,ISIC_8082460.JPG,false,1,keypress(m),500,330494.69999999925,330494.19999999925,327691.207,327707.09999999776,327707.873,330507.761,8,400,45,,ISIC_0056339.JPG
break,html.Screen,4_44_1,2023-09-11T17:49:03.901Z,,0,,,NaN,,,,,,false,,,,330495.8999999985,330495.69999999925,,330495,,330507.761,8,400,,,
break_continue,html.Screen,4_44_2,2023-09-11T17:49:03.901Z,,0,,,NaN,,,,,,false,,,,330496.30000000075,330496.19999999925,,330496,,330507.761,8,400,,,
sequence,flow.Sequence,4_44,2023-09-11T17:49:03.902Z,,0,,,2788.3269999992335,completion,,,,,false,,,,330496.5,330496.19999999925,327691.207,327707,327707.873,330507.761,8,400,,,
trial,html.Screen,4_45_0,2023-09-11T17:49:11.249Z,,0,1,,7335.638999998511,response,ISIC_0069411.JPG,8,ISIC_5867911.JPG,ISIC_0069411.JPG,false,1,keypress(m),500,337843.80000000075,337843.3999999985,330491.095,330496.59999999776,330507.761,337858.188,8,400,46,,ISIC_5867911.JPG
break,html.Screen,4_45_1,2023-09-11T17:49:11.250Z,,0,,,NaN,,,,,,false,,,,337844.8999999985,337844.69999999925,,337844.09999999776,,337858.188,8,400,,,
break_continue,html.Screen,4_45_2,2023-09-11T17:49:11.250Z,,0,,,NaN,,,,,,false,,,,337845.30000000075,337845.19999999925,,337845,,337858.188,8,400,,,
sequence,flow.Sequence,4_45,2023-09-11T17:49:11.251Z,,0,,,7337.438999999256,completion,,,,,false,,,,337845.5,337845.19999999925,330491.095,330496.59999999776,330507.761,337858.188,8,400,,,
trial,html.Screen,4_46_0,2023-09-11T17:49:14.696Z,,0,1,,3432.1120000007213,response,ISIC_2910705.JPG,9,ISIC_9865097.JPG,ISIC_2910705.JPG,false,1,keypress(m),500,341290.59999999776,341290.30000000075,337841.522,337845.59999999776,337858.188,341292.009,8,400,47,,ISIC_9865097.JPG
break,html.Screen,4_46_1,2023-09-11T17:49:14.697Z,,0,,,NaN,,,,,,false,,,,341291.80000000075,341291.5,,341290.80000000075,,341292.009,8,400,,,
break_continue,html.Screen,4_46_2,2023-09-11T17:49:14.697Z,,0,,,NaN,,,,,,false,,,,341292.09999999776,341292,,341291.8999999985,,341292.009,8,400,,,
sequence,flow.Sequence,4_46,2023-09-11T17:49:14.697Z,,0,,,3433.8119999999763,completion,,,,,false,,,,341292.30000000075,341292,337841.522,337845.5,337858.188,341292.009,8,400,,,
trial,html.Screen,4_47_0,2023-09-11T17:49:17.568Z,,0,1,,2869.89099999849,response,ISIC_9047184.JPG,8,ISIC_4164882.JPG,ISIC_9047184.JPG,false,1,keypress(m),500,344162.59999999776,344161.8999999985,341275.343,341292.3999999985,341292.009,344175.227,8,400,48,,ISIC_4164882.JPG
break,html.Screen,4_47_1,2023-09-11T17:49:17.569Z,,0,,,NaN,,,,,,false,,,,344163.69999999925,344163.5,,344162.8999999985,,344175.227,8,400,,,
break_continue,html.Screen,4_47_2,2023-09-11T17:49:17.569Z,,0,,,NaN,,,,,,false,,,,344164.09999999776,344164,,344163.8999999985,,344175.227,8,400,,,
sequence,flow.Sequence,4_47,2023-09-11T17:49:17.569Z,,0,,,2871.99099999998,completion,,,,,false,,,,344164.30000000075,344164,341275.343,341292.3999999985,341292.009,344175.227,8,400,,,
trial,html.Screen,4_48_0,2023-09-11T17:49:21.319Z,,0,1,,3738.4729999992414,response,ISIC_3166535.JPG,8,ISIC_0066492.JPG,ISIC_0066492.JPG,false,0,keypress(z),500,347914.09999999776,347913.69999999925,344158.561,344164.3999999985,344175.227,347925.077,8,400,49,,ISIC_3166535.JPG
break,html.Screen,4_48_1,2023-09-11T17:49:21.320Z,,0,,,NaN,,,,,,false,,,,347915.19999999925,347915,,347914.3999999985,,347925.077,8,400,,,
break_continue,html.Screen,4_48_2,2023-09-11T17:49:21.321Z,,0,,,NaN,,,,,,false,,,,347915.59999999776,347915.5,,347915.30000000075,,347925.077,8,400,,,
sequence,flow.Sequence,4_48,2023-09-11T17:49:21.321Z,,0,,,3740.2729999999865,completion,,,,,false,,,,347915.69999999925,347915.5,344158.561,344164.30000000075,344175.227,347925.077,8,400,,,
trial,html.Screen,4_49_0,2023-09-11T17:49:25.132Z,,0,1,,3801.1229999992647,response,ISIC_9472725.JPG,8,ISIC_0033021.JPG,ISIC_9472725.JPG,false,1,keypress(m),500,351726.69999999925,351726.19999999925,347908.411,347915.8999999985,347925.077,351742.3,8,400,50,,ISIC_0033021.JPG
break,html.Screen,4_49_1,2023-09-11T17:49:35.136Z,,0,,,10000.30600000004,timeout,,,,,false,,,,361730.59999999776,361725.94,351725.634,351727,351742.3,361742.606,8,400,,,
break_continue,html.Screen,4_49_2,2023-09-11T17:50:00.366Z,,0,,,25207.694000000716,response,,,,,false,continue,keypress(Space),,386961.09999999776,386950.30000000075,361725.94,361730.80000000075,361742.606,386974.93,8,400,,,
sequence,flow.Sequence,4_49,2023-09-11T17:50:00.366Z,,0,,,39025.223000000755,completion,,,,,false,,,,386961.19999999925,386950.30000000075,347908.411,347915.8999999985,347925.077,386974.93,8,400,,,
trial,html.Screen,4_50_0,2023-09-11T17:50:05.874Z,,0,2,,5493.570000000007,response,ISIC_0010478.JPG,8,ISIC_0071196.JPG,ISIC_0010478.JPG,false,1,keypress(m),500,392468.8999999985,392468.5,386958.264,386961.30000000075,386974.93,392476.648,8,400,1,,ISIC_0071196.JPG
break,html.Screen,4_50_1,2023-09-11T17:50:05.875Z,,0,,,NaN,,,,,,false,,,,392470.09999999776,392469.80000000075,,392469.19999999925,,392476.648,8,400,,,
break_continue,html.Screen,4_50_2,2023-09-11T17:50:05.876Z,,0,,,NaN,,,,,,false,,,,392470.3999999985,392470.30000000075,,392470.19999999925,,392476.648,8,400,,,
sequence,flow.Sequence,4_50,2023-09-11T17:50:05.876Z,,0,,,5495.370000000752,completion,,,,,false,,,,392470.69999999925,392470.30000000075,386958.264,386961.30000000075,386974.93,392476.648,8,400,,,
trial,html.Screen,4_51_0,2023-09-11T17:50:09.622Z,,0,2,,3740.2519999985234,response,ISIC_6228963.JPG,6,ISIC_7266604.JPG,ISIC_7266604.JPG,false,0,keypress(z),500,396217.30000000075,396216.8999999985,392459.982,392470.80000000075,392476.648,396226.498,8,400,2,,ISIC_6228963.JPG
break,html.Screen,4_51_1,2023-09-11T17:50:09.624Z,,0,,,NaN,,,,,,false,,,,396218.59999999776,396218.30000000075,,396217.59999999776,,396226.498,8,400,,,
break_continue,html.Screen,4_51_2,2023-09-11T17:50:09.624Z,,0,,,NaN,,,,,,false,,,,396218.8999999985,396218.8999999985,,396218.69999999925,,396226.498,8,400,,,
sequence,flow.Sequence,4_51,2023-09-11T17:50:09.624Z,,0,,,3742.2519999985234,completion,,,,,false,,,,396219.09999999776,396218.8999999985,392459.982,392470.69999999925,392476.648,396226.498,8,400,,,
trial,html.Screen,4_52_0,2023-09-11T17:50:12.776Z,,0,2,,3143.9019999984885,response,ISIC_1398618.JPG,8,ISIC_5406677.JPG,ISIC_1398618.JPG,false,1,keypress(m),500,399370.8999999985,399370.3999999985,396209.832,396219.30000000075,396226.498,399377.069,8,400,3,,ISIC_5406677.JPG
break,html.Screen,4_52_1,2023-09-11T17:50:12.777Z,,0,,,NaN,,,,,,false,,,,399371.8999999985,399371.80000000075,,399371.19999999925,,399377.069,8,400,,,
break_continue,html.Screen,4_52_2,2023-09-11T17:50:12.777Z,,0,,,NaN,,,,,,false,,,,399372.3999999985,399372.19999999925,,399372.19999999925,,399377.069,8,400,,,
sequence,flow.Sequence,4_52,2023-09-11T17:50:12.778Z,,0,,,3145.7019999992335,completion,,,,,false,,,,399372.59999999776,399372.19999999925,396209.832,396219.30000000075,396226.498,399377.069,8,400,,,
trial,html.Screen,4_53_0,2023-09-11T17:50:16.175Z,,0,2,,3391.9309999999823,response,ISIC_8194371.JPG,8,ISIC_7365615.JPG,ISIC_7365615.JPG,false,0,keypress(z),500,402769.5,402769,399360.403,399372.80000000075,399377.069,402776.933,8,400,4,,ISIC_8194371.JPG
break,html.Screen,4_53_1,2023-09-11T17:50:16.176Z,,0,,,NaN,,,,,,false,,,,402770.69999999925,402770.5,,402769.80000000075,,402776.933,8,400,,,
break_continue,html.Screen,4_53_2,2023-09-11T17:50:16.176Z,,0,,,NaN,,,,,,false,,,,402771,402770.8999999985,,402770.80000000075,,402776.933,8,400,,,
sequence,flow.Sequence,4_53,2023-09-11T17:50:16.176Z,,0,,,3393.830999998492,completion,,,,,false,,,,402771.19999999925,402770.8999999985,399360.403,399372.80000000075,399377.069,402776.933,8,400,,,
trial,html.Screen,4_54_0,2023-09-11T17:50:19.059Z,,0,2,,2876.766999999236,response,ISIC_7630831.JPG,8,ISIC_0029686.JPG,ISIC_7630831.JPG,false,1,keypress(m),500,405654.19999999925,405653.69999999925,402760.267,402771.30000000075,402776.933,405660.151,8,400,5,,ISIC_0029686.JPG
break,html.Screen,4_54_1,2023-09-11T17:50:19.060Z,,0,,,NaN,,,,,,false,,,,405655.30000000075,405655.09999999776,,405654.3999999985,,405660.151,8,400,,,
break_continue,html.Screen,4_54_2,2023-09-11T17:50:19.061Z,,0,,,NaN,,,,,,false,,,,405655.69999999925,405655.5,,405655.3999999985,,405660.151,8,400,,,
sequence,flow.Sequence,4_54,2023-09-11T17:50:19.061Z,,0,,,2878.566999999981,completion,,,,,false,,,,405655.80000000075,405655.5,402760.267,402771.30000000075,402776.933,405660.151,8,400,,,
trial,html.Screen,4_55_0,2023-09-11T17:50:21.768Z,,0,2,,2702.1490000007325,response,ISIC_5519357.JPG,8,ISIC_0032988.JPG,ISIC_5519357.JPG,false,1,keypress(m),500,408362.80000000075,408362.30000000075,405643.485,405656,405660.151,408377.435,8,400,6,,ISIC_0032988.JPG
break,html.Screen,4_55_1,2023-09-11T17:50:21.769Z,,0,,,NaN,,,,,,false,,,,408363.8999999985,408363.69999999925,,408363,,408377.435,8,400,,,
break_continue,html.Screen,4_55_2,2023-09-11T17:50:21.769Z,,0,,,NaN,,,,,,false,,,,408364.30000000075,408364.09999999776,,408364,,408377.435,8,400,,,
sequence,flow.Sequence,4_55,2023-09-11T17:50:21.770Z,,0,,,2703.9489999977523,completion,,,,,false,,,,408364.5,408364.09999999776,405643.485,405655.8999999985,405660.151,408377.435,8,400,,,
trial,html.Screen,4_56_0,2023-09-11T17:50:24.760Z,,0,2,,2976.8650000007474,response,ISIC_5602826.JPG,8,ISIC_7801289.JPG,ISIC_7801289.JPG,false,0,keypress(z),500,411354.80000000075,411354.30000000075,408360.769,408364.59999999776,408377.435,411360.649,8,400,7,,ISIC_5602826.JPG
break,html.Screen,4_56_1,2023-09-11T17:50:24.761Z,,0,,,NaN,,,,,,false,,,,411355.8999999985,411355.69999999925,,411355,,411360.649,8,400,,,
break_continue,html.Screen,4_56_2,2023-09-11T17:50:24.761Z,,0,,,NaN,,,,,,false,,,,411356.30000000075,411356.09999999776,,411356,,411360.649,8,400,,,
sequence,flow.Sequence,4_56,2023-09-11T17:50:24.762Z,,0,,,2978.664999997767,completion,,,,,false,,,,411356.3999999985,411356.09999999776,408360.769,408364.59999999776,408377.435,411360.649,8,400,,,
trial,html.Screen,4_57_0,2023-09-11T17:50:27.360Z,,0,2,,2593.351000000024,response,ISIC_5647697.JPG,7,ISIC_0030828.JPG,ISIC_5647697.JPG,false,1,keypress(m),500,413954.5,413954,411343.983,411356.59999999776,411360.649,413960.545,8,400,8,,ISIC_0030828.JPG
break,html.Screen,4_57_1,2023-09-11T17:50:27.361Z,,0,,,NaN,,,,,,false,,,,413955.59999999776,413955.3999999985,,413954.80000000075,,413960.545,8,400,,,
break_continue,html.Screen,4_57_2,2023-09-11T17:50:27.361Z,,0,,,NaN,,,,,,false,,,,413956,413955.8999999985,,413955.69999999925,,413960.545,8,400,,,
sequence,flow.Sequence,4_57,2023-09-11T17:50:27.361Z,,0,,,2595.250999998534,completion,,,,,false,,,,413956.19999999925,413955.8999999985,411343.983,411356.59999999776,411360.649,413960.545,8,400,,,
trial,html.Screen,4_58_0,2023-09-11T17:50:29.975Z,,0,2,,2608.9550000000163,response,ISIC_8911683.JPG,7,ISIC_0031397.JPG,ISIC_8911683.JPG,false,1,keypress(m),500,416570,416569.5,413943.879,413956.30000000075,413960.545,416577.107,8,400,9,,ISIC_0031397.JPG
break,html.Screen,4_58_1,2023-09-11T17:50:29.976Z,,0,,,NaN,,,,,,false,,,,416571.19999999925,416571,,416570.30000000075,,416577.107,8,400,,,
break_continue,html.Screen,4_58_2,2023-09-11T17:50:29.977Z,,0,,,NaN,,,,,,false,,,,416571.59999999776,416571.5,,416571.30000000075,,416577.107,8,400,,,
sequence,flow.Sequence,4_58,2023-09-11T17:50:29.977Z,,0,,,2610.9550000000163,completion,,,,,false,,,,416571.80000000075,416571.5,413943.879,413956.30000000075,413960.545,416577.107,8,400,,,
trial,html.Screen,4_59_0,2023-09-11T17:50:32.894Z,,0,2,,2911.592999999237,response,ISIC_0028019.JPG,8,ISIC_1453899.JPG,ISIC_1453899.JPG,false,0,keypress(z),500,419489.09999999776,419488.69999999925,416560.441,416571.8999999985,416577.107,419494.426,8,400,10,,ISIC_0028019.JPG
break,html.Screen,4_59_1,2023-09-11T17:50:32.895Z,,0,,,NaN,,,,,,false,,,,419490.19999999925,419490,,419489.3999999985,,419494.426,8,400,,,
break_continue,html.Screen,4_59_2,2023-09-11T17:50:32.896Z,,0,,,NaN,,,,,,false,,,,419490.59999999776,419490.5,,419490.3999999985,,419494.426,8,400,,,
sequence,flow.Sequence,4_59,2023-09-11T17:50:32.896Z,,0,,,2913.392999999982,completion,,,,,false,,,,419490.8999999985,419490.5,416560.441,416571.80000000075,416577.107,419494.426,8,400,,,
trial,html.Screen,4_60_0,2023-09-11T17:50:35.476Z,,0,2,,2576.3740000007674,response,ISIC_9049170.JPG,7,ISIC_0897526.JPG,ISIC_0897526.JPG,false,0,keypress(z),500,422071.30000000075,422070.80000000075,419477.76,419491,419494.426,422077.656,8,400,11,,ISIC_9049170.JPG
break,html.Screen,4_60_1,2023-09-11T17:50:35.478Z,,0,,,NaN,,,,,,false,,,,422072.3999999985,422072.19999999925,,422071.59999999776,,422077.656,8,400,,,
break_continue,html.Screen,4_60_2,2023-09-11T17:50:35.478Z,,0,,,NaN,,,,,,false,,,,422072.80000000075,422072.69999999925,,422072.5,,422077.656,8,400,,,
sequence,flow.Sequence,4_60,2023-09-11T17:50:35.478Z,,0,,,2578.2739999992773,completion,,,,,false,,,,422073,422072.69999999925,419477.76,419490.8999999985,419494.426,422077.656,8,400,,,
trial,html.Screen,4_61_0,2023-09-11T17:50:38.844Z,,0,2,,3360.644000000728,response,ISIC_7844825.JPG,8,ISIC_3072311.JPG,ISIC_3072311.JPG,false,0,keypress(z),500,425438.80000000075,425438.30000000075,422060.99,422073.19999999925,422077.656,425444.188,8,400,12,,ISIC_7844825.JPG
break,html.Screen,4_61_1,2023-09-11T17:50:38.845Z,,0,,,NaN,,,,,,false,,,,425439.8999999985,425439.69999999925,,425439,,425444.188,8,400,,,
break_continue,html.Screen,4_61_2,2023-09-11T17:50:38.845Z,,0,,,NaN,,,,,,false,,,,425440.30000000075,425440.19999999925,,425440,,425444.188,8,400,,,
sequence,flow.Sequence,4_61,2023-09-11T17:50:38.846Z,,0,,,3362.5439999992377,completion,,,,,false,,,,425440.5,425440.19999999925,422060.99,422073.09999999776,422077.656,425444.188,8,400,,,
trial,html.Screen,4_62_0,2023-09-11T17:50:41.960Z,,0,2,,3110.1120000007213,response,ISIC_5284935.JPG,8,ISIC_1251639.JPG,ISIC_5284935.JPG,false,1,keypress(m),500,428554.80000000075,428554.30000000075,425427.522,425440.59999999776,425444.188,428560.73,8,400,13,,ISIC_1251639.JPG
break,html.Screen,4_62_1,2023-09-11T17:50:41.961Z,,0,,,NaN,,,,,,false,,,,428556,428555.80000000075,,428555.09999999776,,428560.73,8,400,,,
break_continue,html.Screen,4_62_2,2023-09-11T17:50:41.961Z,,0,,,NaN,,,,,,false,,,,428556.30000000075,428556.19999999925,,428556.09999999776,,428560.73,8,400,,,
sequence,flow.Sequence,4_62,2023-09-11T17:50:41.962Z,,0,,,3112.011999999231,completion,,,,,false,,,,428556.59999999776,428556.19999999925,425427.522,425440.5,425444.188,428560.73,8,400,,,
trial,html.Screen,4_63_0,2023-09-11T17:50:46.829Z,,0,2,,4862.869999997783,response,ISIC_8822331.JPG,7,ISIC_0024507.JPG,ISIC_0024507.JPG,false,0,keypress(z),500,433424.09999999776,433423.59999999776,428544.064,428556.69999999925,428560.73,433427.903,8,400,14,,ISIC_8822331.JPG
break,html.Screen,4_63_1,2023-09-11T17:50:46.830Z,,0,,,NaN,,,,,,false,,,,433425.19999999925,433425,,433424.30000000075,,433427.903,8,400,,,
break_continue,html.Screen,4_63_2,2023-09-11T17:50:46.831Z,,0,,,NaN,,,,,,false,,,,433425.59999999776,433425.3999999985,,433425.30000000075,,433427.903,8,400,,,
sequence,flow.Sequence,4_63,2023-09-11T17:50:46.831Z,,0,,,4864.6699999985285,completion,,,,,false,,,,433425.80000000075,433425.3999999985,428544.064,428556.69999999925,428560.73,433427.903,8,400,,,
trial,html.Screen,4_64_0,2023-09-11T17:50:50.052Z,,0,2,,3218.9969999985187,response,ISIC_1543544.JPG,5,ISIC_6793830.JPG,ISIC_6793830.JPG,false,0,keypress(z),500,436647.30000000075,436646.8999999985,433411.237,433425.8999999985,433427.903,436661.107,8,400,15,,ISIC_1543544.JPG
break,html.Screen,4_64_1,2023-09-11T17:50:50.054Z,,0,,,NaN,,,,,,false,,,,436648.5,436648.19999999925,,436647.59999999776,,436661.107,8,400,,,
break_continue,html.Screen,4_64_2,2023-09-11T17:50:50.054Z,,0,,,NaN,,,,,,false,,,,436648.8999999985,436648.69999999925,,436648.59999999776,,436661.107,8,400,,,
sequence,flow.Sequence,4_64,2023-09-11T17:50:50.054Z,,0,,,3220.796999999264,completion,,,,,false,,,,436649,436648.69999999925,433411.237,433425.8999999985,433427.903,436661.107,8,400,,,
trial,html.Screen,4_65_0,2023-09-11T17:50:53.033Z,,0,2,,2966.392999999982,response,ISIC_3096949.JPG,5,ISIC_0033368.JPG,ISIC_3096949.JPG,false,1,keypress(m),500,439627.8999999985,439627.5,436644.441,436649.19999999925,436661.107,439645.1,8,400,16,,ISIC_0033368.JPG
break,html.Screen,4_65_1,2023-09-11T17:50:53.034Z,,0,,,NaN,,,,,,false,,,,439629.09999999776,439628.8999999985,,439628.30000000075,,439645.1,8,400,,,
break_continue,html.Screen,4_65_2,2023-09-11T17:50:53.035Z,,0,,,NaN,,,,,,false,,,,439629.5,439629.3999999985,,439629.30000000075,,439645.1,8,400,,,
sequence,flow.Sequence,4_65,2023-09-11T17:50:53.035Z,,0,,,2968.2929999984917,completion,,,,,false,,,,439629.69999999925,439629.3999999985,436644.441,436649.19999999925,436661.107,439645.1,8,400,,,
trial,html.Screen,4_66_0,2023-09-11T17:50:56.009Z,,0,2,,2958.2000000007683,response,ISIC_0012025.JPG,7,ISIC_0000450.JPG,ISIC_0000450.JPG,false,0,keypress(z),500,442603.80000000075,442603.30000000075,439628.434,439629.8999999985,439645.1,442611.648,8,400,17,,ISIC_0012025.JPG
break,html.Screen,4_66_1,2023-09-11T17:50:56.010Z,,0,,,NaN,,,,,,false,,,,442604.8999999985,442604.80000000075,,442604,,442611.648,8,400,,,
break_continue,html.Screen,4_66_2,2023-09-11T17:50:56.010Z,,0,,,NaN,,,,,,false,,,,442605.30000000075,442605.19999999925,,442605,,442611.648,8,400,,,
sequence,flow.Sequence,4_66,2023-09-11T17:50:56.011Z,,0,,,2960.099999999278,completion,,,,,false,,,,442605.5,442605.19999999925,439628.434,439629.80000000075,439645.1,442611.648,8,400,,,
trial,html.Screen,4_67_0,2023-09-11T17:50:59.056Z,,0,2,,3039.1520000007586,response,ISIC_0065582.JPG,9,ISIC_0010468.JPG,ISIC_0010468.JPG,false,0,keypress(z),500,445651.30000000075,445650.80000000075,442594.982,442605.59999999776,442611.648,445661.526,8,400,18,,ISIC_0065582.JPG
break,html.Screen,4_67_1,2023-09-11T17:50:59.058Z,,0,,,NaN,,,,,,false,,,,445652.5,445652.30000000075,,445651.69999999925,,445661.526,8,400,,,
break_continue,html.Screen,4_67_2,2023-09-11T17:50:59.058Z,,0,,,NaN,,,,,,false,,,,445652.80000000075,445652.69999999925,,445652.59999999776,,445661.526,8,400,,,
sequence,flow.Sequence,4_67,2023-09-11T17:50:59.058Z,,0,,,3041.0519999992684,completion,,,,,false,,,,445653,445652.69999999925,442594.982,442605.59999999776,442611.648,445661.526,8,400,,,
trial,html.Screen,4_68_0,2023-09-11T17:51:02.165Z,,0,2,,3098.1739999992424,response,ISIC_0028135.JPG,8,ISIC_0010098.JPG,ISIC_0028135.JPG,false,1,keypress(m),500,448760.19999999925,448759.69999999925,445644.86,445653.19999999925,445661.526,448761.402,8,400,19,,ISIC_0010098.JPG
break,html.Screen,4_68_1,2023-09-11T17:51:02.166Z,,0,,,NaN,,,,,,false,,,,448761.19999999925,448761.09999999776,,448760.3999999985,,448761.402,8,400,,,
break_continue,html.Screen,4_68_2,2023-09-11T17:51:02.167Z,,0,,,NaN,,,,,,false,,,,448761.69999999925,448761.5,,448761.3999999985,,448761.402,8,400,,,
sequence,flow.Sequence,4_68,2023-09-11T17:51:02.167Z,,0,,,3099.9739999999874,completion,,,,,false,,,,448761.8999999985,448761.5,445644.86,445653.09999999776,445661.526,448761.402,8,400,,,
trial,html.Screen,4_69_0,2023-09-11T17:51:04.812Z,,0,2,,2644.898000000743,response,ISIC_1784613.JPG,8,ISIC_0027541.JPG,ISIC_1784613.JPG,false,1,keypress(m),500,451406.80000000075,451406.30000000075,448744.736,448762,448761.402,451411.976,8,400,20,,ISIC_0027541.JPG
break,html.Screen,4_69_1,2023-09-11T17:51:04.813Z,,0,,,NaN,,,,,,false,,,,451407.8999999985,451407.69999999925,,451407.09999999776,,451411.976,8,400,,,
break_continue,html.Screen,4_69_2,2023-09-11T17:51:04.813Z,,0,,,NaN,,,,,,false,,,,451408.30000000075,451408.19999999925,,451408,,451411.976,8,400,,,
sequence,flow.Sequence,4_69,2023-09-11T17:51:04.814Z,,0,,,2646.797999999253,completion,,,,,false,,,,451408.5,451408.19999999925,448744.736,448761.8999999985,448761.402,451411.976,8,400,,,
trial,html.Screen,4_70_0,2023-09-11T17:51:08.224Z,,0,2,,3406.7239999992307,response,ISIC_0072101.JPG,7,ISIC_6616542.JPG,ISIC_0072101.JPG,false,1,keypress(m),500,454819.09999999776,454818.69999999925,451395.31,451408.59999999776,451411.976,454828.506,8,400,21,,ISIC_6616542.JPG
break,html.Screen,4_70_1,2023-09-11T17:51:08.225Z,,0,,,NaN,,,,,,false,,,,454820.19999999925,454820.09999999776,,454819.5,,454828.506,8,400,,,
break_continue,html.Screen,4_70_2,2023-09-11T17:51:08.226Z,,0,,,NaN,,,,,,false,,,,454820.59999999776,454820.3999999985,,454820.30000000075,,454828.506,8,400,,,
sequence,flow.Sequence,4_70,2023-09-11T17:51:08.226Z,,0,,,3408.4239999984857,completion,,,,,false,,,,454820.69999999925,454820.3999999985,451395.31,451408.59999999776,451411.976,454828.506,8,400,,,
trial,html.Screen,4_71_0,2023-09-11T17:51:11.015Z,,0,2,,2780.593999997771,response,ISIC_8755163.JPG,8,ISIC_9000234.JPG,ISIC_8755163.JPG,false,1,keypress(m),500,457609.5,457609.09999999776,454811.84,454820.80000000075,454828.506,457611.728,8,400,22,,ISIC_9000234.JPG
break,html.Screen,4_71_1,2023-09-11T17:51:11.016Z,,0,,,NaN,,,,,,false,,,,457610.59999999776,457610.5,,457609.8999999985,,457611.728,8,400,,,
break_continue,html.Screen,4_71_2,2023-09-11T17:51:11.016Z,,0,,,NaN,,,,,,false,,,,457611,457610.8999999985,,457610.80000000075,,457611.728,8,400,,,
sequence,flow.Sequence,4_71,2023-09-11T17:51:11.016Z,,0,,,2782.393999998516,completion,,,,,false,,,,457611.19999999925,457610.8999999985,454811.84,454820.80000000075,454828.506,457611.728,8,400,,,
trial,html.Screen,4_72_0,2023-09-11T17:51:14.204Z,,0,2,,3186.971999999252,response,ISIC_0067564.JPG,8,ISIC_0068381.JPG,ISIC_0067564.JPG,false,1,keypress(m),500,460799.19999999925,460798.69999999925,457595.062,457611.30000000075,457611.728,460812.411,8,400,23,,ISIC_0068381.JPG
break,html.Screen,4_72_1,2023-09-11T17:51:14.205Z,,0,,,NaN,,,,,,false,,,,460800.30000000075,460800.19999999925,,460799.5,,460812.411,8,400,,,
break_continue,html.Screen,4_72_2,2023-09-11T17:51:14.206Z,,0,,,NaN,,,,,,false,,,,460800.69999999925,460800.59999999776,,460800.5,,460812.411,8,400,,,
sequence,flow.Sequence,4_72,2023-09-11T17:51:14.206Z,,0,,,3188.871999997762,completion,,,,,false,,,,460800.8999999985,460800.59999999776,457595.062,457611.30000000075,457611.728,460812.411,8,400,,,
trial,html.Screen,4_73_0,2023-09-11T17:51:17.266Z,,0,2,,3047.889000000723,response,ISIC_2279679.JPG,9,ISIC_0054599.JPG,ISIC_2279679.JPG,false,1,keypress(m),500,463860.8999999985,463860.30000000075,460795.745,460801,460812.411,463862.289,8,400,24,,ISIC_0054599.JPG
break,html.Screen,4_73_1,2023-09-11T17:51:17.267Z,,0,,,NaN,,,,,,false,,,,463862,463861.80000000075,,463861.09999999776,,463862.289,8,400,,,
break_continue,html.Screen,4_73_2,2023-09-11T17:51:17.267Z,,0,,,NaN,,,,,,false,,,,463862.3999999985,463862.19999999925,,463862.09999999776,,463862.289,8,400,,,
sequence,flow.Sequence,4_73,2023-09-11T17:51:17.268Z,,0,,,3049.788999999233,completion,,,,,false,,,,463862.5,463862.19999999925,460795.745,460801,460812.411,463862.289,8,400,,,
trial,html.Screen,4_74_0,2023-09-11T17:51:20.217Z,,0,2,,2949.410999999265,response,ISIC_0057374.JPG,8,ISIC_0054523.JPG,ISIC_0054523.JPG,false,0,keypress(z),500,466812.19999999925,466811.69999999925,463845.623,463862.59999999776,463862.289,466828.837,8,400,25,,ISIC_0057374.JPG
break,html.Screen,4_74_1,2023-09-11T17:51:20.218Z,,0,,,NaN,,,,,,false,,,,466813.30000000075,466813.09999999776,,466812.5,,466828.837,8,400,,,
break_continue,html.Screen,4_74_2,2023-09-11T17:51:20.219Z,,0,,,NaN,,,,,,false,,,,466813.59999999776,466813.59999999776,,466813.3999999985,,466828.837,8,400,,,
sequence,flow.Sequence,4_74,2023-09-11T17:51:20.219Z,,0,,,2951.310999997775,completion,,,,,false,,,,466813.8999999985,466813.59999999776,463845.623,463862.59999999776,463862.289,466828.837,8,400,,,
trial,html.Screen,4_75_0,2023-09-11T17:51:23.390Z,,0,2,,3155.9630000007455,response,ISIC_4407580.JPG,9,ISIC_0028230.JPG,ISIC_4407580.JPG,false,1,keypress(m),500,469985.19999999925,469984.80000000075,466812.171,466814.09999999776,466828.837,469995.377,8,400,26,,ISIC_0028230.JPG
break,html.Screen,4_75_1,2023-09-11T17:51:23.391Z,,0,,,NaN,,,,,,false,,,,469986.3999999985,469986.09999999776,,469985.5,,469995.377,8,400,,,
break_continue,html.Screen,4_75_2,2023-09-11T17:51:23.392Z,,0,,,NaN,,,,,,false,,,,469986.69999999925,469986.59999999776,,469986.3999999985,,469995.377,8,400,,,
sequence,flow.Sequence,4_75,2023-09-11T17:51:23.392Z,,0,,,3157.7629999977653,completion,,,,,false,,,,469986.8999999985,469986.59999999776,466812.171,466813.8999999985,466828.837,469995.377,8,400,,,
trial,html.Screen,4_76_0,2023-09-11T17:51:28.321Z,,0,2,,4919.623000000021,response,ISIC_0062740.JPG,7,ISIC_0030171.JPG,ISIC_0030171.JPG,false,0,keypress(z),500,474915.3999999985,474915,469978.711,469987.09999999776,469995.377,474929.195,8,400,27,,ISIC_0062740.JPG
break,html.Screen,4_76_1,2023-09-11T17:51:28.322Z,,0,,,NaN,,,,,,false,,,,474916.59999999776,474916.3999999985,,474915.69999999925,,474929.195,8,400,,,
break_continue,html.Screen,4_76_2,2023-09-11T17:51:28.322Z,,0,,,NaN,,,,,,false,,,,474916.8999999985,474916.80000000075,,474916.69999999925,,474929.195,8,400,,,
sequence,flow.Sequence,4_76,2023-09-11T17:51:28.322Z,,0,,,4921.4230000007665,completion,,,,,false,,,,474917.09999999776,474916.80000000075,469978.711,469987,469995.377,474929.195,8,400,,,
trial,html.Screen,4_77_0,2023-09-11T17:51:31.888Z,,0,2,,3553.105000000738,response,ISIC_0055675.JPG,8,ISIC_0024951.JPG,ISIC_0055675.JPG,false,1,keypress(m),500,478482.69999999925,478482.30000000075,474912.529,474917.30000000075,474929.195,478495.719,8,400,28,,ISIC_0024951.JPG
break,html.Screen,4_77_1,2023-09-11T17:51:31.889Z,,0,,,NaN,,,,,,false,,,,478483.8999999985,478483.59999999776,,478483,,478495.719,8,400,,,
break_continue,html.Screen,4_77_2,2023-09-11T17:51:31.889Z,,0,,,NaN,,,,,,false,,,,478484.19999999925,478484.09999999776,,478484,,478495.719,8,400,,,
sequence,flow.Sequence,4_77,2023-09-11T17:51:31.889Z,,0,,,3554.904999997758,completion,,,,,false,,,,478484.3999999985,478484.09999999776,474912.529,474917.19999999925,474929.195,478495.719,8,400,,,
trial,html.Screen,4_78_0,2023-09-11T17:51:34.900Z,,0,2,,2999.0810000007623,response,ISIC_0068413.JPG,7,ISIC_0056316.JPG,ISIC_0056316.JPG,false,0,keypress(z),500,481495.19999999925,481494.80000000075,478479.053,478484.5,478495.719,481496.373,8,400,29,,ISIC_0068413.JPG
break,html.Screen,4_78_1,2023-09-11T17:51:34.902Z,,0,,,NaN,,,,,,false,,,,481496.3999999985,481496.09999999776,,481495.5,,481496.373,8,400,,,
break_continue,html.Screen,4_78_2,2023-09-11T17:51:34.902Z,,0,,,NaN,,,,,,false,,,,481496.80000000075,481496.59999999776,,481496.59999999776,,481496.373,8,400,,,
sequence,flow.Sequence,4_78,2023-09-11T17:51:34.902Z,,0,,,3000.880999997782,completion,,,,,false,,,,481496.8999999985,481496.59999999776,478479.053,478484.5,478495.719,481496.373,8,400,,,
trial,html.Screen,4_79_0,2023-09-11T17:51:38.812Z,,0,2,,3909.9270000007236,response,ISIC_0011496.JPG,7,ISIC_0057420.JPG,ISIC_0011496.JPG,false,1,keypress(m),500,485406.80000000075,485406.30000000075,481479.707,481497.09999999776,481496.373,485412.883,8,400,30,,ISIC_0057420.JPG
break,html.Screen,4_79_1,2023-09-11T17:51:38.813Z,,0,,,NaN,,,,,,false,,,,485407.8999999985,485407.80000000075,,485407.09999999776,,485412.883,8,400,,,
break_continue,html.Screen,4_79_2,2023-09-11T17:51:38.813Z,,0,,,NaN,,,,,,false,,,,485408.30000000075,485408.19999999925,,485408,,485412.883,8,400,,,
sequence,flow.Sequence,4_79,2023-09-11T17:51:38.814Z,,0,,,3911.8269999992335,completion,,,,,false,,,,485408.5,485408.19999999925,481479.707,481497.09999999776,481496.373,485412.883,8,400,,,
trial,html.Screen,4_80_0,2023-09-11T17:51:42.198Z,,0,2,,3380.2169999977923,response,ISIC_5010212.JPG,7,ISIC_6017985.JPG,ISIC_6017985.JPG,false,0,keypress(z),500,488793.30000000075,488793.09999999776,485396.217,485408.59999999776,485412.883,488796.081,8,400,31,,ISIC_5010212.JPG
break,html.Screen,4_80_1,2023-09-11T17:51:42.199Z,,0,,,NaN,,,,,,false,,,,488793.8999999985,488793.80000000075,,488793.3999999985,,488796.081,8,400,,,
break_continue,html.Screen,4_80_2,2023-09-11T17:51:42.199Z,,0,,,NaN,,,,,,false,,,,488794.09999999776,488794.09999999776,,488794,,488796.081,8,400,,,
sequence,flow.Sequence,4_80,2023-09-11T17:51:42.199Z,,0,,,3381.2169999977923,completion,,,,,false,,,,488794.19999999925,488794.09999999776,485396.217,485408.5,485412.883,488796.081,8,400,,,
trial,html.Screen,4_81_0,2023-09-11T17:51:45.164Z,,0,2,,2962.2190000007395,response,ISIC_1477990.JPG,7,ISIC_0204355.JPG,ISIC_1477990.JPG,false,1,keypress(m),500,491758.80000000075,491758.30000000075,488779.415,488794.30000000075,488796.081,491763.285,8,400,32,,ISIC_0204355.JPG
break,html.Screen,4_81_1,2023-09-11T17:51:45.165Z,,0,,,NaN,,,,,,false,,,,491759.8999999985,491759.69999999925,,491759,,491763.285,8,400,,,
break_continue,html.Screen,4_81_2,2023-09-11T17:51:45.165Z,,0,,,NaN,,,,,,false,,,,491760.19999999925,491760.19999999925,,491760,,491763.285,8,400,,,
sequence,flow.Sequence,4_81,2023-09-11T17:51:45.166Z,,0,,,2964.1189999992494,completion,,,,,false,,,,491760.3999999985,491760.19999999925,488779.415,488794.30000000075,488796.081,491763.285,8,400,,,
trial,html.Screen,4_82_0,2023-09-11T17:51:48.531Z,,0,2,,3361.8149999977904,response,ISIC_8197240.JPG,8,ISIC_7365889.JPG,ISIC_7365889.JPG,false,0,keypress(z),500,495125.59999999776,495125.09999999776,491746.619,491760.69999999925,491763.285,495129.817,8,400,33,,ISIC_8197240.JPG
break,html.Screen,4_82_1,2023-09-11T17:51:48.532Z,,0,,,NaN,,,,,,false,,,,495126.80000000075,495126.5,,495125.80000000075,,495129.817,8,400,,,
break_continue,html.Screen,4_82_2,2023-09-11T17:51:48.532Z,,0,,,NaN,,,,,,false,,,,495127.09999999776,495127,,495126.8999999985,,495129.817,8,400,,,
sequence,flow.Sequence,4_82,2023-09-11T17:51:48.532Z,,0,,,3363.7150000000256,completion,,,,,false,,,,495127.30000000075,495127,491746.619,491760.5,491763.285,495129.817,8,400,,,
trial,html.Screen,4_83_0,2023-09-11T17:51:51.414Z,,0,2,,2878.983000000764,response,ISIC_0448195.JPG,8,ISIC_0069167.JPG,ISIC_0448195.JPG,false,1,keypress(m),500,498009.30000000075,498008.80000000075,495113.151,495127.5,495129.817,498013.035,8,400,34,,ISIC_0069167.JPG
break,html.Screen,4_83_1,2023-09-11T17:51:51.416Z,,0,,,NaN,,,,,,false,,,,498010.5,498010.30000000075,,498009.59999999776,,498013.035,8,400,,,
break_continue,html.Screen,4_83_2,2023-09-11T17:51:51.416Z,,0,,,NaN,,,,,,false,,,,498010.80000000075,498010.69999999925,,498010.59999999776,,498013.035,8,400,,,
sequence,flow.Sequence,4_83,2023-09-11T17:51:51.416Z,,0,,,2880.882999999274,completion,,,,,false,,,,498011,498010.69999999925,495113.151,495127.3999999985,495129.817,498013.035,8,400,,,
trial,html.Screen,4_84_0,2023-09-11T17:51:55.087Z,,0,2,,3668.3649999985355,response,ISIC_0024574.JPG,6,ISIC_0006730.JPG,ISIC_0006730.JPG,false,0,keypress(z),500,501681.8999999985,501681.3999999985,497996.369,498011.19999999925,498013.035,501696.987,8,400,35,,ISIC_0024574.JPG
break,html.Screen,4_84_1,2023-09-11T17:51:55.088Z,,0,,,NaN,,,,,,false,,,,501683,501682.80000000075,,501682.19999999925,,501696.987,8,400,,,
break_continue,html.Screen,4_84_2,2023-09-11T17:51:55.088Z,,0,,,NaN,,,,,,false,,,,501683.3999999985,501683.30000000075,,501683.09999999776,,501696.987,8,400,,,
sequence,flow.Sequence,4_84,2023-09-11T17:51:55.089Z,,0,,,3670.2650000007707,completion,,,,,false,,,,501683.5,501683.30000000075,497996.369,498011.19999999925,498013.035,501696.987,8,400,,,
trial,html.Screen,4_85_0,2023-09-11T17:51:58.102Z,,0,2,,2999.912999998487,response,ISIC_1945381.JPG,8,ISIC_0064534.JPG,ISIC_1945381.JPG,false,1,keypress(m),500,504697.30000000075,504696.8999999985,501680.321,501683.80000000075,501696.987,504713.533,8,400,36,,ISIC_0064534.JPG
break,html.Screen,4_85_1,2023-09-11T17:51:58.104Z,,0,,,NaN,,,,,,false,,,,504698.3999999985,504698.19999999925,,504697.59999999776,,504713.533,8,400,,,
break_continue,html.Screen,4_85_2,2023-09-11T17:51:58.104Z,,0,,,NaN,,,,,,false,,,,504698.80000000075,504698.69999999925,,504698.59999999776,,504713.533,8,400,,,
sequence,flow.Sequence,4_85,2023-09-11T17:51:58.104Z,,0,,,3001.712999999232,completion,,,,,false,,,,504698.8999999985,504698.69999999925,501680.321,501683.59999999776,501696.987,504713.533,8,400,,,
trial,html.Screen,4_86_0,2023-09-11T17:52:01.323Z,,0,2,,3203.467000000004,response,ISIC_0060297.JPG,6,ISIC_2559074.JPG,ISIC_2559074.JPG,false,0,keypress(z),500,507917.5,507917,504696.867,504699.19999999925,504713.533,507930.071,8,400,37,,ISIC_0060297.JPG
break,html.Screen,4_86_1,2023-09-11T17:52:01.324Z,,0,,,NaN,,,,,,false,,,,507918.59999999776,507918.30000000075,,507917.80000000075,,507930.071,8,400,,,
break_continue,html.Screen,4_86_2,2023-09-11T17:52:01.324Z,,0,,,NaN,,,,,,false,,,,507918.8999999985,507918.80000000075,,507918.69999999925,,507930.071,8,400,,,
sequence,flow.Sequence,4_86,2023-09-11T17:52:01.324Z,,0,,,3205.2670000007492,completion,,,,,false,,,,507919.09999999776,507918.80000000075,504696.867,504699,504713.533,507930.071,8,400,,,
trial,html.Screen,4_87_0,2023-09-11T17:52:04.928Z,,0,2,,3592.729000000749,response,ISIC_9696502.JPG,7,ISIC_6964131.JPG,ISIC_9696502.JPG,false,1,keypress(m),500,511523.19999999925,511522.80000000075,507913.405,507919.30000000075,507930.071,511529.927,8,400,38,,ISIC_6964131.JPG
break,html.Screen,4_87_1,2023-09-11T17:52:04.929Z,,0,,,NaN,,,,,,false,,,,511524.3999999985,511524.19999999925,,511523.5,,511529.927,8,400,,,
break_continue,html.Screen,4_87_2,2023-09-11T17:52:04.930Z,,0,,,NaN,,,,,,false,,,,511524.69999999925,511524.59999999776,,511524.5,,511529.927,8,400,,,
sequence,flow.Sequence,4_87,2023-09-11T17:52:04.930Z,,0,,,3594.5289999977686,completion,,,,,false,,,,511524.8999999985,511524.59999999776,507913.405,507919.19999999925,507930.071,511529.927,8,400,,,
trial,html.Screen,4_88_0,2023-09-11T17:52:09.137Z,,0,2,,4201.072999999975,response,ISIC_0000484.JPG,6,ISIC_3064807.JPG,ISIC_3064807.JPG,false,0,keypress(z),500,515731.5,515731,511513.261,511525.09999999776,511529.927,515747.154,8,400,39,,ISIC_0000484.JPG
break,html.Screen,4_88_1,2023-09-11T17:52:09.138Z,,0,,,NaN,,,,,,false,,,,515732.59999999776,515732.3999999985,,515731.69999999925,,515747.154,8,400,,,
break_continue,html.Screen,4_88_2,2023-09-11T17:52:09.138Z,,0,,,NaN,,,,,,false,,,,515732.8999999985,515732.8999999985,,515732.80000000075,,515747.154,8,400,,,
sequence,flow.Sequence,4_88,2023-09-11T17:52:09.138Z,,0,,,4202.972999998485,completion,,,,,false,,,,515733.09999999776,515732.8999999985,511513.261,511525,511529.927,515747.154,8,400,,,
trial,html.Screen,4_89_0,2023-09-11T17:52:11.943Z,,0,2,,2790.7459999985294,response,ISIC_4580926.JPG,8,ISIC_3395488.JPG,ISIC_4580926.JPG,false,1,keypress(m),500,518538.30000000075,518537.8999999985,515730.488,515733.19999999925,515747.154,518547.042,8,400,40,,ISIC_3395488.JPG
break,html.Screen,4_89_1,2023-09-11T17:52:11.944Z,,0,,,NaN,,,,,,false,,,,518539.3999999985,518539.09999999776,,518538.5,,518547.042,8,400,,,
break_continue,html.Screen,4_89_2,2023-09-11T17:52:11.945Z,,0,,,NaN,,,,,,false,,,,518539.80000000075,518539.59999999776,,518539.3999999985,,518547.042,8,400,,,
sequence,flow.Sequence,4_89,2023-09-11T17:52:11.945Z,,0,,,2792.4459999977844,completion,,,,,false,,,,518539.8999999985,518539.59999999776,515730.488,515733.19999999925,515747.154,518547.042,8,400,,,
trial,html.Screen,4_90_0,2023-09-11T17:52:15.228Z,,0,2,,3274.957999999984,response,ISIC_0003068.JPG,7,ISIC_0030820.JPG,ISIC_0003068.JPG,false,1,keypress(m),500,521822.5,521822,518530.376,518540.09999999776,518547.042,521830.244,8,400,41,,ISIC_0030820.JPG
break,html.Screen,4_90_1,2023-09-11T17:52:15.229Z,,0,,,NaN,,,,,,false,,,,521823.69999999925,521823.3999999985,,521822.80000000075,,521830.244,8,400,,,
break_continue,html.Screen,4_90_2,2023-09-11T17:52:15.229Z,,0,,,NaN,,,,,,false,,,,521824.09999999776,521823.8999999985,,521823.80000000075,,521830.244,8,400,,,
sequence,flow.Sequence,4_90,2023-09-11T17:52:15.229Z,,0,,,3276.857999998494,completion,,,,,false,,,,521824.30000000075,521823.8999999985,518530.376,518540,518547.042,521830.244,8,400,,,
trial,html.Screen,4_91_0,2023-09-11T17:52:18.017Z,,0,2,,2781.655999998504,response,ISIC_4958578.JPG,8,ISIC_5614446.JPG,ISIC_4958578.JPG,false,1,keypress(m),500,524612.3000000007,524611.8999999985,521813.578,521824.3999999985,521830.244,524614.154,8,400,42,,ISIC_5614446.JPG
break,html.Screen,4_91_1,2023-09-11T17:52:18.019Z,,0,,,NaN,,,,,,false,,,,524613.3999999985,524613.3000000007,,524612.5999999978,,524614.154,8,400,,,
break_continue,html.Screen,4_91_2,2023-09-11T17:52:18.019Z,,0,,,NaN,,,,,,false,,,,524613.8000000007,524613.6999999993,,524613.5999999978,,524614.154,8,400,,,
sequence,flow.Sequence,4_91,2023-09-11T17:52:18.019Z,,0,,,2783.455999999249,completion,,,,,false,,,,524614,524613.6999999993,521813.578,521824.30000000075,521830.244,524614.154,8,400,,,
trial,html.Screen,4_92_0,2023-09-11T17:52:20.816Z,,0,2,,2795.9459999977844,response,ISIC_0010476.JPG,7,ISIC_5674396.JPG,ISIC_5674396.JPG,false,0,keypress(z),500,527410.5999999978,527410.0999999978,524597.488,524614.1999999993,524614.154,527414.042,8,400,43,,ISIC_0010476.JPG
break,html.Screen,4_92_1,2023-09-11T17:52:20.817Z,,0,,,NaN,,,,,,false,,,,527411.8000000007,527411.5999999978,,527410.8999999985,,527414.042,8,400,,,
break_continue,html.Screen,4_92_2,2023-09-11T17:52:20.817Z,,0,,,NaN,,,,,,false,,,,527412.1999999993,527412.0999999978,,527411.8999999985,,527414.042,8,400,,,
sequence,flow.Sequence,4_92,2023-09-11T17:52:20.817Z,,0,,,2797.9459999977844,completion,,,,,false,,,,527412.3999999985,527412.0999999978,524597.488,524614.0999999978,524614.154,527414.042,8,400,,,
trial,html.Screen,4_93_0,2023-09-11T17:52:23.671Z,,0,2,,2851.758000000729,response,ISIC_8009880.JPG,9,ISIC_0030546.JPG,ISIC_8009880.JPG,false,1,keypress(m),500,530266.3000000007,530265.8000000007,527397.376,527412.5,527414.042,530280.594,8,400,44,,ISIC_0030546.JPG
break,html.Screen,4_93_1,2023-09-11T17:52:23.673Z,,0,,,NaN,,,,,,false,,,,530267.5,530267.3000000007,,530266.5999999978,,530280.594,8,400,,,
break_continue,html.Screen,4_93_2,2023-09-11T17:52:23.673Z,,0,,,NaN,,,,,,false,,,,530267.8999999985,530267.8000000007,,530267.6999999993,,530280.594,8,400,,,
sequence,flow.Sequence,4_93,2023-09-11T17:52:23.673Z,,0,,,2853.758000000729,completion,,,,,false,,,,530268.0999999978,530267.8000000007,527397.376,527412.5,527414.042,530280.594,8,400,,,
trial,html.Screen,4_94_0,2023-09-11T17:52:26.425Z,,0,2,,2738.405999999959,response,ISIC_3300710.JPG,6,ISIC_0604532.JPG,ISIC_0604532.JPG,false,0,keypress(z),500,533019.5,533019,530263.928,530268.1999999993,530280.594,533031.221,8,400,45,,ISIC_3300710.JPG
break,html.Screen,4_94_1,2023-09-11T17:52:26.426Z,,0,,,NaN,,,,,,false,,,,533020.6999999993,533020.5,,533019.8000000007,,533031.221,8,400,,,
break_continue,html.Screen,4_94_2,2023-09-11T17:52:26.426Z,,0,,,NaN,,,,,,false,,,,533021.0999999978,533020.8999999985,,533020.8000000007,,533031.221,8,400,,,
sequence,flow.Sequence,4_94,2023-09-11T17:52:26.426Z,,0,,,2740.305999998469,completion,,,,,false,,,,533021.3000000007,533020.8999999985,530263.928,530268.1999999993,530280.594,533031.221,8,400,,,
trial,html.Screen,4_95_0,2023-09-11T17:52:30.008Z,,0,2,,3570.8789999977453,response,ISIC_9887341.JPG,7,ISIC_0030694.JPG,ISIC_9887341.JPG,false,1,keypress(m),500,536602.5,536602.0999999978,533014.555,533021.5,533031.221,536614.411,8,400,46,,ISIC_0030694.JPG
break,html.Screen,4_95_1,2023-09-11T17:52:30.009Z,,0,,,NaN,,,,,,false,,,,536603.5999999978,536603.3999999985,,536602.8000000007,,536614.411,8,400,,,
break_continue,html.Screen,4_95_2,2023-09-11T17:52:30.009Z,,0,,,NaN,,,,,,false,,,,536604.0999999978,536603.8999999985,,536603.8000000007,,536614.411,8,400,,,
sequence,flow.Sequence,4_95,2023-09-11T17:52:30.009Z,,0,,,3572.6789999984903,completion,,,,,false,,,,536604.3000000007,536603.8999999985,533014.555,533021.3999999985,533031.221,536614.411,8,400,,,
trial,html.Screen,4_96_0,2023-09-11T17:52:34.543Z,,0,2,,4523.188999997801,response,ISIC_4344870.JPG,8,ISIC_0033664.JPG,ISIC_0033664.JPG,false,0,keypress(z),500,541138,541137.5999999978,536597.745,536604.3999999985,536614.411,541147.563,8,400,47,,ISIC_4344870.JPG
break,html.Screen,4_96_1,2023-09-11T17:52:34.544Z,,0,,,NaN,,,,,,false,,,,541139.3000000007,541139,,541138.3999999985,,541147.563,8,400,,,
break_continue,html.Screen,4_96_2,2023-09-11T17:52:34.545Z,,0,,,NaN,,,,,,false,,,,541139.5999999978,541139.5,,541139.3000000007,,541147.563,8,400,,,
sequence,flow.Sequence,4_96,2023-09-11T17:52:34.545Z,,0,,,4525.089000000036,completion,,,,,false,,,,541139.8000000007,541139.5,536597.745,536604.3000000007,536614.411,541147.563,8,400,,,
trial,html.Screen,4_97_0,2023-09-11T17:52:37.750Z,,0,2,,3196.5369999977993,response,ISIC_0072182.JPG,7,ISIC_4174983.JPG,ISIC_4174983.JPG,false,0,keypress(z),500,544344.5999999978,544344.0999999978,541130.897,541139.8000000007,541147.563,544348.199,8,400,48,,ISIC_0072182.JPG
break,html.Screen,4_97_1,2023-09-11T17:52:37.751Z,,0,,,NaN,,,,,,false,,,,544345.8999999985,544345.5999999978,,544344.8999999985,,544348.199,8,400,,,
break_continue,html.Screen,4_97_2,2023-09-11T17:52:37.751Z,,0,,,NaN,,,,,,false,,,,544346.1999999993,544346.0999999978,,544346,,544348.199,8,400,,,
sequence,flow.Sequence,4_97,2023-09-11T17:52:37.752Z,,0,,,3198.5369999977993,completion,,,,,false,,,,544346.3999999985,544346.0999999978,541130.897,541139.8000000007,541147.563,544348.199,8,400,,,
trial,html.Screen,4_98_0,2023-09-11T17:52:40.989Z,,0,2,,3235.3009999999776,response,ISIC_7098141.JPG,6,ISIC_0069273.JPG,ISIC_0069273.JPG,false,0,keypress(z),500,547584,547583.5,544331.533,544346.5999999978,544348.199,547598.069,8,400,49,,ISIC_7098141.JPG
break,html.Screen,4_98_1,2023-09-11T17:52:40.990Z,,0,,,NaN,,,,,,false,,,,547585.0999999978,547584.8999999985,,547584.1999999993,,547598.069,8,400,,,
break_continue,html.Screen,4_98_2,2023-09-11T17:52:40.991Z,,0,,,NaN,,,,,,false,,,,547585.5,547585.3999999985,,547585.3000000007,,547598.069,8,400,,,
sequence,flow.Sequence,4_98,2023-09-11T17:52:40.991Z,,0,,,3237.2009999984875,completion,,,,,false,,,,547585.6999999993,547585.3999999985,544331.533,544346.5,544348.199,547598.069,8,400,,,
trial,html.Screen,4_99_0,2023-09-11T17:52:44.200Z,,0,2,,3196.4309999999823,response,ISIC_1216139.JPG,8,ISIC_6831482.JPG,ISIC_6831482.JPG,false,0,keypress(z),500,550794.8999999985,550794.5,547581.403,547585.8999999985,547598.069,550797.941,8,400,50,,ISIC_1216139.JPG
break,html.Screen,4_99_1,2023-09-11T17:52:54.191Z,,0,,,10000.23999999999,timeout,,,,,false,,,,560786,560781.515,550781.275,550795.1999999993,550797.941,560798.181,8,400,,,
break_continue,html.Screen,4_99_2,2023-09-11T17:52:55.267Z,,0,,,1047.4189999977825,response,,,,,false,continue,keypress(Space),,561861.8999999985,561845.5999999978,560781.515,560786.1999999993,560798.181,561864.805,8,400,,,
sequence,flow.Sequence,4_99,2023-09-11T17:52:55.267Z,,0,,,14247.530999997747,completion,,,,,false,,,,561862.0999999978,561845.5999999978,547581.403,547585.8000000007,547598.069,561864.805,8,400,,,
trial,html.Screen,4_100_0,2023-09-11T17:52:58.512Z,,0,3,,3241.194999999949,response,ISIC_7235371.JPG,8,ISIC_8785329.JPG,ISIC_8785329.JPG,false,0,keypress(z),500,565106.5,565106,561848.139,561862.1999999993,561864.805,565115.387,8,400,1,,ISIC_7235371.JPG
break,html.Screen,4_100_1,2023-09-11T17:52:58.513Z,,0,,,NaN,,,,,,false,,,,565107.6999999993,565107.5,,565106.8000000007,,565115.387,8,400,,,
break_continue,html.Screen,4_100_2,2023-09-11T17:52:58.513Z,,0,,,NaN,,,,,,false,,,,565108.0999999978,565108,,565107.8999999985,,565115.387,8,400,,,
sequence,flow.Sequence,4_100,2023-09-11T17:52:58.513Z,,0,,,3243.194999999949,completion,,,,,false,,,,565108.1999999993,565108,561848.139,561862.0999999978,561864.805,565115.387,8,400,,,
trial,html.Screen,4_101_0,2023-09-11T17:53:01.265Z,,0,3,,2744.512999998522,response,ISIC_0011630.JPG,7,ISIC_2916677.JPG,ISIC_0011630.JPG,false,1,keypress(m),500,567860.3000000007,567859.8999999985,565098.721,565108.3999999985,565115.387,567865.277,8,400,2,,ISIC_2916677.JPG
break,html.Screen,4_101_1,2023-09-11T17:53:01.267Z,,0,,,NaN,,,,,,false,,,,567861.3999999985,567861.3000000007,,567860.5999999978,,567865.277,8,400,,,
break_continue,html.Screen,4_101_2,2023-09-11T17:53:01.267Z,,0,,,NaN,,,,,,false,,,,567861.8000000007,567861.6999999993,,567861.5999999978,,567865.277,8,400,,,
sequence,flow.Sequence,4_101,2023-09-11T17:53:01.267Z,,0,,,2746.312999999267,completion,,,,,false,,,,567862.0999999978,567861.6999999993,565098.721,565108.3999999985,565115.387,567865.277,8,400,,,
trial,html.Screen,4_102_0,2023-09-11T17:53:04.518Z,,0,3,,3247.122999998508,response,ISIC_0025500.JPG,7,ISIC_3564461.JPG,ISIC_3564461.JPG,false,0,keypress(z),500,571112.8999999985,571112.3999999985,567848.611,567862.0999999978,567865.277,571115.147,8,400,3,,ISIC_0025500.JPG
break,html.Screen,4_102_1,2023-09-11T17:53:04.519Z,,0,,,NaN,,,,,,false,,,,571114,571113.8999999985,,571113.1999999993,,571115.147,8,400,,,
break_continue,html.Screen,4_102_2,2023-09-11T17:53:04.520Z,,0,,,NaN,,,,,,false,,,,571114.3999999985,571114.3000000007,,571114.1999999993,,571115.147,8,400,,,
sequence,flow.Sequence,4_102,2023-09-11T17:53:04.520Z,,0,,,3249.023000000743,completion,,,,,false,,,,571114.5999999978,571114.3000000007,567848.611,567862.0999999978,567865.277,571115.147,8,400,,,
trial,html.Screen,4_103_0,2023-09-11T17:53:07.200Z,,0,3,,2679.0529999992577,response,ISIC_2124148.JPG,7,ISIC_6535558.JPG,ISIC_2124148.JPG,false,1,keypress(m),500,573794.5999999978,573794.1999999993,571098.481,571114.6999999993,571115.147,573799.129,8,400,4,,ISIC_6535558.JPG
break,html.Screen,4_103_1,2023-09-11T17:53:07.201Z,,0,,,NaN,,,,,,false,,,,573795.5,573795.1999999993,,573794.8000000007,,573799.129,8,400,,,
break_continue,html.Screen,4_103_2,2023-09-11T17:53:07.201Z,,0,,,NaN,,,,,,false,,,,573795.6999999993,573795.5999999978,,573795.5,,573799.129,8,400,,,
sequence,flow.Sequence,4_103,2023-09-11T17:53:07.201Z,,0,,,2680.4529999977676,completion,,,,,false,,,,573795.8000000007,573795.5999999978,571098.481,571114.6999999993,571115.147,573799.129,8,400,,,
trial,html.Screen,4_104_0,2023-09-11T17:53:10.132Z,,0,3,,2926.7709999985527,response,ISIC_8174881.JPG,8,ISIC_3070206.JPG,ISIC_3070206.JPG,false,0,keypress(z),500,576726.3999999985,576725.8999999985,573782.463,573795.8999999985,573799.129,576732.345,8,400,5,,ISIC_8174881.JPG
break,html.Screen,4_104_1,2023-09-11T17:53:10.133Z,,0,,,NaN,,,,,,false,,,,576727.5,576727.3999999985,,576726.6999999993,,576732.345,8,400,,,
break_continue,html.Screen,4_104_2,2023-09-11T17:53:10.133Z,,0,,,NaN,,,,,,false,,,,576727.8999999985,576727.8000000007,,576727.6999999993,,576732.345,8,400,,,
sequence,flow.Sequence,4_104,2023-09-11T17:53:10.133Z,,0,,,2928.671000000788,completion,,,,,false,,,,576728.0999999978,576727.8000000007,573782.463,573795.8000000007,573799.129,576732.345,8,400,,,
trial,html.Screen,4_105_0,2023-09-11T17:53:13.083Z,,0,3,,2944.854999999283,response,ISIC_2089231.JPG,5,ISIC_0217267.JPG,ISIC_2089231.JPG,false,1,keypress(m),500,579677.6999999993,579677.1999999993,576715.679,576728.0999999978,576732.345,579682.227,8,400,6,,ISIC_0217267.JPG
break,html.Screen,4_105_1,2023-09-11T17:53:13.084Z,,0,,,NaN,,,,,,false,,,,579678.8000000007,579678.5999999978,,579678,,579682.227,8,400,,,
break_continue,html.Screen,4_105_2,2023-09-11T17:53:13.084Z,,0,,,NaN,,,,,,false,,,,579679.1999999993,579679.0999999978,,579679,,579682.227,8,400,,,
sequence,flow.Sequence,4_105,2023-09-11T17:53:13.084Z,,0,,,2946.7549999977928,completion,,,,,false,,,,579679.3999999985,579679.0999999978,576715.679,576728.0999999978,576732.345,579682.227,8,400,,,
trial,html.Screen,4_106_0,2023-09-11T17:53:17.488Z,,0,3,,4399.9729999993,response,ISIC_9300579.JPG,9,ISIC_0062812.JPG,ISIC_9300579.JPG,false,1,keypress(m),500,584082.6999999993,584082.1999999993,579665.561,579679.5,579682.227,584099.319,8,400,7,,ISIC_0062812.JPG
break,html.Screen,4_106_1,2023-09-11T17:53:17.489Z,,0,,,NaN,,,,,,false,,,,584083.8000000007,584083.5999999978,,584082.8999999985,,584099.319,8,400,,,
break_continue,html.Screen,4_106_2,2023-09-11T17:53:17.489Z,,0,,,NaN,,,,,,false,,,,584084.1999999993,584084.0999999978,,584083.8999999985,,584099.319,8,400,,,
sequence,flow.Sequence,4_106,2023-09-11T17:53:17.489Z,,0,,,4401.8729999978095,completion,,,,,false,,,,584084.3000000007,584084.0999999978,579665.561,579679.5,579682.227,584099.319,8,400,,,
trial,html.Screen,4_107_0,2023-09-11T17:53:20.272Z,,0,3,,2767.3809999992372,response,ISIC_2160913.JPG,9,ISIC_0031325.JPG,ISIC_2160913.JPG,false,1,keypress(m),500,586867.1999999993,586866.6999999993,584082.653,584084.5,584099.319,586882.541,8,400,8,,ISIC_0031325.JPG
break,html.Screen,4_107_1,2023-09-11T17:53:20.273Z,,0,,,NaN,,,,,,false,,,,586868.3000000007,586868,,586867.3999999985,,586882.541,8,400,,,
break_continue,html.Screen,4_107_2,2023-09-11T17:53:20.274Z,,0,,,NaN,,,,,,false,,,,586868.5999999978,586868.5,,586868.3999999985,,586882.541,8,400,,,
sequence,flow.Sequence,4_107,2023-09-11T17:53:20.274Z,,0,,,2769.1809999999823,completion,,,,,false,,,,586868.6999999993,586868.5,584082.653,584084.3999999985,584099.319,586882.541,8,400,,,
trial,html.Screen,4_108_0,2023-09-11T17:53:23.127Z,,0,3,,2839.3589999985415,response,ISIC_2724278.JPG,5,ISIC_0014059.JPG,ISIC_0014059.JPG,false,0,keypress(z),500,589722.3999999985,589721.8999999985,586865.875,586868.8999999985,586882.541,589732.427,8,400,9,,ISIC_2724278.JPG
break,html.Screen,4_108_1,2023-09-11T17:53:23.129Z,,0,,,NaN,,,,,,false,,,,589723.5999999978,589723.3000000007,,589722.6999999993,,589732.427,8,400,,,
break_continue,html.Screen,4_108_2,2023-09-11T17:53:23.129Z,,0,,,NaN,,,,,,false,,,,589723.8999999985,589723.8000000007,,589723.6999999993,,589732.427,8,400,,,
sequence,flow.Sequence,4_108,2023-09-11T17:53:23.129Z,,0,,,2841.2590000007767,completion,,,,,false,,,,589724,589723.8000000007,586865.875,586868.8000000007,586882.541,589732.427,8,400,,,
trial,html.Screen,4_109_0,2023-09-11T17:53:26.285Z,,0,3,,3147.4729999984847,response,ISIC_0063157.JPG,6,ISIC_1834920.JPG,ISIC_0063157.JPG,false,1,keypress(m),500,592880.3000000007,592879.8999999985,589715.761,589724.1999999993,589732.427,592882.301,8,400,10,,ISIC_1834920.JPG
break,html.Screen,4_109_1,2023-09-11T17:53:26.286Z,,0,,,NaN,,,,,,false,,,,592881.3000000007,592881.0999999978,,592880.5,,592882.301,8,400,,,
break_continue,html.Screen,4_109_2,2023-09-11T17:53:26.287Z,,0,,,NaN,,,,,,false,,,,592881.5,592881.5,,592881.3999999985,,592882.301,8,400,,,
sequence,flow.Sequence,4_109,2023-09-11T17:53:26.287Z,,0,,,3149.072999999975,completion,,,,,false,,,,592881.6999999993,592881.5,589715.761,589724.0999999978,589732.427,592882.301,8,400,,,
trial,html.Screen,4_110_0,2023-09-11T17:53:29.092Z,,0,3,,2803.9990000007674,response,ISIC_9625295.JPG,8,ISIC_7883190.JPG,ISIC_7883190.JPG,false,0,keypress(z),500,595686.8000000007,595686.3000000007,592865.635,592881.8000000007,592882.301,595699.677,8,400,11,,ISIC_9625295.JPG
break,html.Screen,4_110_1,2023-09-11T17:53:29.093Z,,0,,,NaN,,,,,,false,,,,595688,595687.8000000007,,595687.0999999978,,595699.677,8,400,,,
break_continue,html.Screen,4_110_2,2023-09-11T17:53:29.093Z,,0,,,NaN,,,,,,false,,,,595688.3000000007,595688.1999999993,,595688.0999999978,,595699.677,8,400,,,
sequence,flow.Sequence,4_110,2023-09-11T17:53:29.094Z,,0,,,2805.8989999992773,completion,,,,,false,,,,595688.5,595688.1999999993,592865.635,592881.8000000007,592882.301,595699.677,8,400,,,
trial,html.Screen,4_111_0,2023-09-11T17:53:34.415Z,,0,3,,5309.62300000072,response,ISIC_9943579.JPG,8,ISIC_0024236.JPG,ISIC_9943579.JPG,false,1,keypress(m),500,601009.6999999993,601009.3000000007,595683.011,595688.5999999978,595699.677,601016.131,8,400,12,,ISIC_0024236.JPG
break,html.Screen,4_111_1,2023-09-11T17:53:34.416Z,,0,,,NaN,,,,,,false,,,,601010.8999999985,601010.6999999993,,601010,,601016.131,8,400,,,
break_continue,html.Screen,4_111_2,2023-09-11T17:53:34.416Z,,0,,,NaN,,,,,,false,,,,601011.3000000007,601011.0999999978,,601011,,601016.131,8,400,,,
sequence,flow.Sequence,4_111,2023-09-11T17:53:34.417Z,,0,,,5311.42299999774,completion,,,,,false,,,,601011.5,601011.0999999978,595683.011,595688.5999999978,595699.677,601016.131,8,400,,,
trial,html.Screen,4_112_0,2023-09-11T17:53:37.270Z,,0,3,,2847.868999999948,response,ISIC_0007622.JPG,8,ISIC_9059250.JPG,ISIC_0007622.JPG,false,1,keypress(m),500,603864.5,603864,600999.465,601011.6999999993,601016.131,603866.017,8,400,13,,ISIC_9059250.JPG
break,html.Screen,4_112_1,2023-09-11T17:53:37.271Z,,0,,,NaN,,,,,,false,,,,603865.8000000007,603865.5,,603864.8000000007,,603866.017,8,400,,,
break_continue,html.Screen,4_112_2,2023-09-11T17:53:37.271Z,,0,,,NaN,,,,,,false,,,,603866.3000000007,603866.1999999993,,603866.0999999978,,603866.017,8,400,,,
sequence,flow.Sequence,4_112,2023-09-11T17:53:37.272Z,,0,,,2850.068999999203,completion,,,,,false,,,,603866.5,603866.1999999993,600999.465,601011.5999999978,601016.131,603866.017,8,400,,,
trial,html.Screen,4_113_0,2023-09-11T17:53:41.001Z,,0,3,,3729.3829999985173,response,ISIC_7394897.JPG,6,ISIC_0000462.JPG,ISIC_7394897.JPG,false,1,keypress(m),500,607595.8999999985,607595.3999999985,603849.351,603866.5999999978,603866.017,607599.972,8,400,14,,ISIC_0000462.JPG
break,html.Screen,4_113_1,2023-09-11T17:53:41.002Z,,0,,,NaN,,,,,,false,,,,607597,607596.8000000007,,607596.0999999978,,607599.972,8,400,,,
break_continue,html.Screen,4_113_2,2023-09-11T17:53:41.003Z,,0,,,NaN,,,,,,false,,,,607597.3999999985,607597.1999999993,,607597.1999999993,,607599.972,8,400,,,
sequence,flow.Sequence,4_113,2023-09-11T17:53:41.003Z,,0,,,3731.1829999992624,completion,,,,,false,,,,607597.5,607597.1999999993,603849.351,603866.5999999978,603866.017,607599.972,8,400,,,
trial,html.Screen,4_114_0,2023-09-11T17:53:44.200Z,,0,3,,3194.7279999993043,response,ISIC_4151356.JPG,5,ISIC_0033586.JPG,ISIC_4151356.JPG,false,1,keypress(m),500,610795.3000000007,610794.6999999993,607583.306,607597.8000000007,607599.972,610799.844,8,400,15,,ISIC_0033586.JPG
break,html.Screen,4_114_1,2023-09-11T17:53:44.201Z,,0,,,NaN,,,,,,false,,,,610796.3999999985,610796.1999999993,,610795.5,,610799.844,8,400,,,
break_continue,html.Screen,4_114_2,2023-09-11T17:53:44.202Z,,0,,,NaN,,,,,,false,,,,610796.6999999993,610796.5999999978,,610796.5,,610799.844,8,400,,,
sequence,flow.Sequence,4_114,2023-09-11T17:53:44.202Z,,0,,,3196.627999997814,completion,,,,,false,,,,610796.8999999985,610796.5999999978,607583.306,607597.6999999993,607599.972,610799.844,8,400,,,
trial,html.Screen,4_115_0,2023-09-11T17:53:47.984Z,,0,3,,3778.155999999959,response,ISIC_0026167.JPG,5,ISIC_0032901.JPG,ISIC_0032901.JPG,false,0,keypress(z),500,614578.5,614578,610783.178,610797,610799.844,614583.026,8,400,16,,ISIC_0026167.JPG
break,html.Screen,4_115_1,2023-09-11T17:53:47.985Z,,0,,,NaN,,,,,,false,,,,614579.5999999978,614579.3999999985,,614578.8000000007,,614583.026,8,400,,,
break_continue,html.Screen,4_115_2,2023-09-11T17:53:47.985Z,,0,,,NaN,,,,,,false,,,,614580,614579.8000000007,,614579.6999999993,,614583.026,8,400,,,
sequence,flow.Sequence,4_115,2023-09-11T17:53:47.985Z,,0,,,3779.956000000704,completion,,,,,false,,,,614580.0999999978,614579.8000000007,610783.178,610797,610799.844,614583.026,8,400,,,
trial,html.Screen,4_116_0,2023-09-11T17:53:51.447Z,,0,3,,3458.0739999978105,response,ISIC_3329255.JPG,7,ISIC_2644988.JPG,ISIC_2644988.JPG,false,0,keypress(z),500,618041.5,618041.0999999978,614566.36,614580.3000000007,614583.026,618050.307,8,400,17,,ISIC_3329255.JPG
break,html.Screen,4_116_1,2023-09-11T17:53:51.448Z,,0,,,NaN,,,,,,false,,,,618042.6999999993,618042.5,,618041.8999999985,,618050.307,8,400,,,
break_continue,html.Screen,4_116_2,2023-09-11T17:53:51.448Z,,0,,,NaN,,,,,,false,,,,618043.0999999978,618043,,618042.8999999985,,618050.307,8,400,,,
sequence,flow.Sequence,4_116,2023-09-11T17:53:51.448Z,,0,,,3459.9740000000456,completion,,,,,false,,,,618043.3000000007,618043,614566.36,614580.1999999993,614583.026,618050.307,8,400,,,
trial,html.Screen,4_117_0,2023-09-11T17:53:54.479Z,,0,3,,3022.69299999997,response,ISIC_6098768.JPG,8,ISIC_0010317.JPG,ISIC_6098768.JPG,false,1,keypress(m),500,621073.3999999985,621073,618033.641,618043.5,618050.307,621083.519,8,400,18,,ISIC_0010317.JPG
break,html.Screen,4_117_1,2023-09-11T17:53:54.480Z,,0,,,NaN,,,,,,false,,,,621074.5999999978,621074.3999999985,,621073.6999999993,,621083.519,8,400,,,
break_continue,html.Screen,4_117_2,2023-09-11T17:53:54.480Z,,0,,,NaN,,,,,,false,,,,621075,621074.8000000007,,621074.6999999993,,621083.519,8,400,,,
sequence,flow.Sequence,4_117,2023-09-11T17:53:54.480Z,,0,,,3024.4930000007153,completion,,,,,false,,,,621075.1999999993,621074.8000000007,618033.641,618043.3999999985,618050.307,621083.519,8,400,,,
trial,html.Screen,4_118_0,2023-09-11T17:53:57.457Z,,0,3,,2967.781000000774,response,ISIC_0069361.JPG,5,ISIC_3764173.JPG,ISIC_3764173.JPG,false,0,keypress(z),500,624051.8000000007,624051.3000000007,621066.853,621075.3000000007,621083.519,624066.733,8,400,19,,ISIC_0069361.JPG
break,html.Screen,4_118_1,2023-09-11T17:53:57.458Z,,0,,,NaN,,,,,,false,,,,624052.8999999985,624052.6999999993,,624052.0999999978,,624066.733,8,400,,,
break_continue,html.Screen,4_118_2,2023-09-11T17:53:57.458Z,,0,,,NaN,,,,,,false,,,,624053.3000000007,624053.1999999993,,624053.0999999978,,624066.733,8,400,,,
sequence,flow.Sequence,4_118,2023-09-11T17:53:57.459Z,,0,,,2969.680999999284,completion,,,,,false,,,,624053.5,624053.1999999993,621066.853,621075.1999999993,621083.519,624066.733,8,400,,,
trial,html.Screen,4_119_0,2023-09-11T17:54:01.192Z,,0,3,,3719.8669999977574,response,ISIC_0034311.JPG,8,ISIC_0065394.JPG,ISIC_0034311.JPG,false,1,keypress(m),500,627786.8999999985,627786.5999999978,624050.067,624053.6999999993,624066.733,627800.809,8,400,20,,ISIC_0065394.JPG
break,html.Screen,4_119_1,2023-09-11T17:54:01.193Z,,0,,,NaN,,,,,,false,,,,627788.1999999993,627787.8999999985,,627787.1999999993,,627800.809,8,400,,,
break_continue,html.Screen,4_119_2,2023-09-11T17:54:01.194Z,,0,,,NaN,,,,,,false,,,,627788.5,627788.3999999985,,627788.1999999993,,627800.809,8,400,,,
sequence,flow.Sequence,4_119,2023-09-11T17:54:01.194Z,,0,,,3721.6669999985024,completion,,,,,false,,,,627788.6999999993,627788.3999999985,624050.067,624053.6999999993,624066.733,627800.809,8,400,,,
trial,html.Screen,4_120_0,2023-09-11T17:54:08.504Z,,0,3,,7297.5909999985015,response,ISIC_9206499.JPG,8,ISIC_0325771.JPG,ISIC_0325771.JPG,false,0,keypress(z),500,635098.8999999985,635098.3999999985,627784.143,627788.8999999985,627800.809,635100.517,8,400,21,,ISIC_9206499.JPG
break,html.Screen,4_120_1,2023-09-11T17:54:08.505Z,,0,,,NaN,,,,,,false,,,,635100.0999999978,635099.8000000007,,635099.1999999993,,635100.517,8,400,,,
break_continue,html.Screen,4_120_2,2023-09-11T17:54:08.506Z,,0,,,NaN,,,,,,false,,,,635100.5,635100.3000000007,,635100.1999999993,,635100.517,8,400,,,
sequence,flow.Sequence,4_120,2023-09-11T17:54:08.506Z,,0,,,7299.491000000737,completion,,,,,false,,,,635100.6999999993,635100.3000000007,627784.143,627788.8000000007,627800.809,635100.517,8,400,,,
trial,html.Screen,4_121_0,2023-09-11T17:54:12.832Z,,0,3,,4325.682999999262,response,ISIC_0028554.JPG,7,ISIC_2679689.JPG,ISIC_2679689.JPG,false,0,keypress(z),500,639426.6999999993,639426.1999999993,635083.851,635100.8000000007,635100.517,639434.339,8,400,22,,ISIC_0028554.JPG
break,html.Screen,4_121_1,2023-09-11T17:54:12.833Z,,0,,,NaN,,,,,,false,,,,639427.8000000007,639427.5999999978,,639426.8999999985,,639434.339,8,400,,,
break_continue,html.Screen,4_121_2,2023-09-11T17:54:12.833Z,,0,,,NaN,,,,,,false,,,,639428.0999999978,639428,,639427.8999999985,,639434.339,8,400,,,
sequence,flow.Sequence,4_121,2023-09-11T17:54:12.833Z,,0,,,4327.483000000007,completion,,,,,false,,,,639428.3000000007,639428,635083.851,635100.8000000007,635100.517,639434.339,8,400,,,
trial,html.Screen,4_122_0,2023-09-11T17:54:15.639Z,,0,3,,2798.9610000007087,response,ISIC_0065943.JPG,8,ISIC_0011695.JPG,ISIC_0065943.JPG,false,1,keypress(m),500,642233.8000000007,642233.3000000007,639417.673,639428.5,639434.339,642250.893,8,400,23,,ISIC_0011695.JPG
break,html.Screen,4_122_1,2023-09-11T17:54:15.640Z,,0,,,NaN,,,,,,false,,,,642235,642234.8000000007,,642234.0999999978,,642250.893,8,400,,,
break_continue,html.Screen,4_122_2,2023-09-11T17:54:15.641Z,,0,,,NaN,,,,,,false,,,,642235.3999999985,642235.1999999993,,642235.0999999978,,642250.893,8,400,,,
sequence,flow.Sequence,4_122,2023-09-11T17:54:15.641Z,,0,,,2800.8609999992186,completion,,,,,false,,,,642235.5999999978,642235.1999999993,639417.673,639428.3999999985,639434.339,642250.893,8,400,,,
trial,html.Screen,4_123_0,2023-09-11T17:54:19.070Z,,0,3,,3413.50699999847,response,ISIC_5443837.JPG,7,ISIC_0070387.JPG,ISIC_0070387.JPG,false,0,keypress(z),500,645664.8999999985,645664.3999999985,642234.227,642235.6999999993,642250.893,645667.423,8,400,24,,ISIC_5443837.JPG
break,html.Screen,4_123_1,2023-09-11T17:54:19.071Z,,0,,,NaN,,,,,,false,,,,645666.0999999978,645665.8000000007,,645665.1999999993,,645667.423,8,400,,,
break_continue,html.Screen,4_123_2,2023-09-11T17:54:19.072Z,,0,,,NaN,,,,,,false,,,,645666.3999999985,645666.3000000007,,645666.1999999993,,645667.423,8,400,,,
sequence,flow.Sequence,4_123,2023-09-11T17:54:19.072Z,,0,,,3415.407000000705,completion,,,,,false,,,,645666.5999999978,645666.3000000007,642234.227,642235.6999999993,642250.893,645667.423,8,400,,,
trial,html.Screen,4_124_0,2023-09-11T17:54:22.082Z,,0,3,,3008.9769999985583,response,ISIC_0066470.JPG,7,ISIC_5318217.JPG,ISIC_5318217.JPG,false,0,keypress(z),500,648676.8999999985,648676.3999999985,645650.757,645666.8000000007,645667.423,648684.774,8,400,25,,ISIC_0066470.JPG
break,html.Screen,4_124_1,2023-09-11T17:54:22.083Z,,0,,,NaN,,,,,,false,,,,648678.0999999978,648677.8999999985,,648677.1999999993,,648684.774,8,400,,,
break_continue,html.Screen,4_124_2,2023-09-11T17:54:22.084Z,,0,,,NaN,,,,,,false,,,,648678.3999999985,648678.3000000007,,648678.3000000007,,648684.774,8,400,,,
sequence,flow.Sequence,4_124,2023-09-11T17:54:22.084Z,,0,,,3010.8770000007935,completion,,,,,false,,,,648678.5999999978,648678.3000000007,645650.757,645666.6999999993,645667.423,648684.774,8,400,,,
trial,html.Screen,4_125_0,2023-09-11T17:54:25.305Z,,0,3,,3214.5260000007693,response,ISIC_0975874.JPG,5,ISIC_1977315.JPG,ISIC_1977315.JPG,false,0,keypress(z),500,651899.6999999993,651899.3000000007,648668.108,648678.6999999993,648684.774,651901.312,8,400,26,,ISIC_0975874.JPG
