sender,sender_type,sender_id,timestamp,meta,,blockNo,condition,duration,ended_on,img_left,img_reveal,img_right,loser,practice,response,response_action,selection_duration,time_commit,time_end,time_render,time_run,time_show,time_switch,total_blocks,total_trials,trialNo,url,winner
informed_consent,html.Screen,0,2023-10-31T02:30:03.177Z,"{""labjs_version"":""20.2.4"",""labjs_build"":{""flavor"":""production"",""commit"":""f5b4a49f956347addd546a832a3327688c2c0fef""},""location"":""https://run.pavlovia.org/MurrayBennett/melanoma-2afc/?participant=65763&platform=sona"",""userAgent"":""Mozilla/5.0 (Macintosh; Intel Mac OS X 10_15_7) AppleWebKit/537.36 (KHTML, like Gecko) Chrome/118.0.0.0 Safari/537.36"",""platform"":""MacIntel"",""language"":""en-US"",""locale"":""en-US"",""timeZone"":""America/Chicago"",""timezoneOffset"":300,""screen_width"":1440,""screen_height"":900,""scroll_width"":1440,""scroll_height"":777,""window_innerWidth"":1440,""window_innerHeight"":825,""devicePixelRatio"":2}",,,,12005,response,,,,,,consent,click button,,13719,13715,1593,1722,1710,13727,,,,"{""participant"":""65763"",""platform"":""sona""}",
Welcome,html.Screen,1,2023-10-31T02:30:31.142Z,,,,asymmetry,27955,response,,,,,,continue,click button,,41685,41682,13710,13719,13727,41694,,,,,
trial,html.Screen,2_0_0,2023-10-31T02:30:35.440Z,,0,0,,4289,response,ISIC_0069348.JPG,,ISIC_6997061.JPG,ISIC_6997061.JPG,true,0,keypress(z),500,45984,45983,41677,41685,41694,45994,1,6,1,,ISIC_0069348.JPG
sequence,flow.Sequence,2_0,2023-10-31T02:30:35.441Z,,0,,,4289,completion,,,,,true,,,,45985,45983,41677,41685,41694,45994,1,6,,,
trial,html.Screen,2_1_0,2023-10-31T02:30:39.660Z,,0,0,,4208,response,ISIC_0057368.JPG,,ISIC_0009529.JPG,ISIC_0009529.JPG,true,0,keypress(z),500,50203,50202,45977,45985,45994,50210,1,6,2,,ISIC_0057368.JPG
sequence,flow.Sequence,2_1,2023-10-31T02:30:39.660Z,,0,,,4208,completion,,,,,true,,,,50204,50202,45977,45985,45994,50210,1,6,,,
trial,html.Screen,2_2_0,2023-10-31T02:30:44.257Z,,0,0,,4591,response,ISIC_0064954.JPG,,ISIC_9758671.JPG,ISIC_0064954.JPG,true,1,keypress(m),500,54801,54801,50194,50204,50210,54811,1,6,3,,ISIC_9758671.JPG
sequence,flow.Sequence,2_2,2023-10-31T02:30:44.257Z,,0,,,4591,completion,,,,,true,,,,54801,54801,50194,50204,50210,54811,1,6,,,
trial,html.Screen,2_3_0,2023-10-31T02:30:47.909Z,,0,0,,3642,response,ISIC_0005785.JPG,,ISIC_0000080.JPG,ISIC_0000080.JPG,true,0,keypress(z),500,58454,58453,54795,54801,54811,58461,1,6,4,,ISIC_0005785.JPG
sequence,flow.Sequence,2_3,2023-10-31T02:30:47.910Z,,0,,,3642,completion,,,,,true,,,,58454,58453,54795,54801,54811,58461,1,6,,,
trial,html.Screen,2_4_0,2023-10-31T02:30:51.611Z,,0,0,,3694,response,ISIC_7944028.JPG,,ISIC_5390060.JPG,ISIC_7944028.JPG,true,1,keypress(m),500,62156,62155,58445,58454,58461,62161,1,6,5,,ISIC_5390060.JPG
sequence,flow.Sequence,2_4,2023-10-31T02:30:51.612Z,,0,,,3694,completion,,,,,true,,,,62156,62155,58445,58454,58461,62161,1,6,,,
trial,html.Screen,2_5_0,2023-10-31T02:30:54.480Z,,0,0,,2863,response,ISIC_0010188.JPG,,ISIC_0794216.JPG,ISIC_0794216.JPG,true,0,keypress(z),500,65024,65024,62144,62156,62161,65028,1,6,6,,ISIC_0010188.JPG
sequence,flow.Sequence,2_5,2023-10-31T02:30:54.481Z,,0,,,2863,completion,,,,,true,,,,65025,65024,62144,62156,62161,65028,1,6,,,
loop,flow.Loop,2,2023-10-31T02:30:54.481Z,,,,,23330,completion,,,,,true,,,,65026,65024,41677,41685,41694,65028,1,6,,,
exp_instructions,html.Screen,3,2023-10-31T02:31:01.258Z,,,,,6768,response,,,,,,continue,keypress(Space),,71802,71796,65012,65026,65028,71811,,,,,
trial,html.Screen,4_0_0,2023-10-31T02:31:04.145Z,,0,1,,2878,response,ISIC_0061252.JPG,8,ISIC_1736735.JPG,ISIC_1736735.JPG,false,0,keypress(z),500,74690,74689,71795,71802,71811,74695,8,400,1,,ISIC_0061252.JPG
break,html.Screen,4_0_1,2023-10-31T02:31:04.147Z,,0,,,NaN,,,,,,false,,,,74692,74691,,74690,,74695,8,400,,,
break_continue,html.Screen,4_0_2,2023-10-31T02:31:04.147Z,,0,,,NaN,,,,,,false,,,,74692,74692,,74692,,74695,8,400,,,
sequence,flow.Sequence,4_0,2023-10-31T02:31:04.148Z,,0,,,2881,completion,,,,,false,,,,74692,74692,71795,71802,71811,74695,8,400,,,
trial,html.Screen,4_1_0,2023-10-31T02:31:09.917Z,,0,1,,5766,response,ISIC_0033175.JPG,8,ISIC_0058781.JPG,ISIC_0033175.JPG,false,1,keypress(m),500,80461,80461,74679,74692,74695,80478,8,400,2,,ISIC_0058781.JPG
break,html.Screen,4_1_1,2023-10-31T02:31:09.918Z,,0,,,NaN,,,,,,false,,,,80462,80462,,80461,,80478,8,400,,,
break_continue,html.Screen,4_1_2,2023-10-31T02:31:09.918Z,,0,,,NaN,,,,,,false,,,,80463,80463,,80463,,80478,8,400,,,
sequence,flow.Sequence,4_1,2023-10-31T02:31:09.918Z,,0,,,5768,completion,,,,,false,,,,80463,80463,74679,74692,74695,80478,8,400,,,
trial,html.Screen,4_2_0,2023-10-31T02:31:12.709Z,,0,1,,2775,response,ISIC_0053674.JPG,7,ISIC_0147869.JPG,ISIC_0147869.JPG,false,0,keypress(z),500,83253,83253,80462,80463,80478,83262,8,400,3,,ISIC_0053674.JPG
break,html.Screen,4_2_1,2023-10-31T02:31:12.710Z,,0,,,NaN,,,,,,false,,,,83254,83254,,83253,,83262,8,400,,,
break_continue,html.Screen,4_2_2,2023-10-31T02:31:12.710Z,,0,,,NaN,,,,,,false,,,,83255,83255,,83254,,83262,8,400,,,
sequence,flow.Sequence,4_2,2023-10-31T02:31:12.710Z,,0,,,2777,completion,,,,,false,,,,83255,83255,80462,80463,80478,83262,8,400,,,
trial,html.Screen,4_3_0,2023-10-31T02:31:16.091Z,,0,1,,3374,response,ISIC_0055887.JPG,8,ISIC_5213829.JPG,ISIC_5213829.JPG,false,0,keypress(z),500,86636,86636,83245,83255,83262,86645,8,400,4,,ISIC_0055887.JPG
break,html.Screen,4_3_1,2023-10-31T02:31:16.093Z,,0,,,NaN,,,,,,false,,,,86638,86638,,86637,,86645,8,400,,,
break_continue,html.Screen,4_3_2,2023-10-31T02:31:16.093Z,,0,,,NaN,,,,,,false,,,,86638,86638,,86638,,86645,8,400,,,
sequence,flow.Sequence,4_3,2023-10-31T02:31:16.093Z,,0,,,3376,completion,,,,,false,,,,86638,86638,83245,83255,83262,86645,8,400,,,
trial,html.Screen,4_4_0,2023-10-31T02:31:22.737Z,,0,1,,6636,response,ISIC_3401631.JPG,8,ISIC_0031324.JPG,ISIC_0031324.JPG,false,0,keypress(z),500,93282,93281,86629,86638,86645,93279,8,400,5,,ISIC_3401631.JPG
break,html.Screen,4_4_1,2023-10-31T02:31:22.738Z,,0,,,NaN,,,,,,false,,,,93283,93283,,93282,,93279,8,400,,,
break_continue,html.Screen,4_4_2,2023-10-31T02:31:22.739Z,,0,,,NaN,,,,,,false,,,,93284,93284,,93284,,93279,8,400,,,
sequence,flow.Sequence,4_4,2023-10-31T02:31:22.739Z,,0,,,6639,completion,,,,,false,,,,93284,93284,86629,86638,86645,93279,8,400,,,
trial,html.Screen,4_5_0,2023-10-31T02:31:28.328Z,,0,1,,5593,response,ISIC_3161477.JPG,8,ISIC_5755836.JPG,ISIC_3161477.JPG,false,1,keypress(m),500,98872,98872,93262,93284,93279,98879,8,400,6,,ISIC_5755836.JPG
break,html.Screen,4_5_1,2023-10-31T02:31:28.329Z,,0,,,NaN,,,,,,false,,,,98874,98874,,98873,,98879,8,400,,,
break_continue,html.Screen,4_5_2,2023-10-31T02:31:28.329Z,,0,,,NaN,,,,,,false,,,,98875,98875,,98874,,98879,8,400,,,
sequence,flow.Sequence,4_5,2023-10-31T02:31:28.330Z,,0,,,5596,completion,,,,,false,,,,98875,98875,93262,93284,93279,98879,8,400,,,
trial,html.Screen,4_6_0,2023-10-31T02:31:31.806Z,,0,1,,3471,response,ISIC_0025039.JPG,7,ISIC_0027253.JPG,ISIC_0025039.JPG,false,1,keypress(m),500,102351,102350,98862,98875,98879,102362,8,400,7,,ISIC_0027253.JPG
break,html.Screen,4_6_1,2023-10-31T02:31:31.807Z,,0,,,NaN,,,,,,false,,,,102353,102352,,102351,,102362,8,400,,,
break_continue,html.Screen,4_6_2,2023-10-31T02:31:31.808Z,,0,,,NaN,,,,,,false,,,,102353,102353,,102353,,102362,8,400,,,
sequence,flow.Sequence,4_6,2023-10-31T02:31:31.808Z,,0,,,3474,completion,,,,,false,,,,102353,102353,98862,98875,98879,102362,8,400,,,
trial,html.Screen,4_7_0,2023-10-31T02:31:37.363Z,,0,1,,5546,response,ISIC_4614604.JPG,8,ISIC_8096177.JPG,ISIC_8096177.JPG,false,0,keypress(z),500,107909,107908,102346,102354,102362,107913,8,400,8,,ISIC_4614604.JPG
break,html.Screen,4_7_1,2023-10-31T02:31:37.365Z,,0,,,NaN,,,,,,false,,,,107910,107909,,107909,,107913,8,400,,,
break_continue,html.Screen,4_7_2,2023-10-31T02:31:37.365Z,,0,,,NaN,,,,,,false,,,,107910,107910,,107910,,107913,8,400,,,
sequence,flow.Sequence,4_7,2023-10-31T02:31:37.365Z,,0,,,5548,completion,,,,,false,,,,107910,107910,102346,102354,102362,107913,8,400,,,
trial,html.Screen,4_8_0,2023-10-31T02:31:40.250Z,,0,1,,2882,response,ISIC_0016080.JPG,5,ISIC_0594695.JPG,ISIC_0594695.JPG,false,0,keypress(z),500,110796,110795,107896,107910,107913,110812,8,400,9,,ISIC_0016080.JPG
break,html.Screen,4_8_1,2023-10-31T02:31:40.252Z,,0,,,NaN,,,,,,false,,,,110797,110797,,110796,,110812,8,400,,,
break_continue,html.Screen,4_8_2,2023-10-31T02:31:40.252Z,,0,,,NaN,,,,,,false,,,,110797,110797,,110797,,110812,8,400,,,
sequence,flow.Sequence,4_8,2023-10-31T02:31:40.252Z,,0,,,2884,completion,,,,,false,,,,110798,110797,107896,107910,107913,110812,8,400,,,
trial,html.Screen,4_9_0,2023-10-31T02:31:42.964Z,,0,1,,2697,response,ISIC_0029209.JPG,6,ISIC_0033856.JPG,ISIC_0029209.JPG,false,1,keypress(m),500,113510,113509,110796,110798,110812,113512,8,400,10,,ISIC_0033856.JPG
break,html.Screen,4_9_1,2023-10-31T02:31:42.965Z,,0,,,NaN,,,,,,false,,,,113510,113510,,113510,,113512,8,400,,,
break_continue,html.Screen,4_9_2,2023-10-31T02:31:42.965Z,,0,,,NaN,,,,,,false,,,,113511,113511,,113510,,113512,8,400,,,
sequence,flow.Sequence,4_9,2023-10-31T02:31:42.966Z,,0,,,2699,completion,,,,,false,,,,113512,113511,110796,110798,110812,113512,8,400,,,
trial,html.Screen,4_10_0,2023-10-31T02:31:47.070Z,,0,1,,4103,response,ISIC_0033452.JPG,7,ISIC_0327225.JPG,ISIC_0327225.JPG,false,0,keypress(z),500,117616,117615,113496,113512,113512,117630,8,400,11,,ISIC_0033452.JPG
break,html.Screen,4_10_1,2023-10-31T02:31:47.071Z,,0,,,NaN,,,,,,false,,,,117617,117617,,117616,,117630,8,400,,,
break_continue,html.Screen,4_10_2,2023-10-31T02:31:47.072Z,,0,,,NaN,,,,,,false,,,,117618,117618,,117617,,117630,8,400,,,
sequence,flow.Sequence,4_10,2023-10-31T02:31:47.072Z,,0,,,4106,completion,,,,,false,,,,117618,117618,113496,113512,113512,117630,8,400,,,
trial,html.Screen,4_11_0,2023-10-31T02:31:51.157Z,,0,1,,4072,response,ISIC_0065918.JPG,6,ISIC_0058138.JPG,ISIC_0065918.JPG,false,1,keypress(m),500,121703,121702,117613,117618,117630,121713,8,400,12,,ISIC_0058138.JPG
break,html.Screen,4_11_1,2023-10-31T02:31:51.158Z,,0,,,NaN,,,,,,false,,,,121704,121704,,121703,,121713,8,400,,,
break_continue,html.Screen,4_11_2,2023-10-31T02:31:51.159Z,,0,,,NaN,,,,,,false,,,,121705,121704,,121704,,121713,8,400,,,
sequence,flow.Sequence,4_11,2023-10-31T02:31:51.159Z,,0,,,4074,completion,,,,,false,,,,121705,121704,117613,117618,117630,121713,8,400,,,
trial,html.Screen,4_12_0,2023-10-31T02:31:54.604Z,,0,1,,3436,response,ISIC_1661837.JPG,7,ISIC_9471156.JPG,ISIC_1661837.JPG,false,1,keypress(m),500,125150,125149,121696,121705,121713,125163,8,400,13,,ISIC_9471156.JPG
break,html.Screen,4_12_1,2023-10-31T02:31:54.605Z,,0,,,NaN,,,,,,false,,,,125151,125151,,125150,,125163,8,400,,,
break_continue,html.Screen,4_12_2,2023-10-31T02:31:54.606Z,,0,,,NaN,,,,,,false,,,,125152,125151,,125151,,125163,8,400,,,
sequence,flow.Sequence,4_12,2023-10-31T02:31:54.606Z,,0,,,3438,completion,,,,,false,,,,125152,125151,121696,121705,121713,125163,8,400,,,
trial,html.Screen,4_13_0,2023-10-31T02:31:57.681Z,,0,1,,3064,response,ISIC_1569775.JPG,7,ISIC_3506204.JPG,ISIC_1569775.JPG,false,1,keypress(m),500,128227,128227,125147,125152,125163,128230,8,400,14,,ISIC_3506204.JPG
break,html.Screen,4_13_1,2023-10-31T02:31:57.682Z,,0,,,NaN,,,,,,false,,,,128228,128228,,128228,,128230,8,400,,,
break_continue,html.Screen,4_13_2,2023-10-31T02:31:57.683Z,,0,,,NaN,,,,,,false,,,,128229,128229,,128229,,128230,8,400,,,
sequence,flow.Sequence,4_13,2023-10-31T02:31:57.683Z,,0,,,3066,completion,,,,,false,,,,128229,128229,125147,125152,125163,128230,8,400,,,
trial,html.Screen,4_14_0,2023-10-31T02:32:00.490Z,,0,1,,2806,response,ISIC_8035608.JPG,8,ISIC_0645477.JPG,ISIC_8035608.JPG,false,1,keypress(m),500,131036,131036,128213,128229,128230,131046,8,400,15,,ISIC_0645477.JPG
break,html.Screen,4_14_1,2023-10-31T02:32:00.491Z,,0,,,NaN,,,,,,false,,,,131037,131037,,131036,,131046,8,400,,,
break_continue,html.Screen,4_14_2,2023-10-31T02:32:00.491Z,,0,,,NaN,,,,,,false,,,,131038,131038,,131038,,131046,8,400,,,
sequence,flow.Sequence,4_14,2023-10-31T02:32:00.492Z,,0,,,2808,completion,,,,,false,,,,131038,131038,128213,128229,128230,131046,8,400,,,
trial,html.Screen,4_15_0,2023-10-31T02:32:03.214Z,,0,1,,2713,response,ISIC_9300579.JPG,6,ISIC_0029071.JPG,ISIC_9300579.JPG,false,1,keypress(m),500,133760,133759,131030,131038,131046,133763,8,400,16,,ISIC_0029071.JPG
break,html.Screen,4_15_1,2023-10-31T02:32:03.215Z,,0,,,NaN,,,,,,false,,,,133761,133761,,133760,,133763,8,400,,,
break_continue,html.Screen,4_15_2,2023-10-31T02:32:03.215Z,,0,,,NaN,,,,,,false,,,,133762,133762,,133762,,133763,8,400,,,
sequence,flow.Sequence,4_15,2023-10-31T02:32:03.216Z,,0,,,2716,completion,,,,,false,,,,133762,133762,131030,131038,131046,133763,8,400,,,
trial,html.Screen,4_16_0,2023-10-31T02:32:06.390Z,,0,1,,3173,response,ISIC_6119208.JPG,7,ISIC_6937905.JPG,ISIC_6119208.JPG,false,1,keypress(m),500,136936,136936,133746,133762,133763,136947,8,400,17,,ISIC_6937905.JPG
break,html.Screen,4_16_1,2023-10-31T02:32:06.391Z,,0,,,NaN,,,,,,false,,,,136937,136937,,136936,,136947,8,400,,,
break_continue,html.Screen,4_16_2,2023-10-31T02:32:06.392Z,,0,,,NaN,,,,,,false,,,,136938,136937,,136937,,136947,8,400,,,
sequence,flow.Sequence,4_16,2023-10-31T02:32:06.392Z,,0,,,3174,completion,,,,,false,,,,136938,136937,133746,133762,133763,136947,8,400,,,
trial,html.Screen,4_17_0,2023-10-31T02:32:09.901Z,,0,1,,3501,response,ISIC_0011517.JPG,7,ISIC_6271913.JPG,ISIC_6271913.JPG,false,0,keypress(z),500,140448,140448,136930,136938,136947,140463,8,400,18,,ISIC_0011517.JPG
break,html.Screen,4_17_1,2023-10-31T02:32:09.902Z,,0,,,NaN,,,,,,false,,,,140449,140448,,140448,,140463,8,400,,,
break_continue,html.Screen,4_17_2,2023-10-31T02:32:09.902Z,,0,,,NaN,,,,,,false,,,,140449,140449,,140449,,140463,8,400,,,
sequence,flow.Sequence,4_17,2023-10-31T02:32:09.902Z,,0,,,3502,completion,,,,,false,,,,140449,140449,136930,136938,136947,140463,8,400,,,
trial,html.Screen,4_18_0,2023-10-31T02:32:13.283Z,,0,1,,3366,response,ISIC_0033029.JPG,8,ISIC_6722934.JPG,ISIC_6722934.JPG,false,0,keypress(z),500,143830,143829,140447,140449,140463,143847,8,400,19,,ISIC_0033029.JPG
break,html.Screen,4_18_1,2023-10-31T02:32:13.284Z,,0,,,NaN,,,,,,false,,,,143832,143831,,143831,,143847,8,400,,,
break_continue,html.Screen,4_18_2,2023-10-31T02:32:13.285Z,,0,,,NaN,,,,,,false,,,,143832,143832,,143832,,143847,8,400,,,
sequence,flow.Sequence,4_18,2023-10-31T02:32:13.285Z,,0,,,3369,completion,,,,,false,,,,143832,143832,140447,140449,140463,143847,8,400,,,
trial,html.Screen,4_19_0,2023-10-31T02:32:18.432Z,,0,1,,5132,response,ISIC_6793983.JPG,7,ISIC_3475932.JPG,ISIC_3475932.JPG,false,0,keypress(z),500,148979,148979,143831,143832,143847,148980,8,400,20,,ISIC_6793983.JPG
break,html.Screen,4_19_1,2023-10-31T02:32:18.433Z,,0,,,NaN,,,,,,false,,,,148980,148979,,148979,,148980,8,400,,,
break_continue,html.Screen,4_19_2,2023-10-31T02:32:18.434Z,,0,,,NaN,,,,,,false,,,,148980,148980,,148980,,148980,8,400,,,
sequence,flow.Sequence,4_19,2023-10-31T02:32:18.434Z,,0,,,5133,completion,,,,,false,,,,148980,148980,143831,143832,143847,148980,8,400,,,
trial,html.Screen,4_20_0,2023-10-31T02:32:22.759Z,,0,1,,4326,response,ISIC_0067012.JPG,8,ISIC_6111078.JPG,ISIC_6111078.JPG,false,0,keypress(z),500,153306,153306,148964,148980,148980,153313,8,400,21,,ISIC_0067012.JPG
break,html.Screen,4_20_1,2023-10-31T02:32:22.760Z,,0,,,NaN,,,,,,false,,,,153308,153307,,153306,,153313,8,400,,,
break_continue,html.Screen,4_20_2,2023-10-31T02:32:22.761Z,,0,,,NaN,,,,,,false,,,,153308,153308,,153308,,153313,8,400,,,
sequence,flow.Sequence,4_20,2023-10-31T02:32:22.761Z,,0,,,4328,completion,,,,,false,,,,153308,153308,148964,148980,148980,153313,8,400,,,
trial,html.Screen,4_21_0,2023-10-31T02:32:27.105Z,,0,1,,4339,response,ISIC_0002566.JPG,5,ISIC_0057067.JPG,ISIC_0002566.JPG,false,1,keypress(m),500,157652,157652,153297,153308,153313,157664,8,400,22,,ISIC_0057067.JPG
break,html.Screen,4_21_1,2023-10-31T02:32:27.106Z,,0,,,NaN,,,,,,false,,,,157654,157653,,157652,,157664,8,400,,,
break_continue,html.Screen,4_21_2,2023-10-31T02:32:27.106Z,,0,,,NaN,,,,,,false,,,,157654,157654,,157654,,157664,8,400,,,
sequence,flow.Sequence,4_21,2023-10-31T02:32:27.107Z,,0,,,4341,completion,,,,,false,,,,157654,157654,153297,153308,153313,157664,8,400,,,
trial,html.Screen,4_22_0,2023-10-31T02:32:30.599Z,,0,1,,3482,response,ISIC_0068107.JPG,8,ISIC_0070593.JPG,ISIC_0070593.JPG,false,0,keypress(z),500,161146,161146,157647,157654,157664,161147,8,400,23,,ISIC_0068107.JPG
break,html.Screen,4_22_1,2023-10-31T02:32:30.600Z,,0,,,NaN,,,,,,false,,,,161147,161147,,161147,,161147,8,400,,,
break_continue,html.Screen,4_22_2,2023-10-31T02:32:30.601Z,,0,,,NaN,,,,,,false,,,,161147,161147,,161147,,161147,8,400,,,
sequence,flow.Sequence,4_22,2023-10-31T02:32:30.602Z,,0,,,3483,completion,,,,,false,,,,161149,161147,157647,157654,157664,161147,8,400,,,
trial,html.Screen,4_23_0,2023-10-31T02:32:34.125Z,,0,1,,3525,response,ISIC_0024567.JPG,7,ISIC_0069967.JPG,ISIC_0024567.JPG,false,1,keypress(m),500,164672,164672,161130,161149,161147,164681,8,400,24,,ISIC_0069967.JPG
break,html.Screen,4_23_1,2023-10-31T02:32:34.127Z,,0,,,NaN,,,,,,false,,,,164674,164673,,164673,,164681,8,400,,,
break_continue,html.Screen,4_23_2,2023-10-31T02:32:34.127Z,,0,,,NaN,,,,,,false,,,,164675,164675,,164675,,164681,8,400,,,
sequence,flow.Sequence,4_23,2023-10-31T02:32:34.127Z,,0,,,3528,completion,,,,,false,,,,164675,164675,161130,161149,161147,164681,8,400,,,
trial,html.Screen,4_24_0,2023-10-31T02:32:37.157Z,,0,1,,3023,response,ISIC_0014103.JPG,8,ISIC_3313701.JPG,ISIC_3313701.JPG,false,0,keypress(z),500,167704,167704,164664,164675,164681,167714,8,400,25,,ISIC_0014103.JPG
break,html.Screen,4_24_1,2023-10-31T02:32:37.158Z,,0,,,NaN,,,,,,false,,,,167706,167706,,167704,,167714,8,400,,,
break_continue,html.Screen,4_24_2,2023-10-31T02:32:37.159Z,,0,,,NaN,,,,,,false,,,,167706,167706,,167706,,167714,8,400,,,
sequence,flow.Sequence,4_24,2023-10-31T02:32:37.159Z,,0,,,3025,completion,,,,,false,,,,167706,167706,164664,164675,164681,167714,8,400,,,
trial,html.Screen,4_25_0,2023-10-31T02:32:40.814Z,,0,1,,3647,response,ISIC_4505178.JPG,8,ISIC_0059264.JPG,ISIC_4505178.JPG,false,1,keypress(m),500,171361,171361,167698,167706,167714,171364,8,400,26,,ISIC_0059264.JPG
break,html.Screen,4_25_1,2023-10-31T02:32:40.815Z,,0,,,NaN,,,,,,false,,,,171363,171362,,171361,,171364,8,400,,,
break_continue,html.Screen,4_25_2,2023-10-31T02:32:40.815Z,,0,,,NaN,,,,,,false,,,,171363,171363,,171363,,171364,8,400,,,
sequence,flow.Sequence,4_25,2023-10-31T02:32:40.816Z,,0,,,3649,completion,,,,,false,,,,171363,171363,167698,167706,167714,171364,8,400,,,
trial,html.Screen,4_26_0,2023-10-31T02:32:47.781Z,,0,1,,6964,response,ISIC_1776777.JPG,7,ISIC_0013311.JPG,ISIC_0013311.JPG,false,0,keypress(z),500,178329,178328,171347,171363,171364,178331,8,400,27,,ISIC_1776777.JPG
break,html.Screen,4_26_1,2023-10-31T02:32:47.782Z,,0,,,NaN,,,,,,false,,,,178329,178329,,178329,,178331,8,400,,,
break_continue,html.Screen,4_26_2,2023-10-31T02:32:47.782Z,,0,,,NaN,,,,,,false,,,,178330,178329,,178329,,178331,8,400,,,
sequence,flow.Sequence,4_26,2023-10-31T02:32:47.782Z,,0,,,6965,completion,,,,,false,,,,178330,178329,171347,171363,171364,178331,8,400,,,
trial,html.Screen,4_27_0,2023-10-31T02:32:52.458Z,,0,1,,4675,response,ISIC_9338761.JPG,8,ISIC_0028477.JPG,ISIC_0028477.JPG,false,0,keypress(z),500,183006,183006,178314,178330,178331,183014,8,400,28,,ISIC_9338761.JPG
break,html.Screen,4_27_1,2023-10-31T02:32:52.459Z,,0,,,NaN,,,,,,false,,,,183007,183006,,183006,,183014,8,400,,,
break_continue,html.Screen,4_27_2,2023-10-31T02:32:52.459Z,,0,,,NaN,,,,,,false,,,,183007,183007,,183007,,183014,8,400,,,
sequence,flow.Sequence,4_27,2023-10-31T02:32:52.460Z,,0,,,4676,completion,,,,,false,,,,183007,183007,178314,178330,178331,183014,8,400,,,
trial,html.Screen,4_28_0,2023-10-31T02:32:56.368Z,,0,1,,3902,response,ISIC_7218890.JPG,7,ISIC_0010784.JPG,ISIC_7218890.JPG,false,1,keypress(m),500,186916,186916,182998,183007,183014,186932,8,400,29,,ISIC_0010784.JPG
break,html.Screen,4_28_1,2023-10-31T02:32:56.369Z,,0,,,NaN,,,,,,false,,,,186917,186917,,186917,,186932,8,400,,,
break_continue,html.Screen,4_28_2,2023-10-31T02:32:56.370Z,,0,,,NaN,,,,,,false,,,,186918,186918,,186917,,186932,8,400,,,
sequence,flow.Sequence,4_28,2023-10-31T02:32:56.370Z,,0,,,3904,completion,,,,,false,,,,186918,186918,182998,183007,183014,186932,8,400,,,
trial,html.Screen,4_29_0,2023-10-31T02:32:59.253Z,,0,1,,2869,response,ISIC_8901133.JPG,8,ISIC_3124612.JPG,ISIC_3124612.JPG,false,0,keypress(z),500,189801,189801,186915,186918,186932,189815,8,400,30,,ISIC_8901133.JPG
break,html.Screen,4_29_1,2023-10-31T02:32:59.254Z,,0,,,NaN,,,,,,false,,,,189802,189802,,189802,,189815,8,400,,,
break_continue,html.Screen,4_29_2,2023-10-31T02:32:59.255Z,,0,,,NaN,,,,,,false,,,,189803,189803,,189803,,189815,8,400,,,
sequence,flow.Sequence,4_29,2023-10-31T02:32:59.255Z,,0,,,2871,completion,,,,,false,,,,189803,189803,186915,186918,186932,189815,8,400,,,
trial,html.Screen,4_30_0,2023-10-31T02:33:02.059Z,,0,1,,2792,response,ISIC_5370803.JPG,6,ISIC_8197240.JPG,ISIC_8197240.JPG,false,0,keypress(z),500,192607,192607,189798,189803,189815,192615,8,400,31,,ISIC_5370803.JPG
break,html.Screen,4_30_1,2023-10-31T02:33:02.060Z,,0,,,NaN,,,,,,false,,,,192609,192609,,192608,,192615,8,400,,,
break_continue,html.Screen,4_30_2,2023-10-31T02:33:02.061Z,,0,,,NaN,,,,,,false,,,,192609,192609,,192609,,192615,8,400,,,
sequence,flow.Sequence,4_30,2023-10-31T02:33:02.061Z,,0,,,2794,completion,,,,,false,,,,192609,192609,189798,189803,189815,192615,8,400,,,
trial,html.Screen,4_31_0,2023-10-31T02:33:06.563Z,,0,1,,4496,response,ISIC_9965754.JPG,5,ISIC_5338721.JPG,ISIC_9965754.JPG,false,1,keypress(m),500,197111,197111,192598,192609,192615,197115,8,400,32,,ISIC_5338721.JPG
break,html.Screen,4_31_1,2023-10-31T02:33:06.564Z,,0,,,NaN,,,,,,false,,,,197113,197113,,197112,,197115,8,400,,,
break_continue,html.Screen,4_31_2,2023-10-31T02:33:06.565Z,,0,,,NaN,,,,,,false,,,,197114,197114,,197113,,197115,8,400,,,
sequence,flow.Sequence,4_31,2023-10-31T02:33:06.565Z,,0,,,4499,completion,,,,,false,,,,197114,197114,192598,192609,192615,197115,8,400,,,
trial,html.Screen,4_32_0,2023-10-31T02:33:09.834Z,,0,1,,3268,response,ISIC_0271408.JPG,9,ISIC_8612828.JPG,ISIC_8612828.JPG,false,0,keypress(z),500,200383,200383,197098,197114,197115,200398,8,400,33,,ISIC_0271408.JPG
break,html.Screen,4_32_1,2023-10-31T02:33:09.835Z,,0,,,NaN,,,,,,false,,,,200384,200384,,200383,,200398,8,400,,,
break_continue,html.Screen,4_32_2,2023-10-31T02:33:09.836Z,,0,,,NaN,,,,,,false,,,,200385,200385,,200384,,200398,8,400,,,
sequence,flow.Sequence,4_32,2023-10-31T02:33:09.836Z,,0,,,3270,completion,,,,,false,,,,200385,200385,197098,197114,197115,200398,8,400,,,
trial,html.Screen,4_33_0,2023-10-31T02:33:12.545Z,,0,1,,2695,response,ISIC_0072631.JPG,8,ISIC_0010591.JPG,ISIC_0072631.JPG,false,1,keypress(m),500,203093,203093,200382,200385,200398,203098,8,400,34,,ISIC_0010591.JPG
break,html.Screen,4_33_1,2023-10-31T02:33:12.546Z,,0,,,NaN,,,,,,false,,,,203094,203094,,203093,,203098,8,400,,,
break_continue,html.Screen,4_33_2,2023-10-31T02:33:12.546Z,,0,,,NaN,,,,,,false,,,,203095,203095,,203095,,203098,8,400,,,
sequence,flow.Sequence,4_33,2023-10-31T02:33:12.547Z,,0,,,2697,completion,,,,,false,,,,203095,203095,200382,200385,200398,203098,8,400,,,
trial,html.Screen,4_34_0,2023-10-31T02:33:15.558Z,,0,1,,3008,response,ISIC_9104843.JPG,9,ISIC_0063930.JPG,ISIC_9104843.JPG,false,1,keypress(m),500,206106,206106,203081,203095,203098,206115,8,400,35,,ISIC_0063930.JPG
break,html.Screen,4_34_1,2023-10-31T02:33:15.559Z,,0,,,NaN,,,,,,false,,,,206108,206107,,206106,,206115,8,400,,,
break_continue,html.Screen,4_34_2,2023-10-31T02:33:15.559Z,,0,,,NaN,,,,,,false,,,,206108,206108,,206108,,206115,8,400,,,
sequence,flow.Sequence,4_34,2023-10-31T02:33:15.559Z,,0,,,3010,completion,,,,,false,,,,206108,206108,203081,203095,203098,206115,8,400,,,
trial,html.Screen,4_35_0,2023-10-31T02:33:18.941Z,,0,1,,3374,response,ISIC_0070948.JPG,8,ISIC_4136351.JPG,ISIC_0070948.JPG,false,1,keypress(m),500,209489,209489,206098,206108,206115,209499,8,400,36,,ISIC_4136351.JPG
break,html.Screen,4_35_1,2023-10-31T02:33:18.942Z,,0,,,NaN,,,,,,false,,,,209491,209490,,209490,,209499,8,400,,,
break_continue,html.Screen,4_35_2,2023-10-31T02:33:18.943Z,,0,,,NaN,,,,,,false,,,,209492,209492,,209491,,209499,8,400,,,
sequence,flow.Sequence,4_35,2023-10-31T02:33:18.943Z,,0,,,3377,completion,,,,,false,,,,209492,209492,206098,206108,206115,209499,8,400,,,
trial,html.Screen,4_36_0,2023-10-31T02:33:23.684Z,,0,1,,4733,response,ISIC_0014469.JPG,6,ISIC_1234463.JPG,ISIC_0014469.JPG,false,1,keypress(m),500,214232,214232,209482,209492,209499,214249,8,400,37,,ISIC_1234463.JPG
break,html.Screen,4_36_1,2023-10-31T02:33:23.686Z,,0,,,NaN,,,,,,false,,,,214236,214235,,214233,,214249,8,400,,,
break_continue,html.Screen,4_36_2,2023-10-31T02:33:23.687Z,,0,,,NaN,,,,,,false,,,,214236,214236,,214236,,214249,8,400,,,
sequence,flow.Sequence,4_36,2023-10-31T02:33:23.687Z,,0,,,4737,completion,,,,,false,,,,214236,214236,209482,209492,209499,214249,8,400,,,
trial,html.Screen,4_37_0,2023-10-31T02:33:33.673Z,,0,1,,9973,response,ISIC_6469202.JPG,8,ISIC_3800541.JPG,ISIC_6469202.JPG,false,1,keypress(m),500,224223,224222,214232,214236,214249,224249,8,400,38,,ISIC_3800541.JPG
break,html.Screen,4_37_1,2023-10-31T02:33:33.675Z,,0,,,NaN,,,,,,false,,,,224224,224223,,224223,,224249,8,400,,,
break_continue,html.Screen,4_37_2,2023-10-31T02:33:33.675Z,,0,,,NaN,,,,,,false,,,,224224,224224,,224224,,224249,8,400,,,
sequence,flow.Sequence,4_37,2023-10-31T02:33:33.675Z,,0,,,9975,completion,,,,,false,,,,224224,224224,214232,214236,214249,224249,8,400,,,
trial,html.Screen,4_38_0,2023-10-31T02:33:38.848Z,,0,1,,5147,response,ISIC_0072182.JPG,8,ISIC_7453676.JPG,ISIC_7453676.JPG,false,0,keypress(z),500,229397,229396,224232,224224,224249,229399,8,400,39,,ISIC_0072182.JPG
break,html.Screen,4_38_1,2023-10-31T02:33:38.849Z,,0,,,NaN,,,,,,false,,,,229398,229398,,229397,,229399,8,400,,,
break_continue,html.Screen,4_38_2,2023-10-31T02:33:38.849Z,,0,,,NaN,,,,,,false,,,,229399,229398,,229398,,229399,8,400,,,
sequence,flow.Sequence,4_38,2023-10-31T02:33:38.850Z,,0,,,5149,completion,,,,,false,,,,229399,229398,224232,224224,224249,229399,8,400,,,
trial,html.Screen,4_39_0,2023-10-31T02:33:42.778Z,,0,1,,3928,response,ISIC_0014860.JPG,9,ISIC_7288818.JPG,ISIC_0014860.JPG,false,1,keypress(m),500,233328,233327,229382,229399,229399,233333,8,400,40,,ISIC_7288818.JPG
break,html.Screen,4_39_1,2023-10-31T02:33:42.779Z,,0,,,NaN,,,,,,false,,,,233328,233328,,233328,,233333,8,400,,,
break_continue,html.Screen,4_39_2,2023-10-31T02:33:42.780Z,,0,,,NaN,,,,,,false,,,,233330,233330,,233330,,233333,8,400,,,
sequence,flow.Sequence,4_39,2023-10-31T02:33:42.780Z,,0,,,3931,completion,,,,,false,,,,233330,233330,229382,229399,229399,233333,8,400,,,
trial,html.Screen,4_40_0,2023-10-31T02:33:45.972Z,,0,1,,3188,response,ISIC_0011380.JPG,8,ISIC_6293107.JPG,ISIC_6293107.JPG,false,0,keypress(z),500,236522,236521,233316,233330,233333,236532,8,400,41,,ISIC_0011380.JPG
break,html.Screen,4_40_1,2023-10-31T02:33:45.973Z,,0,,,NaN,,,,,,false,,,,236523,236522,,236522,,236532,8,400,,,
break_continue,html.Screen,4_40_2,2023-10-31T02:33:45.974Z,,0,,,NaN,,,,,,false,,,,236524,236523,,236523,,236532,8,400,,,
sequence,flow.Sequence,4_40,2023-10-31T02:33:45.974Z,,0,,,3190,completion,,,,,false,,,,236524,236523,233316,233330,233333,236532,8,400,,,
trial,html.Screen,4_41_0,2023-10-31T02:33:49.737Z,,0,1,,3754,response,ISIC_8035608.JPG,8,ISIC_7045042.JPG,ISIC_8035608.JPG,false,1,keypress(m),500,240287,240286,236516,236524,236532,240300,8,400,42,,ISIC_7045042.JPG
break,html.Screen,4_41_1,2023-10-31T02:33:49.738Z,,0,,,NaN,,,,,,false,,,,240288,240288,,240287,,240300,8,400,,,
break_continue,html.Screen,4_41_2,2023-10-31T02:33:49.739Z,,0,,,NaN,,,,,,false,,,,240288,240288,,240288,,240300,8,400,,,
sequence,flow.Sequence,4_41,2023-10-31T02:33:49.739Z,,0,,,3756,completion,,,,,false,,,,240288,240288,236516,236524,236532,240300,8,400,,,
trial,html.Screen,4_42_0,2023-10-31T02:33:54.224Z,,0,1,,4474,response,ISIC_0071300.JPG,8,ISIC_0031565.JPG,ISIC_0031565.JPG,false,0,keypress(z),500,244775,244774,240283,240289,240300,244783,8,400,43,,ISIC_0071300.JPG
break,html.Screen,4_42_1,2023-10-31T02:33:54.226Z,,0,,,NaN,,,,,,false,,,,244775,244775,,244775,,244783,8,400,,,
break_continue,html.Screen,4_42_2,2023-10-31T02:33:54.226Z,,0,,,NaN,,,,,,false,,,,244776,244776,,244775,,244783,8,400,,,
sequence,flow.Sequence,4_42,2023-10-31T02:33:54.226Z,,0,,,4476,completion,,,,,false,,,,244776,244776,240283,240288,240300,244783,8,400,,,
trial,html.Screen,4_43_0,2023-10-31T02:33:57.147Z,,0,1,,2914,response,ISIC_0034068.JPG,5,ISIC_8887039.JPG,ISIC_8887039.JPG,false,0,keypress(z),500,247697,247697,244766,244777,244783,247699,8,400,44,,ISIC_0034068.JPG
break,html.Screen,4_43_1,2023-10-31T02:33:57.148Z,,0,,,NaN,,,,,,false,,,,247698,247698,,247698,,247699,8,400,,,
break_continue,html.Screen,4_43_2,2023-10-31T02:33:57.149Z,,0,,,NaN,,,,,,false,,,,247698,247698,,247698,,247699,8,400,,,
sequence,flow.Sequence,4_43,2023-10-31T02:33:57.149Z,,0,,,2915,completion,,,,,false,,,,247699,247698,244766,244776,244783,247699,8,400,,,
trial,html.Screen,4_44_0,2023-10-31T02:34:00.130Z,,0,1,,2982,response,ISIC_1223648.JPG,8,ISIC_1565767.JPG,ISIC_1565767.JPG,false,0,keypress(z),500,250681,250681,247683,247699,247699,250683,8,400,45,,ISIC_1223648.JPG
break,html.Screen,4_44_1,2023-10-31T02:34:00.132Z,,0,,,NaN,,,,,,false,,,,250682,250682,,250681,,250683,8,400,,,
break_continue,html.Screen,4_44_2,2023-10-31T02:34:00.132Z,,0,,,NaN,,,,,,false,,,,250682,250682,,250682,,250683,8,400,,,
sequence,flow.Sequence,4_44,2023-10-31T02:34:00.132Z,,0,,,2983,completion,,,,,false,,,,250682,250682,247683,247699,247699,250683,8,400,,,
trial,html.Screen,4_45_0,2023-10-31T02:34:02.887Z,,0,1,,2754,response,ISIC_7960321.JPG,8,ISIC_0025964.JPG,ISIC_0025964.JPG,false,0,keypress(z),500,253438,253437,250667,250682,250683,253450,8,400,46,,ISIC_7960321.JPG
break,html.Screen,4_45_1,2023-10-31T02:34:02.889Z,,0,,,NaN,,,,,,false,,,,253439,253438,,253438,,253450,8,400,,,
break_continue,html.Screen,4_45_2,2023-10-31T02:34:02.889Z,,0,,,NaN,,,,,,false,,,,253440,253439,,253439,,253450,8,400,,,
sequence,flow.Sequence,4_45,2023-10-31T02:34:02.889Z,,0,,,2756,completion,,,,,false,,,,253440,253439,250667,250682,250683,253450,8,400,,,
trial,html.Screen,4_46_0,2023-10-31T02:34:06.077Z,,0,1,,3177,response,ISIC_6119202.JPG,6,ISIC_5281576.JPG,ISIC_6119202.JPG,false,1,keypress(m),500,256627,256627,253433,253440,253450,256633,8,400,47,,ISIC_5281576.JPG
break,html.Screen,4_46_1,2023-10-31T02:34:06.079Z,,0,,,NaN,,,,,,false,,,,256629,256629,,256628,,256633,8,400,,,
break_continue,html.Screen,4_46_2,2023-10-31T02:34:06.079Z,,0,,,NaN,,,,,,false,,,,256629,256629,,256629,,256633,8,400,,,
sequence,flow.Sequence,4_46,2023-10-31T02:34:06.079Z,,0,,,3179,completion,,,,,false,,,,256630,256629,253433,253440,253450,256633,8,400,,,
trial,html.Screen,4_47_0,2023-10-31T02:34:09.252Z,,0,1,,3169,response,ISIC_4718237.JPG,9,ISIC_3877643.JPG,ISIC_4718237.JPG,false,1,keypress(m),500,259802,259802,256616,256630,256633,259816,8,400,48,,ISIC_3877643.JPG
break,html.Screen,4_47_1,2023-10-31T02:34:09.253Z,,0,,,NaN,,,,,,false,,,,259803,259803,,259803,,259816,8,400,,,
break_continue,html.Screen,4_47_2,2023-10-31T02:34:09.253Z,,0,,,NaN,,,,,,false,,,,259804,259804,,259804,,259816,8,400,,,
sequence,flow.Sequence,4_47,2023-10-31T02:34:09.254Z,,0,,,3171,completion,,,,,false,,,,259804,259804,256616,256630,256633,259816,8,400,,,
trial,html.Screen,4_48_0,2023-10-31T02:34:12.442Z,,0,1,,3176,response,ISIC_8916136.JPG,9,ISIC_4131697.JPG,ISIC_8916136.JPG,false,1,keypress(m),500,262992,262992,259800,259804,259816,263000,8,400,49,,ISIC_4131697.JPG
break,html.Screen,4_48_1,2023-10-31T02:34:12.443Z,,0,,,NaN,,,,,,false,,,,262994,262994,,262993,,263000,8,400,,,
break_continue,html.Screen,4_48_2,2023-10-31T02:34:12.444Z,,0,,,NaN,,,,,,false,,,,262995,262995,,262994,,263000,8,400,,,
sequence,flow.Sequence,4_48,2023-10-31T02:34:12.444Z,,0,,,3179,completion,,,,,false,,,,262995,262995,259800,259804,259816,263000,8,400,,,
trial,html.Screen,4_49_0,2023-10-31T02:34:15.537Z,,0,1,,3087,response,ISIC_0693902.JPG,7,ISIC_8694181.JPG,ISIC_0693902.JPG,false,1,keypress(m),500,266088,266087,262983,262995,263000,266100,8,400,50,,ISIC_8694181.JPG
break,html.Screen,4_49_1,2023-10-31T02:34:25.535Z,,0,,,10000,timeout,,,,,false,,,,276085,276084,266083,266088,266100,276100,8,400,,,
break_continue,html.Screen,4_49_2,2023-10-31T02:34:28.021Z,,0,,,2457,response,,,,,false,continue,keypress(Space),,278572,278557,276084,276085,276100,278584,8,400,,,
sequence,flow.Sequence,4_49,2023-10-31T02:34:28.021Z,,0,,,15557,completion,,,,,false,,,,278572,278557,262983,262995,263000,278584,8,400,,,
trial,html.Screen,4_50_0,2023-10-31T02:34:31.113Z,,0,2,,3080,response,ISIC_4764568.JPG,7,ISIC_0028746.JPG,ISIC_4764568.JPG,false,1,keypress(m),500,281665,281664,278567,278572,278584,281667,8,400,1,,ISIC_0028746.JPG
break,html.Screen,4_50_1,2023-10-31T02:34:31.114Z,,0,,,NaN,,,,,,false,,,,281665,281665,,281665,,281667,8,400,,,
break_continue,html.Screen,4_50_2,2023-10-31T02:34:31.115Z,,0,,,NaN,,,,,,false,,,,281665,281665,,281665,,281667,8,400,,,
sequence,flow.Sequence,4_50,2023-10-31T02:34:31.115Z,,0,,,3081,completion,,,,,false,,,,281666,281665,278567,278572,278584,281667,8,400,,,
trial,html.Screen,4_51_0,2023-10-31T02:34:36.495Z,,0,2,,5379,response,ISIC_4602691.JPG,7,ISIC_0069486.JPG,ISIC_4602691.JPG,false,1,keypress(m),500,287046,287046,281651,281666,281667,287050,8,400,2,,ISIC_0069486.JPG
break,html.Screen,4_51_1,2023-10-31T02:34:36.496Z,,0,,,NaN,,,,,,false,,,,287048,287047,,287046,,287050,8,400,,,
break_continue,html.Screen,4_51_2,2023-10-31T02:34:36.496Z,,0,,,NaN,,,,,,false,,,,287048,287048,,287048,,287050,8,400,,,
sequence,flow.Sequence,4_51,2023-10-31T02:34:36.496Z,,0,,,5381,completion,,,,,false,,,,287048,287048,281651,281666,281667,287050,8,400,,,
trial,html.Screen,4_52_0,2023-10-31T02:34:40.261Z,,0,2,,3762,response,ISIC_2997601.JPG,8,ISIC_8428097.JPG,ISIC_2997601.JPG,false,1,keypress(m),500,290812,290812,287034,287048,287050,290817,8,400,3,,ISIC_8428097.JPG
break,html.Screen,4_52_1,2023-10-31T02:34:40.262Z,,0,,,NaN,,,,,,false,,,,290814,290813,,290812,,290817,8,400,,,
break_continue,html.Screen,4_52_2,2023-10-31T02:34:40.262Z,,0,,,NaN,,,,,,false,,,,290814,290814,,290814,,290817,8,400,,,
sequence,flow.Sequence,4_52,2023-10-31T02:34:40.263Z,,0,,,3764,completion,,,,,false,,,,290814,290814,287034,287048,287050,290817,8,400,,,
trial,html.Screen,4_53_0,2023-10-31T02:34:43.101Z,,0,2,,2835,response,ISIC_1369273.JPG,8,ISIC_7835257.JPG,ISIC_7835257.JPG,false,0,keypress(z),500,293653,293652,290800,290814,290817,293668,8,400,4,,ISIC_1369273.JPG
break,html.Screen,4_53_1,2023-10-31T02:34:43.102Z,,0,,,NaN,,,,,,false,,,,293653,293653,,293653,,293668,8,400,,,
break_continue,html.Screen,4_53_2,2023-10-31T02:34:43.102Z,,0,,,NaN,,,,,,false,,,,293654,293654,,293653,,293668,8,400,,,
sequence,flow.Sequence,4_53,2023-10-31T02:34:43.103Z,,0,,,2837,completion,,,,,false,,,,293654,293654,290800,290814,290817,293668,8,400,,,
trial,html.Screen,4_54_0,2023-10-31T02:34:47.656Z,,0,2,,4539,response,ISIC_0026049.JPG,7,ISIC_0058303.JPG,ISIC_0026049.JPG,false,1,keypress(m),500,298209,298207,293651,293654,293668,298217,8,400,5,,ISIC_0058303.JPG
break,html.Screen,4_54_1,2023-10-31T02:34:47.658Z,,0,,,NaN,,,,,,false,,,,298209,298209,,298209,,298217,8,400,,,
break_continue,html.Screen,4_54_2,2023-10-31T02:34:47.658Z,,0,,,NaN,,,,,,false,,,,298210,298209,,298209,,298217,8,400,,,
sequence,flow.Sequence,4_54,2023-10-31T02:34:47.658Z,,0,,,4541,completion,,,,,false,,,,298210,298209,293651,293654,293668,298217,8,400,,,
trial,html.Screen,4_55_0,2023-10-31T02:34:50.861Z,,0,2,,3196,response,ISIC_0027152.JPG,8,ISIC_3700351.JPG,ISIC_0027152.JPG,false,1,keypress(m),500,301413,301413,298201,298210,298217,301417,8,400,6,,ISIC_3700351.JPG
break,html.Screen,4_55_1,2023-10-31T02:34:50.862Z,,0,,,NaN,,,,,,false,,,,301414,301414,,301413,,301417,8,400,,,
break_continue,html.Screen,4_55_2,2023-10-31T02:34:50.863Z,,0,,,NaN,,,,,,false,,,,301414,301414,,301414,,301417,8,400,,,
sequence,flow.Sequence,4_55,2023-10-31T02:34:50.863Z,,0,,,3197,completion,,,,,false,,,,301415,301414,298201,298210,298217,301417,8,400,,,
trial,html.Screen,4_56_0,2023-10-31T02:34:53.634Z,,0,2,,2768,response,ISIC_0029639.JPG,8,ISIC_0032656.JPG,ISIC_0029639.JPG,false,1,keypress(m),500,304185,304185,301401,301415,301417,304201,8,400,7,,ISIC_0032656.JPG
break,html.Screen,4_56_1,2023-10-31T02:34:53.635Z,,0,,,NaN,,,,,,false,,,,304187,304187,,304185,,304201,8,400,,,
break_continue,html.Screen,4_56_2,2023-10-31T02:34:53.635Z,,0,,,NaN,,,,,,false,,,,304187,304187,,304187,,304201,8,400,,,
sequence,flow.Sequence,4_56,2023-10-31T02:34:53.635Z,,0,,,2770,completion,,,,,false,,,,304187,304187,301401,301415,301417,304201,8,400,,,
trial,html.Screen,4_57_0,2023-10-31T02:34:56.680Z,,0,2,,3030,response,ISIC_0064742.JPG,6,ISIC_4033676.JPG,ISIC_4033676.JPG,false,0,keypress(z),500,307231,307231,304185,304187,304201,307234,8,400,8,,ISIC_0064742.JPG
break,html.Screen,4_57_1,2023-10-31T02:34:56.681Z,,0,,,NaN,,,,,,false,,,,307234,307232,,307232,,307234,8,400,,,
break_continue,html.Screen,4_57_2,2023-10-31T02:34:56.682Z,,0,,,NaN,,,,,,false,,,,307234,307234,,307234,,307234,8,400,,,
sequence,flow.Sequence,4_57,2023-10-31T02:34:56.682Z,,0,,,3033,completion,,,,,false,,,,307234,307234,304185,304187,304201,307234,8,400,,,
trial,html.Screen,4_58_0,2023-10-31T02:35:02.302Z,,0,2,,5619,response,ISIC_0054355.JPG,7,ISIC_6201695.JPG,ISIC_6201695.JPG,false,0,keypress(z),500,312854,312853,307218,307234,307234,312868,8,400,9,,ISIC_0054355.JPG
break,html.Screen,4_58_1,2023-10-31T02:35:02.303Z,,0,,,NaN,,,,,,false,,,,312855,312855,,312855,,312868,8,400,,,
break_continue,html.Screen,4_58_2,2023-10-31T02:35:02.304Z,,0,,,NaN,,,,,,false,,,,312855,312855,,312855,,312868,8,400,,,
sequence,flow.Sequence,4_58,2023-10-31T02:35:02.304Z,,0,,,5621,completion,,,,,false,,,,312856,312855,307218,307234,307234,312868,8,400,,,
trial,html.Screen,4_59_0,2023-10-31T02:35:06.452Z,,0,2,,4135,response,ISIC_0028317.JPG,8,ISIC_8497457.JPG,ISIC_8497457.JPG,false,0,keypress(z),500,317004,317003,312851,312856,312868,317018,8,400,10,,ISIC_0028317.JPG
break,html.Screen,4_59_1,2023-10-31T02:35:06.453Z,,0,,,NaN,,,,,,false,,,,317005,317005,,317004,,317018,8,400,,,
break_continue,html.Screen,4_59_2,2023-10-31T02:35:06.453Z,,0,,,NaN,,,,,,false,,,,317005,317005,,317005,,317018,8,400,,,
sequence,flow.Sequence,4_59,2023-10-31T02:35:06.453Z,,0,,,4137,completion,,,,,false,,,,317006,317005,312851,312856,312868,317018,8,400,,,
trial,html.Screen,4_60_0,2023-10-31T02:35:09.481Z,,0,2,,3014,response,ISIC_5622348.JPG,8,ISIC_6298228.JPG,ISIC_5622348.JPG,false,1,keypress(m),500,320034,320032,317001,317006,317018,320035,8,400,11,,ISIC_6298228.JPG
break,html.Screen,4_60_1,2023-10-31T02:35:09.482Z,,0,,,NaN,,,,,,false,,,,320034,320034,,320034,,320035,8,400,,,
break_continue,html.Screen,4_60_2,2023-10-31T02:35:09.483Z,,0,,,NaN,,,,,,false,,,,320035,320035,,320034,,320035,8,400,,,
sequence,flow.Sequence,4_60,2023-10-31T02:35:09.483Z,,0,,,3017,completion,,,,,false,,,,320035,320035,317001,317006,317018,320035,8,400,,,
trial,html.Screen,4_61_0,2023-10-31T02:35:14.511Z,,0,2,,5029,response,ISIC_7096389.JPG,8,ISIC_0066588.JPG,ISIC_0066588.JPG,false,0,keypress(z),500,325064,325064,320018,320035,320035,325069,8,400,12,,ISIC_7096389.JPG
break,html.Screen,4_61_1,2023-10-31T02:35:14.512Z,,0,,,NaN,,,,,,false,,,,325065,325064,,325064,,325069,8,400,,,
break_continue,html.Screen,4_61_2,2023-10-31T02:35:14.513Z,,0,,,NaN,,,,,,false,,,,325065,325065,,325065,,325069,8,400,,,
sequence,flow.Sequence,4_61,2023-10-31T02:35:14.513Z,,0,,,5030,completion,,,,,false,,,,325066,325065,320018,320035,320035,325069,8,400,,,
trial,html.Screen,4_62_0,2023-10-31T02:35:17.399Z,,0,2,,2882,response,ISIC_0064932.JPG,7,ISIC_4119029.JPG,ISIC_0064932.JPG,false,1,keypress(m),500,327951,327951,325052,325066,325069,327968,8,400,13,,ISIC_4119029.JPG
break,html.Screen,4_62_1,2023-10-31T02:35:17.400Z,,0,,,NaN,,,,,,false,,,,327953,327952,,327952,,327968,8,400,,,
break_continue,html.Screen,4_62_2,2023-10-31T02:35:17.401Z,,0,,,NaN,,,,,,false,,,,327953,327953,,327953,,327968,8,400,,,
sequence,flow.Sequence,4_62,2023-10-31T02:35:17.401Z,,0,,,2884,completion,,,,,false,,,,327953,327953,325052,325066,325069,327968,8,400,,,
trial,html.Screen,4_63_0,2023-10-31T02:35:23.070Z,,0,2,,5655,response,ISIC_0059501.JPG,7,ISIC_8130596.JPG,ISIC_0059501.JPG,false,1,keypress(m),500,333623,333623,327952,327954,327968,333635,8,400,14,,ISIC_8130596.JPG
break,html.Screen,4_63_1,2023-10-31T02:35:23.071Z,,0,,,NaN,,,,,,false,,,,333625,333624,,333624,,333635,8,400,,,
break_continue,html.Screen,4_63_2,2023-10-31T02:35:23.072Z,,0,,,NaN,,,,,,false,,,,333625,333625,,333625,,333635,8,400,,,
sequence,flow.Sequence,4_63,2023-10-31T02:35:23.072Z,,0,,,5657,completion,,,,,false,,,,333625,333625,327952,327953,327968,333635,8,400,,,
trial,html.Screen,4_64_0,2023-10-31T02:35:27.621Z,,0,2,,4539,response,ISIC_0027063.JPG,7,ISIC_5426854.JPG,ISIC_5426854.JPG,false,0,keypress(z),500,338174,338174,333618,333625,333635,338185,8,400,15,,ISIC_0027063.JPG
break,html.Screen,4_64_1,2023-10-31T02:35:27.622Z,,0,,,NaN,,,,,,false,,,,338176,338175,,338174,,338185,8,400,,,
break_continue,html.Screen,4_64_2,2023-10-31T02:35:27.623Z,,0,,,NaN,,,,,,false,,,,338176,338176,,338176,,338185,8,400,,,
sequence,flow.Sequence,4_64,2023-10-31T02:35:27.623Z,,0,,,4541,completion,,,,,false,,,,338176,338176,333618,333625,333635,338185,8,400,,,
trial,html.Screen,4_65_0,2023-10-31T02:35:30.828Z,,0,2,,3195,response,ISIC_0072171.JPG,8,ISIC_3019509.JPG,ISIC_0072171.JPG,false,1,keypress(m),500,341381,341380,338169,338176,338185,341385,8,400,16,,ISIC_3019509.JPG
break,html.Screen,4_65_1,2023-10-31T02:35:30.829Z,,0,,,NaN,,,,,,false,,,,341382,341382,,341381,,341385,8,400,,,
break_continue,html.Screen,4_65_2,2023-10-31T02:35:30.829Z,,0,,,NaN,,,,,,false,,,,341382,341382,,341382,,341385,8,400,,,
sequence,flow.Sequence,4_65,2023-10-31T02:35:30.829Z,,0,,,3197,completion,,,,,false,,,,341382,341382,338169,338176,338185,341385,8,400,,,
trial,html.Screen,4_66_0,2023-10-31T02:35:34.785Z,,0,2,,3953,response,ISIC_4311777.JPG,8,ISIC_6498634.JPG,ISIC_6498634.JPG,false,0,keypress(z),500,345339,345338,341369,341382,341385,345352,8,400,17,,ISIC_4311777.JPG
break,html.Screen,4_66_1,2023-10-31T02:35:34.786Z,,0,,,NaN,,,,,,false,,,,345340,345340,,345339,,345352,8,400,,,
break_continue,html.Screen,4_66_2,2023-10-31T02:35:34.787Z,,0,,,NaN,,,,,,false,,,,345340,345340,,345340,,345352,8,400,,,
sequence,flow.Sequence,4_66,2023-10-31T02:35:34.787Z,,0,,,3955,completion,,,,,false,,,,345340,345340,341369,341382,341385,345352,8,400,,,
trial,html.Screen,4_67_0,2023-10-31T02:35:39.292Z,,0,2,,4493,response,ISIC_0066412.JPG,6,ISIC_0067054.JPG,ISIC_0066412.JPG,false,1,keypress(m),500,349845,349845,345336,345341,345352,349852,8,400,18,,ISIC_0067054.JPG
break,html.Screen,4_67_1,2023-10-31T02:35:39.294Z,,0,,,NaN,,,,,,false,,,,349847,349847,,349846,,349852,8,400,,,
break_continue,html.Screen,4_67_2,2023-10-31T02:35:39.294Z,,0,,,NaN,,,,,,false,,,,349847,349847,,349847,,349852,8,400,,,
sequence,flow.Sequence,4_67,2023-10-31T02:35:39.294Z,,0,,,4495,completion,,,,,false,,,,349847,349847,345336,345341,345352,349852,8,400,,,
trial,html.Screen,4_68_0,2023-10-31T02:35:42.786Z,,0,2,,3487,response,ISIC_0013921.JPG,6,ISIC_0059855.JPG,ISIC_0013921.JPG,false,1,keypress(m),500,353340,353339,349836,349847,349852,353352,8,400,19,,ISIC_0059855.JPG
break,html.Screen,4_68_1,2023-10-31T02:35:42.787Z,,0,,,NaN,,,,,,false,,,,353341,353340,,353340,,353352,8,400,,,
break_continue,html.Screen,4_68_2,2023-10-31T02:35:42.788Z,,0,,,NaN,,,,,,false,,,,353341,353341,,353341,,353352,8,400,,,
sequence,flow.Sequence,4_68,2023-10-31T02:35:42.788Z,,0,,,3489,completion,,,,,false,,,,353341,353341,349836,349847,349852,353352,8,400,,,
trial,html.Screen,4_69_0,2023-10-31T02:35:46.937Z,,0,2,,4138,response,ISIC_7025208.JPG,7,ISIC_0844312.JPG,ISIC_7025208.JPG,false,1,keypress(m),500,357490,357490,353335,353341,353352,357503,8,400,20,,ISIC_0844312.JPG
break,html.Screen,4_69_1,2023-10-31T02:35:46.938Z,,0,,,NaN,,,,,,false,,,,357491,357491,,357491,,357503,8,400,,,
break_continue,html.Screen,4_69_2,2023-10-31T02:35:46.939Z,,0,,,NaN,,,,,,false,,,,357492,357492,,357492,,357503,8,400,,,
sequence,flow.Sequence,4_69,2023-10-31T02:35:46.939Z,,0,,,4140,completion,,,,,false,,,,357493,357492,353335,353341,353352,357503,8,400,,,
trial,html.Screen,4_70_0,2023-10-31T02:35:52.926Z,,0,2,,5976,response,ISIC_0011495.JPG,5,ISIC_0023162.JPG,ISIC_0011495.JPG,false,1,keypress(m),500,363480,363479,357486,357494,357503,363486,8,400,21,,ISIC_0023162.JPG
break,html.Screen,4_70_1,2023-10-31T02:35:52.928Z,,0,,,NaN,,,,,,false,,,,363481,363481,,363480,,363486,8,400,,,
break_continue,html.Screen,4_70_2,2023-10-31T02:35:52.928Z,,0,,,NaN,,,,,,false,,,,363481,363481,,363481,,363486,8,400,,,
sequence,flow.Sequence,4_70,2023-10-31T02:35:52.928Z,,0,,,5978,completion,,,,,false,,,,363482,363481,357486,357494,357503,363486,8,400,,,
trial,html.Screen,4_71_0,2023-10-31T02:35:56.325Z,,0,2,,3392,response,ISIC_2458609.JPG,5,ISIC_8785329.JPG,ISIC_2458609.JPG,false,1,keypress(m),500,366878,366878,363469,363482,363486,366886,8,400,22,,ISIC_8785329.JPG
break,html.Screen,4_71_1,2023-10-31T02:35:56.326Z,,0,,,NaN,,,,,,false,,,,366880,366880,,366879,,366886,8,400,,,
break_continue,html.Screen,4_71_2,2023-10-31T02:35:56.327Z,,0,,,NaN,,,,,,false,,,,366880,366880,,366880,,366886,8,400,,,
sequence,flow.Sequence,4_71,2023-10-31T02:35:56.327Z,,0,,,3394,completion,,,,,false,,,,366880,366880,363469,363482,363486,366886,8,400,,,
trial,html.Screen,4_72_0,2023-10-31T02:35:59.643Z,,0,2,,3310,response,ISIC_0001111.JPG,5,ISIC_5578611.JPG,ISIC_5578611.JPG,false,0,keypress(z),500,370197,370196,366870,366880,366886,370203,8,400,23,,ISIC_0001111.JPG
break,html.Screen,4_72_1,2023-10-31T02:35:59.644Z,,0,,,NaN,,,,,,false,,,,370198,370198,,370197,,370203,8,400,,,
break_continue,html.Screen,4_72_2,2023-10-31T02:35:59.644Z,,0,,,NaN,,,,,,false,,,,370199,370198,,370198,,370203,8,400,,,
sequence,flow.Sequence,4_72,2023-10-31T02:35:59.645Z,,0,,,3312,completion,,,,,false,,,,370199,370198,366870,366880,366886,370203,8,400,,,
trial,html.Screen,4_73_0,2023-10-31T02:36:02.887Z,,0,2,,3237,response,ISIC_2546644.JPG,8,ISIC_5377237.JPG,ISIC_2546644.JPG,false,1,keypress(m),500,373440,373440,370186,370199,370203,373453,8,400,24,,ISIC_5377237.JPG
break,html.Screen,4_73_1,2023-10-31T02:36:02.888Z,,0,,,NaN,,,,,,false,,,,373442,373441,,373441,,373453,8,400,,,
break_continue,html.Screen,4_73_2,2023-10-31T02:36:02.888Z,,0,,,NaN,,,,,,false,,,,373442,373442,,373442,,373453,8,400,,,
sequence,flow.Sequence,4_73,2023-10-31T02:36:02.888Z,,0,,,3239,completion,,,,,false,,,,373442,373442,370186,370199,370203,373453,8,400,,,
trial,html.Screen,4_74_0,2023-10-31T02:36:05.902Z,,0,2,,3003,response,ISIC_0011757.JPG,7,ISIC_0031611.JPG,ISIC_0031611.JPG,false,0,keypress(z),500,376456,376456,373436,373442,373453,376470,8,400,25,,ISIC_0011757.JPG
break,html.Screen,4_74_1,2023-10-31T02:36:05.903Z,,0,,,NaN,,,,,,false,,,,376457,376457,,376456,,376470,8,400,,,
break_continue,html.Screen,4_74_2,2023-10-31T02:36:05.903Z,,0,,,NaN,,,,,,false,,,,376458,376457,,376457,,376470,8,400,,,
sequence,flow.Sequence,4_74,2023-10-31T02:36:05.904Z,,0,,,3004,completion,,,,,false,,,,376458,376457,373436,373442,373453,376470,8,400,,,
trial,html.Screen,4_75_0,2023-10-31T02:36:08.888Z,,0,2,,2972,response,ISIC_4026808.JPG,7,ISIC_0071947.JPG,ISIC_4026808.JPG,false,1,keypress(m),500,379442,379442,376453,376458,376470,379453,8,400,26,,ISIC_0071947.JPG
break,html.Screen,4_75_1,2023-10-31T02:36:08.890Z,,0,,,NaN,,,,,,false,,,,379444,379444,,379443,,379453,8,400,,,
break_continue,html.Screen,4_75_2,2023-10-31T02:36:08.890Z,,0,,,NaN,,,,,,false,,,,379444,379444,,379444,,379453,8,400,,,
sequence,flow.Sequence,4_75,2023-10-31T02:36:08.890Z,,0,,,2974,completion,,,,,false,,,,379444,379444,376453,376458,376470,379453,8,400,,,
trial,html.Screen,4_76_0,2023-10-31T02:36:12.355Z,,0,2,,3456,response,ISIC_6178099.JPG,8,ISIC_9103090.JPG,ISIC_9103090.JPG,false,0,keypress(z),500,382909,382909,379436,379444,379453,382920,8,400,27,,ISIC_6178099.JPG
break,html.Screen,4_76_1,2023-10-31T02:36:12.356Z,,0,,,NaN,,,,,,false,,,,382910,382910,,382910,,382920,8,400,,,
break_continue,html.Screen,4_76_2,2023-10-31T02:36:12.357Z,,0,,,NaN,,,,,,false,,,,382912,382911,,382911,,382920,8,400,,,
sequence,flow.Sequence,4_76,2023-10-31T02:36:12.357Z,,0,,,3458,completion,,,,,false,,,,382912,382911,379436,379444,379453,382920,8,400,,,
trial,html.Screen,4_77_0,2023-10-31T02:36:16.120Z,,0,2,,3755,response,ISIC_0170101.JPG,7,ISIC_4732684.JPG,ISIC_4732684.JPG,false,0,keypress(z),500,386675,386675,382903,382912,382920,386687,8,400,28,,ISIC_0170101.JPG
break,html.Screen,4_77_1,2023-10-31T02:36:16.122Z,,0,,,NaN,,,,,,false,,,,386676,386676,,386675,,386687,8,400,,,
break_continue,html.Screen,4_77_2,2023-10-31T02:36:16.122Z,,0,,,NaN,,,,,,false,,,,386676,386676,,386676,,386687,8,400,,,
sequence,flow.Sequence,4_77,2023-10-31T02:36:16.122Z,,0,,,3756,completion,,,,,false,,,,386676,386676,382903,382912,382920,386687,8,400,,,
trial,html.Screen,4_78_0,2023-10-31T02:36:19.151Z,,0,2,,3018,response,ISIC_9756858.JPG,9,ISIC_0064694.JPG,ISIC_9756858.JPG,false,1,keypress(m),500,389706,389705,386670,386676,386687,389720,8,400,29,,ISIC_0064694.JPG
break,html.Screen,4_78_1,2023-10-31T02:36:19.153Z,,0,,,NaN,,,,,,false,,,,389707,389707,,389707,,389720,8,400,,,
break_continue,html.Screen,4_78_2,2023-10-31T02:36:19.153Z,,0,,,NaN,,,,,,false,,,,389708,389708,,389708,,389720,8,400,,,
sequence,flow.Sequence,4_78,2023-10-31T02:36:19.153Z,,0,,,3021,completion,,,,,false,,,,389708,389708,386670,386676,386687,389720,8,400,,,
trial,html.Screen,4_79_0,2023-10-31T02:36:22.629Z,,0,2,,3464,response,ISIC_0014264.JPG,8,ISIC_0031529.JPG,ISIC_0014264.JPG,false,1,keypress(m),500,393184,393184,389703,389708,389720,393187,8,400,30,,ISIC_0031529.JPG
break,html.Screen,4_79_1,2023-10-31T02:36:22.631Z,,0,,,NaN,,,,,,false,,,,393185,393185,,393184,,393187,8,400,,,
break_continue,html.Screen,4_79_2,2023-10-31T02:36:22.631Z,,0,,,NaN,,,,,,false,,,,393186,393186,,393185,,393187,8,400,,,
sequence,flow.Sequence,4_79,2023-10-31T02:36:22.631Z,,0,,,3466,completion,,,,,false,,,,393186,393186,389703,389708,389720,393187,8,400,,,
trial,html.Screen,4_80_0,2023-10-31T02:36:26.815Z,,0,2,,4183,response,ISIC_3893354.JPG,7,ISIC_6162545.JPG,ISIC_6162545.JPG,false,0,keypress(z),500,397370,397370,393170,393186,393187,397387,8,400,31,,ISIC_3893354.JPG
break,html.Screen,4_80_1,2023-10-31T02:36:26.816Z,,0,,,NaN,,,,,,false,,,,397371,397371,,397370,,397387,8,400,,,
break_continue,html.Screen,4_80_2,2023-10-31T02:36:26.817Z,,0,,,NaN,,,,,,false,,,,397372,397372,,397371,,397387,8,400,,,
sequence,flow.Sequence,4_80,2023-10-31T02:36:26.817Z,,0,,,4185,completion,,,,,false,,,,397372,397372,393170,393186,393187,397387,8,400,,,
trial,html.Screen,4_81_0,2023-10-31T02:36:30.101Z,,0,2,,3269,response,ISIC_1225511.JPG,6,ISIC_3992223.JPG,ISIC_1225511.JPG,false,1,keypress(m),500,400656,400656,397370,397372,397387,400670,8,400,32,,ISIC_3992223.JPG
break,html.Screen,4_81_1,2023-10-31T02:36:30.102Z,,0,,,NaN,,,,,,false,,,,400657,400657,,400656,,400670,8,400,,,
break_continue,html.Screen,4_81_2,2023-10-31T02:36:30.103Z,,0,,,NaN,,,,,,false,,,,400657,400657,,400657,,400670,8,400,,,
sequence,flow.Sequence,4_81,2023-10-31T02:36:30.103Z,,0,,,3270,completion,,,,,false,,,,400657,400657,397370,397372,397387,400670,8,400,,,
trial,html.Screen,4_82_0,2023-10-31T02:36:33.456Z,,0,2,,3340,response,ISIC_0033194.JPG,8,ISIC_5370803.JPG,ISIC_5370803.JPG,false,0,keypress(z),500,404011,404010,400654,400658,400670,404020,8,400,33,,ISIC_0033194.JPG
break,html.Screen,4_82_1,2023-10-31T02:36:33.457Z,,0,,,NaN,,,,,,false,,,,404012,404012,,404011,,404020,8,400,,,
break_continue,html.Screen,4_82_2,2023-10-31T02:36:33.457Z,,0,,,NaN,,,,,,false,,,,404012,404012,,404012,,404020,8,400,,,
sequence,flow.Sequence,4_82,2023-10-31T02:36:33.458Z,,0,,,3342,completion,,,,,false,,,,404012,404012,400654,400658,400670,404020,8,400,,,
trial,html.Screen,4_83_0,2023-10-31T02:36:37.751Z,,0,2,,4286,response,ISIC_0027556.JPG,8,ISIC_8051628.JPG,ISIC_0027556.JPG,false,1,keypress(m),500,408307,408306,404003,404013,404020,408321,8,400,34,,ISIC_8051628.JPG
break,html.Screen,4_83_1,2023-10-31T02:36:37.753Z,,0,,,NaN,,,,,,false,,,,408307,408307,,408307,,408321,8,400,,,
break_continue,html.Screen,4_83_2,2023-10-31T02:36:37.753Z,,0,,,NaN,,,,,,false,,,,408308,408308,,408308,,408321,8,400,,,
sequence,flow.Sequence,4_83,2023-10-31T02:36:37.753Z,,0,,,4288,completion,,,,,false,,,,408308,408308,404003,404013,404020,408321,8,400,,,
trial,html.Screen,4_84_0,2023-10-31T02:36:41.679Z,,0,2,,3913,response,ISIC_8447658.JPG,6,ISIC_1962845.JPG,ISIC_1962845.JPG,false,0,keypress(z),500,412234,412234,408304,408308,408321,412237,8,400,35,,ISIC_8447658.JPG
break,html.Screen,4_84_1,2023-10-31T02:36:41.681Z,,0,,,NaN,,,,,,false,,,,412236,412235,,412235,,412237,8,400,,,
break_continue,html.Screen,4_84_2,2023-10-31T02:36:41.681Z,,0,,,NaN,,,,,,false,,,,412237,412236,,412236,,412237,8,400,,,
sequence,flow.Sequence,4_84,2023-10-31T02:36:41.681Z,,0,,,3915,completion,,,,,false,,,,412237,412236,408304,408308,408321,412237,8,400,,,
trial,html.Screen,4_85_0,2023-10-31T02:36:44.661Z,,0,2,,2979,response,ISIC_0028075.JPG,7,ISIC_1615996.JPG,ISIC_1615996.JPG,false,0,keypress(z),500,415216,415216,412220,412237,412237,415220,8,400,36,,ISIC_0028075.JPG
break,html.Screen,4_85_1,2023-10-31T02:36:44.662Z,,0,,,NaN,,,,,,false,,,,415218,415217,,415216,,415220,8,400,,,
break_continue,html.Screen,4_85_2,2023-10-31T02:36:44.662Z,,0,,,NaN,,,,,,false,,,,415218,415218,,415218,,415220,8,400,,,
sequence,flow.Sequence,4_85,2023-10-31T02:36:44.662Z,,0,,,2981,completion,,,,,false,,,,415218,415218,412220,412237,412237,415220,8,400,,,
trial,html.Screen,4_86_0,2023-10-31T02:36:47.598Z,,0,2,,2934,response,ISIC_0053841.JPG,8,ISIC_2776906.JPG,ISIC_0053841.JPG,false,1,keypress(m),500,418154,418154,415204,415218,415220,418171,8,400,37,,ISIC_2776906.JPG
break,html.Screen,4_86_1,2023-10-31T02:36:47.600Z,,0,,,NaN,,,,,,false,,,,418156,418155,,418154,,418171,8,400,,,
break_continue,html.Screen,4_86_2,2023-10-31T02:36:47.600Z,,0,,,NaN,,,,,,false,,,,418156,418156,,418156,,418171,8,400,,,
sequence,flow.Sequence,4_86,2023-10-31T02:36:47.600Z,,0,,,2936,completion,,,,,false,,,,418156,418156,415204,415218,415220,418171,8,400,,,
trial,html.Screen,4_87_0,2023-10-31T02:36:50.821Z,,0,2,,3205,response,ISIC_2757355.JPG,8,ISIC_0000239.JPG,ISIC_0000239.JPG,false,0,keypress(z),500,421376,421376,418154,418156,418171,421387,8,400,38,,ISIC_2757355.JPG
break,html.Screen,4_87_1,2023-10-31T02:36:50.822Z,,0,,,NaN,,,,,,false,,,,421378,421377,,421377,,421387,8,400,,,
break_continue,html.Screen,4_87_2,2023-10-31T02:36:50.823Z,,0,,,NaN,,,,,,false,,,,421379,421379,,421379,,421387,8,400,,,
sequence,flow.Sequence,4_87,2023-10-31T02:36:50.823Z,,0,,,3208,completion,,,,,false,,,,421379,421379,418154,418156,418171,421387,8,400,,,
trial,html.Screen,4_88_0,2023-10-31T02:36:55.293Z,,0,2,,4461,response,ISIC_0033636.JPG,4,ISIC_0054280.JPG,ISIC_0054280.JPG,false,0,keypress(z),500,425848,425848,421371,421379,421387,425854,8,400,39,,ISIC_0033636.JPG
break,html.Screen,4_88_1,2023-10-31T02:36:55.294Z,,0,,,NaN,,,,,,false,,,,425850,425850,,425848,,425854,8,400,,,
break_continue,html.Screen,4_88_2,2023-10-31T02:36:55.294Z,,0,,,NaN,,,,,,false,,,,425850,425850,,425850,,425854,8,400,,,
sequence,flow.Sequence,4_88,2023-10-31T02:36:55.295Z,,0,,,4463,completion,,,,,false,,,,425850,425850,421371,421379,421387,425854,8,400,,,
trial,html.Screen,4_89_0,2023-10-31T02:36:58.666Z,,0,2,,3367,response,ISIC_0011694.JPG,5,ISIC_0277705.JPG,ISIC_0277705.JPG,false,0,keypress(z),500,429221,429221,425837,425850,425854,429238,8,400,40,,ISIC_0011694.JPG
break,html.Screen,4_89_1,2023-10-31T02:36:58.667Z,,0,,,NaN,,,,,,false,,,,429223,429223,,429222,,429238,8,400,,,
break_continue,html.Screen,4_89_2,2023-10-31T02:36:58.667Z,,0,,,NaN,,,,,,false,,,,429223,429223,,429223,,429238,8,400,,,
sequence,flow.Sequence,4_89,2023-10-31T02:36:58.667Z,,0,,,3369,completion,,,,,false,,,,429223,429223,425837,425850,425854,429238,8,400,,,
trial,html.Screen,4_90_0,2023-10-31T02:37:02.032Z,,0,2,,3350,response,ISIC_0027561.JPG,8,ISIC_3171104.JPG,ISIC_3171104.JPG,false,0,keypress(z),500,432589,432588,429221,429223,429238,432604,8,400,41,,ISIC_0027561.JPG
break,html.Screen,4_90_1,2023-10-31T02:37:02.034Z,,0,,,NaN,,,,,,false,,,,432590,432590,,432589,,432604,8,400,,,
break_continue,html.Screen,4_90_2,2023-10-31T02:37:02.034Z,,0,,,NaN,,,,,,false,,,,432590,432590,,432590,,432604,8,400,,,
sequence,flow.Sequence,4_90,2023-10-31T02:37:02.034Z,,0,,,3352,completion,,,,,false,,,,432590,432590,429221,429223,429238,432604,8,400,,,
trial,html.Screen,4_91_0,2023-10-31T02:37:05.188Z,,0,2,,3139,response,ISIC_0055727.JPG,7,ISIC_0010304.JPG,ISIC_0055727.JPG,false,1,keypress(m),500,435744,435743,432588,432590,432604,435771,8,400,42,,ISIC_0010304.JPG
break,html.Screen,4_91_1,2023-10-31T02:37:05.189Z,,0,,,NaN,,,,,,false,,,,435745,435745,,435745,,435771,8,400,,,
break_continue,html.Screen,4_91_2,2023-10-31T02:37:05.189Z,,0,,,NaN,,,,,,false,,,,435746,435745,,435745,,435771,8,400,,,
sequence,flow.Sequence,4_91,2023-10-31T02:37:05.190Z,,0,,,3141,completion,,,,,false,,,,435746,435745,432588,432590,432604,435771,8,400,,,
trial,html.Screen,4_92_0,2023-10-31T02:37:08.778Z,,0,2,,3563,response,ISIC_4034644.JPG,8,ISIC_5423896.JPG,ISIC_5423896.JPG,false,0,keypress(z),500,439335,439334,435754,435746,435771,439338,8,400,43,,ISIC_4034644.JPG
break,html.Screen,4_92_1,2023-10-31T02:37:08.780Z,,0,,,NaN,,,,,,false,,,,439336,439335,,439335,,439338,8,400,,,
break_continue,html.Screen,4_92_2,2023-10-31T02:37:08.780Z,,0,,,NaN,,,,,,false,,,,439337,439337,,439336,,439338,8,400,,,
sequence,flow.Sequence,4_92,2023-10-31T02:37:08.780Z,,0,,,3566,completion,,,,,false,,,,439337,439337,435754,435746,435771,439338,8,400,,,
trial,html.Screen,4_93_0,2023-10-31T02:37:12.034Z,,0,2,,3252,response,ISIC_0011268.JPG,7,ISIC_8530010.JPG,ISIC_8530010.JPG,false,0,keypress(z),500,442591,442590,439321,439337,439338,442605,8,400,44,,ISIC_0011268.JPG
break,html.Screen,4_93_1,2023-10-31T02:37:12.036Z,,0,,,NaN,,,,,,false,,,,442592,442592,,442591,,442605,8,400,,,
break_continue,html.Screen,4_93_2,2023-10-31T02:37:12.036Z,,0,,,NaN,,,,,,false,,,,442592,442592,,442592,,442605,8,400,,,
sequence,flow.Sequence,4_93,2023-10-31T02:37:12.036Z,,0,,,3254,completion,,,,,false,,,,442592,442592,439321,439337,439338,442605,8,400,,,
trial,html.Screen,4_94_0,2023-10-31T02:37:16.390Z,,0,2,,4341,response,ISIC_0029397.JPG,7,ISIC_8458843.JPG,ISIC_8458843.JPG,false,0,keypress(z),500,446947,446946,442588,442592,442605,446955,8,400,45,,ISIC_0029397.JPG
break,html.Screen,4_94_1,2023-10-31T02:37:16.392Z,,0,,,NaN,,,,,,false,,,,446948,446947,,446947,,446955,8,400,,,
break_continue,html.Screen,4_94_2,2023-10-31T02:37:16.392Z,,0,,,NaN,,,,,,false,,,,446949,446948,,446948,,446955,8,400,,,
sequence,flow.Sequence,4_94,2023-10-31T02:37:16.392Z,,0,,,4343,completion,,,,,false,,,,446949,446948,442588,442592,442605,446955,8,400,,,
trial,html.Screen,4_95_0,2023-10-31T02:37:19.824Z,,0,2,,3425,response,ISIC_0024527.JPG,6,ISIC_4475657.JPG,ISIC_0024527.JPG,false,1,keypress(m),500,450381,450380,446938,446949,446955,450388,8,400,46,,ISIC_4475657.JPG
break,html.Screen,4_95_1,2023-10-31T02:37:19.825Z,,0,,,NaN,,,,,,false,,,,450382,450382,,450381,,450388,8,400,,,
break_continue,html.Screen,4_95_2,2023-10-31T02:37:19.825Z,,0,,,NaN,,,,,,false,,,,450382,450382,,450382,,450388,8,400,,,
sequence,flow.Sequence,4_95,2023-10-31T02:37:19.826Z,,0,,,3427,completion,,,,,false,,,,450383,450382,446938,446949,446955,450388,8,400,,,
trial,html.Screen,4_96_0,2023-10-31T02:37:23.207Z,,0,2,,3375,response,ISIC_0031018.JPG,8,ISIC_6285925.JPG,ISIC_6285925.JPG,false,0,keypress(z),500,453763,453763,450372,450383,450388,453772,8,400,47,,ISIC_0031018.JPG
break,html.Screen,4_96_1,2023-10-31T02:37:23.208Z,,0,,,NaN,,,,,,false,,,,453765,453764,,453763,,453772,8,400,,,
break_continue,html.Screen,4_96_2,2023-10-31T02:37:23.208Z,,0,,,NaN,,,,,,false,,,,453765,453765,,453765,,453772,8,400,,,
sequence,flow.Sequence,4_96,2023-10-31T02:37:23.209Z,,0,,,3377,completion,,,,,false,,,,453766,453765,450372,450383,450388,453772,8,400,,,
trial,html.Screen,4_97_0,2023-10-31T02:37:26.171Z,,0,2,,2956,response,ISIC_0011830.JPG,8,ISIC_6207688.JPG,ISIC_0011830.JPG,false,1,keypress(m),500,456728,456728,453755,453766,453772,456738,8,400,48,,ISIC_6207688.JPG
break,html.Screen,4_97_1,2023-10-31T02:37:26.173Z,,0,,,NaN,,,,,,false,,,,456729,456729,,456728,,456738,8,400,,,
break_continue,html.Screen,4_97_2,2023-10-31T02:37:26.173Z,,0,,,NaN,,,,,,false,,,,456730,456730,,456729,,456738,8,400,,,
sequence,flow.Sequence,4_97,2023-10-31T02:37:26.173Z,,0,,,2958,completion,,,,,false,,,,456730,456730,453755,453766,453772,456738,8,400,,,
trial,html.Screen,4_98_0,2023-10-31T02:37:29.200Z,,0,2,,3019,response,ISIC_7727830.JPG,8,ISIC_0067326.JPG,ISIC_7727830.JPG,false,1,keypress(m),500,459757,459757,456721,456730,456738,459772,8,400,49,,ISIC_0067326.JPG
break,html.Screen,4_98_1,2023-10-31T02:37:29.202Z,,0,,,NaN,,,,,,false,,,,459759,459759,,459758,,459772,8,400,,,
break_continue,html.Screen,4_98_2,2023-10-31T02:37:29.202Z,,0,,,NaN,,,,,,false,,,,459759,459759,,459759,,459772,8,400,,,
sequence,flow.Sequence,4_98,2023-10-31T02:37:29.202Z,,0,,,3021,completion,,,,,false,,,,459759,459759,456721,456730,456738,459772,8,400,,,
trial,html.Screen,4_99_0,2023-10-31T02:37:32.613Z,,0,2,,3398,response,ISIC_0010476.JPG,8,ISIC_0014703.JPG,ISIC_0010476.JPG,false,1,keypress(m),500,463170,463170,459755,459759,459772,463172,8,400,50,,ISIC_0014703.JPG
break,html.Screen,4_99_1,2023-10-31T02:37:42.602Z,,0,,,10000,timeout,,,,,false,,,,473160,473155,463155,463170,463172,473172,8,400,,,
break_continue,html.Screen,4_99_2,2023-10-31T02:37:48.463Z,,0,,,5831,response,,,,,false,continue,keypress(Space),,479020,479003,473155,473160,473172,479022,8,400,,,
sequence,flow.Sequence,4_99,2023-10-31T02:37:48.463Z,,0,,,19231,completion,,,,,false,,,,479021,479003,459755,459759,459772,479022,8,400,,,
trial,html.Screen,4_100_0,2023-10-31T02:37:51.462Z,,0,3,,2996,response,ISIC_4132082.JPG,9,ISIC_7755096.JPG,ISIC_4132082.JPG,false,1,keypress(m),500,482019,482018,479005,479021,479022,482022,8,400,1,,ISIC_7755096.JPG
break,html.Screen,4_100_1,2023-10-31T02:37:51.463Z,,0,,,NaN,,,,,,false,,,,482020,482020,,482019,,482022,8,400,,,
break_continue,html.Screen,4_100_2,2023-10-31T02:37:51.463Z,,0,,,NaN,,,,,,false,,,,482020,482020,,482020,,482022,8,400,,,
sequence,flow.Sequence,4_100,2023-10-31T02:37:51.463Z,,0,,,2998,completion,,,,,false,,,,482020,482020,479005,479021,479022,482022,8,400,,,
trial,html.Screen,4_101_0,2023-10-31T02:37:54.256Z,,0,3,,2791,response,ISIC_0026244.JPG,6,ISIC_0028352.JPG,ISIC_0026244.JPG,false,1,keypress(m),500,484813,484813,482006,482020,482022,484822,8,400,2,,ISIC_0028352.JPG
break,html.Screen,4_101_1,2023-10-31T02:37:54.257Z,,0,,,NaN,,,,,,false,,,,484814,484814,,484813,,484822,8,400,,,
break_continue,html.Screen,4_101_2,2023-10-31T02:37:54.257Z,,0,,,NaN,,,,,,false,,,,484815,484815,,484814,,484822,8,400,,,
sequence,flow.Sequence,4_101,2023-10-31T02:37:54.257Z,,0,,,2793,completion,,,,,false,,,,484816,484815,482006,482020,482022,484822,8,400,,,
trial,html.Screen,4_102_0,2023-10-31T02:37:56.917Z,,0,3,,2653,response,ISIC_0032094.JPG,7,ISIC_1368336.JPG,ISIC_1368336.JPG,false,0,keypress(z),500,487475,487475,484806,484816,484822,487489,8,400,3,,ISIC_0032094.JPG
break,html.Screen,4_102_1,2023-10-31T02:37:56.919Z,,0,,,NaN,,,,,,false,,,,487476,487476,,487475,,487489,8,400,,,
break_continue,html.Screen,4_102_2,2023-10-31T02:37:56.919Z,,0,,,NaN,,,,,,false,,,,487476,487476,,487476,,487489,8,400,,,
sequence,flow.Sequence,4_102,2023-10-31T02:37:56.919Z,,0,,,2654,completion,,,,,false,,,,487478,487476,484806,484816,484822,487489,8,400,,,
trial,html.Screen,4_103_0,2023-10-31T02:38:01.020Z,,0,3,,4088,response,ISIC_7779155.JPG,8,ISIC_0030469.JPG,ISIC_0030469.JPG,false,0,keypress(z),500,491578,491577,487472,487478,487489,491589,8,400,4,,ISIC_7779155.JPG
break,html.Screen,4_103_1,2023-10-31T02:38:01.021Z,,0,,,NaN,,,,,,false,,,,491578,491578,,491578,,491589,8,400,,,
break_continue,html.Screen,4_103_2,2023-10-31T02:38:01.021Z,,0,,,NaN,,,,,,false,,,,491579,491579,,491579,,491589,8,400,,,
sequence,flow.Sequence,4_103,2023-10-31T02:38:01.021Z,,0,,,4090,completion,,,,,false,,,,491580,491579,487472,487478,487489,491589,8,400,,,
trial,html.Screen,4_104_0,2023-10-31T02:38:04.004Z,,0,3,,2973,response,ISIC_2345504.JPG,8,ISIC_3171104.JPG,ISIC_2345504.JPG,false,1,keypress(m),500,494562,494562,491573,491580,491589,494573,8,400,5,,ISIC_3171104.JPG
break,html.Screen,4_104_1,2023-10-31T02:38:04.006Z,,0,,,NaN,,,,,,false,,,,494564,494564,,494562,,494573,8,400,,,
break_continue,html.Screen,4_104_2,2023-10-31T02:38:04.006Z,,0,,,NaN,,,,,,false,,,,494564,494564,,494564,,494573,8,400,,,
sequence,flow.Sequence,4_104,2023-10-31T02:38:04.006Z,,0,,,2975,completion,,,,,false,,,,494564,494564,491573,491580,491589,494573,8,400,,,
trial,html.Screen,4_105_0,2023-10-31T02:38:08.490Z,,0,3,,4475,response,ISIC_0061454.JPG,9,ISIC_0059065.JPG,ISIC_0061454.JPG,false,1,keypress(m),500,499048,499048,494556,494564,494573,499056,8,400,6,,ISIC_0059065.JPG
break,html.Screen,4_105_1,2023-10-31T02:38:08.491Z,,0,,,NaN,,,,,,false,,,,499050,499050,,499048,,499056,8,400,,,
break_continue,html.Screen,4_105_2,2023-10-31T02:38:08.492Z,,0,,,NaN,,,,,,false,,,,499050,499050,,499050,,499056,8,400,,,
sequence,flow.Sequence,4_105,2023-10-31T02:38:08.492Z,,0,,,4477,completion,,,,,false,,,,499050,499050,494556,494564,494573,499056,8,400,,,
trial,html.Screen,4_106_0,2023-10-31T02:38:11.297Z,,0,3,,2798,response,ISIC_7997132.JPG,5,ISIC_0030423.JPG,ISIC_7997132.JPG,false,1,keypress(m),500,501856,501854,499039,499050,499056,501856,8,400,7,,ISIC_0030423.JPG
break,html.Screen,4_106_1,2023-10-31T02:38:11.298Z,,0,,,NaN,,,,,,false,,,,501856,501856,,501856,,501856,8,400,,,
break_continue,html.Screen,4_106_2,2023-10-31T02:38:11.298Z,,0,,,NaN,,,,,,false,,,,501857,501857,,501856,,501856,8,400,,,
sequence,flow.Sequence,4_106,2023-10-31T02:38:11.299Z,,0,,,2801,completion,,,,,false,,,,501857,501857,499039,499050,499056,501856,8,400,,,
trial,html.Screen,4_107_0,2023-10-31T02:38:17.784Z,,0,3,,6486,response,ISIC_0014366.JPG,9,ISIC_0064625.JPG,ISIC_0014366.JPG,false,1,keypress(m),500,508342,508342,501840,501857,501856,508356,8,400,8,,ISIC_0064625.JPG
break,html.Screen,4_107_1,2023-10-31T02:38:17.785Z,,0,,,NaN,,,,,,false,,,,508343,508343,,508343,,508356,8,400,,,
break_continue,html.Screen,4_107_2,2023-10-31T02:38:17.785Z,,0,,,NaN,,,,,,false,,,,508343,508343,,508343,,508356,8,400,,,
sequence,flow.Sequence,4_107,2023-10-31T02:38:17.785Z,,0,,,6487,completion,,,,,false,,,,508343,508343,501840,501857,501856,508356,8,400,,,
trial,html.Screen,4_108_0,2023-10-31T02:38:21.667Z,,0,3,,3869,response,ISIC_0026791.JPG,8,ISIC_0200153.JPG,ISIC_0200153.JPG,false,0,keypress(z),500,512225,512225,508340,508344,508356,512240,8,400,9,,ISIC_0026791.JPG
break,html.Screen,4_108_1,2023-10-31T02:38:21.668Z,,0,,,NaN,,,,,,false,,,,512227,512227,,512225,,512240,8,400,,,
break_continue,html.Screen,4_108_2,2023-10-31T02:38:21.668Z,,0,,,NaN,,,,,,false,,,,512227,512227,,512227,,512240,8,400,,,
sequence,flow.Sequence,4_108,2023-10-31T02:38:21.669Z,,0,,,3871,completion,,,,,false,,,,512228,512227,508340,508344,508356,512240,8,400,,,
trial,html.Screen,4_109_0,2023-10-31T02:38:26.089Z,,0,3,,4407,response,ISIC_5098778.JPG,7,ISIC_0067953.JPG,ISIC_5098778.JPG,false,1,keypress(m),500,516648,516647,512223,512228,512240,516657,8,400,10,,ISIC_0067953.JPG
break,html.Screen,4_109_1,2023-10-31T02:38:26.090Z,,0,,,NaN,,,,,,false,,,,516649,516649,,516648,,516657,8,400,,,
break_continue,html.Screen,4_109_2,2023-10-31T02:38:26.090Z,,0,,,NaN,,,,,,false,,,,516649,516649,,516649,,516657,8,400,,,
sequence,flow.Sequence,4_109,2023-10-31T02:38:26.091Z,,0,,,4409,completion,,,,,false,,,,516650,516649,512223,512228,512240,516657,8,400,,,
trial,html.Screen,4_110_0,2023-10-31T02:38:29.472Z,,0,3,,3373,response,ISIC_8423248.JPG,7,ISIC_0070050.JPG,ISIC_8423248.JPG,false,1,keypress(m),500,520031,520030,516640,516650,516657,520040,8,400,11,,ISIC_0070050.JPG
break,html.Screen,4_110_1,2023-10-31T02:38:29.473Z,,0,,,NaN,,,,,,false,,,,520033,520032,,520031,,520040,8,400,,,
break_continue,html.Screen,4_110_2,2023-10-31T02:38:29.474Z,,0,,,NaN,,,,,,false,,,,520033,520033,,520033,,520040,8,400,,,
sequence,flow.Sequence,4_110,2023-10-31T02:38:29.474Z,,0,,,3376,completion,,,,,false,,,,520033,520033,516640,516650,516657,520040,8,400,,,
trial,html.Screen,4_111_0,2023-10-31T02:38:32.854Z,,0,3,,3372,response,ISIC_4032636.JPG,7,ISIC_8704668.JPG,ISIC_4032636.JPG,false,1,keypress(m),500,523413,523412,520023,520033,520040,523424,8,400,12,,ISIC_8704668.JPG
break,html.Screen,4_111_1,2023-10-31T02:38:32.855Z,,0,,,NaN,,,,,,false,,,,523414,523414,,523414,,523424,8,400,,,
break_continue,html.Screen,4_111_2,2023-10-31T02:38:32.856Z,,0,,,NaN,,,,,,false,,,,523414,523414,,523414,,523424,8,400,,,
sequence,flow.Sequence,4_111,2023-10-31T02:38:32.856Z,,0,,,3374,completion,,,,,false,,,,523415,523414,520023,520033,520040,523424,8,400,,,
trial,html.Screen,4_112_0,2023-10-31T02:38:38.445Z,,0,3,,5580,response,ISIC_0032982.JPG,7,ISIC_0030003.JPG,ISIC_0030003.JPG,false,0,keypress(z),500,529004,529004,523407,523415,523424,529007,8,400,13,,ISIC_0032982.JPG
break,html.Screen,4_112_1,2023-10-31T02:38:38.447Z,,0,,,NaN,,,,,,false,,,,529005,529005,,529005,,529007,8,400,,,
break_continue,html.Screen,4_112_2,2023-10-31T02:38:38.447Z,,0,,,NaN,,,,,,false,,,,529007,529006,,529005,,529007,8,400,,,
sequence,flow.Sequence,4_112,2023-10-31T02:38:38.447Z,,0,,,5582,completion,,,,,false,,,,529007,529006,523407,523415,523424,529007,8,400,,,
trial,html.Screen,4_113_0,2023-10-31T02:38:42.371Z,,0,3,,3923,response,ISIC_5706908.JPG,7,ISIC_0026802.JPG,ISIC_5706908.JPG,false,1,keypress(m),500,532931,532930,528990,529007,529007,532941,8,400,14,,ISIC_0026802.JPG
break,html.Screen,4_113_1,2023-10-31T02:38:42.373Z,,0,,,NaN,,,,,,false,,,,532932,532931,,532931,,532941,8,400,,,
break_continue,html.Screen,4_113_2,2023-10-31T02:38:42.373Z,,0,,,NaN,,,,,,false,,,,532933,532933,,532933,,532941,8,400,,,
sequence,flow.Sequence,4_113,2023-10-31T02:38:42.373Z,,0,,,3926,completion,,,,,false,,,,532933,532933,528990,529007,529007,532941,8,400,,,
trial,html.Screen,4_114_0,2023-10-31T02:38:46.268Z,,0,3,,3886,response,ISIC_8040024.JPG,7,ISIC_1166678.JPG,ISIC_1166678.JPG,false,0,keypress(z),500,536828,536827,532924,532933,532941,536840,8,400,15,,ISIC_8040024.JPG
break,html.Screen,4_114_1,2023-10-31T02:38:46.269Z,,0,,,NaN,,,,,,false,,,,536828,536828,,536828,,536840,8,400,,,
break_continue,html.Screen,4_114_2,2023-10-31T02:38:46.269Z,,0,,,NaN,,,,,,false,,,,536829,536829,,536829,,536840,8,400,,,
sequence,flow.Sequence,4_114,2023-10-31T02:38:46.270Z,,0,,,3888,completion,,,,,false,,,,536829,536829,532924,532933,532941,536840,8,400,,,
trial,html.Screen,4_115_0,2023-10-31T02:38:49.779Z,,0,3,,3498,response,ISIC_0027130.JPG,8,ISIC_1113265.JPG,ISIC_1113265.JPG,false,0,keypress(z),500,540338,540338,536824,536829,536840,540340,8,400,16,,ISIC_0027130.JPG
break,html.Screen,4_115_1,2023-10-31T02:38:49.780Z,,0,,,NaN,,,,,,false,,,,540340,540340,,540339,,540340,8,400,,,
break_continue,html.Screen,4_115_2,2023-10-31T02:38:49.781Z,,0,,,NaN,,,,,,false,,,,540340,540340,,540340,,540340,8,400,,,
sequence,flow.Sequence,4_115,2023-10-31T02:38:49.781Z,,0,,,3500,completion,,,,,false,,,,540340,540340,536824,536829,536840,540340,8,400,,,
trial,html.Screen,4_116_0,2023-10-31T02:38:53.081Z,,0,3,,3301,response,ISIC_6126554.JPG,8,ISIC_6606767.JPG,ISIC_6606767.JPG,false,0,keypress(z),500,543641,543641,540324,540340,540340,543657,8,400,17,,ISIC_6126554.JPG
break,html.Screen,4_116_1,2023-10-31T02:38:53.083Z,,0,,,NaN,,,,,,false,,,,543642,543642,,543641,,543657,8,400,,,
break_continue,html.Screen,4_116_2,2023-10-31T02:38:53.083Z,,0,,,NaN,,,,,,false,,,,543643,543643,,543642,,543657,8,400,,,
sequence,flow.Sequence,4_116,2023-10-31T02:38:53.083Z,,0,,,3303,completion,,,,,false,,,,543643,543643,540324,540340,540340,543657,8,400,,,
trial,html.Screen,4_117_0,2023-10-31T02:38:55.857Z,,0,3,,2759,response,ISIC_0054080.JPG,8,ISIC_9625295.JPG,ISIC_9625295.JPG,false,0,keypress(z),500,546416,546416,543641,543644,543657,546424,8,400,18,,ISIC_0054080.JPG
break,html.Screen,4_117_1,2023-10-31T02:38:55.858Z,,0,,,NaN,,,,,,false,,,,546418,546418,,546417,,546424,8,400,,,
break_continue,html.Screen,4_117_2,2023-10-31T02:38:55.858Z,,0,,,NaN,,,,,,false,,,,546418,546418,,546418,,546424,8,400,,,
sequence,flow.Sequence,4_117,2023-10-31T02:38:55.858Z,,0,,,2761,completion,,,,,false,,,,546418,546418,543641,543644,543657,546424,8,400,,,
trial,html.Screen,4_118_0,2023-10-31T02:38:59.735Z,,0,3,,3870,response,ISIC_0067609.JPG,9,ISIC_0062827.JPG,ISIC_0062827.JPG,false,0,keypress(z),500,550295,550294,546407,546418,546424,550324,8,400,19,,ISIC_0067609.JPG
break,html.Screen,4_118_1,2023-10-31T02:38:59.736Z,,0,,,NaN,,,,,,false,,,,550297,550296,,550295,,550324,8,400,,,
break_continue,html.Screen,4_118_2,2023-10-31T02:38:59.737Z,,0,,,NaN,,,,,,false,,,,550297,550297,,550297,,550324,8,400,,,
sequence,flow.Sequence,4_118,2023-10-31T02:38:59.737Z,,0,,,3873,completion,,,,,false,,,,550297,550297,546407,546418,546424,550324,8,400,,,
trial,html.Screen,4_119_0,2023-10-31T02:39:02.637Z,,0,3,,2872,response,ISIC_0062235.JPG,8,ISIC_0071040.JPG,ISIC_0062235.JPG,false,1,keypress(m),500,553197,553196,550307,550297,550324,553207,8,400,20,,ISIC_0071040.JPG
break,html.Screen,4_119_1,2023-10-31T02:39:02.638Z,,0,,,NaN,,,,,,false,,,,553198,553198,,553197,,553207,8,400,,,
break_continue,html.Screen,4_119_2,2023-10-31T02:39:02.639Z,,0,,,NaN,,,,,,false,,,,553199,553198,,553198,,553207,8,400,,,
sequence,flow.Sequence,4_119,2023-10-31T02:39:02.639Z,,0,,,2874,completion,,,,,false,,,,553199,553198,550307,550297,550324,553207,8,400,,,
trial,html.Screen,4_120_0,2023-10-31T02:39:05.396Z,,0,3,,2749,response,ISIC_7935007.JPG,7,ISIC_0033217.JPG,ISIC_7935007.JPG,false,1,keypress(m),500,555956,555956,553190,553199,553207,555958,8,400,21,,ISIC_0033217.JPG
break,html.Screen,4_120_1,2023-10-31T02:39:05.398Z,,0,,,NaN,,,,,,false,,,,555957,555957,,555957,,555958,8,400,,,
break_continue,html.Screen,4_120_2,2023-10-31T02:39:05.398Z,,0,,,NaN,,,,,,false,,,,555958,555958,,555958,,555958,8,400,,,
sequence,flow.Sequence,4_120,2023-10-31T02:39:05.398Z,,0,,,2751,completion,,,,,false,,,,555958,555958,553190,553199,553207,555958,8,400,,,
trial,html.Screen,4_121_0,2023-10-31T02:39:10.012Z,,0,3,,4614,response,ISIC_0024280.JPG,8,ISIC_0069933.JPG,ISIC_0024280.JPG,false,1,keypress(m),500,560573,560572,555941,555958,555958,560574,8,400,22,,ISIC_0069933.JPG
break,html.Screen,4_121_1,2023-10-31T02:39:10.013Z,,0,,,NaN,,,,,,false,,,,560573,560573,,560573,,560574,8,400,,,
break_continue,html.Screen,4_121_2,2023-10-31T02:39:10.014Z,,0,,,NaN,,,,,,false,,,,560575,560574,,560574,,560574,8,400,,,
sequence,flow.Sequence,4_121,2023-10-31T02:39:10.014Z,,0,,,4616,completion,,,,,false,,,,560575,560574,555941,555958,555958,560574,8,400,,,
trial,html.Screen,4_122_0,2023-10-31T02:39:12.744Z,,0,3,,2729,response,ISIC_0692990.JPG,8,ISIC_0031958.JPG,ISIC_0692990.JPG,false,1,keypress(m),500,563305,563303,560557,560575,560574,563307,8,400,23,,ISIC_0031958.JPG
break,html.Screen,4_122_1,2023-10-31T02:39:12.745Z,,0,,,NaN,,,,,,false,,,,563305,563305,,563305,,563307,8,400,,,
break_continue,html.Screen,4_122_2,2023-10-31T02:39:12.746Z,,0,,,NaN,,,,,,false,,,,563307,563306,,563306,,563307,8,400,,,
sequence,flow.Sequence,4_122,2023-10-31T02:39:12.746Z,,0,,,2732,completion,,,,,false,,,,563307,563306,560557,560575,560574,563307,8,400,,,
trial,html.Screen,4_123_0,2023-10-31T02:39:15.684Z,,0,3,,2936,response,ISIC_0071869.JPG,6,ISIC_6486856.JPG,ISIC_6486856.JPG,false,0,keypress(z),500,566243,566243,563291,563307,563307,566258,8,400,24,,ISIC_0071869.JPG
break,html.Screen,4_123_1,2023-10-31T02:39:15.685Z,,0,,,NaN,,,,,,false,,,,566245,566245,,566244,,566258,8,400,,,
break_continue,html.Screen,4_123_2,2023-10-31T02:39:15.685Z,,0,,,NaN,,,,,,false,,,,566246,566246,,566246,,566258,8,400,,,
sequence,flow.Sequence,4_123,2023-10-31T02:39:15.686Z,,0,,,2939,completion,,,,,false,,,,566246,566246,563291,563307,563307,566258,8,400,,,
trial,html.Screen,4_124_0,2023-10-31T02:39:18.809Z,,0,3,,3112,response,ISIC_0011943.JPG,7,ISIC_0000424.JPG,ISIC_0011943.JPG,false,1,keypress(m),500,569370,569370,566241,566246,566258,569374,8,400,25,,ISIC_0000424.JPG
break,html.Screen,4_124_1,2023-10-31T02:39:18.810Z,,0,,,NaN,,,,,,false,,,,569370,569370,,569370,,569374,8,400,,,
break_continue,html.Screen,4_124_2,2023-10-31T02:39:18.810Z,,0,,,NaN,,,,,,false,,,,569370,569370,,569370,,569374,8,400,,,
sequence,flow.Sequence,4_124,2023-10-31T02:39:18.811Z,,0,,,3112,completion,,,,,false,,,,569371,569370,566241,566246,566258,569374,8,400,,,
trial,html.Screen,4_125_0,2023-10-31T02:39:21.695Z,,0,3,,2881,response,ISIC_0066358.JPG,6,ISIC_8159779.JPG,ISIC_8159779.JPG,false,0,keypress(z),500,572255,572255,569358,569371,569374,572258,8,400,26,,ISIC_0066358.JPG
break,html.Screen,4_125_1,2023-10-31T02:39:21.696Z,,0,,,NaN,,,,,,false,,,,572256,572256,,572255,,572258,8,400,,,
break_continue,html.Screen,4_125_2,2023-10-31T02:39:21.696Z,,0,,,NaN,,,,,,false,,,,572257,572257,,572256,,572258,8,400,,,
sequence,flow.Sequence,4_125,2023-10-31T02:39:21.697Z,,0,,,2883,completion,,,,,false,,,,572258,572257,569358,569371,569374,572258,8,400,,,
trial,html.Screen,4_126_0,2023-10-31T02:39:25.653Z,,0,3,,3954,response,ISIC_0054043.JPG,8,ISIC_2087913.JPG,ISIC_2087913.JPG,false,0,keypress(z),500,576213,576212,572241,572258,572258,576275,8,400,27,,ISIC_0054043.JPG
break,html.Screen,4_126_1,2023-10-31T02:39:25.654Z,,0,,,NaN,,,,,,false,,,,576214,576214,,576213,,576275,8,400,,,
break_continue,html.Screen,4_126_2,2023-10-31T02:39:25.654Z,,0,,,NaN,,,,,,false,,,,576215,576214,,576214,,576275,8,400,,,
sequence,flow.Sequence,4_126,2023-10-31T02:39:25.654Z,,0,,,3956,completion,,,,,false,,,,576215,576214,572241,572258,572258,576275,8,400,,,
trial,html.Screen,4_127_0,2023-10-31T02:39:28.716Z,,0,3,,3001,response,ISIC_0059257.JPG,8,ISIC_2007034.JPG,ISIC_0059257.JPG,false,1,keypress(m),500,579276,579276,576242,576215,576275,579308,8,400,28,,ISIC_2007034.JPG
break,html.Screen,4_127_1,2023-10-31T02:39:28.717Z,,0,,,NaN,,,,,,false,,,,579277,579277,,579276,,579308,8,400,,,
break_continue,html.Screen,4_127_2,2023-10-31T02:39:28.717Z,,0,,,NaN,,,,,,false,,,,579278,579278,,579278,,579308,8,400,,,
sequence,flow.Sequence,4_127,2023-10-31T02:39:28.717Z,,0,,,3003,completion,,,,,false,,,,579278,579278,576242,576215,576275,579308,8,400,,,
trial,html.Screen,4_128_0,2023-10-31T02:39:32.387Z,,0,3,,3640,response,ISIC_4369035.JPG,8,ISIC_5548914.JPG,ISIC_5548914.JPG,false,0,keypress(z),500,582949,582948,579275,579278,579308,582975,8,400,29,,ISIC_4369035.JPG
break,html.Screen,4_128_1,2023-10-31T02:39:32.388Z,,0,,,NaN,,,,,,false,,,,582949,582949,,582949,,582975,8,400,,,
break_continue,html.Screen,4_128_2,2023-10-31T02:39:32.389Z,,0,,,NaN,,,,,,false,,,,582949,582949,,582949,,582975,8,400,,,
sequence,flow.Sequence,4_128,2023-10-31T02:39:32.389Z,,0,,,3641,completion,,,,,false,,,,582950,582949,579275,579278,579308,582975,8,400,,,
trial,html.Screen,4_129_0,2023-10-31T02:39:35.671Z,,0,3,,3257,response,ISIC_0594695.JPG,8,ISIC_0026010.JPG,ISIC_0594695.JPG,false,1,keypress(m),500,586232,586232,582941,582950,582975,586292,8,400,30,,ISIC_0026010.JPG
break,html.Screen,4_129_1,2023-10-31T02:39:35.673Z,,0,,,NaN,,,,,,false,,,,586234,586234,,586233,,586292,8,400,,,
break_continue,html.Screen,4_129_2,2023-10-31T02:39:35.673Z,,0,,,NaN,,,,,,false,,,,586234,586234,,586234,,586292,8,400,,,
sequence,flow.Sequence,4_129,2023-10-31T02:39:35.673Z,,0,,,3259,completion,,,,,false,,,,586235,586234,582941,582950,582975,586292,8,400,,,
trial,html.Screen,4_130_0,2023-10-31T02:39:39.503Z,,0,3,,3772,response,ISIC_6906476.JPG,7,ISIC_4332846.JPG,ISIC_4332846.JPG,false,0,keypress(z),500,590064,590064,586258,586235,586292,590092,8,400,31,,ISIC_6906476.JPG
break,html.Screen,4_130_1,2023-10-31T02:39:39.504Z,,0,,,NaN,,,,,,false,,,,590066,590066,,590065,,590092,8,400,,,
break_continue,html.Screen,4_130_2,2023-10-31T02:39:39.505Z,,0,,,NaN,,,,,,false,,,,590066,590066,,590066,,590092,8,400,,,
sequence,flow.Sequence,4_130,2023-10-31T02:39:39.505Z,,0,,,3774,completion,,,,,false,,,,590066,590066,586258,586235,586292,590092,8,400,,,
trial,html.Screen,4_131_0,2023-10-31T02:39:42.805Z,,0,3,,3274,response,ISIC_0030085.JPG,8,ISIC_0014431.JPG,ISIC_0014431.JPG,false,0,keypress(z),500,593366,593366,590058,590066,590092,593392,8,400,32,,ISIC_0030085.JPG
break,html.Screen,4_131_1,2023-10-31T02:39:42.806Z,,0,,,NaN,,,,,,false,,,,593368,593368,,593367,,593392,8,400,,,
break_continue,html.Screen,4_131_2,2023-10-31T02:39:42.807Z,,0,,,NaN,,,,,,false,,,,593368,593368,,593368,,593392,8,400,,,
sequence,flow.Sequence,4_131,2023-10-31T02:39:42.807Z,,0,,,3276,completion,,,,,false,,,,593368,593368,590058,590066,590092,593392,8,400,,,
trial,html.Screen,4_132_0,2023-10-31T02:39:45.901Z,,0,3,,3070,response,ISIC_6352730.JPG,9,ISIC_0055282.JPG,ISIC_6352730.JPG,false,1,keypress(m),500,596462,596462,593358,593368,593392,596492,8,400,33,,ISIC_0055282.JPG
break,html.Screen,4_132_1,2023-10-31T02:39:45.902Z,,0,,,NaN,,,,,,false,,,,596463,596463,,596462,,596492,8,400,,,
break_continue,html.Screen,4_132_2,2023-10-31T02:39:45.903Z,,0,,,NaN,,,,,,false,,,,596464,596464,,596464,,596492,8,400,,,
sequence,flow.Sequence,4_132,2023-10-31T02:39:45.903Z,,0,,,3072,completion,,,,,false,,,,596464,596464,593358,593368,593392,596492,8,400,,,
trial,html.Screen,4_133_0,2023-10-31T02:39:48.906Z,,0,3,,2975,response,ISIC_4427755.JPG,8,ISIC_0071208.JPG,ISIC_4427755.JPG,false,1,keypress(m),500,599467,599467,596459,596464,596492,599492,8,400,34,,ISIC_0071208.JPG
break,html.Screen,4_133_1,2023-10-31T02:39:48.907Z,,0,,,NaN,,,,,,false,,,,599469,599469,,599467,,599492,8,400,,,
break_continue,html.Screen,4_133_2,2023-10-31T02:39:48.907Z,,0,,,NaN,,,,,,false,,,,599469,599469,,599469,,599492,8,400,,,
sequence,flow.Sequence,4_133,2023-10-31T02:39:48.908Z,,0,,,2977,completion,,,,,false,,,,599469,599469,596459,596464,596492,599492,8,400,,,
trial,html.Screen,4_134_0,2023-10-31T02:39:52.096Z,,0,3,,3166,response,ISIC_0030747.JPG,7,ISIC_3478437.JPG,ISIC_0030747.JPG,false,1,keypress(m),500,602658,602658,599459,599469,599492,602692,8,400,35,,ISIC_3478437.JPG
break,html.Screen,4_134_1,2023-10-31T02:39:52.098Z,,0,,,NaN,,,,,,false,,,,602659,602658,,602658,,602692,8,400,,,
break_continue,html.Screen,4_134_2,2023-10-31T02:39:52.098Z,,0,,,NaN,,,,,,false,,,,602660,602660,,602660,,602692,8,400,,,
sequence,flow.Sequence,4_134,2023-10-31T02:39:52.098Z,,0,,,3168,completion,,,,,false,,,,602660,602660,599459,599469,599492,602692,8,400,,,
trial,html.Screen,4_135_0,2023-10-31T02:39:56.795Z,,0,3,,4663,response,ISIC_6162308.JPG,7,ISIC_1115160.JPG,ISIC_6162308.JPG,false,1,keypress(m),500,607356,607355,602659,602660,602692,607376,8,400,36,,ISIC_1115160.JPG
break,html.Screen,4_135_1,2023-10-31T02:39:56.796Z,,0,,,NaN,,,,,,false,,,,607357,607357,,607357,,607376,8,400,,,
break_continue,html.Screen,4_135_2,2023-10-31T02:39:56.796Z,,0,,,NaN,,,,,,false,,,,607358,607358,,607357,,607376,8,400,,,
sequence,flow.Sequence,4_135,2023-10-31T02:39:56.796Z,,0,,,4666,completion,,,,,false,,,,607358,607358,602659,602660,602692,607376,8,400,,,
trial,html.Screen,4_136_0,2023-10-31T02:40:00.341Z,,0,3,,3527,response,ISIC_0028692.JPG,8,ISIC_0028565.JPG,ISIC_0028565.JPG,false,0,keypress(z),500,610903,610903,607342,607358,607376,610926,8,400,37,,ISIC_0028692.JPG
break,html.Screen,4_136_1,2023-10-31T02:40:00.343Z,,0,,,NaN,,,,,,false,,,,610904,610904,,610904,,610926,8,400,,,
break_continue,html.Screen,4_136_2,2023-10-31T02:40:00.343Z,,0,,,NaN,,,,,,false,,,,610906,610905,,610905,,610926,8,400,,,
sequence,flow.Sequence,4_136,2023-10-31T02:40:00.344Z,,0,,,3529,completion,,,,,false,,,,610906,610905,607342,607358,607376,610926,8,400,,,
trial,html.Screen,4_137_0,2023-10-31T02:40:03.405Z,,0,3,,3041,response,ISIC_0060321.JPG,7,ISIC_8414421.JPG,ISIC_0060321.JPG,false,1,keypress(m),500,613967,613967,610892,610906,610926,613992,8,400,38,,ISIC_8414421.JPG
break,html.Screen,4_137_1,2023-10-31T02:40:03.406Z,,0,,,NaN,,,,,,false,,,,613968,613968,,613967,,613992,8,400,,,
break_continue,html.Screen,4_137_2,2023-10-31T02:40:03.406Z,,0,,,NaN,,,,,,false,,,,613968,613968,,613968,,613992,8,400,,,
sequence,flow.Sequence,4_137,2023-10-31T02:40:03.407Z,,0,,,3042,completion,,,,,false,,,,613968,613968,610892,610906,610926,613992,8,400,,,
trial,html.Screen,4_138_0,2023-10-31T02:40:07.203Z,,0,3,,3772,response,ISIC_7630831.JPG,6,ISIC_2337786.JPG,ISIC_7630831.JPG,false,1,keypress(m),500,617765,617764,613959,613969,613992,617793,8,400,39,,ISIC_2337786.JPG
break,html.Screen,4_138_1,2023-10-31T02:40:07.204Z,,0,,,NaN,,,,,,false,,,,617766,617766,,617765,,617793,8,400,,,
break_continue,html.Screen,4_138_2,2023-10-31T02:40:07.204Z,,0,,,NaN,,,,,,false,,,,617767,617766,,617766,,617793,8,400,,,
sequence,flow.Sequence,4_138,2023-10-31T02:40:07.204Z,,0,,,3774,completion,,,,,false,,,,617767,617766,613959,613968,613992,617793,8,400,,,
trial,html.Screen,4_139_0,2023-10-31T02:40:11.545Z,,0,3,,4314,response,ISIC_3564136.JPG,8,ISIC_0009908.JPG,ISIC_3564136.JPG,false,1,keypress(m),500,622108,622107,617759,617767,617793,622126,8,400,40,,ISIC_0009908.JPG
break,html.Screen,4_139_1,2023-10-31T02:40:11.547Z,,0,,,NaN,,,,,,false,,,,622109,622109,,622108,,622126,8,400,,,
break_continue,html.Screen,4_139_2,2023-10-31T02:40:11.547Z,,0,,,NaN,,,,,,false,,,,622109,622109,,622109,,622126,8,400,,,
sequence,flow.Sequence,4_139,2023-10-31T02:40:11.547Z,,0,,,4316,completion,,,,,false,,,,622109,622109,617759,617767,617793,622126,8,400,,,
trial,html.Screen,4_140_0,2023-10-31T02:40:19.459Z,,0,3,,7896,response,ISIC_0010803.JPG,7,ISIC_4257634.JPG,ISIC_0010803.JPG,false,1,keypress(m),500,630022,630022,622092,622110,622126,630043,8,400,41,,ISIC_4257634.JPG
break,html.Screen,4_140_1,2023-10-31T02:40:19.461Z,,0,,,NaN,,,,,,false,,,,630023,630023,,630022,,630043,8,400,,,
break_continue,html.Screen,4_140_2,2023-10-31T02:40:19.461Z,,0,,,NaN,,,,,,false,,,,630024,630024,,630024,,630043,8,400,,,
sequence,flow.Sequence,4_140,2023-10-31T02:40:19.461Z,,0,,,7898,completion,,,,,false,,,,630024,630024,622092,622110,622126,630043,8,400,,,
trial,html.Screen,4_141_0,2023-10-31T02:40:22.571Z,,0,3,,3090,response,ISIC_6739241.JPG,8,ISIC_0027407.JPG,ISIC_6739241.JPG,false,1,keypress(m),500,633133,633133,630009,630024,630043,633159,8,400,42,,ISIC_0027407.JPG
break,html.Screen,4_141_1,2023-10-31T02:40:22.572Z,,0,,,NaN,,,,,,false,,,,633135,633134,,633133,,633159,8,400,,,
break_continue,html.Screen,4_141_2,2023-10-31T02:40:22.573Z,,0,,,NaN,,,,,,false,,,,633135,633135,,633135,,633159,8,400,,,
sequence,flow.Sequence,4_141,2023-10-31T02:40:22.573Z,,0,,,3092,completion,,,,,false,,,,633135,633135,630009,630024,630043,633159,8,400,,,
trial,html.Screen,4_142_0,2023-10-31T02:40:25.425Z,,0,3,,2829,response,ISIC_0013032.JPG,7,ISIC_0026692.JPG,ISIC_0013032.JPG,false,1,keypress(m),500,635988,635988,633126,633136,633159,636009,8,400,43,,ISIC_0026692.JPG
break,html.Screen,4_142_1,2023-10-31T02:40:25.427Z,,0,,,NaN,,,,,,false,,,,635990,635989,,635988,,636009,8,400,,,
break_continue,html.Screen,4_142_2,2023-10-31T02:40:25.427Z,,0,,,NaN,,,,,,false,,,,635990,635990,,635990,,636009,8,400,,,
sequence,flow.Sequence,4_142,2023-10-31T02:40:25.427Z,,0,,,2831,completion,,,,,false,,,,635990,635990,633126,633136,633159,636009,8,400,,,
trial,html.Screen,4_143_0,2023-10-31T02:40:27.943Z,,0,3,,2496,response,ISIC_4538207.JPG,8,ISIC_0069058.JPG,ISIC_4538207.JPG,false,1,keypress(m),500,638505,638505,635976,635990,636009,638527,8,400,44,,ISIC_0069058.JPG
break,html.Screen,4_143_1,2023-10-31T02:40:27.944Z,,0,,,NaN,,,,,,false,,,,638507,638507,,638506,,638527,8,400,,,
break_continue,html.Screen,4_143_2,2023-10-31T02:40:27.944Z,,0,,,NaN,,,,,,false,,,,638507,638507,,638507,,638527,8,400,,,
sequence,flow.Sequence,4_143,2023-10-31T02:40:27.945Z,,0,,,2498,completion,,,,,false,,,,638507,638507,635976,635990,636009,638527,8,400,,,
trial,html.Screen,4_144_0,2023-10-31T02:40:30.459Z,,0,3,,2494,response,ISIC_0029163.JPG,4,ISIC_0026204.JPG,ISIC_0026204.JPG,false,0,keypress(z),500,641021,641021,638493,638508,638527,641043,8,400,45,,ISIC_0029163.JPG
break,html.Screen,4_144_1,2023-10-31T02:40:30.460Z,,0,,,NaN,,,,,,false,,,,641023,641023,,641023,,641043,8,400,,,
break_continue,html.Screen,4_144_2,2023-10-31T02:40:30.461Z,,0,,,NaN,,,,,,false,,,,641023,641023,,641023,,641043,8,400,,,
sequence,flow.Sequence,4_144,2023-10-31T02:40:30.461Z,,0,,,2496,completion,,,,,false,,,,641024,641023,638493,638508,638527,641043,8,400,,,
trial,html.Screen,4_145_0,2023-10-31T02:40:33.667Z,,0,3,,3187,response,ISIC_0000860.JPG,5,ISIC_8483458.JPG,ISIC_0000860.JPG,false,1,keypress(m),500,644230,644230,641010,641024,641043,644260,8,400,46,,ISIC_8483458.JPG
break,html.Screen,4_145_1,2023-10-31T02:40:33.668Z,,0,,,NaN,,,,,,false,,,,644231,644231,,644230,,644260,8,400,,,
break_continue,html.Screen,4_145_2,2023-10-31T02:40:33.670Z,,0,,,NaN,,,,,,false,,,,644233,644233,,644233,,644260,8,400,,,
sequence,flow.Sequence,4_145,2023-10-31T02:40:33.670Z,,0,,,3190,completion,,,,,false,,,,644234,644233,641010,641024,641043,644260,8,400,,,
trial,html.Screen,4_146_0,2023-10-31T02:40:36.476Z,,0,3,,2779,response,ISIC_2345504.JPG,7,ISIC_0004352.JPG,ISIC_2345504.JPG,false,1,keypress(m),500,647039,647039,644226,644234,644260,647060,8,400,47,,ISIC_0004352.JPG
break,html.Screen,4_146_1,2023-10-31T02:40:36.477Z,,0,,,NaN,,,,,,false,,,,647040,647040,,647039,,647060,8,400,,,
break_continue,html.Screen,4_146_2,2023-10-31T02:40:36.477Z,,0,,,NaN,,,,,,false,,,,647041,647041,,647040,,647060,8,400,,,
sequence,flow.Sequence,4_146,2023-10-31T02:40:36.477Z,,0,,,2781,completion,,,,,false,,,,647041,647041,644226,644234,644260,647060,8,400,,,
trial,html.Screen,4_147_0,2023-10-31T02:40:40.051Z,,0,3,,3553,response,ISIC_0060585.JPG,8,ISIC_0033454.JPG,ISIC_0060585.JPG,false,1,keypress(m),500,650614,650613,647026,647041,647060,650643,8,400,48,,ISIC_0033454.JPG
break,html.Screen,4_147_1,2023-10-31T02:40:40.052Z,,0,,,NaN,,,,,,false,,,,650615,650615,,650615,,650643,8,400,,,
break_continue,html.Screen,4_147_2,2023-10-31T02:40:40.053Z,,0,,,NaN,,,,,,false,,,,650616,650616,,650616,,650643,8,400,,,
sequence,flow.Sequence,4_147,2023-10-31T02:40:40.053Z,,0,,,3556,completion,,,,,false,,,,650616,650616,647026,647041,647060,650643,8,400,,,
trial,html.Screen,4_148_0,2023-10-31T02:40:42.696Z,,0,3,,2616,response,ISIC_5557025.JPG,7,ISIC_0054006.JPG,ISIC_5557025.JPG,false,1,keypress(m),500,653259,653259,650610,650617,650643,653293,8,400,49,,ISIC_0054006.JPG
break,html.Screen,4_148_1,2023-10-31T02:40:42.697Z,,0,,,NaN,,,,,,false,,,,653260,653260,,653259,,653293,8,400,,,
break_continue,html.Screen,4_148_2,2023-10-31T02:40:42.698Z,,0,,,NaN,,,,,,false,,,,653261,653261,,653260,,653293,8,400,,,
sequence,flow.Sequence,4_148,2023-10-31T02:40:42.698Z,,0,,,2618,completion,,,,,false,,,,653261,653261,650610,650617,650643,653293,8,400,,,
trial,html.Screen,4_149_0,2023-10-31T02:40:46.814Z,,0,3,,4084,response,ISIC_7533983.JPG,9,ISIC_2795397.JPG,ISIC_2795397.JPG,false,0,keypress(z),500,657377,657377,653260,653261,653293,657410,8,400,50,,ISIC_7533983.JPG
break,html.Screen,4_149_1,2023-10-31T02:40:56.817Z,,0,,,10000,timeout,,,,,false,,,,667380,667377,657377,657378,657410,667410,8,400,,,
break_continue,html.Screen,4_149_2,2023-10-31T02:41:04.442Z,,0,,,7575,response,,,,,false,continue,keypress(Space),,675006,674985,667377,667381,667410,675028,8,400,,,
sequence,flow.Sequence,4_149,2023-10-31T02:41:04.443Z,,0,,,21692,completion,,,,,false,,,,675006,674985,653260,653261,653293,675028,8,400,,,
trial,html.Screen,4_150_0,2023-10-31T02:41:08.239Z,,0,4,,3774,response,ISIC_0028109.JPG,7,ISIC_6824842.JPG,ISIC_6824842.JPG,false,0,keypress(z),500,678803,678802,674994,675006,675028,678827,8,400,1,,ISIC_0028109.JPG
break,html.Screen,4_150_1,2023-10-31T02:41:08.240Z,,0,,,NaN,,,,,,false,,,,678804,678804,,678803,,678827,8,400,,,
break_continue,html.Screen,4_150_2,2023-10-31T02:41:08.241Z,,0,,,NaN,,,,,,false,,,,678804,678804,,678804,,678827,8,400,,,
sequence,flow.Sequence,4_150,2023-10-31T02:41:08.241Z,,0,,,3776,completion,,,,,false,,,,678805,678804,674994,675006,675028,678827,8,400,,,
trial,html.Screen,4_151_0,2023-10-31T02:41:10.906Z,,0,4,,2643,response,ISIC_0000240.JPG,8,ISIC_0010049.JPG,ISIC_0000240.JPG,false,1,keypress(m),500,681470,681470,678794,678805,678827,681494,8,400,2,,ISIC_0010049.JPG
break,html.Screen,4_151_1,2023-10-31T02:41:10.907Z,,0,,,NaN,,,,,,false,,,,681471,681471,,681470,,681494,8,400,,,
break_continue,html.Screen,4_151_2,2023-10-31T02:41:10.907Z,,0,,,NaN,,,,,,false,,,,681471,681471,,681471,,681494,8,400,,,
sequence,flow.Sequence,4_151,2023-10-31T02:41:10.908Z,,0,,,2644,completion,,,,,false,,,,681472,681471,678794,678805,678827,681494,8,400,,,
trial,html.Screen,4_152_0,2023-10-31T02:41:13.569Z,,0,4,,2638,response,ISIC_0031365.JPG,7,ISIC_0010140.JPG,ISIC_0031365.JPG,false,1,keypress(m),500,684133,684132,681461,681472,681494,684160,8,400,3,,ISIC_0010140.JPG
break,html.Screen,4_152_1,2023-10-31T02:41:13.570Z,,0,,,NaN,,,,,,false,,,,684135,684134,,684134,,684160,8,400,,,
break_continue,html.Screen,4_152_2,2023-10-31T02:41:13.570Z,,0,,,NaN,,,,,,false,,,,684135,684135,,684135,,684160,8,400,,,
sequence,flow.Sequence,4_152,2023-10-31T02:41:13.571Z,,0,,,2641,completion,,,,,false,,,,684135,684135,681461,681472,681494,684160,8,400,,,
trial,html.Screen,4_153_0,2023-10-31T02:41:16.310Z,,0,4,,2714,response,ISIC_8108099.JPG,7,ISIC_0062770.JPG,ISIC_8108099.JPG,false,1,keypress(m),500,686875,686874,684127,684135,684160,686894,8,400,4,,ISIC_0062770.JPG
break,html.Screen,4_153_1,2023-10-31T02:41:16.312Z,,0,,,NaN,,,,,,false,,,,686876,686876,,686875,,686894,8,400,,,
break_continue,html.Screen,4_153_2,2023-10-31T02:41:16.312Z,,0,,,NaN,,,,,,false,,,,686876,686876,,686876,,686894,8,400,,,
sequence,flow.Sequence,4_153,2023-10-31T02:41:16.312Z,,0,,,2716,completion,,,,,false,,,,686876,686876,684127,684135,684160,686894,8,400,,,
trial,html.Screen,4_154_0,2023-10-31T02:41:19.005Z,,0,4,,2675,response,ISIC_0034022.JPG,8,ISIC_8130596.JPG,ISIC_0034022.JPG,false,1,keypress(m),500,689570,689569,686861,686876,686894,689594,8,400,5,,ISIC_8130596.JPG
break,html.Screen,4_154_1,2023-10-31T02:41:19.007Z,,0,,,NaN,,,,,,false,,,,689571,689571,,689570,,689594,8,400,,,
break_continue,html.Screen,4_154_2,2023-10-31T02:41:19.007Z,,0,,,NaN,,,,,,false,,,,689572,689571,,689571,,689594,8,400,,,
sequence,flow.Sequence,4_154,2023-10-31T02:41:19.007Z,,0,,,2677,completion,,,,,false,,,,689572,689571,686861,686876,686894,689594,8,400,,,
trial,html.Screen,4_155_0,2023-10-31T02:41:21.812Z,,0,4,,2782,response,ISIC_0071171.JPG,6,ISIC_5229861.JPG,ISIC_5229861.JPG,false,0,keypress(z),500,692376,692376,689561,689572,689594,692394,8,400,6,,ISIC_0071171.JPG
break,html.Screen,4_155_1,2023-10-31T02:41:21.813Z,,0,,,NaN,,,,,,false,,,,692377,692377,,692376,,692394,8,400,,,
break_continue,html.Screen,4_155_2,2023-10-31T02:41:21.813Z,,0,,,NaN,,,,,,false,,,,692378,692377,,692377,,692394,8,400,,,
sequence,flow.Sequence,4_155,2023-10-31T02:41:21.813Z,,0,,,2783,completion,,,,,false,,,,692378,692377,689561,689572,689594,692394,8,400,,,
trial,html.Screen,4_156_0,2023-10-31T02:41:24.858Z,,0,4,,3029,response,ISIC_0013977.JPG,8,ISIC_0024268.JPG,ISIC_0024268.JPG,false,0,keypress(z),500,695424,695423,692361,692378,692394,695444,8,400,7,,ISIC_0013977.JPG
break,html.Screen,4_156_1,2023-10-31T02:41:24.860Z,,0,,,NaN,,,,,,false,,,,695424,695424,,695424,,695444,8,400,,,
break_continue,html.Screen,4_156_2,2023-10-31T02:41:24.860Z,,0,,,NaN,,,,,,false,,,,695424,695424,,695424,,695444,8,400,,,
sequence,flow.Sequence,4_156,2023-10-31T02:41:24.860Z,,0,,,3030,completion,,,,,false,,,,695425,695424,692361,692378,692394,695444,8,400,,,
trial,html.Screen,4_157_0,2023-10-31T02:41:28.305Z,,0,4,,3425,response,ISIC_9944671.JPG,9,ISIC_0054705.JPG,ISIC_0054705.JPG,false,0,keypress(z),500,698869,698869,695411,695425,695444,698895,8,400,8,,ISIC_9944671.JPG
break,html.Screen,4_157_1,2023-10-31T02:41:28.306Z,,0,,,NaN,,,,,,false,,,,698871,698870,,698870,,698895,8,400,,,
break_continue,html.Screen,4_157_2,2023-10-31T02:41:28.307Z,,0,,,NaN,,,,,,false,,,,698871,698871,,698871,,698895,8,400,,,
sequence,flow.Sequence,4_157,2023-10-31T02:41:28.307Z,,0,,,3427,completion,,,,,false,,,,698871,698871,695411,695425,695444,698895,8,400,,,
trial,html.Screen,4_158_0,2023-10-31T02:41:30.998Z,,0,4,,2668,response,ISIC_7948290.JPG,6,ISIC_0072496.JPG,ISIC_7948290.JPG,false,1,keypress(m),500,701563,701563,698861,698871,698895,701594,8,400,9,,ISIC_0072496.JPG
break,html.Screen,4_158_1,2023-10-31T02:41:30.999Z,,0,,,NaN,,,,,,false,,,,701564,701564,,701563,,701594,8,400,,,
break_continue,html.Screen,4_158_2,2023-10-31T02:41:31.000Z,,0,,,NaN,,,,,,false,,,,701565,701564,,701564,,701594,8,400,,,
sequence,flow.Sequence,4_158,2023-10-31T02:41:31.000Z,,0,,,2669,completion,,,,,false,,,,701565,701564,698861,698871,698895,701594,8,400,,,
trial,html.Screen,4_159_0,2023-10-31T02:41:33.709Z,,0,4,,2679,response,ISIC_7590292.JPG,7,ISIC_0013565.JPG,ISIC_7590292.JPG,false,1,keypress(m),500,704274,704273,701561,701565,701594,704294,8,400,10,,ISIC_0013565.JPG
break,html.Screen,4_159_1,2023-10-31T02:41:33.710Z,,0,,,NaN,,,,,,false,,,,704275,704275,,704274,,704294,8,400,,,
break_continue,html.Screen,4_159_2,2023-10-31T02:41:33.711Z,,0,,,NaN,,,,,,false,,,,704276,704276,,704275,,704294,8,400,,,
sequence,flow.Sequence,4_159,2023-10-31T02:41:33.711Z,,0,,,2682,completion,,,,,false,,,,704276,704276,701561,701565,701594,704294,8,400,,,
trial,html.Screen,4_160_0,2023-10-31T02:41:36.371Z,,0,4,,2642,response,ISIC_0009941.JPG,7,ISIC_0030575.JPG,ISIC_0009941.JPG,false,1,keypress(m),500,706937,706936,704261,704276,704294,706962,8,400,11,,ISIC_0030575.JPG
break,html.Screen,4_160_1,2023-10-31T02:41:36.373Z,,0,,,NaN,,,,,,false,,,,706937,706937,,706937,,706962,8,400,,,
break_continue,html.Screen,4_160_2,2023-10-31T02:41:36.373Z,,0,,,NaN,,,,,,false,,,,706937,706937,,706937,,706962,8,400,,,
sequence,flow.Sequence,4_160,2023-10-31T02:41:36.373Z,,0,,,2643,completion,,,,,false,,,,706938,706937,704261,704276,704294,706962,8,400,,,
trial,html.Screen,4_161_0,2023-10-31T02:41:38.986Z,,0,4,,2589,response,ISIC_0011715.JPG,6,ISIC_0026685.JPG,ISIC_0026685.JPG,false,0,keypress(z),500,709551,709551,706928,706938,706962,709578,8,400,12,,ISIC_0011715.JPG
break,html.Screen,4_161_1,2023-10-31T02:41:38.988Z,,0,,,NaN,,,,,,false,,,,709552,709552,,709551,,709578,8,400,,,
break_continue,html.Screen,4_161_2,2023-10-31T02:41:38.988Z,,0,,,NaN,,,,,,false,,,,709553,709553,,709552,,709578,8,400,,,
sequence,flow.Sequence,4_161,2023-10-31T02:41:38.988Z,,0,,,2591,completion,,,,,false,,,,709553,709553,706928,706938,706962,709578,8,400,,,
trial,html.Screen,4_162_0,2023-10-31T02:41:43.845Z,,0,4,,4832,response,ISIC_0014291.JPG,8,ISIC_0033213.JPG,ISIC_0014291.JPG,false,1,keypress(m),500,714410,714410,709545,709553,709578,714428,8,400,13,,ISIC_0033213.JPG
break,html.Screen,4_162_1,2023-10-31T02:41:43.846Z,,0,,,NaN,,,,,,false,,,,714412,714411,,714410,,714428,8,400,,,
break_continue,html.Screen,4_162_2,2023-10-31T02:41:43.847Z,,0,,,NaN,,,,,,false,,,,714412,714412,,714412,,714428,8,400,,,
sequence,flow.Sequence,4_162,2023-10-31T02:41:43.847Z,,0,,,4834,completion,,,,,false,,,,714412,714412,709545,709553,709578,714428,8,400,,,
trial,html.Screen,4_163_0,2023-10-31T02:41:47.914Z,,0,4,,4051,response,ISIC_0062997.JPG,8,ISIC_4964478.JPG,ISIC_4964478.JPG,false,0,keypress(z),500,718479,718479,714395,714412,714428,718512,8,400,14,,ISIC_0062997.JPG
break,html.Screen,4_163_1,2023-10-31T02:41:47.915Z,,0,,,NaN,,,,,,false,,,,718480,718480,,718479,,718512,8,400,,,
break_continue,html.Screen,4_163_2,2023-10-31T02:41:47.916Z,,0,,,NaN,,,,,,false,,,,718481,718481,,718480,,718512,8,400,,,
