sender,sender_type,sender_id,timestamp,meta,,blockNo,condition,duration,ended_on,img_left,img_reveal,img_right,loser,practice,response,response_action,selection_duration,time_commit,time_end,time_render,time_run,time_show,time_switch,total_blocks,total_trials,trialNo,url,winner
informed_consent,html.Screen,0,2023-05-01T23:53:30.678Z,"{""labjs_version"":""20.2.4"",""labjs_build"":{""flavor"":""production"",""commit"":""f5b4a49f956347addd546a832a3327688c2c0fef""},""location"":""https://run.pavlovia.org/MurrayBennett/melanoma-2afc/?participant=65215"",""userAgent"":""Mozilla/5.0 (Windows NT 10.0; Win64; x64) AppleWebKit/537.36 (KHTML, like Gecko) Chrome/112.0.0.0 Safari/537.36"",""platform"":""Win32"",""language"":""en-US"",""locale"":""en-US"",""timeZone"":""America/Chicago"",""timezoneOffset"":300,""screen_width"":2560,""screen_height"":1440,""scroll_width"":2560,""scroll_height"":1249,""window_innerWidth"":2560,""window_innerHeight"":1297,""devicePixelRatio"":1.5}",,,,4939.19800000298,response,,,,,,consent,click button,,8117.4000000059605,8116.20000000298,3160.324,3146,3177.002,8127.24,,,,"{""participant"":""65215""}",
Welcome,html.Screen,1,2023-05-01T23:54:59.882Z,,,,regular,89193.76,response,,,,,,continue,click button,,97321.70000000298,97321,8110.512,8117.600000008941,8127.24,97331.055,,,,,
trial,html.Screen,2_0_0,2023-05-01T23:55:07.459Z,,0,0,,7567.745000011928,response,ISIC_0061792.JPG,,ISIC_4679428.JPG,ISIC_0061792.JPG,true,1,keypress(m),500,104898.90000000596,104898.80000001192,97314.396,97321.90000000596,97331.055,104915.366,1,6,1,,ISIC_4679428.JPG
sequence,flow.Sequence,2_0,2023-05-01T23:55:07.460Z,,0,,,7567.745000011928,completion,,,,,true,,,,104899.10000000894,104898.80000001192,97314.396,97321.90000000596,97331.055,104915.366,1,6,,,
trial,html.Screen,2_1_0,2023-05-01T23:55:12.212Z,,0,0,,4735.734000008946,response,ISIC_0776486.JPG,,ISIC_5199497.JPG,ISIC_0776486.JPG,true,1,keypress(m),500,109651.20000000298,109651.10000000894,104898.031,104899.20000000298,104915.366,109664.98,1,6,2,,ISIC_5199497.JPG
sequence,flow.Sequence,2_1,2023-05-01T23:55:12.212Z,,0,,,4735.734000008946,completion,,,,,true,,,,109651.40000000596,109651.10000000894,104898.031,104899.20000000298,104915.366,109664.98,1,6,,,
trial,html.Screen,2_2_0,2023-05-01T23:55:17.939Z,,0,0,,5713.320000011925,response,ISIC_2556187.JPG,,ISIC_8575776.JPG,ISIC_8575776.JPG,true,0,keypress(z),500,115378.5,115378.30000001192,109648.286,109651.40000000596,109664.98,115381.847,1,6,3,,ISIC_2556187.JPG
sequence,flow.Sequence,2_2,2023-05-01T23:55:17.939Z,,0,,,5713.320000011925,completion,,,,,true,,,,115378.60000000894,115378.30000001192,109648.286,109651.40000000596,109664.98,115381.847,1,6,,,
trial,html.Screen,2_3_0,2023-05-01T23:55:21.946Z,,0,0,,4003.853000002986,response,ISIC_8141769.JPG,,ISIC_9238366.JPG,ISIC_9238366.JPG,true,0,keypress(z),500,119385.80000001192,119385.70000000298,115365.149,115378.70000000298,115381.847,119398.704,1,6,4,,ISIC_8141769.JPG
sequence,flow.Sequence,2_3,2023-05-01T23:55:21.946Z,,0,,,4003.853000002986,completion,,,,,true,,,,119386,119385.70000000298,115365.149,115378.60000000894,115381.847,119398.704,1,6,,,
trial,html.Screen,2_4_0,2023-05-01T23:55:26.443Z,,0,0,,4483.896000008943,response,ISIC_8949026.JPG,,ISIC_9959593.JPG,ISIC_8949026.JPG,true,1,keypress(m),500,123882.70000000298,123882.60000000894,119381.984,119386.10000000894,119398.704,123898.868,1,6,5,,ISIC_9959593.JPG
sequence,flow.Sequence,2_4,2023-05-01T23:55:26.443Z,,0,,,4483.896000008943,completion,,,,,true,,,,123882.90000000596,123882.60000000894,119381.984,119386.10000000894,119398.704,123898.868,1,6,,,
trial,html.Screen,2_5_0,2023-05-01T23:55:29.738Z,,0,0,,3278.631999999998,response,ISIC_0010479.JPG,,ISIC_0460240.JPG,ISIC_0010479.JPG,true,1,keypress(m),500,127177.60000000894,127177.5,123882.175,123882.90000000596,123898.868,127182.371,1,6,6,,ISIC_0460240.JPG
sequence,flow.Sequence,2_5,2023-05-01T23:55:29.738Z,,0,,,3278.631999999998,completion,,,,,true,,,,127177.80000001192,127177.5,123882.175,123882.90000000596,123898.868,127182.371,1,6,,,
loop,flow.Loop,2,2023-05-01T23:55:29.738Z,,,,,29846.445000000007,completion,,,,,true,,,,127177.90000000596,127177.5,97314.396,97321.80000001192,97331.055,127182.371,1,6,,,
exp_instructions,html.Screen,3,2023-05-01T23:55:36.302Z,,,,,6559.029000005961,response,,,,,,continue,keypress(Space),,133741.80000001192,133741.40000000596,127165.644,127178,127182.371,133749.313,,,,,
trial,html.Screen,4_0_0,2023-05-01T23:55:39.563Z,,0,1,,3253.1870000000054,response,ISIC_2151856.JPG,,ISIC_5675703.JPG,ISIC_5675703.JPG,false,0,keypress(z),500,137002.70000000298,137002.5,133732.631,133742,133749.313,137016.176,8,400,1,,ISIC_2151856.JPG
break,html.Screen,4_0_1,2023-05-01T23:55:39.564Z,,0,,,NaN,,,,,,false,,,,137003.10000000894,137003,,137002.70000000298,,137016.176,8,400,,,
break_continue,html.Screen,4_0_2,2023-05-01T23:55:39.564Z,,0,,,NaN,,,,,,false,,,,137003.40000000596,137003.20000000298,,137003.20000000298,,137016.176,8,400,,,
sequence,flow.Sequence,4_0,2023-05-01T23:55:39.564Z,,0,,,3253.8870000029856,completion,,,,,false,,,,137003.40000000596,137003.20000000298,133732.631,133742,133749.313,137016.176,8,400,,,
trial,html.Screen,4_1_0,2023-05-01T23:55:42.491Z,,0,1,,2913.8239999999932,response,ISIC_6507412.JPG,,ISIC_8120622.JPG,ISIC_6507412.JPG,false,1,keypress(m),500,139930.10000000894,139930,136999.435,137003.5,137016.176,139932.935,8,400,2,,ISIC_8120622.JPG
break,html.Screen,4_1_1,2023-05-01T23:55:42.491Z,,0,,,NaN,,,,,,false,,,,139930.60000000894,139930.5,,139930.20000000298,,139932.935,8,400,,,
break_continue,html.Screen,4_1_2,2023-05-01T23:55:42.491Z,,0,,,NaN,,,,,,false,,,,139930.80000001192,139930.80000001192,,139930.60000000894,,139932.935,8,400,,,
sequence,flow.Sequence,4_1,2023-05-01T23:55:42.492Z,,0,,,2914.624000011914,completion,,,,,false,,,,139930.80000001192,139930.80000001192,136999.435,137003.5,137016.176,139932.935,8,400,,,
trial,html.Screen,4_2_0,2023-05-01T23:55:45.739Z,,0,1,,3244.8650000119233,response,ISIC_8684147.JPG,,ISIC_0026398.JPG,ISIC_8684147.JPG,false,1,keypress(m),500,143178,143177.80000001192,139916.251,139930.90000000596,139932.935,143183.07,8,400,3,,ISIC_0026398.JPG
break,html.Screen,4_2_1,2023-05-01T23:55:45.739Z,,0,,,NaN,,,,,,false,,,,143178.5,143178.40000000596,,143178.10000000894,,143183.07,8,400,,,
break_continue,html.Screen,4_2_2,2023-05-01T23:55:45.739Z,,0,,,NaN,,,,,,false,,,,143178.60000000894,143178.60000000894,,143178.5,,143183.07,8,400,,,
sequence,flow.Sequence,4_2,2023-05-01T23:55:45.739Z,,0,,,3245.665000008943,completion,,,,,false,,,,143178.70000000298,143178.60000000894,139916.251,139930.90000000596,139932.935,143183.07,8,400,,,
trial,html.Screen,4_3_0,2023-05-01T23:55:49.772Z,,0,1,,4027.730000011914,response,ISIC_9876004.JPG,,ISIC_0059432.JPG,ISIC_9876004.JPG,false,1,keypress(m),500,147210.90000000596,147210.80000001192,143166.546,143178.80000001192,143183.07,147216.583,8,400,4,,ISIC_0059432.JPG
break,html.Screen,4_3_1,2023-05-01T23:55:49.772Z,,0,,,NaN,,,,,,false,,,,147211.30000001192,147211.20000000298,,147211,,147216.583,8,400,,,
break_continue,html.Screen,4_3_2,2023-05-01T23:55:49.772Z,,0,,,NaN,,,,,,false,,,,147211.5,147211.40000000596,,147211.30000001192,,147216.583,8,400,,,
sequence,flow.Sequence,4_3,2023-05-01T23:55:49.772Z,,0,,,4028.3300000059535,completion,,,,,false,,,,147211.5,147211.40000000596,143166.546,143178.80000001192,143183.07,147216.583,8,400,,,
trial,html.Screen,4_4_0,2023-05-01T23:55:54.859Z,,0,1,,5081.717000011908,response,ISIC_0024567.JPG,,ISIC_1937197.JPG,ISIC_1937197.JPG,false,0,keypress(z),500,152298.40000000596,152298.30000001192,147199.864,147211.60000000894,147216.583,152300.161,8,400,5,,ISIC_0024567.JPG
break,html.Screen,4_4_1,2023-05-01T23:55:54.860Z,,0,,,NaN,,,,,,false,,,,152298.90000000596,152298.80000001192,,152298.5,,152300.161,8,400,,,
break_continue,html.Screen,4_4_2,2023-05-01T23:55:54.860Z,,0,,,NaN,,,,,,false,,,,152299.10000000894,152299.10000000894,,152298.90000000596,,152300.161,8,400,,,
sequence,flow.Sequence,4_4,2023-05-01T23:55:54.860Z,,0,,,5082.517000008927,completion,,,,,false,,,,152299.20000000298,152299.10000000894,147199.864,147211.60000000894,147216.583,152300.161,8,400,,,
trial,html.Screen,4_5_0,2023-05-01T23:56:00.692Z,,0,1,,5831.139000011928,response,ISIC_5964173.JPG,,ISIC_0030695.JPG,ISIC_0030695.JPG,false,0,keypress(z),500,158131.40000000596,158131.30000001192,152283.453,152299.20000000298,152300.161,158133.724,8,400,6,,ISIC_5964173.JPG
break,html.Screen,4_5_1,2023-05-01T23:56:00.693Z,,0,,,NaN,,,,,,false,,,,158131.90000000596,158131.70000000298,,158131.5,,158133.724,8,400,,,
break_continue,html.Screen,4_5_2,2023-05-01T23:56:00.693Z,,0,,,NaN,,,,,,false,,,,158132.20000000298,158132.10000000894,,158132,,158133.724,8,400,,,
sequence,flow.Sequence,4_5,2023-05-01T23:56:00.693Z,,0,,,5831.939000008948,completion,,,,,false,,,,158132.30000001192,158132.10000000894,152283.453,152299.20000000298,152300.161,158133.724,8,400,,,
trial,html.Screen,4_6_0,2023-05-01T23:56:06.803Z,,0,1,,6108.776000000013,response,ISIC_0056391.JPG,,ISIC_0054244.JPG,ISIC_0056391.JPG,false,1,keypress(m),500,164242.60000000894,164242.5,158116.987,158132.30000001192,158133.724,164250.628,8,400,7,,ISIC_0054244.JPG
break,html.Screen,4_6_1,2023-05-01T23:56:06.804Z,,0,,,NaN,,,,,,false,,,,164243.10000000894,164242.90000000596,,164242.80000001192,,164250.628,8,400,,,
break_continue,html.Screen,4_6_2,2023-05-01T23:56:06.804Z,,0,,,NaN,,,,,,false,,,,164243.20000000298,164243.20000000298,,164243.10000000894,,164250.628,8,400,,,
sequence,flow.Sequence,4_6,2023-05-01T23:56:06.804Z,,0,,,6109.476000002993,completion,,,,,false,,,,164243.40000000596,164243.20000000298,158116.987,158132.30000001192,158133.724,164250.628,8,400,,,
trial,html.Screen,4_7_0,2023-05-01T23:56:09.995Z,,0,1,,3183.0720000029833,response,ISIC_0058428.JPG,,ISIC_4930632.JPG,ISIC_0058428.JPG,false,1,keypress(m),500,167433.90000000596,167433.70000000298,164234.122,164243.40000000596,164250.628,167450.822,8,400,8,,ISIC_4930632.JPG
break,html.Screen,4_7_1,2023-05-01T23:56:09.995Z,,0,,,NaN,,,,,,false,,,,167434.30000001192,167434.20000000298,,167434,,167450.822,8,400,,,
break_continue,html.Screen,4_7_2,2023-05-01T23:56:09.995Z,,0,,,NaN,,,,,,false,,,,167434.5,167434.40000000596,,167434.40000000596,,167450.822,8,400,,,
sequence,flow.Sequence,4_7,2023-05-01T23:56:09.995Z,,0,,,3183.7720000059635,completion,,,,,false,,,,167434.5,167434.40000000596,164234.122,164243.40000000596,164250.628,167450.822,8,400,,,
trial,html.Screen,4_8_0,2023-05-01T23:56:13.581Z,,0,1,,3569.1780000000144,response,ISIC_6271218.JPG,,ISIC_0541345.JPG,ISIC_6271218.JPG,false,1,keypress(m),500,171020.10000000894,171020,167417.794,167434.70000000298,167450.822,171034.258,8,400,9,,ISIC_0541345.JPG
break,html.Screen,4_8_1,2023-05-01T23:56:13.581Z,,0,,,NaN,,,,,,false,,,,171020.60000000894,171020.5,,171020.20000000298,,171034.258,8,400,,,
break_continue,html.Screen,4_8_2,2023-05-01T23:56:13.581Z,,0,,,NaN,,,,,,false,,,,171020.80000001192,171020.80000001192,,171020.70000000298,,171034.258,8,400,,,
sequence,flow.Sequence,4_8,2023-05-01T23:56:13.582Z,,0,,,3569.9780000119354,completion,,,,,false,,,,171020.90000000596,171020.80000001192,167417.794,167434.60000000894,167450.822,171034.258,8,400,,,
trial,html.Screen,4_9_0,2023-05-01T23:56:18.155Z,,0,1,,4560.142000005959,response,ISIC_5425721.JPG,,ISIC_0072182.JPG,ISIC_0072182.JPG,false,0,keypress(z),500,175594.5,175594.40000000596,171017.62,171021,171034.258,175601.134,8,400,10,,ISIC_5425721.JPG
break,html.Screen,4_9_1,2023-05-01T23:56:18.156Z,,0,,,NaN,,,,,,false,,,,175594.90000000596,175594.90000000596,,175594.60000000894,,175601.134,8,400,,,
break_continue,html.Screen,4_9_2,2023-05-01T23:56:18.156Z,,0,,,NaN,,,,,,false,,,,175595.10000000894,175595.10000000894,,175595,,175601.134,8,400,,,
sequence,flow.Sequence,4_9,2023-05-01T23:56:18.156Z,,0,,,4560.842000008939,completion,,,,,false,,,,175595.20000000298,175595.10000000894,171017.62,171021,171034.258,175601.134,8,400,,,
trial,html.Screen,4_10_0,2023-05-01T23:56:21.963Z,,0,1,,3800.7660000059695,response,ISIC_2698722.JPG,,ISIC_0069633.JPG,ISIC_0069633.JPG,false,0,keypress(z),500,179402,179401.90000000596,175584.429,175595.30000001192,175601.134,179417.984,8,400,11,,ISIC_2698722.JPG
break,html.Screen,4_10_1,2023-05-01T23:56:21.963Z,,0,,,NaN,,,,,,false,,,,179402.5,179402.40000000596,,179402.10000000894,,179417.984,8,400,,,
break_continue,html.Screen,4_10_2,2023-05-01T23:56:21.963Z,,0,,,NaN,,,,,,false,,,,179402.70000000298,179402.60000000894,,179402.5,,179417.984,8,400,,,
sequence,flow.Sequence,4_10,2023-05-01T23:56:21.963Z,,0,,,3801.46600000895,completion,,,,,false,,,,179402.70000000298,179402.60000000894,175584.429,175595.30000001192,175601.134,179417.984,8,400,,,
trial,html.Screen,4_11_0,2023-05-01T23:56:27.180Z,,0,1,,5201.2160000029835,response,ISIC_0207268.JPG,,ISIC_5039895.JPG,ISIC_0207268.JPG,false,1,keypress(m),500,184619.30000001192,184619.20000000298,179401.264,179402.70000000298,179417.984,184634.893,8,400,12,,ISIC_5039895.JPG
break,html.Screen,4_11_1,2023-05-01T23:56:27.180Z,,0,,,NaN,,,,,,false,,,,184619.70000000298,184619.70000000298,,184619.5,,184634.893,8,400,,,
break_continue,html.Screen,4_11_2,2023-05-01T23:56:27.181Z,,0,,,NaN,,,,,,false,,,,184620,184619.80000001192,,184619.80000001192,,184634.893,8,400,,,
sequence,flow.Sequence,4_11,2023-05-01T23:56:27.181Z,,0,,,5201.816000011924,completion,,,,,false,,,,184620,184619.80000001192,179401.264,179402.70000000298,179417.984,184634.893,8,400,,,
trial,html.Screen,4_12_0,2023-05-01T23:56:31.923Z,,0,1,,4727.606999999989,response,ISIC_0069056.JPG,,ISIC_8909545.JPG,ISIC_0069056.JPG,false,1,keypress(m),500,189362.70000000298,189362.5,184618.191,184620.10000000894,184634.893,189368.436,8,400,13,,ISIC_8909545.JPG
break,html.Screen,4_12_1,2023-05-01T23:56:31.924Z,,0,,,NaN,,,,,,false,,,,189363.20000000298,189363,,189362.80000001192,,189368.436,8,400,,,
break_continue,html.Screen,4_12_2,2023-05-01T23:56:31.924Z,,0,,,NaN,,,,,,false,,,,189363.40000000596,189363.30000001192,,189363.20000000298,,189368.436,8,400,,,
sequence,flow.Sequence,4_12,2023-05-01T23:56:31.924Z,,0,,,4728.40700001191,completion,,,,,false,,,,189363.5,189363.30000001192,184618.191,184620.10000000894,184634.893,189368.436,8,400,,,
trial,html.Screen,4_13_0,2023-05-01T23:56:35.027Z,,0,1,,3098.1640000089537,response,ISIC_0011862.JPG,,ISIC_0034236.JPG,ISIC_0011862.JPG,false,1,keypress(m),500,192466.60000000894,192466.60000000894,189351.74,189363.5,189368.436,192468.59,8,400,14,,ISIC_0034236.JPG
break,html.Screen,4_13_1,2023-05-01T23:56:35.028Z,,0,,,NaN,,,,,,false,,,,192467.10000000894,192467,,192466.80000001192,,192468.59,8,400,,,
break_continue,html.Screen,4_13_2,2023-05-01T23:56:35.028Z,,0,,,NaN,,,,,,false,,,,192467.30000001192,192467.20000000298,,192467.20000000298,,192468.59,8,400,,,
sequence,flow.Sequence,4_13,2023-05-01T23:56:35.028Z,,0,,,3098.7640000029933,completion,,,,,false,,,,192467.30000001192,192467.20000000298,189351.74,189363.5,189368.436,192468.59,8,400,,,
trial,html.Screen,4_14_0,2023-05-01T23:56:37.946Z,,0,1,,2917.4100000000035,response,ISIC_5502342.JPG,,ISIC_0066518.JPG,ISIC_0066518.JPG,false,0,keypress(z),500,195386.10000000894,195386,192451.816,192467.30000001192,192468.59,195402.015,8,400,15,,ISIC_5502342.JPG
break,html.Screen,4_14_1,2023-05-01T23:56:37.947Z,,0,,,NaN,,,,,,false,,,,195386.5,195386.40000000596,,195386.20000000298,,195402.015,8,400,,,
break_continue,html.Screen,4_14_2,2023-05-01T23:56:37.947Z,,0,,,NaN,,,,,,false,,,,195386.70000000298,195386.60000000894,,195386.60000000894,,195402.015,8,400,,,
sequence,flow.Sequence,4_14,2023-05-01T23:56:37.947Z,,0,,,2918.010000008944,completion,,,,,false,,,,195386.80000001192,195386.60000000894,192451.816,192467.30000001192,192468.59,195402.015,8,400,,,
trial,html.Screen,4_15_0,2023-05-01T23:56:41.106Z,,0,1,,3143.984999999986,response,ISIC_0070651.JPG,,ISIC_0012082.JPG,ISIC_0012082.JPG,false,0,keypress(z),500,198546.10000000894,198546,195385.312,195386.80000001192,195402.015,198552.138,8,400,16,,ISIC_0070651.JPG
break,html.Screen,4_15_1,2023-05-01T23:56:41.107Z,,0,,,NaN,,,,,,false,,,,198546.60000000894,198546.40000000596,,198546.20000000298,,198552.138,8,400,,,
break_continue,html.Screen,4_15_2,2023-05-01T23:56:41.107Z,,0,,,NaN,,,,,,false,,,,198546.80000001192,198546.70000000298,,198546.60000000894,,198552.138,8,400,,,
sequence,flow.Sequence,4_15,2023-05-01T23:56:41.107Z,,0,,,3144.6850000029663,completion,,,,,false,,,,198546.80000001192,198546.70000000298,195385.312,195386.80000001192,195402.015,198552.138,8,400,,,
trial,html.Screen,4_16_0,2023-05-01T23:56:44.571Z,,0,1,,3457.9620000089344,response,ISIC_0071335.JPG,,ISIC_3985031.JPG,ISIC_0071335.JPG,false,1,keypress(m),500,202010.30000001192,202010.10000000894,198536.095,198546.90000000596,198552.138,202019.001,8,400,17,,ISIC_3985031.JPG
break,html.Screen,4_16_1,2023-05-01T23:56:44.571Z,,0,,,NaN,,,,,,false,,,,202010.70000000298,202010.60000000894,,202010.40000000596,,202019.001,8,400,,,
break_continue,html.Screen,4_16_2,2023-05-01T23:56:44.571Z,,0,,,NaN,,,,,,false,,,,202010.90000000596,202010.90000000596,,202010.80000001192,,202019.001,8,400,,,
sequence,flow.Sequence,4_16,2023-05-01T23:56:44.571Z,,0,,,3458.762000005954,completion,,,,,false,,,,202011.10000000894,202010.90000000596,198536.095,198546.90000000596,198552.138,202019.001,8,400,,,
trial,html.Screen,4_17_0,2023-05-01T23:56:48.803Z,,0,1,,4223.799000011932,response,ISIC_0638857.JPG,,ISIC_0403458.JPG,ISIC_0403458.JPG,false,0,keypress(z),500,206242.90000000596,206242.80000001192,202002.263,202011.10000000894,202019.001,206252.488,8,400,18,,ISIC_0638857.JPG
break,html.Screen,4_17_1,2023-05-01T23:56:48.804Z,,0,,,NaN,,,,,,false,,,,206243.40000000596,206243.20000000298,,206243,,206252.488,8,400,,,
break_continue,html.Screen,4_17_2,2023-05-01T23:56:48.804Z,,0,,,NaN,,,,,,false,,,,206243.60000000894,206243.60000000894,,206243.5,,206252.488,8,400,,,
sequence,flow.Sequence,4_17,2023-05-01T23:56:48.804Z,,0,,,4224.599000008951,completion,,,,,false,,,,206243.70000000298,206243.60000000894,202002.263,202011.10000000894,202019.001,206252.488,8,400,,,
trial,html.Screen,4_18_0,2023-05-01T23:56:54.362Z,,0,1,,5549.412000005948,response,ISIC_1441260.JPG,,ISIC_0034032.JPG,ISIC_1441260.JPG,false,1,keypress(m),500,211802.10000000894,211801.90000000596,206236.334,206243.80000001192,206252.488,211819.392,8,400,19,,ISIC_0034032.JPG
break,html.Screen,4_18_1,2023-05-01T23:56:54.363Z,,0,,,NaN,,,,,,false,,,,211802.5,211802.40000000596,,211802.20000000298,,211819.392,8,400,,,
break_continue,html.Screen,4_18_2,2023-05-01T23:56:54.363Z,,0,,,NaN,,,,,,false,,,,211802.70000000298,211802.70000000298,,211802.5,,211819.392,8,400,,,
sequence,flow.Sequence,4_18,2023-05-01T23:56:54.363Z,,0,,,5550.212000002968,completion,,,,,false,,,,211802.80000001192,211802.70000000298,206236.334,206243.80000001192,206252.488,211819.392,8,400,,,
trial,html.Screen,4_19_0,2023-05-01T23:57:00.444Z,,0,1,,6063.908000011928,response,ISIC_7534592.JPG,,ISIC_8848134.JPG,ISIC_8848134.JPG,false,0,keypress(z),500,217883.5,217883.30000001192,211802.865,211802.90000000596,211819.392,217886.332,8,400,20,,ISIC_7534592.JPG
break,html.Screen,4_19_1,2023-05-01T23:57:00.444Z,,0,,,NaN,,,,,,false,,,,217883.90000000596,217883.80000001192,,217883.60000000894,,217886.332,8,400,,,
break_continue,html.Screen,4_19_2,2023-05-01T23:57:00.444Z,,0,,,NaN,,,,,,false,,,,217884.10000000894,217884,,217883.90000000596,,217886.332,8,400,,,
sequence,flow.Sequence,4_19,2023-05-01T23:57:00.444Z,,0,,,6064.608000000007,completion,,,,,false,,,,217884.10000000894,217884,211802.865,211802.90000000596,211819.392,217886.332,8,400,,,
trial,html.Screen,4_20_0,2023-05-01T23:57:04.004Z,,0,1,,3556.8680000029854,response,ISIC_7306131.JPG,,ISIC_0055179.JPG,ISIC_0055179.JPG,false,0,keypress(z),500,221443.30000001192,221443.20000000298,217869.621,217884.30000001192,217886.332,221453.168,8,400,21,,ISIC_7306131.JPG
break,html.Screen,4_20_1,2023-05-01T23:57:04.004Z,,0,,,NaN,,,,,,false,,,,221443.70000000298,221443.70000000298,,221443.40000000596,,221453.168,8,400,,,
break_continue,html.Screen,4_20_2,2023-05-01T23:57:04.004Z,,0,,,NaN,,,,,,false,,,,221443.90000000596,221443.80000001192,,221443.80000001192,,221453.168,8,400,,,
sequence,flow.Sequence,4_20,2023-05-01T23:57:04.004Z,,0,,,3557.468000011926,completion,,,,,false,,,,221443.90000000596,221443.80000001192,217869.621,217884.20000000298,217886.332,221453.168,8,400,,,
trial,html.Screen,4_21_0,2023-05-01T23:57:09.619Z,,0,1,,5605.331999999995,response,ISIC_0032638.JPG,,ISIC_0008447.JPG,ISIC_0032638.JPG,false,1,keypress(m),500,227058.60000000894,227058.5,221436.441,221444,221453.168,227070.036,8,400,22,,ISIC_0008447.JPG
break,html.Screen,4_21_1,2023-05-01T23:57:09.619Z,,0,,,NaN,,,,,,false,,,,227059.10000000894,227058.90000000596,,227058.70000000298,,227070.036,8,400,,,
break_continue,html.Screen,4_21_2,2023-05-01T23:57:09.620Z,,0,,,NaN,,,,,,false,,,,227059.30000001192,227059.30000001192,,227059.20000000298,,227070.036,8,400,,,
sequence,flow.Sequence,4_21,2023-05-01T23:57:09.620Z,,0,,,5606.132000011916,completion,,,,,false,,,,227059.5,227059.30000001192,221436.441,221443.90000000596,221453.168,227070.036,8,400,,,
trial,html.Screen,4_22_0,2023-05-01T23:57:16.860Z,,0,1,,7229.264000011928,response,ISIC_8922355.JPG,,ISIC_0070248.JPG,ISIC_8922355.JPG,false,1,keypress(m),500,234299.5,234299.30000001192,227053.534,227059.5,227070.036,234303.693,8,400,23,,ISIC_0070248.JPG
break,html.Screen,4_22_1,2023-05-01T23:57:16.860Z,,0,,,NaN,,,,,,false,,,,234300,234299.80000001192,,234299.60000000894,,234303.693,8,400,,,
break_continue,html.Screen,4_22_2,2023-05-01T23:57:16.860Z,,0,,,NaN,,,,,,false,,,,234300.20000000298,234300.10000000894,,234300,,234303.693,8,400,,,
sequence,flow.Sequence,4_22,2023-05-01T23:57:16.861Z,,0,,,7230.064000008948,completion,,,,,false,,,,234300.30000001192,234300.10000000894,227053.534,227059.5,227070.036,234303.693,8,400,,,
trial,html.Screen,4_23_0,2023-05-01T23:57:19.796Z,,0,1,,2931.6070000119216,response,ISIC_0069667.JPG,,ISIC_0025018.JPG,ISIC_0069667.JPG,false,1,keypress(m),500,237235.40000000596,237235.30000001192,234286.977,234300.30000001192,234303.693,237254.726,8,400,24,,ISIC_0025018.JPG
break,html.Screen,4_23_1,2023-05-01T23:57:19.796Z,,0,,,NaN,,,,,,false,,,,237235.90000000596,237235.80000001192,,237235.60000000894,,237254.726,8,400,,,
break_continue,html.Screen,4_23_2,2023-05-01T23:57:19.796Z,,0,,,NaN,,,,,,false,,,,237236.20000000298,237236.10000000894,,237236,,237254.726,8,400,,,
sequence,flow.Sequence,4_23,2023-05-01T23:57:19.797Z,,0,,,2932.4070000089414,completion,,,,,false,,,,237236.30000001192,237236.10000000894,234286.977,234300.30000001192,234303.693,237254.726,8,400,,,
trial,html.Screen,4_24_0,2023-05-01T23:57:24.379Z,,0,1,,4564.074000011926,response,ISIC_8586909.JPG,,ISIC_0025748.JPG,ISIC_0025748.JPG,false,0,keypress(z),500,241818.90000000596,241818.80000001192,237220.46,237236.30000001192,237254.726,241820.747,8,400,25,,ISIC_8586909.JPG
break,html.Screen,4_24_1,2023-05-01T23:57:24.380Z,,0,,,NaN,,,,,,false,,,,241819.30000001192,241819.20000000298,,241819,,241820.747,8,400,,,
break_continue,html.Screen,4_24_2,2023-05-01T23:57:24.380Z,,0,,,NaN,,,,,,false,,,,241819.60000000894,241819.5,,241819.40000000596,,241820.747,8,400,,,
sequence,flow.Sequence,4_24,2023-05-01T23:57:24.380Z,,0,,,4564.774000000005,completion,,,,,false,,,,241819.70000000298,241819.5,237220.46,237236.30000001192,237254.726,241820.747,8,400,,,
trial,html.Screen,4_25_0,2023-05-01T23:57:29.683Z,,0,1,,5301.853000008938,response,ISIC_0345607.JPG,,ISIC_3390057.JPG,ISIC_0345607.JPG,false,1,keypress(m),500,247122.70000000298,247122.60000000894,241804.031,241819.70000000298,241820.747,247137.591,8,400,26,,ISIC_3390057.JPG
break,html.Screen,4_25_1,2023-05-01T23:57:29.683Z,,0,,,NaN,,,,,,false,,,,247123.20000000298,247123.10000000894,,247122.90000000596,,247137.591,8,400,,,
break_continue,html.Screen,4_25_2,2023-05-01T23:57:29.684Z,,0,,,NaN,,,,,,false,,,,247123.40000000596,247123.30000001192,,247123.30000001192,,247137.591,8,400,,,
sequence,flow.Sequence,4_25,2023-05-01T23:57:29.684Z,,0,,,5302.553000011918,completion,,,,,false,,,,247123.40000000596,247123.30000001192,241804.031,241819.70000000298,241820.747,247137.591,8,400,,,
trial,html.Screen,4_26_0,2023-05-01T23:57:32.547Z,,0,1,,2848.6090000029944,response,ISIC_0034094.JPG,,ISIC_0012721.JPG,ISIC_0034094.JPG,false,1,keypress(m),500,249986.30000001192,249986.20000000298,247121.731,247123.5,247137.591,250010.776,8,400,27,,ISIC_0012721.JPG
break,html.Screen,4_26_1,2023-05-01T23:57:32.547Z,,0,,,NaN,,,,,,false,,,,249986.70000000298,249986.70000000298,,249986.40000000596,,250010.776,8,400,,,
break_continue,html.Screen,4_26_2,2023-05-01T23:57:32.547Z,,0,,,NaN,,,,,,false,,,,249986.90000000596,249986.90000000596,,249986.80000001192,,250010.776,8,400,,,
sequence,flow.Sequence,4_26,2023-05-01T23:57:32.547Z,,0,,,2849.3090000059747,completion,,,,,false,,,,249987,249986.90000000596,247121.731,247123.5,247137.591,250010.776,8,400,,,
trial,html.Screen,4_27_0,2023-05-01T23:57:36.642Z,,0,1,,4071.0240000119084,response,ISIC_8375123.JPG,,ISIC_0062713.JPG,ISIC_0062713.JPG,false,0,keypress(z),500,254081.90000000596,254081.80000001192,249971.812,249987,250010.776,254087.883,8,400,28,,ISIC_8375123.JPG
break,html.Screen,4_27_1,2023-05-01T23:57:36.643Z,,0,,,NaN,,,,,,false,,,,254082.40000000596,254082.30000001192,,254082.10000000894,,254087.883,8,400,,,
break_continue,html.Screen,4_27_2,2023-05-01T23:57:36.643Z,,0,,,NaN,,,,,,false,,,,254082.60000000894,254082.5,,254082.5,,254087.883,8,400,,,
sequence,flow.Sequence,4_27,2023-05-01T23:57:36.643Z,,0,,,4071.7239999999874,completion,,,,,false,,,,254082.70000000298,254082.5,249971.812,249987,250010.776,254087.883,8,400,,,
trial,html.Screen,4_28_0,2023-05-01T23:57:40.499Z,,0,1,,3851.017000005959,response,ISIC_0072087.JPG,,ISIC_0004986.JPG,ISIC_0072087.JPG,false,1,keypress(m),500,257938.90000000596,257938.90000000596,254071.19,254082.80000001192,254087.883,257954.743,8,400,29,,ISIC_0004986.JPG
break,html.Screen,4_28_1,2023-05-01T23:57:40.500Z,,0,,,NaN,,,,,,false,,,,257939.40000000596,257939.40000000596,,257939.10000000894,,257954.743,8,400,,,
break_continue,html.Screen,4_28_2,2023-05-01T23:57:40.500Z,,0,,,NaN,,,,,,false,,,,257939.70000000298,257939.60000000894,,257939.5,,257954.743,8,400,,,
sequence,flow.Sequence,4_28,2023-05-01T23:57:40.500Z,,0,,,3851.717000008939,completion,,,,,false,,,,257939.70000000298,257939.60000000894,254071.19,254082.80000001192,254087.883,257954.743,8,400,,,
trial,html.Screen,4_29_0,2023-05-01T23:57:45.836Z,,0,1,,5320.357000008953,response,ISIC_0030596.JPG,,ISIC_2206284.JPG,ISIC_2206284.JPG,false,0,keypress(z),500,263275.200000003,263275.10000000894,257938.04,257939.80000001192,257954.743,263288.312,8,400,30,,ISIC_0030596.JPG
break,html.Screen,4_29_1,2023-05-01T23:57:45.836Z,,0,,,NaN,,,,,,false,,,,263275.60000000894,263275.5,,263275.3000000119,,263288.312,8,400,,,
break_continue,html.Screen,4_29_2,2023-05-01T23:57:45.836Z,,0,,,NaN,,,,,,false,,,,263275.8000000119,263275.8000000119,,263275.700000003,,263288.312,8,400,,,
sequence,flow.Sequence,4_29,2023-05-01T23:57:45.836Z,,0,,,5321.057000011933,completion,,,,,false,,,,263275.90000000596,263275.8000000119,257938.04,257939.80000001192,257954.743,263288.312,8,400,,,
trial,html.Screen,4_30_0,2023-05-01T23:57:50.588Z,,0,1,,4738.688000000024,response,ISIC_0033362.JPG,,ISIC_2445765.JPG,ISIC_0033362.JPG,false,1,keypress(m),500,268027.10000000894,268027,263272.163,263275.90000000596,263288.312,268038.54,8,400,31,,ISIC_2445765.JPG
break,html.Screen,4_30_1,2023-05-01T23:57:50.588Z,,0,,,NaN,,,,,,false,,,,268027.700000003,268027.5,,268027.3000000119,,268038.54,8,400,,,
break_continue,html.Screen,4_30_2,2023-05-01T23:57:50.588Z,,0,,,NaN,,,,,,false,,,,268027.8000000119,268027.8000000119,,268027.700000003,,268038.54,8,400,,,
sequence,flow.Sequence,4_30,2023-05-01T23:57:50.588Z,,0,,,4739.488000011945,completion,,,,,false,,,,268027.90000000596,268027.8000000119,263272.163,263275.90000000596,263288.312,268038.54,8,400,,,
trial,html.Screen,4_31_0,2023-05-01T23:57:53.667Z,,0,1,,3067.960000000021,response,ISIC_2310935.JPG,,ISIC_0026470.JPG,ISIC_2310935.JPG,false,1,keypress(m),500,271106.60000000894,271106.5,268021.783,268028,268038.54,271122.003,8,400,32,,ISIC_0026470.JPG
break,html.Screen,4_31_1,2023-05-01T23:57:53.667Z,,0,,,NaN,,,,,,false,,,,271107.10000000894,271106.90000000596,,271106.700000003,,271122.003,8,400,,,
break_continue,html.Screen,4_31_2,2023-05-01T23:57:53.668Z,,0,,,NaN,,,,,,false,,,,271107.3000000119,271107.200000003,,271107.10000000894,,271122.003,8,400,,,
sequence,flow.Sequence,4_31,2023-05-01T23:57:53.668Z,,0,,,3068.660000003001,completion,,,,,false,,,,271107.3000000119,271107.200000003,268021.783,268028,268038.54,271122.003,8,400,,,
trial,html.Screen,4_32_0,2023-05-01T23:58:03.467Z,,0,1,,9784.597000008915,response,ISIC_0015969.JPG,,ISIC_0014832.JPG,ISIC_0015969.JPG,false,1,keypress(m),500,280906.700000003,280906.60000000894,271105.313,271107.40000000596,271122.003,280922.411,8,400,33,,ISIC_0014832.JPG
break,html.Screen,4_32_1,2023-05-01T23:58:03.468Z,,0,,,NaN,,,,,,false,,,,280907.200000003,280907.10000000894,,280906.90000000596,,280922.411,8,400,,,
break_continue,html.Screen,4_32_2,2023-05-01T23:58:03.468Z,,0,,,NaN,,,,,,false,,,,280907.40000000596,280907.40000000596,,280907.200000003,,280922.411,8,400,,,
sequence,flow.Sequence,4_32,2023-05-01T23:58:03.468Z,,0,,,9785.397000005934,completion,,,,,false,,,,280907.40000000596,280907.40000000596,271105.313,271107.3000000119,271122.003,280922.411,8,400,,,
trial,html.Screen,4_33_0,2023-05-01T23:58:06.323Z,,0,1,,2839.7890000029583,response,ISIC_7824688.JPG,,ISIC_8130596.JPG,ISIC_8130596.JPG,false,0,keypress(z),500,283762.3000000119,283762.200000003,280905.679,280907.5,280922.411,283773.032,8,400,34,,ISIC_7824688.JPG
break,html.Screen,4_33_1,2023-05-01T23:58:06.323Z,,0,,,NaN,,,,,,false,,,,283762.8000000119,283762.700000003,,283762.5,,283773.032,8,400,,,
break_continue,html.Screen,4_33_2,2023-05-01T23:58:06.323Z,,0,,,NaN,,,,,,false,,,,283763,283763,,283762.90000000596,,283773.032,8,400,,,
sequence,flow.Sequence,4_33,2023-05-01T23:58:06.323Z,,0,,,2840.588999999978,completion,,,,,false,,,,283763.10000000894,283763,280905.679,280907.5,280922.411,283773.032,8,400,,,
trial,html.Screen,4_34_0,2023-05-01T23:58:11.771Z,,0,1,,5437.668000002974,response,ISIC_0011177.JPG,,ISIC_4323070.JPG,ISIC_0011177.JPG,false,1,keypress(m),500,289210.8000000119,289210.700000003,283755.847,283763.200000003,283773.032,289222.746,8,400,35,,ISIC_4323070.JPG
break,html.Screen,4_34_1,2023-05-01T23:58:11.772Z,,0,,,NaN,,,,,,false,,,,289211.200000003,289211.200000003,,289210.90000000596,,289222.746,8,400,,,
break_continue,html.Screen,4_34_2,2023-05-01T23:58:11.772Z,,0,,,NaN,,,,,,false,,,,289211.40000000596,289211.40000000596,,289211.3000000119,,289222.746,8,400,,,
sequence,flow.Sequence,4_34,2023-05-01T23:58:11.772Z,,0,,,5438.368000005954,completion,,,,,false,,,,289211.5,289211.40000000596,283755.847,283763.200000003,283773.032,289222.746,8,400,,,
trial,html.Screen,4_35_0,2023-05-01T23:58:14.876Z,,0,1,,3092.854000008956,response,ISIC_5309814.JPG,,ISIC_0025382.JPG,ISIC_0025382.JPG,false,0,keypress(z),500,292315.700000003,292315.60000000894,289206.061,289211.60000000894,289222.746,292323.561,8,400,36,,ISIC_5309814.JPG
break,html.Screen,4_35_1,2023-05-01T23:58:14.877Z,,0,,,NaN,,,,,,false,,,,292316.200000003,292316.10000000894,,292315.8000000119,,292323.561,8,400,,,
break_continue,html.Screen,4_35_2,2023-05-01T23:58:14.877Z,,0,,,NaN,,,,,,false,,,,292316.40000000596,292316.200000003,,292316.200000003,,292323.561,8,400,,,
sequence,flow.Sequence,4_35,2023-05-01T23:58:14.877Z,,0,,,3093.4540000029956,completion,,,,,false,,,,292316.40000000596,292316.200000003,289206.061,289211.60000000894,289222.746,292323.561,8,400,,,
trial,html.Screen,4_36_0,2023-05-01T23:58:18.019Z,,0,1,,3135.239000011934,response,ISIC_0000482.JPG,,ISIC_0011984.JPG,ISIC_0011984.JPG,false,0,keypress(z),500,295458.90000000596,295458.8000000119,292306.934,292316.40000000596,292323.561,295473.386,8,400,37,,ISIC_0000482.JPG
break,html.Screen,4_36_1,2023-05-01T23:58:18.020Z,,0,,,NaN,,,,,,false,,,,295459.40000000596,295459.3000000119,,295459.10000000894,,295473.386,8,400,,,
break_continue,html.Screen,4_36_2,2023-05-01T23:58:18.020Z,,0,,,NaN,,,,,,false,,,,295459.60000000894,295459.60000000894,,295459.5,,295473.386,8,400,,,
sequence,flow.Sequence,4_36,2023-05-01T23:58:18.020Z,,0,,,3136.0390000089537,completion,,,,,false,,,,295459.700000003,295459.60000000894,292306.934,292316.40000000596,292323.561,295473.386,8,400,,,
trial,html.Screen,4_37_0,2023-05-01T23:58:23.627Z,,0,1,,5592.714000008942,response,ISIC_5457229.JPG,,ISIC_0010024.JPG,ISIC_0010024.JPG,false,0,keypress(z),500,301066.200000003,301066.10000000894,295456.346,295459.700000003,295473.386,301073.269,8,400,38,,ISIC_5457229.JPG
break,html.Screen,4_37_1,2023-05-01T23:58:23.627Z,,0,,,NaN,,,,,,false,,,,301066.60000000894,301066.5,,301066.3000000119,,301073.269,8,400,,,
break_continue,html.Screen,4_37_2,2023-05-01T23:58:23.627Z,,0,,,NaN,,,,,,false,,,,301066.8000000119,301066.8000000119,,301066.700000003,,301073.269,8,400,,,
sequence,flow.Sequence,4_37,2023-05-01T23:58:23.627Z,,0,,,5593.414000011922,completion,,,,,false,,,,301066.8000000119,301066.8000000119,295456.346,295459.700000003,295473.386,301073.269,8,400,,,
trial,html.Screen,4_38_0,2023-05-01T23:58:26.860Z,,0,1,,3226.1310000059893,response,ISIC_0351547.JPG,,ISIC_0061580.JPG,ISIC_0061580.JPG,false,0,keypress(z),500,304299.5,304299.40000000596,301056.955,301067,301073.269,304306.743,8,400,39,,ISIC_0351547.JPG
break,html.Screen,4_38_1,2023-05-01T23:58:26.860Z,,0,,,NaN,,,,,,false,,,,304299.8000000119,304299.8000000119,,304299.60000000894,,304306.743,8,400,,,
break_continue,html.Screen,4_38_2,2023-05-01T23:58:26.860Z,,0,,,NaN,,,,,,false,,,,304300,304299.90000000596,,304299.90000000596,,304306.743,8,400,,,
sequence,flow.Sequence,4_38,2023-05-01T23:58:26.860Z,,0,,,3226.6310000059893,completion,,,,,false,,,,304300.10000000894,304299.90000000596,301056.955,301066.90000000596,301073.269,304306.743,8,400,,,
trial,html.Screen,4_39_0,2023-05-01T23:58:29.939Z,,0,1,,3071.7569999999832,response,ISIC_6938608.JPG,,ISIC_9696502.JPG,ISIC_9696502.JPG,false,0,keypress(z),500,307378.60000000894,307378.5,304290.081,304300.200000003,304306.743,307390.746,8,400,40,,ISIC_6938608.JPG
break,html.Screen,4_39_1,2023-05-01T23:58:29.939Z,,0,,,NaN,,,,,,false,,,,307379.10000000894,307379,,307378.700000003,,307390.746,8,400,,,
break_continue,html.Screen,4_39_2,2023-05-01T23:58:29.940Z,,0,,,NaN,,,,,,false,,,,307379.3000000119,307379.3000000119,,307379.200000003,,307390.746,8,400,,,
sequence,flow.Sequence,4_39,2023-05-01T23:58:29.940Z,,0,,,3072.557000011904,completion,,,,,false,,,,307379.40000000596,307379.3000000119,304290.081,304300.200000003,304306.743,307390.746,8,400,,,
trial,html.Screen,4_40_0,2023-05-01T23:58:35.819Z,,0,1,,5867.854000008956,response,ISIC_8154363.JPG,,ISIC_0069475.JPG,ISIC_0069475.JPG,false,0,keypress(z),500,313258.8000000119,313258.60000000894,307374.257,307379.40000000596,307390.746,313273.79,8,400,41,,ISIC_8154363.JPG
break,html.Screen,4_40_1,2023-05-01T23:58:35.820Z,,0,,,NaN,,,,,,false,,,,313259.200000003,313259.200000003,,313258.90000000596,,313273.79,8,400,,,
break_continue,html.Screen,4_40_2,2023-05-01T23:58:35.820Z,,0,,,NaN,,,,,,false,,,,313259.5,313259.40000000596,,313259.3000000119,,313273.79,8,400,,,
sequence,flow.Sequence,4_40,2023-05-01T23:58:35.820Z,,0,,,5868.654000005976,completion,,,,,false,,,,313259.5,313259.40000000596,307374.257,307379.40000000596,307390.746,313273.79,8,400,,,
trial,html.Screen,4_41_0,2023-05-01T23:58:39.260Z,,0,1,,3425.510000011942,response,ISIC_0071335.JPG,,ISIC_0034236.JPG,ISIC_0071335.JPG,false,1,keypress(m),500,316699.40000000596,316699.3000000119,313257.102,313259.60000000894,313273.79,316707.312,8,400,42,,ISIC_0034236.JPG
break,html.Screen,4_41_1,2023-05-01T23:58:39.260Z,,0,,,NaN,,,,,,false,,,,316699.90000000596,316699.8000000119,,316699.5,,316707.312,8,400,,,
break_continue,html.Screen,4_41_2,2023-05-01T23:58:39.260Z,,0,,,NaN,,,,,,false,,,,316700.10000000894,316700.10000000894,,316699.90000000596,,316707.312,8,400,,,
sequence,flow.Sequence,4_41,2023-05-01T23:58:39.261Z,,0,,,3426.3100000089617,completion,,,,,false,,,,316700.200000003,316700.10000000894,313257.102,313259.60000000894,313273.79,316707.312,8,400,,,
trial,html.Screen,4_42_0,2023-05-01T23:58:42.412Z,,0,1,,3144.1880000000237,response,ISIC_5650816.JPG,,ISIC_0033607.JPG,ISIC_5650816.JPG,false,1,keypress(m),500,319851.60000000894,319851.5,316690.624,316700.200000003,316707.312,319858.211,8,400,43,,ISIC_0033607.JPG
break,html.Screen,4_42_1,2023-05-01T23:58:42.412Z,,0,,,NaN,,,,,,false,,,,319852.10000000894,319852,,319851.700000003,,319858.211,8,400,,,
break_continue,html.Screen,4_42_2,2023-05-01T23:58:42.413Z,,0,,,NaN,,,,,,false,,,,319852.3000000119,319852.3000000119,,319852.200000003,,319858.211,8,400,,,
sequence,flow.Sequence,4_42,2023-05-01T23:58:42.413Z,,0,,,3144.9880000119447,completion,,,,,false,,,,319852.40000000596,319852.3000000119,316690.624,316700.200000003,316707.312,319858.211,8,400,,,
trial,html.Screen,4_43_0,2023-05-01T23:58:45.523Z,,0,1,,3104.18900000595,response,ISIC_9000901.JPG,,ISIC_7152347.JPG,ISIC_9000901.JPG,false,1,keypress(m),500,322962.40000000596,322962.40000000596,319840.724,319852.40000000596,319858.211,322974.273,8,400,44,,ISIC_7152347.JPG
break,html.Screen,4_43_1,2023-05-01T23:58:45.523Z,,0,,,NaN,,,,,,false,,,,322962.8000000119,322962.8000000119,,322962.5,,322974.273,8,400,,,
break_continue,html.Screen,4_43_2,2023-05-01T23:58:45.523Z,,0,,,NaN,,,,,,false,,,,322963,322962.90000000596,,322962.90000000596,,322974.273,8,400,,,
sequence,flow.Sequence,4_43,2023-05-01T23:58:45.523Z,,0,,,3104.68900000595,completion,,,,,false,,,,322963,322962.90000000596,319840.724,319852.40000000596,319858.211,322974.273,8,400,,,
trial,html.Screen,4_44_0,2023-05-01T23:58:48.164Z,,0,1,,2629.4270000029937,response,ISIC_6410859.JPG,,ISIC_6113524.JPG,ISIC_6410859.JPG,false,1,keypress(m),500,325603.90000000596,325603.700000003,322957.517,322963,322974.273,325607.672,8,400,45,,ISIC_6113524.JPG
break,html.Screen,4_44_1,2023-05-01T23:58:48.165Z,,0,,,NaN,,,,,,false,,,,325604.40000000596,325604.3000000119,,325604,,325607.672,8,400,,,
break_continue,html.Screen,4_44_2,2023-05-01T23:58:48.165Z,,0,,,NaN,,,,,,false,,,,325604.5,325604.5,,325604.40000000596,,325607.672,8,400,,,
sequence,flow.Sequence,4_44,2023-05-01T23:58:48.165Z,,0,,,2630.2270000000135,completion,,,,,false,,,,325604.60000000894,325604.5,322957.517,322963,322974.273,325607.672,8,400,,,
trial,html.Screen,4_45_0,2023-05-01T23:58:51.316Z,,0,1,,3147.8279999999795,response,ISIC_1570390.JPG,,ISIC_0011894.JPG,ISIC_0011894.JPG,false,0,keypress(z),500,328755.60000000894,328755.5,325591.015,325604.700000003,325607.672,328757.812,8,400,46,,ISIC_1570390.JPG
break,html.Screen,4_45_1,2023-05-01T23:58:51.316Z,,0,,,NaN,,,,,,false,,,,328756,328755.90000000596,,328755.700000003,,328757.812,8,400,,,
break_continue,html.Screen,4_45_2,2023-05-01T23:58:51.317Z,,0,,,NaN,,,,,,false,,,,328756.10000000894,328756.10000000894,,328756,,328757.812,8,400,,,
sequence,flow.Sequence,4_45,2023-05-01T23:58:51.317Z,,0,,,3148.42800000892,completion,,,,,false,,,,328756.200000003,328756.10000000894,325591.015,325604.700000003,325607.672,328757.812,8,400,,,
trial,html.Screen,4_46_0,2023-05-01T23:58:54.203Z,,0,1,,2884.7880000089644,response,ISIC_0064738.JPG,,ISIC_0363130.JPG,ISIC_0064738.JPG,false,1,keypress(m),500,331642.8000000119,331642.60000000894,328741.157,328756.3000000119,328757.812,331658.548,8,400,47,,ISIC_0363130.JPG
break,html.Screen,4_46_1,2023-05-01T23:58:54.204Z,,0,,,NaN,,,,,,false,,,,331643.3000000119,331643.10000000894,,331642.90000000596,,331658.548,8,400,,,
break_continue,html.Screen,4_46_2,2023-05-01T23:58:54.204Z,,0,,,NaN,,,,,,false,,,,331643.40000000596,331643.3000000119,,331643.3000000119,,331658.548,8,400,,,
sequence,flow.Sequence,4_46,2023-05-01T23:58:54.204Z,,0,,,2885.4880000119447,completion,,,,,false,,,,331643.5,331643.3000000119,328741.157,328756.200000003,328757.812,331658.548,8,400,,,
trial,html.Screen,4_47_0,2023-05-01T23:58:57.620Z,,0,1,,3400.752000011911,response,ISIC_9005623.JPG,,ISIC_8806357.JPG,ISIC_8806357.JPG,false,0,keypress(z),500,335059.40000000596,335059.3000000119,331641.868,331643.60000000894,331658.548,335074.755,8,400,48,,ISIC_9005623.JPG
break,html.Screen,4_47_1,2023-05-01T23:58:57.620Z,,0,,,NaN,,,,,,false,,,,335059.8000000119,335059.8000000119,,335059.5,,335074.755,8,400,,,
break_continue,html.Screen,4_47_2,2023-05-01T23:58:57.620Z,,0,,,NaN,,,,,,false,,,,335060,335060,,335059.90000000596,,335074.755,8,400,,,
sequence,flow.Sequence,4_47,2023-05-01T23:58:57.621Z,,0,,,3401.45199999999,completion,,,,,false,,,,335060.200000003,335060,331641.868,331643.60000000894,331658.548,335074.755,8,400,,,
trial,html.Screen,4_48_0,2023-05-01T23:59:00.595Z,,0,1,,2959.9450000029756,response,ISIC_3764173.JPG,,ISIC_0011894.JPG,ISIC_0011894.JPG,false,0,keypress(z),500,338034.90000000596,338034.700000003,335058.067,335060.3000000119,335074.755,338041.583,8,400,49,,ISIC_3764173.JPG
break,html.Screen,4_48_1,2023-05-01T23:59:00.596Z,,0,,,NaN,,,,,,false,,,,338035.3000000119,338035.10000000894,,338035,,338041.583,8,400,,,
break_continue,html.Screen,4_48_2,2023-05-01T23:59:00.596Z,,0,,,NaN,,,,,,false,,,,338035.40000000596,338035.40000000596,,338035.40000000596,,338041.583,8,400,,,
sequence,flow.Sequence,4_48,2023-05-01T23:59:00.596Z,,0,,,2960.645000005956,completion,,,,,false,,,,338035.5,338035.40000000596,335058.067,335060.3000000119,335074.755,338041.583,8,400,,,
trial,html.Screen,4_49_0,2023-05-01T23:59:04.788Z,,0,1,,4186.417000000016,response,ISIC_0013617.JPG,,ISIC_3039880.JPG,ISIC_3039880.JPG,false,0,keypress(z),500,342228.200000003,342228,338024.873,338035.5,338041.583,342241.765,8,400,50,,ISIC_0013617.JPG
break,html.Screen,4_49_1,2023-05-01T23:59:09.786Z,,0,,,5000.217000000004,timeout,,,,,false,,,,347225.60000000894,347225.313,342225.048,342228.200000003,342241.765,347241.982,8,400,,,
break_continue,html.Screen,4_49_2,2023-05-01T23:59:55.588Z,,0,,,45780.01799999998,response,,,,,false,continue,keypress(Space),,393027,393022,347225.313,347225.700000003,347241.982,393044.437,8,400,,,
sequence,flow.Sequence,4_49,2023-05-01T23:59:55.588Z,,0,,,54980.417000000016,completion,,,,,false,,,,393027,393022,338024.873,338035.5,338041.583,393044.437,8,400,,,
trial,html.Screen,4_50_0,2023-05-01T23:59:59.068Z,,0,2,,3462.263000003004,response,ISIC_7526548.JPG,,ISIC_4182801.JPG,ISIC_4182801.JPG,false,0,keypress(z),500,396506.90000000596,396506.700000003,393027.333,393027.10000000894,393044.437,396510.766,8,400,1,,ISIC_7526548.JPG
break,html.Screen,4_50_1,2023-05-01T23:59:59.068Z,,0,,,NaN,,,,,,false,,,,396507.3000000119,396507.200000003,,396507,,396510.766,8,400,,,
break_continue,html.Screen,4_50_2,2023-05-01T23:59:59.068Z,,0,,,NaN,,,,,,false,,,,396507.40000000596,396507.40000000596,,396507.40000000596,,396510.766,8,400,,,
sequence,flow.Sequence,4_50,2023-05-01T23:59:59.068Z,,0,,,3462.963000005984,completion,,,,,false,,,,396507.60000000894,396507.40000000596,393027.333,393027.10000000894,393044.437,396510.766,8,400,,,
trial,html.Screen,4_51_0,2023-05-02T00:00:01.757Z,,0,2,,2685.134000005957,response,ISIC_6966001.JPG,,ISIC_9989617.JPG,ISIC_9989617.JPG,false,0,keypress(z),500,399196,399195.90000000596,396494.084,396507.60000000894,396510.766,399210.89,8,400,2,,ISIC_6966001.JPG
break,html.Screen,4_51_1,2023-05-02T00:00:01.757Z,,0,,,NaN,,,,,,false,,,,399196.5,399196.3000000119,,399196.10000000894,,399210.89,8,400,,,
break_continue,html.Screen,4_51_2,2023-05-02T00:00:01.757Z,,0,,,NaN,,,,,,false,,,,399196.700000003,399196.60000000894,,399196.5,,399210.89,8,400,,,
sequence,flow.Sequence,4_51,2023-05-02T00:00:01.757Z,,0,,,2685.8340000089374,completion,,,,,false,,,,399196.8000000119,399196.60000000894,396494.084,396507.60000000894,396510.766,399210.89,8,400,,,
trial,html.Screen,4_52_0,2023-05-02T00:00:04.388Z,,0,2,,2616.0100000059465,response,ISIC_0708542.JPG,,ISIC_9207137.JPG,ISIC_9207137.JPG,false,0,keypress(z),500,401827.10000000894,401826.90000000596,399194.724,399196.90000000596,399210.89,401853.947,8,400,3,,ISIC_0708542.JPG
break,html.Screen,4_52_1,2023-05-02T00:00:04.388Z,,0,,,NaN,,,,,,false,,,,401827.5,401827.40000000596,,401827.200000003,,401853.947,8,400,,,
break_continue,html.Screen,4_52_2,2023-05-02T00:00:04.388Z,,0,,,NaN,,,,,,false,,,,401827.8000000119,401827.700000003,,401827.60000000894,,401853.947,8,400,,,
sequence,flow.Sequence,4_52,2023-05-02T00:00:04.388Z,,0,,,2616.8100000029663,completion,,,,,false,,,,401827.8000000119,401827.700000003,399194.724,399196.90000000596,399210.89,401853.947,8,400,,,
trial,html.Screen,4_53_0,2023-05-02T00:00:06.924Z,,0,2,,2509.0530000000144,response,ISIC_0072215.JPG,,ISIC_9529971.JPG,ISIC_0072215.JPG,false,1,keypress(m),500,404363.10000000894,404363,401811.009,401827.90000000596,401853.947,404378.505,8,400,4,,ISIC_9529971.JPG
break,html.Screen,4_53_1,2023-05-02T00:00:06.924Z,,0,,,NaN,,,,,,false,,,,404363.5,404363.3000000119,,404363.10000000894,,404378.505,8,400,,,
break_continue,html.Screen,4_53_2,2023-05-02T00:00:06.924Z,,0,,,NaN,,,,,,false,,,,404363.60000000894,404363.5,,404363.5,,404378.505,8,400,,,
sequence,flow.Sequence,4_53,2023-05-02T00:00:06.924Z,,0,,,2509.5530000000144,completion,,,,,false,,,,404363.700000003,404363.5,401811.009,401827.90000000596,401853.947,404378.505,8,400,,,
trial,html.Screen,4_54_0,2023-05-02T00:00:09.332Z,,0,2,,2392.9949999999953,response,ISIC_1790808.JPG,,ISIC_4212044.JPG,ISIC_4212044.JPG,false,0,keypress(z),500,406771.60000000894,406771.5,404361.729,404363.8000000119,404378.505,406794.583,8,400,5,,ISIC_1790808.JPG
break,html.Screen,4_54_1,2023-05-02T00:00:09.333Z,,0,,,NaN,,,,,,false,,,,406772.10000000894,406772,,406771.700000003,,406794.583,8,400,,,
break_continue,html.Screen,4_54_2,2023-05-02T00:00:09.333Z,,0,,,NaN,,,,,,false,,,,406772.3000000119,406772.200000003,,406772.10000000894,,406794.583,8,400,,,
sequence,flow.Sequence,4_54,2023-05-02T00:00:09.333Z,,0,,,2393.6950000029756,completion,,,,,false,,,,406772.40000000596,406772.200000003,404361.729,404363.8000000119,404378.505,406794.583,8,400,,,
trial,html.Screen,4_55_0,2023-05-02T00:00:12.084Z,,0,2,,2728.3170000059763,response,ISIC_0027836.JPG,,ISIC_4811593.JPG,ISIC_4811593.JPG,false,0,keypress(z),500,409523.10000000894,409522.90000000596,406778.54,406772.5,406794.583,409528.04,8,400,6,,ISIC_0027836.JPG
break,html.Screen,4_55_1,2023-05-02T00:00:12.084Z,,0,,,NaN,,,,,,false,,,,409523.40000000596,409523.40000000596,,409523.10000000894,,409528.04,8,400,,,
break_continue,html.Screen,4_55_2,2023-05-02T00:00:12.084Z,,0,,,NaN,,,,,,false,,,,409523.700000003,409523.60000000894,,409523.5,,409528.04,8,400,,,
sequence,flow.Sequence,4_55,2023-05-02T00:00:12.084Z,,0,,,2729.0170000089565,completion,,,,,false,,,,409523.700000003,409523.60000000894,406778.54,406772.40000000596,406794.583,409528.04,8,400,,,
trial,html.Screen,4_56_0,2023-05-02T00:00:14.723Z,,0,2,,2634.660000003001,response,ISIC_0011648.JPG,,ISIC_4642190.JPG,ISIC_0011648.JPG,false,1,keypress(m),500,412162.8000000119,412162.700000003,409511.367,409523.8000000119,409528.04,412178.322,8,400,7,,ISIC_4642190.JPG
break,html.Screen,4_56_1,2023-05-02T00:00:14.724Z,,0,,,NaN,,,,,,false,,,,412163.3000000119,412163.200000003,,412163,,412178.322,8,400,,,
break_continue,html.Screen,4_56_2,2023-05-02T00:00:14.724Z,,0,,,NaN,,,,,,false,,,,412163.40000000596,412163.40000000596,,412163.3000000119,,412178.322,8,400,,,
sequence,flow.Sequence,4_56,2023-05-02T00:00:14.724Z,,0,,,2635.3600000059814,completion,,,,,false,,,,412163.60000000894,412163.40000000596,409511.367,409523.8000000119,409528.04,412178.322,8,400,,,
trial,html.Screen,4_57_0,2023-05-02T00:00:17.243Z,,0,2,,2504.278000008955,response,ISIC_1192835.JPG,,ISIC_0067601.JPG,ISIC_0067601.JPG,false,0,keypress(z),500,414682.8000000119,414682.60000000894,412161.445,412163.60000000894,412178.322,414694.921,8,400,8,,ISIC_1192835.JPG
break,html.Screen,4_57_1,2023-05-02T00:00:17.244Z,,0,,,NaN,,,,,,false,,,,414683.200000003,414683.10000000894,,414682.90000000596,,414694.921,8,400,,,
break_continue,html.Screen,4_57_2,2023-05-02T00:00:17.244Z,,0,,,NaN,,,,,,false,,,,414683.40000000596,414683.3000000119,,414683.3000000119,,414694.921,8,400,,,
sequence,flow.Sequence,4_57,2023-05-02T00:00:17.244Z,,0,,,2504.9780000119354,completion,,,,,false,,,,414683.5,414683.3000000119,412161.445,412163.60000000894,412178.322,414694.921,8,400,,,
trial,html.Screen,4_58_0,2023-05-02T00:00:19.852Z,,0,2,,2596.1790000089677,response,ISIC_9358630.JPG,,ISIC_9559922.JPG,ISIC_9358630.JPG,false,1,keypress(m),500,417291.3000000119,417291.10000000894,414678.218,414683.60000000894,414694.921,417295.006,8,400,9,,ISIC_9559922.JPG
break,html.Screen,4_58_1,2023-05-02T00:00:19.852Z,,0,,,NaN,,,,,,false,,,,417291.8000000119,417291.700000003,,417291.40000000596,,417295.006,8,400,,,
break_continue,html.Screen,4_58_2,2023-05-02T00:00:19.853Z,,0,,,NaN,,,,,,false,,,,417292,417291.90000000596,,417291.90000000596,,417295.006,8,400,,,
sequence,flow.Sequence,4_58,2023-05-02T00:00:19.853Z,,0,,,2596.9790000059875,completion,,,,,false,,,,417292,417291.90000000596,414678.218,414683.5,414694.921,417295.006,8,400,,,
trial,html.Screen,4_59_0,2023-05-02T00:00:22.275Z,,0,2,,2419.5940000089468,response,ISIC_0026683.JPG,,ISIC_1018265.JPG,ISIC_0026683.JPG,false,1,keypress(m),500,419714.8000000119,419714.60000000894,417278.345,417292.10000000894,417295.006,419745.13,8,400,10,,ISIC_1018265.JPG
break,html.Screen,4_59_1,2023-05-02T00:00:22.276Z,,0,,,NaN,,,,,,false,,,,419715.10000000894,419715,,419714.8000000119,,419745.13,8,400,,,
break_continue,html.Screen,4_59_2,2023-05-02T00:00:22.276Z,,0,,,NaN,,,,,,false,,,,419715.3000000119,419715.3000000119,,419715.200000003,,419745.13,8,400,,,
sequence,flow.Sequence,4_59,2023-05-02T00:00:22.276Z,,0,,,2420.294000011927,completion,,,,,false,,,,419715.40000000596,419715.3000000119,417278.345,417292.10000000894,417295.006,419745.13,8,400,,,
trial,html.Screen,4_60_0,2023-05-02T00:00:25.068Z,,0,2,,2761.8699999999953,response,ISIC_0010017.JPG,,ISIC_0032089.JPG,ISIC_0010017.JPG,false,1,keypress(m),500,422507.10000000894,422507,419728.454,419715.5,419745.13,422511.942,8,400,11,,ISIC_0032089.JPG
break,html.Screen,4_60_1,2023-05-02T00:00:25.068Z,,0,,,NaN,,,,,,false,,,,422507.60000000894,422507.40000000596,,422507.200000003,,422511.942,8,400,,,
break_continue,html.Screen,4_60_2,2023-05-02T00:00:25.068Z,,0,,,NaN,,,,,,false,,,,422507.8000000119,422507.700000003,,422507.60000000894,,422511.942,8,400,,,
sequence,flow.Sequence,4_60,2023-05-02T00:00:25.068Z,,0,,,2762.5700000029756,completion,,,,,false,,,,422507.8000000119,422507.700000003,419728.454,419715.40000000596,419745.13,422511.942,8,400,,,
trial,html.Screen,4_61_0,2023-05-02T00:00:27.939Z,,0,2,,2866.558000000019,response,ISIC_2412888.JPG,,ISIC_1102075.JPG,ISIC_2412888.JPG,false,1,keypress(m),500,425378.60000000894,425378.5,422495.261,422507.90000000596,422511.942,425395.421,8,400,12,,ISIC_1102075.JPG
break,html.Screen,4_61_1,2023-05-02T00:00:27.940Z,,0,,,NaN,,,,,,false,,,,425379.200000003,425379,,425378.700000003,,425395.421,8,400,,,
break_continue,html.Screen,4_61_2,2023-05-02T00:00:27.940Z,,0,,,NaN,,,,,,false,,,,425379.3000000119,425379.200000003,,425379.200000003,,425395.421,8,400,,,
sequence,flow.Sequence,4_61,2023-05-02T00:00:27.940Z,,0,,,2867.2580000029993,completion,,,,,false,,,,425379.40000000596,425379.200000003,422495.261,422507.90000000596,422511.942,425395.421,8,400,,,
trial,html.Screen,4_62_0,2023-05-02T00:00:30.492Z,,0,2,,2535.7790000030072,response,ISIC_0060050.JPG,,ISIC_1650523.JPG,ISIC_1650523.JPG,false,0,keypress(z),500,427931.200000003,427931.200000003,425378.849,425379.5,425395.421,427946.134,8,400,13,,ISIC_0060050.JPG
break,html.Screen,4_62_1,2023-05-02T00:00:30.492Z,,0,,,NaN,,,,,,false,,,,427931.700000003,427931.60000000894,,427931.40000000596,,427946.134,8,400,,,
break_continue,html.Screen,4_62_2,2023-05-02T00:00:30.493Z,,0,,,NaN,,,,,,false,,,,427931.8000000119,427931.8000000119,,427931.700000003,,427946.134,8,400,,,
sequence,flow.Sequence,4_62,2023-05-02T00:00:30.493Z,,0,,,2536.379000011948,completion,,,,,false,,,,427931.90000000596,427931.8000000119,425378.849,425379.5,425395.421,427946.134,8,400,,,
trial,html.Screen,4_63_0,2023-05-02T00:00:33.388Z,,0,2,,2880.9660000089207,response,ISIC_6340564.JPG,,ISIC_9738202.JPG,ISIC_6340564.JPG,false,1,keypress(m),500,430827.200000003,430827.10000000894,427929.418,427932,427946.134,430828.979,8,400,14,,ISIC_9738202.JPG
break,html.Screen,4_63_1,2023-05-02T00:00:33.388Z,,0,,,NaN,,,,,,false,,,,430827.700000003,430827.5,,430827.3000000119,,430828.979,8,400,,,
break_continue,html.Screen,4_63_2,2023-05-02T00:00:33.389Z,,0,,,NaN,,,,,,false,,,,430827.90000000596,430827.8000000119,,430827.700000003,,430828.979,8,400,,,
sequence,flow.Sequence,4_63,2023-05-02T00:00:33.389Z,,0,,,2881.666000011901,completion,,,,,false,,,,430827.90000000596,430827.8000000119,427929.418,427931.90000000596,427946.134,430828.979,8,400,,,
trial,html.Screen,4_64_0,2023-05-02T00:00:36.196Z,,0,2,,2805.821000011929,response,ISIC_9974613.JPG,,ISIC_0068580.JPG,ISIC_0068580.JPG,false,0,keypress(z),500,433635,433634.8000000119,430812.263,430828,430828.979,433645.78,8,400,15,,ISIC_9974613.JPG
break,html.Screen,4_64_1,2023-05-02T00:00:36.196Z,,0,,,NaN,,,,,,false,,,,433635.3000000119,433635.200000003,,433635,,433645.78,8,400,,,
break_continue,html.Screen,4_64_2,2023-05-02T00:00:36.196Z,,0,,,NaN,,,,,,false,,,,433635.5,433635.5,,433635.40000000596,,433645.78,8,400,,,
sequence,flow.Sequence,4_64,2023-05-02T00:00:36.196Z,,0,,,2806.521000000008,completion,,,,,false,,,,433635.5,433635.5,430812.263,430828,430828.979,433645.78,8,400,,,
trial,html.Screen,4_65_0,2023-05-02T00:00:39.148Z,,0,2,,2941.1200000059325,response,ISIC_8108090.JPG,,ISIC_9559922.JPG,ISIC_9559922.JPG,false,0,keypress(z),500,436587.10000000894,436586.90000000596,433629.014,433635.700000003,433645.78,436595.876,8,400,16,,ISIC_8108090.JPG
break,html.Screen,4_65_1,2023-05-02T00:00:39.148Z,,0,,,NaN,,,,,,false,,,,436587.5,436587.40000000596,,436587.200000003,,436595.876,8,400,,,
break_continue,html.Screen,4_65_2,2023-05-02T00:00:39.148Z,,0,,,NaN,,,,,,false,,,,436587.700000003,436587.700000003,,436587.60000000894,,436595.876,8,400,,,
sequence,flow.Sequence,4_65,2023-05-02T00:00:39.148Z,,0,,,2941.9200000029523,completion,,,,,false,,,,436587.700000003,436587.700000003,433629.014,433635.700000003,433645.78,436595.876,8,400,,,
trial,html.Screen,4_66_0,2023-05-02T00:00:42.541Z,,0,2,,3384.2240000089514,response,ISIC_7364041.JPG,,ISIC_5921777.JPG,ISIC_7364041.JPG,false,1,keypress(m),500,439980.200000003,439980.10000000894,436579.137,436587.90000000596,436595.876,439996.045,8,400,17,,ISIC_5921777.JPG
break,html.Screen,4_66_1,2023-05-02T00:00:42.541Z,,0,,,NaN,,,,,,false,,,,439980.60000000894,439980.5,,439980.200000003,,439996.045,8,400,,,
break_continue,html.Screen,4_66_2,2023-05-02T00:00:42.541Z,,0,,,NaN,,,,,,false,,,,439980.700000003,439980.700000003,,439980.700000003,,439996.045,8,400,,,
sequence,flow.Sequence,4_66,2023-05-02T00:00:42.541Z,,0,,,3384.824000002991,completion,,,,,false,,,,439980.8000000119,439980.700000003,436579.137,436587.90000000596,436595.876,439996.045,8,400,,,
trial,html.Screen,4_67_0,2023-05-02T00:00:45.909Z,,0,2,,3352.1550000029965,response,ISIC_0032473.JPG,,ISIC_3520709.JPG,ISIC_0032473.JPG,false,1,keypress(m),500,443348.3000000119,443348.200000003,439979.286,439980.8000000119,439996.045,443362.826,8,400,18,,ISIC_3520709.JPG
break,html.Screen,4_67_1,2023-05-02T00:00:45.909Z,,0,,,NaN,,,,,,false,,,,443348.8000000119,443348.60000000894,,443348.40000000596,,443362.826,8,400,,,
break_continue,html.Screen,4_67_2,2023-05-02T00:00:45.910Z,,0,,,NaN,,,,,,false,,,,443349,443348.90000000596,,443348.90000000596,,443362.826,8,400,,,
sequence,flow.Sequence,4_67,2023-05-02T00:00:45.910Z,,0,,,3352.8550000059768,completion,,,,,false,,,,443349.10000000894,443348.90000000596,439979.286,439980.8000000119,439996.045,443362.826,8,400,,,
trial,html.Screen,4_68_0,2023-05-02T00:00:49.388Z,,0,2,,3464.5740000059595,response,ISIC_0010235.JPG,,ISIC_0010782.JPG,ISIC_0010235.JPG,false,1,keypress(m),500,446827.5,446827.40000000596,443346.128,443349.10000000894,443362.826,446829.653,8,400,19,,ISIC_0010782.JPG
break,html.Screen,4_68_1,2023-05-02T00:00:49.389Z,,0,,,NaN,,,,,,false,,,,446827.90000000596,446827.90000000596,,446827.60000000894,,446829.653,8,400,,,
break_continue,html.Screen,4_68_2,2023-05-02T00:00:49.389Z,,0,,,NaN,,,,,,false,,,,446828.10000000894,446828.10000000894,,446828,,446829.653,8,400,,,
sequence,flow.Sequence,4_68,2023-05-02T00:00:49.389Z,,0,,,3465.2740000089398,completion,,,,,false,,,,446828.200000003,446828.10000000894,443346.128,443349.10000000894,443362.826,446829.653,8,400,,,
trial,html.Screen,4_69_0,2023-05-02T00:00:52.188Z,,0,2,,2798.7470000059693,response,ISIC_0003113.JPG,,ISIC_0028548.JPG,ISIC_0028548.JPG,false,0,keypress(z),500,449628.5,449628.40000000596,446813.015,446828.200000003,446829.653,449650.89,8,400,20,,ISIC_0003113.JPG
break,html.Screen,4_69_1,2023-05-02T00:00:52.189Z,,0,,,NaN,,,,,,false,,,,449629,449628.90000000596,,449628.60000000894,,449650.89,8,400,,,
break_continue,html.Screen,4_69_2,2023-05-02T00:00:52.189Z,,0,,,NaN,,,,,,false,,,,449629.200000003,449629.10000000894,,449629,,449650.89,8,400,,,
sequence,flow.Sequence,4_69,2023-05-02T00:00:52.189Z,,0,,,2799.4470000089495,completion,,,,,false,,,,449629.200000003,449629.10000000894,446813.015,446828.200000003,446829.653,449650.89,8,400,,,
trial,html.Screen,4_70_0,2023-05-02T00:00:55.067Z,,0,2,,2856.609999999986,response,ISIC_0026043.JPG,,ISIC_0068233.JPG,ISIC_0068233.JPG,false,0,keypress(z),500,452507.60000000894,452507.5,449613.057,449629.3000000119,449650.89,452513.258,8,400,21,,ISIC_0026043.JPG
break,html.Screen,4_70_1,2023-05-02T00:00:55.068Z,,0,,,NaN,,,,,,false,,,,452508.10000000894,452508,,452507.700000003,,452513.258,8,400,,,
break_continue,html.Screen,4_70_2,2023-05-02T00:00:55.068Z,,0,,,NaN,,,,,,false,,,,452508.3000000119,452508.3000000119,,452508.10000000894,,452513.258,8,400,,,
sequence,flow.Sequence,4_70,2023-05-02T00:00:55.068Z,,0,,,2857.410000011907,completion,,,,,false,,,,452508.40000000596,452508.3000000119,449613.057,449629.200000003,449650.89,452513.258,8,400,,,
trial,html.Screen,4_71_0,2023-05-02T00:00:58.203Z,,0,2,,3130.0420000119484,response,ISIC_1115013.JPG,,ISIC_2038024.JPG,ISIC_2038024.JPG,false,0,keypress(z),500,455643.5,455643.3000000119,452496.766,452508.5,452513.258,455646.713,8,400,22,,ISIC_1115013.JPG
break,html.Screen,4_71_1,2023-05-02T00:00:58.204Z,,0,,,NaN,,,,,,false,,,,455644,455643.8000000119,,455643.60000000894,,455646.713,8,400,,,
break_continue,html.Screen,4_71_2,2023-05-02T00:00:58.204Z,,0,,,NaN,,,,,,false,,,,455644.10000000894,455644.10000000894,,455644,,455646.713,8,400,,,
sequence,flow.Sequence,4_71,2023-05-02T00:00:58.204Z,,0,,,3130.842000008968,completion,,,,,false,,,,455644.200000003,455644.10000000894,452496.766,452508.5,452513.258,455646.713,8,400,,,
trial,html.Screen,4_72_0,2023-05-02T00:01:01.515Z,,0,2,,3308.787000000011,response,ISIC_0004486.JPG,,ISIC_0070961.JPG,ISIC_0070961.JPG,false,0,keypress(z),500,458955.60000000894,458955.5,455630.117,455644.200000003,455646.713,458963.505,8,400,23,,ISIC_0004486.JPG
break,html.Screen,4_72_1,2023-05-02T00:01:01.516Z,,0,,,NaN,,,,,,false,,,,458956,458955.90000000596,,458955.60000000894,,458963.505,8,400,,,
break_continue,html.Screen,4_72_2,2023-05-02T00:01:01.516Z,,0,,,NaN,,,,,,false,,,,458956.10000000894,458956.10000000894,,458956.10000000894,,458963.505,8,400,,,
sequence,flow.Sequence,4_72,2023-05-02T00:01:01.516Z,,0,,,3309.387000008952,completion,,,,,false,,,,458956.3000000119,458956.10000000894,455630.117,455644.200000003,455646.713,458963.505,8,400,,,
trial,html.Screen,4_73_0,2023-05-02T00:01:04.219Z,,0,2,,2695.895000005956,response,ISIC_0010050.JPG,,ISIC_9217340.JPG,ISIC_0010050.JPG,false,1,keypress(m),500,461659.5,461659.40000000596,458946.802,458956.3000000119,458963.505,461663.645,8,400,24,,ISIC_9217340.JPG
break,html.Screen,4_73_1,2023-05-02T00:01:04.220Z,,0,,,NaN,,,,,,false,,,,461660,461659.8000000119,,461659.60000000894,,461663.645,8,400,,,
break_continue,html.Screen,4_73_2,2023-05-02T00:01:04.220Z,,0,,,NaN,,,,,,false,,,,461660.200000003,461660.10000000894,,461660,,461663.645,8,400,,,
sequence,flow.Sequence,4_73,2023-05-02T00:01:04.220Z,,0,,,2696.595000008936,completion,,,,,false,,,,461660.200000003,461660.10000000894,458946.802,458956.3000000119,458963.505,461663.645,8,400,,,
trial,html.Screen,4_74_0,2023-05-02T00:01:07.259Z,,0,2,,3035.5550000029616,response,ISIC_5816399.JPG,,ISIC_7912104.JPG,ISIC_7912104.JPG,false,0,keypress(z),500,464699.40000000596,464699.200000003,461646.954,461660.200000003,461663.645,464713.815,8,400,25,,ISIC_5816399.JPG
break,html.Screen,4_74_1,2023-05-02T00:01:07.260Z,,0,,,NaN,,,,,,false,,,,464699.8000000119,464699.700000003,,464699.40000000596,,464713.815,8,400,,,
break_continue,html.Screen,4_74_2,2023-05-02T00:01:07.260Z,,0,,,NaN,,,,,,false,,,,464699.90000000596,464699.8000000119,,464699.8000000119,,464713.815,8,400,,,
sequence,flow.Sequence,4_74,2023-05-02T00:01:07.260Z,,0,,,3036.1550000119023,completion,,,,,false,,,,464699.90000000596,464699.8000000119,461646.954,461660.200000003,461663.645,464713.815,8,400,,,
trial,html.Screen,4_75_0,2023-05-02T00:01:10.483Z,,0,2,,3208.7850000089384,response,ISIC_0027067.JPG,,ISIC_0455743.JPG,ISIC_0027067.JPG,false,1,keypress(m),500,467922.700000003,467922.60000000894,464697.047,464699.90000000596,464713.815,467930.555,8,400,26,,ISIC_0455743.JPG
break,html.Screen,4_75_1,2023-05-02T00:01:10.483Z,,0,,,NaN,,,,,,false,,,,467923.200000003,467923.10000000894,,467922.90000000596,,467930.555,8,400,,,
break_continue,html.Screen,4_75_2,2023-05-02T00:01:10.483Z,,0,,,NaN,,,,,,false,,,,467923.40000000596,467923.3000000119,,467923.200000003,,467930.555,8,400,,,
sequence,flow.Sequence,4_75,2023-05-02T00:01:10.483Z,,0,,,3209.4850000119186,completion,,,,,false,,,,467923.40000000596,467923.3000000119,464697.047,464699.90000000596,464713.815,467930.555,8,400,,,
trial,html.Screen,4_76_0,2023-05-02T00:01:13.444Z,,0,2,,2953.145000002987,response,ISIC_2918117.JPG,,ISIC_6617840.JPG,ISIC_2918117.JPG,false,1,keypress(m),500,470883.8000000119,470883.700000003,467914.389,467923.5,467930.555,470897.354,8,400,27,,ISIC_6617840.JPG
break,html.Screen,4_76_1,2023-05-02T00:01:13.444Z,,0,,,NaN,,,,,,false,,,,470884.40000000596,470884.200000003,,470883.90000000596,,470897.354,8,400,,,
break_continue,html.Screen,4_76_2,2023-05-02T00:01:13.444Z,,0,,,NaN,,,,,,false,,,,470884.60000000894,470884.5,,470884.40000000596,,470897.354,8,400,,,
sequence,flow.Sequence,4_76,2023-05-02T00:01:13.444Z,,0,,,2953.945000000007,completion,,,,,false,,,,470884.60000000894,470884.5,467914.389,467923.5,467930.555,470897.354,8,400,,,
trial,html.Screen,4_77_0,2023-05-02T00:01:16.611Z,,0,2,,3154.0460000059684,response,ISIC_0385633.JPG,,ISIC_0000466.JPG,ISIC_0000466.JPG,false,0,keypress(z),500,474051.60000000894,474051.40000000596,470880.86,470884.8000000119,470897.354,474064.188,8,400,28,,ISIC_0385633.JPG
break,html.Screen,4_77_1,2023-05-02T00:01:16.612Z,,0,,,NaN,,,,,,false,,,,474052,474051.90000000596,,474051.700000003,,474064.188,8,400,,,
break_continue,html.Screen,4_77_2,2023-05-02T00:01:16.612Z,,0,,,NaN,,,,,,false,,,,474052.200000003,474052.200000003,,474052,,474064.188,8,400,,,
sequence,flow.Sequence,4_77,2023-05-02T00:01:16.612Z,,0,,,3154.846000002988,completion,,,,,false,,,,474052.3000000119,474052.200000003,470880.86,470884.700000003,470897.354,474064.188,8,400,,,
trial,html.Screen,4_78_0,2023-05-02T00:01:19.995Z,,0,2,,3370.412000008917,response,ISIC_0070651.JPG,,ISIC_0033394.JPG,ISIC_0070651.JPG,false,1,keypress(m),500,477434.8000000119,477434.60000000894,474047.588,474052.3000000119,474064.188,477447.69,8,400,29,,ISIC_0033394.JPG
break,html.Screen,4_78_1,2023-05-02T00:01:19.995Z,,0,,,NaN,,,,,,false,,,,477435.10000000894,477435.10000000894,,477434.8000000119,,477447.69,8,400,,,
break_continue,html.Screen,4_78_2,2023-05-02T00:01:19.995Z,,0,,,NaN,,,,,,false,,,,477435.40000000596,477435.200000003,,477435.200000003,,477447.69,8,400,,,
sequence,flow.Sequence,4_78,2023-05-02T00:01:19.995Z,,0,,,3371.0120000029565,completion,,,,,false,,,,477435.40000000596,477435.200000003,474047.588,474052.3000000119,474064.188,477447.69,8,400,,,
trial,html.Screen,4_79_0,2023-05-02T00:01:22.602Z,,0,2,,2594.8099999999977,response,ISIC_0691454.JPG,,ISIC_6945921.JPG,ISIC_6945921.JPG,false,0,keypress(z),500,480042.60000000894,480042.5,477430.958,477435.5,477447.69,480047.756,8,400,30,,ISIC_0691454.JPG
break,html.Screen,4_79_1,2023-05-02T00:01:22.603Z,,0,,,NaN,,,,,,false,,,,480043.10000000894,480043,,480042.8000000119,,480047.756,8,400,,,
break_continue,html.Screen,4_79_2,2023-05-02T00:01:22.603Z,,0,,,NaN,,,,,,false,,,,480043.40000000596,480043.200000003,,480043.200000003,,480047.756,8,400,,,
sequence,flow.Sequence,4_79,2023-05-02T00:01:22.603Z,,0,,,2595.510000002978,completion,,,,,false,,,,480043.5,480043.200000003,477430.958,477435.5,477447.69,480047.756,8,400,,,
trial,html.Screen,4_80_0,2023-05-02T00:01:25.380Z,,0,2,,2772.3440000089468,response,ISIC_7923008.JPG,,ISIC_2067576.JPG,ISIC_7923008.JPG,false,1,keypress(m),500,482820.10000000894,482820.10000000894,480031.064,480043.5,480047.756,482832.074,8,400,31,,ISIC_2067576.JPG
break,html.Screen,4_80_1,2023-05-02T00:01:25.380Z,,0,,,NaN,,,,,,false,,,,482820.60000000894,482820.5,,482820.3000000119,,482832.074,8,400,,,
break_continue,html.Screen,4_80_2,2023-05-02T00:01:25.381Z,,0,,,NaN,,,,,,false,,,,482820.8000000119,482820.700000003,,482820.700000003,,482832.074,8,400,,,
sequence,flow.Sequence,4_80,2023-05-02T00:01:25.381Z,,0,,,2772.9440000029863,completion,,,,,false,,,,482820.8000000119,482820.700000003,480031.064,480043.5,480047.756,482832.074,8,400,,,
trial,html.Screen,4_81_0,2023-05-02T00:01:28.380Z,,0,2,,2987.9259999999776,response,ISIC_0055876.JPG,,ISIC_7869255.JPG,ISIC_7869255.JPG,false,0,keypress(z),500,485820.10000000894,485820,482815.161,482820.90000000596,482832.074,485831.369,8,400,32,,ISIC_0055876.JPG
break,html.Screen,4_81_1,2023-05-02T00:01:28.380Z,,0,,,NaN,,,,,,false,,,,485820.5,485820.40000000596,,485820.200000003,,485831.369,8,400,,,
break_continue,html.Screen,4_81_2,2023-05-02T00:01:28.380Z,,0,,,NaN,,,,,,false,,,,485820.700000003,485820.60000000894,,485820.5,,485831.369,8,400,,,
sequence,flow.Sequence,4_81,2023-05-02T00:01:28.381Z,,0,,,2988.5260000089183,completion,,,,,false,,,,485820.8000000119,485820.60000000894,482815.161,482820.90000000596,482832.074,485831.369,8,400,,,
trial,html.Screen,4_82_0,2023-05-02T00:01:31.498Z,,0,2,,3107.0310000059544,response,ISIC_6954782.JPG,,ISIC_6220625.JPG,ISIC_6220625.JPG,false,0,keypress(z),500,488938.60000000894,488938.40000000596,485814.653,485820.8000000119,485831.369,488948.184,8,400,33,,ISIC_6954782.JPG
break,html.Screen,4_82_1,2023-05-02T00:01:31.499Z,,0,,,NaN,,,,,,false,,,,488939.10000000894,488939,,488938.60000000894,,488948.184,8,400,,,
break_continue,html.Screen,4_82_2,2023-05-02T00:01:31.499Z,,0,,,NaN,,,,,,false,,,,488939.3000000119,488939.200000003,,488939.10000000894,,488948.184,8,400,,,
sequence,flow.Sequence,4_82,2023-05-02T00:01:31.499Z,,0,,,3107.831000002974,completion,,,,,false,,,,488939.3000000119,488939.200000003,485814.653,485820.8000000119,485831.369,488948.184,8,400,,,
trial,html.Screen,4_83_0,2023-05-02T00:01:34.387Z,,0,2,,2878.9160000089323,response,ISIC_1962845.JPG,,ISIC_9126992.JPG,ISIC_1962845.JPG,false,1,keypress(m),500,491827.200000003,491827.10000000894,488931.437,488939.40000000596,488948.184,491831.621,8,400,34,,ISIC_9126992.JPG
break,html.Screen,4_83_1,2023-05-02T00:01:34.388Z,,0,,,NaN,,,,,,false,,,,491827.700000003,491827.60000000894,,491827.3000000119,,491831.621,8,400,,,
break_continue,html.Screen,4_83_2,2023-05-02T00:01:34.388Z,,0,,,NaN,,,,,,false,,,,491827.90000000596,491827.8000000119,,491827.8000000119,,491831.621,8,400,,,
sequence,flow.Sequence,4_83,2023-05-02T00:01:34.388Z,,0,,,2879.6160000119125,completion,,,,,false,,,,491827.90000000596,491827.8000000119,488931.437,488939.40000000596,488948.184,491831.621,8,400,,,
trial,html.Screen,4_84_0,2023-05-02T00:01:37.180Z,,0,2,,2787.979000008956,response,ISIC_0031155.JPG,,ISIC_0030852.JPG,ISIC_0030852.JPG,false,0,keypress(z),500,494619.700000003,494619.60000000894,491814.915,491828,491831.621,494631.755,8,400,35,,ISIC_0031155.JPG
break,html.Screen,4_84_1,2023-05-02T00:01:37.180Z,,0,,,NaN,,,,,,false,,,,494620.200000003,494620.10000000894,,494619.8000000119,,494631.755,8,400,,,
break_continue,html.Screen,4_84_2,2023-05-02T00:01:37.180Z,,0,,,NaN,,,,,,false,,,,494620.3000000119,494620.200000003,,494620.200000003,,494631.755,8,400,,,
sequence,flow.Sequence,4_84,2023-05-02T00:01:37.180Z,,0,,,2788.5790000029956,completion,,,,,false,,,,494620.3000000119,494620.200000003,491814.915,491827.90000000596,491831.621,494631.755,8,400,,,
trial,html.Screen,4_85_0,2023-05-02T00:01:40.875Z,,0,2,,3683.7449999999953,response,ISIC_1368336.JPG,,ISIC_6358752.JPG,ISIC_6358752.JPG,false,0,keypress(z),500,498315.60000000894,498315.5,494615.033,494620.40000000596,494631.755,498331.875,8,400,36,,ISIC_1368336.JPG
break,html.Screen,4_85_1,2023-05-02T00:01:40.876Z,,0,,,NaN,,,,,,false,,,,498316,498315.90000000596,,498315.700000003,,498331.875,8,400,,,
break_continue,html.Screen,4_85_2,2023-05-02T00:01:40.876Z,,0,,,NaN,,,,,,false,,,,498316.200000003,498316.200000003,,498316.10000000894,,498331.875,8,400,,,
sequence,flow.Sequence,4_85,2023-05-02T00:01:40.876Z,,0,,,3684.4450000029756,completion,,,,,false,,,,498316.3000000119,498316.200000003,494615.033,494620.40000000596,494631.755,498331.875,8,400,,,
trial,html.Screen,4_86_0,2023-05-02T00:01:43.979Z,,0,2,,3087.125,response,ISIC_0347984.JPG,,ISIC_0072768.JPG,ISIC_0072768.JPG,false,0,keypress(z),500,501419,501419,498315.231,498316.3000000119,498331.875,501432.068,8,400,37,,ISIC_0347984.JPG
break,html.Screen,4_86_1,2023-05-02T00:01:43.979Z,,0,,,NaN,,,,,,false,,,,501419.5,501419.40000000596,,501419.200000003,,501432.068,8,400,,,
break_continue,html.Screen,4_86_2,2023-05-02T00:01:43.980Z,,0,,,NaN,,,,,,false,,,,501419.700000003,501419.60000000894,,501419.60000000894,,501432.068,8,400,,,
sequence,flow.Sequence,4_86,2023-05-02T00:01:43.980Z,,0,,,3087.7250000089407,completion,,,,,false,,,,501419.8000000119,501419.60000000894,498315.231,498316.3000000119,498331.875,501432.068,8,400,,,
trial,html.Screen,4_87_0,2023-05-02T00:01:46.835Z,,0,2,,2842.4319999999716,response,ISIC_4981135.JPG,,ISIC_0011509.JPG,ISIC_0011509.JPG,false,0,keypress(z),500,504274.700000003,504274.5,501415.561,501419.8000000119,501432.068,504282.169,8,400,38,,ISIC_4981135.JPG
break,html.Screen,4_87_1,2023-05-02T00:01:46.835Z,,0,,,NaN,,,,,,false,,,,504275.200000003,504275,,504274.8000000119,,504282.169,8,400,,,
break_continue,html.Screen,4_87_2,2023-05-02T00:01:46.835Z,,0,,,NaN,,,,,,false,,,,504275.3000000119,504275.3000000119,,504275.200000003,,504282.169,8,400,,,
sequence,flow.Sequence,4_87,2023-05-02T00:01:46.835Z,,0,,,2843.2320000118925,completion,,,,,false,,,,504275.3000000119,504275.3000000119,501415.561,501419.8000000119,501432.068,504282.169,8,400,,,
trial,html.Screen,4_88_0,2023-05-02T00:01:49.923Z,,0,2,,3081.1310000119265,response,ISIC_4829706.JPG,,ISIC_0070050.JPG,ISIC_0070050.JPG,false,0,keypress(z),500,507363.40000000596,507363.3000000119,504265.459,504275.40000000596,504282.169,507365.627,8,400,39,,ISIC_4829706.JPG
break,html.Screen,4_88_1,2023-05-02T00:01:49.924Z,,0,,,NaN,,,,,,false,,,,507363.8000000119,507363.700000003,,507363.5,,507365.627,8,400,,,
break_continue,html.Screen,4_88_2,2023-05-02T00:01:49.924Z,,0,,,NaN,,,,,,false,,,,507364,507364,,507363.90000000596,,507365.627,8,400,,,
sequence,flow.Sequence,4_88,2023-05-02T00:01:49.924Z,,0,,,3081.8310000000056,completion,,,,,false,,,,507364.10000000894,507364,504265.459,504275.3000000119,504282.169,507365.627,8,400,,,
trial,html.Screen,4_89_0,2023-05-02T00:01:52.739Z,,0,2,,2813.8730000000214,response,ISIC_7438013.JPG,,ISIC_0060586.JPG,ISIC_0060586.JPG,false,0,keypress(z),500,510179.60000000894,510179.5,507348.93,507364.200000003,507365.627,510182.418,8,400,40,,ISIC_7438013.JPG
break,html.Screen,4_89_1,2023-05-02T00:01:52.740Z,,0,,,NaN,,,,,,false,,,,510180.10000000894,510180,,510179.700000003,,510182.418,8,400,,,
break_continue,html.Screen,4_89_2,2023-05-02T00:01:52.740Z,,0,,,NaN,,,,,,false,,,,510180.200000003,510180.200000003,,510180.200000003,,510182.418,8,400,,,
sequence,flow.Sequence,4_89,2023-05-02T00:01:52.740Z,,0,,,2814.5730000030017,completion,,,,,false,,,,510180.3000000119,510180.200000003,507348.93,507364.10000000894,507365.627,510182.418,8,400,,,
trial,html.Screen,4_90_0,2023-05-02T00:01:55.403Z,,0,2,,2660.282000002975,response,ISIC_9776851.JPG,,ISIC_2400177.JPG,ISIC_2400177.JPG,false,0,keypress(z),500,512842.8000000119,512842.700000003,510166.408,510180.40000000596,510182.418,512849.197,8,400,41,,ISIC_9776851.JPG
break,html.Screen,4_90_1,2023-05-02T00:01:55.403Z,,0,,,NaN,,,,,,false,,,,512843.200000003,512843.10000000894,,512843,,512849.197,8,400,,,
break_continue,html.Screen,4_90_2,2023-05-02T00:01:55.403Z,,0,,,NaN,,,,,,false,,,,512843.40000000596,512843.3000000119,,512843.200000003,,512849.197,8,400,,,
sequence,flow.Sequence,4_90,2023-05-02T00:01:55.403Z,,0,,,2660.882000011916,completion,,,,,false,,,,512843.5,512843.3000000119,510166.408,510180.40000000596,510182.418,512849.197,8,400,,,
trial,html.Screen,4_91_0,2023-05-02T00:01:58.195Z,,0,2,,2785.5030000029947,response,ISIC_8929288.JPG,,ISIC_0033517.JPG,ISIC_8929288.JPG,false,1,keypress(m),500,515634.8000000119,515634.700000003,512832.491,512843.5,512849.197,515649.926,8,400,42,,ISIC_0033517.JPG
break,html.Screen,4_91_1,2023-05-02T00:01:58.195Z,,0,,,NaN,,,,,,false,,,,515635.200000003,515635.200000003,,515635,,515649.926,8,400,,,
break_continue,html.Screen,4_91_2,2023-05-02T00:01:58.195Z,,0,,,NaN,,,,,,false,,,,515635.40000000596,515635.40000000596,,515635.3000000119,,515649.926,8,400,,,
sequence,flow.Sequence,4_91,2023-05-02T00:01:58.195Z,,0,,,2786.203000005975,completion,,,,,false,,,,515635.40000000596,515635.40000000596,512832.491,512843.5,512849.197,515649.926,8,400,,,
trial,html.Screen,4_92_0,2023-05-02T00:02:01.083Z,,0,2,,2873.474000005983,response,ISIC_0057089.JPG,,ISIC_2731621.JPG,ISIC_0057089.JPG,false,1,keypress(m),500,518523.60000000894,518523.40000000596,515632.83,515635.5,515649.926,518532.791,8,400,43,,ISIC_2731621.JPG
break,html.Screen,4_92_1,2023-05-02T00:02:01.084Z,,0,,,NaN,,,,,,false,,,,518524.10000000894,518523.90000000596,,518523.60000000894,,518532.791,8,400,,,
break_continue,html.Screen,4_92_2,2023-05-02T00:02:01.084Z,,0,,,NaN,,,,,,false,,,,518524.200000003,518524.10000000894,,518524.10000000894,,518532.791,8,400,,,
sequence,flow.Sequence,4_92,2023-05-02T00:02:01.084Z,,0,,,2874.174000008963,completion,,,,,false,,,,518524.3000000119,518524.10000000894,515632.83,515635.5,515649.926,518532.791,8,400,,,
trial,html.Screen,4_93_0,2023-05-02T00:02:03.955Z,,0,2,,2861.9090000029537,response,ISIC_0011463.JPG,,ISIC_0056316.JPG,ISIC_0056316.JPG,false,0,keypress(z),500,521394.8000000119,521394.700000003,518516.712,518524.40000000596,518532.791,521399.596,8,400,44,,ISIC_0011463.JPG
break,html.Screen,4_93_1,2023-05-02T00:02:03.955Z,,0,,,NaN,,,,,,false,,,,521395.200000003,521395.200000003,,521394.90000000596,,521399.596,8,400,,,
break_continue,html.Screen,4_93_2,2023-05-02T00:02:03.955Z,,0,,,NaN,,,,,,false,,,,521395.40000000596,521395.3000000119,,521395.3000000119,,521399.596,8,400,,,
sequence,flow.Sequence,4_93,2023-05-02T00:02:03.955Z,,0,,,2862.5090000118944,completion,,,,,false,,,,521395.5,521395.3000000119,518516.712,518524.3000000119,518532.791,521399.596,8,400,,,
trial,html.Screen,4_94_0,2023-05-02T00:02:06.651Z,,0,2,,2691.504000008921,response,ISIC_5908780.JPG,,ISIC_0830806.JPG,ISIC_5908780.JPG,false,1,keypress(m),500,524091.200000003,524091.10000000894,521382.853,521395.5,521399.596,524099.691,8,400,45,,ISIC_0830806.JPG
break,html.Screen,4_94_1,2023-05-02T00:02:06.652Z,,0,,,NaN,,,,,,false,,,,524091.700000003,524091.5,,524091.40000000596,,524099.691,8,400,,,
break_continue,html.Screen,4_94_2,2023-05-02T00:02:06.652Z,,0,,,NaN,,,,,,false,,,,524091.90000000596,524091.8000000119,,524091.700000003,,524099.691,8,400,,,
sequence,flow.Sequence,4_94,2023-05-02T00:02:06.652Z,,0,,,2692.2040000119014,completion,,,,,false,,,,524091.90000000596,524091.8000000119,521382.853,521395.5,521399.596,524099.691,8,400,,,
trial,html.Screen,4_95_0,2023-05-02T00:02:09.356Z,,0,2,,2696.1090000119293,response,ISIC_0014392.JPG,,ISIC_0032995.JPG,ISIC_0014392.JPG,false,1,keypress(m),500,526795.900000006,526795.8000000119,524083.057,524092,524099.691,526799.804,8,400,46,,ISIC_0032995.JPG
break,html.Screen,4_95_1,2023-05-02T00:02:09.356Z,,0,,,NaN,,,,,,false,,,,526796.3000000119,526796.200000003,,526796,,526799.804,8,400,,,
break_continue,html.Screen,4_95_2,2023-05-02T00:02:09.356Z,,0,,,NaN,,,,,,false,,,,526796.400000006,526796.400000006,,526796.400000006,,526799.804,8,400,,,
sequence,flow.Sequence,4_95,2023-05-02T00:02:09.356Z,,0,,,2696.709000005969,completion,,,,,false,,,,526796.5,526796.400000006,524083.057,524092,524099.691,526799.804,8,400,,,
trial,html.Screen,4_96_0,2023-05-02T00:02:11.964Z,,0,2,,2604.296000008937,response,ISIC_0000213.JPG,,ISIC_0014103.JPG,ISIC_0014103.JPG,false,0,keypress(z),500,529404.3000000119,529404.1000000089,526783.28,526796.5,526799.804,529417.242,8,400,47,,ISIC_0000213.JPG
break,html.Screen,4_96_1,2023-05-02T00:02:11.965Z,,0,,,NaN,,,,,,false,,,,529404.700000003,529404.6000000089,,529404.400000006,,529417.242,8,400,,,
break_continue,html.Screen,4_96_2,2023-05-02T00:02:11.965Z,,0,,,NaN,,,,,,false,,,,529404.900000006,529404.8000000119,,529404.700000003,,529417.242,8,400,,,
sequence,flow.Sequence,4_96,2023-05-02T00:02:11.965Z,,0,,,2604.996000011917,completion,,,,,false,,,,529405,529404.8000000119,526783.28,526796.5,526799.804,529417.242,8,400,,,
trial,html.Screen,4_97_0,2023-05-02T00:02:14.459Z,,0,2,,2482.158000005991,response,ISIC_2209697.JPG,,ISIC_0027832.JPG,ISIC_0027832.JPG,false,0,keypress(z),500,531899.6000000089,531899.400000006,529399.918,529405,529417.242,531923.634,8,400,48,,ISIC_2209697.JPG
break,html.Screen,4_97_1,2023-05-02T00:02:14.460Z,,0,,,NaN,,,,,,false,,,,531900,531899.900000006,,531899.6000000089,,531923.634,8,400,,,
break_continue,html.Screen,4_97_2,2023-05-02T00:02:14.460Z,,0,,,NaN,,,,,,false,,,,531900.3000000119,531900.200000003,,531900.200000003,,531923.634,8,400,,,
sequence,flow.Sequence,4_97,2023-05-02T00:02:14.460Z,,0,,,2482.958000003011,completion,,,,,false,,,,531900.3000000119,531900.200000003,529399.918,529405,529417.242,531923.634,8,400,,,
trial,html.Screen,4_98_0,2023-05-02T00:02:17.284Z,,0,2,,2800.0660000030184,response,ISIC_0011798.JPG,,ISIC_0027712.JPG,ISIC_0027712.JPG,false,0,keypress(z),500,534723.8000000119,534723.700000003,531883.341,531900.3000000119,531923.634,534733.489,8,400,49,,ISIC_0011798.JPG
break,html.Screen,4_98_1,2023-05-02T00:02:17.284Z,,0,,,NaN,,,,,,false,,,,534724.3000000119,534724.200000003,,534723.900000006,,534733.489,8,400,,,
break_continue,html.Screen,4_98_2,2023-05-02T00:02:17.284Z,,0,,,NaN,,,,,,false,,,,534724.5,534724.3000000119,,534724.3000000119,,534733.489,8,400,,,
sequence,flow.Sequence,4_98,2023-05-02T00:02:17.284Z,,0,,,2800.666000011959,completion,,,,,false,,,,534724.5,534724.3000000119,531883.341,531900.3000000119,531923.634,534733.489,8,400,,,
trial,html.Screen,4_99_0,2023-05-02T00:02:20.211Z,,0,2,,2917.511000000057,response,ISIC_1009042.JPG,,ISIC_7694028.JPG,ISIC_1009042.JPG,false,1,keypress(m),500,537651,537651,534716.763,534724.5,534733.489,537666.954,8,400,50,,ISIC_7694028.JPG
break,html.Screen,4_99_1,2023-05-02T00:02:25.211Z,,0,,,5000.236999999965,timeout,,,,,false,,,,542650.8000000119,542650.486,537650.263,537651.200000003,537666.954,542667.191,8,400,,,
break_continue,html.Screen,4_99_2,2023-05-02T00:02:25.895Z,,0,,,659.0090000029886,response,,,,,false,continue,keypress(Space),,543334.8000000119,543326.200000003,542650.486,542650.900000006,542667.191,543350.534,8,400,,,
sequence,flow.Sequence,4_99,2023-05-02T00:02:25.895Z,,0,,,8592.711000003037,completion,,,,,false,,,,543334.900000006,543326.200000003,534716.763,534724.5,534733.489,543350.534,8,400,,,
trial,html.Screen,4_100_0,2023-05-02T00:02:28.500Z,,0,3,,2589.666000002995,response,ISIC_0028061.JPG,,ISIC_0034076.JPG,ISIC_0034076.JPG,false,0,keypress(z),500,545940.400000006,545940.200000003,543333.782,543334.900000006,543350.534,545950.664,8,400,1,,ISIC_0028061.JPG
break,html.Screen,4_100_1,2023-05-02T00:02:28.501Z,,0,,,NaN,,,,,,false,,,,545940.8000000119,545940.700000003,,545940.400000006,,545950.664,8,400,,,
break_continue,html.Screen,4_100_2,2023-05-02T00:02:28.501Z,,0,,,NaN,,,,,,false,,,,545941.1000000089,545941,,545940.900000006,,545950.664,8,400,,,
sequence,flow.Sequence,4_100,2023-05-02T00:02:28.501Z,,0,,,2590.466000000015,completion,,,,,false,,,,545941.1000000089,545941,543333.782,543334.900000006,543350.534,545950.664,8,400,,,
trial,html.Screen,4_101_0,2023-05-02T00:02:31.251Z,,0,3,,2740.5360000029905,response,ISIC_3303825.JPG,,ISIC_5282642.JPG,ISIC_5282642.JPG,false,0,keypress(z),500,548691.3000000119,548691.200000003,545933.932,545941.200000003,545950.664,548700.741,8,400,2,,ISIC_3303825.JPG
break,html.Screen,4_101_1,2023-05-02T00:02:31.252Z,,0,,,NaN,,,,,,false,,,,548691.8000000119,548691.700000003,,548691.400000006,,548700.741,8,400,,,
break_continue,html.Screen,4_101_2,2023-05-02T00:02:31.252Z,,0,,,NaN,,,,,,false,,,,548692,548691.900000006,,548691.900000006,,548700.741,8,400,,,
sequence,flow.Sequence,4_101,2023-05-02T00:02:31.252Z,,0,,,2741.2360000059707,completion,,,,,false,,,,548692,548691.900000006,545933.932,545941.200000003,545950.664,548700.741,8,400,,,
trial,html.Screen,4_102_0,2023-05-02T00:02:34.075Z,,0,3,,2814.5590000118827,response,ISIC_4266157.JPG,,ISIC_0065206.JPG,ISIC_4266157.JPG,false,1,keypress(m),500,551515.400000006,551515.3000000119,548684.077,548692,548700.741,551517.567,8,400,3,,ISIC_0065206.JPG
break,html.Screen,4_102_1,2023-05-02T00:02:34.076Z,,0,,,NaN,,,,,,false,,,,551515.8000000119,551515.8000000119,,551515.5,,551517.567,8,400,,,
break_continue,html.Screen,4_102_2,2023-05-02T00:02:34.076Z,,0,,,NaN,,,,,,false,,,,551516,551515.900000006,,551515.8000000119,,551517.567,8,400,,,
sequence,flow.Sequence,4_102,2023-05-02T00:02:34.076Z,,0,,,2815.1590000059223,completion,,,,,false,,,,551516,551515.900000006,548684.077,548692,548700.741,551517.567,8,400,,,
trial,html.Screen,4_103_0,2023-05-02T00:02:36.524Z,,0,3,,2446.133000002941,response,ISIC_3392433.JPG,,ISIC_5747486.JPG,ISIC_5747486.JPG,false,0,keypress(z),500,553963.8000000119,553963.700000003,551500.832,551516.1000000089,551517.567,553967.686,8,400,4,,ISIC_3392433.JPG
break,html.Screen,4_103_1,2023-05-02T00:02:36.524Z,,0,,,NaN,,,,,,false,,,,553964.200000003,553964.1000000089,,553963.900000006,,553967.686,8,400,,,
break_continue,html.Screen,4_103_2,2023-05-02T00:02:36.524Z,,0,,,NaN,,,,,,false,,,,553964.400000006,553964.3000000119,,553964.200000003,,553967.686,8,400,,,
sequence,flow.Sequence,4_103,2023-05-02T00:02:36.524Z,,0,,,2446.733000011882,completion,,,,,false,,,,553964.5,553964.3000000119,551500.832,551516.1000000089,551517.567,553967.686,8,400,,,
trial,html.Screen,4_104_0,2023-05-02T00:02:39.027Z,,0,3,,2499.114000011934,response,ISIC_0014703.JPG,,ISIC_0028003.JPG,ISIC_0014703.JPG,false,1,keypress(m),500,556466.900000006,556466.8000000119,553951.678,553964.5,553967.686,556484.432,8,400,5,,ISIC_0028003.JPG
break,html.Screen,4_104_1,2023-05-02T00:02:39.027Z,,0,,,NaN,,,,,,false,,,,556467.400000006,556467.200000003,,556467,,556484.432,8,400,,,
break_continue,html.Screen,4_104_2,2023-05-02T00:02:39.027Z,,0,,,NaN,,,,,,false,,,,556467.5,556467.400000006,,556467.400000006,,556484.432,8,400,,,
sequence,flow.Sequence,4_104,2023-05-02T00:02:39.027Z,,0,,,2499.7140000059735,completion,,,,,false,,,,556467.6000000089,556467.400000006,553951.678,553964.5,553967.686,556484.432,8,400,,,
trial,html.Screen,4_105_0,2023-05-02T00:02:42.533Z,,0,3,,3488.168000008911,response,ISIC_8943906.JPG,,ISIC_0032823.JPG,ISIC_0032823.JPG,false,0,keypress(z),500,559972.700000003,559972.6000000089,556467.795,556467.700000003,556484.432,559984.58,8,400,6,,ISIC_8943906.JPG
break,html.Screen,4_105_1,2023-05-02T00:02:42.533Z,,0,,,NaN,,,,,,false,,,,559973.1000000089,559973,,559972.8000000119,,559984.58,8,400,,,
break_continue,html.Screen,4_105_2,2023-05-02T00:02:42.533Z,,0,,,NaN,,,,,,false,,,,559973.200000003,559973.200000003,,559973.200000003,,559984.58,8,400,,,
sequence,flow.Sequence,4_105,2023-05-02T00:02:42.533Z,,0,,,3488.7680000029504,completion,,,,,false,,,,559973.3000000119,559973.200000003,556467.795,556467.700000003,556484.432,559984.58,8,400,,,
trial,html.Screen,4_106_0,2023-05-02T00:02:45.443Z,,0,3,,2898.5200000089826,response,ISIC_7566505.JPG,,ISIC_0070951.JPG,ISIC_0070951.JPG,false,0,keypress(z),500,562883.3000000119,562883.1000000089,559967.905,559973.400000006,559984.58,562884.747,8,400,7,,ISIC_7566505.JPG
break,html.Screen,4_106_1,2023-05-02T00:02:45.444Z,,0,,,NaN,,,,,,false,,,,562883.8000000119,562883.700000003,,562883.400000006,,562884.747,8,400,,,
break_continue,html.Screen,4_106_2,2023-05-02T00:02:45.444Z,,0,,,NaN,,,,,,false,,,,562883.900000006,562883.900000006,,562883.8000000119,,562884.747,8,400,,,
sequence,flow.Sequence,4_106,2023-05-02T00:02:45.444Z,,0,,,2899.3200000060024,completion,,,,,false,,,,562884,562883.900000006,559967.905,559973.400000006,559984.58,562884.747,8,400,,,
trial,html.Screen,4_107_0,2023-05-02T00:02:49.387Z,,0,3,,3942.253000000026,response,ISIC_7079349.JPG,,ISIC_0327406.JPG,ISIC_7079349.JPG,false,1,keypress(m),500,566827.200000003,566827,562868.04,562884,562884.747,566834.913,8,400,8,,ISIC_0327406.JPG
break,html.Screen,4_107_1,2023-05-02T00:02:49.388Z,,0,,,NaN,,,,,,false,,,,566827.700000003,566827.6000000089,,566827.3000000119,,566834.913,8,400,,,
break_continue,html.Screen,4_107_2,2023-05-02T00:02:49.388Z,,0,,,NaN,,,,,,false,,,,566827.8000000119,566827.8000000119,,566827.700000003,,566834.913,8,400,,,
sequence,flow.Sequence,4_107,2023-05-02T00:02:49.388Z,,0,,,3943.053000011947,completion,,,,,false,,,,566827.900000006,566827.8000000119,562868.04,562884,562884.747,566834.913,8,400,,,
trial,html.Screen,4_108_0,2023-05-02T00:02:52.004Z,,0,3,,2608.287000003038,response,ISIC_9304022.JPG,,ISIC_5588968.JPG,ISIC_5588968.JPG,false,0,keypress(z),500,569443.3000000119,569443.200000003,566818.175,566827.900000006,566834.913,569451.662,8,400,9,,ISIC_9304022.JPG
break,html.Screen,4_108_1,2023-05-02T00:02:52.004Z,,0,,,NaN,,,,,,false,,,,569443.900000006,569443.700000003,,569443.400000006,,569451.662,8,400,,,
break_continue,html.Screen,4_108_2,2023-05-02T00:02:52.004Z,,0,,,NaN,,,,,,false,,,,569443.900000006,569443.900000006,,569443.900000006,,569451.662,8,400,,,
sequence,flow.Sequence,4_108,2023-05-02T00:02:52.004Z,,0,,,2608.987000006018,completion,,,,,false,,,,569444,569443.900000006,566818.175,566827.900000006,566834.913,569451.662,8,400,,,
trial,html.Screen,4_109_0,2023-05-02T00:02:54.843Z,,0,3,,2831.538000002969,response,ISIC_4801737.JPG,,ISIC_5960765.JPG,ISIC_4801737.JPG,false,1,keypress(m),500,572283.3000000119,572283.200000003,569434.976,569444.1000000089,569451.662,572285.145,8,400,10,,ISIC_5960765.JPG
break,html.Screen,4_109_1,2023-05-02T00:02:54.844Z,,0,,,NaN,,,,,,false,,,,572283.8000000119,572283.8000000119,,572283.5,,572285.145,8,400,,,
break_continue,html.Screen,4_109_2,2023-05-02T00:02:54.844Z,,0,,,NaN,,,,,,false,,,,572284.1000000089,572284.1000000089,,572283.900000006,,572285.145,8,400,,,
sequence,flow.Sequence,4_109,2023-05-02T00:02:54.844Z,,0,,,2832.4380000089295,completion,,,,,false,,,,572284.200000003,572284.1000000089,569434.976,569444.1000000089,569451.662,572285.145,8,400,,,
trial,html.Screen,4_110_0,2023-05-02T00:02:57.356Z,,0,3,,2510.1550000119023,response,ISIC_0026081.JPG,,ISIC_0059904.JPG,ISIC_0059904.JPG,false,0,keypress(z),500,574795.5,574795.3000000119,572268.415,572284.200000003,572285.145,574801.904,8,400,11,,ISIC_0026081.JPG
break,html.Screen,4_110_1,2023-05-02T00:02:57.356Z,,0,,,NaN,,,,,,false,,,,574796,574795.900000006,,574795.6000000089,,574801.904,8,400,,,
break_continue,html.Screen,4_110_2,2023-05-02T00:02:57.356Z,,0,,,NaN,,,,,,false,,,,574796.200000003,574796.1000000089,,574796.1000000089,,574801.904,8,400,,,
sequence,flow.Sequence,4_110,2023-05-02T00:02:57.356Z,,0,,,2510.955000008922,completion,,,,,false,,,,574796.200000003,574796.1000000089,572268.415,572284.200000003,572285.145,574801.904,8,400,,,
trial,html.Screen,4_111_0,2023-05-02T00:03:00.108Z,,0,3,,2745.8960000119405,response,ISIC_0097500.JPG,,ISIC_9760652.JPG,ISIC_0097500.JPG,false,1,keypress(m),500,577548,577547.8000000119,574785.208,574796.200000003,574801.904,577552.009,8,400,12,,ISIC_9760652.JPG
break,html.Screen,4_111_1,2023-05-02T00:03:00.109Z,,0,,,NaN,,,,,,false,,,,577548.5,577548.3000000119,,577548,,577552.009,8,400,,,
break_continue,html.Screen,4_111_2,2023-05-02T00:03:00.109Z,,0,,,NaN,,,,,,false,,,,577548.6000000089,577548.6000000089,,577548.5,,577552.009,8,400,,,
sequence,flow.Sequence,4_111,2023-05-02T00:03:00.109Z,,0,,,2746.6960000089603,completion,,,,,false,,,,577548.700000003,577548.6000000089,574785.208,574796.200000003,574801.904,577552.009,8,400,,,
trial,html.Screen,4_112_0,2023-05-02T00:03:02.796Z,,0,3,,2683.491000000038,response,ISIC_1552232.JPG,,ISIC_1441260.JPG,ISIC_1441260.JPG,false,0,keypress(z),500,580235.700000003,580235.5,577535.364,577548.8000000119,577552.009,580252.152,8,400,13,,ISIC_1552232.JPG
break,html.Screen,4_112_1,2023-05-02T00:03:02.796Z,,0,,,NaN,,,,,,false,,,,580236,580235.900000006,,580235.700000003,,580252.152,8,400,,,
break_continue,html.Screen,4_112_2,2023-05-02T00:03:02.796Z,,0,,,NaN,,,,,,false,,,,580236.200000003,580236.1000000089,,580236,,580252.152,8,400,,,
sequence,flow.Sequence,4_112,2023-05-02T00:03:02.796Z,,0,,,2684.091000008979,completion,,,,,false,,,,580236.200000003,580236.1000000089,577535.364,577548.8000000119,577552.009,580252.152,8,400,,,
trial,html.Screen,4_113_0,2023-05-02T00:03:05.661Z,,0,3,,2848.7480000059586,response,ISIC_2203247.JPG,,ISIC_0011504.JPG,ISIC_0011504.JPG,false,0,keypress(z),500,583101,583100.900000006,580235.425,580236.3000000119,580252.152,583124.384,8,400,14,,ISIC_2203247.JPG
break,html.Screen,4_113_1,2023-05-02T00:03:05.662Z,,0,,,NaN,,,,,,false,,,,583101.5,583101.400000006,,583101.1000000089,,583124.384,8,400,,,
break_continue,html.Screen,4_113_2,2023-05-02T00:03:05.662Z,,0,,,NaN,,,,,,false,,,,583101.700000003,583101.700000003,,583101.5,,583124.384,8,400,,,
sequence,flow.Sequence,4_113,2023-05-02T00:03:05.662Z,,0,,,2849.5480000029784,completion,,,,,false,,,,583101.8000000119,583101.700000003,580235.425,580236.200000003,580252.152,583124.384,8,400,,,
trial,html.Screen,4_114_0,2023-05-02T00:03:08.284Z,,0,3,,2599.216000008979,response,ISIC_0025779.JPG,,ISIC_7759376.JPG,ISIC_7759376.JPG,false,0,keypress(z),500,585723.8000000119,585723.6000000089,583085.952,583101.8000000119,583124.384,585735.749,8,400,15,,ISIC_0025779.JPG
break,html.Screen,4_114_1,2023-05-02T00:03:08.284Z,,0,,,NaN,,,,,,false,,,,585724.200000003,585724.1000000089,,585723.8000000119,,585735.749,8,400,,,
break_continue,html.Screen,4_114_2,2023-05-02T00:03:08.285Z,,0,,,NaN,,,,,,false,,,,585724.3000000119,585724.3000000119,,585724.200000003,,585735.749,8,400,,,
sequence,flow.Sequence,4_114,2023-05-02T00:03:08.285Z,,0,,,2599.916000011959,completion,,,,,false,,,,585724.5,585724.3000000119,583085.952,583101.8000000119,583124.384,585735.749,8,400,,,
trial,html.Screen,4_115_0,2023-05-02T00:03:10.900Z,,0,3,,2603.9510000030277,response,ISIC_0058164.JPG,,ISIC_0030985.JPG,ISIC_0058164.JPG,false,1,keypress(m),500,588339.8000000119,588339.700000003,585718.985,585724.5,585735.749,588353.022,8,400,16,,ISIC_0030985.JPG
break,html.Screen,4_115_1,2023-05-02T00:03:10.900Z,,0,,,NaN,,,,,,false,,,,588340.200000003,588340.1000000089,,588339.900000006,,588353.022,8,400,,,
break_continue,html.Screen,4_115_2,2023-05-02T00:03:10.901Z,,0,,,NaN,,,,,,false,,,,588340.3000000119,588340.3000000119,,588340.200000003,,588353.022,8,400,,,
sequence,flow.Sequence,4_115,2023-05-02T00:03:10.901Z,,0,,,2604.5510000119684,completion,,,,,false,,,,588340.5,588340.3000000119,585718.985,585724.5,585735.749,588353.022,8,400,,,
trial,html.Screen,4_116_0,2023-05-02T00:03:13.508Z,,0,3,,2594.2780000119237,response,ISIC_6813359.JPG,,ISIC_0031863.JPG,ISIC_0031863.JPG,false,0,keypress(z),500,590947.400000006,590947.3000000119,588336.383,588340.5,588353.022,590969.275,8,400,17,,ISIC_6813359.JPG
break,html.Screen,4_116_1,2023-05-02T00:03:13.508Z,,0,,,NaN,,,,,,false,,,,590948,590947.8000000119,,590947.6000000089,,590969.275,8,400,,,
break_continue,html.Screen,4_116_2,2023-05-02T00:03:13.508Z,,0,,,NaN,,,,,,false,,,,590948.200000003,590948.1000000089,,590948,,590969.275,8,400,,,
sequence,flow.Sequence,4_116,2023-05-02T00:03:13.508Z,,0,,,2595.0780000089435,completion,,,,,false,,,,590948.200000003,590948.1000000089,588336.383,588340.5,588353.022,590969.275,8,400,,,
trial,html.Screen,4_117_0,2023-05-02T00:03:16.148Z,,0,3,,2618.0250000118976,response,ISIC_0059357.JPG,,ISIC_0438136.JPG,ISIC_0059357.JPG,false,1,keypress(m),500,593587.5,593587.3000000119,590935.931,590948.3000000119,590969.275,593602.722,8,400,18,,ISIC_0438136.JPG
break,html.Screen,4_117_1,2023-05-02T00:03:16.148Z,,0,,,NaN,,,,,,false,,,,593588,593588,,593587.6000000089,,593602.722,8,400,,,
break_continue,html.Screen,4_117_2,2023-05-02T00:03:16.148Z,,0,,,NaN,,,,,,false,,,,593588.3000000119,593588.200000003,,593588.1000000089,,593602.722,8,400,,,
sequence,flow.Sequence,4_117,2023-05-02T00:03:16.149Z,,0,,,2618.925000002957,completion,,,,,false,,,,593588.3000000119,593588.200000003,590935.931,590948.200000003,590969.275,593602.722,8,400,,,
trial,html.Screen,4_118_0,2023-05-02T00:03:19.123Z,,0,3,,2960.2780000000494,response,ISIC_9690371.JPG,,ISIC_0012057.JPG,ISIC_0012057.JPG,false,0,keypress(z),500,596563,596563,593586.596,593588.400000006,593602.722,596569.544,8,400,19,,ISIC_9690371.JPG
break,html.Screen,4_118_1,2023-05-02T00:03:19.124Z,,0,,,NaN,,,,,,false,,,,596563.5,596563.400000006,,596563.1000000089,,596569.544,8,400,,,
break_continue,html.Screen,4_118_2,2023-05-02T00:03:19.124Z,,0,,,NaN,,,,,,false,,,,596563.6000000089,596563.6000000089,,596563.5,,596569.544,8,400,,,
sequence,flow.Sequence,4_118,2023-05-02T00:03:19.124Z,,0,,,2960.87800000899,completion,,,,,false,,,,596563.700000003,596563.6000000089,593586.596,593588.400000006,593602.722,596569.544,8,400,,,
trial,html.Screen,4_119_0,2023-05-02T00:03:22.011Z,,0,3,,2881.356000005966,response,ISIC_6875745.JPG,,ISIC_9300579.JPG,ISIC_6875745.JPG,false,1,keypress(m),500,599451,599450.900000006,596552.82,596563.700000003,596569.544,599453,8,400,20,,ISIC_9300579.JPG
break,html.Screen,4_119_1,2023-05-02T00:03:22.012Z,,0,,,NaN,,,,,,false,,,,599451.5,599451.400000006,,599451.200000003,,599453,8,400,,,
break_continue,html.Screen,4_119_2,2023-05-02T00:03:22.012Z,,0,,,NaN,,,,,,false,,,,599451.8000000119,599451.700000003,,599451.6000000089,,599453,8,400,,,
sequence,flow.Sequence,4_119,2023-05-02T00:03:22.012Z,,0,,,2882.156000002986,completion,,,,,false,,,,599451.8000000119,599451.700000003,596552.82,596563.700000003,596569.544,599453,8,400,,,
trial,html.Screen,4_120_0,2023-05-02T00:03:25.579Z,,0,3,,3566.2000000029802,response,ISIC_0013984.JPG,,ISIC_0059609.JPG,ISIC_0059609.JPG,false,0,keypress(z),500,603019.400000006,603019.200000003,599436.3,599451.8000000119,599453,603036.753,8,400,21,,ISIC_0013984.JPG
break,html.Screen,4_120_1,2023-05-02T00:03:25.580Z,,0,,,NaN,,,,,,false,,,,603019.700000003,603019.6000000089,,603019.5,,603036.753,8,400,,,
break_continue,html.Screen,4_120_2,2023-05-02T00:03:25.580Z,,0,,,NaN,,,,,,false,,,,603019.900000006,603019.900000006,,603019.8000000119,,603036.753,8,400,,,
sequence,flow.Sequence,4_120,2023-05-02T00:03:25.580Z,,0,,,3566.9000000059605,completion,,,,,false,,,,603020,603019.900000006,599436.3,599451.8000000119,599453,603036.753,8,400,,,
trial,html.Screen,4_121_0,2023-05-02T00:03:28.741Z,,0,3,,3143.547000011895,response,ISIC_7844565.JPG,,ISIC_7702857.JPG,ISIC_7702857.JPG,false,0,keypress(z),500,606180.400000006,606180.3000000119,603003.102,603020.1000000089,603036.753,606186.603,8,400,22,,ISIC_7844565.JPG
break,html.Screen,4_121_1,2023-05-02T00:03:28.741Z,,0,,,NaN,,,,,,false,,,,606180.8000000119,606180.700000003,,606180.400000006,,606186.603,8,400,,,
break_continue,html.Screen,4_121_2,2023-05-02T00:03:28.741Z,,0,,,NaN,,,,,,false,,,,606181,606180.900000006,,606180.8000000119,,606186.603,8,400,,,
sequence,flow.Sequence,4_121,2023-05-02T00:03:28.741Z,,0,,,3144.1470000059344,completion,,,,,false,,,,606181.1000000089,606180.900000006,603003.102,603020,603036.753,606186.603,8,400,,,
trial,html.Screen,4_122_0,2023-05-02T00:03:31.604Z,,0,3,,2857.197000011918,response,ISIC_1684829.JPG,,ISIC_2822718.JPG,ISIC_2822718.JPG,false,0,keypress(z),500,609043.900000006,609043.8000000119,606170.227,606181.1000000089,606186.603,609053.402,8,400,23,,ISIC_1684829.JPG
break,html.Screen,4_122_1,2023-05-02T00:03:31.605Z,,0,,,NaN,,,,,,false,,,,609044.400000006,609044.3000000119,,609044,,609053.402,8,400,,,
break_continue,html.Screen,4_122_2,2023-05-02T00:03:31.605Z,,0,,,NaN,,,,,,false,,,,609044.5,609044.5,,609044.400000006,,609053.402,8,400,,,
sequence,flow.Sequence,4_122,2023-05-02T00:03:31.605Z,,0,,,2857.896999999997,completion,,,,,false,,,,609044.6000000089,609044.5,606170.227,606181.1000000089,606186.603,609053.402,8,400,,,
trial,html.Screen,4_123_0,2023-05-02T00:03:34.460Z,,0,3,,2845.898000011919,response,ISIC_2466892.JPG,,ISIC_4873045.JPG,ISIC_4873045.JPG,false,0,keypress(z),500,611899.400000006,611899.3000000119,609037.798,609044.700000003,609053.402,611903.498,8,400,24,,ISIC_2466892.JPG
break,html.Screen,4_123_1,2023-05-02T00:03:34.460Z,,0,,,NaN,,,,,,false,,,,611900,611899.8000000119,,611899.5,,611903.498,8,400,,,
break_continue,html.Screen,4_123_2,2023-05-02T00:03:34.460Z,,0,,,NaN,,,,,,false,,,,611900.200000003,611900.1000000089,,611900,,611903.498,8,400,,,
sequence,flow.Sequence,4_123,2023-05-02T00:03:34.460Z,,0,,,2846.698000008939,completion,,,,,false,,,,611900.200000003,611900.1000000089,609037.798,609044.6000000089,609053.402,611903.498,8,400,,,
trial,html.Screen,4_124_0,2023-05-02T00:03:37.283Z,,0,3,,2819.402000005939,response,ISIC_0066784.JPG,,ISIC_0013572.JPG,ISIC_0066784.JPG,false,1,keypress(m),500,614723.1000000089,614722.900000006,611887.265,611900.3000000119,611903.498,614737.016,8,400,25,,ISIC_0013572.JPG
break,html.Screen,4_124_1,2023-05-02T00:03:37.284Z,,0,,,NaN,,,,,,false,,,,614723.5,614723.400000006,,614723.200000003,,614737.016,8,400,,,
break_continue,html.Screen,4_124_2,2023-05-02T00:03:37.284Z,,0,,,NaN,,,,,,false,,,,614723.700000003,614723.6000000089,,614723.6000000089,,614737.016,8,400,,,
sequence,flow.Sequence,4_124,2023-05-02T00:03:37.284Z,,0,,,2820.1020000089193,completion,,,,,false,,,,614723.700000003,614723.6000000089,611887.265,611900.3000000119,611903.498,614737.016,8,400,,,
trial,html.Screen,4_125_0,2023-05-02T00:03:41.972Z,,0,3,,4675.184000003035,response,ISIC_9053910.JPG,,ISIC_0011512.JPG,ISIC_9053910.JPG,false,1,keypress(m),500,619412.200000003,619412.200000003,614720.261,614723.8000000119,614737.016,619420.548,8,400,26,,ISIC_0011512.JPG
break,html.Screen,4_125_1,2023-05-02T00:03:41.973Z,,0,,,NaN,,,,,,false,,,,619412.700000003,619412.6000000089,,619412.400000006,,619420.548,8,400,,,
break_continue,html.Screen,4_125_2,2023-05-02T00:03:41.973Z,,0,,,NaN,,,,,,false,,,,619412.900000006,619412.900000006,,619412.700000003,,619420.548,8,400,,,
sequence,flow.Sequence,4_125,2023-05-02T00:03:41.973Z,,0,,,4675.884000006015,completion,,,,,false,,,,619412.900000006,619412.900000006,614720.261,614723.8000000119,614737.016,619420.548,8,400,,,
trial,html.Screen,4_126_0,2023-05-02T00:03:44.836Z,,0,3,,2855.2520000119694,response,ISIC_3401777.JPG,,ISIC_0010349.JPG,ISIC_0010349.JPG,false,0,keypress(z),500,622276,622275.8000000119,619404.332,619412.900000006,619420.548,622288.028,8,400,27,,ISIC_3401777.JPG
