sender,sender_type,sender_id,timestamp,meta,,blockNo,condition,duration,ended_on,img_left,img_reveal,img_right,loser,practice,response,response_action,selection_duration,time_commit,time_end,time_render,time_run,time_show,time_switch,total_blocks,total_trials,trialNo,url,winner
informed_consent,html.Screen,0,2023-11-03T20:48:27.097Z,"{""labjs_version"":""20.2.4"",""labjs_build"":{""flavor"":""production"",""commit"":""f5b4a49f956347addd546a832a3327688c2c0fef""},""location"":""https://run.pavlovia.org/MurrayBennett/melanoma-2afc/?participant=65981&platform=sona"",""userAgent"":""Mozilla/5.0 (Windows NT 10.0; Win64; x64) AppleWebKit/537.36 (KHTML, like Gecko) Chrome/119.0.0.0 Safari/537.36"",""platform"":""Win32"",""language"":""en-US"",""locale"":""en-US"",""timeZone"":""America/Chicago"",""timezoneOffset"":300,""screen_width"":1920,""screen_height"":1080,""scroll_width"":1920,""scroll_height"":953,""window_innerWidth"":1920,""window_innerHeight"":1001,""devicePixelRatio"":1}",,,,2093.216000000003,response,,,,,,consent,click button,,2956.300000000003,2955.300000000003,855.154,856.7000000000044,862.084,2961.439,,,,"{""participant"":""65981"",""platform"":""sona""}",
Welcome,html.Screen,1,2023-11-03T20:48:28.347Z,,,,colourful,1244.161000000006,response,,,,,,continue,click button,,4206.300000000003,4205.600000000006,2954.631,2956.300000000003,2961.439,4206.143,,,,,
trial,html.Screen,2_0_0,2023-11-03T20:48:31.260Z,,0,0,,2913.2570000000087,response,ISIC_0063388.JPG,,ISIC_0025593.JPG,ISIC_0063388.JPG,true,1,keypress(m),500,7119.600000000006,7119.400000000009,4199.195,4206.4000000000015,4206.143,7120.852,1,6,1,,ISIC_0025593.JPG
sequence,flow.Sequence,2_0,2023-11-03T20:48:31.260Z,,0,,,2913.2570000000087,completion,,,,,true,,,,7119.800000000003,7119.400000000009,4199.195,4206.4000000000015,4206.143,7120.852,1,6,,,
trial,html.Screen,2_1_0,2023-11-03T20:48:34.942Z,,0,0,,3680.3479999999972,response,ISIC_1309015.JPG,,ISIC_0028178.JPG,ISIC_0028178.JPG,true,0,keypress(z),500,10801.400000000009,10801.199999999997,7113.865,7119.800000000003,7120.852,10805.36,1,6,2,,ISIC_1309015.JPG
sequence,flow.Sequence,2_1,2023-11-03T20:48:34.942Z,,0,,,3680.3479999999972,completion,,,,,true,,,,10801.400000000009,10801.199999999997,7113.865,7119.800000000003,7120.852,10805.36,1,6,,,
trial,html.Screen,2_2_0,2023-11-03T20:48:38.607Z,,0,0,,3661.540000000008,response,ISIC_0031128.JPG,,ISIC_3314853.JPG,ISIC_3314853.JPG,true,0,keypress(z),500,14467,14466.900000000009,10798.428,10801.5,10805.36,14470.066,1,6,3,,ISIC_0031128.JPG
sequence,flow.Sequence,2_2,2023-11-03T20:48:38.607Z,,0,,,3661.540000000008,completion,,,,,true,,,,14467.199999999997,14466.900000000009,10798.428,10801.5,10805.36,14470.066,1,6,,,
trial,html.Screen,2_3_0,2023-11-03T20:48:50.106Z,,0,0,,11509.692000000001,timeout,ISIC_0031612.JPG,,ISIC_8980141.JPG,,true,,,500,25966.199999999997,25966,14463.113,14467.300000000003,14470.066,25979.758,1,6,4,,
sequence,flow.Sequence,2_3,2023-11-03T20:48:50.107Z,,0,,,11495.934,completion,,,,,true,,,,25966.300000000003,25966,14463.113,14467.300000000003,14470.066,25979.758,1,6,,,
trial,html.Screen,2_4_0,2023-11-03T20:48:53.948Z,,0,0,,3827.7419999999984,response,ISIC_9721604.JPG,,ISIC_1197737.JPG,ISIC_1197737.JPG,true,0,keypress(z),500,29807.600000000006,29807.5,25971.303,25966.40000000001,25979.758,29811.184,1,6,5,,ISIC_9721604.JPG
sequence,flow.Sequence,2_4,2023-11-03T20:48:53.948Z,,0,,,3827.7419999999984,completion,,,,,true,,,,29807.699999999997,29807.5,25971.303,25966.40000000001,25979.758,29811.184,1,6,,,
trial,html.Screen,2_5_0,2023-11-03T20:48:56.717Z,,0,0,,2765.315999999999,response,ISIC_0010681.JPG,,ISIC_0025346.JPG,ISIC_0010681.JPG,true,1,keypress(m),500,32576.600000000006,32576.5,29804.257,29807.90000000001,29811.184,32579.692,1,6,6,,ISIC_0025346.JPG
sequence,flow.Sequence,2_5,2023-11-03T20:48:56.717Z,,0,,,2765.315999999999,completion,,,,,true,,,,32576.800000000003,32576.5,29804.257,29807.800000000003,29811.184,32579.692,1,6,,,
loop,flow.Loop,2,2023-11-03T20:48:56.717Z,,,,,28370.357,completion,,,,,true,,,,32576.90000000001,32576.5,4199.195,4206.300000000003,4206.143,32579.692,1,6,,,
exp_instructions,html.Screen,3,2023-11-03T20:48:57.797Z,,,,,1076.808000000001,response,,,,,,continue,keypress(Space),,33656.90000000001,33656.5,32572.738,32576.90000000001,32579.692,33669.28,,,,,
trial,html.Screen,4_0_0,2023-11-03T20:49:01.144Z,,0,1,,3333.820000000007,response,ISIC_0056364.JPG,4,ISIC_0070012.JPG,ISIC_0056364.JPG,false,1,keypress(m),500,37003.3,37003.100000000006,33662.331,33657.2,33669.28,37008.982,8,400,1,,ISIC_0070012.JPG
break,html.Screen,4_0_1,2023-11-03T20:49:01.144Z,,0,,,NaN,,,,,,false,,,,37004,37003.90000000001,,37003.40000000001,,37008.982,8,400,,,
break_continue,html.Screen,4_0_2,2023-11-03T20:49:01.144Z,,0,,,NaN,,,,,,false,,,,37004.100000000006,37004,,37004,,37008.982,8,400,,,
sequence,flow.Sequence,4_0,2023-11-03T20:49:01.144Z,,0,,,3334.720000000001,completion,,,,,false,,,,37004.2,37004,33662.331,33657.100000000006,33669.28,37008.982,8,400,,,
trial,html.Screen,4_1_0,2023-11-03T20:49:04.282Z,,0,1,,3132.118000000002,response,ISIC_0030616.JPG,5,ISIC_3751172.JPG,ISIC_3751172.JPG,false,0,keypress(z),500,40141.40000000001,40141.100000000006,37002.174,37004.2,37008.982,40149.072,8,400,2,,ISIC_0030616.JPG
break,html.Screen,4_1_1,2023-11-03T20:49:04.282Z,,0,,,NaN,,,,,,false,,,,40142,40141.8,,40141.5,,40149.072,8,400,,,
break_continue,html.Screen,4_1_2,2023-11-03T20:49:04.282Z,,0,,,NaN,,,,,,false,,,,40142.100000000006,40142.100000000006,,40142,,40149.072,8,400,,,
sequence,flow.Sequence,4_1,2023-11-03T20:49:04.282Z,,0,,,3133.118000000002,completion,,,,,false,,,,40142.2,40142.100000000006,37002.174,37004.2,37008.982,40149.072,8,400,,,
trial,html.Screen,4_2_0,2023-11-03T20:49:07.355Z,,0,1,,3065.728000000003,response,ISIC_0015041.JPG,5,ISIC_0072182.JPG,ISIC_0015041.JPG,false,1,keypress(m),500,43214.90000000001,43214.8,40142.121,40142.2,40149.072,43220.059,8,400,3,,ISIC_0072182.JPG
break,html.Screen,4_2_1,2023-11-03T20:49:07.356Z,,0,,,NaN,,,,,,false,,,,43215.40000000001,43215.2,,43215,,43220.059,8,400,,,
break_continue,html.Screen,4_2_2,2023-11-03T20:49:07.356Z,,0,,,NaN,,,,,,false,,,,43215.40000000001,43215.40000000001,,43215.40000000001,,43220.059,8,400,,,
sequence,flow.Sequence,4_2,2023-11-03T20:49:07.356Z,,0,,,3066.3280000000086,completion,,,,,false,,,,43215.5,43215.40000000001,40142.121,40142.2,40149.072,43220.059,8,400,,,
trial,html.Screen,4_3_0,2023-11-03T20:49:10.077Z,,0,1,,2716.440999999999,response,ISIC_0010316.JPG,4,ISIC_0000475.JPG,ISIC_0010316.JPG,false,1,keypress(m),500,45936.8,45936.5,43213.132,43215.600000000006,43220.059,45944.053,8,400,4,,ISIC_0000475.JPG
break,html.Screen,4_3_1,2023-11-03T20:49:10.077Z,,0,,,NaN,,,,,,false,,,,45937.2,45937.100000000006,,45936.8,,45944.053,8,400,,,
break_continue,html.Screen,4_3_2,2023-11-03T20:49:10.078Z,,0,,,NaN,,,,,,false,,,,45937.3,45937.3,,45937.3,,45944.053,8,400,,,
sequence,flow.Sequence,4_3,2023-11-03T20:49:10.078Z,,0,,,2717.241000000002,completion,,,,,false,,,,45937.40000000001,45937.3,43213.132,43215.600000000006,43220.059,45944.053,8,400,,,
trial,html.Screen,4_4_0,2023-11-03T20:49:12.719Z,,0,1,,2634.747000000003,response,ISIC_0011691.JPG,4,ISIC_0032960.JPG,ISIC_0011691.JPG,false,1,keypress(m),500,48579.100000000006,48578.8,45937.121,45937.40000000001,45944.053,48579.619,8,400,5,,ISIC_0032960.JPG
break,html.Screen,4_4_1,2023-11-03T20:49:12.720Z,,0,,,NaN,,,,,,false,,,,48579.8,48579.3,,48579.2,,48579.619,8,400,,,
break_continue,html.Screen,4_4_2,2023-11-03T20:49:12.720Z,,0,,,NaN,,,,,,false,,,,48579.90000000001,48579.8,,48579.8,,48579.619,8,400,,,
sequence,flow.Sequence,4_4,2023-11-03T20:49:12.720Z,,0,,,2635.747000000003,completion,,,,,false,,,,48580,48579.8,45937.121,45937.40000000001,45944.053,48579.619,8,400,,,
trial,html.Screen,4_5_0,2023-11-03T20:49:15.938Z,,0,1,,3217.381000000001,response,ISIC_0765584.JPG,6,ISIC_9572152.JPG,ISIC_0765584.JPG,false,1,keypress(m),500,51797.2,51797,48572.666,48580,48579.619,51802.116,8,400,6,,ISIC_9572152.JPG
break,html.Screen,4_5_1,2023-11-03T20:49:15.938Z,,0,,,NaN,,,,,,false,,,,51797.7,51797.7,,51797.3,,51802.116,8,400,,,
break_continue,html.Screen,4_5_2,2023-11-03T20:49:15.938Z,,0,,,NaN,,,,,,false,,,,51798,51797.90000000001,,51797.90000000001,,51802.116,8,400,,,
sequence,flow.Sequence,4_5,2023-11-03T20:49:15.938Z,,0,,,3218.28100000001,completion,,,,,false,,,,51798.100000000006,51797.90000000001,48572.666,48580,48579.619,51802.116,8,400,,,
trial,html.Screen,4_6_0,2023-11-03T20:49:21.028Z,,0,1,,5084.784000000007,response,ISIC_7885010.JPG,5,ISIC_0009298.JPG,ISIC_7885010.JPG,false,1,keypress(m),500,56887,56886.90000000001,51795.165,51798.2,51802.116,56889.151,8,400,7,,ISIC_0009298.JPG
break,html.Screen,4_6_1,2023-11-03T20:49:21.028Z,,0,,,NaN,,,,,,false,,,,56887.40000000001,56887.3,,56887.100000000006,,56889.151,8,400,,,
break_continue,html.Screen,4_6_2,2023-11-03T20:49:21.028Z,,0,,,NaN,,,,,,false,,,,56887.5,56887.5,,56887.5,,56889.151,8,400,,,
sequence,flow.Sequence,4_6,2023-11-03T20:49:21.028Z,,0,,,5085.383999999998,completion,,,,,false,,,,56887.600000000006,56887.5,51795.165,51798.2,51802.116,56889.151,8,400,,,
trial,html.Screen,4_7_0,2023-11-03T20:49:27.558Z,,0,1,,6527.949000000008,response,ISIC_0031671.JPG,4,ISIC_2364150.JPG,ISIC_2364150.JPG,false,0,keypress(z),500,63417.2,63417.100000000006,56882.194,56887.7,56889.151,63421.268,8,400,8,,ISIC_0031671.JPG
break,html.Screen,4_7_1,2023-11-03T20:49:27.558Z,,0,,,NaN,,,,,,false,,,,63417.600000000006,63417.5,,63417.3,,63421.268,8,400,,,
break_continue,html.Screen,4_7_2,2023-11-03T20:49:27.558Z,,0,,,NaN,,,,,,false,,,,63417.8,63417.7,,63417.7,,63421.268,8,400,,,
sequence,flow.Sequence,4_7,2023-11-03T20:49:27.558Z,,0,,,6528.548999999999,completion,,,,,false,,,,63417.8,63417.7,56882.194,56887.7,56889.151,63421.268,8,400,,,
trial,html.Screen,4_8_0,2023-11-03T20:49:30.984Z,,0,1,,3421.6320000000123,response,ISIC_2945891.JPG,4,ISIC_0063556.JPG,ISIC_0063556.JPG,false,0,keypress(z),500,66843,66842.90000000001,63414.319,63417.90000000001,63421.268,66852.582,8,400,9,,ISIC_2945891.JPG
break,html.Screen,4_8_1,2023-11-03T20:49:30.984Z,,0,,,NaN,,,,,,false,,,,66843.40000000001,66843.3,,66843.1,,66852.582,8,400,,,
break_continue,html.Screen,4_8_2,2023-11-03T20:49:30.984Z,,0,,,NaN,,,,,,false,,,,66843.5,66843.5,,66843.40000000001,,66852.582,8,400,,,
sequence,flow.Sequence,4_8,2023-11-03T20:49:30.984Z,,0,,,3422.2320000000036,completion,,,,,false,,,,66843.6,66843.5,63414.319,63417.90000000001,63421.268,66852.582,8,400,,,
trial,html.Screen,4_9_0,2023-11-03T20:49:33.530Z,,0,1,,2536.118000000002,response,ISIC_8863344.JPG,4,ISIC_9001948.JPG,ISIC_8863344.JPG,false,1,keypress(m),500,69389,69388.7,66845.774,66843.7,66852.582,69392.019,8,400,10,,ISIC_9001948.JPG
break,html.Screen,4_9_1,2023-11-03T20:49:33.530Z,,0,,,NaN,,,,,,false,,,,69389.40000000001,69389.3,,69389,,69392.019,8,400,,,
break_continue,html.Screen,4_9_2,2023-11-03T20:49:33.530Z,,0,,,NaN,,,,,,false,,,,69389.5,69389.5,,69389.40000000001,,69392.019,8,400,,,
sequence,flow.Sequence,4_9,2023-11-03T20:49:33.530Z,,0,,,2536.918000000005,completion,,,,,false,,,,69389.6,69389.5,66845.774,66843.7,66852.582,69392.019,8,400,,,
trial,html.Screen,4_10_0,2023-11-03T20:49:36.283Z,,0,1,,2750.580999999991,response,ISIC_0058132.JPG,5,ISIC_8458843.JPG,ISIC_8458843.JPG,false,0,keypress(z),500,72142.7,72142.59999999999,69385.068,69389.6,69392.019,72144.912,8,400,11,,ISIC_0058132.JPG
break,html.Screen,4_10_1,2023-11-03T20:49:36.284Z,,0,,,NaN,,,,,,false,,,,72143.09999999999,72143.00000000001,,72142.8,,72144.912,8,400,,,
break_continue,html.Screen,4_10_2,2023-11-03T20:49:36.284Z,,0,,,NaN,,,,,,false,,,,72143.3,72143.2,,72143.2,,72144.912,8,400,,,
sequence,flow.Sequence,4_10,2023-11-03T20:49:36.284Z,,0,,,2751.180999999997,completion,,,,,false,,,,72143.3,72143.2,69385.068,69389.6,69392.019,72144.912,8,400,,,
trial,html.Screen,4_11_0,2023-11-03T20:49:38.814Z,,0,1,,2527.8880000000063,response,ISIC_7888672.JPG,5,ISIC_0028944.JPG,ISIC_7888672.JPG,false,1,keypress(m),500,74673.00000000001,74672.8,72137.985,72143.3,72144.912,74674.038,8,400,12,,ISIC_0028944.JPG
break,html.Screen,4_11_1,2023-11-03T20:49:38.814Z,,0,,,NaN,,,,,,false,,,,74673.3,74673.3,,74673.00000000001,,74674.038,8,400,,,
break_continue,html.Screen,4_11_2,2023-11-03T20:49:38.814Z,,0,,,NaN,,,,,,false,,,,74673.50000000001,74673.40000000001,,74673.40000000001,,74674.038,8,400,,,
sequence,flow.Sequence,4_11,2023-11-03T20:49:38.814Z,,0,,,2528.488000000012,completion,,,,,false,,,,74673.50000000001,74673.40000000001,72137.985,72143.3,72144.912,74674.038,8,400,,,
trial,html.Screen,4_12_0,2023-11-03T20:49:41.727Z,,0,1,,2912.462000000014,response,ISIC_0028326.JPG,4,ISIC_0003703.JPG,ISIC_0003703.JPG,false,0,keypress(z),500,77586.59999999999,77586.50000000001,74667.106,74673.50000000001,74674.038,77589.519,8,400,13,,ISIC_0028326.JPG
break,html.Screen,4_12_1,2023-11-03T20:49:41.728Z,,0,,,NaN,,,,,,false,,,,77586.90000000001,77586.90000000001,,77586.59999999999,,77589.519,8,400,,,
break_continue,html.Screen,4_12_2,2023-11-03T20:49:41.728Z,,0,,,NaN,,,,,,false,,,,77587.09999999999,77587.09999999999,,77587.00000000001,,77589.519,8,400,,,
sequence,flow.Sequence,4_12,2023-11-03T20:49:41.728Z,,0,,,2913.061999999991,completion,,,,,false,,,,77587.3,77587.09999999999,74667.106,74673.50000000001,74674.038,77589.519,8,400,,,
trial,html.Screen,4_13_0,2023-11-03T20:49:48.978Z,,0,1,,7247.3810000000085,response,ISIC_0000420.JPG,5,ISIC_8979567.JPG,ISIC_8979567.JPG,false,0,keypress(z),500,84837.00000000001,84836.90000000001,77582.711,77587.3,77589.519,84843.035,8,400,14,,ISIC_0000420.JPG
break,html.Screen,4_13_1,2023-11-03T20:49:48.978Z,,0,,,NaN,,,,,,false,,,,84837.50000000001,84837.40000000001,,84837.2,,84843.035,8,400,,,
break_continue,html.Screen,4_13_2,2023-11-03T20:49:48.978Z,,0,,,NaN,,,,,,false,,,,84837.50000000001,84837.50000000001,,84837.50000000001,,84843.035,8,400,,,
sequence,flow.Sequence,4_13,2023-11-03T20:49:48.978Z,,0,,,7247.981000000014,completion,,,,,false,,,,84837.59999999999,84837.50000000001,77582.711,77587.3,77589.519,84843.035,8,400,,,
trial,html.Screen,4_14_0,2023-11-03T20:49:52.020Z,,0,1,,3036.2649999999994,response,ISIC_0027420.JPG,5,ISIC_8869929.JPG,ISIC_8869929.JPG,false,0,keypress(z),500,87879.50000000001,87879.3,84836.089,84837.7,84843.035,87880.558,8,400,15,,ISIC_0027420.JPG
break,html.Screen,4_14_1,2023-11-03T20:49:52.020Z,,0,,,NaN,,,,,,false,,,,87879.8,87879.7,,87879.50000000001,,87880.558,8,400,,,
break_continue,html.Screen,4_14_2,2023-11-03T20:49:52.021Z,,0,,,NaN,,,,,,false,,,,87879.90000000001,87879.90000000001,,87879.90000000001,,87880.558,8,400,,,
sequence,flow.Sequence,4_14,2023-11-03T20:49:52.021Z,,0,,,3036.8650000000052,completion,,,,,false,,,,87880.00000000001,87879.90000000001,84836.089,84837.7,84843.035,87880.558,8,400,,,
trial,html.Screen,4_15_0,2023-11-03T20:49:56.102Z,,0,1,,4080.6419999999925,response,ISIC_5964676.JPG,5,ISIC_7981097.JPG,ISIC_7981097.JPG,false,0,keypress(z),500,91961.40000000001,91961.2,87873.631,87880.09999999999,87880.558,91961.664,8,400,16,,ISIC_5964676.JPG
break,html.Screen,4_15_1,2023-11-03T20:49:56.102Z,,0,,,NaN,,,,,,false,,,,91961.7,91961.7,,91961.40000000001,,91961.664,8,400,,,
break_continue,html.Screen,4_15_2,2023-11-03T20:49:56.103Z,,0,,,NaN,,,,,,false,,,,91962.00000000001,91961.90000000001,,91961.8,,91961.664,8,400,,,
sequence,flow.Sequence,4_15,2023-11-03T20:49:56.103Z,,0,,,4081.342000000004,completion,,,,,false,,,,91962.00000000001,91961.90000000001,87873.631,87880.00000000001,87880.558,91961.664,8,400,,,
trial,html.Screen,4_16_0,2023-11-03T20:49:58.616Z,,0,1,,2513.1359999999986,response,ISIC_5377237.JPG,5,ISIC_5602724.JPG,ISIC_5602724.JPG,false,0,keypress(z),500,94475.09999999999,94474.8,91954.715,91962.09999999999,91961.664,94476.029,8,400,17,,ISIC_5377237.JPG
break,html.Screen,4_16_1,2023-11-03T20:49:58.616Z,,0,,,NaN,,,,,,false,,,,94475.40000000001,94475.40000000001,,94475.09999999999,,94476.029,8,400,,,
break_continue,html.Screen,4_16_2,2023-11-03T20:49:58.616Z,,0,,,NaN,,,,,,false,,,,94475.59999999999,94475.50000000001,,94475.40000000001,,94476.029,8,400,,,
sequence,flow.Sequence,4_16,2023-11-03T20:49:58.616Z,,0,,,2513.8360000000102,completion,,,,,false,,,,94475.59999999999,94475.50000000001,91954.715,91962.09999999999,91961.664,94476.029,8,400,,,
trial,html.Screen,4_17_0,2023-11-03T20:50:04.762Z,,0,1,,6144.871000000014,response,ISIC_0056127.JPG,4,ISIC_0061583.JPG,ISIC_0061583.JPG,false,0,keypress(z),500,100621.00000000001,100620.90000000001,94469.076,94475.7,94476.029,100621.685,8,400,18,,ISIC_0056127.JPG
break,html.Screen,4_17_1,2023-11-03T20:50:04.762Z,,0,,,NaN,,,,,,false,,,,100621.50000000001,100621.40000000001,,100621.2,,100621.685,8,400,,,
break_continue,html.Screen,4_17_2,2023-11-03T20:50:04.762Z,,0,,,NaN,,,,,,false,,,,100621.7,100621.59999999999,,100621.59999999999,,100621.685,8,400,,,
sequence,flow.Sequence,4_17,2023-11-03T20:50:04.762Z,,0,,,6145.570999999996,completion,,,,,false,,,,100621.7,100621.59999999999,94469.076,94475.59999999999,94476.029,100621.685,8,400,,,
trial,html.Screen,4_18_0,2023-11-03T20:50:07.948Z,,0,1,,3185.5149999999994,response,ISIC_6184891.JPG,4,ISIC_6428021.JPG,ISIC_6184891.JPG,false,1,keypress(m),500,103807.3,103807.2,100614.739,100621.8,100621.685,103810.986,8,400,19,,ISIC_6428021.JPG
break,html.Screen,4_18_1,2023-11-03T20:50:07.949Z,,0,,,NaN,,,,,,false,,,,103807.8,103807.8,,103807.50000000001,,103810.986,8,400,,,
break_continue,html.Screen,4_18_2,2023-11-03T20:50:07.949Z,,0,,,NaN,,,,,,false,,,,103808.09999999999,103808.09999999999,,103807.90000000001,,103810.986,8,400,,,
sequence,flow.Sequence,4_18,2023-11-03T20:50:07.949Z,,0,,,3186.4149999999936,completion,,,,,false,,,,103808.2,103808.09999999999,100614.739,100621.7,100621.685,103810.986,8,400,,,
trial,html.Screen,4_19_0,2023-11-03T20:50:12.590Z,,0,1,,4638.213999999993,response,ISIC_9986760.JPG,4,ISIC_0413804.JPG,ISIC_0413804.JPG,false,0,keypress(z),500,108449.3,108449.2,103804.059,103808.2,103810.986,108455.442,8,400,20,,ISIC_9986760.JPG
break,html.Screen,4_19_1,2023-11-03T20:50:12.590Z,,0,,,NaN,,,,,,false,,,,108449.59999999999,108449.50000000001,,108449.3,,108455.442,8,400,,,
break_continue,html.Screen,4_19_2,2023-11-03T20:50:12.590Z,,0,,,NaN,,,,,,false,,,,108449.7,108449.7,,108449.7,,108455.442,8,400,,,
sequence,flow.Sequence,4_19,2023-11-03T20:50:12.590Z,,0,,,4638.713999999993,completion,,,,,false,,,,108449.90000000001,108449.7,103804.059,103808.2,103810.986,108455.442,8,400,,,
trial,html.Screen,4_20_0,2023-11-03T20:50:15.344Z,,0,1,,2747.3580000000075,response,ISIC_0027402.JPG,4,ISIC_0010551.JPG,ISIC_0027402.JPG,false,1,keypress(m),500,111203.00000000001,111202.8,108448.493,108449.90000000001,108455.442,111207.879,8,400,21,,ISIC_0010551.JPG
break,html.Screen,4_20_1,2023-11-03T20:50:15.344Z,,0,,,NaN,,,,,,false,,,,111203.50000000001,111203.50000000001,,111203.09999999999,,111207.879,8,400,,,
break_continue,html.Screen,4_20_2,2023-11-03T20:50:15.344Z,,0,,,NaN,,,,,,false,,,,111203.8,111203.8,,111203.59999999999,,111207.879,8,400,,,
sequence,flow.Sequence,4_20,2023-11-03T20:50:15.345Z,,0,,,2748.3580000000075,completion,,,,,false,,,,111203.90000000001,111203.8,108448.493,108449.90000000001,108455.442,111207.879,8,400,,,
trial,html.Screen,4_21_0,2023-11-03T20:50:18.530Z,,0,1,,3181.421000000002,response,ISIC_0058418.JPG,4,ISIC_0069486.JPG,ISIC_0069486.JPG,false,0,keypress(z),500,114389.40000000001,114389.3,111198.813,111204.00000000001,111207.879,114392.123,8,400,22,,ISIC_0058418.JPG
break,html.Screen,4_21_1,2023-11-03T20:50:18.530Z,,0,,,NaN,,,,,,false,,,,114389.7,114389.59999999999,,114389.50000000001,,114392.123,8,400,,,
break_continue,html.Screen,4_21_2,2023-11-03T20:50:18.531Z,,0,,,NaN,,,,,,false,,,,114389.90000000001,114389.8,,114389.8,,114392.123,8,400,,,
sequence,flow.Sequence,4_21,2023-11-03T20:50:18.531Z,,0,,,3181.921000000002,completion,,,,,false,,,,114390.00000000001,114389.8,111198.813,111203.90000000001,111207.879,114392.123,8,400,,,
trial,html.Screen,4_22_0,2023-11-03T20:50:21.860Z,,0,1,,3326.8770000000077,response,ISIC_8893501.JPG,5,ISIC_0029531.JPG,ISIC_8893501.JPG,false,1,keypress(m),500,117719.09999999999,117719.00000000001,114385.177,114390.00000000001,114392.123,117720.567,8,400,23,,ISIC_0029531.JPG
break,html.Screen,4_22_1,2023-11-03T20:50:21.860Z,,0,,,NaN,,,,,,false,,,,117719.40000000001,117719.40000000001,,117719.2,,117720.567,8,400,,,
break_continue,html.Screen,4_22_2,2023-11-03T20:50:21.860Z,,0,,,NaN,,,,,,false,,,,117719.7,117719.50000000001,,117719.50000000001,,117720.567,8,400,,,
sequence,flow.Sequence,4_22,2023-11-03T20:50:21.860Z,,0,,,3327.3770000000077,completion,,,,,false,,,,117719.7,117719.50000000001,114385.177,114390.00000000001,114392.123,117720.567,8,400,,,
trial,html.Screen,4_23_0,2023-11-03T20:50:24.534Z,,0,1,,2672.433000000019,response,ISIC_0031104.JPG,5,ISIC_0030913.JPG,ISIC_0030913.JPG,false,0,keypress(z),500,120393.2,120393.00000000001,117713.64,117719.7,117720.567,120396.742,8,400,24,,ISIC_0031104.JPG
break,html.Screen,4_23_1,2023-11-03T20:50:24.534Z,,0,,,NaN,,,,,,false,,,,120393.7,120393.59999999999,,120393.3,,120396.742,8,400,,,
break_continue,html.Screen,4_23_2,2023-11-03T20:50:24.535Z,,0,,,NaN,,,,,,false,,,,120393.90000000001,120393.90000000001,,120393.8,,120396.742,8,400,,,
sequence,flow.Sequence,4_23,2023-11-03T20:50:24.535Z,,0,,,2673.3330000000133,completion,,,,,false,,,,120394.00000000001,120393.90000000001,117713.64,117719.7,117720.567,120396.742,8,400,,,
trial,html.Screen,4_24_0,2023-11-03T20:50:27.240Z,,0,1,,2702.1580000000104,response,ISIC_0010400.JPG,4,ISIC_4951035.JPG,ISIC_4951035.JPG,false,0,keypress(z),500,123099.00000000001,123098.90000000001,120389.81,120394.00000000001,120396.742,123101.723,8,400,25,,ISIC_0010400.JPG
break,html.Screen,4_24_1,2023-11-03T20:50:27.240Z,,0,,,NaN,,,,,,false,,,,123099.50000000001,123099.40000000001,,123099.2,,123101.723,8,400,,,
break_continue,html.Screen,4_24_2,2023-11-03T20:50:27.240Z,,0,,,NaN,,,,,,false,,,,123099.59999999999,123099.59999999999,,123099.59999999999,,123101.723,8,400,,,
sequence,flow.Sequence,4_24,2023-11-03T20:50:27.240Z,,0,,,2702.857999999993,completion,,,,,false,,,,123099.7,123099.59999999999,120389.81,120394.00000000001,120396.742,123101.723,8,400,,,
trial,html.Screen,4_25_0,2023-11-03T20:50:30.650Z,,0,1,,3406.976999999999,response,ISIC_0060535.JPG,5,ISIC_7349772.JPG,ISIC_0060535.JPG,false,1,keypress(m),500,126509.00000000001,126508.7,123094.77,123099.8,123101.723,126510.245,8,400,26,,ISIC_7349772.JPG
break,html.Screen,4_25_1,2023-11-03T20:50:30.650Z,,0,,,NaN,,,,,,false,,,,126509.50000000001,126509.40000000001,,126509.00000000001,,126510.245,8,400,,,
break_continue,html.Screen,4_25_2,2023-11-03T20:50:30.650Z,,0,,,NaN,,,,,,false,,,,126509.59999999999,126509.59999999999,,126509.59999999999,,126510.245,8,400,,,
sequence,flow.Sequence,4_25,2023-11-03T20:50:30.650Z,,0,,,3407.876999999993,completion,,,,,false,,,,126509.7,126509.59999999999,123094.77,123099.7,123101.723,126510.245,8,400,,,
trial,html.Screen,4_26_0,2023-11-03T20:50:34.252Z,,0,1,,3600.4550000000017,response,ISIC_5611104.JPG,5,ISIC_1205826.JPG,ISIC_1205826.JPG,false,0,keypress(z),500,130110.90000000001,130110.7,126503.299,126509.7,126510.245,130115.593,8,400,27,,ISIC_5611104.JPG
break,html.Screen,4_26_1,2023-11-03T20:50:34.252Z,,0,,,NaN,,,,,,false,,,,130111.2,130111.2,,130111.00000000001,,130115.593,8,400,,,
break_continue,html.Screen,4_26_2,2023-11-03T20:50:34.252Z,,0,,,NaN,,,,,,false,,,,130111.40000000001,130111.40000000001,,130111.40000000001,,130115.593,8,400,,,
sequence,flow.Sequence,4_26,2023-11-03T20:50:34.252Z,,0,,,3601.1550000000134,completion,,,,,false,,,,130111.40000000001,130111.40000000001,126503.299,126509.7,126510.245,130115.593,8,400,,,
trial,html.Screen,4_27_0,2023-11-03T20:50:37.422Z,,0,1,,3165.30700000003,response,ISIC_0071875.JPG,5,ISIC_5229861.JPG,ISIC_5229861.JPG,false,0,keypress(z),500,133281,133280.90000000002,130108.636,130111.50000000001,130115.593,133284.943,8,400,28,,ISIC_0071875.JPG
break,html.Screen,4_27_1,2023-11-03T20:50:37.422Z,,0,,,NaN,,,,,,false,,,,133281.3,133281.2,,133281,,133284.943,8,400,,,
break_continue,html.Screen,4_27_2,2023-11-03T20:50:37.423Z,,0,,,NaN,,,,,,false,,,,133281.90000000002,133281.8,,133281.7,,133284.943,8,400,,,
sequence,flow.Sequence,4_27,2023-11-03T20:50:37.423Z,,0,,,3166.206999999995,completion,,,,,false,,,,133281.90000000002,133281.8,130108.636,130111.50000000001,130115.593,133284.943,8,400,,,
trial,html.Screen,4_28_0,2023-11-03T20:50:40.240Z,,0,1,,2814.0570000000007,response,ISIC_2733043.JPG,4,ISIC_0046441.JPG,ISIC_2733043.JPG,false,1,keypress(m),500,136099,136099,133278.011,133281.90000000002,133284.943,136104.151,8,400,29,,ISIC_0046441.JPG
break,html.Screen,4_28_1,2023-11-03T20:50:40.240Z,,0,,,NaN,,,,,,false,,,,136099.40000000002,136099.3,,136099.09999999998,,136104.151,8,400,,,
break_continue,html.Screen,4_28_2,2023-11-03T20:50:40.240Z,,0,,,NaN,,,,,,false,,,,136099.59999999998,136099.59999999998,,136099.5,,136104.151,8,400,,,
sequence,flow.Sequence,4_28,2023-11-03T20:50:40.240Z,,0,,,2814.6569999999774,completion,,,,,false,,,,136099.7,136099.59999999998,133278.011,133281.90000000002,133284.943,136104.151,8,400,,,
trial,html.Screen,4_29_0,2023-11-03T20:50:42.834Z,,0,1,,2588.7490000000107,response,ISIC_0026671.JPG,4,ISIC_0033711.JPG,ISIC_0033711.JPG,false,0,keypress(z),500,138693,138692.90000000002,136095.141,136099.7,136104.151,138698.781,8,400,30,,ISIC_0026671.JPG
break,html.Screen,4_29_1,2023-11-03T20:50:42.834Z,,0,,,NaN,,,,,,false,,,,138693.40000000002,138693.3,,138693.09999999998,,138698.781,8,400,,,
break_continue,html.Screen,4_29_2,2023-11-03T20:50:42.834Z,,0,,,NaN,,,,,,false,,,,138693.59999999998,138693.59999999998,,138693.5,,138698.781,8,400,,,
sequence,flow.Sequence,4_29,2023-11-03T20:50:42.834Z,,0,,,2589.448999999964,completion,,,,,false,,,,138693.7,138693.59999999998,136095.141,136099.7,136104.151,138698.781,8,400,,,
trial,html.Screen,4_30_0,2023-11-03T20:50:45.971Z,,0,1,,3131.619000000035,response,ISIC_0013572.JPG,5,ISIC_0028127.JPG,ISIC_0013572.JPG,false,1,keypress(m),500,141830.59999999998,141830.40000000002,138691.83,138693.8,138698.781,141832.573,8,400,31,,ISIC_0028127.JPG
break,html.Screen,4_30_1,2023-11-03T20:50:45.972Z,,0,,,NaN,,,,,,false,,,,141831.09999999998,141831.09999999998,,141830.7,,141832.573,8,400,,,
break_continue,html.Screen,4_30_2,2023-11-03T20:50:45.972Z,,0,,,NaN,,,,,,false,,,,141831.3,141831.3,,141831.2,,141832.573,8,400,,,
sequence,flow.Sequence,4_30,2023-11-03T20:50:45.972Z,,0,,,3132.5190000000002,completion,,,,,false,,,,141831.40000000002,141831.3,138691.83,138693.7,138698.781,141832.573,8,400,,,
trial,html.Screen,4_31_0,2023-11-03T20:50:49.269Z,,0,1,,3295.5269999999728,response,ISIC_6533176.JPG,5,ISIC_0296580.JPG,ISIC_0296580.JPG,false,0,keypress(z),500,145128.3,145128.09999999998,141825.646,141831.40000000002,141832.573,145132.116,8,400,32,,ISIC_6533176.JPG
break,html.Screen,4_31_1,2023-11-03T20:50:49.269Z,,0,,,NaN,,,,,,false,,,,145128.7,145128.59999999998,,145128.3,,145132.116,8,400,,,
break_continue,html.Screen,4_31_2,2023-11-03T20:50:49.270Z,,0,,,NaN,,,,,,false,,,,145129,145128.8,,145128.7,,145132.116,8,400,,,
sequence,flow.Sequence,4_31,2023-11-03T20:50:49.270Z,,0,,,3296.2269999999844,completion,,,,,false,,,,145129,145128.8,141825.646,141831.40000000002,141832.573,145132.116,8,400,,,
trial,html.Screen,4_32_0,2023-11-03T20:50:57.016Z,,0,1,,7742.683999999979,response,ISIC_0059341.JPG,5,ISIC_0032610.JPG,ISIC_0059341.JPG,false,1,keypress(m),500,152874.90000000002,152874.8,145125.184,145129.09999999998,145132.116,152875.467,8,400,33,,ISIC_0032610.JPG
break,html.Screen,4_32_1,2023-11-03T20:50:57.016Z,,0,,,NaN,,,,,,false,,,,152875.3,152875.3,,152875.09999999998,,152875.467,8,400,,,
break_continue,html.Screen,4_32_2,2023-11-03T20:50:57.016Z,,0,,,NaN,,,,,,false,,,,152875.5,152875.5,,152875.40000000002,,152875.467,8,400,,,
sequence,flow.Sequence,4_32,2023-11-03T20:50:57.016Z,,0,,,7743.383999999991,completion,,,,,false,,,,152875.5,152875.5,145125.184,145129,145132.116,152875.467,8,400,,,
trial,html.Screen,4_33_0,2023-11-03T20:51:01.610Z,,0,1,,4593.332999999984,response,ISIC_2253931.JPG,5,ISIC_0053742.JPG,ISIC_2253931.JPG,false,1,keypress(m),500,157468.90000000002,157468.8,152868.659,152875.5,152875.467,157469.583,8,400,34,,ISIC_0053742.JPG
break,html.Screen,4_33_1,2023-11-03T20:51:01.610Z,,0,,,NaN,,,,,,false,,,,157469.3,157469.2,,157469,,157469.583,8,400,,,
break_continue,html.Screen,4_33_2,2023-11-03T20:51:01.610Z,,0,,,NaN,,,,,,false,,,,157469.40000000002,157469.3,,157469.3,,157469.583,8,400,,,
sequence,flow.Sequence,4_33,2023-11-03T20:51:01.610Z,,0,,,4593.832999999984,completion,,,,,false,,,,157469.40000000002,157469.3,152868.659,152875.5,152875.467,157469.583,8,400,,,
trial,html.Screen,4_34_0,2023-11-03T20:51:04.251Z,,0,1,,2640.9169999999867,response,ISIC_0055024.JPG,5,ISIC_0021901.JPG,ISIC_0055024.JPG,false,1,keypress(m),500,160110.7,160110.5,157462.637,157469.5,157469.583,160111.917,8,400,35,,ISIC_0021901.JPG
break,html.Screen,4_34_1,2023-11-03T20:51:04.252Z,,0,,,NaN,,,,,,false,,,,160111.2,160111.2,,160110.8,,160111.917,8,400,,,
break_continue,html.Screen,4_34_2,2023-11-03T20:51:04.252Z,,0,,,NaN,,,,,,false,,,,160111.5,160111.40000000002,,160111.3,,160111.917,8,400,,,
sequence,flow.Sequence,4_34,2023-11-03T20:51:04.252Z,,0,,,2641.81700000001,completion,,,,,false,,,,160111.59999999998,160111.40000000002,157462.637,157469.40000000002,157469.583,160111.917,8,400,,,
trial,html.Screen,4_35_0,2023-11-03T20:51:09.262Z,,0,1,,5008.783000000025,response,ISIC_2997601.JPG,4,ISIC_1432058.JPG,ISIC_1432058.JPG,false,0,keypress(z),500,165120.90000000002,165120.7,160104.99,160111.7,160111.917,165123.237,8,400,36,,ISIC_2997601.JPG
break,html.Screen,4_35_1,2023-11-03T20:51:09.262Z,,0,,,NaN,,,,,,false,,,,165121.40000000002,165121.3,,165121,,165123.237,8,400,,,
break_continue,html.Screen,4_35_2,2023-11-03T20:51:09.262Z,,0,,,NaN,,,,,,false,,,,165121.59999999998,165121.5,,165121.5,,165123.237,8,400,,,
sequence,flow.Sequence,4_35,2023-11-03T20:51:09.262Z,,0,,,5009.583000000013,completion,,,,,false,,,,165121.59999999998,165121.5,160104.99,160111.59999999998,160111.917,165123.237,8,400,,,
trial,html.Screen,4_36_0,2023-11-03T20:51:12.048Z,,0,1,,2783.5629999999946,response,ISIC_0025458.JPG,4,ISIC_0283506.JPG,ISIC_0283506.JPG,false,0,keypress(z),500,167907,167906.8,165116.288,165121.59999999998,165123.237,167908.125,8,400,37,,ISIC_0025458.JPG
break,html.Screen,4_36_1,2023-11-03T20:51:12.048Z,,0,,,NaN,,,,,,false,,,,167907.40000000002,167907.3,,167907.09999999998,,167908.125,8,400,,,
break_continue,html.Screen,4_36_2,2023-11-03T20:51:12.048Z,,0,,,NaN,,,,,,false,,,,167907.59999999998,167907.5,,167907.5,,167908.125,8,400,,,
sequence,flow.Sequence,4_36,2023-11-03T20:51:12.048Z,,0,,,2784.2630000000063,completion,,,,,false,,,,167907.59999999998,167907.5,165116.288,165121.59999999998,165123.237,167908.125,8,400,,,
trial,html.Screen,4_37_0,2023-11-03T20:51:14.641Z,,0,1,,2592.2750000000233,response,ISIC_7251402.JPG,4,ISIC_5614446.JPG,ISIC_7251402.JPG,false,1,keypress(m),500,170500.5,170500.40000000002,167901.172,167907.7,167908.125,170504.838,8,400,38,,ISIC_5614446.JPG
break,html.Screen,4_37_1,2023-11-03T20:51:14.642Z,,0,,,NaN,,,,,,false,,,,170501,170500.90000000002,,170500.7,,170504.838,8,400,,,
break_continue,html.Screen,4_37_2,2023-11-03T20:51:14.642Z,,0,,,NaN,,,,,,false,,,,170501.09999999998,170501.09999999998,,170501,,170504.838,8,400,,,
sequence,flow.Sequence,4_37,2023-11-03T20:51:14.642Z,,0,,,2592.9749999999767,completion,,,,,false,,,,170501.2,170501.09999999998,167901.172,167907.7,167908.125,170504.838,8,400,,,
trial,html.Screen,4_38_0,2023-11-03T20:51:17.667Z,,0,1,,3021.261999999988,response,ISIC_0000054.JPG,5,ISIC_3021188.JPG,ISIC_3021188.JPG,false,0,keypress(z),500,173526.3,173526.09999999998,170497.887,170501.2,170504.838,173527.84,8,400,39,,ISIC_0000054.JPG
break,html.Screen,4_38_1,2023-11-03T20:51:17.667Z,,0,,,NaN,,,,,,false,,,,173526.8,173526.59999999998,,173526.40000000002,,173527.84,8,400,,,
break_continue,html.Screen,4_38_2,2023-11-03T20:51:17.668Z,,0,,,NaN,,,,,,false,,,,173527,173526.90000000002,,173526.90000000002,,173527.84,8,400,,,
sequence,flow.Sequence,4_38,2023-11-03T20:51:17.668Z,,0,,,3022.0620000000345,completion,,,,,false,,,,173527,173526.90000000002,170497.887,170501.2,170504.838,173527.84,8,400,,,
trial,html.Screen,4_39_0,2023-11-03T20:51:21.109Z,,0,1,,3440.6600000000035,response,ISIC_8759726.JPG,5,ISIC_0006517.JPG,ISIC_8759726.JPG,false,1,keypress(m),500,176968.59999999998,176968.5,173520.913,173527.2,173527.84,176969.925,8,400,40,,ISIC_0006517.JPG
break,html.Screen,4_39_1,2023-11-03T20:51:21.110Z,,0,,,NaN,,,,,,false,,,,176969,176968.90000000002,,176968.59999999998,,176969.925,8,400,,,
break_continue,html.Screen,4_39_2,2023-11-03T20:51:21.110Z,,0,,,NaN,,,,,,false,,,,176969.09999999998,176969.09999999998,,176969,,176969.925,8,400,,,
sequence,flow.Sequence,4_39,2023-11-03T20:51:21.110Z,,0,,,3441.25999999998,completion,,,,,false,,,,176969.2,176969.09999999998,173520.913,173527.2,173527.84,176969.925,8,400,,,
trial,html.Screen,4_40_0,2023-11-03T20:51:28.759Z,,0,1,,7648.475000000035,response,ISIC_0032426.JPG,5,ISIC_7787118.JPG,ISIC_7787118.JPG,false,0,keypress(z),500,184618.7,184618.40000000002,176962.976,176969.3,176969.925,184623.129,8,400,41,,ISIC_0032426.JPG
break,html.Screen,4_40_1,2023-11-03T20:51:28.760Z,,0,,,NaN,,,,,,false,,,,184619.2,184619,,184618.8,,184623.129,8,400,,,
break_continue,html.Screen,4_40_2,2023-11-03T20:51:28.760Z,,0,,,NaN,,,,,,false,,,,184619.40000000002,184619.3,,184619.2,,184623.129,8,400,,,
sequence,flow.Sequence,4_40,2023-11-03T20:51:28.760Z,,0,,,7649.375,completion,,,,,false,,,,184619.40000000002,184619.3,176962.976,176969.3,176969.925,184623.129,8,400,,,
trial,html.Screen,4_41_0,2023-11-03T20:51:31.641Z,,0,1,,2877.4709999999905,response,ISIC_0765584.JPG,5,ISIC_0012211.JPG,ISIC_0765584.JPG,false,1,keypress(m),500,187500.7,187500.59999999998,184616.321,184619.5,184623.129,187505.432,8,400,42,,ISIC_0012211.JPG
break,html.Screen,4_41_1,2023-11-03T20:51:31.642Z,,0,,,NaN,,,,,,false,,,,187500.90000000002,187500.90000000002,,187500.8,,187505.432,8,400,,,
break_continue,html.Screen,4_41_2,2023-11-03T20:51:31.642Z,,0,,,NaN,,,,,,false,,,,187501.09999999998,187501.09999999998,,187501.09999999998,,187505.432,8,400,,,
sequence,flow.Sequence,4_41,2023-11-03T20:51:31.642Z,,0,,,2877.9709999999905,completion,,,,,false,,,,187501.2,187501.09999999998,184616.321,184619.5,184623.129,187505.432,8,400,,,
trial,html.Screen,4_42_0,2023-11-03T20:51:34.619Z,,0,1,,2973.0679999999993,response,ISIC_8130596.JPG,5,ISIC_0027514.JPG,ISIC_8130596.JPG,false,1,keypress(m),500,190478.7,190478.5,187498.481,187501.2,187505.432,190479.822,8,400,43,,ISIC_0027514.JPG
break,html.Screen,4_42_1,2023-11-03T20:51:34.620Z,,0,,,NaN,,,,,,false,,,,190479.09999999998,190479,,190478.7,,190479.822,8,400,,,
break_continue,html.Screen,4_42_2,2023-11-03T20:51:34.620Z,,0,,,NaN,,,,,,false,,,,190479.2,190479.2,,190479.09999999998,,190479.822,8,400,,,
sequence,flow.Sequence,4_42,2023-11-03T20:51:34.620Z,,0,,,2973.768000000011,completion,,,,,false,,,,190479.2,190479.2,187498.481,187501.2,187505.432,190479.822,8,400,,,
trial,html.Screen,4_43_0,2023-11-03T20:51:38.317Z,,0,1,,3696.0780000000377,response,ISIC_0011995.JPG,5,ISIC_3729849.JPG,ISIC_3729849.JPG,false,0,keypress(z),500,194176.09999999998,194175.90000000002,190472.895,190479.2,190479.822,194178.514,8,400,44,,ISIC_0011995.JPG
break,html.Screen,4_43_1,2023-11-03T20:51:38.317Z,,0,,,NaN,,,,,,false,,,,194176.40000000002,194176.40000000002,,194176.09999999998,,194178.514,8,400,,,
break_continue,html.Screen,4_43_2,2023-11-03T20:51:38.317Z,,0,,,NaN,,,,,,false,,,,194176.59999999998,194176.59999999998,,194176.5,,194178.514,8,400,,,
sequence,flow.Sequence,4_43,2023-11-03T20:51:38.317Z,,0,,,3696.777999999991,completion,,,,,false,,,,194176.59999999998,194176.59999999998,190472.895,190479.2,190479.822,194178.514,8,400,,,
trial,html.Screen,4_44_0,2023-11-03T20:51:41.007Z,,0,1,,2687.4860000000044,response,ISIC_2852805.JPG,4,ISIC_0064478.JPG,ISIC_2852805.JPG,false,1,keypress(m),500,196866.2,196866,194171.565,194176.7,194178.514,196866.843,8,400,45,,ISIC_0064478.JPG
break,html.Screen,4_44_1,2023-11-03T20:51:41.007Z,,0,,,NaN,,,,,,false,,,,196866.59999999998,196866.5,,196866.3,,196866.843,8,400,,,
break_continue,html.Screen,4_44_2,2023-11-03T20:51:41.007Z,,0,,,NaN,,,,,,false,,,,196866.7,196866.7,,196866.7,,196866.843,8,400,,,
sequence,flow.Sequence,4_44,2023-11-03T20:51:41.007Z,,0,,,2688.186000000016,completion,,,,,false,,,,196866.8,196866.7,194171.565,194176.7,194178.514,196866.843,8,400,,,
trial,html.Screen,4_45_0,2023-11-03T20:51:43.505Z,,0,1,,2497.2569999999832,response,ISIC_4980656.JPG,4,ISIC_9622250.JPG,ISIC_9622250.JPG,false,0,keypress(z),500,199364.2,199364.09999999998,196859.89,196866.8,196866.843,199366.356,8,400,46,,ISIC_4980656.JPG
break,html.Screen,4_45_1,2023-11-03T20:51:43.505Z,,0,,,NaN,,,,,,false,,,,199364.59999999998,199364.5,,199364.3,,199366.356,8,400,,,
break_continue,html.Screen,4_45_2,2023-11-03T20:51:43.505Z,,0,,,NaN,,,,,,false,,,,199364.90000000002,199364.8,,199364.7,,199366.356,8,400,,,
sequence,flow.Sequence,4_45,2023-11-03T20:51:43.506Z,,0,,,2497.956999999995,completion,,,,,false,,,,199364.90000000002,199364.8,196859.89,196866.8,196866.843,199366.356,8,400,,,
trial,html.Screen,4_46_0,2023-11-03T20:51:45.858Z,,0,1,,2351.243999999977,response,ISIC_0055039.JPG,4,ISIC_0272509.JPG,ISIC_0055039.JPG,false,1,keypress(m),500,201717.7,201717.59999999998,199359.405,199364.90000000002,199366.356,201724.442,8,400,47,,ISIC_0272509.JPG
break,html.Screen,4_46_1,2023-11-03T20:51:45.859Z,,0,,,NaN,,,,,,false,,,,201718.09999999998,201718.09999999998,,201717.89999999997,,201724.442,8,400,,,
break_continue,html.Screen,4_46_2,2023-11-03T20:51:45.859Z,,0,,,NaN,,,,,,false,,,,201718.3,201718.2,,201718.2,,201724.442,8,400,,,
sequence,flow.Sequence,4_46,2023-11-03T20:51:45.859Z,,0,,,2351.844000000012,completion,,,,,false,,,,201718.39999999997,201718.2,199359.405,199364.90000000002,199366.356,201724.442,8,400,,,
trial,html.Screen,4_47_0,2023-11-03T20:51:48.132Z,,0,1,,2267.05799999999,response,ISIC_0027056.JPG,5,ISIC_1638357.JPG,ISIC_1638357.JPG,false,0,keypress(z),500,203991.7,203991.5,201717.515,201718.39999999997,201724.442,203997.823,8,400,48,,ISIC_0027056.JPG
break,html.Screen,4_47_1,2023-11-03T20:51:48.133Z,,0,,,NaN,,,,,,false,,,,203992,203992,,203991.7,,203997.823,8,400,,,
break_continue,html.Screen,4_47_2,2023-11-03T20:51:48.133Z,,0,,,NaN,,,,,,false,,,,203992.2,203992.09999999998,,203992.09999999998,,203997.823,8,400,,,
sequence,flow.Sequence,4_47,2023-11-03T20:51:48.133Z,,0,,,2267.6579999999667,completion,,,,,false,,,,203992.3,203992.09999999998,201717.515,201718.39999999997,201724.442,203997.823,8,400,,,
trial,html.Screen,4_48_0,2023-11-03T20:51:50.454Z,,0,1,,2315.076999999961,response,ISIC_0053513.JPG,5,ISIC_3436139.JPG,ISIC_3436139.JPG,false,0,keypress(z),500,206313,206312.89999999997,203989.65,203992.3,203997.823,206314.585,8,400,49,,ISIC_0053513.JPG
break,html.Screen,4_48_1,2023-11-03T20:51:50.454Z,,0,,,NaN,,,,,,false,,,,206313.39999999997,206313.3,,206313.09999999998,,206314.585,8,400,,,
break_continue,html.Screen,4_48_2,2023-11-03T20:51:50.454Z,,0,,,NaN,,,,,,false,,,,206313.39999999997,206313.39999999997,,206313.39999999997,,206314.585,8,400,,,
sequence,flow.Sequence,4_48,2023-11-03T20:51:50.454Z,,0,,,2315.576999999961,completion,,,,,false,,,,206313.59999999998,206313.39999999997,203989.65,203992.3,203997.823,206314.585,8,400,,,
trial,html.Screen,4_49_0,2023-11-03T20:51:52.968Z,,0,1,,2512.415000000008,response,ISIC_8910589.JPG,5,ISIC_0061749.JPG,ISIC_8910589.JPG,false,1,keypress(m),500,208827.09999999998,208827,206307.777,206313.59999999998,206314.585,208831.125,8,400,50,,ISIC_0061749.JPG
break,html.Screen,4_49_1,2023-11-03T20:52:02.966Z,,0,,,9999.923999999999,timeout,,,,,false,,,,218825.39999999997,218824.095,208824.179,208827.2,208831.125,218831.049,8,400,,,
break_continue,html.Screen,4_49_2,2023-11-03T20:52:22.497Z,,0,,,19522.350999999966,response,,,,,false,continue,keypress(Space),,238357,238353.39999999997,218824.095,218825.5,218831.049,238362.026,8,400,,,
sequence,flow.Sequence,4_49,2023-11-03T20:52:22.497Z,,0,,,32038.814999999973,completion,,,,,false,,,,238357,238353.39999999997,206307.777,206313.59999999998,206314.585,238362.026,8,400,,,
trial,html.Screen,4_50_0,2023-11-03T20:52:25.619Z,,0,2,,3116.4739999999874,response,ISIC_4354896.JPG,4,ISIC_3239813.JPG,ISIC_3239813.JPG,false,0,keypress(z),500,241478.59999999998,241478.5,238355.073,238357.09999999998,238362.026,241484.178,8,400,1,,ISIC_4354896.JPG
break,html.Screen,4_50_1,2023-11-03T20:52:25.619Z,,0,,,NaN,,,,,,false,,,,241479.09999999998,241478.89999999997,,241478.7,,241484.178,8,400,,,
break_continue,html.Screen,4_50_2,2023-11-03T20:52:25.620Z,,0,,,NaN,,,,,,false,,,,241479.2,241479.09999999998,,241479.09999999998,,241484.178,8,400,,,
sequence,flow.Sequence,4_50,2023-11-03T20:52:25.620Z,,0,,,3117.073999999964,completion,,,,,false,,,,241479.2,241479.09999999998,238355.073,238357,238362.026,241484.178,8,400,,,
trial,html.Screen,4_51_0,2023-11-03T20:52:28.261Z,,0,2,,2636.521999999997,response,ISIC_0030447.JPG,4,ISIC_0059707.JPG,ISIC_0030447.JPG,false,1,keypress(m),500,244120.8,244120.7,241477.161,241479.3,241484.178,244123.064,8,400,2,,ISIC_0059707.JPG
break,html.Screen,4_51_1,2023-11-03T20:52:28.262Z,,0,,,NaN,,,,,,false,,,,244121.09999999998,244121.09999999998,,244120.8,,244123.064,8,400,,,
break_continue,html.Screen,4_51_2,2023-11-03T20:52:28.262Z,,0,,,NaN,,,,,,false,,,,244121.39999999997,244121.3,,244121.2,,244123.064,8,400,,,
sequence,flow.Sequence,4_51,2023-11-03T20:52:28.262Z,,0,,,2637.121999999974,completion,,,,,false,,,,244121.39999999997,244121.3,241477.161,241479.2,241484.178,244123.064,8,400,,,
trial,html.Screen,4_52_0,2023-11-03T20:52:31.576Z,,0,2,,3312.0359999999637,response,ISIC_0031908.JPG,4,ISIC_0000314.JPG,ISIC_0031908.JPG,false,1,keypress(m),500,247435.3,247435.09999999998,244116.12,244121.5,244123.064,247442.6,8,400,3,,ISIC_0000314.JPG
break,html.Screen,4_52_1,2023-11-03T20:52:31.576Z,,0,,,NaN,,,,,,false,,,,247435.8,247435.7,,247435.39999999997,,247442.6,8,400,,,
break_continue,html.Screen,4_52_2,2023-11-03T20:52:31.576Z,,0,,,NaN,,,,,,false,,,,247436,247435.8,,247435.8,,247442.6,8,400,,,
sequence,flow.Sequence,4_52,2023-11-03T20:52:31.576Z,,0,,,3312.7359999999753,completion,,,,,false,,,,247436,247435.8,244116.12,244121.5,244123.064,247442.6,8,400,,,
trial,html.Screen,4_53_0,2023-11-03T20:52:34.394Z,,0,2,,2810.600000000006,response,ISIC_0068975.JPG,5,ISIC_2779787.JPG,ISIC_0068975.JPG,false,1,keypress(m),500,250253.39999999997,250253.2,247435.306,247436,247442.6,250253.953,8,400,4,,ISIC_2779787.JPG
break,html.Screen,4_53_1,2023-11-03T20:52:34.394Z,,0,,,NaN,,,,,,false,,,,250254,250253.89999999997,,250253.59999999998,,250253.953,8,400,,,
break_continue,html.Screen,4_53_2,2023-11-03T20:52:34.395Z,,0,,,NaN,,,,,,false,,,,250254.09999999998,250254,,250254,,250253.953,8,400,,,
sequence,flow.Sequence,4_53,2023-11-03T20:52:34.395Z,,0,,,2811.399999999994,completion,,,,,false,,,,250254.2,250254,247435.306,247436,247442.6,250253.953,8,400,,,
trial,html.Screen,4_54_0,2023-11-03T20:52:36.860Z,,0,2,,2465.146999999968,response,ISIC_0058723.JPG,5,ISIC_0878793.JPG,ISIC_0878793.JPG,false,0,keypress(z),500,252719.3,252719.09999999998,250247.015,250254.2,250253.953,252720.429,8,400,5,,ISIC_0058723.JPG
break,html.Screen,4_54_1,2023-11-03T20:52:36.860Z,,0,,,NaN,,,,,,false,,,,252719.59999999998,252719.59999999998,,252719.3,,252720.429,8,400,,,
break_continue,html.Screen,4_54_2,2023-11-03T20:52:36.860Z,,0,,,NaN,,,,,,false,,,,252719.8,252719.7,,252719.7,,252720.429,8,400,,,
sequence,flow.Sequence,4_54,2023-11-03T20:52:36.860Z,,0,,,2465.747000000003,completion,,,,,false,,,,252719.8,252719.7,250247.015,250254.2,250253.953,252720.429,8,400,,,
trial,html.Screen,4_55_0,2023-11-03T20:52:39.629Z,,0,2,,2768.3709999999846,response,ISIC_1711185.JPG,4,ISIC_0060749.JPG,ISIC_1711185.JPG,false,1,keypress(m),500,255489,255488.8,252713.485,252719.89999999997,252720.429,255491.429,8,400,6,,ISIC_0060749.JPG
break,html.Screen,4_55_1,2023-11-03T20:52:39.630Z,,0,,,NaN,,,,,,false,,,,255489.39999999997,255489.2,,255489,,255491.429,8,400,,,
break_continue,html.Screen,4_55_2,2023-11-03T20:52:39.630Z,,0,,,NaN,,,,,,false,,,,255489.5,255489.39999999997,,255489.39999999997,,255491.429,8,400,,,
sequence,flow.Sequence,4_55,2023-11-03T20:52:39.630Z,,0,,,2768.9709999999614,completion,,,,,false,,,,255489.59999999998,255489.39999999997,252713.485,252719.89999999997,252720.429,255491.429,8,400,,,
trial,html.Screen,4_56_0,2023-11-03T20:52:42.287Z,,0,2,,2655.271000000008,response,ISIC_1971254.JPG,5,ISIC_0271408.JPG,ISIC_0271408.JPG,false,0,keypress(z),500,258146.8,258146.7,255484.484,255489.59999999998,255491.429,258151.793,8,400,7,,ISIC_1971254.JPG
break,html.Screen,4_56_1,2023-11-03T20:52:42.288Z,,0,,,NaN,,,,,,false,,,,258147.3,258147.2,,258146.89999999997,,258151.793,8,400,,,
break_continue,html.Screen,4_56_2,2023-11-03T20:52:42.288Z,,0,,,NaN,,,,,,false,,,,258147.39999999997,258147.3,,258147.3,,258151.793,8,400,,,
sequence,flow.Sequence,4_56,2023-11-03T20:52:42.288Z,,0,,,2655.8709999999846,completion,,,,,false,,,,258147.39999999997,258147.3,255484.484,255489.59999999998,255491.429,258151.793,8,400,,,
trial,html.Screen,4_57_0,2023-11-03T20:52:44.897Z,,0,2,,2605.0069999999832,response,ISIC_6670242.JPG,5,ISIC_0032549.JPG,ISIC_6670242.JPG,false,1,keypress(m),500,260757,260756.8,258143.953,258147.5,258151.793,260762.294,8,400,8,,ISIC_0032549.JPG
break,html.Screen,4_57_1,2023-11-03T20:52:44.898Z,,0,,,NaN,,,,,,false,,,,260757.3,260757.2,,260757,,260762.294,8,400,,,
break_continue,html.Screen,4_57_2,2023-11-03T20:52:44.898Z,,0,,,NaN,,,,,,false,,,,260757.5,260757.39999999997,,260757.39999999997,,260762.294,8,400,,,
sequence,flow.Sequence,4_57,2023-11-03T20:52:44.898Z,,0,,,2605.60699999996,completion,,,,,false,,,,260757.5,260757.39999999997,258143.953,258147.5,258151.793,260762.294,8,400,,,
trial,html.Screen,4_58_0,2023-11-03T20:52:47.394Z,,0,2,,2491.6059999999707,response,ISIC_0032856.JPG,5,ISIC_0013766.JPG,ISIC_0013766.JPG,false,0,keypress(z),500,263254.1,263253.89999999997,260755.291,260757.5,260762.294,263255.349,8,400,9,,ISIC_0032856.JPG
break,html.Screen,4_58_1,2023-11-03T20:52:47.395Z,,0,,,NaN,,,,,,false,,,,263254.5,263254.5,,263254.2,,263255.349,8,400,,,
break_continue,html.Screen,4_58_2,2023-11-03T20:52:47.395Z,,0,,,NaN,,,,,,false,,,,263254.7,263254.7,,263254.6,,263255.349,8,400,,,
sequence,flow.Sequence,4_58,2023-11-03T20:52:47.395Z,,0,,,2492.4060000000172,completion,,,,,false,,,,263254.8,263254.7,260755.291,260757.5,260762.294,263255.349,8,400,,,
trial,html.Screen,4_59_0,2023-11-03T20:52:49.988Z,,0,2,,2592.2509999999893,response,ISIC_6960446.JPG,4,ISIC_0061092.JPG,ISIC_6960446.JPG,false,1,keypress(m),500,265847.6,265847.6,263248.405,263254.89999999997,263255.349,265852.758,8,400,10,,ISIC_0061092.JPG
break,html.Screen,4_59_1,2023-11-03T20:52:49.988Z,,0,,,NaN,,,,,,false,,,,265848.1,265848,,265847.8,,265852.758,8,400,,,
break_continue,html.Screen,4_59_2,2023-11-03T20:52:49.989Z,,0,,,NaN,,,,,,false,,,,265848.2,265848.1,,265848.1,,265852.758,8,400,,,
sequence,flow.Sequence,4_59,2023-11-03T20:52:49.989Z,,0,,,2592.7509999999893,completion,,,,,false,,,,265848.3,265848.1,263248.405,263254.8,263255.349,265852.758,8,400,,,
trial,html.Screen,4_60_0,2023-11-03T20:52:52.485Z,,0,2,,2492.1419999999925,response,ISIC_0065728.JPG,5,ISIC_0027081.JPG,ISIC_0027081.JPG,false,0,keypress(z),500,268345.1,268344.89999999997,265845.813,265848.39999999997,265852.758,268346.991,8,400,11,,ISIC_0065728.JPG
break,html.Screen,4_60_1,2023-11-03T20:52:52.486Z,,0,,,NaN,,,,,,false,,,,268345.5,268345.39999999997,,268345.2,,268346.991,8,400,,,
break_continue,html.Screen,4_60_2,2023-11-03T20:52:52.486Z,,0,,,NaN,,,,,,false,,,,268345.7,268345.7,,268345.6,,268346.991,8,400,,,
sequence,flow.Sequence,4_60,2023-11-03T20:52:52.486Z,,0,,,2492.942000000039,completion,,,,,false,,,,268345.8,268345.7,265845.813,265848.39999999997,265852.758,268346.991,8,400,,,
trial,html.Screen,4_61_0,2023-11-03T20:52:55.080Z,,0,2,,2592.408999999985,response,ISIC_0010527.JPG,4,ISIC_0033186.JPG,ISIC_0010527.JPG,false,1,keypress(m),500,270939.6,270939.39999999997,268340.038,268345.8,268346.991,270942.998,8,400,12,,ISIC_0033186.JPG
break,html.Screen,4_61_1,2023-11-03T20:52:55.080Z,,0,,,NaN,,,,,,false,,,,270939.89999999997,270939.89999999997,,270939.6,,270942.998,8,400,,,
break_continue,html.Screen,4_61_2,2023-11-03T20:52:55.081Z,,0,,,NaN,,,,,,false,,,,270940.1,270940,,270940,,270942.998,8,400,,,
sequence,flow.Sequence,4_61,2023-11-03T20:52:55.081Z,,0,,,2593.00900000002,completion,,,,,false,,,,270940.2,270940,268340.038,268345.8,268346.991,270942.998,8,400,,,
trial,html.Screen,4_62_0,2023-11-03T20:52:57.673Z,,0,2,,2589.801999999967,response,ISIC_0034210.JPG,4,ISIC_0005686.JPG,ISIC_0005686.JPG,false,0,keypress(z),500,273532.89999999997,273532.8,270936.017,270940.2,270942.998,273540.292,8,400,13,,ISIC_0034210.JPG
break,html.Screen,4_62_1,2023-11-03T20:52:57.674Z,,0,,,NaN,,,,,,false,,,,273533.39999999997,273533.39999999997,,273533.1,,273540.292,8,400,,,
break_continue,html.Screen,4_62_2,2023-11-03T20:52:57.674Z,,0,,,NaN,,,,,,false,,,,273533.6,273533.5,,273533.5,,273540.292,8,400,,,
sequence,flow.Sequence,4_62,2023-11-03T20:52:57.674Z,,0,,,2590.5019999999786,completion,,,,,false,,,,273533.6,273533.5,270936.017,270940.2,270942.998,273540.292,8,400,,,
trial,html.Screen,4_63_0,2023-11-03T20:53:00.827Z,,0,2,,3146.207999999984,response,ISIC_0004686.JPG,5,ISIC_1851605.JPG,ISIC_1851605.JPG,false,0,keypress(z),500,276686.6,276686.5,273533.281,273533.7,273540.292,276693.035,8,400,14,,ISIC_0004686.JPG
break,html.Screen,4_63_1,2023-11-03T20:53:00.828Z,,0,,,NaN,,,,,,false,,,,276687.2,276687.1,,276686.8,,276693.035,8,400,,,
break_continue,html.Screen,4_63_2,2023-11-03T20:53:00.828Z,,0,,,NaN,,,,,,false,,,,276687.5,276687.39999999997,,276687.3,,276693.035,8,400,,,
sequence,flow.Sequence,4_63,2023-11-03T20:53:00.828Z,,0,,,3147.1079999999492,completion,,,,,false,,,,276687.6,276687.39999999997,273533.281,273533.7,273540.292,276693.035,8,400,,,
trial,html.Screen,4_64_0,2023-11-03T20:53:04.909Z,,0,2,,4075.265000000014,response,ISIC_1149693.JPG,4,ISIC_0030089.JPG,ISIC_0030089.JPG,false,0,keypress(z),500,280768.6,280768.3,276686.085,276687.6,276693.035,280768.947,8,400,15,,ISIC_1149693.JPG
break,html.Screen,4_64_1,2023-11-03T20:53:04.909Z,,0,,,NaN,,,,,,false,,,,280769,280768.89999999997,,280768.6,,280768.947,8,400,,,
break_continue,html.Screen,4_64_2,2023-11-03T20:53:04.910Z,,0,,,NaN,,,,,,false,,,,280769.2,280769.2,,280769.1,,280768.947,8,400,,,
sequence,flow.Sequence,4_64,2023-11-03T20:53:04.910Z,,0,,,4076.1650000000373,completion,,,,,false,,,,280769.3,280769.2,276686.085,276687.6,276693.035,280768.947,8,400,,,
trial,html.Screen,4_65_0,2023-11-03T20:53:07.919Z,,0,2,,3009.353000000003,response,ISIC_9104843.JPG,4,ISIC_0003539.JPG,ISIC_9104843.JPG,false,1,keypress(m),500,283778.39999999997,283778.3,280762.009,280769.39999999997,280768.947,283783.484,8,400,16,,ISIC_0003539.JPG
break,html.Screen,4_65_1,2023-11-03T20:53:07.919Z,,0,,,NaN,,,,,,false,,,,283778.8,283778.7,,283778.5,,283783.484,8,400,,,
break_continue,html.Screen,4_65_2,2023-11-03T20:53:07.919Z,,0,,,NaN,,,,,,false,,,,283778.89999999997,283778.89999999997,,283778.8,,283783.484,8,400,,,
sequence,flow.Sequence,4_65,2023-11-03T20:53:07.919Z,,0,,,3009.9529999999795,completion,,,,,false,,,,283779,283778.89999999997,280762.009,280769.3,280768.947,283783.484,8,400,,,
trial,html.Screen,4_66_0,2023-11-03T20:53:11.153Z,,0,2,,3228.716000000015,response,ISIC_6640227.JPG,5,ISIC_0010433.JPG,ISIC_0010433.JPG,false,0,keypress(z),500,287012.3,287012.2,283776.511,283779.1,283783.484,287012.65,8,400,17,,ISIC_6640227.JPG
break,html.Screen,4_66_1,2023-11-03T20:53:11.153Z,,0,,,NaN,,,,,,false,,,,287012.7,287012.6,,287012.39999999997,,287012.65,8,400,,,
break_continue,html.Screen,4_66_2,2023-11-03T20:53:11.153Z,,0,,,NaN,,,,,,false,,,,287012.8,287012.8,,287012.7,,287012.65,8,400,,,
sequence,flow.Sequence,4_66,2023-11-03T20:53:11.153Z,,0,,,3229.3159999999916,completion,,,,,false,,,,287012.89999999997,287012.8,283776.511,283779,283783.484,287012.65,8,400,,,
trial,html.Screen,4_67_0,2023-11-03T20:53:20.338Z,,0,2,,9185.049999999988,response,ISIC_0011135.JPG,4,ISIC_0070593.JPG,ISIC_0070593.JPG,false,0,keypress(z),500,296197.89999999997,296197.7,287005.706,287013,287012.65,296199.209,8,400,18,,ISIC_0011135.JPG
break,html.Screen,4_67_1,2023-11-03T20:53:20.339Z,,0,,,NaN,,,,,,false,,,,296198.3,296198.1,,296197.89999999997,,296199.209,8,400,,,
break_continue,html.Screen,4_67_2,2023-11-03T20:53:20.339Z,,0,,,NaN,,,,,,false,,,,296198.3,296198.3,,296198.3,,296199.209,8,400,,,
sequence,flow.Sequence,4_67,2023-11-03T20:53:20.339Z,,0,,,9185.649999999965,completion,,,,,false,,,,296198.39999999997,296198.3,287005.706,287012.89999999997,287012.65,296199.209,8,400,,,
trial,html.Screen,4_68_0,2023-11-03T20:53:23.957Z,,0,2,,3616.591000000015,response,ISIC_7923008.JPG,5,ISIC_2275181.JPG,ISIC_7923008.JPG,false,1,keypress(m),500,299815.89999999997,299815.8,296192.266,296198.39999999997,296199.209,299818.089,8,400,19,,ISIC_2275181.JPG
break,html.Screen,4_68_1,2023-11-03T20:53:23.957Z,,0,,,NaN,,,,,,false,,,,299816.2,299816.2,,299816,,299818.089,8,400,,,
break_continue,html.Screen,4_68_2,2023-11-03T20:53:23.957Z,,0,,,NaN,,,,,,false,,,,299816.39999999997,299816.39999999997,,299816.3,,299818.089,8,400,,,
sequence,flow.Sequence,4_68,2023-11-03T20:53:23.957Z,,0,,,3617.1909999999916,completion,,,,,false,,,,299816.39999999997,299816.39999999997,296192.266,296198.39999999997,296199.209,299818.089,8,400,,,
trial,html.Screen,4_69_0,2023-11-03T20:53:26.838Z,,0,2,,2879.310999999987,response,ISIC_0071906.JPG,5,ISIC_0399142.JPG,ISIC_0071906.JPG,false,1,keypress(m),500,302697.5,302697.39999999997,299811.126,299816.39999999997,299818.089,302700.527,8,400,20,,ISIC_0399142.JPG
break,html.Screen,4_69_1,2023-11-03T20:53:26.839Z,,0,,,NaN,,,,,,false,,,,302697.89999999997,302697.8,,302697.6,,302700.527,8,400,,,
break_continue,html.Screen,4_69_2,2023-11-03T20:53:26.839Z,,0,,,NaN,,,,,,false,,,,302698.1,302698,,302697.89999999997,,302700.527,8,400,,,
sequence,flow.Sequence,4_69,2023-11-03T20:53:26.840Z,,0,,,2879.911000000022,completion,,,,,false,,,,302698.8,302698,299811.126,299816.39999999997,299818.089,302700.527,8,400,,,
trial,html.Screen,4_70_0,2023-11-03T20:53:30.217Z,,0,2,,3375.372999999963,response,ISIC_4097868.JPG,4,ISIC_0010262.JPG,ISIC_0010262.JPG,false,0,keypress(z),500,306076,306075.89999999997,302693.508,302698.8,302700.527,306083.767,8,400,21,,ISIC_4097868.JPG
break,html.Screen,4_70_1,2023-11-03T20:53:30.217Z,,0,,,NaN,,,,,,false,,,,306076.3,306076.3,,306076.2,,306083.767,8,400,,,
break_continue,html.Screen,4_70_2,2023-11-03T20:53:30.217Z,,0,,,NaN,,,,,,false,,,,306076.5,306076.5,,306076.39999999997,,306083.767,8,400,,,
sequence,flow.Sequence,4_70,2023-11-03T20:53:30.217Z,,0,,,3375.972999999998,completion,,,,,false,,,,306076.5,306076.5,302693.508,302698.8,302700.527,306083.767,8,400,,,
trial,html.Screen,4_71_0,2023-11-03T20:53:32.282Z,,0,2,,2057.332999999984,response,ISIC_0032682.JPG,6,ISIC_0054459.JPG,ISIC_0032682.JPG,false,1,keypress(m),500,308141.2,308141.1,306076.823,306076.5,306083.767,308145.153,8,400,22,,ISIC_0054459.JPG
break,html.Screen,4_71_1,2023-11-03T20:53:32.282Z,,0,,,NaN,,,,,,false,,,,308141.6,308141.6,,308141.39999999997,,308145.153,8,400,,,
break_continue,html.Screen,4_71_2,2023-11-03T20:53:32.283Z,,0,,,NaN,,,,,,false,,,,308141.8,308141.7,,308141.7,,308145.153,8,400,,,
sequence,flow.Sequence,4_71,2023-11-03T20:53:32.283Z,,0,,,2057.933000000019,completion,,,,,false,,,,308141.89999999997,308141.7,306076.823,306076.5,306083.767,308145.153,8,400,,,
trial,html.Screen,4_72_0,2023-11-03T20:53:34.620Z,,0,2,,2333.847000000009,response,ISIC_9312264.JPG,5,ISIC_0000517.JPG,ISIC_9312264.JPG,false,1,keypress(m),500,310479.1,310479,308138.208,308142,308145.153,310484.621,8,400,23,,ISIC_0000517.JPG
break,html.Screen,4_72_1,2023-11-03T20:53:34.620Z,,0,,,NaN,,,,,,false,,,,310479.5,310479.5,,310479.2,,310484.621,8,400,,,
break_continue,html.Screen,4_72_2,2023-11-03T20:53:34.621Z,,0,,,NaN,,,,,,false,,,,310479.89999999997,310479.8,,310479.6,,310484.621,8,400,,,
sequence,flow.Sequence,4_72,2023-11-03T20:53:34.621Z,,0,,,2334.646999999997,completion,,,,,false,,,,310479.89999999997,310479.8,308138.208,308141.89999999997,308145.153,310484.621,8,400,,,
trial,html.Screen,4_73_0,2023-11-03T20:53:41.502Z,,0,2,,6876.179000000004,response,ISIC_1961064.JPG,4,ISIC_0066518.JPG,ISIC_1961064.JPG,false,1,keypress(m),500,317360.89999999997,317360.8,310477.683,310479.89999999997,310484.621,317367.419,8,400,24,,ISIC_0066518.JPG
break,html.Screen,4_73_1,2023-11-03T20:53:41.502Z,,0,,,NaN,,,,,,false,,,,317361.3,317361.2,,317361,,317367.419,8,400,,,
break_continue,html.Screen,4_73_2,2023-11-03T20:53:41.502Z,,0,,,NaN,,,,,,false,,,,317361.39999999997,317361.39999999997,,317361.39999999997,,317367.419,8,400,,,
sequence,flow.Sequence,4_73,2023-11-03T20:53:41.502Z,,0,,,6876.77899999998,completion,,,,,false,,,,317361.5,317361.39999999997,310477.683,310479.89999999997,310484.621,317367.419,8,400,,,
trial,html.Screen,4_74_0,2023-11-03T20:53:44.143Z,,0,2,,2635.0810000000056,response,ISIC_0032921.JPG,5,ISIC_0024545.JPG,ISIC_0032921.JPG,false,1,keypress(m),500,320002.6,320002.5,317360.34,317361.6,317367.419,320006.384,8,400,25,,ISIC_0024545.JPG
break,html.Screen,4_74_1,2023-11-03T20:53:44.144Z,,0,,,NaN,,,,,,false,,,,320003.1,320003,,320002.8,,320006.384,8,400,,,
break_continue,html.Screen,4_74_2,2023-11-03T20:53:44.144Z,,0,,,NaN,,,,,,false,,,,320003.3,320003.2,,320003.1,,320006.384,8,400,,,
sequence,flow.Sequence,4_74,2023-11-03T20:53:44.144Z,,0,,,2635.7810000000172,completion,,,,,false,,,,320003.3,320003.2,317360.34,317361.6,317367.419,320006.384,8,400,,,
trial,html.Screen,4_75_0,2023-11-03T20:53:46.657Z,,0,2,,2509.7159999999567,response,ISIC_0027981.JPG,5,ISIC_8848134.JPG,ISIC_8848134.JPG,false,0,keypress(z),500,322516.2,322516.1,319999.388,320003.3,320006.384,322520.316,8,400,26,,ISIC_0027981.JPG
break,html.Screen,4_75_1,2023-11-03T20:53:46.657Z,,0,,,NaN,,,,,,false,,,,322516.7,322516.6,,322516.39999999997,,322520.316,8,400,,,
break_continue,html.Screen,4_75_2,2023-11-03T20:53:46.658Z,,0,,,NaN,,,,,,false,,,,322516.8,322516.8,,322516.8,,322520.316,8,400,,,
sequence,flow.Sequence,4_75,2023-11-03T20:53:46.658Z,,0,,,2510.4159999999683,completion,,,,,false,,,,322517,322516.8,319999.388,320003.3,320006.384,322520.316,8,400,,,
trial,html.Screen,4_76_0,2023-11-03T20:53:49.219Z,,0,2,,2557.9839999999967,response,ISIC_9568327.JPG,5,ISIC_8929288.JPG,ISIC_8929288.JPG,false,0,keypress(z),500,325078.5,325078.3,322513.187,322517.1,322520.316,325082.806,8,400,27,,ISIC_9568327.JPG
break,html.Screen,4_76_1,2023-11-03T20:53:49.220Z,,0,,,NaN,,,,,,false,,,,325078.89999999997,325078.89999999997,,325078.7,,325082.806,8,400,,,
break_continue,html.Screen,4_76_2,2023-11-03T20:53:49.220Z,,0,,,NaN,,,,,,false,,,,325079,325079,,325078.89999999997,,325082.806,8,400,,,
sequence,flow.Sequence,4_76,2023-11-03T20:53:49.220Z,,0,,,2558.6840000000084,completion,,,,,false,,,,325079.1,325079,322513.187,322517.1,322520.316,325082.806,8,400,,,
trial,html.Screen,4_77_0,2023-11-03T20:53:55.397Z,,0,2,,6173.093999999983,response,ISIC_0011964.JPG,4,ISIC_7008335.JPG,ISIC_7008335.JPG,false,0,keypress(z),500,331256.1,331255.89999999997,325074.949,325079.1,325082.806,331261.208,8,400,28,,ISIC_0011964.JPG
break,html.Screen,4_77_1,2023-11-03T20:53:55.397Z,,0,,,NaN,,,,,,false,,,,331256.6,331256.5,,331256.2,,331261.208,8,400,,,
break_continue,html.Screen,4_77_2,2023-11-03T20:53:55.398Z,,0,,,NaN,,,,,,false,,,,331256.8,331256.8,,331256.7,,331261.208,8,400,,,
sequence,flow.Sequence,4_77,2023-11-03T20:53:55.398Z,,0,,,6173.994000000006,completion,,,,,false,,,,331256.89999999997,331256.8,325074.949,325079.1,325082.806,331261.208,8,400,,,
trial,html.Screen,4_78_0,2023-11-03T20:53:59.943Z,,0,2,,4540.891999999993,response,ISIC_2377039.JPG,4,ISIC_0028022.JPG,ISIC_0028022.JPG,false,0,keypress(z),500,335802.3,335802.1,331254.264,331256.89999999997,331261.208,335808.034,8,400,29,,ISIC_2377039.JPG
break,html.Screen,4_78_1,2023-11-03T20:53:59.943Z,,0,,,NaN,,,,,,false,,,,335802.7,335802.6,,335802.39999999997,,335808.034,8,400,,,
break_continue,html.Screen,4_78_2,2023-11-03T20:53:59.944Z,,0,,,NaN,,,,,,false,,,,335802.8,335802.7,,335802.7,,335808.034,8,400,,,
sequence,flow.Sequence,4_78,2023-11-03T20:53:59.944Z,,0,,,4541.4920000000275,completion,,,,,false,,,,335802.8,335802.7,331254.264,331256.89999999997,331261.208,335808.034,8,400,,,
trial,html.Screen,4_79_0,2023-11-03T20:54:02.921Z,,0,2,,2972.1660000000265,response,ISIC_0032918.JPG,5,ISIC_0033562.JPG,ISIC_0032918.JPG,false,1,keypress(m),500,338780.3,338780.2,335801.09,335803,335808.034,338784.488,8,400,30,,ISIC_0033562.JPG
break,html.Screen,4_79_1,2023-11-03T20:54:02.921Z,,0,,,NaN,,,,,,false,,,,338780.7,338780.6,,338780.39999999997,,338784.488,8,400,,,
break_continue,html.Screen,4_79_2,2023-11-03T20:54:02.922Z,,0,,,NaN,,,,,,false,,,,338780.8,338780.7,,338780.7,,338784.488,8,400,,,
sequence,flow.Sequence,4_79,2023-11-03T20:54:02.922Z,,0,,,2972.6660000000265,completion,,,,,false,,,,338780.8,338780.7,335801.09,335802.89999999997,335808.034,338784.488,8,400,,,
trial,html.Screen,4_80_0,2023-11-03T20:54:07.131Z,,0,2,,4205.511999999988,response,ISIC_1579745.JPG,4,ISIC_3166276.JPG,ISIC_1579745.JPG,false,1,keypress(m),500,342990.2,342990,338777.24,338780.8,338784.488,342995.455,8,400,31,,ISIC_3166276.JPG
break,html.Screen,4_80_1,2023-11-03T20:54:07.131Z,,0,,,NaN,,,,,,false,,,,342990.6,342990.5,,342990.3,,342995.455,8,400,,,
break_continue,html.Screen,4_80_2,2023-11-03T20:54:07.131Z,,0,,,NaN,,,,,,false,,,,342990.7,342990.7,,342990.7,,342995.455,8,400,,,
sequence,flow.Sequence,4_80,2023-11-03T20:54:07.132Z,,0,,,4206.2119999999995,completion,,,,,false,,,,342990.89999999997,342990.7,338777.24,338780.8,338784.488,342995.455,8,400,,,
trial,html.Screen,4_81_0,2023-11-03T20:54:09.805Z,,0,2,,2668.344999999972,response,ISIC_8796769.JPG,5,ISIC_0026924.JPG,ISIC_0026924.JPG,false,0,keypress(z),500,345664,345663.8,342988.512,342990.89999999997,342995.455,345673.491,8,400,32,,ISIC_8796769.JPG
break,html.Screen,4_81_1,2023-11-03T20:54:09.805Z,,0,,,NaN,,,,,,false,,,,345664.3,345664.2,,345664,,345673.491,8,400,,,
break_continue,html.Screen,4_81_2,2023-11-03T20:54:09.805Z,,0,,,NaN,,,,,,false,,,,345664.39999999997,345664.39999999997,,345664.39999999997,,345673.491,8,400,,,
sequence,flow.Sequence,4_81,2023-11-03T20:54:09.805Z,,0,,,2668.944999999949,completion,,,,,false,,,,345664.5,345664.39999999997,342988.512,342990.89999999997,342995.455,345673.491,8,400,,,
trial,html.Screen,4_82_0,2023-11-03T20:54:12.382Z,,0,2,,2567.408999999985,response,ISIC_0013549.JPG,5,ISIC_5900778.JPG,ISIC_5900778.JPG,false,0,keypress(z),500,348241.1,348240.89999999997,345666.483,345664.5,345673.491,348242.926,8,400,33,,ISIC_0013549.JPG
break,html.Screen,4_82_1,2023-11-03T20:54:12.382Z,,0,,,NaN,,,,,,false,,,,348241.5,348241.39999999997,,348241.2,,348242.926,8,400,,,
break_continue,html.Screen,4_82_2,2023-11-03T20:54:12.382Z,,0,,,NaN,,,,,,false,,,,348241.6,348241.5,,348241.5,,348242.926,8,400,,,
sequence,flow.Sequence,4_82,2023-11-03T20:54:12.382Z,,0,,,2568.00900000002,completion,,,,,false,,,,348241.6,348241.5,345666.483,345664.5,345673.491,348242.926,8,400,,,
trial,html.Screen,4_83_0,2023-11-03T20:54:15.391Z,,0,2,,3007.5740000000224,response,ISIC_0069667.JPG,4,ISIC_0011531.JPG,ISIC_0011531.JPG,false,0,keypress(z),500,351250.6,351250.5,348235.982,348241.7,348242.926,351256.951,8,400,34,,ISIC_0069667.JPG
break,html.Screen,4_83_1,2023-11-03T20:54:15.392Z,,0,,,NaN,,,,,,false,,,,351251.1,351251,,351250.7,,351256.951,8,400,,,
break_continue,html.Screen,4_83_2,2023-11-03T20:54:15.392Z,,0,,,NaN,,,,,,false,,,,351251.3,351251.2,,351251.1,,351256.951,8,400,,,
sequence,flow.Sequence,4_83,2023-11-03T20:54:15.392Z,,0,,,3008.274000000034,completion,,,,,false,,,,351251.39999999997,351251.2,348235.982,348241.7,348242.926,351256.951,8,400,,,
trial,html.Screen,4_84_0,2023-11-03T20:54:17.937Z,,0,2,,2539.648999999976,response,ISIC_0011645.JPG,5,ISIC_0031517.JPG,ISIC_0031517.JPG,false,0,keypress(z),500,353796.7,353796.6,351249.682,351251.39999999997,351256.951,353797.709,8,400,35,,ISIC_0011645.JPG
break,html.Screen,4_84_1,2023-11-03T20:54:17.938Z,,0,,,NaN,,,,,,false,,,,353797.2,353797.1,,353796.89999999997,,353797.709,8,400,,,
break_continue,html.Screen,4_84_2,2023-11-03T20:54:17.938Z,,0,,,NaN,,,,,,false,,,,353797.5,353797.39999999997,,353797.3,,353797.709,8,400,,,
sequence,flow.Sequence,4_84,2023-11-03T20:54:17.938Z,,0,,,2540.448999999964,completion,,,,,false,,,,353797.6,353797.39999999997,351249.682,351251.39999999997,351256.951,353797.709,8,400,,,
trial,html.Screen,4_85_0,2023-11-03T20:54:22.851Z,,0,2,,4912.690999999992,response,ISIC_0781380.JPG,5,ISIC_9059311.JPG,ISIC_0781380.JPG,false,1,keypress(m),500,358710.5,358710.39999999997,353790.771,353797.6,353797.709,358710.955,8,400,36,,ISIC_9059311.JPG
break,html.Screen,4_85_1,2023-11-03T20:54:22.852Z,,0,,,NaN,,,,,,false,,,,358710.8,358710.8,,358710.6,,358710.955,8,400,,,
break_continue,html.Screen,4_85_2,2023-11-03T20:54:22.852Z,,0,,,NaN,,,,,,false,,,,358711.1,358711,,358710.89999999997,,358710.955,8,400,,,
sequence,flow.Sequence,4_85,2023-11-03T20:54:22.852Z,,0,,,4913.2910000000265,completion,,,,,false,,,,358711.1,358711,353790.771,353797.6,353797.709,358710.955,8,400,,,
trial,html.Screen,4_86_0,2023-11-03T20:54:27.236Z,,0,2,,4384.64499999996,response,ISIC_6674653.JPG,4,ISIC_5868291.JPG,ISIC_6674653.JPG,false,1,keypress(m),500,363095.7,363095.6,358704.011,358711.2,358710.955,363098.454,8,400,37,,ISIC_5868291.JPG
break,html.Screen,4_86_1,2023-11-03T20:54:27.237Z,,0,,,NaN,,,,,,false,,,,363096,363095.89999999997,,363095.8,,363098.454,8,400,,,
break_continue,html.Screen,4_86_2,2023-11-03T20:54:27.237Z,,0,,,NaN,,,,,,false,,,,363096.1,363096.1,,363096,,363098.454,8,400,,,
sequence,flow.Sequence,4_86,2023-11-03T20:54:27.237Z,,0,,,4385.14499999996,completion,,,,,false,,,,363096.2,363096.1,358704.011,358711.1,358710.955,363098.454,8,400,,,
trial,html.Screen,4_87_0,2023-11-03T20:54:32.022Z,,0,2,,4783.14599999995,response,ISIC_9568327.JPG,5,ISIC_0233487.JPG,ISIC_0233487.JPG,false,0,keypress(z),500,367881.89999999997,367881.6,363091.51,363096.3,363098.454,367889.133,8,400,38,,ISIC_9568327.JPG
break,html.Screen,4_87_1,2023-11-03T20:54:32.023Z,,0,,,NaN,,,,,,false,,,,367882.3,367882.3,,367882,,367889.133,8,400,,,
break_continue,html.Screen,4_87_2,2023-11-03T20:54:32.023Z,,0,,,NaN,,,,,,false,,,,367882.5,367882.5,,367882.39999999997,,367889.133,8,400,,,
sequence,flow.Sequence,4_87,2023-11-03T20:54:32.023Z,,0,,,4784.045999999973,completion,,,,,false,,,,367882.6,367882.5,363091.51,363096.3,363098.454,367889.133,8,400,,,
trial,html.Screen,4_88_0,2023-11-03T20:54:34.985Z,,0,2,,2954.567000000039,response,ISIC_5679942.JPG,5,ISIC_5203791.JPG,ISIC_5203791.JPG,false,0,keypress(z),500,370843.89999999997,370843.7,367881.834,367882.6,367889.133,370847.455,8,400,39,,ISIC_5679942.JPG
break,html.Screen,4_88_1,2023-11-03T20:54:34.985Z,,0,,,NaN,,,,,,false,,,,370844.39999999997,370844.3,,370844,,370847.455,8,400,,,
break_continue,html.Screen,4_88_2,2023-11-03T20:54:34.985Z,,0,,,NaN,,,,,,false,,,,370844.5,370844.39999999997,,370844.39999999997,,370847.455,8,400,,,
sequence,flow.Sequence,4_88,2023-11-03T20:54:34.985Z,,0,,,2955.2669999999925,completion,,,,,false,,,,370844.6,370844.39999999997,367881.834,367882.6,367889.133,370847.455,8,400,,,
trial,html.Screen,4_89_0,2023-11-03T20:54:37.403Z,,0,2,,2414.2449999999953,response,ISIC_0033377.JPG,5,ISIC_8671662.JPG,ISIC_8671662.JPG,false,0,keypress(z),500,373261.89999999997,373261.7,370839.279,370844.6,370847.455,373264.257,8,400,40,,ISIC_0033377.JPG
break,html.Screen,4_89_1,2023-11-03T20:54:37.403Z,,0,,,NaN,,,,,,false,,,,373262.5,373262.39999999997,,373262,,373264.257,8,400,,,
break_continue,html.Screen,4_89_2,2023-11-03T20:54:37.403Z,,0,,,NaN,,,,,,false,,,,373262.6,373262.6,,373262.5,,373264.257,8,400,,,
sequence,flow.Sequence,4_89,2023-11-03T20:54:37.403Z,,0,,,2415.1449999999604,completion,,,,,false,,,,373262.6,373262.6,370839.279,370844.6,370847.455,373264.257,8,400,,,
trial,html.Screen,4_90_0,2023-11-03T20:54:41.165Z,,0,2,,3759.543000000005,response,ISIC_0066094.JPG,4,ISIC_8278912.JPG,ISIC_8278912.JPG,false,0,keypress(z),500,377023.89999999997,377023.8,373257.313,373262.7,373264.257,377028.353,8,400,41,,ISIC_0066094.JPG
break,html.Screen,4_90_1,2023-11-03T20:54:41.165Z,,0,,,NaN,,,,,,false,,,,377024.2,377024.2,,377023.89999999997,,377028.353,8,400,,,
break_continue,html.Screen,4_90_2,2023-11-03T20:54:41.165Z,,0,,,NaN,,,,,,false,,,,377024.3,377024.3,,377024.2,,377028.353,8,400,,,
sequence,flow.Sequence,4_90,2023-11-03T20:54:41.165Z,,0,,,3760.043000000005,completion,,,,,false,,,,377024.39999999997,377024.3,373257.313,373262.7,373264.257,377028.353,8,400,,,
trial,html.Screen,4_91_0,2023-11-03T20:54:44.142Z,,0,2,,2973.146999999997,response,ISIC_6906476.JPG,5,ISIC_8993666.JPG,ISIC_8993666.JPG,false,0,keypress(z),500,380001.7,380001.5,377021.409,377024.5,377028.353,380007.14,8,400,42,,ISIC_6906476.JPG
break,html.Screen,4_91_1,2023-11-03T20:54:44.143Z,,0,,,NaN,,,,,,false,,,,380002.2,380002.1,,380001.7,,380007.14,8,400,,,
break_continue,html.Screen,4_91_2,2023-11-03T20:54:44.143Z,,0,,,NaN,,,,,,false,,,,380002.3,380002.3,,380002.2,,380007.14,8,400,,,
sequence,flow.Sequence,4_91,2023-11-03T20:54:44.143Z,,0,,,2973.9469999999856,completion,,,,,false,,,,380002.3,380002.3,377021.409,377024.39999999997,377028.353,380007.14,8,400,,,
trial,html.Screen,4_92_0,2023-11-03T20:54:47.232Z,,0,2,,3084.259999999951,response,ISIC_0004789.JPG,5,ISIC_0055179.JPG,ISIC_0055179.JPG,false,0,keypress(z),500,383091.6,383091.39999999997,380000.197,380002.39999999997,380007.14,383096.307,8,400,43,,ISIC_0004789.JPG
break,html.Screen,4_92_1,2023-11-03T20:54:47.233Z,,0,,,NaN,,,,,,false,,,,383092,383092,,383091.7,,383096.307,8,400,,,
break_continue,html.Screen,4_92_2,2023-11-03T20:54:47.233Z,,0,,,NaN,,,,,,false,,,,383092.3,383092.3,,383092.1,,383096.307,8,400,,,
sequence,flow.Sequence,4_92,2023-11-03T20:54:47.233Z,,0,,,3085.1599999999744,completion,,,,,false,,,,383092.3,383092.3,380000.197,380002.39999999997,380007.14,383096.307,8,400,,,
trial,html.Screen,4_93_0,2023-11-03T20:54:49.730Z,,0,2,,2492.89300000004,response,ISIC_7296201.JPG,5,ISIC_0033533.JPG,ISIC_7296201.JPG,false,1,keypress(m),500,385589.3,385589.2,383089.369,383092.3,383096.307,385590.82,8,400,44,,ISIC_0033533.JPG
break,html.Screen,4_93_1,2023-11-03T20:54:49.730Z,,0,,,NaN,,,,,,false,,,,385589.6,385589.6,,385589.39999999997,,385590.82,8,400,,,
break_continue,html.Screen,4_93_2,2023-11-03T20:54:49.730Z,,0,,,NaN,,,,,,false,,,,385589.8,385589.8,,385589.7,,385590.82,8,400,,,
sequence,flow.Sequence,4_93,2023-11-03T20:54:49.731Z,,0,,,2493.4930000000168,completion,,,,,false,,,,385589.8,385589.8,383089.369,383092.3,383096.307,385590.82,8,400,,,
trial,html.Screen,4_94_0,2023-11-03T20:54:52.372Z,,0,2,,2640.4799999999814,response,ISIC_0069970.JPG,5,ISIC_0663588.JPG,ISIC_0663588.JPG,false,0,keypress(z),500,388231.5,388231.3,385583.876,385589.89999999997,385590.82,388236.759,8,400,45,,ISIC_0069970.JPG
break,html.Screen,4_94_1,2023-11-03T20:54:52.373Z,,0,,,NaN,,,,,,false,,,,388232.2,388232.1,,388231.7,,388236.759,8,400,,,
break_continue,html.Screen,4_94_2,2023-11-03T20:54:52.373Z,,0,,,NaN,,,,,,false,,,,388232.3,388232.3,,388232.2,,388236.759,8,400,,,
sequence,flow.Sequence,4_94,2023-11-03T20:54:52.373Z,,0,,,2641.4799999999814,completion,,,,,false,,,,388232.3,388232.3,385583.876,385589.89999999997,385590.82,388236.759,8,400,,,
trial,html.Screen,4_95_0,2023-11-03T20:54:54.886Z,,0,2,,2508.3409999999567,response,ISIC_0069908.JPG,5,ISIC_0063715.JPG,ISIC_0069908.JPG,false,1,keypress(m),500,390745.3,390745.1,388229.772,388232.39999999997,388236.759,390750.675,8,400,46,,ISIC_0063715.JPG
break,html.Screen,4_95_1,2023-11-03T20:54:54.886Z,,0,,,NaN,,,,,,false,,,,390745.6,390745.6,,390745.3,,390750.675,8,400,,,
break_continue,html.Screen,4_95_2,2023-11-03T20:54:54.886Z,,0,,,NaN,,,,,,false,,,,390745.8,390745.7,,390745.7,,390750.675,8,400,,,
sequence,flow.Sequence,4_95,2023-11-03T20:54:54.887Z,,0,,,2508.9409999999916,completion,,,,,false,,,,390745.89999999997,390745.7,388229.772,388232.39999999997,388236.759,390750.675,8,400,,,
trial,html.Screen,4_96_0,2023-11-03T20:54:57.719Z,,0,2,,2827.9249999999884,response,ISIC_6398283.JPG,5,ISIC_2850215.JPG,ISIC_6398283.JPG,false,1,keypress(m),500,393578.7,393578.6,390743.548,390745.89999999997,390750.675,393582.849,8,400,47,,ISIC_2850215.JPG
break,html.Screen,4_96_1,2023-11-03T20:54:57.720Z,,0,,,NaN,,,,,,false,,,,393579,393579,,393578.8,,393582.849,8,400,,,
break_continue,html.Screen,4_96_2,2023-11-03T20:54:57.720Z,,0,,,NaN,,,,,,false,,,,393579.2,393579.1,,393579.1,,393582.849,8,400,,,
sequence,flow.Sequence,4_96,2023-11-03T20:54:57.720Z,,0,,,2828.4249999999884,completion,,,,,false,,,,393579.2,393579.1,390743.548,390745.89999999997,390750.675,393582.849,8,400,,,
trial,html.Screen,4_97_0,2023-11-03T20:55:00.137Z,,0,2,,2413.7509999999893,response,ISIC_7513677.JPG,5,ISIC_0033692.JPG,ISIC_0033692.JPG,false,0,keypress(z),500,395996.89999999997,395996.6,393575.911,393579.3,393582.849,396000.76,8,400,48,,ISIC_7513677.JPG
break,html.Screen,4_97_1,2023-11-03T20:55:00.138Z,,0,,,NaN,,,,,,false,,,,395997.3,395997.3,,395997,,396000.76,8,400,,,
break_continue,html.Screen,4_97_2,2023-11-03T20:55:00.138Z,,0,,,NaN,,,,,,false,,,,395997.6,395997.5,,395997.39999999997,,396000.76,8,400,,,
sequence,flow.Sequence,4_97,2023-11-03T20:55:00.138Z,,0,,,2414.6510000000126,completion,,,,,false,,,,395997.6,395997.5,393575.911,393579.3,393582.849,396000.76,8,400,,,
trial,html.Screen,4_98_0,2023-11-03T20:55:02.524Z,,0,2,,2381.9400000000023,response,ISIC_0054480.JPG,4,ISIC_3305055.JPG,ISIC_0054480.JPG,false,1,keypress(m),500,398382.89999999997,398382.7,395993.784,395997.7,396000.76,398389.722,8,400,49,,ISIC_3305055.JPG
break,html.Screen,4_98_1,2023-11-03T20:55:02.524Z,,0,,,NaN,,,,,,false,,,,398383.39999999997,398383.39999999997,,398383,,398389.722,8,400,,,
break_continue,html.Screen,4_98_2,2023-11-03T20:55:02.524Z,,0,,,NaN,,,,,,false,,,,398383.7,398383.6,,398383.5,,398389.722,8,400,,,
sequence,flow.Sequence,4_98,2023-11-03T20:55:02.524Z,,0,,,2382.8399999999674,completion,,,,,false,,,,398383.7,398383.6,395993.784,395997.6,396000.76,398389.722,8,400,,,
trial,html.Screen,4_99_0,2023-11-03T20:55:05.134Z,,0,2,,2603.0779999999795,response,ISIC_0031561.JPG,4,ISIC_8883212.JPG,ISIC_8883212.JPG,false,0,keypress(z),500,400993,400992.8,398382.715,398383.7,398389.722,400993.72,8,400,50,,ISIC_0031561.JPG
break,html.Screen,4_99_1,2023-11-03T20:55:15.128Z,,0,,,10000.647000000055,timeout,,,,,false,,,,410987.8,410987.191,400986.777,400993.1,400993.72,410994.367,8,400,,,
break_continue,html.Screen,4_99_2,2023-11-03T20:55:20.005Z,,0,,,4863.332999999984,response,,,,,false,continue,keypress(Space),,415864,415857.7,410987.191,410987.89999999997,410994.367,415864.834,8,400,,,
sequence,flow.Sequence,4_99,2023-11-03T20:55:20.005Z,,0,,,17467.978000000003,completion,,,,,false,,,,415864.1,415857.7,398382.715,398383.7,398389.722,415864.834,8,400,,,
trial,html.Screen,4_100_0,2023-11-03T20:55:23.175Z,,0,3,,3168.866000000038,response,ISIC_5897134.JPG,4,ISIC_7967397.JPG,ISIC_5897134.JPG,false,1,keypress(m),500,419034,419033.7,415857.661,415864.2,415864.834,419035.564,8,400,1,,ISIC_7967397.JPG
break,html.Screen,4_100_1,2023-11-03T20:55:23.175Z,,0,,,NaN,,,,,,false,,,,419034.39999999997,419034.3,,419034,,419035.564,8,400,,,
break_continue,html.Screen,4_100_2,2023-11-03T20:55:23.175Z,,0,,,NaN,,,,,,false,,,,419034.5,419034.5,,419034.39999999997,,419035.564,8,400,,,
sequence,flow.Sequence,4_100,2023-11-03T20:55:23.175Z,,0,,,3169.6660000000265,completion,,,,,false,,,,419034.6,419034.5,415857.661,415864.2,415864.834,419035.564,8,400,,,
trial,html.Screen,4_101_0,2023-11-03T20:55:25.800Z,,0,3,,2624.0359999999637,response,ISIC_4448959.JPG,4,ISIC_8579575.JPG,ISIC_4448959.JPG,false,1,keypress(m),500,421659.7,421659.6,419028.621,419034.7,419035.564,421660.722,8,400,2,,ISIC_8579575.JPG
break,html.Screen,4_101_1,2023-11-03T20:55:25.801Z,,0,,,NaN,,,,,,false,,,,421660.1,421660,,421659.89999999997,,421660.722,8,400,,,
break_continue,html.Screen,4_101_2,2023-11-03T20:55:25.801Z,,0,,,NaN,,,,,,false,,,,421660.3,421660.2,,421660.2,,421660.722,8,400,,,
sequence,flow.Sequence,4_101,2023-11-03T20:55:25.801Z,,0,,,2624.6359999999986,completion,,,,,false,,,,421660.3,421660.2,419028.621,419034.7,419035.564,421660.722,8,400,,,
trial,html.Screen,4_102_0,2023-11-03T20:55:28.619Z,,0,3,,2817.277999999991,response,ISIC_0058035.JPG,5,ISIC_7693611.JPG,ISIC_7693611.JPG,false,0,keypress(z),500,424478.1,424478,421653.779,421660.3,421660.722,424480.171,8,400,3,,ISIC_0058035.JPG
break,html.Screen,4_102_1,2023-11-03T20:55:28.619Z,,0,,,NaN,,,,,,false,,,,424478.5,424478.39999999997,,424478.2,,424480.171,8,400,,,
break_continue,html.Screen,4_102_2,2023-11-03T20:55:28.619Z,,0,,,NaN,,,,,,false,,,,424478.6,424478.5,,424478.5,,424480.171,8,400,,,
sequence,flow.Sequence,4_102,2023-11-03T20:55:28.619Z,,0,,,2817.777999999991,completion,,,,,false,,,,424478.6,424478.5,421653.779,421660.3,421660.722,424480.171,8,400,,,
trial,html.Screen,4_103_0,2023-11-03T20:55:31.085Z,,0,3,,2463.728999999992,response,ISIC_0000513.JPG,4,ISIC_1654318.JPG,ISIC_1654318.JPG,false,0,keypress(z),500,426944,426943.89999999997,424473.228,424478.7,424480.171,426945.572,8,400,4,,ISIC_0000513.JPG
break,html.Screen,4_103_1,2023-11-03T20:55:31.085Z,,0,,,NaN,,,,,,false,,,,426944.5,426944.39999999997,,426944.1,,426945.572,8,400,,,
break_continue,html.Screen,4_103_2,2023-11-03T20:55:31.085Z,,0,,,NaN,,,,,,false,,,,426944.5,426944.5,,426944.5,,426945.572,8,400,,,
sequence,flow.Sequence,4_103,2023-11-03T20:55:31.085Z,,0,,,2464.329000000027,completion,,,,,false,,,,426944.7,426944.5,424473.228,424478.6,424480.171,426945.572,8,400,,,
trial,html.Screen,4_104_0,2023-11-03T20:55:33.519Z,,0,3,,2432.228000000003,response,ISIC_1194944.JPG,4,ISIC_7899041.JPG,ISIC_1194944.JPG,false,1,keypress(m),500,429377.89999999997,429377.8,426938.629,426944.7,426945.572,429383.211,8,400,5,,ISIC_7899041.JPG
break,html.Screen,4_104_1,2023-11-03T20:55:33.519Z,,0,,,NaN,,,,,,false,,,,429378.3,429378.3,,429378,,429383.211,8,400,,,
break_continue,html.Screen,4_104_2,2023-11-03T20:55:33.519Z,,0,,,NaN,,,,,,false,,,,429378.5,429378.5,,429378.39999999997,,429383.211,8,400,,,
sequence,flow.Sequence,4_104,2023-11-03T20:55:33.519Z,,0,,,2432.9280000000144,completion,,,,,false,,,,429378.5,429378.5,426938.629,426944.7,426945.572,429383.211,8,400,,,
trial,html.Screen,4_105_0,2023-11-03T20:55:35.920Z,,0,3,,2396.4890000000014,response,ISIC_5518557.JPG,6,ISIC_0033957.JPG,ISIC_5518557.JPG,false,1,keypress(m),500,431779.89999999997,431779.7,429376.183,429378.5,429383.211,431786.039,8,400,6,,ISIC_0033957.JPG
break,html.Screen,4_105_1,2023-11-03T20:55:35.921Z,,0,,,NaN,,,,,,false,,,,431780.1,431780.1,,431779.89999999997,,431786.039,8,400,,,
break_continue,html.Screen,4_105_2,2023-11-03T20:55:35.921Z,,0,,,NaN,,,,,,false,,,,431780.2,431780.2,,431780.2,,431786.039,8,400,,,
sequence,flow.Sequence,4_105,2023-11-03T20:55:35.921Z,,0,,,2396.9890000000014,completion,,,,,false,,,,431780.3,431780.2,429376.183,429378.5,429383.211,431786.039,8,400,,,
trial,html.Screen,4_106_0,2023-11-03T20:55:38.643Z,,0,3,,2715.661000000022,response,ISIC_2219050.JPG,5,ISIC_4536709.JPG,ISIC_4536709.JPG,false,0,keypress(z),500,434501.8,434501.7,431779.052,431780.3,431786.039,434508.378,8,400,7,,ISIC_2219050.JPG
break,html.Screen,4_106_1,2023-11-03T20:55:38.643Z,,0,,,NaN,,,,,,false,,,,434502.2,434502.2,,434501.89999999997,,434508.378,8,400,,,
break_continue,html.Screen,4_106_2,2023-11-03T20:55:38.643Z,,0,,,NaN,,,,,,false,,,,434502.3,434502.3,,434502.3,,434508.378,8,400,,,
sequence,flow.Sequence,4_106,2023-11-03T20:55:38.643Z,,0,,,2716.2609999999986,completion,,,,,false,,,,434502.39999999997,434502.3,431779.052,431780.3,431786.039,434508.378,8,400,,,
trial,html.Screen,4_107_0,2023-11-03T20:55:40.676Z,,0,3,,2026.7219999999506,response,ISIC_5999002.JPG,5,ISIC_0065535.JPG,ISIC_5999002.JPG,false,1,keypress(m),500,436535.2,436535.1,434501.216,434502.5,434508.378,436536.123,8,400,8,,ISIC_0065535.JPG
break,html.Screen,4_107_1,2023-11-03T20:55:40.676Z,,0,,,NaN,,,,,,false,,,,436535.6,436535.5,,436535.3,,436536.123,8,400,,,
break_continue,html.Screen,4_107_2,2023-11-03T20:55:40.677Z,,0,,,NaN,,,,,,false,,,,436535.8,436535.8,,436535.7,,436536.123,8,400,,,
sequence,flow.Sequence,4_107,2023-11-03T20:55:40.677Z,,0,,,2027.4219999999623,completion,,,,,false,,,,436535.89999999997,436535.8,434501.216,434502.5,434508.378,436536.123,8,400,,,
trial,html.Screen,4_108_0,2023-11-03T20:55:43.142Z,,0,3,,2464.676999999967,response,ISIC_3837132.JPG,4,ISIC_9808863.JPG,ISIC_9808863.JPG,false,0,keypress(z),500,439001,439000.8,436529.18,436536,436536.123,439008.402,8,400,9,,ISIC_3837132.JPG
break,html.Screen,4_108_1,2023-11-03T20:55:43.142Z,,0,,,NaN,,,,,,false,,,,439001.5,439001.39999999997,,439001.1,,439008.402,8,400,,,
break_continue,html.Screen,4_108_2,2023-11-03T20:55:43.142Z,,0,,,NaN,,,,,,false,,,,439001.7,439001.7,,439001.7,,439008.402,8,400,,,
sequence,flow.Sequence,4_108,2023-11-03T20:55:43.142Z,,0,,,2465.57699999999,completion,,,,,false,,,,439001.8,439001.7,436529.18,436536,436536.123,439008.402,8,400,,,
trial,html.Screen,4_109_0,2023-11-03T20:55:45.640Z,,0,3,,2490.697999999975,response,ISIC_0011529.JPG,5,ISIC_0813423.JPG,ISIC_0011529.JPG,false,1,keypress(m),500,441499.3,441499.1,439001.382,439001.89999999997,439008.402,441501.409,8,400,10,,ISIC_0813423.JPG
break,html.Screen,4_109_1,2023-11-03T20:55:45.640Z,,0,,,NaN,,,,,,false,,,,441499.8,441499.6,,441499.39999999997,,441501.409,8,400,,,
break_continue,html.Screen,4_109_2,2023-11-03T20:55:45.641Z,,0,,,NaN,,,,,,false,,,,441499.89999999997,441499.89999999997,,441499.8,,441501.409,8,400,,,
sequence,flow.Sequence,4_109,2023-11-03T20:55:45.641Z,,0,,,2491.497999999963,completion,,,,,false,,,,441500,441499.89999999997,439001.382,439001.8,439008.402,441501.409,8,400,,,
trial,html.Screen,4_110_0,2023-11-03T20:55:48.266Z,,0,3,,2623.591000000015,response,ISIC_2489504.JPG,5,ISIC_0000429.JPG,ISIC_2489504.JPG,false,1,keypress(m),500,444125.1,444125,441494.466,441500.1,441501.409,444126.565,8,400,11,,ISIC_0000429.JPG
break,html.Screen,4_110_1,2023-11-03T20:55:48.266Z,,0,,,NaN,,,,,,false,,,,444125.6,444125.5,,444125.2,,444126.565,8,400,,,
break_continue,html.Screen,4_110_2,2023-11-03T20:55:48.266Z,,0,,,NaN,,,,,,false,,,,444125.8,444125.7,,444125.7,,444126.565,8,400,,,
sequence,flow.Sequence,4_110,2023-11-03T20:55:48.267Z,,0,,,2624.2910000000265,completion,,,,,false,,,,444125.8,444125.7,441494.466,441500,441501.409,444126.565,8,400,,,
trial,html.Screen,4_111_0,2023-11-03T20:55:50.748Z,,0,3,,2480.734999999986,response,ISIC_0069486.JPG,4,ISIC_4973549.JPG,ISIC_4973549.JPG,false,0,keypress(z),500,446607.6,446607.3,444119.621,444125.89999999997,444126.565,446612.72,8,400,12,,ISIC_0069486.JPG
break,html.Screen,4_111_1,2023-11-03T20:55:50.749Z,,0,,,NaN,,,,,,false,,,,446608,446607.89999999997,,446607.6,,446612.72,8,400,,,
break_continue,html.Screen,4_111_2,2023-11-03T20:55:50.749Z,,0,,,NaN,,,,,,false,,,,446608.2,446608.2,,446608.1,,446612.72,8,400,,,
sequence,flow.Sequence,4_111,2023-11-03T20:55:50.749Z,,0,,,2481.6350000000093,completion,,,,,false,,,,446608.3,446608.2,444119.621,444125.89999999997,444126.565,446612.72,8,400,,,
trial,html.Screen,4_112_0,2023-11-03T20:55:54.670Z,,0,3,,3916.179999999993,response,ISIC_6806545.JPG,5,ISIC_0010818.JPG,ISIC_6806545.JPG,false,1,keypress(m),500,450529.1,450528.89999999997,446605.776,446608.3,446612.72,450536.367,8,400,13,,ISIC_0010818.JPG
break,html.Screen,4_112_1,2023-11-03T20:55:54.670Z,,0,,,NaN,,,,,,false,,,,450529.39999999997,450529.39999999997,,450529.2,,450536.367,8,400,,,
break_continue,html.Screen,4_112_2,2023-11-03T20:55:54.670Z,,0,,,NaN,,,,,,false,,,,450529.6,450529.6,,450529.6,,450536.367,8,400,,,
sequence,flow.Sequence,4_112,2023-11-03T20:55:54.670Z,,0,,,3916.8800000000047,completion,,,,,false,,,,450529.7,450529.6,446605.776,446608.3,446612.72,450536.367,8,400,,,
trial,html.Screen,4_113_0,2023-11-03T20:55:57.791Z,,0,3,,3114.2329999999492,response,ISIC_0013671.JPG,5,ISIC_6464772.JPG,ISIC_6464772.JPG,false,0,keypress(z),500,453650.8,453650.6,450529.36,450529.8,450536.367,453654.553,8,400,14,,ISIC_0013671.JPG
break,html.Screen,4_113_1,2023-11-03T20:55:57.792Z,,0,,,NaN,,,,,,false,,,,453651.2,453651.2,,453650.89999999997,,453654.553,8,400,,,
break_continue,html.Screen,4_113_2,2023-11-03T20:55:57.792Z,,0,,,NaN,,,,,,false,,,,453651.39999999997,453651.3,,453651.3,,453654.553,8,400,,,
sequence,flow.Sequence,4_113,2023-11-03T20:55:57.792Z,,0,,,3114.932999999961,completion,,,,,false,,,,453651.5,453651.3,450529.36,450529.7,450536.367,453654.553,8,400,,,
trial,html.Screen,4_114_0,2023-11-03T20:56:01.953Z,,0,3,,4157.846999999951,response,ISIC_0004728.JPG,6,ISIC_0028291.JPG,ISIC_0004728.JPG,false,1,keypress(m),500,457812.5,457812.39999999997,453647.314,453651.5,453654.553,457814.009,8,400,15,,ISIC_0028291.JPG
break,html.Screen,4_114_1,2023-11-03T20:56:01.954Z,,0,,,NaN,,,,,,false,,,,457812.89999999997,457812.8,,457812.7,,457814.009,8,400,,,
break_continue,html.Screen,4_114_2,2023-11-03T20:56:01.954Z,,0,,,NaN,,,,,,false,,,,457813,457813,,457813,,457814.009,8,400,,,
sequence,flow.Sequence,4_114,2023-11-03T20:56:01.954Z,,0,,,4158.446999999986,completion,,,,,false,,,,457813,457813,453647.314,453651.5,453654.553,457814.009,8,400,,,
trial,html.Screen,4_115_0,2023-11-03T20:56:07.027Z,,0,3,,5071.99099999998,response,ISIC_0033512.JPG,5,ISIC_0033640.JPG,ISIC_0033640.JPG,false,0,keypress(z),500,462886.1,462886,457807.066,457813.1,457814.009,462891.257,8,400,16,,ISIC_0033512.JPG
break,html.Screen,4_115_1,2023-11-03T20:56:07.027Z,,0,,,NaN,,,,,,false,,,,462886.39999999997,462886.39999999997,,462886.1,,462891.257,8,400,,,
break_continue,html.Screen,4_115_2,2023-11-03T20:56:07.027Z,,0,,,NaN,,,,,,false,,,,462886.5,462886.5,,462886.5,,462891.257,8,400,,,
sequence,flow.Sequence,4_115,2023-11-03T20:56:07.027Z,,0,,,5072.49099999998,completion,,,,,false,,,,462886.6,462886.5,457807.066,457813.1,457814.009,462891.257,8,400,,,
trial,html.Screen,4_116_0,2023-11-03T20:56:09.765Z,,0,3,,2732.7429999999586,response,ISIC_3919752.JPG,6,ISIC_0013767.JPG,ISIC_0013767.JPG,false,0,keypress(z),500,465624.2,465623.99999999994,462884.314,462886.6,462891.257,465626.942,8,400,17,,ISIC_3919752.JPG
break,html.Screen,4_116_1,2023-11-03T20:56:09.765Z,,0,,,NaN,,,,,,false,,,,465624.60000000003,465624.60000000003,,465624.3,,465626.942,8,400,,,
break_continue,html.Screen,4_116_2,2023-11-03T20:56:09.765Z,,0,,,NaN,,,,,,false,,,,465624.8,465624.7,,465624.7,,465626.942,8,400,,,
sequence,flow.Sequence,4_116,2023-11-03T20:56:09.766Z,,0,,,2733.4430000000284,completion,,,,,false,,,,465624.89999999997,465624.7,462884.314,462886.6,462891.257,465626.942,8,400,,,
trial,html.Screen,4_117_0,2023-11-03T20:56:12.727Z,,0,3,,2958.957999999984,response,ISIC_0046537.JPG,5,ISIC_0034034.JPG,ISIC_0034034.JPG,false,0,keypress(z),500,468586.10000000003,468585.89999999997,465619.815,465624.89999999997,465626.942,468592.357,8,400,18,,ISIC_0046537.JPG
break,html.Screen,4_117_1,2023-11-03T20:56:12.727Z,,0,,,NaN,,,,,,false,,,,468586.49999999994,468586.39999999997,,468586.2,,468592.357,8,400,,,
break_continue,html.Screen,4_117_2,2023-11-03T20:56:12.727Z,,0,,,NaN,,,,,,false,,,,468586.7,468586.60000000003,,468586.60000000003,,468592.357,8,400,,,
sequence,flow.Sequence,4_117,2023-11-03T20:56:12.727Z,,0,,,2959.658000000054,completion,,,,,false,,,,468586.7,468586.60000000003,465619.815,465624.89999999997,465626.942,468592.357,8,400,,,
trial,html.Screen,4_118_0,2023-11-03T20:56:15.304Z,,0,3,,2571.3429999999935,response,ISIC_0029581.JPG,4,ISIC_0025265.JPG,ISIC_0025265.JPG,false,0,keypress(z),500,471163.8,471163.7,468585.119,468586.7,468592.357,471168.709,8,400,19,,ISIC_0029581.JPG
break,html.Screen,4_118_1,2023-11-03T20:56:15.305Z,,0,,,NaN,,,,,,false,,,,471164.2,471164.10000000003,,471163.89999999997,,471168.709,8,400,,,
break_continue,html.Screen,4_118_2,2023-11-03T20:56:15.305Z,,0,,,NaN,,,,,,false,,,,471164.39999999997,471164.3,,471164.2,,471168.709,8,400,,,
sequence,flow.Sequence,4_118,2023-11-03T20:56:15.305Z,,0,,,2571.94299999997,completion,,,,,false,,,,471164.49999999994,471164.3,468585.119,468586.7,468592.357,471168.709,8,400,,,
trial,html.Screen,4_119_0,2023-11-03T20:56:18.698Z,,0,3,,3388.7909999999683,response,ISIC_0072826.JPG,5,ISIC_0046596.JPG,ISIC_0046596.JPG,false,0,keypress(z),500,474557.60000000003,474557.49999999994,471161.765,471164.49999999994,471168.709,474564.554,8,400,20,,ISIC_0072826.JPG
break,html.Screen,4_119_1,2023-11-03T20:56:18.699Z,,0,,,NaN,,,,,,false,,,,474558.2,474558.10000000003,,474557.8,,474564.554,8,400,,,
break_continue,html.Screen,4_119_2,2023-11-03T20:56:18.699Z,,0,,,NaN,,,,,,false,,,,474558.39999999997,474558.39999999997,,474558.3,,474564.554,8,400,,,
sequence,flow.Sequence,4_119,2023-11-03T20:56:18.699Z,,0,,,3389.6909999999916,completion,,,,,false,,,,474558.49999999994,474558.39999999997,471161.765,471164.49999999994,471168.709,474564.554,8,400,,,
trial,html.Screen,4_120_0,2023-11-03T20:56:21.421Z,,0,3,,2715.146000000008,response,ISIC_0061164.JPG,5,ISIC_0031401.JPG,ISIC_0061164.JPG,false,1,keypress(m),500,477279.8,477279.7,474557.573,474558.49999999994,474564.554,477286.849,8,400,21,,ISIC_0031401.JPG
break,html.Screen,4_120_1,2023-11-03T20:56:21.421Z,,0,,,NaN,,,,,,false,,,,477280.2,477280.10000000003,,477279.99999999994,,477286.849,8,400,,,
break_continue,html.Screen,4_120_2,2023-11-03T20:56:21.421Z,,0,,,NaN,,,,,,false,,,,477280.39999999997,477280.39999999997,,477280.3,,477286.849,8,400,,,
sequence,flow.Sequence,4_120,2023-11-03T20:56:21.421Z,,0,,,2715.8459999999614,completion,,,,,false,,,,477280.49999999994,477280.39999999997,474557.573,474558.49999999994,474564.554,477286.849,8,400,,,
trial,html.Screen,4_121_0,2023-11-03T20:56:24.431Z,,0,3,,3002.951000000001,response,ISIC_5602724.JPG,6,ISIC_5049165.JPG,ISIC_5602724.JPG,false,1,keypress(m),500,480289.99999999994,480289.8,477279.78,477280.49999999994,477286.849,480293.916,8,400,22,,ISIC_5049165.JPG
break,html.Screen,4_121_1,2023-11-03T20:56:24.431Z,,0,,,NaN,,,,,,false,,,,480290.39999999997,480290.3,,480290.10000000003,,480293.916,8,400,,,
break_continue,html.Screen,4_121_2,2023-11-03T20:56:24.431Z,,0,,,NaN,,,,,,false,,,,480290.49999999994,480290.39999999997,,480290.39999999997,,480293.916,8,400,,,
sequence,flow.Sequence,4_121,2023-11-03T20:56:24.431Z,,0,,,3003.5509999999776,completion,,,,,false,,,,480290.60000000003,480290.39999999997,477279.78,477280.49999999994,477286.849,480293.916,8,400,,,
trial,html.Screen,4_122_0,2023-11-03T20:56:32.736Z,,0,3,,8301.583999999915,response,ISIC_5315486.JPG,5,ISIC_0031548.JPG,ISIC_5315486.JPG,false,1,keypress(m),500,488595.7,488595.49999999994,480286.727,480290.7,480293.916,488599.33,8,400,23,,ISIC_0031548.JPG
break,html.Screen,4_122_1,2023-11-03T20:56:32.737Z,,0,,,NaN,,,,,,false,,,,488596.2,488596.2,,488595.89999999997,,488599.33,8,400,,,
break_continue,html.Screen,4_122_2,2023-11-03T20:56:32.737Z,,0,,,NaN,,,,,,false,,,,488596.49999999994,488596.39999999997,,488596.3,,488599.33,8,400,,,
sequence,flow.Sequence,4_122,2023-11-03T20:56:32.737Z,,0,,,8302.483999999939,completion,,,,,false,,,,488596.60000000003,488596.39999999997,480286.727,480290.7,480293.916,488599.33,8,400,,,
trial,html.Screen,4_123_0,2023-11-03T20:56:36.067Z,,0,3,,3326.469999999972,response,ISIC_9019691.JPG,4,ISIC_4018813.JPG,ISIC_9019691.JPG,false,1,keypress(m),500,491925.99999999994,491925.8,488592.387,488596.60000000003,488599.33,491932.965,8,400,24,,ISIC_4018813.JPG
break,html.Screen,4_123_1,2023-11-03T20:56:36.068Z,,0,,,NaN,,,,,,false,,,,491927.10000000003,491926.39999999997,,491926.10000000003,,491932.965,8,400,,,
break_continue,html.Screen,4_123_2,2023-11-03T20:56:36.068Z,,0,,,NaN,,,,,,false,,,,491927.3,491927.2,,491927.2,,491932.965,8,400,,,
sequence,flow.Sequence,4_123,2023-11-03T20:56:36.068Z,,0,,,3327.8699999999953,completion,,,,,false,,,,491927.39999999997,491927.2,488592.387,488596.60000000003,488599.33,491932.965,8,400,,,
trial,html.Screen,4_124_0,2023-11-03T20:56:38.613Z,,0,3,,2539.234999999986,response,ISIC_0905367.JPG,5,ISIC_0029459.JPG,ISIC_0029459.JPG,false,0,keypress(z),500,494472.39999999997,494472.2,491925.962,491927.49999999994,491932.965,494474.56,8,400,25,,ISIC_0905367.JPG
break,html.Screen,4_124_1,2023-11-03T20:56:38.613Z,,0,,,NaN,,,,,,false,,,,494472.8,494472.8,,494472.39999999997,,494474.56,8,400,,,
break_continue,html.Screen,4_124_2,2023-11-03T20:56:38.614Z,,0,,,NaN,,,,,,false,,,,494472.99999999994,494472.99999999994,,494472.89999999997,,494474.56,8,400,,,
sequence,flow.Sequence,4_124,2023-11-03T20:56:38.614Z,,0,,,2540.034999999916,completion,,,,,false,,,,494473.10000000003,494472.99999999994,491925.962,491927.49999999994,491932.965,494474.56,8,400,,,
trial,html.Screen,4_125_0,2023-11-03T20:56:41.079Z,,0,3,,2464.0400000000373,response,ISIC_0034144.JPG,5,ISIC_0027411.JPG,ISIC_0034144.JPG,false,1,keypress(m),500,496938.8,496938.60000000003,494467.617,494473.10000000003,494474.56,496939.874,8,400,26,,ISIC_0027411.JPG
break,html.Screen,4_125_1,2023-11-03T20:56:41.080Z,,0,,,NaN,,,,,,false,,,,496939.3,496939.10000000003,,496938.89999999997,,496939.874,8,400,,,
break_continue,html.Screen,4_125_2,2023-11-03T20:56:41.080Z,,0,,,NaN,,,,,,false,,,,496939.39999999997,496939.39999999997,,496939.3,,496939.874,8,400,,,
sequence,flow.Sequence,4_125,2023-11-03T20:56:41.080Z,,0,,,2464.8399999999674,completion,,,,,false,,,,496939.49999999994,496939.39999999997,494467.617,494473.10000000003,494474.56,496939.874,8,400,,,
trial,html.Screen,4_126_0,2023-11-03T20:56:43.561Z,,0,3,,2480.326000000001,response,ISIC_7097931.JPG,5,ISIC_0753112.JPG,ISIC_0753112.JPG,false,0,keypress(z),500,499420.3,499420.2,496932.931,496939.60000000003,496939.874,499426.184,8,400,27,,ISIC_7097931.JPG
break,html.Screen,4_126_1,2023-11-03T20:56:43.561Z,,0,,,NaN,,,,,,false,,,,499420.7,499420.60000000003,,499420.39999999997,,499426.184,8,400,,,
break_continue,html.Screen,4_126_2,2023-11-03T20:56:43.561Z,,0,,,NaN,,,,,,false,,,,499420.8,499420.8,,499420.7,,499426.184,8,400,,,
sequence,flow.Sequence,4_126,2023-11-03T20:56:43.562Z,,0,,,2480.9259999999776,completion,,,,,false,,,,499420.8,499420.8,496932.931,496939.60000000003,496939.874,499426.184,8,400,,,
trial,html.Screen,4_127_0,2023-11-03T20:56:46.715Z,,0,3,,3148.0160000000033,response,ISIC_0003851.JPG,4,ISIC_0029814.JPG,ISIC_0003851.JPG,false,1,keypress(m),500,502574.39999999997,502574.2,499419.24,499420.89999999997,499426.184,502578.943,8,400,28,,ISIC_0029814.JPG
break,html.Screen,4_127_1,2023-11-03T20:56:46.715Z,,0,,,NaN,,,,,,false,,,,502574.8,502574.8,,502574.49999999994,,502578.943,8,400,,,
break_continue,html.Screen,4_127_2,2023-11-03T20:56:46.716Z,,0,,,NaN,,,,,,false,,,,502574.99999999994,502574.89999999997,,502574.89999999997,,502578.943,8,400,,,
sequence,flow.Sequence,4_127,2023-11-03T20:56:46.716Z,,0,,,3148.7159999999567,completion,,,,,false,,,,502574.99999999994,502574.89999999997,499419.24,499420.89999999997,499426.184,502578.943,8,400,,,
trial,html.Screen,4_128_0,2023-11-03T20:56:50.109Z,,0,3,,3388.9569999999367,response,ISIC_6547707.JPG,5,ISIC_1668831.JPG,ISIC_1668831.JPG,false,0,keypress(z),500,505968.10000000003,505967.89999999997,502571.999,502575.10000000003,502578.943,505973.341,8,400,29,,ISIC_6547707.JPG
break,html.Screen,4_128_1,2023-11-03T20:56:50.109Z,,0,,,NaN,,,,,,false,,,,505968.49999999994,505968.49999999994,,505968.2,,505973.341,8,400,,,
break_continue,html.Screen,4_128_2,2023-11-03T20:56:50.109Z,,0,,,NaN,,,,,,false,,,,505968.7,505968.60000000003,,505968.60000000003,,505973.341,8,400,,,
sequence,flow.Sequence,4_128,2023-11-03T20:56:50.109Z,,0,,,3389.6570000000065,completion,,,,,false,,,,505968.8,505968.60000000003,502571.999,502575.10000000003,502578.943,505973.341,8,400,,,
trial,html.Screen,4_129_0,2023-11-03T20:56:52.927Z,,0,3,,2813.05899999995,response,ISIC_8814672.JPG,4,ISIC_0033300.JPG,ISIC_8814672.JPG,false,1,keypress(m),500,508786.7,508786.39999999997,505966.398,505968.8,505973.341,508787.23,8,400,30,,ISIC_0033300.JPG
break,html.Screen,4_129_1,2023-11-03T20:56:52.928Z,,0,,,NaN,,,,,,false,,,,508787.10000000003,508787.10000000003,,508786.8,,508787.23,8,400,,,
break_continue,html.Screen,4_129_2,2023-11-03T20:56:52.928Z,,0,,,NaN,,,,,,false,,,,508787.3,508787.3,,508787.2,,508787.23,8,400,,,
sequence,flow.Sequence,4_129,2023-11-03T20:56:52.928Z,,0,,,2813.9589999999735,completion,,,,,false,,,,508787.39999999997,508787.3,505966.398,505968.8,505973.341,508787.23,8,400,,,
trial,html.Screen,4_130_0,2023-11-03T20:56:55.810Z,,0,3,,2881.9700000000303,response,ISIC_1175776.JPG,5,ISIC_0046917.JPG,ISIC_1175776.JPG,false,1,keypress(m),500,511669.39999999997,511669.2,508780.287,508787.49999999994,508787.23,511676.363,8,400,31,,ISIC_0046917.JPG
break,html.Screen,4_130_1,2023-11-03T20:56:55.810Z,,0,,,NaN,,,,,,false,,,,511669.89999999997,511669.7,,511669.49999999994,,511676.363,8,400,,,
break_continue,html.Screen,4_130_2,2023-11-03T20:56:55.811Z,,0,,,NaN,,,,,,false,,,,511669.99999999994,511669.99999999994,,511669.89999999997,,511676.363,8,400,,,
sequence,flow.Sequence,4_130,2023-11-03T20:56:55.811Z,,0,,,2882.7699999999604,completion,,,,,false,,,,511670.10000000003,511669.99999999994,508780.287,508787.39999999997,508787.23,511676.363,8,400,,,
trial,html.Screen,4_131_0,2023-11-03T20:57:00.068Z,,0,3,,4251.036999999953,response,ISIC_8752021.JPG,5,ISIC_7466678.JPG,ISIC_8752021.JPG,false,1,keypress(m),500,515927.49999999994,515927.39999999997,511669.419,511670.10000000003,511676.363,515934.418,8,400,32,,ISIC_7466678.JPG
break,html.Screen,4_131_1,2023-11-03T20:57:00.069Z,,0,,,NaN,,,,,,false,,,,515927.89999999997,515927.89999999997,,515927.60000000003,,515934.418,8,400,,,
break_continue,html.Screen,4_131_2,2023-11-03T20:57:00.069Z,,0,,,NaN,,,,,,false,,,,515928.10000000003,515928.10000000003,,515927.99999999994,,515934.418,8,400,,,
sequence,flow.Sequence,4_131,2023-11-03T20:57:00.069Z,,0,,,4251.737000000023,completion,,,,,false,,,,515928.10000000003,515928.10000000003,511669.419,511670.10000000003,511676.363,515934.418,8,400,,,
trial,html.Screen,4_132_0,2023-11-03T20:57:02.806Z,,0,3,,2730.3819999999832,response,ISIC_5275138.JPG,4,ISIC_1644520.JPG,ISIC_5275138.JPG,false,1,keypress(m),500,518664.89999999997,518664.8,515927.475,515928.2,515934.418,518676.485,8,400,33,,ISIC_1644520.JPG
break,html.Screen,4_132_1,2023-11-03T20:57:02.806Z,,0,,,NaN,,,,,,false,,,,518665.2,518665.2,,518664.99999999994,,518676.485,8,400,,,
break_continue,html.Screen,4_132_2,2023-11-03T20:57:02.806Z,,0,,,NaN,,,,,,false,,,,518665.39999999997,518665.39999999997,,518665.39999999997,,518676.485,8,400,,,
sequence,flow.Sequence,4_132,2023-11-03T20:57:02.806Z,,0,,,2730.98199999996,completion,,,,,false,,,,518665.49999999994,518665.39999999997,515927.475,515928.2,515934.418,518676.485,8,400,,,
trial,html.Screen,4_133_0,2023-11-03T20:57:06.103Z,,0,3,,3285.7150000000256,response,ISIC_0013861.JPG,5,ISIC_0060297.JPG,ISIC_0013861.JPG,false,1,keypress(m),500,521962.39999999997,521962.2,518669.356,518665.60000000003,518676.485,521967.921,8,400,34,,ISIC_0060297.JPG
break,html.Screen,4_133_1,2023-11-03T20:57:06.103Z,,0,,,NaN,,,,,,false,,,,521962.8,521962.7,,521962.49999999994,,521967.921,8,400,,,
break_continue,html.Screen,4_133_2,2023-11-03T20:57:06.104Z,,0,,,NaN,,,,,,false,,,,521962.99999999994,521962.89999999997,,521962.89999999997,,521967.921,8,400,,,
sequence,flow.Sequence,4_133,2023-11-03T20:57:06.104Z,,0,,,3286.414999999979,completion,,,,,false,,,,521963.10000000003,521962.89999999997,518669.356,518665.60000000003,518676.485,521967.921,8,400,,,
trial,html.Screen,4_134_0,2023-11-03T20:57:09.497Z,,0,3,,3388.279000000097,response,ISIC_5718805.JPG,5,ISIC_0055701.JPG,ISIC_5718805.JPG,false,1,keypress(m),500,525356.4,525356.2000000001,521960.978,521963.10000000003,521967.921,525357.137,8,400,35,,ISIC_0055701.JPG
