sender,sender_type,sender_id,timestamp,meta,,blockNo,condition,duration,ended_on,img_left,img_reveal,img_right,loser,practice,response,response_action,selection_duration,time_commit,time_end,time_render,time_run,time_show,time_switch,total_blocks,total_trials,trialNo,url,winner
informed_consent,html.Screen,0,2023-11-01T15:55:36.616Z,"{""labjs_version"":""20.2.4"",""labjs_build"":{""flavor"":""production"",""commit"":""f5b4a49f956347addd546a832a3327688c2c0fef""},""location"":""https://run.pavlovia.org/MurrayBennett/melanoma-2afc/?participant=65625&platform=sona"",""userAgent"":""Mozilla/5.0 (Windows NT 10.0; Win64; x64) AppleWebKit/537.36 (KHTML, like Gecko) Chrome/118.0.0.0 Safari/537.36 Edg/118.0.2088.76"",""platform"":""Win32"",""language"":""en-US"",""locale"":""en-US"",""timeZone"":""America/Chicago"",""timezoneOffset"":300,""screen_width"":1536,""screen_height"":864,""scroll_width"":1528,""scroll_height"":682,""window_innerWidth"":1528,""window_innerHeight"":730,""devicePixelRatio"":1.25}",,,,7891.593999999954,response,,,,,,consent,click button,,9901.800000000047,9900.699999999953,1742.523,2001.6999999999534,2009.106,9908.974,,,,"{""participant"":""65625"",""platform"":""sona""}",
Welcome,html.Screen,1,2023-11-01T15:55:47.433Z,,,,uniform,10807.12599999986,response,,,,,,continue,click button,,20718.399999999907,20716.09999999986,9892.341,9902.09999999986,9908.974,20726.307,,,,,
trial,html.Screen,2_0_0,2023-11-01T15:55:57.461Z,,0,0,,10019.993000000046,response,ISIC_0025593.JPG,,ISIC_0063388.JPG,ISIC_0025593.JPG,true,1,keypress(m),500,30746.59999999986,30746.300000000047,20708.481,20718.699999999953,20726.307,30762.642,1,6,1,,ISIC_0063388.JPG
sequence,flow.Sequence,2_0,2023-11-01T15:55:57.461Z,,0,,,10019.993000000046,completion,,,,,true,,,,30746.899999999907,30746.300000000047,20708.481,20718.699999999953,20726.307,30762.642,1,6,,,
trial,html.Screen,2_1_0,2023-11-01T15:56:02.190Z,,0,0,,4712.757999999907,response,ISIC_0028178.JPG,,ISIC_1309015.JPG,ISIC_1309015.JPG,true,0,keypress(z),500,35476,35475.39999999991,30741.668,30746.899999999907,30762.642,35491.436,1,6,2,,ISIC_0028178.JPG
sequence,flow.Sequence,2_1,2023-11-01T15:56:02.191Z,,0,,,4712.757999999907,completion,,,,,true,,,,35476.39999999991,35475.39999999991,30741.668,30746.899999999907,30762.642,35491.436,1,6,,,
trial,html.Screen,2_2_0,2023-11-01T15:56:05.813Z,,0,0,,3605.763999999952,response,ISIC_3314853.JPG,,ISIC_0031128.JPG,ISIC_0031128.JPG,true,0,keypress(z),500,39098.59999999986,39097.19999999995,35474.531,35476.80000000005,35491.436,39139.777,1,6,3,,ISIC_3314853.JPG
sequence,flow.Sequence,2_2,2023-11-01T15:56:05.813Z,,0,,,3605.763999999952,completion,,,,,true,,,,39099.09999999986,39097.19999999995,35474.531,35476.59999999986,35491.436,39139.777,1,6,,,
trial,html.Screen,2_3_0,2023-11-01T15:56:09.598Z,,0,0,,3744.0230000000447,response,ISIC_8980141.JPG,,ISIC_0031612.JPG,ISIC_0031612.JPG,true,0,keypress(z),500,42884,42883.80000000005,39095.575,39099.39999999991,39139.777,42891.568,1,6,4,,ISIC_8980141.JPG
sequence,flow.Sequence,2_3,2023-11-01T15:56:09.598Z,,0,,,3744.0230000000447,completion,,,,,true,,,,42884.30000000005,42883.80000000005,39095.575,39099.30000000005,39139.777,42891.568,1,6,,,
trial,html.Screen,2_4_0,2023-11-01T15:56:13.013Z,,0,0,,3406.631999999954,response,ISIC_9721604.JPG,,ISIC_1197737.JPG,ISIC_9721604.JPG,true,1,keypress(m),500,46298.5,46298.19999999995,42871.581,42884.39999999991,42891.568,46339.878,1,6,5,,ISIC_1197737.JPG
sequence,flow.Sequence,2_4,2023-11-01T15:56:13.013Z,,0,,,3406.631999999954,completion,,,,,true,,,,46298.69999999995,46298.19999999995,42871.581,42884.39999999991,42891.568,46339.878,1,6,,,
trial,html.Screen,2_5_0,2023-11-01T15:56:16.573Z,,0,0,,3518.8219999999565,response,ISIC_0010681.JPG,,ISIC_0025346.JPG,ISIC_0025346.JPG,true,0,keypress(z),500,49859,49858.69999999995,46297.828,46298.89999999991,46339.878,49906.927,1,6,6,,ISIC_0010681.JPG
sequence,flow.Sequence,2_5,2023-11-01T15:56:16.573Z,,0,,,3518.8219999999565,completion,,,,,true,,,,49859.19999999995,49858.69999999995,46297.828,46298.80000000005,46339.878,49906.927,1,6,,,
loop,flow.Loop,2,2023-11-01T15:56:16.574Z,,,,,29132.392999999953,completion,,,,,true,,,,49859.5,49858.69999999995,20708.481,20718.59999999986,20726.307,49906.927,1,6,,,
exp_instructions,html.Screen,3,2023-11-01T15:56:23.934Z,,,,,7310.472999999904,response,,,,,,continue,keypress(Space),,57219.39999999991,57217.39999999991,49857.993,49859.5,49906.927,57243.801,,,,,
trial,html.Screen,4_0_0,2023-11-01T15:56:27.443Z,,0,1,,3484.798999999861,response,ISIC_9803747.JPG,9,ISIC_0061183.JPG,ISIC_9803747.JPG,false,1,keypress(m),500,60728.80000000005,60728.59999999986,57206.915,57219.59999999986,57243.801,60790.738,8,400,1,,ISIC_0061183.JPG
break,html.Screen,4_0_1,2023-11-01T15:56:27.444Z,,0,,,NaN,,,,,,false,,,,60729.69999999995,60729.5,,60728.89999999991,,60790.738,8,400,,,
break_continue,html.Screen,4_0_2,2023-11-01T15:56:27.444Z,,0,,,NaN,,,,,,false,,,,60730,60729.89999999991,,60729.80000000005,,60790.738,8,400,,,
sequence,flow.Sequence,4_0,2023-11-01T15:56:27.444Z,,0,,,3486.0989999999074,completion,,,,,false,,,,60730.09999999986,60729.89999999991,57206.915,57219.59999999986,57243.801,60790.738,8,400,,,
trial,html.Screen,4_1_0,2023-11-01T15:56:30.553Z,,0,1,,3047.461999999956,response,ISIC_0031013.JPG,32,ISIC_0024891.JPG,ISIC_0031013.JPG,false,1,keypress(m),500,63838.5,63838.19999999995,60724.033,60730.19999999995,60790.738,63888.409,8,400,2,,ISIC_0024891.JPG
break,html.Screen,4_1_1,2023-11-01T15:56:30.554Z,,0,,,NaN,,,,,,false,,,,63839.09999999986,63839,,63838.59999999986,,63888.409,8,400,,,
break_continue,html.Screen,4_1_2,2023-11-01T15:56:30.554Z,,0,,,NaN,,,,,,false,,,,63839.30000000005,63839.30000000005,,63839.30000000005,,63888.409,8,400,,,
sequence,flow.Sequence,4_1,2023-11-01T15:56:30.554Z,,0,,,3048.562000000049,completion,,,,,false,,,,63839.5,63839.30000000005,60724.033,60730.19999999995,60790.738,63888.409,8,400,,,
trial,html.Screen,4_2_0,2023-11-01T15:56:33.565Z,,0,1,,2961.1909999998607,response,ISIC_0032747.JPG,12,ISIC_0033152.JPG,ISIC_0032747.JPG,false,1,keypress(m),500,66849.80000000005,66849.59999999986,63837.72,63839.59999999986,63888.409,66873.728,8,400,3,,ISIC_0033152.JPG
break,html.Screen,4_2_1,2023-11-01T15:56:33.565Z,,0,,,NaN,,,,,,false,,,,66850.30000000005,66850.19999999995,,66849.80000000005,,66873.728,8,400,,,
break_continue,html.Screen,4_2_2,2023-11-01T15:56:33.566Z,,0,,,NaN,,,,,,false,,,,66851.19999999995,66851.09999999986,,66851,,66873.728,8,400,,,
sequence,flow.Sequence,4_2,2023-11-01T15:56:33.566Z,,0,,,2962.6909999998607,completion,,,,,false,,,,66851.30000000005,66851.09999999986,63837.72,63839.5,63888.409,66873.728,8,400,,,
trial,html.Screen,4_3_0,2023-11-01T15:56:37.095Z,,0,1,,3506.3719999998575,response,ISIC_0033073.JPG,27,ISIC_9870885.JPG,ISIC_9870885.JPG,false,0,keypress(z),500,70380.3999999999,70380.09999999986,66841.09,66851.30000000005,66873.728,70428.287,8,400,4,,ISIC_0033073.JPG
break,html.Screen,4_3_1,2023-11-01T15:56:37.096Z,,0,,,NaN,,,,,,false,,,,70381.30000000005,70381.19999999995,,70380.5,,70428.287,8,400,,,
break_continue,html.Screen,4_3_2,2023-11-01T15:56:37.096Z,,0,,,NaN,,,,,,false,,,,70381.59999999986,70381.5,,70381.3999999999,,70428.287,8,400,,,
sequence,flow.Sequence,4_3,2023-11-01T15:56:37.097Z,,0,,,3507.771999999997,completion,,,,,false,,,,70381.80000000005,70381.5,66841.09,66851.30000000005,66873.728,70428.287,8,400,,,
trial,html.Screen,4_4_0,2023-11-01T15:56:40.896Z,,0,1,,3752.51300000005,response,ISIC_8742407.JPG,8,ISIC_4603706.JPG,ISIC_8742407.JPG,false,1,keypress(m),500,74181,74180.80000000005,70373.725,70381.8999999999,70428.287,74191.031,8,400,5,,ISIC_4603706.JPG
break,html.Screen,4_4_1,2023-11-01T15:56:40.897Z,,0,,,NaN,,,,,,false,,,,74181.80000000005,74181.59999999986,,74181.19999999995,,74191.031,8,400,,,
break_continue,html.Screen,4_4_2,2023-11-01T15:56:40.897Z,,0,,,NaN,,,,,,false,,,,74182,74182,,74181.8999999999,,74191.031,8,400,,,
sequence,flow.Sequence,4_4,2023-11-01T15:56:40.897Z,,0,,,3753.7130000000034,completion,,,,,false,,,,74182.19999999995,74182,70373.725,70381.80000000005,70428.287,74191.031,8,400,,,
trial,html.Screen,4_5_0,2023-11-01T15:56:44.938Z,,0,1,,4031.769000000044,response,ISIC_0033950.JPG,12,ISIC_8135931.JPG,ISIC_8135931.JPG,false,0,keypress(z),500,78223,78222.80000000005,74174.152,74182.30000000005,74191.031,78257.11,8,400,6,,ISIC_0033950.JPG
break,html.Screen,4_5_1,2023-11-01T15:56:44.939Z,,0,,,NaN,,,,,,false,,,,78223.69999999995,78223.59999999986,,78223.09999999986,,78257.11,8,400,,,
break_continue,html.Screen,4_5_2,2023-11-01T15:56:44.939Z,,0,,,NaN,,,,,,false,,,,78224,78223.8999999999,,78223.80000000005,,78257.11,8,400,,,
sequence,flow.Sequence,4_5,2023-11-01T15:56:44.939Z,,0,,,4032.868999999904,completion,,,,,false,,,,78224.09999999986,78223.8999999999,74174.152,74182.30000000005,74191.031,78257.11,8,400,,,
trial,html.Screen,4_6_0,2023-11-01T15:56:48.705Z,,0,1,,3733.089999999953,response,ISIC_0015115.JPG,11,ISIC_6416533.JPG,ISIC_6416533.JPG,false,0,keypress(z),500,81990.3999999999,81990.19999999995,78222.847,78224.19999999995,78257.11,82037.85,8,400,7,,ISIC_0015115.JPG
break,html.Screen,4_6_1,2023-11-01T15:56:48.706Z,,0,,,NaN,,,,,,false,,,,81991.19999999995,81991,,81990.59999999986,,82037.85,8,400,,,
break_continue,html.Screen,4_6_2,2023-11-01T15:56:48.706Z,,0,,,NaN,,,,,,false,,,,81991.5,81991.3999999999,,81991.30000000005,,82037.85,8,400,,,
sequence,flow.Sequence,4_6,2023-11-01T15:56:48.706Z,,0,,,3734.2899999999063,completion,,,,,false,,,,81991.59999999986,81991.3999999999,78222.847,78224.19999999995,78257.11,82037.85,8,400,,,
trial,html.Screen,4_7_0,2023-11-01T15:56:51.772Z,,0,1,,3019.4500000000407,response,ISIC_4606646.JPG,10,ISIC_0034260.JPG,ISIC_4606646.JPG,false,1,keypress(m),500,85057.59999999986,85057.30000000005,81990.286,81991.69999999995,82037.85,85098.831,8,400,8,,ISIC_0034260.JPG
break,html.Screen,4_7_1,2023-11-01T15:56:51.773Z,,0,,,NaN,,,,,,false,,,,85058.30000000005,85058.19999999995,,85057.69999999995,,85098.831,8,400,,,
break_continue,html.Screen,4_7_2,2023-11-01T15:56:51.773Z,,0,,,NaN,,,,,,false,,,,85058.59999999986,85058.5,,85058.3999999999,,85098.831,8,400,,,
sequence,flow.Sequence,4_7,2023-11-01T15:56:51.773Z,,0,,,3020.649999999994,completion,,,,,false,,,,85058.59999999986,85058.5,81990.286,81991.69999999995,82037.85,85098.831,8,400,,,
trial,html.Screen,4_8_0,2023-11-01T15:56:55.177Z,,0,1,,3362.969000000041,response,ISIC_1899683.JPG,11,ISIC_0058428.JPG,ISIC_1899683.JPG,false,1,keypress(m),500,88462.09999999986,88461.80000000005,85056.962,85058.80000000005,85098.831,88475.352,8,400,9,,ISIC_0058428.JPG
break,html.Screen,4_8_1,2023-11-01T15:56:55.178Z,,0,,,NaN,,,,,,false,,,,88463,88462.80000000005,,88462.3999999999,,88475.352,8,400,,,
break_continue,html.Screen,4_8_2,2023-11-01T15:56:55.178Z,,0,,,NaN,,,,,,false,,,,88463.3999999999,88463.30000000005,,88463.09999999986,,88475.352,8,400,,,
sequence,flow.Sequence,4_8,2023-11-01T15:56:55.178Z,,0,,,3364.469000000041,completion,,,,,false,,,,88463.3999999999,88463.30000000005,85056.962,85058.69999999995,85098.831,88475.352,8,400,,,
trial,html.Screen,4_9_0,2023-11-01T15:56:58.494Z,,0,1,,3303.2479999998613,response,ISIC_0071906.JPG,17,ISIC_9308275.JPG,ISIC_9308275.JPG,false,0,keypress(z),500,91778.8999999999,91778.59999999986,88457.018,88463.59999999986,88475.352,91839.781,8,400,10,,ISIC_0071906.JPG
break,html.Screen,4_9_1,2023-11-01T15:56:58.494Z,,0,,,NaN,,,,,,false,,,,91779.59999999986,91779.59999999986,,91779.09999999986,,91839.781,8,400,,,
break_continue,html.Screen,4_9_2,2023-11-01T15:56:58.495Z,,0,,,NaN,,,,,,false,,,,91779.8999999999,91779.8999999999,,91779.80000000005,,91839.781,8,400,,,
sequence,flow.Sequence,4_9,2023-11-01T15:56:58.495Z,,0,,,3304.547999999908,completion,,,,,false,,,,91780,91779.8999999999,88457.018,88463.5,88475.352,91839.781,8,400,,,
trial,html.Screen,4_10_0,2023-11-01T15:57:01.699Z,,0,1,,3143.8189999998576,response,ISIC_0055474.JPG,5,ISIC_0024759.JPG,ISIC_0024759.JPG,false,0,keypress(z),500,94983.8999999999,94983.59999999986,91773.061,91780.19999999995,91839.781,95025.987,8,400,11,,ISIC_0055474.JPG
break,html.Screen,4_10_1,2023-11-01T15:57:01.699Z,,0,,,NaN,,,,,,false,,,,94984.59999999986,94984.5,,94984,,95025.987,8,400,,,
break_continue,html.Screen,4_10_2,2023-11-01T15:57:01.700Z,,0,,,NaN,,,,,,false,,,,94984.8999999999,94984.80000000005,,94984.59999999986,,95025.987,8,400,,,
sequence,flow.Sequence,4_10,2023-11-01T15:57:01.700Z,,0,,,3145.019000000044,completion,,,,,false,,,,94985,94984.80000000005,91773.061,91780.09999999986,91839.781,95025.987,8,400,,,
trial,html.Screen,4_11_0,2023-11-01T15:57:05.003Z,,0,1,,3262.412999999913,response,ISIC_0016127.JPG,3,ISIC_0787229.JPG,ISIC_0787229.JPG,false,0,keypress(z),500,98288.69999999995,98288.3999999999,94989.936,94985.09999999986,95025.987,98356.219,8,400,12,,ISIC_0016127.JPG
break,html.Screen,4_11_1,2023-11-01T15:57:05.004Z,,0,,,NaN,,,,,,false,,,,98289.3999999999,98289.30000000005,,98288.80000000005,,98356.219,8,400,,,
break_continue,html.Screen,4_11_2,2023-11-01T15:57:05.004Z,,0,,,NaN,,,,,,false,,,,98289.59999999986,98289.59999999986,,98289.5,,98356.219,8,400,,,
sequence,flow.Sequence,4_11,2023-11-01T15:57:05.005Z,,0,,,3263.6129999998666,completion,,,,,false,,,,98289.69999999995,98289.59999999986,94989.936,94985.09999999986,95025.987,98356.219,8,400,,,
trial,html.Screen,4_12_0,2023-11-01T15:57:08.389Z,,0,1,,3317.480999999956,response,ISIC_0071681.JPG,10,ISIC_0064557.JPG,ISIC_0064557.JPG,false,0,keypress(z),500,101673.8999999999,101673.69999999995,98289.946,98289.8999999999,98356.219,101715.453,8,400,13,,ISIC_0071681.JPG
break,html.Screen,4_12_1,2023-11-01T15:57:08.389Z,,0,,,NaN,,,,,,false,,,,101674.69999999995,101674.5,,101674.09999999986,,101715.453,8,400,,,
break_continue,html.Screen,4_12_2,2023-11-01T15:57:08.390Z,,0,,,NaN,,,,,,false,,,,101675,101674.8999999999,,101674.80000000005,,101715.453,8,400,,,
sequence,flow.Sequence,4_12,2023-11-01T15:57:08.390Z,,0,,,3318.6809999999095,completion,,,,,false,,,,101675,101674.8999999999,98289.946,98289.80000000005,98356.219,101715.453,8,400,,,
trial,html.Screen,4_13_0,2023-11-01T15:57:11.755Z,,0,1,,3324.946999999913,response,ISIC_8343285.JPG,6,ISIC_5707761.JPG,ISIC_8343285.JPG,false,1,keypress(m),500,105040.69999999995,105040.3999999999,101673.796,101675.19999999995,101715.453,105056.148,8,400,14,,ISIC_5707761.JPG
break,html.Screen,4_13_1,2023-11-01T15:57:11.756Z,,0,,,NaN,,,,,,false,,,,105041.3999999999,105041.30000000005,,105040.80000000005,,105056.148,8,400,,,
break_continue,html.Screen,4_13_2,2023-11-01T15:57:11.756Z,,0,,,NaN,,,,,,false,,,,105041.69999999995,105041.5,,105041.5,,105056.148,8,400,,,
sequence,flow.Sequence,4_13,2023-11-01T15:57:11.757Z,,0,,,3326.047000000006,completion,,,,,false,,,,105041.80000000005,105041.5,101673.796,101675.09999999986,101715.453,105056.148,8,400,,,
trial,html.Screen,4_14_0,2023-11-01T15:57:15.078Z,,0,1,,3306.5519999999524,response,ISIC_0834745.JPG,6,ISIC_1102391.JPG,ISIC_1102391.JPG,false,0,keypress(z),500,108363,108362.69999999995,105023.233,105041.8999999999,105056.148,108404.894,8,400,15,,ISIC_0834745.JPG
break,html.Screen,4_14_1,2023-11-01T15:57:15.078Z,,0,,,NaN,,,,,,false,,,,108363.59999999986,108363.5,,108363.09999999986,,108404.894,8,400,,,
break_continue,html.Screen,4_14_2,2023-11-01T15:57:15.079Z,,0,,,NaN,,,,,,false,,,,108363.8999999999,108363.80000000005,,108363.69999999995,,108404.894,8,400,,,
sequence,flow.Sequence,4_14,2023-11-01T15:57:15.079Z,,0,,,3307.6520000000455,completion,,,,,false,,,,108364,108363.80000000005,105023.233,105041.8999999999,105056.148,108404.894,8,400,,,
trial,html.Screen,4_15_0,2023-11-01T15:57:18.188Z,,0,1,,3067.6059999999998,response,ISIC_0046729.JPG,6,ISIC_9718067.JPG,ISIC_9718067.JPG,false,0,keypress(z),500,111472.69999999995,111472.5,108355.796,108364,108404.894,111529.775,8,400,16,,ISIC_0046729.JPG
break,html.Screen,4_15_1,2023-11-01T15:57:18.188Z,,0,,,NaN,,,,,,false,,,,111473.3999999999,111473.30000000005,,111472.8999999999,,111529.775,8,400,,,
break_continue,html.Screen,4_15_2,2023-11-01T15:57:18.188Z,,0,,,NaN,,,,,,false,,,,111473.59999999986,111473.59999999986,,111473.5,,111529.775,8,400,,,
sequence,flow.Sequence,4_15,2023-11-01T15:57:18.189Z,,0,,,3068.70599999986,completion,,,,,false,,,,111473.80000000005,111473.59999999986,108355.796,108364,108404.894,111529.775,8,400,,,
trial,html.Screen,4_16_0,2023-11-01T15:57:21.249Z,,0,1,,3004.6249999999127,response,ISIC_5422940.JPG,12,ISIC_5994286.JPG,ISIC_5422940.JPG,false,1,keypress(m),500,114534.59999999986,114534.3999999999,111472.715,111473.8999999999,111529.775,114556.271,8,400,17,,ISIC_5994286.JPG
break,html.Screen,4_16_1,2023-11-01T15:57:21.250Z,,0,,,NaN,,,,,,false,,,,114535.19999999995,114535.09999999986,,114534.69999999995,,114556.271,8,400,,,
break_continue,html.Screen,4_16_2,2023-11-01T15:57:21.250Z,,0,,,NaN,,,,,,false,,,,114535.3999999999,114535.3999999999,,114535.30000000005,,114556.271,8,400,,,
sequence,flow.Sequence,4_16,2023-11-01T15:57:21.250Z,,0,,,3005.6249999999127,completion,,,,,false,,,,114535.59999999986,114535.3999999999,111472.715,111473.8999999999,111529.775,114556.271,8,400,,,
trial,html.Screen,4_17_0,2023-11-01T15:57:24.313Z,,0,1,,3041.828999999867,response,ISIC_3361955.JPG,8,ISIC_8068693.JPG,ISIC_3361955.JPG,false,1,keypress(m),500,117598.30000000005,117598.09999999986,114522.895,114535.59999999986,114556.271,117648.887,8,400,18,,ISIC_8068693.JPG
break,html.Screen,4_17_1,2023-11-01T15:57:24.314Z,,0,,,NaN,,,,,,false,,,,117599,117598.8999999999,,117598.5,,117648.887,8,400,,,
break_continue,html.Screen,4_17_2,2023-11-01T15:57:24.314Z,,0,,,NaN,,,,,,false,,,,117599.30000000005,117599.19999999995,,117599.19999999995,,117648.887,8,400,,,
sequence,flow.Sequence,4_17,2023-11-01T15:57:24.314Z,,0,,,3042.92899999996,completion,,,,,false,,,,117599.3999999999,117599.19999999995,114522.895,114535.59999999986,114556.271,117648.887,8,400,,,
trial,html.Screen,4_18_0,2023-11-01T15:57:27.363Z,,0,1,,2999.6129999999976,response,ISIC_0009971.JPG,10,ISIC_0030447.JPG,ISIC_0009971.JPG,false,1,keypress(m),500,120648.59999999986,120648.5,117589.426,117599.5,117648.887,120674.752,8,400,19,,ISIC_0030447.JPG
break,html.Screen,4_18_1,2023-11-01T15:57:27.364Z,,0,,,NaN,,,,,,false,,,,120649.30000000005,120649.19999999995,,120648.80000000005,,120674.752,8,400,,,
break_continue,html.Screen,4_18_2,2023-11-01T15:57:27.364Z,,0,,,NaN,,,,,,false,,,,120649.5,120649.5,,120649.3999999999,,120674.752,8,400,,,
sequence,flow.Sequence,4_18,2023-11-01T15:57:27.364Z,,0,,,3000.6129999999976,completion,,,,,false,,,,120649.69999999995,120649.5,117589.426,117599.3999999999,117648.887,120674.752,8,400,,,
trial,html.Screen,4_19_0,2023-11-01T15:57:30.684Z,,0,1,,3293.847999999867,response,ISIC_0060321.JPG,20,ISIC_2882945.JPG,ISIC_2882945.JPG,false,0,keypress(z),500,123968.80000000005,123968.59999999986,120638.371,120649.80000000005,120674.752,123989.297,8,400,20,,ISIC_0060321.JPG
break,html.Screen,4_19_1,2023-11-01T15:57:30.684Z,,0,,,NaN,,,,,,false,,,,123969.3999999999,123969.3999999999,,123968.8999999999,,123989.297,8,400,,,
break_continue,html.Screen,4_19_2,2023-11-01T15:57:30.685Z,,0,,,NaN,,,,,,false,,,,123969.69999999995,123969.69999999995,,123969.5,,123989.297,8,400,,,
sequence,flow.Sequence,4_19,2023-11-01T15:57:30.685Z,,0,,,3294.9479999999603,completion,,,,,false,,,,123969.80000000005,123969.69999999995,120638.371,120649.80000000005,120674.752,123989.297,8,400,,,
trial,html.Screen,4_20_0,2023-11-01T15:57:33.928Z,,0,1,,3223.8029999998544,response,ISIC_6032520.JPG,11,ISIC_0014666.JPG,ISIC_6032520.JPG,false,1,keypress(m),500,127213.19999999995,127213.09999999986,123956.089,123969.8999999999,123989.297,127244.253,8,400,21,,ISIC_0014666.JPG
break,html.Screen,4_20_1,2023-11-01T15:57:33.929Z,,0,,,NaN,,,,,,false,,,,127213.8999999999,127213.69999999995,,127213.3999999999,,127244.253,8,400,,,
break_continue,html.Screen,4_20_2,2023-11-01T15:57:33.929Z,,0,,,NaN,,,,,,false,,,,127214,127214,,127214,,127244.253,8,400,,,
sequence,flow.Sequence,4_20,2023-11-01T15:57:33.929Z,,0,,,3224.702999999994,completion,,,,,false,,,,127214.19999999995,127214,123956.089,123969.8999999999,123989.297,127244.253,8,400,,,
trial,html.Screen,4_21_0,2023-11-01T15:57:36.973Z,,0,1,,3013.4469999999565,response,ISIC_0029744.JPG,21,ISIC_1394786.JPG,ISIC_1394786.JPG,false,0,keypress(z),500,130257.8999999999,130257.69999999995,127205.716,127214.19999999995,127244.253,130321.858,8,400,22,,ISIC_0029744.JPG
break,html.Screen,4_21_1,2023-11-01T15:57:36.973Z,,0,,,NaN,,,,,,false,,,,130258.59999999986,130258.5,,130258.09999999986,,130321.858,8,400,,,
break_continue,html.Screen,4_21_2,2023-11-01T15:57:36.974Z,,0,,,NaN,,,,,,false,,,,130258.8999999999,130258.8999999999,,130258.69999999995,,130321.858,8,400,,,
sequence,flow.Sequence,4_21,2023-11-01T15:57:36.974Z,,0,,,3014.64699999991,completion,,,,,false,,,,130259,130258.8999999999,127205.716,127214.19999999995,127244.253,130321.858,8,400,,,
trial,html.Screen,4_22_0,2023-11-01T15:57:40.272Z,,0,1,,3235.541999999914,response,ISIC_0033708.JPG,11,ISIC_8340256.JPG,ISIC_8340256.JPG,false,0,keypress(z),500,133557.59999999986,133557.3999999999,130254.931,130259.19999999995,130321.858,133609.834,8,400,23,,ISIC_0033708.JPG
break,html.Screen,4_22_1,2023-11-01T15:57:40.273Z,,0,,,NaN,,,,,,false,,,,133558.30000000005,133558.19999999995,,133557.80000000005,,133609.834,8,400,,,
break_continue,html.Screen,4_22_2,2023-11-01T15:57:40.273Z,,0,,,NaN,,,,,,false,,,,133558.59999999986,133558.59999999986,,133558.3999999999,,133609.834,8,400,,,
sequence,flow.Sequence,4_22,2023-11-01T15:57:40.274Z,,0,,,3236.7419999998674,completion,,,,,false,,,,133558.69999999995,133558.59999999986,130254.931,130259.19999999995,130321.858,133609.834,8,400,,,
trial,html.Screen,4_23_0,2023-11-01T15:57:44.084Z,,0,1,,3758.865999999951,response,ISIC_4724660.JPG,11,ISIC_1308081.JPG,ISIC_4724660.JPG,false,1,keypress(m),500,137368.8999999999,137368.69999999995,133554.633,133558.80000000005,133609.834,137407.515,8,400,24,,ISIC_1308081.JPG
break,html.Screen,4_23_1,2023-11-01T15:57:44.085Z,,0,,,NaN,,,,,,false,,,,137369.69999999995,137369.5,,137369.09999999986,,137407.515,8,400,,,
break_continue,html.Screen,4_23_2,2023-11-01T15:57:44.085Z,,0,,,NaN,,,,,,false,,,,137370,137369.8999999999,,137369.80000000005,,137407.515,8,400,,,
sequence,flow.Sequence,4_23,2023-11-01T15:57:44.085Z,,0,,,3760.0659999999043,completion,,,,,false,,,,137370.09999999986,137369.8999999999,133554.633,133558.80000000005,133609.834,137407.515,8,400,,,
trial,html.Screen,4_24_0,2023-11-01T15:57:47.613Z,,0,1,,3490.5849999998463,response,ISIC_0030817.JPG,8,ISIC_0032492.JPG,ISIC_0032492.JPG,false,0,keypress(z),500,140898.30000000005,140898.09999999986,137388.888,137370.09999999986,137407.515,140958.601,8,400,25,,ISIC_0030817.JPG
break,html.Screen,4_24_1,2023-11-01T15:57:47.614Z,,0,,,NaN,,,,,,false,,,,140899,140898.8999999999,,140898.5,,140958.601,8,400,,,
break_continue,html.Screen,4_24_2,2023-11-01T15:57:47.614Z,,0,,,NaN,,,,,,false,,,,140899.30000000005,140899.19999999995,,140899.09999999986,,140958.601,8,400,,,
sequence,flow.Sequence,4_24,2023-11-01T15:57:47.614Z,,0,,,3491.6849999999395,completion,,,,,false,,,,140899.3999999999,140899.19999999995,137388.888,137370.09999999986,137407.515,140958.601,8,400,,,
trial,html.Screen,4_25_0,2023-11-01T15:57:50.740Z,,0,1,,3066.498999999865,response,ISIC_8543040.JPG,18,ISIC_5595054.JPG,ISIC_8543040.JPG,false,1,keypress(m),500,144025.30000000005,144025.09999999986,140888.632,140899.5,140958.601,144088.134,8,400,26,,ISIC_5595054.JPG
break,html.Screen,4_25_1,2023-11-01T15:57:50.741Z,,0,,,NaN,,,,,,false,,,,144026,144025.8999999999,,144025.3999999999,,144088.134,8,400,,,
break_continue,html.Screen,4_25_2,2023-11-01T15:57:50.741Z,,0,,,NaN,,,,,,false,,,,144026.19999999995,144026.19999999995,,144026.09999999986,,144088.134,8,400,,,
sequence,flow.Sequence,4_25,2023-11-01T15:57:50.741Z,,0,,,3067.5989999999583,completion,,,,,false,,,,144026.30000000005,144026.19999999995,140888.632,140899.5,140958.601,144088.134,8,400,,,
trial,html.Screen,4_26_0,2023-11-01T15:57:53.851Z,,0,1,,3048.1660000000556,response,ISIC_7172145.JPG,9,ISIC_1628539.JPG,ISIC_7172145.JPG,false,1,keypress(m),500,147136.59999999986,147136.30000000005,144021.383,144026.3999999999,144088.134,147170.47,8,400,27,,ISIC_1628539.JPG
break,html.Screen,4_26_1,2023-11-01T15:57:53.852Z,,0,,,NaN,,,,,,false,,,,147137.30000000005,147137.19999999995,,147136.80000000005,,147170.47,8,400,,,
break_continue,html.Screen,4_26_2,2023-11-01T15:57:53.852Z,,0,,,NaN,,,,,,false,,,,147137.5,147137.5,,147137.3999999999,,147170.47,8,400,,,
sequence,flow.Sequence,4_26,2023-11-01T15:57:53.853Z,,0,,,3049.366000000009,completion,,,,,false,,,,147137.69999999995,147137.5,144021.383,144026.30000000005,144088.134,147170.47,8,400,,,
trial,html.Screen,4_27_0,2023-11-01T15:57:57.022Z,,0,1,,3136.9299999999057,response,ISIC_3909443.JPG,18,ISIC_0062709.JPG,ISIC_0062709.JPG,false,0,keypress(z),500,150307.59999999986,150307.3999999999,147137.781,147137.80000000005,147170.47,150349.948,8,400,28,,ISIC_3909443.JPG
break,html.Screen,4_27_1,2023-11-01T15:57:57.023Z,,0,,,NaN,,,,,,false,,,,150308.30000000005,150308.19999999995,,150307.69999999995,,150349.948,8,400,,,
break_continue,html.Screen,4_27_2,2023-11-01T15:57:57.023Z,,0,,,NaN,,,,,,false,,,,150308.5,150308.3999999999,,150308.3999999999,,150349.948,8,400,,,
sequence,flow.Sequence,4_27,2023-11-01T15:57:57.023Z,,0,,,3137.9299999999057,completion,,,,,false,,,,150308.5,150308.3999999999,147137.781,147137.80000000005,147170.47,150349.948,8,400,,,
trial,html.Screen,4_28_0,2023-11-01T15:58:00.295Z,,0,1,,3230.2519999999495,response,ISIC_2458609.JPG,12,ISIC_0058315.JPG,ISIC_0058315.JPG,false,0,keypress(z),500,153580.3999999999,153580.19999999995,150305.111,150308.59999999986,150349.948,153614.329,8,400,29,,ISIC_2458609.JPG
break,html.Screen,4_28_1,2023-11-01T15:58:00.296Z,,0,,,NaN,,,,,,false,,,,153581.19999999995,153581,,153580.59999999986,,153614.329,8,400,,,
break_continue,html.Screen,4_28_2,2023-11-01T15:58:00.296Z,,0,,,NaN,,,,,,false,,,,153581.30000000005,153581.30000000005,,153581.19999999995,,153614.329,8,400,,,
sequence,flow.Sequence,4_28,2023-11-01T15:58:00.296Z,,0,,,3231.3520000000426,completion,,,,,false,,,,153581.3999999999,153581.30000000005,150305.111,150308.59999999986,150349.948,153614.329,8,400,,,
trial,html.Screen,4_29_0,2023-11-01T15:58:03.484Z,,0,1,,3154.171000000002,response,ISIC_7798403.JPG,30,ISIC_0013671.JPG,ISIC_0013671.JPG,false,0,keypress(z),500,156768.59999999986,156768.5,153572.076,153581.5,153614.329,156804.288,8,400,30,,ISIC_7798403.JPG
break,html.Screen,4_29_1,2023-11-01T15:58:03.484Z,,0,,,NaN,,,,,,false,,,,156769.30000000005,156769.19999999995,,156768.8999999999,,156804.288,8,400,,,
break_continue,html.Screen,4_29_2,2023-11-01T15:58:03.484Z,,0,,,NaN,,,,,,false,,,,156769.59999999986,156769.5,,156769.5,,156804.288,8,400,,,
sequence,flow.Sequence,4_29,2023-11-01T15:58:03.485Z,,0,,,3155.171000000002,completion,,,,,false,,,,156769.69999999995,156769.5,153572.076,153581.5,153614.329,156804.288,8,400,,,
trial,html.Screen,4_30_0,2023-11-01T15:58:13.840Z,,0,1,,10320.911999999953,response,ISIC_0027031.JPG,7,ISIC_0028027.JPG,ISIC_0027031.JPG,false,1,keypress(m),500,167125.59999999986,167125.19999999995,156770.782,156769.8999999999,156804.288,167138.318,8,400,31,,ISIC_0028027.JPG
break,html.Screen,4_30_1,2023-11-01T15:58:13.841Z,,0,,,NaN,,,,,,false,,,,167126.3999999999,167126.30000000005,,167125.69999999995,,167138.318,8,400,,,
break_continue,html.Screen,4_30_2,2023-11-01T15:58:13.842Z,,0,,,NaN,,,,,,false,,,,167126.69999999995,167126.59999999986,,167126.5,,167138.318,8,400,,,
sequence,flow.Sequence,4_30,2023-11-01T15:58:13.842Z,,0,,,10322.31199999986,completion,,,,,false,,,,167126.80000000005,167126.59999999986,156770.782,156769.80000000005,156804.288,167138.318,8,400,,,
trial,html.Screen,4_31_0,2023-11-01T15:58:17.098Z,,0,1,,3244.781999999861,response,ISIC_0059925.JPG,5,ISIC_0000180.JPG,ISIC_0059925.JPG,false,1,keypress(m),500,170383.30000000005,170383.09999999986,167121.242,167126.8999999999,167138.318,170404.529,8,400,32,,ISIC_0000180.JPG
break,html.Screen,4_31_1,2023-11-01T15:58:17.099Z,,0,,,NaN,,,,,,false,,,,170384,170383.80000000005,,170383.5,,170404.529,8,400,,,
break_continue,html.Screen,4_31_2,2023-11-01T15:58:17.099Z,,0,,,NaN,,,,,,false,,,,170384.09999999986,170384.09999999986,,170384,,170404.529,8,400,,,
sequence,flow.Sequence,4_31,2023-11-01T15:58:17.099Z,,0,,,3245.781999999861,completion,,,,,false,,,,170384.19999999995,170384.09999999986,167121.242,167126.8999999999,167138.318,170404.529,8,400,,,
trial,html.Screen,4_32_0,2023-11-01T15:58:20.031Z,,0,1,,2911.271000000037,response,ISIC_6119830.JPG,23,ISIC_0004728.JPG,ISIC_6119830.JPG,false,1,keypress(m),500,173316,173315.80000000005,170370.231,170384.3999999999,170404.529,173337.746,8,400,33,,ISIC_0004728.JPG
break,html.Screen,4_32_1,2023-11-01T15:58:20.032Z,,0,,,NaN,,,,,,false,,,,173316.80000000005,173316.69999999995,,173316.19999999995,,173337.746,8,400,,,
break_continue,html.Screen,4_32_2,2023-11-01T15:58:20.032Z,,0,,,NaN,,,,,,false,,,,173317,173316.8999999999,,173316.80000000005,,173337.746,8,400,,,
sequence,flow.Sequence,4_32,2023-11-01T15:58:20.032Z,,0,,,2912.3709999998973,completion,,,,,false,,,,173317.09999999986,173316.8999999999,170370.231,170384.3999999999,170404.529,173337.746,8,400,,,
trial,html.Screen,4_33_0,2023-11-01T15:58:23.749Z,,0,1,,3696.4539999999397,response,ISIC_3251486.JPG,11,ISIC_0013835.JPG,ISIC_0013835.JPG,false,0,keypress(z),500,177034.3999999999,177034.19999999995,173304.177,173317.19999999995,173337.746,177039.61,8,400,34,,ISIC_3251486.JPG
break,html.Screen,4_33_1,2023-11-01T15:58:23.750Z,,0,,,NaN,,,,,,false,,,,177035.09999999986,177035,,177034.59999999986,,177039.61,8,400,,,
break_continue,html.Screen,4_33_2,2023-11-01T15:58:23.750Z,,0,,,NaN,,,,,,false,,,,177035.5,177035.3999999999,,177035.19999999995,,177039.61,8,400,,,
sequence,flow.Sequence,4_33,2023-11-01T15:58:23.750Z,,0,,,3697.653999999893,completion,,,,,false,,,,177035.5,177035.3999999999,173304.177,173317.19999999995,173337.746,177039.61,8,400,,,
trial,html.Screen,4_34_0,2023-11-01T15:58:26.429Z,,0,1,,2674.4899999998743,response,ISIC_0031079.JPG,2,ISIC_7545340.JPG,ISIC_7545340.JPG,false,0,keypress(z),500,179714.3999999999,179714.09999999986,177020.985,177035.59999999986,177039.61,179748.383,8,400,35,,ISIC_0031079.JPG
break,html.Screen,4_34_1,2023-11-01T15:58:26.430Z,,0,,,NaN,,,,,,false,,,,179715.09999999986,179715,,179714.59999999986,,179748.383,8,400,,,
break_continue,html.Screen,4_34_2,2023-11-01T15:58:26.430Z,,0,,,NaN,,,,,,false,,,,179715.3999999999,179715.30000000005,,179715.19999999995,,179748.383,8,400,,,
sequence,flow.Sequence,4_34,2023-11-01T15:58:26.430Z,,0,,,2675.6900000000605,completion,,,,,false,,,,179715.5,179715.30000000005,177020.985,177035.59999999986,177039.61,179748.383,8,400,,,
trial,html.Screen,4_35_0,2023-11-01T15:58:29.475Z,,0,1,,3011.816999999952,response,ISIC_2487188.JPG,4,ISIC_0000029.JPG,ISIC_2487188.JPG,false,1,keypress(m),500,182760.30000000005,182760.19999999995,179703.471,179715.59999999986,179748.383,182770.106,8,400,36,,ISIC_0000029.JPG
break,html.Screen,4_35_1,2023-11-01T15:58:29.476Z,,0,,,NaN,,,,,,false,,,,182761,182760.8999999999,,182760.3999999999,,182770.106,8,400,,,
break_continue,html.Screen,4_35_2,2023-11-01T15:58:29.476Z,,0,,,NaN,,,,,,false,,,,182761.19999999995,182761.09999999986,,182761,,182770.106,8,400,,,
sequence,flow.Sequence,4_35,2023-11-01T15:58:29.476Z,,0,,,3012.7169999998587,completion,,,,,false,,,,182761.19999999995,182761.09999999986,179703.471,179715.59999999986,179748.383,182770.106,8,400,,,
trial,html.Screen,4_36_0,2023-11-01T15:58:32.203Z,,0,1,,2718.293999999907,response,ISIC_0029591.JPG,6,ISIC_0027221.JPG,ISIC_0029591.JPG,false,1,keypress(m),500,185488.69999999995,185488.3999999999,182752.861,182761.30000000005,182770.106,185538.758,8,400,37,,ISIC_0027221.JPG
break,html.Screen,4_36_1,2023-11-01T15:58:32.204Z,,0,,,NaN,,,,,,false,,,,185489.30000000005,185489.19999999995,,185488.80000000005,,185538.758,8,400,,,
break_continue,html.Screen,4_36_2,2023-11-01T15:58:32.204Z,,0,,,NaN,,,,,,false,,,,185489.59999999986,185489.5,,185489.3999999999,,185538.758,8,400,,,
sequence,flow.Sequence,4_36,2023-11-01T15:58:32.205Z,,0,,,2719.3940000000002,completion,,,,,false,,,,185489.80000000005,185489.5,182752.861,182761.30000000005,182770.106,185538.758,8,400,,,
trial,html.Screen,4_37_0,2023-11-01T15:58:34.836Z,,0,1,,2581.8419999998587,response,ISIC_3448546.JPG,6,ISIC_0028341.JPG,ISIC_3448546.JPG,false,1,keypress(m),500,188120.80000000005,188120.59999999986,185487.426,185489.8999999999,185538.758,188179.639,8,400,38,,ISIC_0028341.JPG
break,html.Screen,4_37_1,2023-11-01T15:58:34.836Z,,0,,,NaN,,,,,,false,,,,188121.5,188121.3999999999,,188121,,188179.639,8,400,,,
break_continue,html.Screen,4_37_2,2023-11-01T15:58:34.837Z,,0,,,NaN,,,,,,false,,,,188121.80000000005,188121.69999999995,,188121.59999999986,,188179.639,8,400,,,
sequence,flow.Sequence,4_37,2023-11-01T15:58:34.837Z,,0,,,2582.941999999952,completion,,,,,false,,,,188121.8999999999,188121.69999999995,185487.426,185489.80000000005,185538.758,188179.639,8,400,,,
trial,html.Screen,4_38_0,2023-11-01T15:58:37.482Z,,0,1,,2587.060999999958,response,ISIC_0000546.JPG,12,ISIC_0059248.JPG,ISIC_0000546.JPG,false,1,keypress(m),500,190766.8999999999,190766.69999999995,188120.269,188121.8999999999,188179.639,190846.539,8,400,39,,ISIC_0059248.JPG
break,html.Screen,4_38_1,2023-11-01T15:58:37.482Z,,0,,,NaN,,,,,,false,,,,190767.59999999986,190767.5,,190767.09999999986,,190846.539,8,400,,,
break_continue,html.Screen,4_38_2,2023-11-01T15:58:37.483Z,,0,,,NaN,,,,,,false,,,,190767.8999999999,190767.80000000005,,190767.69999999995,,190846.539,8,400,,,
sequence,flow.Sequence,4_38,2023-11-01T15:58:37.483Z,,0,,,2588.161000000051,completion,,,,,false,,,,190768,190767.80000000005,188120.269,188121.8999999999,188179.639,190846.539,8,400,,,
trial,html.Screen,4_39_0,2023-11-01T15:58:40.813Z,,0,1,,3250.9610000000102,response,ISIC_0034074.JPG,6,ISIC_0261253.JPG,ISIC_0261253.JPG,false,0,keypress(z),500,194097.69999999995,194097.5,190787.211,190768,190846.539,194153.046,8,400,40,,ISIC_0034074.JPG
break,html.Screen,4_39_1,2023-11-01T15:58:40.813Z,,0,,,NaN,,,,,,false,,,,194098.59999999986,194098.30000000005,,194098,,194153.046,8,400,,,
break_continue,html.Screen,4_39_2,2023-11-01T15:58:40.814Z,,0,,,NaN,,,,,,false,,,,194098.80000000005,194098.69999999995,,194098.59999999986,,194153.046,8,400,,,
sequence,flow.Sequence,4_39,2023-11-01T15:58:40.814Z,,0,,,3252.1609999999637,completion,,,,,false,,,,194098.8999999999,194098.69999999995,190787.211,190768,190846.539,194153.046,8,400,,,
trial,html.Screen,4_40_0,2023-11-01T15:58:43.535Z,,0,1,,2667.053999999858,response,ISIC_2554114.JPG,9,ISIC_0031900.JPG,ISIC_0031900.JPG,false,0,keypress(z),500,196820.30000000005,196820.09999999986,194088.567,194099,194153.046,196877.999,8,400,41,,ISIC_2554114.JPG
break,html.Screen,4_40_1,2023-11-01T15:58:43.536Z,,0,,,NaN,,,,,,false,,,,196821,196820.8999999999,,196820.5,,196877.999,8,400,,,
break_continue,html.Screen,4_40_2,2023-11-01T15:58:43.536Z,,0,,,NaN,,,,,,false,,,,196821.30000000005,196821.19999999995,,196821.09999999986,,196877.999,8,400,,,
sequence,flow.Sequence,4_40,2023-11-01T15:58:43.536Z,,0,,,2668.1539999999513,completion,,,,,false,,,,196821.3999999999,196821.19999999995,194088.567,194098.8999999999,194153.046,196877.999,8,400,,,
trial,html.Screen,4_41_0,2023-11-01T15:58:46.195Z,,0,1,,2602.2009999999427,response,ISIC_2203239.JPG,5,ISIC_2379908.JPG,ISIC_2379908.JPG,false,0,keypress(z),500,199480.3999999999,199480.19999999995,196818.161,196821.3999999999,196877.999,199514.632,8,400,42,,ISIC_2203239.JPG
break,html.Screen,4_41_1,2023-11-01T15:58:46.196Z,,0,,,NaN,,,,,,false,,,,199481.19999999995,199481,,199480.59999999986,,199514.632,8,400,,,
break_continue,html.Screen,4_41_2,2023-11-01T15:58:46.196Z,,0,,,NaN,,,,,,false,,,,199481.3999999999,199481.30000000005,,199481.19999999995,,199514.632,8,400,,,
sequence,flow.Sequence,4_41,2023-11-01T15:58:46.196Z,,0,,,2603.301000000036,completion,,,,,false,,,,199481.3999999999,199481.30000000005,196818.161,196821.3999999999,196877.999,199514.632,8,400,,,
trial,html.Screen,4_42_0,2023-11-01T15:58:49.484Z,,0,1,,3254.067999999941,response,ISIC_0027627.JPG,9,ISIC_0032828.JPG,ISIC_0027627.JPG,false,1,keypress(m),500,202769,202768.69999999995,199476.801,199481.59999999986,199514.632,202816.679,8,400,43,,ISIC_0032828.JPG
break,html.Screen,4_42_1,2023-11-01T15:58:49.485Z,,0,,,NaN,,,,,,false,,,,202769.8999999999,202769.80000000005,,202769.09999999986,,202816.679,8,400,,,
break_continue,html.Screen,4_42_2,2023-11-01T15:58:49.485Z,,0,,,NaN,,,,,,false,,,,202770.19999999995,202770.09999999986,,202770,,202816.679,8,400,,,
sequence,flow.Sequence,4_42,2023-11-01T15:58:49.485Z,,0,,,3255.467999999848,completion,,,,,false,,,,202770.30000000005,202770.09999999986,199476.801,199481.59999999986,199514.632,202816.679,8,400,,,
trial,html.Screen,4_43_0,2023-11-01T15:58:52.287Z,,0,1,,2755.621000000043,response,ISIC_2739449.JPG,8,ISIC_0061509.JPG,ISIC_2739449.JPG,false,1,keypress(m),500,205572.59999999986,205572.30000000005,202770.316,202770.3999999999,202816.679,205619.685,8,400,44,,ISIC_0061509.JPG
break,html.Screen,4_43_1,2023-11-01T15:58:52.288Z,,0,,,NaN,,,,,,false,,,,205573.5,205573.30000000005,,205572.80000000005,,205619.685,8,400,,,
break_continue,html.Screen,4_43_2,2023-11-01T15:58:52.289Z,,0,,,NaN,,,,,,false,,,,205573.80000000005,205573.69999999995,,205573.59999999986,,205619.685,8,400,,,
sequence,flow.Sequence,4_43,2023-11-01T15:58:52.289Z,,0,,,2757.0209999999497,completion,,,,,false,,,,205573.8999999999,205573.69999999995,202770.316,202770.3999999999,202816.679,205619.685,8,400,,,
trial,html.Screen,4_44_0,2023-11-01T15:58:55.704Z,,0,1,,3369.714999999909,response,ISIC_2424673.JPG,13,ISIC_7254389.JPG,ISIC_7254389.JPG,false,0,keypress(z),500,208989.59999999986,208989.3999999999,205570.244,205574,205619.685,209036.089,8,400,45,,ISIC_2424673.JPG
break,html.Screen,4_44_1,2023-11-01T15:58:55.705Z,,0,,,NaN,,,,,,false,,,,208990.30000000005,208990.19999999995,,208989.80000000005,,209036.089,8,400,,,
break_continue,html.Screen,4_44_2,2023-11-01T15:58:55.705Z,,0,,,NaN,,,,,,false,,,,208990.59999999986,208990.5,,208990.3999999999,,209036.089,8,400,,,
sequence,flow.Sequence,4_44,2023-11-01T15:58:55.705Z,,0,,,3370.8150000000023,completion,,,,,false,,,,208990.69999999995,208990.5,205570.244,205573.8999999999,205619.685,209036.089,8,400,,,
trial,html.Screen,4_45_0,2023-11-01T15:58:58.877Z,,0,1,,3126.3110000001325,response,ISIC_4980328.JPG,6,ISIC_4806829.JPG,ISIC_4980328.JPG,false,1,keypress(m),500,212162.59999999986,212162.40000000014,208984.861,208990.69999999995,209036.089,212219.351,8,400,46,,ISIC_4806829.JPG
break,html.Screen,4_45_1,2023-11-01T15:58:58.878Z,,0,,,NaN,,,,,,false,,,,212163.30000000005,212163.19999999995,,212162.80000000005,,212219.351,8,400,,,
break_continue,html.Screen,4_45_2,2023-11-01T15:58:58.878Z,,0,,,NaN,,,,,,false,,,,212163.49999999977,212163.40000000014,,212163.40000000014,,212219.351,8,400,,,
sequence,flow.Sequence,4_45,2023-11-01T15:58:58.878Z,,0,,,3127.3110000001325,completion,,,,,false,,,,212163.59999999986,212163.40000000014,208984.861,208990.69999999995,209036.089,212219.351,8,400,,,
trial,html.Screen,4_46_0,2023-11-01T15:59:01.969Z,,0,1,,3034.148999999772,response,ISIC_0058607.JPG,6,ISIC_0000421.JPG,ISIC_0000421.JPG,false,0,keypress(z),500,215253.80000000005,215253.49999999977,212152.702,212163.69999999995,212219.351,215295.807,8,400,47,,ISIC_0058607.JPG
break,html.Screen,4_46_1,2023-11-01T15:59:01.969Z,,0,,,NaN,,,,,,false,,,,215254.49999999977,215254.30000000005,,215253.90000000014,,215295.807,8,400,,,
break_continue,html.Screen,4_46_2,2023-11-01T15:59:01.970Z,,0,,,NaN,,,,,,false,,,,215254.69999999995,215254.49999999977,,215254.49999999977,,215295.807,8,400,,,
sequence,flow.Sequence,4_46,2023-11-01T15:59:01.970Z,,0,,,3035.148999999772,completion,,,,,false,,,,215254.69999999995,215254.49999999977,212152.702,212163.59999999986,212219.351,215295.807,8,400,,,
trial,html.Screen,4_47_0,2023-11-01T15:59:04.872Z,,0,1,,2860.7929999998596,response,ISIC_4536709.JPG,11,ISIC_0033985.JPG,ISIC_4536709.JPG,false,1,keypress(m),500,218156.90000000014,218156.59999999986,215252.507,215254.90000000014,215295.807,218206.094,8,400,48,,ISIC_0033985.JPG
break,html.Screen,4_47_1,2023-11-01T15:59:04.872Z,,0,,,NaN,,,,,,false,,,,218157.59999999986,218157.40000000014,,218156.99999999977,,218206.094,8,400,,,
break_continue,html.Screen,4_47_2,2023-11-01T15:59:04.873Z,,0,,,NaN,,,,,,false,,,,218157.80000000005,218157.69999999995,,218157.59999999986,,218206.094,8,400,,,
sequence,flow.Sequence,4_47,2023-11-01T15:59:04.873Z,,0,,,2861.8929999999527,completion,,,,,false,,,,218157.90000000014,218157.69999999995,215252.507,215254.80000000005,215295.807,218206.094,8,400,,,
trial,html.Screen,4_48_0,2023-11-01T15:59:07.647Z,,0,1,,2724.9059999997553,response,ISIC_0009186.JPG,8,ISIC_0012721.JPG,ISIC_0009186.JPG,false,1,keypress(m),500,220931.90000000014,220930.99999999977,218151.686,218157.90000000014,218206.094,220974.542,8,400,49,,ISIC_0012721.JPG
break,html.Screen,4_48_1,2023-11-01T15:59:07.647Z,,0,,,NaN,,,,,,false,,,,220932.59999999986,220932.40000000014,,220931.99999999977,,220974.542,8,400,,,
break_continue,html.Screen,4_48_2,2023-11-01T15:59:07.648Z,,0,,,NaN,,,,,,false,,,,220932.80000000005,220932.69999999995,,220932.59999999986,,220974.542,8,400,,,
sequence,flow.Sequence,4_48,2023-11-01T15:59:07.648Z,,0,,,2726.6059999999416,completion,,,,,false,,,,220932.90000000014,220932.69999999995,218151.686,218157.90000000014,218206.094,220974.542,8,400,,,
trial,html.Screen,4_49_0,2023-11-01T15:59:10.580Z,,0,1,,2890.6579999999667,response,ISIC_0010807.JPG,8,ISIC_0029815.JPG,ISIC_0029815.JPG,false,0,keypress(z),500,223865.40000000014,223865.19999999995,220934.347,220932.90000000014,220974.542,223885.825,8,400,50,,ISIC_0010807.JPG
break,html.Screen,4_49_1,2023-11-01T15:59:20.584Z,,0,,,10000.019,timeout,,,,,false,,,,233869.49999999977,233868.701,223852.79,223865.49999999977,223885.825,233885.844,8,400,,,
break_continue,html.Screen,4_49_2,2023-11-01T15:59:33.995Z,,0,,,13378.956000000035,response,,,,,false,continue,keypress(Space),,247280.49999999977,247264.80000000005,233868.701,233869.69999999995,233885.844,247302.621,8,400,,,
sequence,flow.Sequence,4_49,2023-11-01T15:59:33.996Z,,0,,,26290.25800000006,completion,,,,,false,,,,247280.69999999995,247264.80000000005,220934.347,220932.90000000014,220974.542,247302.621,8,400,,,
trial,html.Screen,4_50_0,2023-11-01T15:59:37.093Z,,0,2,,3075.679000000033,response,ISIC_0000186.JPG,8,ISIC_6666329.JPG,ISIC_6666329.JPG,false,0,keypress(z),500,250378.59999999986,250378.30000000005,247285.323,247280.80000000005,247302.621,250414.198,8,400,1,,ISIC_0000186.JPG
break,html.Screen,4_50_1,2023-11-01T15:59:37.094Z,,0,,,NaN,,,,,,false,,,,250379.40000000014,250379.30000000005,,250378.80000000005,,250414.198,8,400,,,
break_continue,html.Screen,4_50_2,2023-11-01T15:59:37.095Z,,0,,,NaN,,,,,,false,,,,250379.69999999995,250379.59999999986,,250379.59999999986,,250414.198,8,400,,,
sequence,flow.Sequence,4_50,2023-11-01T15:59:37.095Z,,0,,,3076.9789999998466,completion,,,,,false,,,,250379.90000000014,250379.59999999986,247285.323,247280.69999999995,247302.621,250414.198,8,400,,,
trial,html.Screen,4_51_0,2023-11-01T15:59:39.756Z,,0,2,,2626.5019999999495,response,ISIC_7455460.JPG,7,ISIC_6854940.JPG,ISIC_6854940.JPG,false,0,keypress(z),500,253040.99999999977,253040.69999999995,250368.776,250379.99999999977,250414.198,253101.41,8,400,2,,ISIC_7455460.JPG
break,html.Screen,4_51_1,2023-11-01T15:59:39.757Z,,0,,,NaN,,,,,,false,,,,253041.69999999995,253041.59999999986,,253041.09999999986,,253101.41,8,400,,,
break_continue,html.Screen,4_51_2,2023-11-01T15:59:39.757Z,,0,,,NaN,,,,,,false,,,,253041.99999999977,253041.90000000014,,253041.80000000005,,253101.41,8,400,,,
sequence,flow.Sequence,4_51,2023-11-01T15:59:39.757Z,,0,,,2627.7020000001357,completion,,,,,false,,,,253041.99999999977,253041.90000000014,250368.776,250379.90000000014,250414.198,253101.41,8,400,,,
trial,html.Screen,4_52_0,2023-11-01T15:59:42.950Z,,0,2,,3133.28999999995,response,ISIC_0029007.JPG,12,ISIC_0027669.JPG,ISIC_0029007.JPG,false,1,keypress(m),500,256234.99999999977,256234.69999999995,253035.2,253042.19999999995,253101.41,256267.771,8,400,3,,ISIC_0027669.JPG
break,html.Screen,4_52_1,2023-11-01T15:59:42.950Z,,0,,,NaN,,,,,,false,,,,256235.49999999977,256235.49999999977,,256235.09999999986,,256267.771,8,400,,,
break_continue,html.Screen,4_52_2,2023-11-01T15:59:42.951Z,,0,,,NaN,,,,,,false,,,,256235.90000000014,256235.69999999995,,256235.69999999995,,256267.771,8,400,,,
sequence,flow.Sequence,4_52,2023-11-01T15:59:42.951Z,,0,,,3134.28999999995,completion,,,,,false,,,,256235.99999999977,256235.69999999995,253035.2,253042.09999999986,253101.41,256267.771,8,400,,,
trial,html.Screen,4_53_0,2023-11-01T15:59:45.548Z,,0,2,,2564.8289999998524,response,ISIC_0072843.JPG,31,ISIC_0054239.JPG,ISIC_0072843.JPG,false,1,keypress(m),500,258832.80000000005,258832.59999999986,256234.591,256235.99999999977,256267.771,258874.425,8,400,4,,ISIC_0054239.JPG
break,html.Screen,4_53_1,2023-11-01T15:59:45.548Z,,0,,,NaN,,,,,,false,,,,258833.49999999977,258833.40000000014,,258832.99999999977,,258874.425,8,400,,,
break_continue,html.Screen,4_53_2,2023-11-01T15:59:45.549Z,,0,,,NaN,,,,,,false,,,,258833.80000000005,258833.69999999995,,258833.59999999986,,258874.425,8,400,,,
sequence,flow.Sequence,4_53,2023-11-01T15:59:45.549Z,,0,,,2565.9289999999455,completion,,,,,false,,,,258833.90000000014,258833.69999999995,256234.591,256235.99999999977,256267.771,258874.425,8,400,,,
trial,html.Screen,4_54_0,2023-11-01T15:59:48.133Z,,0,2,,2543.674999999872,response,ISIC_0572205.JPG,7,ISIC_9152137.JPG,ISIC_9152137.JPG,false,0,keypress(z),500,261418.40000000014,261418.09999999986,258834.739,258833.99999999977,258874.425,261452.04,8,400,5,,ISIC_0572205.JPG
break,html.Screen,4_54_1,2023-11-01T15:59:48.134Z,,0,,,NaN,,,,,,false,,,,261419.19999999995,261418.99999999977,,261418.59999999986,,261452.04,8,400,,,
break_continue,html.Screen,4_54_2,2023-11-01T15:59:48.134Z,,0,,,NaN,,,,,,false,,,,261419.49999999977,261419.30000000005,,261419.19999999995,,261452.04,8,400,,,
sequence,flow.Sequence,4_54,2023-11-01T15:59:48.134Z,,0,,,2544.875000000058,completion,,,,,false,,,,261419.59999999986,261419.30000000005,258834.739,258833.90000000014,258874.425,261452.04,8,400,,,
trial,html.Screen,4_55_0,2023-11-01T15:59:50.793Z,,0,2,,2625.559999999852,response,ISIC_7664137.JPG,5,ISIC_4535099.JPG,ISIC_7664137.JPG,false,1,keypress(m),500,264077.80000000005,264077.59999999986,261417.645,261419.69999999995,261452.04,264119.687,8,400,6,,ISIC_4535099.JPG
break,html.Screen,4_55_1,2023-11-01T15:59:50.793Z,,0,,,NaN,,,,,,false,,,,264078.59999999986,264078.40000000014,,264077.99999999977,,264119.687,8,400,,,
break_continue,html.Screen,4_55_2,2023-11-01T15:59:50.794Z,,0,,,NaN,,,,,,false,,,,264078.80000000005,264078.80000000005,,264078.69999999995,,264119.687,8,400,,,
sequence,flow.Sequence,4_55,2023-11-01T15:59:50.794Z,,0,,,2626.7600000000384,completion,,,,,false,,,,264078.99999999977,264078.80000000005,261417.645,261419.59999999986,261452.04,264119.687,8,400,,,
trial,html.Screen,4_56_0,2023-11-01T15:59:53.360Z,,0,2,,2524.912999999884,response,ISIC_0034207.JPG,11,ISIC_0026901.JPG,ISIC_0034207.JPG,false,1,keypress(m),500,266644.69999999995,266644.59999999986,264067.897,264079.09999999986,264119.687,266673.451,8,400,7,,ISIC_0026901.JPG
break,html.Screen,4_56_1,2023-11-01T15:59:53.360Z,,0,,,NaN,,,,,,false,,,,266645.40000000014,266645.40000000014,,266644.90000000014,,266673.451,8,400,,,
break_continue,html.Screen,4_56_2,2023-11-01T15:59:53.361Z,,0,,,NaN,,,,,,false,,,,266645.69999999995,266645.69999999995,,266645.59999999986,,266673.451,8,400,,,
sequence,flow.Sequence,4_56,2023-11-01T15:59:53.361Z,,0,,,2526.012999999977,completion,,,,,false,,,,266645.80000000005,266645.69999999995,264067.897,264079.09999999986,264119.687,266673.451,8,400,,,
trial,html.Screen,4_57_0,2023-11-01T15:59:55.974Z,,0,2,,2585.7489999999525,response,ISIC_3734674.JPG,12,ISIC_0067339.JPG,ISIC_3734674.JPG,false,1,keypress(m),500,269259.49999999977,269259.19999999995,266634.64,266645.80000000005,266673.451,269319.519,8,400,8,,ISIC_0067339.JPG
break,html.Screen,4_57_1,2023-11-01T15:59:55.975Z,,0,,,NaN,,,,,,false,,,,269260.19999999995,269260.09999999986,,269259.69999999995,,269319.519,8,400,,,
break_continue,html.Screen,4_57_2,2023-11-01T15:59:55.975Z,,0,,,NaN,,,,,,false,,,,269260.40000000014,269260.40000000014,,269260.30000000005,,269319.519,8,400,,,
sequence,flow.Sequence,4_57,2023-11-01T15:59:55.975Z,,0,,,2586.9490000001388,completion,,,,,false,,,,269260.49999999977,269260.40000000014,266634.64,266645.80000000005,266673.451,269319.519,8,400,,,
trial,html.Screen,4_58_0,2023-11-01T15:59:59.454Z,,0,2,,3418.980999999796,response,ISIC_9029813.JPG,6,ISIC_0331389.JPG,ISIC_9029813.JPG,false,1,keypress(m),500,272738.69999999995,272738.49999999977,269250.796,269260.69999999995,269319.519,272798.908,8,400,9,,ISIC_0331389.JPG
break,html.Screen,4_58_1,2023-11-01T15:59:59.454Z,,0,,,NaN,,,,,,false,,,,272739.49999999977,272739.40000000014,,272738.99999999977,,272798.908,8,400,,,
break_continue,html.Screen,4_58_2,2023-11-01T15:59:59.455Z,,0,,,NaN,,,,,,false,,,,272739.69999999995,272739.69999999995,,272739.59999999986,,272798.908,8,400,,,
sequence,flow.Sequence,4_58,2023-11-01T15:59:59.455Z,,0,,,3420.1809999999823,completion,,,,,false,,,,272739.90000000014,272739.69999999995,269250.796,269260.59999999986,269319.519,272798.908,8,400,,,
trial,html.Screen,4_59_0,2023-11-01T16:00:02.133Z,,0,2,,2619.2919999999576,response,ISIC_1870415.JPG,1,ISIC_0028131.JPG,ISIC_1870415.JPG,false,1,keypress(m),500,275418.49999999977,275418.19999999995,272733.794,272739.99999999977,272798.908,275434.008,8,400,10,,ISIC_0028131.JPG
break,html.Screen,4_59_1,2023-11-01T16:00:02.135Z,,0,,,NaN,,,,,,false,,,,275419.90000000014,275419.59999999986,,275418.80000000005,,275434.008,8,400,,,
break_continue,html.Screen,4_59_2,2023-11-01T16:00:02.135Z,,0,,,NaN,,,,,,false,,,,275420.19999999995,275420.09999999986,,275419.99999999977,,275434.008,8,400,,,
sequence,flow.Sequence,4_59,2023-11-01T16:00:02.135Z,,0,,,2621.1919999998645,completion,,,,,false,,,,275420.30000000005,275420.09999999986,272733.794,272739.90000000014,272798.908,275434.008,8,400,,,
trial,html.Screen,4_60_0,2023-11-01T16:00:04.880Z,,0,2,,2730.792000000074,response,ISIC_0001743.JPG,6,ISIC_7747998.JPG,ISIC_0001743.JPG,false,1,keypress(m),500,278164.99999999977,278164.80000000005,275417.098,275420.49999999977,275434.008,278191.367,8,400,11,,ISIC_7747998.JPG
break,html.Screen,4_60_1,2023-11-01T16:00:04.881Z,,0,,,NaN,,,,,,false,,,,278165.80000000005,278165.59999999986,,278165.19999999995,,278191.367,8,400,,,
break_continue,html.Screen,4_60_2,2023-11-01T16:00:04.881Z,,0,,,NaN,,,,,,false,,,,278165.99999999977,278165.90000000014,,278165.80000000005,,278191.367,8,400,,,
sequence,flow.Sequence,4_60,2023-11-01T16:00:04.881Z,,0,,,2731.892000000167,completion,,,,,false,,,,278166.09999999986,278165.90000000014,275417.098,275420.49999999977,275434.008,278191.367,8,400,,,
trial,html.Screen,4_61_0,2023-11-01T16:00:08.184Z,,0,2,,3277.732999999833,response,ISIC_3291765.JPG,7,ISIC_4699066.JPG,ISIC_4699066.JPG,false,0,keypress(z),500,281469.40000000014,281469.09999999986,278167.109,278166.19999999995,278191.367,281484.434,8,400,12,,ISIC_3291765.JPG
break,html.Screen,4_61_1,2023-11-01T16:00:08.185Z,,0,,,NaN,,,,,,false,,,,281470.40000000014,281470.19999999995,,281469.49999999977,,281484.434,8,400,,,
break_continue,html.Screen,4_61_2,2023-11-01T16:00:08.186Z,,0,,,NaN,,,,,,false,,,,281470.69999999995,281470.59999999986,,281470.49999999977,,281484.434,8,400,,,
sequence,flow.Sequence,4_61,2023-11-01T16:00:08.186Z,,0,,,3279.232999999833,completion,,,,,false,,,,281470.69999999995,281470.59999999986,278167.109,278166.19999999995,278191.367,281484.434,8,400,,,
trial,html.Screen,4_62_0,2023-11-01T16:00:10.716Z,,0,2,,2516.165999999852,response,ISIC_5287748.JPG,13,ISIC_0060760.JPG,ISIC_0060760.JPG,false,0,keypress(z),500,284000.90000000014,284000.59999999986,281467.728,281470.80000000005,281484.434,284042.447,8,400,13,,ISIC_5287748.JPG
break,html.Screen,4_62_1,2023-11-01T16:00:10.716Z,,0,,,NaN,,,,,,false,,,,284001.59999999986,284001.40000000014,,284000.99999999977,,284042.447,8,400,,,
break_continue,html.Screen,4_62_2,2023-11-01T16:00:10.717Z,,0,,,NaN,,,,,,false,,,,284001.80000000005,284001.69999999995,,284001.69999999995,,284042.447,8,400,,,
sequence,flow.Sequence,4_62,2023-11-01T16:00:10.717Z,,0,,,2517.265999999945,completion,,,,,false,,,,284001.99999999977,284001.69999999995,281467.728,281470.80000000005,281484.434,284042.447,8,400,,,
trial,html.Screen,4_63_0,2023-11-01T16:00:14.932Z,,0,2,,4174.652999999875,response,ISIC_0061566.JPG,8,ISIC_8176449.JPG,ISIC_0061566.JPG,false,1,keypress(m),500,288217.30000000005,288217.09999999986,284000.093,284001.99999999977,284042.447,288222.311,8,400,14,,ISIC_8176449.JPG
break,html.Screen,4_63_1,2023-11-01T16:00:14.933Z,,0,,,NaN,,,,,,false,,,,288217.90000000014,288217.80000000005,,288217.49999999977,,288222.311,8,400,,,
break_continue,html.Screen,4_63_2,2023-11-01T16:00:14.933Z,,0,,,NaN,,,,,,false,,,,288218.09999999986,288218.09999999986,,288217.99999999977,,288222.311,8,400,,,
sequence,flow.Sequence,4_63,2023-11-01T16:00:14.933Z,,0,,,4175.652999999875,completion,,,,,false,,,,288218.19999999995,288218.09999999986,284000.093,284001.99999999977,284042.447,288222.311,8,400,,,
trial,html.Screen,4_64_0,2023-11-01T16:00:17.356Z,,0,2,,2418.9890000000596,response,ISIC_0068616.JPG,9,ISIC_0030951.JPG,ISIC_0030951.JPG,false,0,keypress(z),500,290641.59999999986,290641.30000000005,288217.251,288218.19999999995,288222.311,290675.378,8,400,15,,ISIC_0068616.JPG
break,html.Screen,4_64_1,2023-11-01T16:00:17.357Z,,0,,,NaN,,,,,,false,,,,290642.30000000005,290642.09999999986,,290641.69999999995,,290675.378,8,400,,,
break_continue,html.Screen,4_64_2,2023-11-01T16:00:17.357Z,,0,,,NaN,,,,,,false,,,,290642.40000000014,290642.40000000014,,290642.30000000005,,290675.378,8,400,,,
sequence,flow.Sequence,4_64,2023-11-01T16:00:17.357Z,,0,,,2420.0890000001527,completion,,,,,false,,,,290642.59999999986,290642.40000000014,288217.251,288218.19999999995,288222.311,290675.378,8,400,,,
trial,html.Screen,4_65_0,2023-11-01T16:00:19.750Z,,0,2,,2359.8219999999274,response,ISIC_6735970.JPG,12,ISIC_0070050.JPG,ISIC_6735970.JPG,false,1,keypress(m),500,293035.40000000014,293035.19999999995,290633.946,290642.69999999995,290675.378,293077.235,8,400,16,,ISIC_0070050.JPG
break,html.Screen,4_65_1,2023-11-01T16:00:19.751Z,,0,,,NaN,,,,,,false,,,,293036.09999999986,293035.99999999977,,293035.59999999986,,293077.235,8,400,,,
break_continue,html.Screen,4_65_2,2023-11-01T16:00:19.751Z,,0,,,NaN,,,,,,false,,,,293036.30000000005,293036.30000000005,,293036.19999999995,,293077.235,8,400,,,
sequence,flow.Sequence,4_65,2023-11-01T16:00:19.751Z,,0,,,2360.9220000000205,completion,,,,,false,,,,293036.40000000014,293036.30000000005,290633.946,290642.69999999995,290675.378,293077.235,8,400,,,
trial,html.Screen,4_66_0,2023-11-01T16:00:22.251Z,,0,2,,2458.3649999998743,response,ISIC_4026569.JPG,7,ISIC_9495211.JPG,ISIC_4026569.JPG,false,1,keypress(m),500,295535.90000000014,295535.59999999986,293033.399,293036.49999999977,293077.235,295599.95,8,400,17,,ISIC_9495211.JPG
break,html.Screen,4_66_1,2023-11-01T16:00:22.252Z,,0,,,NaN,,,,,,false,,,,295536.99999999977,295536.69999999995,,295536.19999999995,,295599.95,8,400,,,
break_continue,html.Screen,4_66_2,2023-11-01T16:00:22.252Z,,0,,,NaN,,,,,,false,,,,295537.30000000005,295537.19999999995,,295537.09999999986,,295599.95,8,400,,,
sequence,flow.Sequence,4_66,2023-11-01T16:00:22.252Z,,0,,,2459.9649999999674,completion,,,,,false,,,,295537.49999999977,295537.19999999995,293033.399,293036.49999999977,293077.235,295599.95,8,400,,,
trial,html.Screen,4_67_0,2023-11-01T16:00:25.121Z,,0,2,,2805.6499999998487,response,ISIC_0047003.JPG,8,ISIC_0060154.JPG,ISIC_0047003.JPG,false,1,keypress(m),500,298405.90000000014,298405.59999999986,295533.58,295537.49999999977,295599.95,298450.205,8,400,18,,ISIC_0060154.JPG
break,html.Screen,4_67_1,2023-11-01T16:00:25.122Z,,0,,,NaN,,,,,,false,,,,298406.69999999995,298406.49999999977,,298405.99999999977,,298450.205,8,400,,,
break_continue,html.Screen,4_67_2,2023-11-01T16:00:25.122Z,,0,,,NaN,,,,,,false,,,,298407.09999999986,298406.99999999977,,298406.80000000005,,298450.205,8,400,,,
sequence,flow.Sequence,4_67,2023-11-01T16:00:25.122Z,,0,,,2807.0499999997555,completion,,,,,false,,,,298407.19999999995,298406.99999999977,295533.58,295537.49999999977,295599.95,298450.205,8,400,,,
trial,html.Screen,4_68_0,2023-11-01T16:00:27.769Z,,0,2,,2603.294999999751,response,ISIC_0071132.JPG,10,ISIC_2412888.JPG,ISIC_2412888.JPG,false,0,keypress(z),500,301053.80000000005,301053.49999999977,298400.068,298407.19999999995,298450.205,301079.504,8,400,19,,ISIC_0071132.JPG
break,html.Screen,4_68_1,2023-11-01T16:00:27.769Z,,0,,,NaN,,,,,,false,,,,301054.49999999977,301054.40000000014,,301053.90000000014,,301079.504,8,400,,,
break_continue,html.Screen,4_68_2,2023-11-01T16:00:27.770Z,,0,,,NaN,,,,,,false,,,,301054.90000000014,301054.80000000005,,301054.59999999986,,301079.504,8,400,,,
sequence,flow.Sequence,4_68,2023-11-01T16:00:27.770Z,,0,,,2604.5950000000303,completion,,,,,false,,,,301054.99999999977,301054.80000000005,298400.068,298407.19999999995,298450.205,301079.504,8,400,,,
trial,html.Screen,4_69_0,2023-11-01T16:00:30.495Z,,0,2,,2701.095999999845,response,ISIC_2714907.JPG,9,ISIC_8899350.JPG,ISIC_8899350.JPG,false,0,keypress(z),500,303780.80000000005,303780.59999999986,301050.466,301055.09999999986,301079.504,303813.353,8,400,20,,ISIC_2714907.JPG
break,html.Screen,4_69_1,2023-11-01T16:00:30.496Z,,0,,,NaN,,,,,,false,,,,303781.40000000014,303781.30000000005,,303780.90000000014,,303813.353,8,400,,,
break_continue,html.Screen,4_69_2,2023-11-01T16:00:30.496Z,,0,,,NaN,,,,,,false,,,,303781.59999999986,303781.59999999986,,303781.59999999986,,303813.353,8,400,,,
sequence,flow.Sequence,4_69,2023-11-01T16:00:30.496Z,,0,,,2702.095999999845,completion,,,,,false,,,,303781.69999999995,303781.59999999986,301050.466,301054.99999999977,301079.504,303813.353,8,400,,,
trial,html.Screen,4_70_0,2023-11-01T16:00:33.526Z,,0,2,,2997.2469999998575,response,ISIC_4702522.JPG,7,ISIC_0528044.JPG,ISIC_4702522.JPG,false,1,keypress(m),500,306810.90000000014,306810.59999999986,303783.314,303781.90000000014,303813.353,306844.139,8,400,21,,ISIC_0528044.JPG
break,html.Screen,4_70_1,2023-11-01T16:00:33.526Z,,0,,,NaN,,,,,,false,,,,306811.59999999986,306811.49999999977,,306811.09999999986,,306844.139,8,400,,,
break_continue,html.Screen,4_70_2,2023-11-01T16:00:33.527Z,,0,,,NaN,,,,,,false,,,,306811.90000000014,306811.90000000014,,306811.69999999995,,306844.139,8,400,,,
sequence,flow.Sequence,4_70,2023-11-01T16:00:33.527Z,,0,,,2998.547000000137,completion,,,,,false,,,,306811.99999999977,306811.90000000014,303783.314,303781.80000000005,303813.353,306844.139,8,400,,,
trial,html.Screen,4_71_0,2023-11-01T16:00:36.318Z,,0,2,,2758.761000000115,response,ISIC_5795486.JPG,5,ISIC_2424673.JPG,ISIC_2424673.JPG,false,0,keypress(z),500,309603.09999999986,309602.90000000014,306799.925,306812.09999999986,306844.139,309636.917,8,400,22,,ISIC_5795486.JPG
break,html.Screen,4_71_1,2023-11-01T16:00:36.318Z,,0,,,NaN,,,,,,false,,,,309603.80000000005,309603.69999999995,,309603.30000000005,,309636.917,8,400,,,
break_continue,html.Screen,4_71_2,2023-11-01T16:00:36.319Z,,0,,,NaN,,,,,,false,,,,309604.09999999986,309603.99999999977,,309603.90000000014,,309636.917,8,400,,,
sequence,flow.Sequence,4_71,2023-11-01T16:00:36.319Z,,0,,,2759.8609999997425,completion,,,,,false,,,,309604.19999999995,309603.99999999977,306799.925,306811.99999999977,306844.139,309636.917,8,400,,,
trial,html.Screen,4_72_0,2023-11-01T16:00:38.946Z,,0,2,,2593.8830000000307,response,ISIC_0011868.JPG,5,ISIC_0012810.JPG,ISIC_0012810.JPG,false,0,keypress(z),500,312231.19999999995,312230.80000000005,309599.657,309604.30000000005,309636.917,312255.45,8,400,23,,ISIC_0011868.JPG
break,html.Screen,4_72_1,2023-11-01T16:00:38.947Z,,0,,,NaN,,,,,,false,,,,312232.19999999995,312231.99999999977,,312231.30000000005,,312255.45,8,400,,,
break_continue,html.Screen,4_72_2,2023-11-01T16:00:38.947Z,,0,,,NaN,,,,,,false,,,,312232.40000000014,312232.30000000005,,312232.19999999995,,312255.45,8,400,,,
sequence,flow.Sequence,4_72,2023-11-01T16:00:38.947Z,,0,,,2595.3830000000307,completion,,,,,false,,,,312232.49999999977,312232.30000000005,309599.657,309604.30000000005,309636.917,312255.45,8,400,,,
trial,html.Screen,4_73_0,2023-11-01T16:00:41.705Z,,0,2,,2734.249999999942,response,ISIC_0027764.JPG,4,ISIC_0005319.JPG,ISIC_0005319.JPG,false,0,keypress(z),500,314989.99999999977,314989.69999999995,312216.078,312232.49999999977,312255.45,315032.04,8,400,24,,ISIC_0027764.JPG
break,html.Screen,4_73_1,2023-11-01T16:00:41.705Z,,0,,,NaN,,,,,,false,,,,314990.69999999995,314990.49999999977,,314990.09999999986,,315032.04,8,400,,,
break_continue,html.Screen,4_73_2,2023-11-01T16:00:41.706Z,,0,,,NaN,,,,,,false,,,,314990.90000000014,314990.80000000005,,314990.69999999995,,315032.04,8,400,,,
sequence,flow.Sequence,4_73,2023-11-01T16:00:41.706Z,,0,,,2735.350000000035,completion,,,,,false,,,,314990.99999999977,314990.80000000005,312216.078,312232.49999999977,312255.45,315032.04,8,400,,,
trial,html.Screen,4_74_0,2023-11-01T16:00:44.336Z,,0,2,,2588.7600000000675,response,ISIC_0062286.JPG,12,ISIC_0563516.JPG,ISIC_0563516.JPG,false,0,keypress(z),500,317621.09999999986,317620.80000000005,314982.625,314991.09999999986,315032.04,317671.318,8,400,25,,ISIC_0062286.JPG
break,html.Screen,4_74_1,2023-11-01T16:00:44.336Z,,0,,,NaN,,,,,,false,,,,317621.90000000014,317621.59999999986,,317621.30000000005,,317671.318,8,400,,,
break_continue,html.Screen,4_74_2,2023-11-01T16:00:44.337Z,,0,,,NaN,,,,,,false,,,,317622.19999999995,317622.09999999986,,317621.99999999977,,317671.318,8,400,,,
sequence,flow.Sequence,4_74,2023-11-01T16:00:44.337Z,,0,,,2590.0599999998813,completion,,,,,false,,,,317622.19999999995,317622.09999999986,314982.625,314991.09999999986,315032.04,317671.318,8,400,,,
trial,html.Screen,4_75_0,2023-11-01T16:00:47.047Z,,0,2,,2661.381999999925,response,ISIC_4643298.JPG,10,ISIC_0025582.JPG,ISIC_4643298.JPG,false,1,keypress(m),500,320332.80000000005,320332.69999999995,317615.993,317622.30000000005,317671.318,320375.02,8,400,26,,ISIC_0025582.JPG
break,html.Screen,4_75_1,2023-11-01T16:00:47.048Z,,0,,,NaN,,,,,,false,,,,320333.40000000014,320333.19999999995,,320332.90000000014,,320375.02,8,400,,,
break_continue,html.Screen,4_75_2,2023-11-01T16:00:47.048Z,,0,,,NaN,,,,,,false,,,,320333.59999999986,320333.49999999977,,320333.40000000014,,320375.02,8,400,,,
sequence,flow.Sequence,4_75,2023-11-01T16:00:47.048Z,,0,,,2662.1819999997388,completion,,,,,false,,,,320333.59999999986,320333.49999999977,317615.993,317622.19999999995,317671.318,320375.02,8,400,,,
trial,html.Screen,4_76_0,2023-11-01T16:00:49.453Z,,0,2,,2362.780000000028,response,ISIC_2524005.JPG,8,ISIC_0069556.JPG,ISIC_0069556.JPG,false,0,keypress(z),500,322737.99999999977,322737.80000000005,320332.688,320333.69999999995,320375.02,322749.243,8,400,27,,ISIC_2524005.JPG
break,html.Screen,4_76_1,2023-11-01T16:00:49.453Z,,0,,,NaN,,,,,,false,,,,322738.69999999995,322738.59999999986,,322738.09999999986,,322749.243,8,400,,,
break_continue,html.Screen,4_76_2,2023-11-01T16:00:49.454Z,,0,,,NaN,,,,,,false,,,,322738.90000000014,322738.90000000014,,322738.80000000005,,322749.243,8,400,,,
sequence,flow.Sequence,4_76,2023-11-01T16:00:49.454Z,,0,,,2363.880000000121,completion,,,,,false,,,,322739.09999999986,322738.90000000014,320332.688,320333.69999999995,320375.02,322749.243,8,400,,,
trial,html.Screen,4_77_0,2023-11-01T16:00:51.813Z,,0,2,,2348.7569999997504,response,ISIC_6717452.JPG,13,ISIC_3676643.JPG,ISIC_6717452.JPG,false,1,keypress(m),500,325098.30000000005,325097.99999999977,322732.428,322739.09999999986,322749.243,325140.031,8,400,28,,ISIC_3676643.JPG
break,html.Screen,4_77_1,2023-11-01T16:00:51.814Z,,0,,,NaN,,,,,,false,,,,325098.90000000014,325098.80000000005,,325098.40000000014,,325140.031,8,400,,,
break_continue,html.Screen,4_77_2,2023-11-01T16:00:51.814Z,,0,,,NaN,,,,,,false,,,,325099.09999999986,325099.09999999986,,325098.99999999977,,325140.031,8,400,,,
sequence,flow.Sequence,4_77,2023-11-01T16:00:51.814Z,,0,,,2349.8569999998435,completion,,,,,false,,,,325099.19999999995,325099.09999999986,322732.428,322739.09999999986,322749.243,325140.031,8,400,,,
trial,html.Screen,4_78_0,2023-11-01T16:00:54.265Z,,0,2,,2409.7690000000293,response,ISIC_9217340.JPG,11,ISIC_3298596.JPG,ISIC_3298596.JPG,false,0,keypress(z),500,327550.09999999986,327549.80000000005,325099.52,325099.40000000014,325140.031,327600.327,8,400,29,,ISIC_9217340.JPG
break,html.Screen,4_78_1,2023-11-01T16:00:54.266Z,,0,,,NaN,,,,,,false,,,,327550.90000000014,327550.80000000005,,327550.30000000005,,327600.327,8,400,,,
break_continue,html.Screen,4_78_2,2023-11-01T16:00:54.266Z,,0,,,NaN,,,,,,false,,,,327551.19999999995,327551.09999999986,,327550.99999999977,,327600.327,8,400,,,
sequence,flow.Sequence,4_78,2023-11-01T16:00:54.266Z,,0,,,2411.068999999843,completion,,,,,false,,,,327551.30000000005,327551.09999999986,325099.52,325099.30000000005,325140.031,327600.327,8,400,,,
trial,html.Screen,4_79_0,2023-11-01T16:00:56.636Z,,0,2,,2320.27299999987,response,ISIC_0064044.JPG,9,ISIC_5179884.JPG,ISIC_5179884.JPG,false,0,keypress(z),500,329920.90000000014,329920.59999999986,327553.21,327551.40000000014,327600.327,329982.295,8,400,30,,ISIC_0064044.JPG
break,html.Screen,4_79_1,2023-11-01T16:00:56.636Z,,0,,,NaN,,,,,,false,,,,329921.69999999995,329921.49999999977,,329921.09999999986,,329982.295,8,400,,,
break_continue,html.Screen,4_79_2,2023-11-01T16:00:56.637Z,,0,,,NaN,,,,,,false,,,,329921.90000000014,329921.90000000014,,329921.80000000005,,329982.295,8,400,,,
sequence,flow.Sequence,4_79,2023-11-01T16:00:56.637Z,,0,,,2321.5730000001495,completion,,,,,false,,,,329922.09999999986,329921.90000000014,327553.21,327551.40000000014,327600.327,329982.295,8,400,,,
trial,html.Screen,4_80_0,2023-11-01T16:00:59.299Z,,0,2,,2601.9049999999697,response,ISIC_4418545.JPG,26,ISIC_5545874.JPG,ISIC_4418545.JPG,false,1,keypress(m),500,332584.49999999977,332584.19999999995,329916.505,329922.19999999995,329982.295,332643.355,8,400,31,,ISIC_5545874.JPG
break,html.Screen,4_80_1,2023-11-01T16:00:59.300Z,,0,,,NaN,,,,,,false,,,,332585.09999999986,332585.09999999986,,332584.59999999986,,332643.355,8,400,,,
break_continue,html.Screen,4_80_2,2023-11-01T16:00:59.300Z,,0,,,NaN,,,,,,false,,,,332585.40000000014,332585.30000000005,,332585.19999999995,,332643.355,8,400,,,
sequence,flow.Sequence,4_80,2023-11-01T16:00:59.300Z,,0,,,2603.005000000063,completion,,,,,false,,,,332585.49999999977,332585.30000000005,329916.505,329922.19999999995,329982.295,332643.355,8,400,,,
trial,html.Screen,4_81_0,2023-11-01T16:01:01.798Z,,0,2,,2439.5450000001583,response,ISIC_0011508.JPG,12,ISIC_2631789.JPG,ISIC_2631789.JPG,false,0,keypress(z),500,335083.19999999995,335082.90000000014,332582.781,332585.69999999995,332643.355,335140.541,8,400,32,,ISIC_0011508.JPG
break,html.Screen,4_81_1,2023-11-01T16:01:01.799Z,,0,,,NaN,,,,,,false,,,,335083.99999999977,335083.90000000014,,335083.30000000005,,335140.541,8,400,,,
break_continue,html.Screen,4_81_2,2023-11-01T16:01:01.799Z,,0,,,NaN,,,,,,false,,,,335084.19999999995,335084.19999999995,,335084.09999999986,,335140.541,8,400,,,
sequence,flow.Sequence,4_81,2023-11-01T16:01:01.799Z,,0,,,2440.844999999972,completion,,,,,false,,,,335084.30000000005,335084.19999999995,332582.781,332585.59999999986,332643.355,335140.541,8,400,,,
trial,html.Screen,4_82_0,2023-11-01T16:01:04.385Z,,0,2,,2529.25900000002,response,ISIC_0010730.JPG,13,ISIC_0011943.JPG,ISIC_0010730.JPG,false,1,keypress(m),500,337669.99999999977,337669.80000000005,335082.715,335084.40000000014,335140.541,337711.58,8,400,33,,ISIC_0011943.JPG
break,html.Screen,4_82_1,2023-11-01T16:01:04.385Z,,0,,,NaN,,,,,,false,,,,337670.69999999995,337670.59999999986,,337670.19999999995,,337711.58,8,400,,,
break_continue,html.Screen,4_82_2,2023-11-01T16:01:04.386Z,,0,,,NaN,,,,,,false,,,,337670.99999999977,337670.90000000014,,337670.80000000005,,337711.58,8,400,,,
sequence,flow.Sequence,4_82,2023-11-01T16:01:04.386Z,,0,,,2530.359000000113,completion,,,,,false,,,,337671.09999999986,337670.90000000014,335082.715,335084.40000000014,335140.541,337711.58,8,400,,,
trial,html.Screen,4_83_0,2023-11-01T16:01:06.872Z,,0,2,,2445.3200000001234,response,ISIC_0212774.JPG,11,ISIC_4252887.JPG,ISIC_0212774.JPG,false,1,keypress(m),500,340157.19999999995,340156.90000000014,337665.939,337671.19999999995,337711.58,340165.193,8,400,34,,ISIC_4252887.JPG
break,html.Screen,4_83_1,2023-11-01T16:01:06.873Z,,0,,,NaN,,,,,,false,,,,340157.90000000014,340157.80000000005,,340157.30000000005,,340165.193,8,400,,,
break_continue,html.Screen,4_83_2,2023-11-01T16:01:06.873Z,,0,,,NaN,,,,,,false,,,,340158.19999999995,340158.09999999986,,340157.99999999977,,340165.193,8,400,,,
sequence,flow.Sequence,4_83,2023-11-01T16:01:06.873Z,,0,,,2446.519999999844,completion,,,,,false,,,,340158.19999999995,340158.09999999986,337665.939,337671.09999999986,337711.58,340165.193,8,400,,,
trial,html.Screen,4_84_0,2023-11-01T16:01:09.599Z,,0,2,,2718.8069999997388,response,ISIC_0058151.JPG,84,ISIC_2642873.JPG,ISIC_2642873.JPG,false,0,keypress(z),500,342884.30000000005,342883.99999999977,340148.51,340158.30000000005,340165.193,342898.451,8,400,35,,ISIC_0058151.JPG
break,html.Screen,4_84_1,2023-11-01T16:01:09.600Z,,0,,,NaN,,,,,,false,,,,342885.09999999986,342884.90000000014,,342884.40000000014,,342898.451,8,400,,,
break_continue,html.Screen,4_84_2,2023-11-01T16:01:09.600Z,,0,,,NaN,,,,,,false,,,,342885.30000000005,342885.30000000005,,342885.19999999995,,342898.451,8,400,,,
sequence,flow.Sequence,4_84,2023-11-01T16:01:09.600Z,,0,,,2720.107000000018,completion,,,,,false,,,,342885.49999999977,342885.30000000005,340148.51,340158.19999999995,340165.193,342898.451,8,400,,,
trial,html.Screen,4_85_0,2023-11-01T16:01:12.055Z,,0,2,,2441.0489999997662,response,ISIC_3384884.JPG,9,ISIC_0067318.JPG,ISIC_3384884.JPG,false,1,keypress(m),500,345339.90000000014,345339.49999999977,342881.721,342885.49999999977,342898.451,345348.341,8,400,36,,ISIC_0067318.JPG
break,html.Screen,4_85_1,2023-11-01T16:01:12.055Z,,0,,,NaN,,,,,,false,,,,345340.90000000014,345340.59999999986,,345340.09999999986,,345348.341,8,400,,,
break_continue,html.Screen,4_85_2,2023-11-01T16:01:12.056Z,,0,,,NaN,,,,,,false,,,,345341.09999999986,345340.99999999977,,345340.90000000014,,345348.341,8,400,,,
sequence,flow.Sequence,4_85,2023-11-01T16:01:12.056Z,,0,,,2442.5489999997662,completion,,,,,false,,,,345341.19999999995,345340.99999999977,342881.721,342885.49999999977,342898.451,345348.341,8,400,,,
trial,html.Screen,4_86_0,2023-11-01T16:01:14.730Z,,0,2,,2666.2589999998454,response,ISIC_0029815.JPG,12,ISIC_7430054.JPG,ISIC_0029815.JPG,false,1,keypress(m),500,348014.80000000005,348014.59999999986,345331.629,345341.30000000005,345348.341,348031.599,8,400,37,,ISIC_7430054.JPG
break,html.Screen,4_86_1,2023-11-01T16:01:14.730Z,,0,,,NaN,,,,,,false,,,,348015.69999999995,348015.49999999977,,348014.99999999977,,348031.599,8,400,,,
break_continue,html.Screen,4_86_2,2023-11-01T16:01:14.731Z,,0,,,NaN,,,,,,false,,,,348015.99999999977,348015.90000000014,,348015.80000000005,,348031.599,8,400,,,
sequence,flow.Sequence,4_86,2023-11-01T16:01:14.731Z,,0,,,2667.559000000125,completion,,,,,false,,,,348016.09999999986,348015.90000000014,345331.629,345341.19999999995,345348.341,348031.599,8,400,,,
trial,html.Screen,4_87_0,2023-11-01T16:01:17.325Z,,0,2,,2578.500999999873,response,ISIC_0071196.JPG,4,ISIC_6701139.JPG,ISIC_6701139.JPG,false,0,keypress(z),500,350610.19999999995,350610.09999999986,348015.102,348016.19999999995,348031.599,350614.798,8,400,38,,ISIC_0071196.JPG
break,html.Screen,4_87_1,2023-11-01T16:01:17.326Z,,0,,,NaN,,,,,,false,,,,350610.99999999977,350610.90000000014,,350610.40000000014,,350614.798,8,400,,,
break_continue,html.Screen,4_87_2,2023-11-01T16:01:17.326Z,,0,,,NaN,,,,,,false,,,,350611.19999999995,350611.09999999986,,350610.99999999977,,350614.798,8,400,,,
sequence,flow.Sequence,4_87,2023-11-01T16:01:17.326Z,,0,,,2579.500999999873,completion,,,,,false,,,,350611.30000000005,350611.09999999986,348015.102,348016.19999999995,348031.599,350614.798,8,400,,,
trial,html.Screen,4_88_0,2023-11-01T16:01:19.824Z,,0,2,,2494.60200000013,response,ISIC_1377409.JPG,7,ISIC_0057307.JPG,ISIC_1377409.JPG,false,1,keypress(m),500,353109.69999999995,353109.40000000014,350598.503,350611.40000000014,350614.798,353116.967,8,400,39,,ISIC_0057307.JPG
break,html.Screen,4_88_1,2023-11-01T16:01:19.825Z,,0,,,NaN,,,,,,false,,,,353110.19999999995,353110.19999999995,,353109.80000000005,,353116.967,8,400,,,
break_continue,html.Screen,4_88_2,2023-11-01T16:01:19.825Z,,0,,,NaN,,,,,,false,,,,353110.49999999977,353110.49999999977,,353110.30000000005,,353116.967,8,400,,,
sequence,flow.Sequence,4_88,2023-11-01T16:01:19.825Z,,0,,,2495.7019999997574,completion,,,,,false,,,,353110.59999999986,353110.49999999977,350598.503,350611.40000000014,350614.798,353116.967,8,400,,,
trial,html.Screen,4_89_0,2023-11-01T16:01:22.806Z,,0,2,,2973.7329999999492,response,ISIC_1479949.JPG,10,ISIC_9498942.JPG,ISIC_9498942.JPG,false,0,keypress(z),500,356090.90000000014,356090.69999999995,353098.15,353110.59999999986,353116.967,356132.764,8,400,40,,ISIC_1479949.JPG
break,html.Screen,4_89_1,2023-11-01T16:01:22.807Z,,0,,,NaN,,,,,,false,,,,356091.90000000014,356091.69999999995,,356091.19999999995,,356132.764,8,400,,,
break_continue,html.Screen,4_89_2,2023-11-01T16:01:22.807Z,,0,,,NaN,,,,,,false,,,,356092.30000000005,356092.09999999986,,356091.99999999977,,356132.764,8,400,,,
sequence,flow.Sequence,4_89,2023-11-01T16:01:22.807Z,,0,,,2975.132999999856,completion,,,,,false,,,,356092.40000000014,356092.09999999986,353098.15,353110.59999999986,353116.967,356132.764,8,400,,,
trial,html.Screen,4_90_0,2023-11-01T16:01:25.598Z,,0,2,,2750.8359999998356,response,ISIC_0025428.JPG,7,ISIC_0024449.JPG,ISIC_0025428.JPG,false,1,keypress(m),500,358883.90000000014,358883.59999999986,356081.34,356092.49999999977,356132.764,358914.742,8,400,41,,ISIC_0024449.JPG
break,html.Screen,4_90_1,2023-11-01T16:01:25.599Z,,0,,,NaN,,,,,,false,,,,358884.69999999995,358884.49999999977,,358883.99999999977,,358914.742,8,400,,,
break_continue,html.Screen,4_90_2,2023-11-01T16:01:25.600Z,,0,,,NaN,,,,,,false,,,,358885.09999999986,358884.99999999977,,358884.90000000014,,358914.742,8,400,,,
sequence,flow.Sequence,4_90,2023-11-01T16:01:25.600Z,,0,,,2752.2359999997425,completion,,,,,false,,,,358885.19999999995,358884.99999999977,356081.34,356092.40000000014,356132.764,358914.742,8,400,,,
trial,html.Screen,4_91_0,2023-11-01T16:01:28.370Z,,0,2,,2740.7579999997397,response,ISIC_6754835.JPG,12,ISIC_9605122.JPG,ISIC_6754835.JPG,false,1,keypress(m),500,361655.80000000005,361655.49999999977,358898.253,358885.30000000005,358914.742,361697.96,8,400,42,,ISIC_9605122.JPG
break,html.Screen,4_91_1,2023-11-01T16:01:28.371Z,,0,,,NaN,,,,,,false,,,,361656.69999999995,361656.49999999977,,361655.99999999977,,361697.96,8,400,,,
break_continue,html.Screen,4_91_2,2023-11-01T16:01:28.371Z,,0,,,NaN,,,,,,false,,,,361656.99999999977,361656.90000000014,,361656.80000000005,,361697.96,8,400,,,
sequence,flow.Sequence,4_91,2023-11-01T16:01:28.371Z,,0,,,2742.158000000112,completion,,,,,false,,,,361657.09999999986,361656.90000000014,358898.253,358885.30000000005,358914.742,361697.96,8,400,,,
trial,html.Screen,4_92_0,2023-11-01T16:01:30.908Z,,0,2,,2495.8400000000256,response,ISIC_4292879.JPG,10,ISIC_9518180.JPG,ISIC_9518180.JPG,false,0,keypress(z),500,364193.90000000014,364193.80000000005,361648.037,361657.19999999995,361697.96,364198.134,8,400,43,,ISIC_4292879.JPG
break,html.Screen,4_92_1,2023-11-01T16:01:30.909Z,,0,,,NaN,,,,,,false,,,,364194.59999999986,364194.40000000014,,364194.09999999986,,364198.134,8,400,,,
break_continue,html.Screen,4_92_2,2023-11-01T16:01:30.909Z,,0,,,NaN,,,,,,false,,,,364194.69999999995,364194.69999999995,,364194.59999999986,,364198.134,8,400,,,
sequence,flow.Sequence,4_92,2023-11-01T16:01:30.909Z,,0,,,2496.7399999999325,completion,,,,,false,,,,364194.80000000005,364194.69999999995,361648.037,361657.09999999986,361697.96,364198.134,8,400,,,
trial,html.Screen,4_93_0,2023-11-01T16:01:33.440Z,,0,2,,2527.2660000001197,response,ISIC_0010421.JPG,11,ISIC_6486856.JPG,ISIC_0010421.JPG,false,1,keypress(m),500,366725.80000000005,366725.40000000014,364181.192,364194.90000000014,364198.134,366731.03,8,400,44,,ISIC_6486856.JPG
break,html.Screen,4_93_1,2023-11-01T16:01:33.442Z,,0,,,NaN,,,,,,false,,,,366727.49999999977,366727.19999999995,,366726.09999999986,,366731.03,8,400,,,
break_continue,html.Screen,4_93_2,2023-11-01T16:01:33.443Z,,0,,,NaN,,,,,,false,,,,366728.59999999986,366728.49999999977,,366727.59999999986,,366731.03,8,400,,,
sequence,flow.Sequence,4_93,2023-11-01T16:01:33.443Z,,0,,,2530.365999999747,completion,,,,,false,,,,366728.80000000005,366728.49999999977,364181.192,364194.90000000014,364198.134,366731.03,8,400,,,
trial,html.Screen,4_94_0,2023-11-01T16:01:35.946Z,,0,2,,2499.5699999998324,response,ISIC_7984080.JPG,10,ISIC_9433473.JPG,ISIC_9433473.JPG,false,0,keypress(z),500,369231.59999999986,369230.59999999986,366714.877,366728.90000000014,366731.03,369247.902,8,400,45,,ISIC_7984080.JPG
break,html.Screen,4_94_1,2023-11-01T16:01:35.947Z,,0,,,NaN,,,,,,false,,,,369233.19999999995,369232.59999999986,,369231.90000000014,,369247.902,8,400,,,
break_continue,html.Screen,4_94_2,2023-11-01T16:01:35.948Z,,0,,,NaN,,,,,,false,,,,369233.59999999986,369233.40000000014,,369233.30000000005,,369247.902,8,400,,,
sequence,flow.Sequence,4_94,2023-11-01T16:01:35.948Z,,0,,,2502.3700000001118,completion,,,,,false,,,,369233.59999999986,369233.40000000014,366714.877,366728.80000000005,366731.03,369247.902,8,400,,,
trial,html.Screen,4_95_0,2023-11-01T16:01:38.542Z,,0,2,,2579.7979999999516,response,ISIC_6310591.JPG,8,ISIC_0056938.JPG,ISIC_6310591.JPG,false,1,keypress(m),500,371827.80000000005,371827.69999999995,369231.41,369233.80000000005,369247.902,371831.081,8,400,46,,ISIC_0056938.JPG
break,html.Screen,4_95_1,2023-11-01T16:01:38.543Z,,0,,,NaN,,,,,,false,,,,371828.30000000005,371828.19999999995,,371827.90000000014,,371831.081,8,400,,,
break_continue,html.Screen,4_95_2,2023-11-01T16:01:38.543Z,,0,,,NaN,,,,,,false,,,,371828.59999999986,371828.59999999986,,371828.40000000014,,371831.081,8,400,,,
sequence,flow.Sequence,4_95,2023-11-01T16:01:38.543Z,,0,,,2580.6979999998584,completion,,,,,false,,,,371828.59999999986,371828.59999999986,369231.41,369233.80000000005,369247.902,371831.081,8,400,,,
trial,html.Screen,4_96_0,2023-11-01T16:01:41.121Z,,0,2,,2574.819000000134,response,ISIC_0028467.JPG,7,ISIC_4890201.JPG,ISIC_4890201.JPG,false,0,keypress(z),500,374406.69999999995,374405.90000000014,371814.423,371828.69999999995,371831.081,374471.109,8,400,47,,ISIC_0028467.JPG
break,html.Screen,4_96_1,2023-11-01T16:01:41.122Z,,0,,,NaN,,,,,,false,,,,374407.40000000014,374407.40000000014,,374406.90000000014,,374471.109,8,400,,,
break_continue,html.Screen,4_96_2,2023-11-01T16:01:41.122Z,,0,,,NaN,,,,,,false,,,,374407.69999999995,374407.59999999986,,374407.49999999977,,374471.109,8,400,,,
sequence,flow.Sequence,4_96,2023-11-01T16:01:41.122Z,,0,,,2576.5189999998547,completion,,,,,false,,,,374407.69999999995,374407.59999999986,371814.423,371828.69999999995,371831.081,374471.109,8,400,,,
trial,html.Screen,4_97_0,2023-11-01T16:01:43.595Z,,0,2,,2409.0909999999567,response,ISIC_3632419.JPG,5,ISIC_0031627.JPG,ISIC_3632419.JPG,false,1,keypress(m),500,376880.59999999986,376880.19999999995,374397.688,374407.80000000005,374471.109,376897.376,8,400,48,,ISIC_0031627.JPG
break,html.Screen,4_97_1,2023-11-01T16:01:43.597Z,,0,,,NaN,,,,,,false,,,,376882.40000000014,376882.09999999986,,376880.90000000014,,376897.376,8,400,,,
break_continue,html.Screen,4_97_2,2023-11-01T16:01:43.597Z,,0,,,NaN,,,,,,false,,,,376883.09999999986,376882.99999999977,,376882.40000000014,,376897.376,8,400,,,
sequence,flow.Sequence,4_97,2023-11-01T16:01:43.598Z,,0,,,2411.8909999997704,completion,,,,,false,,,,376883.19999999995,376882.99999999977,374397.688,374407.80000000005,374471.109,376897.376,8,400,,,
trial,html.Screen,4_98_0,2023-11-01T16:01:46.003Z,,0,2,,2391.0240000001504,response,ISIC_7011122.JPG,5,ISIC_0059294.JPG,ISIC_0059294.JPG,false,0,keypress(z),500,379288.69999999995,379288.40000000014,376880.73,376883.49999999977,376897.376,379297.264,8,400,49,,ISIC_7011122.JPG
break,html.Screen,4_98_1,2023-11-01T16:01:46.004Z,,0,,,NaN,,,,,,false,,,,379289.59999999986,379289.49999999977,,379288.99999999977,,379297.264,8,400,,,
break_continue,html.Screen,4_98_2,2023-11-01T16:01:46.004Z,,0,,,NaN,,,,,,false,,,,379290.09999999986,379289.90000000014,,379289.80000000005,,379297.264,8,400,,,
sequence,flow.Sequence,4_98,2023-11-01T16:01:46.004Z,,0,,,2392.5240000001504,completion,,,,,false,,,,379290.19999999995,379289.90000000014,376880.73,376883.40000000014,376897.376,379297.264,8,400,,,
trial,html.Screen,4_99_0,2023-11-01T16:01:49.049Z,,0,2,,3036.7359999997425,response,ISIC_0029859.JPG,8,ISIC_0072021.JPG,ISIC_0029859.JPG,false,1,keypress(m),500,382334.30000000005,382333.99999999977,379280.839,379290.30000000005,379297.264,382347.471,8,400,50,,ISIC_0072021.JPG
break,html.Screen,4_99_1,2023-11-01T16:01:59.046Z,,0,,,9999.445999999996,timeout,,,,,false,,,,392331.80000000005,392330.39,382330.754,382334.49999999977,382347.471,392346.917,8,400,,,
break_continue,html.Screen,4_99_2,2023-11-01T16:02:02.143Z,,0,,,3067.6829999998445,response,,,,,false,continue,keypress(Space),,395428.30000000005,395414.59999999986,392330.39,392331.90000000014,392346.917,395430.834,8,400,,,
sequence,flow.Sequence,4_99,2023-11-01T16:02:02.143Z,,0,,,16117.335999999836,completion,,,,,false,,,,395428.40000000014,395414.59999999986,379280.839,379290.30000000005,379297.264,395430.834,8,400,,,
trial,html.Screen,4_100_0,2023-11-01T16:02:05.526Z,,0,3,,3381.0660000001662,response,ISIC_0014932.JPG,7,ISIC_0014027.JPG,ISIC_0014027.JPG,false,0,keypress(z),500,398812.19999999995,398811.90000000014,395413.594,395428.40000000014,395430.834,398858.957,8,400,1,,ISIC_0014932.JPG
break,html.Screen,4_100_1,2023-11-01T16:02:05.527Z,,0,,,NaN,,,,,,false,,,,398812.99999999977,398812.90000000014,,398812.40000000014,,398858.957,8,400,,,
break_continue,html.Screen,4_100_2,2023-11-01T16:02:05.528Z,,0,,,NaN,,,,,,false,,,,398813.30000000005,398813.30000000005,,398813.19999999995,,398858.957,8,400,,,
sequence,flow.Sequence,4_100,2023-11-01T16:02:05.528Z,,0,,,3382.466000000073,completion,,,,,false,,,,398813.49999999977,398813.30000000005,395413.594,395428.40000000014,395430.834,398858.957,8,400,,,
trial,html.Screen,4_101_0,2023-11-01T16:02:08.481Z,,0,3,,2906.5429999997723,response,ISIC_8618835.JPG,5,ISIC_0054350.JPG,ISIC_0054350.JPG,false,0,keypress(z),500,401766.30000000005,401765.49999999977,398813.492,398813.59999999986,398858.957,401793.447,8,400,2,,ISIC_8618835.JPG
break,html.Screen,4_101_1,2023-11-01T16:02:08.481Z,,0,,,NaN,,,,,,false,,,,401767.09999999986,401766.99999999977,,401766.59999999986,,401793.447,8,400,,,
break_continue,html.Screen,4_101_2,2023-11-01T16:02:08.482Z,,0,,,NaN,,,,,,false,,,,401767.40000000014,401767.30000000005,,401767.30000000005,,401793.447,8,400,,,
sequence,flow.Sequence,4_101,2023-11-01T16:02:08.482Z,,0,,,2908.3430000000517,completion,,,,,false,,,,401767.49999999977,401767.30000000005,398813.492,398813.49999999977,398858.957,401793.447,8,400,,,
trial,html.Screen,4_102_0,2023-11-01T16:02:10.967Z,,0,3,,2458.453000000154,response,ISIC_0031501.JPG,11,ISIC_4007322.JPG,ISIC_0031501.JPG,false,1,keypress(m),500,404252.30000000005,404251.90000000014,401763.339,401767.59999999986,401793.447,404263.502,8,400,3,,ISIC_4007322.JPG
break,html.Screen,4_102_1,2023-11-01T16:02:10.968Z,,0,,,NaN,,,,,,false,,,,404253.99999999977,404253.59999999986,,404252.59999999986,,404263.502,8,400,,,
break_continue,html.Screen,4_102_2,2023-11-01T16:02:10.969Z,,0,,,NaN,,,,,,false,,,,404254.30000000005,404254.19999999995,,404253.99999999977,,404263.502,8,400,,,
sequence,flow.Sequence,4_102,2023-11-01T16:02:10.969Z,,0,,,2460.752999999968,completion,,,,,false,,,,404254.49999999977,404254.19999999995,401763.339,401767.59999999986,401793.447,404263.502,8,400,,,
trial,html.Screen,4_103_0,2023-11-01T16:02:13.729Z,,0,3,,2750.798000000068,response,ISIC_5400609.JPG,6,ISIC_7295035.JPG,ISIC_7295035.JPG,false,0,keypress(z),500,407014.69999999995,407014.30000000005,404246.635,404254.49999999977,404263.502,407029.888,8,400,4,,ISIC_5400609.JPG
break,html.Screen,4_103_1,2023-11-01T16:02:13.730Z,,0,,,NaN,,,,,,false,,,,407015.90000000014,407015.69999999995,,407014.80000000005,,407029.888,8,400,,,
break_continue,html.Screen,4_103_2,2023-11-01T16:02:13.730Z,,0,,,NaN,,,,,,false,,,,407016.19999999995,407016.09999999986,,407015.99999999977,,407029.888,8,400,,,
sequence,flow.Sequence,4_103,2023-11-01T16:02:13.731Z,,0,,,2752.5979999998817,completion,,,,,false,,,,407016.40000000014,407016.09999999986,404246.635,404254.49999999977,404263.502,407029.888,8,400,,,
trial,html.Screen,4_104_0,2023-11-01T16:02:16.486Z,,0,3,,2741.4120000000694,response,ISIC_9863059.JPG,8,ISIC_7051167.JPG,ISIC_7051167.JPG,false,0,keypress(z),500,409771.59999999986,409771.30000000005,407013.204,407016.40000000014,407029.888,409783.296,8,400,5,,ISIC_9863059.JPG
break,html.Screen,4_104_1,2023-11-01T16:02:16.487Z,,0,,,NaN,,,,,,false,,,,409773.09999999986,409772.90000000014,,409771.80000000005,,409783.296,8,400,,,
break_continue,html.Screen,4_104_2,2023-11-01T16:02:16.488Z,,0,,,NaN,,,,,,false,,,,409773.49999999977,409773.40000000014,,409773.19999999995,,409783.296,8,400,,,
sequence,flow.Sequence,4_104,2023-11-01T16:02:16.488Z,,0,,,2743.5120000001625,completion,,,,,false,,,,409773.69999999995,409773.40000000014,407013.204,407016.40000000014,407029.888,409783.296,8,400,,,
trial,html.Screen,4_105_0,2023-11-01T16:02:19.054Z,,0,3,,2555.3039999998873,response,ISIC_6942437.JPG,9,ISIC_0013835.JPG,ISIC_0013835.JPG,false,0,keypress(z),500,412339.40000000014,412338.59999999986,409763.3,409773.80000000005,409783.296,412347.321,8,400,6,,ISIC_6942437.JPG
break,html.Screen,4_105_1,2023-11-01T16:02:19.055Z,,0,,,NaN,,,,,,false,,,,412340.99999999977,412340.69999999995,,412339.69999999995,,412347.321,8,400,,,
break_continue,html.Screen,4_105_2,2023-11-01T16:02:19.055Z,,0,,,NaN,,,,,,false,,,,412341.30000000005,412341.19999999995,,412340.99999999977,,412347.321,8,400,,,
sequence,flow.Sequence,4_105,2023-11-01T16:02:19.056Z,,0,,,2557.9039999999804,completion,,,,,false,,,,412341.30000000005,412341.19999999995,409763.3,409773.80000000005,409783.296,412347.321,8,400,,,
trial,html.Screen,4_106_0,2023-11-01T16:02:21.603Z,,0,3,,2540.5790000001434,response,ISIC_0010162.JPG,11,ISIC_0032925.JPG,ISIC_0010162.JPG,false,1,keypress(m),500,414888.30000000005,414887.90000000014,412329.777,412341.40000000014,412347.321,414898.831,8,400,7,,ISIC_0032925.JPG
break,html.Screen,4_106_1,2023-11-01T16:02:21.604Z,,0,,,NaN,,,,,,false,,,,414889.49999999977,414889.30000000005,,414888.59999999986,,414898.831,8,400,,,
break_continue,html.Screen,4_106_2,2023-11-01T16:02:21.604Z,,0,,,NaN,,,,,,false,,,,414889.99999999977,414889.90000000014,,414889.69999999995,,414898.831,8,400,,,
sequence,flow.Sequence,4_106,2023-11-01T16:02:21.604Z,,0,,,2542.5790000001434,completion,,,,,false,,,,414890.09999999986,414889.90000000014,412329.777,412341.40000000014,412347.321,414898.831,8,400,,,
trial,html.Screen,4_107_0,2023-11-01T16:02:24.312Z,,0,3,,2698.7689999998547,response,ISIC_0066354.JPG,6,ISIC_5994286.JPG,ISIC_5994286.JPG,false,0,keypress(z),500,417597.80000000005,417597.59999999986,414879.656,414890.19999999995,414898.831,417632.096,8,400,8,,ISIC_0066354.JPG
break,html.Screen,4_107_1,2023-11-01T16:02:24.313Z,,0,,,NaN,,,,,,false,,,,417598.59999999986,417598.40000000014,,417597.99999999977,,417632.096,8,400,,,
break_continue,html.Screen,4_107_2,2023-11-01T16:02:24.313Z,,0,,,NaN,,,,,,false,,,,417598.90000000014,417598.80000000005,,417598.69999999995,,417632.096,8,400,,,
sequence,flow.Sequence,4_107,2023-11-01T16:02:24.313Z,,0,,,2699.969000000041,completion,,,,,false,,,,417598.99999999977,417598.80000000005,414879.656,414890.19999999995,414898.831,417632.096,8,400,,,
trial,html.Screen,4_108_0,2023-11-01T16:02:27.483Z,,0,3,,3136.5039999998407,response,ISIC_0012260.JPG,11,ISIC_2914160.JPG,ISIC_2914160.JPG,false,0,keypress(z),500,420768.80000000005,420768.59999999986,417588.233,417599.09999999986,417632.096,420829.441,8,400,9,,ISIC_0012260.JPG
break,html.Screen,4_108_1,2023-11-01T16:02:27.484Z,,0,,,NaN,,,,,,false,,,,420769.59999999986,420769.49999999977,,420768.99999999977,,420829.441,8,400,,,
break_continue,html.Screen,4_108_2,2023-11-01T16:02:27.484Z,,0,,,NaN,,,,,,false,,,,420769.90000000014,420769.80000000005,,420769.69999999995,,420829.441,8,400,,,
sequence,flow.Sequence,4_108,2023-11-01T16:02:27.484Z,,0,,,3137.704000000027,completion,,,,,false,,,,420769.99999999977,420769.80000000005,417588.233,417598.99999999977,417632.096,420829.441,8,400,,,
trial,html.Screen,4_109_0,2023-11-01T16:02:29.893Z,,0,3,,2348.959000000148,response,ISIC_5923430.JPG,13,ISIC_7448231.JPG,ISIC_5923430.JPG,false,1,keypress(m),500,423178.69999999995,423178.40000000014,420762.745,420769.99999999977,420829.441,423212.502,8,400,10,,ISIC_7448231.JPG
break,html.Screen,4_109_1,2023-11-01T16:02:29.894Z,,0,,,NaN,,,,,,false,,,,423179.30000000005,423179.19999999995,,423178.80000000005,,423212.502,8,400,,,
break_continue,html.Screen,4_109_2,2023-11-01T16:02:29.894Z,,0,,,NaN,,,,,,false,,,,423179.59999999986,423179.49999999977,,423179.49999999977,,423212.502,8,400,,,
sequence,flow.Sequence,4_109,2023-11-01T16:02:29.895Z,,0,,,2350.0589999997756,completion,,,,,false,,,,423179.69999999995,423179.49999999977,420762.745,420769.99999999977,420829.441,423212.502,8,400,,,
trial,html.Screen,4_110_0,2023-11-01T16:02:32.926Z,,0,3,,2998.0979999998817,response,ISIC_5267208.JPG,10,ISIC_3736075.JPG,ISIC_3736075.JPG,false,0,keypress(z),500,426210.69999999995,426210.59999999986,423179.333,423179.80000000005,423212.502,426244.499,8,400,11,,ISIC_5267208.JPG
break,html.Screen,4_110_1,2023-11-01T16:02:32.926Z,,0,,,NaN,,,,,,false,,,,426211.49999999977,426211.30000000005,,426210.90000000014,,426244.499,8,400,,,
break_continue,html.Screen,4_110_2,2023-11-01T16:02:32.927Z,,0,,,NaN,,,,,,false,,,,426211.69999999995,426211.59999999986,,426211.59999999986,,426244.499,8,400,,,
sequence,flow.Sequence,4_110,2023-11-01T16:02:32.927Z,,0,,,2999.0979999998817,completion,,,,,false,,,,426211.90000000014,426211.59999999986,423179.333,423179.80000000005,423212.502,426244.499,8,400,,,
trial,html.Screen,4_111_0,2023-11-01T16:02:35.553Z,,0,3,,2593.301000000036,response,ISIC_5903193.JPG,5,ISIC_0070822.JPG,ISIC_5903193.JPG,false,1,keypress(m),500,428838.19999999995,428837.80000000005,426212.546,426211.90000000014,426244.499,428849.394,8,400,12,,ISIC_0070822.JPG
break,html.Screen,4_111_1,2023-11-01T16:02:35.555Z,,0,,,NaN,,,,,,false,,,,428840.40000000014,428839.30000000005,,428838.40000000014,,428849.394,8,400,,,
break_continue,html.Screen,4_111_2,2023-11-01T16:02:35.555Z,,0,,,NaN,,,,,,false,,,,428840.59999999986,428840.59999999986,,428840.40000000014,,428849.394,8,400,,,
sequence,flow.Sequence,4_111,2023-11-01T16:02:35.556Z,,0,,,2596.1009999998496,completion,,,,,false,,,,428841.09999999986,428840.59999999986,426212.546,426211.90000000014,426244.499,428849.394,8,400,,,
trial,html.Screen,4_112_0,2023-11-01T16:02:38.396Z,,0,3,,2831.0060000001686,response,ISIC_7670304.JPG,9,ISIC_3797095.JPG,ISIC_3797095.JPG,false,0,keypress(z),500,431680.80000000005,431680.40000000014,428829.831,428841.19999999995,428849.394,431695.621,8,400,13,,ISIC_7670304.JPG
break,html.Screen,4_112_1,2023-11-01T16:02:38.397Z,,0,,,NaN,,,,,,false,,,,431682.09999999986,431681.80000000005,,431680.90000000014,,431695.621,8,400,,,
break_continue,html.Screen,4_112_2,2023-11-01T16:02:38.397Z,,0,,,NaN,,,,,,false,,,,431682.40000000014,431682.30000000005,,431682.19999999995,,431695.621,8,400,,,
sequence,flow.Sequence,4_112,2023-11-01T16:02:38.397Z,,0,,,2832.9060000000754,completion,,,,,false,,,,431682.59999999986,431682.30000000005,428829.831,428841.19999999995,428849.394,431695.621,8,400,,,
trial,html.Screen,4_113_0,2023-11-01T16:02:40.852Z,,0,3,,2440.779000000155,response,ISIC_0031863.JPG,5,ISIC_0011435.JPG,ISIC_0031863.JPG,false,1,keypress(m),500,434136.69999999995,434136.40000000014,431679.155,431682.69999999995,431695.621,434198.416,8,400,14,,ISIC_0011435.JPG
break,html.Screen,4_113_1,2023-11-01T16:02:40.854Z,,0,,,NaN,,,,,,false,,,,434138.99999999977,434138.80000000005,,434137.80000000005,,434198.416,8,400,,,
break_continue,html.Screen,4_113_2,2023-11-01T16:02:40.854Z,,0,,,NaN,,,,,,false,,,,434139.30000000005,434139.30000000005,,434139.09999999986,,434198.416,8,400,,,
sequence,flow.Sequence,4_113,2023-11-01T16:02:40.854Z,,0,,,2443.679000000062,completion,,,,,false,,,,434139.40000000014,434139.30000000005,431679.155,431682.59999999986,431695.621,434198.416,8,400,,,
trial,html.Screen,4_114_0,2023-11-01T16:02:43.196Z,,0,3,,2282.1839999998338,response,ISIC_0028136.JPG,6,ISIC_0027832.JPG,ISIC_0027832.JPG,false,0,keypress(z),500,436480.69999999995,436480.59999999986,434128.972,434139.49999999977,434198.416,436530.387,8,400,15,,ISIC_0028136.JPG
break,html.Screen,4_114_1,2023-11-01T16:02:43.196Z,,0,,,NaN,,,,,,false,,,,436481.30000000005,436481.30000000005,,436480.90000000014,,436530.387,8,400,,,
break_continue,html.Screen,4_114_2,2023-11-01T16:02:43.196Z,,0,,,NaN,,,,,,false,,,,436481.69999999995,436481.49999999977,,436481.49999999977,,436530.387,8,400,,,
sequence,flow.Sequence,4_114,2023-11-01T16:02:43.197Z,,0,,,2283.0839999997406,completion,,,,,false,,,,436481.69999999995,436481.49999999977,434128.972,434139.49999999977,434198.416,436530.387,8,400,,,
trial,html.Screen,4_115_0,2023-11-01T16:02:45.658Z,,0,3,,2412.1129999997793,response,ISIC_0072997.JPG,5,ISIC_0062401.JPG,ISIC_0072997.JPG,false,1,keypress(m),500,438942.80000000005,438942.49999999977,436479.137,436481.80000000005,436530.387,438967.201,8,400,16,,ISIC_0062401.JPG
break,html.Screen,4_115_1,2023-11-01T16:02:45.660Z,,0,,,NaN,,,,,,false,,,,438944.99999999977,438944.69999999995,,438942.99999999977,,438967.201,8,400,,,
break_continue,html.Screen,4_115_2,2023-11-01T16:02:45.660Z,,0,,,NaN,,,,,,false,,,,438945.69999999995,438945.59999999986,,438945.40000000014,,438967.201,8,400,,,
sequence,flow.Sequence,4_115,2023-11-01T16:02:45.661Z,,0,,,2415.2129999998724,completion,,,,,false,,,,438945.80000000005,438945.59999999986,436479.137,436481.80000000005,436530.387,438967.201,8,400,,,
trial,html.Screen,4_116_0,2023-11-01T16:02:48.133Z,,0,3,,2450.8989999998594,response,ISIC_7378303.JPG,23,ISIC_0613014.JPG,ISIC_0613014.JPG,false,0,keypress(z),500,441418.40000000014,441418.09999999986,438929.059,438945.90000000014,438967.201,441428.901,8,400,17,,ISIC_7378303.JPG
break,html.Screen,4_116_1,2023-11-01T16:02:48.134Z,,0,,,NaN,,,,,,false,,,,441419.59999999986,441419.30000000005,,441418.59999999986,,441428.901,8,400,,,
break_continue,html.Screen,4_116_2,2023-11-01T16:02:48.135Z,,0,,,NaN,,,,,,false,,,,441419.90000000014,441419.80000000005,,441419.69999999995,,441428.901,8,400,,,
sequence,flow.Sequence,4_116,2023-11-01T16:02:48.135Z,,0,,,2452.5990000000456,completion,,,,,false,,,,441419.99999999977,441419.80000000005,438929.059,438945.80000000005,438967.201,441428.901,8,400,,,
trial,html.Screen,4_117_0,2023-11-01T16:02:50.494Z,,0,3,,2350.298999999941,response,ISIC_0028705.JPG,12,ISIC_0073115.JPG,ISIC_0028705.JPG,false,1,keypress(m),500,443779.69999999995,443779.19999999995,441412.104,441419.99999999977,441428.901,443795.564,8,400,18,,ISIC_0073115.JPG
break,html.Screen,4_117_1,2023-11-01T16:02:50.496Z,,0,,,NaN,,,,,,false,,,,443781.19999999995,443780.90000000014,,443780.19999999995,,443795.564,8,400,,,
break_continue,html.Screen,4_117_2,2023-11-01T16:02:50.496Z,,0,,,NaN,,,,,,false,,,,443781.49999999977,443781.40000000014,,443781.30000000005,,443795.564,8,400,,,
sequence,flow.Sequence,4_117,2023-11-01T16:02:50.496Z,,0,,,2352.499000000127,completion,,,,,false,,,,443781.59999999986,443781.40000000014,441412.104,441419.99999999977,441428.901,443795.564,8,400,,,
trial,html.Screen,4_118_0,2023-11-01T16:02:53.079Z,,0,3,,2568.0359999998473,response,ISIC_0032610.JPG,10,ISIC_0029296.JPG,ISIC_0032610.JPG,false,1,keypress(m),500,446363.80000000005,446363.59999999986,443778.896,443781.59999999986,443795.564,446406.976,8,400,19,,ISIC_0029296.JPG
break,html.Screen,4_118_1,2023-11-01T16:02:53.079Z,,0,,,NaN,,,,,,false,,,,446364.59999999986,446364.49999999977,,446364.09999999986,,446406.976,8,400,,,
break_continue,html.Screen,4_118_2,2023-11-01T16:02:53.080Z,,0,,,NaN,,,,,,false,,,,446364.90000000014,446364.80000000005,,446364.69999999995,,446406.976,8,400,,,
sequence,flow.Sequence,4_118,2023-11-01T16:02:53.080Z,,0,,,2569.2360000000335,completion,,,,,false,,,,446364.99999999977,446364.80000000005,443778.896,443781.59999999986,443795.564,446406.976,8,400,,,
trial,html.Screen,4_119_0,2023-11-01T16:02:55.470Z,,0,3,,2348.3240000000224,response,ISIC_0030843.JPG,9,ISIC_8655206.JPG,ISIC_8655206.JPG,false,0,keypress(z),500,448755.49999999977,448755.30000000005,446361.98,446364.99999999977,446406.976,448800.626,8,400,20,,ISIC_0030843.JPG
break,html.Screen,4_119_1,2023-11-01T16:02:55.471Z,,0,,,NaN,,,,,,false,,,,448756.09999999986,448755.90000000014,,448755.69999999995,,448800.626,8,400,,,
break_continue,html.Screen,4_119_2,2023-11-01T16:02:55.471Z,,0,,,NaN,,,,,,false,,,,448756.19999999995,448756.19999999995,,448756.09999999986,,448800.626,8,400,,,
sequence,flow.Sequence,4_119,2023-11-01T16:02:55.471Z,,0,,,2349.223999999929,completion,,,,,false,,,,448756.30000000005,448756.19999999995,446361.98,446364.99999999977,446406.976,448800.626,8,400,,,
trial,html.Screen,4_120_0,2023-11-01T16:02:57.922Z,,0,3,,2406.073999999964,response,ISIC_0027798.JPG,5,ISIC_0034239.JPG,ISIC_0027798.JPG,false,1,keypress(m),500,451206.80000000005,451206.69999999995,448745.232,448756.40000000014,448800.626,451212.609,8,400,21,,ISIC_0034239.JPG
break,html.Screen,4_120_1,2023-11-01T16:02:57.922Z,,0,,,NaN,,,,,,false,,,,451207.49999999977,451207.40000000014,,451206.99999999977,,451212.609,8,400,,,
break_continue,html.Screen,4_120_2,2023-11-01T16:02:57.922Z,,0,,,NaN,,,,,,false,,,,451207.69999999995,451207.59999999986,,451207.59999999986,,451212.609,8,400,,,
sequence,flow.Sequence,4_120,2023-11-01T16:02:57.923Z,,0,,,2406.973999999871,completion,,,,,false,,,,451207.69999999995,451207.59999999986,448745.232,448756.40000000014,448800.626,451212.609,8,400,,,
trial,html.Screen,4_121_0,2023-11-01T16:03:00.563Z,,0,3,,2635.5909999999567,response,ISIC_0032680.JPG,4,ISIC_0010648.JPG,ISIC_0010648.JPG,false,0,keypress(z),500,453848.40000000014,453848.19999999995,451195.051,451207.80000000005,451212.609,453873.661,8,400,22,,ISIC_0032680.JPG
break,html.Screen,4_121_1,2023-11-01T16:03:00.564Z,,0,,,NaN,,,,,,false,,,,453848.90000000014,453848.90000000014,,453848.49999999977,,453873.661,8,400,,,
break_continue,html.Screen,4_121_2,2023-11-01T16:03:00.564Z,,0,,,NaN,,,,,,false,,,,453849.19999999995,453848.99999999977,,453848.99999999977,,453873.661,8,400,,,
sequence,flow.Sequence,4_121,2023-11-01T16:03:00.564Z,,0,,,2636.3909999997704,completion,,,,,false,,,,453849.19999999995,453848.99999999977,451195.051,451207.80000000005,451212.609,453873.661,8,400,,,
trial,html.Screen,4_122_0,2023-11-01T16:03:03.050Z,,0,3,,2461.1390000000247,response,ISIC_0071481.JPG,11,ISIC_1632696.JPG,ISIC_0071481.JPG,false,1,keypress(m),500,456335.09999999986,456334.80000000005,453845.318,453849.30000000005,453873.661,456393.305,8,400,23,,ISIC_1632696.JPG
break,html.Screen,4_122_1,2023-11-01T16:03:03.051Z,,0,,,NaN,,,,,,false,,,,456335.80000000005,456335.69999999995,,456335.30000000005,,456393.305,8,400,,,
