sender,sender_type,sender_id,timestamp,meta,,blockNo,condition,duration,ended_on,img_left,img_reveal,img_right,loser,practice,response,response_action,selection_duration,time_commit,time_end,time_render,time_run,time_show,time_switch,total_blocks,total_trials,trialNo,url,winner
informed_consent,html.Screen,0,2023-10-30T23:01:05.477Z,"{""labjs_version"":""20.2.4"",""labjs_build"":{""flavor"":""production"",""commit"":""f5b4a49f956347addd546a832a3327688c2c0fef""},""location"":""https://run.pavlovia.org/MurrayBennett/melanoma-2afc/?participant=66305&platform=sona"",""userAgent"":""Mozilla/5.0 (Windows NT 10.0; Win64; x64; rv:109.0) Gecko/20100101 Firefox/118.0"",""platform"":""Win32"",""language"":""en-US"",""locale"":""en-US"",""timeZone"":""America/Chicago"",""timezoneOffset"":300,""screen_width"":1920,""screen_height"":1080,""scroll_width"":1920,""scroll_height"":871,""window_innerWidth"":1920,""window_innerHeight"":919,""devicePixelRatio"":1}",,,,31375.98,response,,,,,,consent,click button,,33977,33965,2582.08,2583,2589.02,33985.12,,,,"{""participant"":""66305"",""platform"":""sona""}",
Welcome,html.Screen,1,2023-10-30T23:01:12.931Z,,,,regular,7432.879999999997,response,,,,,,continue,click button,,41432,41418,33975.76,33977,33985.12,41443.4,,,,,
trial,html.Screen,2_0_0,2023-10-30T23:01:20.182Z,,0,0,,7238.5999999999985,response,ISIC_4679428.JPG,,ISIC_0061792.JPG,ISIC_0061792.JPG,true,0,keypress(z),500,48682,48682,41436.46,41432,41443.4,48683.1,1,6,1,,ISIC_4679428.JPG
sequence,flow.Sequence,2_0,2023-10-30T23:01:20.183Z,,0,,,7238.5999999999985,completion,,,,,true,,,,48683,48682,41436.46,41432,41443.4,48683.1,1,6,,,
trial,html.Screen,2_1_0,2023-10-30T23:01:24.422Z,,0,0,,4238.9000000000015,response,ISIC_5199497.JPG,,ISIC_0776486.JPG,ISIC_0776486.JPG,true,0,keypress(z),500,52922,52922,48682.82,48683,48683.1,52923.42,1,6,2,,ISIC_5199497.JPG
sequence,flow.Sequence,2_1,2023-10-30T23:01:24.423Z,,0,,,4238.9000000000015,completion,,,,,true,,,,52923,52922,48682.82,48683,48683.1,52923.42,1,6,,,
trial,html.Screen,2_2_0,2023-10-30T23:01:28.126Z,,0,0,,3702.5800000000017,response,ISIC_2556187.JPG,,ISIC_8575776.JPG,ISIC_8575776.JPG,true,0,keypress(z),500,56626,56626,52922.98,52923,52923.42,56626.64,1,6,3,,ISIC_2556187.JPG
sequence,flow.Sequence,2_2,2023-10-30T23:01:28.126Z,,0,,,3702.5800000000017,completion,,,,,true,,,,56626,56626,52922.98,52923,52923.42,56626.64,1,6,,,
trial,html.Screen,2_3_0,2023-10-30T23:01:31.217Z,,0,0,,3090.3600000000006,response,ISIC_9238366.JPG,,ISIC_8141769.JPG,ISIC_8141769.JPG,true,0,keypress(z),500,59717,59717,56626.42,56626,56626.64,59717.62,1,6,4,,ISIC_9238366.JPG
sequence,flow.Sequence,2_3,2023-10-30T23:01:31.218Z,,0,,,3090.3600000000006,completion,,,,,true,,,,59717,59717,56626.42,56626,56626.64,59717.62,1,6,,,
trial,html.Screen,2_4_0,2023-10-30T23:01:33.943Z,,0,0,,2724.3799999999974,response,ISIC_8949026.JPG,,ISIC_9959593.JPG,ISIC_8949026.JPG,true,1,keypress(m),500,62443,62442,59717.38,59718,59717.62,62443.48,1,6,5,,ISIC_9959593.JPG
sequence,flow.Sequence,2_4,2023-10-30T23:01:33.944Z,,0,,,2724.3799999999974,completion,,,,,true,,,,62443,62442,59717.38,59718,59717.62,62443.48,1,6,,,
trial,html.Screen,2_5_0,2023-10-30T23:01:37.254Z,,0,0,,3310.519999999997,response,ISIC_0010479.JPG,,ISIC_0460240.JPG,ISIC_0010479.JPG,true,1,keypress(m),500,65755,65754,62443.26,62443,62443.48,65756.02,1,6,6,,ISIC_0460240.JPG
sequence,flow.Sequence,2_5,2023-10-30T23:01:37.254Z,,0,,,3310.519999999997,completion,,,,,true,,,,65755,65754,62443.26,62443,62443.48,65756.02,1,6,,,
loop,flow.Loop,2,2023-10-30T23:01:37.254Z,,,,,24310.6,completion,,,,,true,,,,65755,65754,41436.46,41432,41443.4,65756.02,1,6,,,
exp_instructions,html.Screen,3,2023-10-30T23:01:39.160Z,,,,,1896.979999999996,response,,,,,,continue,keypress(Space),,67660,67653,65754.78,65755,65756.02,67660.3,,,,,
trial,html.Screen,4_0_0,2023-10-30T23:01:43.451Z,,0,1,,4289.699999999997,response,ISIC_0009992.JPG,3,ISIC_2577938.JPG,ISIC_2577938.JPG,false,0,keypress(z),500,71950,71950,67660.22,67660,67660.3,71950.92,8,400,1,,ISIC_0009992.JPG
break,html.Screen,4_0_1,2023-10-30T23:01:43.451Z,,0,,,NaN,,,,,,false,,,,71951,71951,,71951,,71950.92,8,400,,,
break_continue,html.Screen,4_0_2,2023-10-30T23:01:43.452Z,,0,,,NaN,,,,,,false,,,,71951,71951,,71951,,71950.92,8,400,,,
sequence,flow.Sequence,4_0,2023-10-30T23:01:43.452Z,,0,,,4290.699999999997,completion,,,,,false,,,,71952,71951,67660.22,67660,67660.3,71950.92,8,400,,,
trial,html.Screen,4_1_0,2023-10-30T23:01:54.423Z,,0,1,,10971.080000000002,response,ISIC_7357474.JPG,22,ISIC_0030860.JPG,ISIC_7357474.JPG,false,1,keypress(m),500,82923,82922,71950.7,71952,71950.92,82923.94,8,400,2,,ISIC_0030860.JPG
break,html.Screen,4_1_1,2023-10-30T23:01:54.425Z,,0,,,NaN,,,,,,false,,,,82925,82925,,82924,,82923.94,8,400,,,
break_continue,html.Screen,4_1_2,2023-10-30T23:01:54.425Z,,0,,,NaN,,,,,,false,,,,82925,82925,,82925,,82923.94,8,400,,,
sequence,flow.Sequence,4_1,2023-10-30T23:01:54.425Z,,0,,,10974.080000000002,completion,,,,,false,,,,82926,82925,71950.7,71952,71950.92,82923.94,8,400,,,
trial,html.Screen,4_2_0,2023-10-30T23:01:57.292Z,,0,1,,2868.0599999999977,response,ISIC_0010543.JPG,5,ISIC_1351604.JPG,ISIC_1351604.JPG,false,0,keypress(z),500,85792,85792,82923.64,82926,82923.94,85792.48,8,400,3,,ISIC_0010543.JPG
break,html.Screen,4_2_1,2023-10-30T23:01:57.293Z,,0,,,NaN,,,,,,false,,,,85793,85793,,85793,,85792.48,8,400,,,
break_continue,html.Screen,4_2_2,2023-10-30T23:01:57.293Z,,0,,,NaN,,,,,,false,,,,85793,85793,,85793,,85792.48,8,400,,,
sequence,flow.Sequence,4_2,2023-10-30T23:01:57.293Z,,0,,,2869.0599999999977,completion,,,,,false,,,,85793,85793,82923.64,82926,82923.94,85792.48,8,400,,,
trial,html.Screen,4_3_0,2023-10-30T23:02:00.209Z,,0,1,,2916.520000000004,response,ISIC_0911448.JPG,4,ISIC_9402324.JPG,ISIC_9402324.JPG,false,0,keypress(z),500,88709,88709,85792.28,85793,85792.48,88709.4,8,400,4,,ISIC_0911448.JPG
break,html.Screen,4_3_1,2023-10-30T23:02:00.210Z,,0,,,NaN,,,,,,false,,,,88710,88710,,88710,,88709.4,8,400,,,
break_continue,html.Screen,4_3_2,2023-10-30T23:02:00.210Z,,0,,,NaN,,,,,,false,,,,88710,88710,,88710,,88709.4,8,400,,,
sequence,flow.Sequence,4_3,2023-10-30T23:02:00.210Z,,0,,,2917.520000000004,completion,,,,,false,,,,88710,88710,85792.28,85793,85792.48,88709.4,8,400,,,
trial,html.Screen,4_4_0,2023-10-30T23:02:04.305Z,,0,1,,4094.600000000006,response,ISIC_1308649.JPG,1,ISIC_8065633.JPG,ISIC_8065633.JPG,false,0,keypress(z),500,92805,92804,88709.2,88710,88709.4,92811.48,8,400,5,,ISIC_1308649.JPG
break,html.Screen,4_4_1,2023-10-30T23:02:04.306Z,,0,,,NaN,,,,,,false,,,,92805,92805,,92805,,92811.48,8,400,,,
break_continue,html.Screen,4_4_2,2023-10-30T23:02:04.306Z,,0,,,NaN,,,,,,false,,,,92806,92806,,92806,,92811.48,8,400,,,
sequence,flow.Sequence,4_4,2023-10-30T23:02:04.306Z,,0,,,4096.600000000006,completion,,,,,false,,,,92806,92806,88709.2,88710,88709.4,92811.48,8,400,,,
trial,html.Screen,4_5_0,2023-10-30T23:02:07.655Z,,0,1,,3342.520000000004,response,ISIC_0028444.JPG,7,ISIC_7904250.JPG,ISIC_7904250.JPG,false,0,keypress(z),500,96154,96154,92804.54,92806,92811.48,96154.6,8,400,6,,ISIC_0028444.JPG
break,html.Screen,4_5_1,2023-10-30T23:02:07.655Z,,0,,,NaN,,,,,,false,,,,96155,96155,,96154,,96154.6,8,400,,,
break_continue,html.Screen,4_5_2,2023-10-30T23:02:07.656Z,,0,,,NaN,,,,,,false,,,,96155,96155,,96155,,96154.6,8,400,,,
sequence,flow.Sequence,4_5,2023-10-30T23:02:07.656Z,,0,,,3343.520000000004,completion,,,,,false,,,,96156,96155,92804.54,92806,92811.48,96154.6,8,400,,,
trial,html.Screen,4_6_0,2023-10-30T23:02:10.358Z,,0,1,,2703.399999999994,response,ISIC_3180213.JPG,2,ISIC_0944273.JPG,ISIC_3180213.JPG,false,1,keypress(m),500,98858,98858,96154.42,96156,96154.6,98860.1,8,400,7,,ISIC_0944273.JPG
break,html.Screen,4_6_1,2023-10-30T23:02:10.359Z,,0,,,NaN,,,,,,false,,,,98860,98860,,98859,,98860.1,8,400,,,
break_continue,html.Screen,4_6_2,2023-10-30T23:02:10.360Z,,0,,,NaN,,,,,,false,,,,98860,98860,,98860,,98860.1,8,400,,,
sequence,flow.Sequence,4_6,2023-10-30T23:02:10.360Z,,0,,,2705.399999999994,completion,,,,,false,,,,98860,98860,96154.42,96156,96154.6,98860.1,8,400,,,
trial,html.Screen,4_7_0,2023-10-30T23:02:12.966Z,,0,1,,2605.899999999994,response,ISIC_0261253.JPG,2,ISIC_3747979.JPG,ISIC_0261253.JPG,false,1,keypress(m),500,101466,101466,98858.78,98860,98860.1,101466.3,8,400,8,,ISIC_3747979.JPG
break,html.Screen,4_7_1,2023-10-30T23:02:12.967Z,,0,,,NaN,,,,,,false,,,,101467,101467,,101466,,101466.3,8,400,,,
break_continue,html.Screen,4_7_2,2023-10-30T23:02:12.967Z,,0,,,NaN,,,,,,false,,,,101467,101467,,101467,,101466.3,8,400,,,
sequence,flow.Sequence,4_7,2023-10-30T23:02:12.967Z,,0,,,2606.899999999994,completion,,,,,false,,,,101467,101467,98858.78,98860,98860.1,101466.3,8,400,,,
trial,html.Screen,4_8_0,2023-10-30T23:02:16.117Z,,0,1,,3150.699999999997,response,ISIC_0034208.JPG,2,ISIC_4345000.JPG,ISIC_4345000.JPG,false,0,keypress(z),500,104617,104617,101466.1,101467,101466.3,104617.94,8,400,9,,ISIC_0034208.JPG
break,html.Screen,4_8_1,2023-10-30T23:02:16.118Z,,0,,,NaN,,,,,,false,,,,104619,104619,,104617,,104617.94,8,400,,,
break_continue,html.Screen,4_8_2,2023-10-30T23:02:16.118Z,,0,,,NaN,,,,,,false,,,,104619,104619,,104619,,104617.94,8,400,,,
sequence,flow.Sequence,4_8,2023-10-30T23:02:16.118Z,,0,,,3152.699999999997,completion,,,,,false,,,,104619,104619,101466.1,101467,101466.3,104617.94,8,400,,,
trial,html.Screen,4_9_0,2023-10-30T23:02:18.646Z,,0,1,,2528.0599999999977,response,ISIC_2481044.JPG,3,ISIC_0029480.JPG,ISIC_0029480.JPG,false,0,keypress(z),500,107147,107146,104617.74,104619,104617.94,107146.64,8,400,10,,ISIC_2481044.JPG
break,html.Screen,4_9_1,2023-10-30T23:02:18.647Z,,0,,,NaN,,,,,,false,,,,107147,107147,,107147,,107146.64,8,400,,,
break_continue,html.Screen,4_9_2,2023-10-30T23:02:18.647Z,,0,,,NaN,,,,,,false,,,,107147,107147,,107147,,107146.64,8,400,,,
sequence,flow.Sequence,4_9,2023-10-30T23:02:18.647Z,,0,,,2529.0599999999977,completion,,,,,false,,,,107147,107147,104617.74,104619,104617.94,107146.64,8,400,,,
trial,html.Screen,4_10_0,2023-10-30T23:02:21.399Z,,0,1,,2751.3600000000006,response,ISIC_7380353.JPG,1,ISIC_0025464.JPG,ISIC_7380353.JPG,false,1,keypress(m),500,109898,109898,107146.48,107147,107146.64,109898.74,8,400,11,,ISIC_0025464.JPG
break,html.Screen,4_10_1,2023-10-30T23:02:21.399Z,,0,,,NaN,,,,,,false,,,,109899,109899,,109898,,109898.74,8,400,,,
break_continue,html.Screen,4_10_2,2023-10-30T23:02:21.399Z,,0,,,NaN,,,,,,false,,,,109899,109899,,109899,,109898.74,8,400,,,
sequence,flow.Sequence,4_10,2023-10-30T23:02:21.400Z,,0,,,2752.3600000000006,completion,,,,,false,,,,109899,109899,107146.48,107147,107146.64,109898.74,8,400,,,
trial,html.Screen,4_11_0,2023-10-30T23:02:24.566Z,,0,1,,3168.2599999999948,response,ISIC_0069189.JPG,18,ISIC_0029021.JPG,ISIC_0069189.JPG,false,1,keypress(m),500,113067,113067,109898.4,109899,109898.74,113068.48,8,400,12,,ISIC_0029021.JPG
break,html.Screen,4_11_1,2023-10-30T23:02:24.567Z,,0,,,NaN,,,,,,false,,,,113068,113067,,113067,,113068.48,8,400,,,
break_continue,html.Screen,4_11_2,2023-10-30T23:02:24.567Z,,0,,,NaN,,,,,,false,,,,113068,113068,,113068,,113068.48,8,400,,,
sequence,flow.Sequence,4_11,2023-10-30T23:02:24.567Z,,0,,,3169.2599999999948,completion,,,,,false,,,,113068,113068,109898.4,109899,109898.74,113068.48,8,400,,,
trial,html.Screen,4_12_0,2023-10-30T23:02:36.458Z,,0,1,,12898.800000000003,timeout,ISIC_3485482.JPG,18,ISIC_1226882.JPG,,false,,,500,124958,124958,113066.64,113068,113068.48,125967.28,8,400,13,,
break,html.Screen,4_12_1,2023-10-30T23:02:36.459Z,,0,,,NaN,,,,,,false,,,,124959,124959,,124958,,125967.28,8,400,,,
break_continue,html.Screen,4_12_2,2023-10-30T23:02:36.459Z,,0,,,NaN,,,,,,false,,,,124959,124959,,124959,,125967.28,8,400,,,
sequence,flow.Sequence,4_12,2023-10-30T23:02:36.459Z,,0,,,11890.520000000004,completion,,,,,false,,,,124959,124959,113066.64,113068,113068.48,125967.28,8,400,,,
trial,html.Screen,4_13_0,2023-10-30T23:02:48.957Z,,0,1,,11503.799999999988,timeout,ISIC_2732573.JPG,4,ISIC_4241907.JPG,ISIC_4241907.JPG,false,,,500,137458,137458,125963.56,124959,125967.28,137471.08,8,400,14,,ISIC_2732573.JPG
break,html.Screen,4_13_1,2023-10-30T23:02:48.959Z,,0,,,NaN,,,,,,false,,,,137458,137458,,137458,,137471.08,8,400,,,
break_continue,html.Screen,4_13_2,2023-10-30T23:02:48.959Z,,0,,,NaN,,,,,,false,,,,137459,137459,,137459,,137471.08,8,400,,,
sequence,flow.Sequence,4_13,2023-10-30T23:02:48.959Z,,0,,,11491.720000000001,completion,,,,,false,,,,137459,137459,125963.56,124959,125967.28,137471.08,8,400,,,
trial,html.Screen,4_14_0,2023-10-30T23:02:53.153Z,,0,1,,4180.920000000013,response,ISIC_0014912.JPG,20,ISIC_7185913.JPG,ISIC_0014912.JPG,false,1,keypress(m),500,141652,141652,137464.14,137459,137471.08,141652.74,8,400,15,,ISIC_7185913.JPG
break,html.Screen,4_14_1,2023-10-30T23:02:53.153Z,,0,,,NaN,,,,,,false,,,,141653,141653,,141652,,141652.74,8,400,,,
break_continue,html.Screen,4_14_2,2023-10-30T23:02:53.154Z,,0,,,NaN,,,,,,false,,,,141653,141653,,141653,,141652.74,8,400,,,
sequence,flow.Sequence,4_14,2023-10-30T23:02:53.154Z,,0,,,4181.920000000013,completion,,,,,false,,,,141653,141653,137464.14,137459,137471.08,141652.74,8,400,,,
trial,html.Screen,4_15_0,2023-10-30T23:02:55.633Z,,0,1,,2479.2600000000093,response,ISIC_0034000.JPG,2,ISIC_0066149.JPG,ISIC_0066149.JPG,false,0,keypress(z),500,144133,144132,141652.42,141653,141652.74,144133.3,8,400,16,,ISIC_0034000.JPG
break,html.Screen,4_15_1,2023-10-30T23:02:55.633Z,,0,,,NaN,,,,,,false,,,,144134,144133,,144133,,144133.3,8,400,,,
break_continue,html.Screen,4_15_2,2023-10-30T23:02:55.634Z,,0,,,NaN,,,,,,false,,,,144134,144134,,144134,,144133.3,8,400,,,
sequence,flow.Sequence,4_15,2023-10-30T23:02:55.634Z,,0,,,2481.2600000000093,completion,,,,,false,,,,144134,144134,141652.42,141653,141652.74,144133.3,8,400,,,
trial,html.Screen,4_16_0,2023-10-30T23:02:58.145Z,,0,1,,2510.7000000000116,response,ISIC_6829008.JPG,5,ISIC_6209119.JPG,ISIC_6209119.JPG,false,0,keypress(z),500,146644,146644,144133.16,144134,144133.3,146645.08,8,400,17,,ISIC_6829008.JPG
break,html.Screen,4_16_1,2023-10-30T23:02:58.145Z,,0,,,NaN,,,,,,false,,,,146646,146645,,146644,,146645.08,8,400,,,
break_continue,html.Screen,4_16_2,2023-10-30T23:02:58.146Z,,0,,,NaN,,,,,,false,,,,146646,146646,,146646,,146645.08,8,400,,,
sequence,flow.Sequence,4_16,2023-10-30T23:02:58.146Z,,0,,,2512.7000000000116,completion,,,,,false,,,,146646,146646,144133.16,144134,144133.3,146645.08,8,400,,,
trial,html.Screen,4_17_0,2023-10-30T23:03:00.909Z,,0,1,,2764.920000000013,response,ISIC_1930598.JPG,24,ISIC_0072730.JPG,ISIC_1930598.JPG,false,1,keypress(m),500,149410,149410,146644.82,146646,146645.08,149410.08,8,400,18,,ISIC_0072730.JPG
break,html.Screen,4_17_1,2023-10-30T23:03:00.911Z,,0,,,NaN,,,,,,false,,,,149411,149411,,149410,,149410.08,8,400,,,
break_continue,html.Screen,4_17_2,2023-10-30T23:03:00.911Z,,0,,,NaN,,,,,,false,,,,149411,149411,,149411,,149410.08,8,400,,,
sequence,flow.Sequence,4_17,2023-10-30T23:03:00.911Z,,0,,,2765.920000000013,completion,,,,,false,,,,149411,149411,146644.82,146646,146645.08,149410.08,8,400,,,
trial,html.Screen,4_18_0,2023-10-30T23:03:13.518Z,,0,1,,28227.340000000026,timeout,ISIC_3203344.JPG,3,ISIC_9879347.JPG,,false,,,500,162018,162018,149409.86,149411,149410.08,177637.42,8,400,19,,
break,html.Screen,4_18_1,2023-10-30T23:03:13.519Z,,0,,,NaN,,,,,,false,,,,162019,162019,,162018,,177637.42,8,400,,,
break_continue,html.Screen,4_18_2,2023-10-30T23:03:13.519Z,,0,,,NaN,,,,,,false,,,,162020,162020,,162020,,177637.42,8,400,,,
sequence,flow.Sequence,4_18,2023-10-30T23:03:13.520Z,,0,,,12609.920000000013,completion,,,,,false,,,,162020,162020,149409.86,149411,149410.08,177637.42,8,400,,,
trial,html.Screen,4_19_0,2023-10-30T23:03:34.344Z,,0,1,,5206.579999999987,response,ISIC_0033562.JPG,5,ISIC_0046622.JPG,ISIC_0033562.JPG,false,1,keypress(m),500,182844,182844,170025.98,162020,177637.42,182845.36,8,400,20,,ISIC_0046622.JPG
break,html.Screen,4_19_1,2023-10-30T23:03:34.345Z,,0,,,NaN,,,,,,false,,,,182845,182845,,182844,,182845.36,8,400,,,
break_continue,html.Screen,4_19_2,2023-10-30T23:03:34.345Z,,0,,,NaN,,,,,,false,,,,182845,182845,,182845,,182845.36,8,400,,,
sequence,flow.Sequence,4_19,2023-10-30T23:03:34.345Z,,0,,,5207.579999999987,completion,,,,,false,,,,182845,182845,170025.98,162020,177637.42,182845.36,8,400,,,
trial,html.Screen,4_20_0,2023-10-30T23:03:37.173Z,,0,1,,2828.640000000014,response,ISIC_4107250.JPG,1,ISIC_4438786.JPG,ISIC_4438786.JPG,false,0,keypress(z),500,185674,185674,182843.88,182845,182845.36,185674.16,8,400,21,,ISIC_4107250.JPG
break,html.Screen,4_20_1,2023-10-30T23:03:37.174Z,,0,,,NaN,,,,,,false,,,,185675,185674,,185674,,185674.16,8,400,,,
break_continue,html.Screen,4_20_2,2023-10-30T23:03:37.175Z,,0,,,NaN,,,,,,false,,,,185675,185675,,185675,,185674.16,8,400,,,
sequence,flow.Sequence,4_20,2023-10-30T23:03:37.176Z,,0,,,2829.640000000014,completion,,,,,false,,,,185675,185675,182843.88,182845,182845.36,185674.16,8,400,,,
trial,html.Screen,4_21_0,2023-10-30T23:03:39.836Z,,0,1,,2661.8399999999965,response,ISIC_3157046.JPG,6,ISIC_9109361.JPG,ISIC_3157046.JPG,false,1,keypress(m),500,188336,188336,185673.94,185675,185674.16,188336.16,8,400,22,,ISIC_9109361.JPG
break,html.Screen,4_21_1,2023-10-30T23:03:39.837Z,,0,,,NaN,,,,,,false,,,,188337,188337,,188336,,188336.16,8,400,,,
break_continue,html.Screen,4_21_2,2023-10-30T23:03:39.837Z,,0,,,NaN,,,,,,false,,,,188337,188337,,188337,,188336.16,8,400,,,
sequence,flow.Sequence,4_21,2023-10-30T23:03:39.837Z,,0,,,2662.8399999999965,completion,,,,,false,,,,188337,188337,185673.94,185675,185674.16,188336.16,8,400,,,
trial,html.Screen,4_22_0,2023-10-30T23:03:44.769Z,,0,1,,4932.8399999999965,response,ISIC_0055714.JPG,3,ISIC_0013936.JPG,ISIC_0013936.JPG,false,0,keypress(z),500,193269,193269,188336,188337,188336.16,193269.74,8,400,23,,ISIC_0055714.JPG
break,html.Screen,4_22_1,2023-10-30T23:03:44.770Z,,0,,,NaN,,,,,,false,,,,193270,193270,,193269,,193269.74,8,400,,,
break_continue,html.Screen,4_22_2,2023-10-30T23:03:44.770Z,,0,,,NaN,,,,,,false,,,,193271,193271,,193270,,193269.74,8,400,,,
sequence,flow.Sequence,4_22,2023-10-30T23:03:44.770Z,,0,,,4934.8399999999965,completion,,,,,false,,,,193271,193271,188336,188337,188336.16,193269.74,8,400,,,
trial,html.Screen,4_23_0,2023-10-30T23:03:47.305Z,,0,1,,2535.2600000000093,response,ISIC_6717452.JPG,5,ISIC_0059786.JPG,ISIC_6717452.JPG,false,1,keypress(m),500,195805,195805,193269.58,193271,193269.74,195805.7,8,400,24,,ISIC_0059786.JPG
break,html.Screen,4_23_1,2023-10-30T23:03:47.306Z,,0,,,NaN,,,,,,false,,,,195806,195806,,195805,,195805.7,8,400,,,
break_continue,html.Screen,4_23_2,2023-10-30T23:03:47.306Z,,0,,,NaN,,,,,,false,,,,195807,195807,,195806,,195805.7,8,400,,,
sequence,flow.Sequence,4_23,2023-10-30T23:03:47.306Z,,0,,,2537.2600000000093,completion,,,,,false,,,,195807,195807,193269.58,193271,193269.74,195805.7,8,400,,,
trial,html.Screen,4_24_0,2023-10-30T23:03:49.729Z,,0,1,,2423.2999999999884,response,ISIC_0026500.JPG,4,ISIC_9756858.JPG,ISIC_9756858.JPG,false,0,keypress(z),500,198229,198229,195805.54,195807,195805.7,198241.94,8,400,25,,ISIC_0026500.JPG
break,html.Screen,4_24_1,2023-10-30T23:03:49.730Z,,0,,,NaN,,,,,,false,,,,198230,198230,,198229,,198241.94,8,400,,,
break_continue,html.Screen,4_24_2,2023-10-30T23:03:49.730Z,,0,,,NaN,,,,,,false,,,,198230,198230,,198230,,198241.94,8,400,,,
sequence,flow.Sequence,4_24,2023-10-30T23:03:49.730Z,,0,,,2424.2999999999884,completion,,,,,false,,,,198230,198230,195805.54,195807,195805.7,198241.94,8,400,,,
trial,html.Screen,4_25_0,2023-10-30T23:03:52.340Z,,0,1,,2598.0599999999977,response,ISIC_0034051.JPG,5,ISIC_1668831.JPG,ISIC_1668831.JPG,false,0,keypress(z),500,200840,200840,198235,198230,198241.94,200840.46,8,400,26,,ISIC_0034051.JPG
break,html.Screen,4_25_1,2023-10-30T23:03:52.341Z,,0,,,NaN,,,,,,false,,,,200841,200841,,200840,,200840.46,8,400,,,
break_continue,html.Screen,4_25_2,2023-10-30T23:03:52.342Z,,0,,,NaN,,,,,,false,,,,200841,200841,,200841,,200840.46,8,400,,,
sequence,flow.Sequence,4_25,2023-10-30T23:03:52.342Z,,0,,,2599.0599999999977,completion,,,,,false,,,,200841,200841,198235,198230,198241.94,200840.46,8,400,,,
trial,html.Screen,4_26_0,2023-10-30T23:03:54.873Z,,0,1,,2532.540000000008,response,ISIC_0010372.JPG,4,ISIC_0025464.JPG,ISIC_0010372.JPG,false,1,keypress(m),500,203373,203373,200840.14,200841,200840.46,203373.9,8,400,27,,ISIC_0025464.JPG
break,html.Screen,4_26_1,2023-10-30T23:03:54.874Z,,0,,,NaN,,,,,,false,,,,203374,203374,,203373,,203373.9,8,400,,,
break_continue,html.Screen,4_26_2,2023-10-30T23:03:54.874Z,,0,,,NaN,,,,,,false,,,,203374,203374,,203374,,203373.9,8,400,,,
sequence,flow.Sequence,4_26,2023-10-30T23:03:54.874Z,,0,,,2533.540000000008,completion,,,,,false,,,,203374,203374,200840.14,200841,200840.46,203373.9,8,400,,,
trial,html.Screen,4_27_0,2023-10-30T23:03:57.383Z,,0,1,,2509.100000000006,response,ISIC_0030423.JPG,14,ISIC_7612992.JPG,ISIC_0030423.JPG,false,1,keypress(m),500,205883,205883,203372.98,203374,203373.9,205883.4,8,400,28,,ISIC_7612992.JPG
break,html.Screen,4_27_1,2023-10-30T23:03:57.383Z,,0,,,NaN,,,,,,false,,,,205884,205884,,205883,,205883.4,8,400,,,
break_continue,html.Screen,4_27_2,2023-10-30T23:03:57.384Z,,0,,,NaN,,,,,,false,,,,205884,205884,,205884,,205883.4,8,400,,,
sequence,flow.Sequence,4_27,2023-10-30T23:03:57.384Z,,0,,,2510.100000000006,completion,,,,,false,,,,205884,205884,203372.98,203374,203373.9,205883.4,8,400,,,
trial,html.Screen,4_28_0,2023-10-30T23:04:00.315Z,,0,1,,2931.600000000006,response,ISIC_7587869.JPG,2,ISIC_0001105.JPG,ISIC_7587869.JPG,false,1,keypress(m),500,208815,208815,205883.28,205884,205883.4,208815.68,8,400,29,,ISIC_0001105.JPG
break,html.Screen,4_28_1,2023-10-30T23:04:00.316Z,,0,,,NaN,,,,,,false,,,,208816,208816,,208815,,208815.68,8,400,,,
break_continue,html.Screen,4_28_2,2023-10-30T23:04:00.316Z,,0,,,NaN,,,,,,false,,,,208816,208816,,208816,,208815.68,8,400,,,
sequence,flow.Sequence,4_28,2023-10-30T23:04:00.316Z,,0,,,2932.600000000006,completion,,,,,false,,,,208816,208816,205883.28,205884,205883.4,208815.68,8,400,,,
trial,html.Screen,4_29_0,2023-10-30T23:04:03.196Z,,0,1,,2880.320000000007,response,ISIC_8617084.JPG,0,ISIC_0071352.JPG,ISIC_8617084.JPG,false,1,keypress(m),500,211696,211696,208815.54,208816,208815.68,211695.62,8,400,30,,ISIC_0071352.JPG
break,html.Screen,4_29_1,2023-10-30T23:04:03.196Z,,0,,,NaN,,,,,,false,,,,211697,211696,,211696,,211695.62,8,400,,,
break_continue,html.Screen,4_29_2,2023-10-30T23:04:03.197Z,,0,,,NaN,,,,,,false,,,,211697,211697,,211697,,211695.62,8,400,,,
sequence,flow.Sequence,4_29,2023-10-30T23:04:03.197Z,,0,,,2881.320000000007,completion,,,,,false,,,,211697,211697,208815.54,208816,208815.68,211695.62,8,400,,,
trial,html.Screen,4_30_0,2023-10-30T23:04:05.822Z,,0,1,,2626.3800000000047,response,ISIC_0078703.JPG,3,ISIC_6712342.JPG,ISIC_0078703.JPG,false,1,keypress(m),500,214322,214322,211695.5,211697,211695.62,214325.5,8,400,31,,ISIC_6712342.JPG
break,html.Screen,4_30_1,2023-10-30T23:04:05.825Z,,0,,,NaN,,,,,,false,,,,214326,214326,,214323,,214325.5,8,400,,,
break_continue,html.Screen,4_30_2,2023-10-30T23:04:05.825Z,,0,,,NaN,,,,,,false,,,,214326,214326,,214326,,214325.5,8,400,,,
sequence,flow.Sequence,4_30,2023-10-30T23:04:05.825Z,,0,,,2630.3800000000047,completion,,,,,false,,,,214326,214326,211695.5,211697,211695.62,214325.5,8,400,,,
trial,html.Screen,4_31_0,2023-10-30T23:04:08.333Z,,0,1,,2507.5,response,ISIC_0033805.JPG,9,ISIC_0067804.JPG,ISIC_0067804.JPG,false,0,keypress(z),500,216834,216833,214322.42,214326,214325.5,216833.56,8,400,32,,ISIC_0033805.JPG
break,html.Screen,4_31_1,2023-10-30T23:04:08.334Z,,0,,,NaN,,,,,,false,,,,216834,216834,,216834,,216833.56,8,400,,,
break_continue,html.Screen,4_31_2,2023-10-30T23:04:08.334Z,,0,,,NaN,,,,,,false,,,,216835,216835,,216834,,216833.56,8,400,,,
sequence,flow.Sequence,4_31,2023-10-30T23:04:08.334Z,,0,,,2509.5,completion,,,,,false,,,,216835,216835,214322.42,214326,214325.5,216833.56,8,400,,,
trial,html.Screen,4_32_0,2023-10-30T23:04:11.180Z,,0,1,,2846.4400000000023,response,ISIC_8959928.JPG,1,ISIC_0054670.JPG,ISIC_8959928.JPG,false,1,keypress(m),500,219680,219680,216833.3,216835,216833.56,219680.1,8,400,33,,ISIC_0054670.JPG
break,html.Screen,4_32_1,2023-10-30T23:04:11.181Z,,0,,,NaN,,,,,,false,,,,219681,219681,,219680,,219680.1,8,400,,,
break_continue,html.Screen,4_32_2,2023-10-30T23:04:11.181Z,,0,,,NaN,,,,,,false,,,,219681,219681,,219681,,219680.1,8,400,,,
sequence,flow.Sequence,4_32,2023-10-30T23:04:11.181Z,,0,,,2847.4400000000023,completion,,,,,false,,,,219681,219681,216833.3,216835,216833.56,219680.1,8,400,,,
trial,html.Screen,4_33_0,2023-10-30T23:04:14.153Z,,0,1,,2971.899999999994,response,ISIC_0028291.JPG,1,ISIC_0011484.JPG,ISIC_0011484.JPG,false,0,keypress(z),500,222652,222652,219679.96,219681,219680.1,222652.46,8,400,34,,ISIC_0028291.JPG
break,html.Screen,4_33_1,2023-10-30T23:04:14.153Z,,0,,,NaN,,,,,,false,,,,222652,222652,,222652,,222652.46,8,400,,,
break_continue,html.Screen,4_33_2,2023-10-30T23:04:14.153Z,,0,,,NaN,,,,,,false,,,,222653,222653,,222653,,222652.46,8,400,,,
sequence,flow.Sequence,4_33,2023-10-30T23:04:14.154Z,,0,,,2972.899999999994,completion,,,,,false,,,,222653,222653,219679.96,219681,219680.1,222652.46,8,400,,,
trial,html.Screen,4_34_0,2023-10-30T23:04:17.743Z,,0,1,,3590.540000000008,response,ISIC_9130157.JPG,17,ISIC_0001602.JPG,ISIC_0001602.JPG,false,0,keypress(z),500,226243,226243,222652.3,222653,222652.46,226243.54,8,400,35,,ISIC_9130157.JPG
break,html.Screen,4_34_1,2023-10-30T23:04:17.744Z,,0,,,NaN,,,,,,false,,,,226244,226244,,226243,,226243.54,8,400,,,
break_continue,html.Screen,4_34_2,2023-10-30T23:04:17.744Z,,0,,,NaN,,,,,,false,,,,226245,226244,,226244,,226243.54,8,400,,,
sequence,flow.Sequence,4_34,2023-10-30T23:04:17.744Z,,0,,,3591.540000000008,completion,,,,,false,,,,226245,226244,222652.3,222653,222652.46,226243.54,8,400,,,
trial,html.Screen,4_35_0,2023-10-30T23:04:20.356Z,,0,1,,2611.459999999992,response,ISIC_0063950.JPG,29,ISIC_0025153.JPG,ISIC_0063950.JPG,false,1,keypress(m),500,228855,228855,226243.28,226245,226243.54,228855.52,8,400,36,,ISIC_0025153.JPG
break,html.Screen,4_35_1,2023-10-30T23:04:20.356Z,,0,,,NaN,,,,,,false,,,,228856,228856,,228855,,228855.52,8,400,,,
break_continue,html.Screen,4_35_2,2023-10-30T23:04:20.356Z,,0,,,NaN,,,,,,false,,,,228856,228856,,228856,,228855.52,8,400,,,
sequence,flow.Sequence,4_35,2023-10-30T23:04:20.357Z,,0,,,2612.459999999992,completion,,,,,false,,,,228856,228856,226243.28,226245,226243.54,228855.52,8,400,,,
trial,html.Screen,4_36_0,2023-10-30T23:04:23.219Z,,0,1,,2862.4800000000105,response,ISIC_0055143.JPG,27,ISIC_0013969.JPG,ISIC_0013969.JPG,false,0,keypress(z),500,231719,231718,228855.4,228856,228855.52,231719.04,8,400,37,,ISIC_0055143.JPG
break,html.Screen,4_36_1,2023-10-30T23:04:23.219Z,,0,,,NaN,,,,,,false,,,,231720,231720,,231719,,231719.04,8,400,,,
break_continue,html.Screen,4_36_2,2023-10-30T23:04:23.220Z,,0,,,NaN,,,,,,false,,,,231720,231720,,231720,,231719.04,8,400,,,
sequence,flow.Sequence,4_36,2023-10-30T23:04:23.220Z,,0,,,2864.4800000000105,completion,,,,,false,,,,231720,231720,228855.4,228856,228855.52,231719.04,8,400,,,
trial,html.Screen,4_37_0,2023-10-30T23:04:25.925Z,,0,1,,2705.959999999992,response,ISIC_3914140.JPG,18,ISIC_6383486.JPG,ISIC_3914140.JPG,false,1,keypress(m),500,234425,234425,231718.82,231720,231719.04,234424.88,8,400,38,,ISIC_6383486.JPG
break,html.Screen,4_37_1,2023-10-30T23:04:25.925Z,,0,,,NaN,,,,,,false,,,,234425,234425,,234425,,234424.88,8,400,,,
break_continue,html.Screen,4_37_2,2023-10-30T23:04:25.926Z,,0,,,NaN,,,,,,false,,,,234426,234426,,234425,,234424.88,8,400,,,
sequence,flow.Sequence,4_37,2023-10-30T23:04:25.926Z,,0,,,2706.959999999992,completion,,,,,false,,,,234426,234426,231718.82,231720,231719.04,234424.88,8,400,,,
trial,html.Screen,4_38_0,2023-10-30T23:04:28.515Z,,0,1,,2590.1199999999953,response,ISIC_1793821.JPG,16,ISIC_3717983.JPG,ISIC_3717983.JPG,false,0,keypress(z),500,237015,237015,234424.66,234426,234424.88,237015.4,8,400,39,,ISIC_1793821.JPG
break,html.Screen,4_38_1,2023-10-30T23:04:28.516Z,,0,,,NaN,,,,,,false,,,,237015,237015,,237015,,237015.4,8,400,,,
break_continue,html.Screen,4_38_2,2023-10-30T23:04:28.516Z,,0,,,NaN,,,,,,false,,,,237016,237016,,237016,,237015.4,8,400,,,
sequence,flow.Sequence,4_38,2023-10-30T23:04:28.516Z,,0,,,2591.1199999999953,completion,,,,,false,,,,237016,237016,234424.66,234426,234424.88,237015.4,8,400,,,
trial,html.Screen,4_39_0,2023-10-30T23:04:31.038Z,,0,1,,2521.600000000006,response,ISIC_3716686.JPG,25,ISIC_5026709.JPG,ISIC_3716686.JPG,false,1,keypress(m),500,239538,239537,237015.32,237016,237015.4,239537.56,8,400,40,,ISIC_5026709.JPG
break,html.Screen,4_39_1,2023-10-30T23:04:31.038Z,,0,,,NaN,,,,,,false,,,,239538,239538,,239538,,239537.56,8,400,,,
break_continue,html.Screen,4_39_2,2023-10-30T23:04:31.038Z,,0,,,NaN,,,,,,false,,,,239538,239538,,239538,,239537.56,8,400,,,
sequence,flow.Sequence,4_39,2023-10-30T23:04:31.038Z,,0,,,2522.600000000006,completion,,,,,false,,,,239538,239538,237015.32,237016,237015.4,239537.56,8,400,,,
trial,html.Screen,4_40_0,2023-10-30T23:04:33.543Z,,0,1,,2504.4400000000023,response,ISIC_3342474.JPG,23,ISIC_0001121.JPG,ISIC_0001121.JPG,false,0,keypress(z),500,242042,242042,239537.36,239539,239537.56,242042.86,8,400,41,,ISIC_3342474.JPG
break,html.Screen,4_40_1,2023-10-30T23:04:33.544Z,,0,,,NaN,,,,,,false,,,,242044,242043,,242043,,242042.86,8,400,,,
break_continue,html.Screen,4_40_2,2023-10-30T23:04:33.544Z,,0,,,NaN,,,,,,false,,,,242044,242044,,242044,,242042.86,8,400,,,
sequence,flow.Sequence,4_40,2023-10-30T23:04:33.544Z,,0,,,2506.4400000000023,completion,,,,,false,,,,242044,242044,239537.36,239539,239537.56,242042.86,8,400,,,
trial,html.Screen,4_41_0,2023-10-30T23:04:36.259Z,,0,1,,2715.140000000014,response,ISIC_0000043.JPG,0,ISIC_0010707.JPG,ISIC_0010707.JPG,false,0,keypress(z),500,244759,244758,242042.64,242044,242042.86,244758.88,8,400,42,,ISIC_0000043.JPG
break,html.Screen,4_41_1,2023-10-30T23:04:36.260Z,,0,,,NaN,,,,,,false,,,,244759,244759,,244759,,244758.88,8,400,,,
break_continue,html.Screen,4_41_2,2023-10-30T23:04:36.260Z,,0,,,NaN,,,,,,false,,,,244760,244759,,244759,,244758.88,8,400,,,
sequence,flow.Sequence,4_41,2023-10-30T23:04:36.260Z,,0,,,2716.140000000014,completion,,,,,false,,,,244760,244759,242042.64,242044,242042.86,244758.88,8,400,,,
trial,html.Screen,4_42_0,2023-10-30T23:04:38.763Z,,0,1,,2503.1199999999953,response,ISIC_2867416.JPG,5,ISIC_0014133.JPG,ISIC_2867416.JPG,false,1,keypress(m),500,247263,247262,244758.66,244760,244758.88,247265.3,8,400,43,,ISIC_0014133.JPG
break,html.Screen,4_42_1,2023-10-30T23:04:38.766Z,,0,,,NaN,,,,,,false,,,,247266,247265,,247264,,247265.3,8,400,,,
break_continue,html.Screen,4_42_2,2023-10-30T23:04:38.766Z,,0,,,NaN,,,,,,false,,,,247266,247266,,247266,,247265.3,8,400,,,
sequence,flow.Sequence,4_42,2023-10-30T23:04:38.766Z,,0,,,2507.1199999999953,completion,,,,,false,,,,247266,247266,244758.66,244760,244758.88,247265.3,8,400,,,
trial,html.Screen,4_43_0,2023-10-30T23:04:41.989Z,,0,1,,3223.7000000000116,response,ISIC_1470250.JPG,15,ISIC_0060341.JPG,ISIC_0060341.JPG,false,0,keypress(z),500,250489,250489,247264.04,247266,247265.3,250488.78,8,400,44,,ISIC_1470250.JPG
break,html.Screen,4_43_1,2023-10-30T23:04:41.989Z,,0,,,NaN,,,,,,false,,,,250490,250489,,250489,,250488.78,8,400,,,
break_continue,html.Screen,4_43_2,2023-10-30T23:04:41.990Z,,0,,,NaN,,,,,,false,,,,250490,250490,,250490,,250488.78,8,400,,,
sequence,flow.Sequence,4_43,2023-10-30T23:04:41.990Z,,0,,,3224.7000000000116,completion,,,,,false,,,,250490,250490,247264.04,247266,247265.3,250488.78,8,400,,,
trial,html.Screen,4_44_0,2023-10-30T23:04:45.291Z,,0,1,,3302.220000000001,response,ISIC_9301005.JPG,29,ISIC_2432848.JPG,ISIC_2432848.JPG,false,0,keypress(z),500,253791,253791,250488.56,250490,250488.78,253790.6,8,400,45,,ISIC_9301005.JPG
break,html.Screen,4_44_1,2023-10-30T23:04:45.291Z,,0,,,NaN,,,,,,false,,,,253791,253791,,253791,,253790.6,8,400,,,
break_continue,html.Screen,4_44_2,2023-10-30T23:04:45.292Z,,0,,,NaN,,,,,,false,,,,253792,253792,,253791,,253790.6,8,400,,,
sequence,flow.Sequence,4_44,2023-10-30T23:04:45.292Z,,0,,,3303.220000000001,completion,,,,,false,,,,253792,253792,250488.56,250490,250488.78,253790.6,8,400,,,
trial,html.Screen,4_45_0,2023-10-30T23:04:47.968Z,,0,1,,2677.399999999994,response,ISIC_0911264.JPG,21,ISIC_1885174.JPG,ISIC_1885174.JPG,false,0,keypress(z),500,256469,256468,253790.5,253792,253790.6,256468.82,8,400,46,,ISIC_0911264.JPG
break,html.Screen,4_45_1,2023-10-30T23:04:47.969Z,,0,,,NaN,,,,,,false,,,,256469,256469,,256469,,256468.82,8,400,,,
break_continue,html.Screen,4_45_2,2023-10-30T23:04:47.969Z,,0,,,NaN,,,,,,false,,,,256470,256470,,256469,,256468.82,8,400,,,
sequence,flow.Sequence,4_45,2023-10-30T23:04:47.969Z,,0,,,2679.399999999994,completion,,,,,false,,,,256470,256470,253790.5,253792,253790.6,256468.82,8,400,,,
trial,html.Screen,4_46_0,2023-10-30T23:04:51.018Z,,0,1,,3049.179999999993,response,ISIC_3096949.JPG,15,ISIC_0033492.JPG,ISIC_0033492.JPG,false,0,keypress(z),500,259518,259518,256468.58,256470,256468.82,259519.72,8,400,47,,ISIC_3096949.JPG
break,html.Screen,4_46_1,2023-10-30T23:04:51.018Z,,0,,,NaN,,,,,,false,,,,259518,259518,,259518,,259519.72,8,400,,,
break_continue,html.Screen,4_46_2,2023-10-30T23:04:51.019Z,,0,,,NaN,,,,,,false,,,,259519,259519,,259519,,259519.72,8,400,,,
sequence,flow.Sequence,4_46,2023-10-30T23:04:51.019Z,,0,,,3050.179999999993,completion,,,,,false,,,,259519,259519,256468.58,256470,256468.82,259519.72,8,400,,,
trial,html.Screen,4_47_0,2023-10-30T23:04:55.720Z,,0,1,,4701.279999999999,response,ISIC_0031248.JPG,21,ISIC_6905623.JPG,ISIC_6905623.JPG,false,0,keypress(z),500,264221,264221,259518.26,259519,259519.72,264221.26,8,400,48,,ISIC_0031248.JPG
break,html.Screen,4_47_1,2023-10-30T23:04:55.722Z,,0,,,NaN,,,,,,false,,,,264222,264222,,264221,,264221.26,8,400,,,
break_continue,html.Screen,4_47_2,2023-10-30T23:04:55.723Z,,0,,,NaN,,,,,,false,,,,264222,264222,,264222,,264221.26,8,400,,,
sequence,flow.Sequence,4_47,2023-10-30T23:04:55.723Z,,0,,,4702.279999999999,completion,,,,,false,,,,264223,264222,259518.26,259519,259519.72,264221.26,8,400,,,
trial,html.Screen,4_48_0,2023-10-30T23:04:58.445Z,,0,1,,2724.7399999999907,response,ISIC_1131588.JPG,2,ISIC_5377977.JPG,ISIC_1131588.JPG,false,1,keypress(m),500,266946,266946,264221.06,264223,264221.26,266945.92,8,400,49,,ISIC_5377977.JPG
break,html.Screen,4_48_1,2023-10-30T23:04:58.447Z,,0,,,NaN,,,,,,false,,,,266946,266946,,266946,,266945.92,8,400,,,
break_continue,html.Screen,4_48_2,2023-10-30T23:04:58.447Z,,0,,,NaN,,,,,,false,,,,266946,266946,,266946,,266945.92,8,400,,,
sequence,flow.Sequence,4_48,2023-10-30T23:04:58.447Z,,0,,,2724.7399999999907,completion,,,,,false,,,,266947,266946,264221.06,264223,264221.26,266945.92,8,400,,,
trial,html.Screen,4_49_0,2023-10-30T23:05:02.319Z,,0,1,,3873.0800000000163,response,ISIC_9545819.JPG,4,ISIC_1241817.JPG,ISIC_1241817.JPG,false,0,keypress(z),500,270819,270819,266945.8,266947,266945.92,270819.74,8,400,50,,ISIC_9545819.JPG
break,html.Screen,4_49_1,2023-10-30T23:05:12.312Z,,0,,,9997.799999999988,timeout,,,,,false,,,,280811,280810.6,270819.42,270819,270819.74,280817.54,8,400,,,
break_continue,html.Screen,4_49_2,2023-10-30T23:05:13.479Z,,0,,,1147.460000000021,response,,,,,false,continue,keypress(Space),,281979,281965,280810.6,280811,280817.54,281979.66,8,400,,,
sequence,flow.Sequence,4_49,2023-10-30T23:05:13.479Z,,0,,,15019.080000000016,completion,,,,,false,,,,281980,281965,266945.8,266947,266945.92,281979.66,8,400,,,
trial,html.Screen,4_50_0,2023-10-30T23:05:17.039Z,,0,2,,3558.3400000000256,response,ISIC_3663705.JPG,3,ISIC_0069273.JPG,ISIC_3663705.JPG,false,1,keypress(m),500,285538,285538,281979.58,281980,281979.66,285540.54,8,400,1,,ISIC_0069273.JPG
break,html.Screen,4_50_1,2023-10-30T23:05:17.039Z,,0,,,NaN,,,,,,false,,,,285539,285539,,285539,,285540.54,8,400,,,
break_continue,html.Screen,4_50_2,2023-10-30T23:05:17.040Z,,0,,,NaN,,,,,,false,,,,285539,285539,,285539,,285540.54,8,400,,,
sequence,flow.Sequence,4_50,2023-10-30T23:05:17.040Z,,0,,,3559.3400000000256,completion,,,,,false,,,,285540,285539,281979.58,281980,281979.66,285540.54,8,400,,,
trial,html.Screen,4_51_0,2023-10-30T23:05:19.924Z,,0,2,,2882.460000000021,response,ISIC_4918571.JPG,1,ISIC_0014548.JPG,ISIC_0014548.JPG,false,0,keypress(z),500,288423,288423,285538.66,285540,285540.54,288423.46,8,400,2,,ISIC_4918571.JPG
break,html.Screen,4_51_1,2023-10-30T23:05:19.924Z,,0,,,NaN,,,,,,false,,,,288424,288423,,288423,,288423.46,8,400,,,
break_continue,html.Screen,4_51_2,2023-10-30T23:05:19.924Z,,0,,,NaN,,,,,,false,,,,288424,288424,,288424,,288423.46,8,400,,,
sequence,flow.Sequence,4_51,2023-10-30T23:05:19.924Z,,0,,,2883.460000000021,completion,,,,,false,,,,288424,288424,285538.66,285540,285540.54,288423.46,8,400,,,
trial,html.Screen,4_52_0,2023-10-30T23:05:22.694Z,,0,2,,2770.539999999979,response,ISIC_0011744.JPG,24,ISIC_7630208.JPG,ISIC_0011744.JPG,false,1,keypress(m),500,291194,291194,288423.28,288424,288423.46,291194.04,8,400,3,,ISIC_7630208.JPG
break,html.Screen,4_52_1,2023-10-30T23:05:22.695Z,,0,,,NaN,,,,,,false,,,,291194,291194,,291194,,291194.04,8,400,,,
break_continue,html.Screen,4_52_2,2023-10-30T23:05:22.695Z,,0,,,NaN,,,,,,false,,,,291195,291195,,291194,,291194.04,8,400,,,
sequence,flow.Sequence,4_52,2023-10-30T23:05:22.695Z,,0,,,2771.539999999979,completion,,,,,false,,,,291195,291195,288423.28,288424,288423.46,291194.04,8,400,,,
trial,html.Screen,4_53_0,2023-10-30T23:05:25.215Z,,0,2,,2520.960000000021,response,ISIC_8523143.JPG,20,ISIC_0066094.JPG,ISIC_8523143.JPG,false,1,keypress(m),500,293715,293715,291193.9,291195,291194.04,293715.24,8,400,4,,ISIC_0066094.JPG
break,html.Screen,4_53_1,2023-10-30T23:05:25.215Z,,0,,,NaN,,,,,,false,,,,293715,293715,,293715,,293715.24,8,400,,,
break_continue,html.Screen,4_53_2,2023-10-30T23:05:25.215Z,,0,,,NaN,,,,,,false,,,,293716,293716,,293716,,293715.24,8,400,,,
sequence,flow.Sequence,4_53,2023-10-30T23:05:25.215Z,,0,,,2521.960000000021,completion,,,,,false,,,,293716,293716,291193.9,291195,291194.04,293715.24,8,400,,,
trial,html.Screen,4_54_0,2023-10-30T23:05:27.717Z,,0,2,,2500.7600000000093,response,ISIC_1871890.JPG,4,ISIC_0060629.JPG,ISIC_1871890.JPG,false,1,keypress(m),500,296216,296216,293715.08,293716,293715.24,296216.96,8,400,5,,ISIC_0060629.JPG
break,html.Screen,4_54_1,2023-10-30T23:05:27.718Z,,0,,,NaN,,,,,,false,,,,296217,296217,,296216,,296216.96,8,400,,,
break_continue,html.Screen,4_54_2,2023-10-30T23:05:27.718Z,,0,,,NaN,,,,,,false,,,,296217,296217,,296217,,296216.96,8,400,,,
sequence,flow.Sequence,4_54,2023-10-30T23:05:27.718Z,,0,,,2501.7600000000093,completion,,,,,false,,,,296217,296217,293715.08,293716,293715.24,296216.96,8,400,,,
trial,html.Screen,4_55_0,2023-10-30T23:05:30.756Z,,0,2,,3038.039999999979,response,ISIC_0031629.JPG,3,ISIC_8492957.JPG,ISIC_8492957.JPG,false,0,keypress(z),500,299256,299255,296216.8,296217,296216.96,299255.78,8,400,6,,ISIC_0031629.JPG
break,html.Screen,4_55_1,2023-10-30T23:05:30.756Z,,0,,,NaN,,,,,,false,,,,299256,299256,,299256,,299255.78,8,400,,,
break_continue,html.Screen,4_55_2,2023-10-30T23:05:30.757Z,,0,,,NaN,,,,,,false,,,,299256,299256,,299256,,299255.78,8,400,,,
sequence,flow.Sequence,4_55,2023-10-30T23:05:30.757Z,,0,,,3039.039999999979,completion,,,,,false,,,,299256,299256,296216.8,296217,296216.96,299255.78,8,400,,,
trial,html.Screen,4_56_0,2023-10-30T23:05:42.625Z,,0,2,,17893.219999999972,timeout,ISIC_6523645.JPG,14,ISIC_9918523.JPG,,false,,,500,311125,311125,299255.46,299257,299255.78,317149,8,400,7,,
break,html.Screen,4_56_1,2023-10-30T23:05:42.625Z,,0,,,NaN,,,,,,false,,,,311125,311125,,311125,,317149,8,400,,,
break_continue,html.Screen,4_56_2,2023-10-30T23:05:42.626Z,,0,,,NaN,,,,,,false,,,,311126,311125,,311125,,317149,8,400,,,
sequence,flow.Sequence,4_56,2023-10-30T23:05:42.626Z,,0,,,11869.219999999972,completion,,,,,false,,,,311126,311125,299255.46,299257,299255.78,317149,8,400,,,
trial,html.Screen,4_57_0,2023-10-30T23:06:00.514Z,,0,2,,17872.46000000002,timeout,ISIC_4442490.JPG,20,ISIC_9219356.JPG,,false,,,500,329014,329013,313134.8,311126,317149,335021.46,8,400,8,,
break,html.Screen,4_57_1,2023-10-30T23:06:00.514Z,,0,,,NaN,,,,,,false,,,,329014,329014,,329014,,335021.46,8,400,,,
break_continue,html.Screen,4_57_2,2023-10-30T23:06:00.514Z,,0,,,NaN,,,,,,false,,,,329014,329014,,329014,,335021.46,8,400,,,
sequence,flow.Sequence,4_57,2023-10-30T23:06:00.515Z,,0,,,11865,completion,,,,,false,,,,329014,329014,313134.8,311126,317149,335021.46,8,400,,,
trial,html.Screen,4_58_0,2023-10-30T23:06:18.384Z,,0,2,,17873.03999999998,timeout,ISIC_0056860.JPG,16,ISIC_9745562.JPG,,false,,,500,346885,346885,331019.88,329014,335021.46,352894.5,8,400,9,,
break,html.Screen,4_58_1,2023-10-30T23:06:18.385Z,,0,,,NaN,,,,,,false,,,,346885,346885,,346885,,352894.5,8,400,,,
break_continue,html.Screen,4_58_2,2023-10-30T23:06:18.386Z,,0,,,NaN,,,,,,false,,,,346886,346886,,346885,,352894.5,8,400,,,
sequence,flow.Sequence,4_58,2023-10-30T23:06:18.386Z,,0,,,11864.539999999979,completion,,,,,false,,,,346886,346886,331019.88,329014,335021.46,352894.5,8,400,,,
trial,html.Screen,4_59_0,2023-10-30T23:06:36.255Z,,0,2,,17871.96000000002,timeout,ISIC_8899350.JPG,14,ISIC_1178518.JPG,,false,,,500,364755,364755,348889.08,346886,352894.5,370766.46,8,400,10,,
break,html.Screen,4_59_1,2023-10-30T23:06:36.255Z,,0,,,NaN,,,,,,false,,,,364755,364755,,364755,,370766.46,8,400,,,
break_continue,html.Screen,4_59_2,2023-10-30T23:06:36.256Z,,0,,,NaN,,,,,,false,,,,364756,364756,,364755,,370766.46,8,400,,,
sequence,flow.Sequence,4_59,2023-10-30T23:06:36.256Z,,0,,,11861.5,completion,,,,,false,,,,364756,364756,348889.08,346886,352894.5,370766.46,8,400,,,
trial,html.Screen,4_60_0,2023-10-30T23:06:54.127Z,,0,2,,13002.839999999967,timeout,ISIC_3792196.JPG,13,ISIC_0897526.JPG,,false,,,500,382627,382626,366759.36,364756,370766.46,383769.3,8,400,11,,
break,html.Screen,4_60_1,2023-10-30T23:06:54.129Z,,0,,,NaN,,,,,,false,,,,382629,382629,,382628,,383769.3,8,400,,,
break_continue,html.Screen,4_60_2,2023-10-30T23:06:54.129Z,,0,,,NaN,,,,,,false,,,,382629,382629,,382629,,383769.3,8,400,,,
sequence,flow.Sequence,4_60,2023-10-30T23:06:54.129Z,,0,,,11862.539999999979,completion,,,,,false,,,,382630,382629,366759.36,364756,370766.46,383769.3,8,400,,,
trial,html.Screen,4_61_0,2023-10-30T23:07:01.416Z,,0,2,,6146.700000000012,response,ISIC_0059412.JPG,7,ISIC_0029389.JPG,ISIC_0029389.JPG,false,0,keypress(z),500,389916,389916,383402.92,382630,383769.3,389916.22,8,400,12,,ISIC_0059412.JPG
break,html.Screen,4_61_1,2023-10-30T23:07:01.417Z,,0,,,NaN,,,,,,false,,,,389917,389917,,389916,,389916.22,8,400,,,
break_continue,html.Screen,4_61_2,2023-10-30T23:07:01.417Z,,0,,,NaN,,,,,,false,,,,389917,389917,,389917,,389916.22,8,400,,,
sequence,flow.Sequence,4_61,2023-10-30T23:07:01.417Z,,0,,,6147.700000000012,completion,,,,,false,,,,389917,389917,383402.92,382630,383769.3,389916.22,8,400,,,
trial,html.Screen,4_62_0,2023-10-30T23:07:04.520Z,,0,2,,3103.780000000028,response,ISIC_1370142.JPG,2,ISIC_0002118.JPG,ISIC_1370142.JPG,false,1,keypress(m),500,393020,393020,389915.98,389917,389916.22,393020.22,8,400,13,,ISIC_0002118.JPG
break,html.Screen,4_62_1,2023-10-30T23:07:04.520Z,,0,,,NaN,,,,,,false,,,,393021,393021,,393020,,393020.22,8,400,,,
break_continue,html.Screen,4_62_2,2023-10-30T23:07:04.521Z,,0,,,NaN,,,,,,false,,,,393021,393021,,393021,,393020.22,8,400,,,
sequence,flow.Sequence,4_62,2023-10-30T23:07:04.521Z,,0,,,3104.780000000028,completion,,,,,false,,,,393021,393021,389915.98,389917,389916.22,393020.22,8,400,,,
trial,html.Screen,4_63_0,2023-10-30T23:07:13.358Z,,0,2,,8837.780000000028,response,ISIC_4796100.JPG,3,ISIC_6272501.JPG,ISIC_6272501.JPG,false,0,keypress(z),500,401858,401858,393019.9,393021,393020.22,401858.06,8,400,14,,ISIC_4796100.JPG
break,html.Screen,4_63_1,2023-10-30T23:07:13.359Z,,0,,,NaN,,,,,,false,,,,401859,401858,,401858,,401858.06,8,400,,,
break_continue,html.Screen,4_63_2,2023-10-30T23:07:13.359Z,,0,,,NaN,,,,,,false,,,,401859,401859,,401859,,401858.06,8,400,,,
sequence,flow.Sequence,4_63,2023-10-30T23:07:13.359Z,,0,,,8838.780000000028,completion,,,,,false,,,,401859,401859,393019.9,393021,393020.22,401858.06,8,400,,,
trial,html.Screen,4_64_0,2023-10-30T23:07:17.048Z,,0,2,,3688.9400000000023,response,ISIC_0031582.JPG,12,ISIC_0054167.JPG,ISIC_0054167.JPG,false,0,keypress(z),500,405547,405547,401857.92,401859,401858.06,405547.76,8,400,15,,ISIC_0031582.JPG
break,html.Screen,4_64_1,2023-10-30T23:07:17.049Z,,0,,,NaN,,,,,,false,,,,405548,405548,,405548,,405547.76,8,400,,,
break_continue,html.Screen,4_64_2,2023-10-30T23:07:17.049Z,,0,,,NaN,,,,,,false,,,,405549,405549,,405549,,405547.76,8,400,,,
sequence,flow.Sequence,4_64,2023-10-30T23:07:17.049Z,,0,,,3690.9400000000023,completion,,,,,false,,,,405549,405549,401857.92,401859,401858.06,405547.76,8,400,,,
trial,html.Screen,4_65_0,2023-10-30T23:07:19.912Z,,0,2,,2863.2399999999907,response,ISIC_3764173.JPG,3,ISIC_7025208.JPG,ISIC_7025208.JPG,false,0,keypress(z),500,408412,408411,405547.54,405549,405547.76,408411.9,8,400,16,,ISIC_3764173.JPG
break,html.Screen,4_65_1,2023-10-30T23:07:19.912Z,,0,,,NaN,,,,,,false,,,,408412,408412,,408412,,408411.9,8,400,,,
break_continue,html.Screen,4_65_2,2023-10-30T23:07:19.913Z,,0,,,NaN,,,,,,false,,,,408412,408412,,408412,,408411.9,8,400,,,
sequence,flow.Sequence,4_65,2023-10-30T23:07:19.913Z,,0,,,2864.2399999999907,completion,,,,,false,,,,408413,408412,405547.54,405549,405547.76,408411.9,8,400,,,
trial,html.Screen,4_66_0,2023-10-30T23:07:22.765Z,,0,2,,2853.0999999999767,response,ISIC_0055136.JPG,5,ISIC_4001990.JPG,ISIC_4001990.JPG,false,0,keypress(z),500,411265,411265,408411.68,408413,408411.9,411265.56,8,400,17,,ISIC_0055136.JPG
break,html.Screen,4_66_1,2023-10-30T23:07:22.765Z,,0,,,NaN,,,,,,false,,,,411266,411266,,411265,,411265.56,8,400,,,
break_continue,html.Screen,4_66_2,2023-10-30T23:07:22.766Z,,0,,,NaN,,,,,,false,,,,411266,411266,,411266,,411265.56,8,400,,,
sequence,flow.Sequence,4_66,2023-10-30T23:07:22.767Z,,0,,,2854.0999999999767,completion,,,,,false,,,,411266,411266,408411.68,408413,408411.9,411265.56,8,400,,,
trial,html.Screen,4_67_0,2023-10-30T23:07:26.545Z,,0,2,,3779.4400000000023,response,ISIC_0058071.JPG,2,ISIC_0014151.JPG,ISIC_0058071.JPG,false,1,keypress(m),500,415045,415045,411265.36,411266,411265.56,415045.88,8,400,18,,ISIC_0014151.JPG
break,html.Screen,4_67_1,2023-10-30T23:07:26.546Z,,0,,,NaN,,,,,,false,,,,415046,415046,,415045,,415045.88,8,400,,,
break_continue,html.Screen,4_67_2,2023-10-30T23:07:26.546Z,,0,,,NaN,,,,,,false,,,,415046,415046,,415046,,415045.88,8,400,,,
sequence,flow.Sequence,4_67,2023-10-30T23:07:26.546Z,,0,,,3780.4400000000023,completion,,,,,false,,,,415046,415046,411265.36,411266,411265.56,415045.88,8,400,,,
trial,html.Screen,4_68_0,2023-10-30T23:07:36.130Z,,0,2,,9584.119999999995,response,ISIC_0012653.JPG,5,ISIC_2050512.JPG,ISIC_2050512.JPG,false,0,keypress(z),500,424631,424630,415045.7,415047,415045.88,424630.76,8,400,19,,ISIC_0012653.JPG
break,html.Screen,4_68_1,2023-10-30T23:07:36.131Z,,0,,,NaN,,,,,,false,,,,424632,424631,,424631,,424630.76,8,400,,,
break_continue,html.Screen,4_68_2,2023-10-30T23:07:36.131Z,,0,,,NaN,,,,,,false,,,,424632,424632,,424632,,424630.76,8,400,,,
sequence,flow.Sequence,4_68,2023-10-30T23:07:36.131Z,,0,,,9586.119999999995,completion,,,,,false,,,,424632,424632,415045.7,415046,415045.88,424630.76,8,400,,,
trial,html.Screen,4_69_0,2023-10-30T23:07:39.299Z,,0,2,,3167.2399999999907,response,ISIC_0033832.JPG,20,ISIC_0070581.JPG,ISIC_0070581.JPG,false,0,keypress(z),500,427798,427798,424630.38,424632,424630.76,427799.1,8,400,20,,ISIC_0033832.JPG
break,html.Screen,4_69_1,2023-10-30T23:07:39.300Z,,0,,,NaN,,,,,,false,,,,427800,427800,,427798,,427799.1,8,400,,,
break_continue,html.Screen,4_69_2,2023-10-30T23:07:39.300Z,,0,,,NaN,,,,,,false,,,,427800,427800,,427800,,427799.1,8,400,,,
sequence,flow.Sequence,4_69,2023-10-30T23:07:39.300Z,,0,,,3169.2399999999907,completion,,,,,false,,,,427800,427800,424630.38,424632,424630.76,427799.1,8,400,,,
trial,html.Screen,4_70_0,2023-10-30T23:07:42.322Z,,0,2,,3022.9000000000233,response,ISIC_7107030.JPG,2,ISIC_0058837.JPG,ISIC_0058837.JPG,false,0,keypress(z),500,430822,430822,427798.94,427800,427799.1,430822.28,8,400,21,,ISIC_7107030.JPG
break,html.Screen,4_70_1,2023-10-30T23:07:42.323Z,,0,,,NaN,,,,,,false,,,,430822,430822,,430822,,430822.28,8,400,,,
break_continue,html.Screen,4_70_2,2023-10-30T23:07:42.323Z,,0,,,NaN,,,,,,false,,,,430823,430823,,430822,,430822.28,8,400,,,
sequence,flow.Sequence,4_70,2023-10-30T23:07:42.323Z,,0,,,3023.9000000000233,completion,,,,,false,,,,430823,430823,427798.94,427800,427799.1,430822.28,8,400,,,
trial,html.Screen,4_71_0,2023-10-30T23:07:45.091Z,,0,2,,2768.719999999972,response,ISIC_9631669.JPG,4,ISIC_0065351.JPG,ISIC_9631669.JPG,false,1,keypress(m),500,433591,433591,430821.92,430823,430822.28,433590.82,8,400,22,,ISIC_0065351.JPG
break,html.Screen,4_71_1,2023-10-30T23:07:45.091Z,,0,,,NaN,,,,,,false,,,,433592,433592,,433591,,433590.82,8,400,,,
break_continue,html.Screen,4_71_2,2023-10-30T23:07:45.092Z,,0,,,NaN,,,,,,false,,,,433592,433592,,433592,,433590.82,8,400,,,
sequence,flow.Sequence,4_71,2023-10-30T23:07:45.092Z,,0,,,2769.719999999972,completion,,,,,false,,,,433592,433592,430821.92,430823,430822.28,433590.82,8,400,,,
trial,html.Screen,4_72_0,2023-10-30T23:07:47.613Z,,0,2,,2522.179999999993,response,ISIC_0014061.JPG,29,ISIC_0032526.JPG,ISIC_0014061.JPG,false,1,keypress(m),500,436113,436113,433590.5,433592,433590.82,436113.56,8,400,23,,ISIC_0032526.JPG
break,html.Screen,4_72_1,2023-10-30T23:07:47.614Z,,0,,,NaN,,,,,,false,,,,436114,436114,,436113,,436113.56,8,400,,,
break_continue,html.Screen,4_72_2,2023-10-30T23:07:47.614Z,,0,,,NaN,,,,,,false,,,,436114,436114,,436114,,436113.56,8,400,,,
sequence,flow.Sequence,4_72,2023-10-30T23:07:47.614Z,,0,,,2523.179999999993,completion,,,,,false,,,,436115,436114,433590.5,433592,433590.82,436113.56,8,400,,,
trial,html.Screen,4_73_0,2023-10-30T23:07:50.075Z,,0,2,,2459.4400000000023,response,ISIC_2100640.JPG,2,ISIC_5223096.JPG,ISIC_5223096.JPG,false,0,keypress(z),500,438574,438573,436113.3,436115,436113.56,438574.5,8,400,24,,ISIC_2100640.JPG
break,html.Screen,4_73_1,2023-10-30T23:07:50.075Z,,0,,,NaN,,,,,,false,,,,438574,438574,,438574,,438574.5,8,400,,,
break_continue,html.Screen,4_73_2,2023-10-30T23:07:50.076Z,,0,,,NaN,,,,,,false,,,,438576,438575,,438574,,438574.5,8,400,,,
sequence,flow.Sequence,4_73,2023-10-30T23:07:50.076Z,,0,,,2461.4400000000023,completion,,,,,false,,,,438576,438575,436113.3,436115,436113.56,438574.5,8,400,,,
trial,html.Screen,4_74_0,2023-10-30T23:07:53.223Z,,0,2,,3148.5,response,ISIC_9121369.JPG,0,ISIC_0000406.JPG,ISIC_0000406.JPG,false,0,keypress(z),500,441724,441723,438574.28,438576,438574.5,441723.62,8,400,25,,ISIC_9121369.JPG
break,html.Screen,4_74_1,2023-10-30T23:07:53.224Z,,0,,,NaN,,,,,,false,,,,441724,441724,,441724,,441723.62,8,400,,,
break_continue,html.Screen,4_74_2,2023-10-30T23:07:53.224Z,,0,,,NaN,,,,,,false,,,,441725,441725,,441724,,441723.62,8,400,,,
sequence,flow.Sequence,4_74,2023-10-30T23:07:53.224Z,,0,,,3150.5,completion,,,,,false,,,,441725,441725,438574.28,438576,438574.5,441723.62,8,400,,,
trial,html.Screen,4_75_0,2023-10-30T23:07:59.693Z,,0,2,,6469.380000000005,response,ISIC_4216750.JPG,4,ISIC_1862691.JPG,ISIC_4216750.JPG,false,1,keypress(m),500,448193,448193,441723.46,441725,441723.62,448193.22,8,400,26,,ISIC_1862691.JPG
break,html.Screen,4_75_1,2023-10-30T23:07:59.693Z,,0,,,NaN,,,,,,false,,,,448193,448193,,448193,,448193.22,8,400,,,
break_continue,html.Screen,4_75_2,2023-10-30T23:07:59.694Z,,0,,,NaN,,,,,,false,,,,448193,448193,,448193,,448193.22,8,400,,,
sequence,flow.Sequence,4_75,2023-10-30T23:07:59.694Z,,0,,,6469.380000000005,completion,,,,,false,,,,448193,448193,441723.46,441725,441723.62,448193.22,8,400,,,
trial,html.Screen,4_76_0,2023-10-30T23:08:02.817Z,,0,2,,3122.780000000028,response,ISIC_3084322.JPG,19,ISIC_9801917.JPG,ISIC_9801917.JPG,false,0,keypress(z),500,451317,451316,448192.6,448193,448193.22,451318.2,8,400,27,,ISIC_3084322.JPG
break,html.Screen,4_76_1,2023-10-30T23:08:02.818Z,,0,,,NaN,,,,,,false,,,,451318,451317,,451317,,451318.2,8,400,,,
break_continue,html.Screen,4_76_2,2023-10-30T23:08:02.819Z,,0,,,NaN,,,,,,false,,,,451319,451318,,451318,,451318.2,8,400,,,
sequence,flow.Sequence,4_76,2023-10-30T23:08:02.819Z,,0,,,3124.780000000028,completion,,,,,false,,,,451319,451318,448192.6,448193,448193.22,451318.2,8,400,,,
trial,html.Screen,4_77_0,2023-10-30T23:08:05.500Z,,0,2,,2681.7999999999884,response,ISIC_0057898.JPG,14,ISIC_0027935.JPG,ISIC_0027935.JPG,false,0,keypress(z),500,454000,454000,451317.18,451319,451318.2,454001.16,8,400,28,,ISIC_0057898.JPG
break,html.Screen,4_77_1,2023-10-30T23:08:05.501Z,,0,,,NaN,,,,,,false,,,,454001,454001,,454001,,454001.16,8,400,,,
break_continue,html.Screen,4_77_2,2023-10-30T23:08:05.501Z,,0,,,NaN,,,,,,false,,,,454002,454002,,454002,,454001.16,8,400,,,
sequence,flow.Sequence,4_77,2023-10-30T23:08:05.502Z,,0,,,2683.7999999999884,completion,,,,,false,,,,454002,454002,451317.18,451319,451318.2,454001.16,8,400,,,
trial,html.Screen,4_78_0,2023-10-30T23:08:11.160Z,,0,2,,5657.840000000026,response,ISIC_1945381.JPG,2,ISIC_0032400.JPG,ISIC_1945381.JPG,false,1,keypress(m),500,459660,459659,454000.84,454002,454001.16,459660.16,8,400,29,,ISIC_0032400.JPG
break,html.Screen,4_78_1,2023-10-30T23:08:11.161Z,,0,,,NaN,,,,,,false,,,,459660,459660,,459660,,459660.16,8,400,,,
break_continue,html.Screen,4_78_2,2023-10-30T23:08:11.161Z,,0,,,NaN,,,,,,false,,,,459661,459661,,459661,,459660.16,8,400,,,
sequence,flow.Sequence,4_78,2023-10-30T23:08:11.161Z,,0,,,5659.840000000026,completion,,,,,false,,,,459661,459661,454000.84,454002,454001.16,459660.16,8,400,,,
trial,html.Screen,4_79_0,2023-10-30T23:08:20.960Z,,0,2,,9798.840000000026,response,ISIC_2075121.JPG,2,ISIC_0055388.JPG,ISIC_2075121.JPG,false,1,keypress(m),500,469460,469459,459659.94,459661,459660.16,469459.96,8,400,30,,ISIC_0055388.JPG
break,html.Screen,4_79_1,2023-10-30T23:08:20.960Z,,0,,,NaN,,,,,,false,,,,469460,469460,,469460,,469459.96,8,400,,,
break_continue,html.Screen,4_79_2,2023-10-30T23:08:20.961Z,,0,,,NaN,,,,,,false,,,,469461,469461,,469460,,469459.96,8,400,,,
sequence,flow.Sequence,4_79,2023-10-30T23:08:20.961Z,,0,,,9800.840000000026,completion,,,,,false,,,,469461,469461,459659.94,459661,459660.16,469459.96,8,400,,,
trial,html.Screen,4_80_0,2023-10-30T23:08:23.730Z,,0,2,,2770.039999999979,response,ISIC_7266604.JPG,5,ISIC_8917755.JPG,ISIC_7266604.JPG,false,1,keypress(m),500,472230,472230,469459.82,469461,469459.96,472230.54,8,400,31,,ISIC_8917755.JPG
break,html.Screen,4_80_1,2023-10-30T23:08:23.731Z,,0,,,NaN,,,,,,false,,,,472231,472231,,472230,,472230.54,8,400,,,
break_continue,html.Screen,4_80_2,2023-10-30T23:08:23.732Z,,0,,,NaN,,,,,,false,,,,472231,472231,,472231,,472230.54,8,400,,,
sequence,flow.Sequence,4_80,2023-10-30T23:08:23.732Z,,0,,,2771.039999999979,completion,,,,,false,,,,472231,472231,469459.82,469461,469459.96,472230.54,8,400,,,
trial,html.Screen,4_81_0,2023-10-30T23:08:26.633Z,,0,2,,2901.460000000021,response,ISIC_0011615.JPG,5,ISIC_0029214.JPG,ISIC_0029214.JPG,false,0,keypress(z),500,475133,475132,472230.34,472231,472230.54,475133.7,8,400,32,,ISIC_0011615.JPG
break,html.Screen,4_81_1,2023-10-30T23:08:26.634Z,,0,,,NaN,,,,,,false,,,,475135,475133,,475133,,475133.7,8,400,,,
break_continue,html.Screen,4_81_2,2023-10-30T23:08:26.634Z,,0,,,NaN,,,,,,false,,,,475135,475135,,475135,,475133.7,8,400,,,
sequence,flow.Sequence,4_81,2023-10-30T23:08:26.634Z,,0,,,2904.460000000021,completion,,,,,false,,,,475135,475135,472230.34,472231,472230.54,475133.7,8,400,,,
trial,html.Screen,4_82_0,2023-10-30T23:08:29.452Z,,0,2,,2818.2999999999884,response,ISIC_3552318.JPG,4,ISIC_5123817.JPG,ISIC_5123817.JPG,false,0,keypress(z),500,477952,477952,475133.46,475135,475133.7,477953.08,8,400,33,,ISIC_3552318.JPG
break,html.Screen,4_82_1,2023-10-30T23:08:29.453Z,,0,,,NaN,,,,,,false,,,,477954,477954,,477952,,477953.08,8,400,,,
break_continue,html.Screen,4_82_2,2023-10-30T23:08:29.454Z,,0,,,NaN,,,,,,false,,,,477954,477954,,477954,,477953.08,8,400,,,
sequence,flow.Sequence,4_82,2023-10-30T23:08:29.454Z,,0,,,2820.2999999999884,completion,,,,,false,,,,477954,477954,475133.46,475135,475133.7,477953.08,8,400,,,
trial,html.Screen,4_83_0,2023-10-30T23:08:32.615Z,,0,2,,3161.9199999999837,response,ISIC_0031589.JPG,21,ISIC_5614300.JPG,ISIC_0031589.JPG,false,1,keypress(m),500,481115,481115,477952.86,477954,477953.08,481116.8,8,400,34,,ISIC_5614300.JPG
break,html.Screen,4_83_1,2023-10-30T23:08:32.616Z,,0,,,NaN,,,,,,false,,,,481116,481116,,481115,,481116.8,8,400,,,
break_continue,html.Screen,4_83_2,2023-10-30T23:08:32.616Z,,0,,,NaN,,,,,,false,,,,481116,481116,,481116,,481116.8,8,400,,,
sequence,flow.Sequence,4_83,2023-10-30T23:08:32.616Z,,0,,,3162.9199999999837,completion,,,,,false,,,,481116,481116,477952.86,477954,477953.08,481116.8,8,400,,,
trial,html.Screen,4_84_0,2023-10-30T23:08:35.656Z,,0,2,,3038.2000000000116,response,ISIC_5498651.JPG,16,ISIC_0061806.JPG,ISIC_5498651.JPG,false,1,keypress(m),500,484155,484155,481115.02,481116,481116.8,484156.08,8,400,35,,ISIC_0061806.JPG
break,html.Screen,4_84_1,2023-10-30T23:08:35.656Z,,0,,,NaN,,,,,,false,,,,484156,484156,,484155,,484156.08,8,400,,,
break_continue,html.Screen,4_84_2,2023-10-30T23:08:35.657Z,,0,,,NaN,,,,,,false,,,,484157,484157,,484157,,484156.08,8,400,,,
sequence,flow.Sequence,4_84,2023-10-30T23:08:35.657Z,,0,,,3040.2000000000116,completion,,,,,false,,,,484157,484157,481115.02,481116,481116.8,484156.08,8,400,,,
trial,html.Screen,4_85_0,2023-10-30T23:08:38.648Z,,0,2,,2990.9199999999837,response,ISIC_0067390.JPG,14,ISIC_0691454.JPG,ISIC_0067390.JPG,false,1,keypress(m),500,487148,487147,484155.7,484157,484156.08,487148.32,8,400,36,,ISIC_0691454.JPG
break,html.Screen,4_85_1,2023-10-30T23:08:38.649Z,,0,,,NaN,,,,,,false,,,,487149,487149,,487148,,487148.32,8,400,,,
break_continue,html.Screen,4_85_2,2023-10-30T23:08:38.649Z,,0,,,NaN,,,,,,false,,,,487149,487149,,487149,,487148.32,8,400,,,
sequence,flow.Sequence,4_85,2023-10-30T23:08:38.649Z,,0,,,2992.9199999999837,completion,,,,,false,,,,487149,487149,484155.7,484157,484156.08,487148.32,8,400,,,
trial,html.Screen,4_86_0,2023-10-30T23:08:41.591Z,,0,2,,2942.679999999993,response,ISIC_9122215.JPG,4,ISIC_1348538.JPG,ISIC_1348538.JPG,false,0,keypress(z),500,490091,490091,487148.08,487149,487148.32,490092.02,8,400,37,,ISIC_9122215.JPG
break,html.Screen,4_86_1,2023-10-30T23:08:41.592Z,,0,,,NaN,,,,,,false,,,,490092,490092,,490091,,490092.02,8,400,,,
break_continue,html.Screen,4_86_2,2023-10-30T23:08:41.592Z,,0,,,NaN,,,,,,false,,,,490092,490092,,490092,,490092.02,8,400,,,
sequence,flow.Sequence,4_86,2023-10-30T23:08:41.593Z,,0,,,2943.679999999993,completion,,,,,false,,,,490092,490092,487148.08,487149,487148.32,490092.02,8,400,,,
trial,html.Screen,4_87_0,2023-10-30T23:08:46.013Z,,0,2,,4420.979999999981,response,ISIC_2245709.JPG,4,ISIC_0030238.JPG,ISIC_2245709.JPG,false,1,keypress(m),500,494513,494513,490091.84,490093,490092.02,494513.62,8,400,38,,ISIC_0030238.JPG
break,html.Screen,4_87_1,2023-10-30T23:08:46.014Z,,0,,,NaN,,,,,,false,,,,494514,494513,,494513,,494513.62,8,400,,,
break_continue,html.Screen,4_87_2,2023-10-30T23:08:46.014Z,,0,,,NaN,,,,,,false,,,,494514,494514,,494514,,494513.62,8,400,,,
sequence,flow.Sequence,4_87,2023-10-30T23:08:46.014Z,,0,,,4421.979999999981,completion,,,,,false,,,,494514,494514,490091.84,490093,490092.02,494513.62,8,400,,,
trial,html.Screen,4_88_0,2023-10-30T23:08:48.685Z,,0,2,,2671.3800000000047,response,ISIC_0071118.JPG,2,ISIC_0072703.JPG,ISIC_0071118.JPG,false,1,keypress(m),500,497185,497185,494513.34,494514,494513.62,497186.24,8,400,39,,ISIC_0072703.JPG
break,html.Screen,4_88_1,2023-10-30T23:08:48.686Z,,0,,,NaN,,,,,,false,,,,497186,497185,,497185,,497186.24,8,400,,,
break_continue,html.Screen,4_88_2,2023-10-30T23:08:48.686Z,,0,,,NaN,,,,,,false,,,,497186,497186,,497186,,497186.24,8,400,,,
sequence,flow.Sequence,4_88,2023-10-30T23:08:48.686Z,,0,,,2672.3800000000047,completion,,,,,false,,,,497186,497186,494513.34,494514,494513.62,497186.24,8,400,,,
trial,html.Screen,4_89_0,2023-10-30T23:08:51.320Z,,0,2,,2633.7600000000093,response,ISIC_0063655.JPG,13,ISIC_0069183.JPG,ISIC_0063655.JPG,false,1,keypress(m),500,499820,499820,497184.88,497186,497186.24,499820.2,8,400,40,,ISIC_0069183.JPG
break,html.Screen,4_89_1,2023-10-30T23:08:51.320Z,,0,,,NaN,,,,,,false,,,,499821,499821,,499820,,499820.2,8,400,,,
break_continue,html.Screen,4_89_2,2023-10-30T23:08:51.321Z,,0,,,NaN,,,,,,false,,,,499821,499821,,499821,,499820.2,8,400,,,
sequence,flow.Sequence,4_89,2023-10-30T23:08:51.321Z,,0,,,2634.7600000000093,completion,,,,,false,,,,499821,499821,497184.88,497186,497186.24,499820.2,8,400,,,
trial,html.Screen,4_90_0,2023-10-30T23:08:53.831Z,,0,2,,2510.7999999999884,response,ISIC_4798962.JPG,2,ISIC_9239632.JPG,ISIC_9239632.JPG,false,0,keypress(z),500,502331,502331,499819.82,499821,499820.2,502332.06,8,400,41,,ISIC_4798962.JPG
break,html.Screen,4_90_1,2023-10-30T23:08:53.832Z,,0,,,NaN,,,,,,false,,,,502332,502332,,502331,,502332.06,8,400,,,
break_continue,html.Screen,4_90_2,2023-10-30T23:08:53.832Z,,0,,,NaN,,,,,,false,,,,502332,502332,,502332,,502332.06,8,400,,,
sequence,flow.Sequence,4_90,2023-10-30T23:08:53.832Z,,0,,,2511.7999999999884,completion,,,,,false,,,,502332,502332,499819.82,499821,499820.2,502332.06,8,400,,,
trial,html.Screen,4_91_0,2023-10-30T23:08:56.841Z,,0,2,,3008.9400000000023,response,ISIC_0066101.JPG,18,ISIC_0011509.JPG,ISIC_0066101.JPG,false,1,keypress(m),500,505341,505341,502331.82,502332,502332.06,505341.4,8,400,42,,ISIC_0011509.JPG
break,html.Screen,4_91_1,2023-10-30T23:08:56.842Z,,0,,,NaN,,,,,,false,,,,505342,505342,,505341,,505341.4,8,400,,,
break_continue,html.Screen,4_91_2,2023-10-30T23:08:56.843Z,,0,,,NaN,,,,,,false,,,,505342,505342,,505342,,505341.4,8,400,,,
sequence,flow.Sequence,4_91,2023-10-30T23:08:56.843Z,,0,,,3009.9400000000023,completion,,,,,false,,,,505342,505342,502331.82,502332,502332.06,505341.4,8,400,,,
trial,html.Screen,4_92_0,2023-10-30T23:08:59.623Z,,0,2,,2781.5999999999767,response,ISIC_7758102.JPG,16,ISIC_0059412.JPG,ISIC_0059412.JPG,false,0,keypress(z),500,508123,508123,505341.28,505343,505341.4,508123.72,8,400,43,,ISIC_7758102.JPG
break,html.Screen,4_92_1,2023-10-30T23:08:59.623Z,,0,,,NaN,,,,,,false,,,,508124,508124,,508123,,508123.72,8,400,,,
break_continue,html.Screen,4_92_2,2023-10-30T23:08:59.625Z,,0,,,NaN,,,,,,false,,,,508124,508124,,508124,,508123.72,8,400,,,
sequence,flow.Sequence,4_92,2023-10-30T23:08:59.625Z,,0,,,2782.5999999999767,completion,,,,,false,,,,508124,508124,505341.28,505342,505341.4,508123.72,8,400,,,
trial,html.Screen,4_93_0,2023-10-30T23:09:03.837Z,,0,2,,4212.280000000028,response,ISIC_0014093.JPG,10,ISIC_2854610.JPG,ISIC_2854610.JPG,false,0,keypress(z),500,512336,512336,508123.36,508124,508123.72,512338.96,8,400,44,,ISIC_0014093.JPG
break,html.Screen,4_93_1,2023-10-30T23:09:03.837Z,,0,,,NaN,,,,,,false,,,,512337,512337,,512336,,512338.96,8,400,,,
break_continue,html.Screen,4_93_2,2023-10-30T23:09:03.838Z,,0,,,NaN,,,,,,false,,,,512337,512337,,512337,,512338.96,8,400,,,
sequence,flow.Sequence,4_93,2023-10-30T23:09:03.838Z,,0,,,4213.280000000028,completion,,,,,false,,,,512338,512337,508123.36,508124,508123.72,512338.96,8,400,,,
trial,html.Screen,4_94_0,2023-10-30T23:09:08.167Z,,0,2,,4329.039999999979,response,ISIC_6912979.JPG,13,ISIC_0064463.JPG,ISIC_0064463.JPG,false,0,keypress(z),500,516668,516668,512336.74,512338,512338.96,516668.12,8,400,45,,ISIC_6912979.JPG
break,html.Screen,4_94_1,2023-10-30T23:09:08.168Z,,0,,,NaN,,,,,,false,,,,516669,516669,,516668,,516668.12,8,400,,,
break_continue,html.Screen,4_94_2,2023-10-30T23:09:08.168Z,,0,,,NaN,,,,,,false,,,,516669,516669,,516669,,516668.12,8,400,,,
sequence,flow.Sequence,4_94,2023-10-30T23:09:08.168Z,,0,,,4330.039999999979,completion,,,,,false,,,,516669,516669,512336.74,512338,512338.96,516668.12,8,400,,,
trial,html.Screen,4_95_0,2023-10-30T23:09:12.450Z,,0,2,,4280.880000000005,response,ISIC_1784255.JPG,7,ISIC_1988058.JPG,ISIC_1988058.JPG,false,0,keypress(z),500,520950,520949,516667.9,516669,516668.12,520950.54,8,400,46,,ISIC_1784255.JPG
break,html.Screen,4_95_1,2023-10-30T23:09:12.451Z,,0,,,NaN,,,,,,false,,,,520951,520951,,520951,,520950.54,8,400,,,
break_continue,html.Screen,4_95_2,2023-10-30T23:09:12.451Z,,0,,,NaN,,,,,,false,,,,520951,520951,,520951,,520950.54,8,400,,,
sequence,flow.Sequence,4_95,2023-10-30T23:09:12.451Z,,0,,,4282.880000000005,completion,,,,,false,,,,520952,520951,516667.9,516669,516668.12,520950.54,8,400,,,
trial,html.Screen,4_96_0,2023-10-30T23:09:16.149Z,,0,2,,3697.460000000021,response,ISIC_0030391.JPG,3,ISIC_4969996.JPG,ISIC_4969996.JPG,false,0,keypress(z),500,524648,524648,520950.32,520952,520950.54,524649.32,8,400,47,,ISIC_0030391.JPG
break,html.Screen,4_96_1,2023-10-30T23:09:16.150Z,,0,,,NaN,,,,,,false,,,,524650,524650,,524648,,524649.32,8,400,,,
break_continue,html.Screen,4_96_2,2023-10-30T23:09:16.150Z,,0,,,NaN,,,,,,false,,,,524650,524650,,524650,,524649.32,8,400,,,
sequence,flow.Sequence,4_96,2023-10-30T23:09:16.150Z,,0,,,3699.460000000021,completion,,,,,false,,,,524650,524650,520950.32,520952,520950.54,524649.32,8,400,,,
trial,html.Screen,4_97_0,2023-10-30T23:09:18.875Z,,0,2,,2724.680000000051,response,ISIC_0056796.JPG,5,ISIC_0032190.JPG,ISIC_0032190.JPG,false,0,keypress(z),500,527375,527374,524648.96,524650,524649.32,527374.92,8,400,48,,ISIC_0056796.JPG
break,html.Screen,4_97_1,2023-10-30T23:09:18.875Z,,0,,,NaN,,,,,,false,,,,527375,527375,,527375,,527374.92,8,400,,,
break_continue,html.Screen,4_97_2,2023-10-30T23:09:18.875Z,,0,,,NaN,,,,,,false,,,,527376,527376,,527376,,527374.92,8,400,,,
sequence,flow.Sequence,4_97,2023-10-30T23:09:18.875Z,,0,,,2726.680000000051,completion,,,,,false,,,,527376,527376,524648.96,524650,524649.32,527374.92,8,400,,,
trial,html.Screen,4_98_0,2023-10-30T23:09:22.254Z,,0,2,,3378.079999999958,response,ISIC_0031746.JPG,21,ISIC_1020369.JPG,ISIC_0031746.JPG,false,1,keypress(m),500,530753,530753,527374.7,527376,527374.92,530753.38,8,400,49,,ISIC_1020369.JPG
break,html.Screen,4_98_1,2023-10-30T23:09:22.254Z,,0,,,NaN,,,,,,false,,,,530753,530753,,530753,,530753.38,8,400,,,
break_continue,html.Screen,4_98_2,2023-10-30T23:09:22.254Z,,0,,,NaN,,,,,,false,,,,530754,530754,,530753,,530753.38,8,400,,,
sequence,flow.Sequence,4_98,2023-10-30T23:09:22.254Z,,0,,,3379.079999999958,completion,,,,,false,,,,530754,530754,527374.7,527376,527374.92,530753.38,8,400,,,
trial,html.Screen,4_99_0,2023-10-30T23:09:25.898Z,,0,2,,3643.6199999999953,response,ISIC_0062196.JPG,6,ISIC_1885174.JPG,ISIC_1885174.JPG,false,0,keypress(z),500,534398,534397,530753.26,530754,530753.38,534398.4,8,400,50,,ISIC_0062196.JPG
break,html.Screen,4_99_1,2023-10-30T23:09:35.895Z,,0,,,10002.439999999944,timeout,,,,,false,,,,544395,544393.9,534398.22,534398,534398.4,544400.84,8,400,,,
break_continue,html.Screen,4_99_2,2023-10-30T23:09:36.580Z,,0,,,657.1600000000326,response,,,,,false,continue,keypress(Space),,545079,545058,544393.9,544395,544400.84,545079.36,8,400,,,
sequence,flow.Sequence,4_99,2023-10-30T23:09:36.580Z,,0,,,14304.619999999995,completion,,,,,false,,,,545079,545058,530753.26,530754,530753.38,545079.36,8,400,,,
trial,html.Screen,4_100_0,2023-10-30T23:09:40.077Z,,0,3,,3497.640000000014,response,ISIC_0207349.JPG,13,ISIC_2454898.JPG,ISIC_0207349.JPG,false,1,keypress(m),500,548577,548577,545079.28,545079,545079.36,548577.26,8,400,1,,ISIC_2454898.JPG
break,html.Screen,4_100_1,2023-10-30T23:09:40.078Z,,0,,,NaN,,,,,,false,,,,548578,548578,,548577,,548577.26,8,400,,,
break_continue,html.Screen,4_100_2,2023-10-30T23:09:40.078Z,,0,,,NaN,,,,,,false,,,,548578,548578,,548578,,548577.26,8,400,,,
sequence,flow.Sequence,4_100,2023-10-30T23:09:40.078Z,,0,,,3498.640000000014,completion,,,,,false,,,,548578,548578,545079.28,545079,545079.36,548577.26,8,400,,,
trial,html.Screen,4_101_0,2023-10-30T23:09:43.469Z,,0,3,,3391.7399999999907,response,ISIC_0009713.JPG,19,ISIC_4530249.JPG,ISIC_4530249.JPG,false,0,keypress(z),500,551969,551969,548577.06,548578,548577.26,551970.96,8,400,2,,ISIC_0009713.JPG
break,html.Screen,4_101_1,2023-10-30T23:09:43.470Z,,0,,,NaN,,,,,,false,,,,551970,551970,,551969,,551970.96,8,400,,,
break_continue,html.Screen,4_101_2,2023-10-30T23:09:43.470Z,,0,,,NaN,,,,,,false,,,,551970,551970,,551970,,551970.96,8,400,,,
sequence,flow.Sequence,4_101,2023-10-30T23:09:43.470Z,,0,,,3392.7399999999907,completion,,,,,false,,,,551970,551970,548577.06,548578,548577.26,551970.96,8,400,,,
trial,html.Screen,4_102_0,2023-10-30T23:09:45.965Z,,0,3,,2493.0400000000373,response,ISIC_0032171.JPG,2,ISIC_5964173.JPG,ISIC_5964173.JPG,false,0,keypress(z),500,554464,554464,551969.34,551970,551970.96,554465.24,8,400,3,,ISIC_0032171.JPG
break,html.Screen,4_102_1,2023-10-30T23:09:45.966Z,,0,,,NaN,,,,,,false,,,,554466,554466,,554464,,554465.24,8,400,,,
break_continue,html.Screen,4_102_2,2023-10-30T23:09:45.966Z,,0,,,NaN,,,,,,false,,,,554466,554466,,554466,,554465.24,8,400,,,
sequence,flow.Sequence,4_102,2023-10-30T23:09:45.966Z,,0,,,2495.0400000000373,completion,,,,,false,,,,554466,554466,551969.34,551970,551970.96,554465.24,8,400,,,
trial,html.Screen,4_103_0,2023-10-30T23:09:48.977Z,,0,3,,3010.7600000000093,response,ISIC_8406262.JPG,3,ISIC_0057692.JPG,ISIC_8406262.JPG,false,1,keypress(m),500,557477,557476,554464.98,554466,554465.24,557477.88,8,400,4,,ISIC_0057692.JPG
break,html.Screen,4_103_1,2023-10-30T23:09:48.978Z,,0,,,NaN,,,,,,false,,,,557477,557477,,557477,,557477.88,8,400,,,
break_continue,html.Screen,4_103_2,2023-10-30T23:09:48.978Z,,0,,,NaN,,,,,,false,,,,557478,557478,,557478,,557477.88,8,400,,,
sequence,flow.Sequence,4_103,2023-10-30T23:09:48.979Z,,0,,,3012.7600000000093,completion,,,,,false,,,,557478,557478,554464.98,554466,554465.24,557477.88,8,400,,,
trial,html.Screen,4_104_0,2023-10-30T23:09:51.421Z,,0,3,,2442.1199999999953,response,ISIC_8268025.JPG,14,ISIC_3688362.JPG,ISIC_3688362.JPG,false,0,keypress(z),500,559921,559920,557477.12,557478,557477.88,559922.34,8,400,5,,ISIC_8268025.JPG
break,html.Screen,4_104_1,2023-10-30T23:09:51.422Z,,0,,,NaN,,,,,,false,,,,559922,559922,,559921,,559922.34,8,400,,,
break_continue,html.Screen,4_104_2,2023-10-30T23:09:51.422Z,,0,,,NaN,,,,,,false,,,,559922,559922,,559922,,559922.34,8,400,,,
sequence,flow.Sequence,4_104,2023-10-30T23:09:51.422Z,,0,,,2444.1199999999953,completion,,,,,false,,,,559922,559922,557477.12,557478,557477.88,559922.34,8,400,,,
trial,html.Screen,4_105_0,2023-10-30T23:09:54.082Z,,0,3,,2658.6600000000326,response,ISIC_6026759.JPG,5,ISIC_9476244.JPG,ISIC_9476244.JPG,false,0,keypress(z),500,562582,562581,559920.8,559922,559922.34,562582.6,8,400,6,,ISIC_6026759.JPG
break,html.Screen,4_105_1,2023-10-30T23:09:54.083Z,,0,,,NaN,,,,,,false,,,,562583,562583,,562583,,562582.6,8,400,,,
break_continue,html.Screen,4_105_2,2023-10-30T23:09:54.083Z,,0,,,NaN,,,,,,false,,,,562584,562583,,562583,,562582.6,8,400,,,
sequence,flow.Sequence,4_105,2023-10-30T23:09:54.083Z,,0,,,2660.6600000000326,completion,,,,,false,,,,562584,562583,559920.8,559922,559922.34,562582.6,8,400,,,
trial,html.Screen,4_106_0,2023-10-30T23:09:57.090Z,,0,3,,3007.4000000000233,response,ISIC_0062530.JPG,4,ISIC_0056788.JPG,ISIC_0056788.JPG,false,0,keypress(z),500,565590,565590,562582.34,562584,562582.6,565590.62,8,400,7,,ISIC_0062530.JPG
break,html.Screen,4_106_1,2023-10-30T23:09:57.091Z,,0,,,NaN,,,,,,false,,,,565591,565591,,565590,,565590.62,8,400,,,
break_continue,html.Screen,4_106_2,2023-10-30T23:09:57.091Z,,0,,,NaN,,,,,,false,,,,565591,565591,,565591,,565590.62,8,400,,,
sequence,flow.Sequence,4_106,2023-10-30T23:09:57.091Z,,0,,,3008.4000000000233,completion,,,,,false,,,,565591,565591,562582.34,562584,562582.6,565590.62,8,400,,,
trial,html.Screen,4_107_0,2023-10-30T23:09:59.634Z,,0,3,,2543.3800000000047,response,ISIC_0028465.JPG,3,ISIC_0059808.JPG,ISIC_0059808.JPG,false,0,keypress(z),500,568134,568134,565590.4,565591,565590.62,568134.44,8,400,8,,ISIC_0028465.JPG
break,html.Screen,4_107_1,2023-10-30T23:09:59.635Z,,0,,,NaN,,,,,,false,,,,568135,568135,,568134,,568134.44,8,400,,,
break_continue,html.Screen,4_107_2,2023-10-30T23:09:59.635Z,,0,,,NaN,,,,,,false,,,,568135,568135,,568135,,568134.44,8,400,,,
sequence,flow.Sequence,4_107,2023-10-30T23:09:59.635Z,,0,,,2544.3800000000047,completion,,,,,false,,,,568135,568135,565590.4,565591,565590.62,568134.44,8,400,,,
trial,html.Screen,4_108_0,2023-10-30T23:10:02.525Z,,0,3,,2889.560000000056,response,ISIC_0066105.JPG,0,ISIC_0031926.JPG,ISIC_0031926.JPG,false,0,keypress(z),500,571024,571024,568134.12,568136,568134.44,571026.52,8,400,9,,ISIC_0066105.JPG
break,html.Screen,4_108_1,2023-10-30T23:10:02.526Z,,0,,,NaN,,,,,,false,,,,571025,571025,,571024,,571026.52,8,400,,,
break_continue,html.Screen,4_108_2,2023-10-30T23:10:02.526Z,,0,,,NaN,,,,,,false,,,,571025,571025,,571025,,571026.52,8,400,,,
sequence,flow.Sequence,4_108,2023-10-30T23:10:02.526Z,,0,,,2890.560000000056,completion,,,,,false,,,,571026,571025,568134.12,568136,568134.44,571026.52,8,400,,,
trial,html.Screen,4_109_0,2023-10-30T23:10:05.003Z,,0,3,,2475.4799999999814,response,ISIC_0055282.JPG,3,ISIC_6813359.JPG,ISIC_6813359.JPG,false,0,keypress(z),500,573503,573502,571024.8,571026,571026.52,573502.92,8,400,10,,ISIC_0055282.JPG
break,html.Screen,4_109_1,2023-10-30T23:10:05.004Z,,0,,,NaN,,,,,,false,,,,573504,573503,,573503,,573502.92,8,400,,,
break_continue,html.Screen,4_109_2,2023-10-30T23:10:05.004Z,,0,,,NaN,,,,,,false,,,,573504,573504,,573504,,573502.92,8,400,,,
sequence,flow.Sequence,4_109,2023-10-30T23:10:05.004Z,,0,,,2477.4799999999814,completion,,,,,false,,,,573504,573504,571024.8,571026,571026.52,573502.92,8,400,,,
trial,html.Screen,4_110_0,2023-10-30T23:10:07.578Z,,0,3,,2573.079999999958,response,ISIC_0027600.JPG,0,ISIC_6961503.JPG,ISIC_6961503.JPG,false,0,keypress(z),500,576078,576076,573502.7,573504,573502.92,576078.88,8,400,11,,ISIC_0027600.JPG
break,html.Screen,4_110_1,2023-10-30T23:10:07.579Z,,0,,,NaN,,,,,,false,,,,576079,576079,,576078,,576078.88,8,400,,,
break_continue,html.Screen,4_110_2,2023-10-30T23:10:07.579Z,,0,,,NaN,,,,,,false,,,,576079,576079,,576079,,576078.88,8,400,,,
sequence,flow.Sequence,4_110,2023-10-30T23:10:07.579Z,,0,,,2576.079999999958,completion,,,,,false,,,,576079,576079,573502.7,573504,573502.92,576078.88,8,400,,,
trial,html.Screen,4_111_0,2023-10-30T23:10:10.461Z,,0,3,,2882.1199999999953,response,ISIC_6640686.JPG,6,ISIC_6239663.JPG,ISIC_6640686.JPG,false,1,keypress(m),500,578961,578961,576078.74,576079,576078.88,578961.54,8,400,12,,ISIC_6239663.JPG
break,html.Screen,4_111_1,2023-10-30T23:10:10.462Z,,0,,,NaN,,,,,,false,,,,578962,578961,,578961,,578961.54,8,400,,,
break_continue,html.Screen,4_111_2,2023-10-30T23:10:10.462Z,,0,,,NaN,,,,,,false,,,,578962,578962,,578962,,578961.54,8,400,,,
sequence,flow.Sequence,4_111,2023-10-30T23:10:10.462Z,,0,,,2883.1199999999953,completion,,,,,false,,,,578962,578962,576078.74,576079,576078.88,578961.54,8,400,,,
trial,html.Screen,4_112_0,2023-10-30T23:10:13.116Z,,0,3,,2655.4599999999627,response,ISIC_0012369.JPG,3,ISIC_0015411.JPG,ISIC_0012369.JPG,false,1,keypress(m),500,581617,581617,578961.32,578962,578961.54,581617.36,8,400,13,,ISIC_0015411.JPG
break,html.Screen,4_112_1,2023-10-30T23:10:13.118Z,,0,,,NaN,,,,,,false,,,,581618,581618,,581617,,581617.36,8,400,,,
break_continue,html.Screen,4_112_2,2023-10-30T23:10:13.118Z,,0,,,NaN,,,,,,false,,,,581618,581618,,581618,,581617.36,8,400,,,
sequence,flow.Sequence,4_112,2023-10-30T23:10:13.118Z,,0,,,2656.4599999999627,completion,,,,,false,,,,581618,581618,578961.32,578962,578961.54,581617.36,8,400,,,
trial,html.Screen,4_113_0,2023-10-30T23:10:16.024Z,,0,3,,2905.640000000014,response,ISIC_7104307.JPG,1,ISIC_0027276.JPG,ISIC_7104307.JPG,false,1,keypress(m),500,584523,584523,581617.08,581618,581617.36,584523.96,8,400,14,,ISIC_0027276.JPG
break,html.Screen,4_113_1,2023-10-30T23:10:16.025Z,,0,,,NaN,,,,,,false,,,,584525,584524,,584523,,584523.96,8,400,,,
break_continue,html.Screen,4_113_2,2023-10-30T23:10:16.025Z,,0,,,NaN,,,,,,false,,,,584525,584525,,584525,,584523.96,8,400,,,
sequence,flow.Sequence,4_113,2023-10-30T23:10:16.025Z,,0,,,2907.640000000014,completion,,,,,false,,,,584525,584525,581617.08,581618,581617.36,584523.96,8,400,,,
trial,html.Screen,4_114_0,2023-10-30T23:10:19.228Z,,0,3,,3205.0400000000373,response,ISIC_1336351.JPG,4,ISIC_9775430.JPG,ISIC_1336351.JPG,false,1,keypress(m),500,587729,587729,584523.78,584525,584523.96,587728.8,8,400,15,,ISIC_9775430.JPG
break,html.Screen,4_114_1,2023-10-30T23:10:19.229Z,,0,,,NaN,,,,,,false,,,,587729,587729,,587729,,587728.8,8,400,,,
break_continue,html.Screen,4_114_2,2023-10-30T23:10:19.229Z,,0,,,NaN,,,,,,false,,,,587729,587729,,587729,,587728.8,8,400,,,
sequence,flow.Sequence,4_114,2023-10-30T23:10:19.229Z,,0,,,3205.0400000000373,completion,,,,,false,,,,587729,587729,584523.78,584525,584523.96,587728.8,8,400,,,
trial,html.Screen,4_115_0,2023-10-30T23:10:23.245Z,,0,3,,4016.1999999999534,response,ISIC_9913573.JPG,5,ISIC_0071857.JPG,ISIC_9913573.JPG,false,1,keypress(m),500,591745,591745,587728.6,587729,587728.8,591745.56,8,400,16,,ISIC_0071857.JPG
break,html.Screen,4_115_1,2023-10-30T23:10:23.246Z,,0,,,NaN,,,,,,false,,,,591746,591746,,591745,,591745.56,8,400,,,
break_continue,html.Screen,4_115_2,2023-10-30T23:10:23.246Z,,0,,,NaN,,,,,,false,,,,591746,591746,,591746,,591745.56,8,400,,,
sequence,flow.Sequence,4_115,2023-10-30T23:10:23.246Z,,0,,,4017.1999999999534,completion,,,,,false,,,,591746,591746,587728.6,587729,587728.8,591745.56,8,400,,,
trial,html.Screen,4_116_0,2023-10-30T23:10:28.077Z,,0,3,,4830.439999999944,response,ISIC_0011329.JPG,3,ISIC_0023162.JPG,ISIC_0023162.JPG,false,0,keypress(z),500,596576,596576,591745.32,591746,591745.56,596577.14,8,400,17,,ISIC_0011329.JPG
break,html.Screen,4_116_1,2023-10-30T23:10:28.078Z,,0,,,NaN,,,,,,false,,,,596578,596578,,596577,,596577.14,8,400,,,
break_continue,html.Screen,4_116_2,2023-10-30T23:10:28.078Z,,0,,,NaN,,,,,,false,,,,596578,596578,,596578,,596577.14,8,400,,,
sequence,flow.Sequence,4_116,2023-10-30T23:10:28.078Z,,0,,,4832.439999999944,completion,,,,,false,,,,596578,596578,591745.32,591746,591745.56,596577.14,8,400,,,
trial,html.Screen,4_117_0,2023-10-30T23:10:30.621Z,,0,3,,2543.859999999986,response,ISIC_0031999.JPG,3,ISIC_6517663.JPG,ISIC_6517663.JPG,false,0,keypress(z),500,599121,599121,596576.9,596578,596577.14,599121.08,8,400,18,,ISIC_0031999.JPG
break,html.Screen,4_117_1,2023-10-30T23:10:30.621Z,,0,,,NaN,,,,,,false,,,,599122,599122,,599121,,599121.08,8,400,,,
break_continue,html.Screen,4_117_2,2023-10-30T23:10:30.622Z,,0,,,NaN,,,,,,false,,,,599122,599122,,599122,,599121.08,8,400,,,
sequence,flow.Sequence,4_117,2023-10-30T23:10:30.622Z,,0,,,2544.859999999986,completion,,,,,false,,,,599122,599122,596576.9,596578,596577.14,599121.08,8,400,,,
trial,html.Screen,4_118_0,2023-10-30T23:10:33.003Z,,0,3,,2380.920000000042,response,ISIC_0063845.JPG,3,ISIC_0033938.JPG,ISIC_0063845.JPG,false,1,keypress(m),500,601502,601502,599120.94,599122,599121.08,601503.08,8,400,19,,ISIC_0033938.JPG
break,html.Screen,4_118_1,2023-10-30T23:10:33.004Z,,0,,,NaN,,,,,,false,,,,601503,601503,,601502,,601503.08,8,400,,,
break_continue,html.Screen,4_118_2,2023-10-30T23:10:33.004Z,,0,,,NaN,,,,,,false,,,,601503,601503,,601503,,601503.08,8,400,,,
sequence,flow.Sequence,4_118,2023-10-30T23:10:33.004Z,,0,,,2381.920000000042,completion,,,,,false,,,,601503,601503,599120.94,599122,599121.08,601503.08,8,400,,,
trial,html.Screen,4_119_0,2023-10-30T23:10:35.879Z,,0,3,,2876.920000000042,response,ISIC_2244564.JPG,0,ISIC_0010049.JPG,ISIC_2244564.JPG,false,1,keypress(m),500,604380,604380,601502.74,601503,601503.08,604380.18,8,400,20,,ISIC_0010049.JPG
break,html.Screen,4_119_1,2023-10-30T23:10:35.880Z,,0,,,NaN,,,,,,false,,,,604381,604381,,604380,,604380.18,8,400,,,
break_continue,html.Screen,4_119_2,2023-10-30T23:10:35.881Z,,0,,,NaN,,,,,,false,,,,604381,604381,,604381,,604380.18,8,400,,,
sequence,flow.Sequence,4_119,2023-10-30T23:10:35.881Z,,0,,,2877.920000000042,completion,,,,,false,,,,604381,604381,601502.74,601503,601503.08,604380.18,8,400,,,
trial,html.Screen,4_120_0,2023-10-30T23:10:39.326Z,,0,3,,3445.819999999949,response,ISIC_0028444.JPG,7,ISIC_4136832.JPG,ISIC_4136832.JPG,false,0,keypress(z),500,607826,607826,604379.9,604381,604380.18,607826.48,8,400,21,,ISIC_0028444.JPG
break,html.Screen,4_120_1,2023-10-30T23:10:39.327Z,,0,,,NaN,,,,,,false,,,,607827,607827,,607826,,607826.48,8,400,,,
break_continue,html.Screen,4_120_2,2023-10-30T23:10:39.327Z,,0,,,NaN,,,,,,false,,,,607827,607827,,607827,,607826.48,8,400,,,
sequence,flow.Sequence,4_120,2023-10-30T23:10:39.327Z,,0,,,3446.819999999949,completion,,,,,false,,,,607827,607827,604379.9,604381,604380.18,607826.48,8,400,,,
trial,html.Screen,4_121_0,2023-10-30T23:10:42.610Z,,0,3,,3283.5200000000186,response,ISIC_5049365.JPG,6,ISIC_0231167.JPG,ISIC_0231167.JPG,false,0,keypress(z),500,611110,611110,607826.2,607827,607826.48,611110.62,8,400,22,,ISIC_5049365.JPG
break,html.Screen,4_121_1,2023-10-30T23:10:42.611Z,,0,,,NaN,,,,,,false,,,,611111,611111,,611110,,611110.62,8,400,,,
break_continue,html.Screen,4_121_2,2023-10-30T23:10:42.611Z,,0,,,NaN,,,,,,false,,,,611111,611111,,611111,,611110.62,8,400,,,
sequence,flow.Sequence,4_121,2023-10-30T23:10:42.611Z,,0,,,3284.5200000000186,completion,,,,,false,,,,611111,611111,607826.2,607827,607826.48,611110.62,8,400,,,
trial,html.Screen,4_122_0,2023-10-30T23:10:45.314Z,,0,3,,2703.3800000000047,response,ISIC_0025165.JPG,3,ISIC_7575957.JPG,ISIC_7575957.JPG,false,0,keypress(z),500,613814,613814,611110.32,611112,611110.62,613814.44,8,400,23,,ISIC_0025165.JPG
break,html.Screen,4_122_1,2023-10-30T23:10:45.314Z,,0,,,NaN,,,,,,false,,,,613815,613815,,613814,,613814.44,8,400,,,
break_continue,html.Screen,4_122_2,2023-10-30T23:10:45.316Z,,0,,,NaN,,,,,,false,,,,613815,613815,,613815,,613814.44,8,400,,,
sequence,flow.Sequence,4_122,2023-10-30T23:10:45.316Z,,0,,,2704.3800000000047,completion,,,,,false,,,,613815,613815,611110.32,611112,611110.62,613814.44,8,400,,,
trial,html.Screen,4_123_0,2023-10-30T23:10:47.846Z,,0,3,,2531.560000000056,response,ISIC_8194835.JPG,8,ISIC_0026428.JPG,ISIC_8194835.JPG,false,1,keypress(m),500,616346,616346,613814.18,613815,613814.44,616345.88,8,400,24,,ISIC_0026428.JPG
break,html.Screen,4_123_1,2023-10-30T23:10:47.846Z,,0,,,NaN,,,,,,false,,,,616346,616346,,616346,,616345.88,8,400,,,
break_continue,html.Screen,4_123_2,2023-10-30T23:10:47.846Z,,0,,,NaN,,,,,,false,,,,616347,616347,,616346,,616345.88,8,400,,,
sequence,flow.Sequence,4_123,2023-10-30T23:10:47.846Z,,0,,,2532.560000000056,completion,,,,,false,,,,616347,616347,613814.18,613815,613814.44,616345.88,8,400,,,
trial,html.Screen,4_124_0,2023-10-30T23:10:53.145Z,,0,3,,5299.119999999995,response,ISIC_6250970.JPG,20,ISIC_8671662.JPG,ISIC_8671662.JPG,false,0,keypress(z),500,621646,621645,616345.64,616347,616345.88,621646.46,8,400,25,,ISIC_6250970.JPG
break,html.Screen,4_124_1,2023-10-30T23:10:53.146Z,,0,,,NaN,,,,,,false,,,,621647,621646,,621646,,621646.46,8,400,,,
break_continue,html.Screen,4_124_2,2023-10-30T23:10:53.147Z,,0,,,NaN,,,,,,false,,,,621647,621647,,621647,,621646.46,8,400,,,
sequence,flow.Sequence,4_124,2023-10-30T23:10:53.147Z,,0,,,5301.119999999995,completion,,,,,false,,,,621647,621647,616345.64,616347,616345.88,621646.46,8,400,,,
trial,html.Screen,4_125_0,2023-10-30T23:10:55.933Z,,0,3,,2785.5400000000373,response,ISIC_0069486.JPG,21,ISIC_2514994.JPG,ISIC_2514994.JPG,false,0,keypress(z),500,624433,624432,621645.74,621647,621646.46,624432.88,8,400,26,,ISIC_0069486.JPG
break,html.Screen,4_125_1,2023-10-30T23:10:55.934Z,,0,,,NaN,,,,,,false,,,,624434,624434,,624433,,624432.88,8,400,,,
break_continue,html.Screen,4_125_2,2023-10-30T23:10:55.934Z,,0,,,NaN,,,,,,false,,,,624434,624434,,624434,,624432.88,8,400,,,
sequence,flow.Sequence,4_125,2023-10-30T23:10:55.934Z,,0,,,2787.5400000000373,completion,,,,,false,,,,624434,624434,621645.74,621647,621646.46,624432.88,8,400,,,
trial,html.Screen,4_126_0,2023-10-30T23:10:58.477Z,,0,3,,2544.1199999999953,response,ISIC_2928274.JPG,3,ISIC_0031208.JPG,ISIC_2928274.JPG,false,1,keypress(m),500,626977,626977,624432.58,624434,624432.88,626977.82,8,400,27,,ISIC_0031208.JPG
break,html.Screen,4_126_1,2023-10-30T23:10:58.478Z,,0,,,NaN,,,,,,false,,,,626978,626978,,626977,,626977.82,8,400,,,
break_continue,html.Screen,4_126_2,2023-10-30T23:10:58.478Z,,0,,,NaN,,,,,,false,,,,626978,626978,,626978,,626977.82,8,400,,,
sequence,flow.Sequence,4_126,2023-10-30T23:10:58.478Z,,0,,,2545.1199999999953,completion,,,,,false,,,,626978,626978,624432.58,624434,624432.88,626977.82,8,400,,,
trial,html.Screen,4_127_0,2023-10-30T23:11:01.624Z,,0,3,,3145.180000000051,response,ISIC_0025409.JPG,8,ISIC_4642695.JPG,ISIC_0025409.JPG,false,1,keypress(m),500,630123,630123,626977,626978,626977.82,630123.82,8,400,28,,ISIC_4642695.JPG
break,html.Screen,4_127_1,2023-10-30T23:11:01.625Z,,0,,,NaN,,,,,,false,,,,630124,630124,,630123,,630123.82,8,400,,,
break_continue,html.Screen,4_127_2,2023-10-30T23:11:01.625Z,,0,,,NaN,,,,,,false,,,,630124,630124,,630124,,630123.82,8,400,,,
sequence,flow.Sequence,4_127,2023-10-30T23:11:01.625Z,,0,,,3146.180000000051,completion,,,,,false,,,,630124,630124,626977,626978,626977.82,630123.82,8,400,,,
trial,html.Screen,4_128_0,2023-10-30T23:11:05.559Z,,0,3,,3935.180000000051,response,ISIC_0026671.JPG,2,ISIC_0013549.JPG,ISIC_0013549.JPG,false,0,keypress(z),500,634059,634059,630123.58,630124,630123.82,634061.18,8,400,29,,ISIC_0026671.JPG
break,html.Screen,4_128_1,2023-10-30T23:11:05.560Z,,0,,,NaN,,,,,,false,,,,634060,634060,,634059,,634061.18,8,400,,,
break_continue,html.Screen,4_128_2,2023-10-30T23:11:05.560Z,,0,,,NaN,,,,,,false,,,,634060,634060,,634060,,634061.18,8,400,,,
sequence,flow.Sequence,4_128,2023-10-30T23:11:05.560Z,,0,,,3936.180000000051,completion,,,,,false,,,,634060,634060,630123.58,630124,630123.82,634061.18,8,400,,,
trial,html.Screen,4_129_0,2023-10-30T23:11:08.276Z,,0,3,,2714.819999999949,response,ISIC_0027030.JPG,2,ISIC_8651765.JPG,ISIC_0027030.JPG,false,1,keypress(m),500,636776,636776,634059.54,634060,634061.18,636776.76,8,400,30,,ISIC_8651765.JPG
break,html.Screen,4_129_1,2023-10-30T23:11:08.277Z,,0,,,NaN,,,,,,false,,,,636777,636777,,636776,,636776.76,8,400,,,
break_continue,html.Screen,4_129_2,2023-10-30T23:11:08.277Z,,0,,,NaN,,,,,,false,,,,636777,636777,,636777,,636776.76,8,400,,,
sequence,flow.Sequence,4_129,2023-10-30T23:11:08.277Z,,0,,,2715.819999999949,completion,,,,,false,,,,636777,636777,634059.54,634060,634061.18,636776.76,8,400,,,
trial,html.Screen,4_130_0,2023-10-30T23:11:13.134Z,,0,3,,4856.239999999991,response,ISIC_6732560.JPG,10,ISIC_3444719.JPG,ISIC_3444719.JPG,false,0,keypress(z),500,641634,641633,636776.46,636777,636776.76,641633.76,8,400,31,,ISIC_6732560.JPG
break,html.Screen,4_130_1,2023-10-30T23:11:13.134Z,,0,,,NaN,,,,,,false,,,,641634,641634,,641634,,641633.76,8,400,,,
break_continue,html.Screen,4_130_2,2023-10-30T23:11:13.135Z,,0,,,NaN,,,,,,false,,,,641635,641635,,641634,,641633.76,8,400,,,
sequence,flow.Sequence,4_130,2023-10-30T23:11:13.135Z,,0,,,4858.239999999991,completion,,,,,false,,,,641635,641635,636776.46,636777,636776.76,641633.76,8,400,,,
trial,html.Screen,4_131_0,2023-10-30T23:11:16.249Z,,0,3,,3115.2399999999907,response,ISIC_0030356.JPG,17,ISIC_7183212.JPG,ISIC_7183212.JPG,false,0,keypress(z),500,644749,644749,641633.62,641635,641633.76,644749.54,8,400,32,,ISIC_0030356.JPG
break,html.Screen,4_131_1,2023-10-30T23:11:16.250Z,,0,,,NaN,,,,,,false,,,,644750,644750,,644749,,644749.54,8,400,,,
break_continue,html.Screen,4_131_2,2023-10-30T23:11:16.250Z,,0,,,NaN,,,,,,false,,,,644750,644750,,644750,,644749.54,8,400,,,
sequence,flow.Sequence,4_131,2023-10-30T23:11:16.250Z,,0,,,3116.2399999999907,completion,,,,,false,,,,644750,644750,641633.62,641635,641633.76,644749.54,8,400,,,
trial,html.Screen,4_132_0,2023-10-30T23:11:21.538Z,,0,3,,5287.459999999963,response,ISIC_0027033.JPG,6,ISIC_1584535.JPG,ISIC_0027033.JPG,false,1,keypress(m),500,650038,650037,644749.32,644750,644749.54,650038.36,8,400,33,,ISIC_1584535.JPG
break,html.Screen,4_132_1,2023-10-30T23:11:21.539Z,,0,,,NaN,,,,,,false,,,,650039,650039,,650038,,650038.36,8,400,,,
break_continue,html.Screen,4_132_2,2023-10-30T23:11:21.539Z,,0,,,NaN,,,,,,false,,,,650039,650039,,650039,,650038.36,8,400,,,
sequence,flow.Sequence,4_132,2023-10-30T23:11:21.539Z,,0,,,5289.459999999963,completion,,,,,false,,,,650039,650039,644749.32,644750,644749.54,650038.36,8,400,,,
trial,html.Screen,4_133_0,2023-10-30T23:11:25.426Z,,0,3,,3887.640000000014,response,ISIC_0012057.JPG,17,ISIC_0030820.JPG,ISIC_0012057.JPG,false,1,keypress(m),500,653926,653926,650038.12,650040,650038.36,653926.58,8,400,34,,ISIC_0030820.JPG
break,html.Screen,4_133_1,2023-10-30T23:11:25.427Z,,0,,,NaN,,,,,,false,,,,653927,653927,,653927,,653926.58,8,400,,,
break_continue,html.Screen,4_133_2,2023-10-30T23:11:25.427Z,,0,,,NaN,,,,,,false,,,,653927,653927,,653927,,653926.58,8,400,,,
sequence,flow.Sequence,4_133,2023-10-30T23:11:25.427Z,,0,,,3888.640000000014,completion,,,,,false,,,,653927,653927,650038.12,650040,650038.36,653926.58,8,400,,,
trial,html.Screen,4_134_0,2023-10-30T23:11:28.135Z,,0,3,,2707.420000000042,response,ISIC_5181177.JPG,7,ISIC_3965087.JPG,ISIC_5181177.JPG,false,1,keypress(m),500,656635,656634,653926.4,653927,653926.58,656635.78,8,400,35,,ISIC_3965087.JPG
break,html.Screen,4_134_1,2023-10-30T23:11:28.136Z,,0,,,NaN,,,,,,false,,,,656636,656636,,656635,,656635.78,8,400,,,
break_continue,html.Screen,4_134_2,2023-10-30T23:11:28.136Z,,0,,,NaN,,,,,,false,,,,656636,656636,,656636,,656635.78,8,400,,,
sequence,flow.Sequence,4_134,2023-10-30T23:11:28.136Z,,0,,,2709.420000000042,completion,,,,,false,,,,656636,656636,653926.4,653927,653926.58,656635.78,8,400,,,
trial,html.Screen,4_135_0,2023-10-30T23:11:30.638Z,,0,3,,2501.219999999972,response,ISIC_0878793.JPG,8,ISIC_8330906.JPG,ISIC_0878793.JPG,false,1,keypress(m),500,659138,659137,656635.48,656636,656635.78,659138.04,8,400,36,,ISIC_8330906.JPG
break,html.Screen,4_135_1,2023-10-30T23:11:30.638Z,,0,,,NaN,,,,,,false,,,,659138,659138,,659138,,659138.04,8,400,,,
break_continue,html.Screen,4_135_2,2023-10-30T23:11:30.639Z,,0,,,NaN,,,,,,false,,,,659139,659138,,659138,,659138.04,8,400,,,
sequence,flow.Sequence,4_135,2023-10-30T23:11:30.639Z,,0,,,2502.219999999972,completion,,,,,false,,,,659139,659138,656635.48,656636,656635.78,659138.04,8,400,,,
trial,html.Screen,4_136_0,2023-10-30T23:11:33.708Z,,0,3,,3070.9599999999627,response,ISIC_5903193.JPG,2,ISIC_0032766.JPG,ISIC_5903193.JPG,false,1,keypress(m),500,662209,662209,659137.8,659139,659138.04,662208.94,8,400,37,,ISIC_0032766.JPG
break,html.Screen,4_136_1,2023-10-30T23:11:33.709Z,,0,,,NaN,,,,,,false,,,,662210,662209,,662209,,662208.94,8,400,,,
break_continue,html.Screen,4_136_2,2023-10-30T23:11:33.709Z,,0,,,NaN,,,,,,false,,,,662210,662210,,662210,,662208.94,8,400,,,
sequence,flow.Sequence,4_136,2023-10-30T23:11:33.709Z,,0,,,3071.9599999999627,completion,,,,,false,,,,662210,662210,659137.8,659139,659138.04,662208.94,8,400,,,
trial,html.Screen,4_137_0,2023-10-30T23:11:36.426Z,,0,3,,2718.060000000056,response,ISIC_0026746.JPG,1,ISIC_4525317.JPG,ISIC_4525317.JPG,false,0,keypress(z),500,664927,664927,662208.68,662210,662208.94,664929.2,8,400,38,,ISIC_0026746.JPG
break,html.Screen,4_137_1,2023-10-30T23:11:36.427Z,,0,,,NaN,,,,,,false,,,,664928,664928,,664927,,664929.2,8,400,,,
break_continue,html.Screen,4_137_2,2023-10-30T23:11:36.428Z,,0,,,NaN,,,,,,false,,,,664928,664928,,664928,,664929.2,8,400,,,
sequence,flow.Sequence,4_137,2023-10-30T23:11:36.428Z,,0,,,2719.060000000056,completion,,,,,false,,,,664929,664928,662208.68,662210,662208.94,664929.2,8,400,,,
trial,html.Screen,4_138_0,2023-10-30T23:11:39.432Z,,0,3,,3001.8000000000466,response,ISIC_5848892.JPG,16,ISIC_0061884.JPG,ISIC_5848892.JPG,false,1,keypress(m),500,667931,667931,664926.84,664929,664929.2,667931.68,8,400,39,,ISIC_0061884.JPG
break,html.Screen,4_138_1,2023-10-30T23:11:39.432Z,,0,,,NaN,,,,,,false,,,,667932,667932,,667931,,667931.68,8,400,,,
break_continue,html.Screen,4_138_2,2023-10-30T23:11:39.433Z,,0,,,NaN,,,,,,false,,,,667932,667932,,667932,,667931.68,8,400,,,
sequence,flow.Sequence,4_138,2023-10-30T23:11:39.433Z,,0,,,3002.8000000000466,completion,,,,,false,,,,667932,667932,664926.84,664929,664929.2,667931.68,8,400,,,
trial,html.Screen,4_139_0,2023-10-30T23:11:42.184Z,,0,3,,2752.319999999949,response,ISIC_3945916.JPG,2,ISIC_9525136.JPG,ISIC_3945916.JPG,false,1,keypress(m),500,670684,670684,667931.38,667932,667931.68,670684,8,400,40,,ISIC_9525136.JPG
break,html.Screen,4_139_1,2023-10-30T23:11:42.184Z,,0,,,NaN,,,,,,false,,,,670685,670685,,670684,,670684,8,400,,,
break_continue,html.Screen,4_139_2,2023-10-30T23:11:42.185Z,,0,,,NaN,,,,,,false,,,,670685,670685,,670685,,670684,8,400,,,
sequence,flow.Sequence,4_139,2023-10-30T23:11:42.185Z,,0,,,2753.319999999949,completion,,,,,false,,,,670685,670685,667931.38,667932,667931.68,670684,8,400,,,
trial,html.Screen,4_140_0,2023-10-30T23:11:45.063Z,,0,3,,2878,response,ISIC_0064784.JPG,1,ISIC_8027899.JPG,ISIC_8027899.JPG,false,0,keypress(z),500,673563,673562,670683.8,670685,670684,673563.52,8,400,41,,ISIC_0064784.JPG
break,html.Screen,4_140_1,2023-10-30T23:11:45.064Z,,0,,,NaN,,,,,,false,,,,673564,673564,,673563,,673563.52,8,400,,,
break_continue,html.Screen,4_140_2,2023-10-30T23:11:45.064Z,,0,,,NaN,,,,,,false,,,,673564,673564,,673564,,673563.52,8,400,,,
sequence,flow.Sequence,4_140,2023-10-30T23:11:45.064Z,,0,,,2880,completion,,,,,false,,,,673564,673564,670683.8,670685,670684,673563.52,8,400,,,
trial,html.Screen,4_141_0,2023-10-30T23:11:48.120Z,,0,3,,3055.4799999999814,response,ISIC_0029693.JPG,4,ISIC_4796100.JPG,ISIC_4796100.JPG,false,0,keypress(z),500,676619,676619,673563.28,673564,673563.52,676619.64,8,400,42,,ISIC_0029693.JPG
break,html.Screen,4_141_1,2023-10-30T23:11:48.120Z,,0,,,NaN,,,,,,false,,,,676620,676620,,676619,,676619.64,8,400,,,
break_continue,html.Screen,4_141_2,2023-10-30T23:11:48.121Z,,0,,,NaN,,,,,,false,,,,676620,676620,,676620,,676619.64,8,400,,,
sequence,flow.Sequence,4_141,2023-10-30T23:11:48.121Z,,0,,,3056.4799999999814,completion,,,,,false,,,,676620,676620,673563.28,673564,673563.52,676619.64,8,400,,,
trial,html.Screen,4_142_0,2023-10-30T23:11:50.746Z,,0,3,,2625.359999999986,response,ISIC_0033830.JPG,3,ISIC_9104982.JPG,ISIC_9104982.JPG,false,0,keypress(z),500,679245,679245,676619.36,676620,676619.64,679245.96,8,400,43,,ISIC_0033830.JPG
break,html.Screen,4_142_1,2023-10-30T23:11:50.746Z,,0,,,NaN,,,,,,false,,,,679246,679246,,679245,,679245.96,8,400,,,
break_continue,html.Screen,4_142_2,2023-10-30T23:11:50.747Z,,0,,,NaN,,,,,,false,,,,679246,679246,,679246,,679245.96,8,400,,,
sequence,flow.Sequence,4_142,2023-10-30T23:11:50.747Z,,0,,,2626.359999999986,completion,,,,,false,,,,679246,679246,676619.36,676620,676619.64,679245.96,8,400,,,
trial,html.Screen,4_143_0,2023-10-30T23:11:53.374Z,,0,3,,2627.0400000000373,response,ISIC_0046443.JPG,6,ISIC_0025018.JPG,ISIC_0046443.JPG,false,1,keypress(m),500,681874,681873,679245.76,679246,679245.96,681874.08,8,400,44,,ISIC_0025018.JPG
break,html.Screen,4_143_1,2023-10-30T23:11:53.374Z,,0,,,NaN,,,,,,false,,,,681874,681874,,681874,,681874.08,8,400,,,
break_continue,html.Screen,4_143_2,2023-10-30T23:11:53.374Z,,0,,,NaN,,,,,,false,,,,681875,681875,,681875,,681874.08,8,400,,,
sequence,flow.Sequence,4_143,2023-10-30T23:11:53.374Z,,0,,,2629.0400000000373,completion,,,,,false,,,,681875,681875,679245.76,679246,679245.96,681874.08,8,400,,,
trial,html.Screen,4_144_0,2023-10-30T23:11:56.094Z,,0,3,,2719.920000000042,response,ISIC_3685448.JPG,1,ISIC_0056127.JPG,ISIC_3685448.JPG,false,1,keypress(m),500,684594,684594,681873.92,681875,681874.08,684595.82,8,400,45,,ISIC_0056127.JPG
break,html.Screen,4_144_1,2023-10-30T23:11:56.095Z,,0,,,NaN,,,,,,false,,,,684595,684595,,684594,,684595.82,8,400,,,
break_continue,html.Screen,4_144_2,2023-10-30T23:11:56.095Z,,0,,,NaN,,,,,,false,,,,684595,684595,,684595,,684595.82,8,400,,,
sequence,flow.Sequence,4_144,2023-10-30T23:11:56.096Z,,0,,,2720.920000000042,completion,,,,,false,,,,684595,684595,681873.92,681875,681874.08,684595.82,8,400,,,
trial,html.Screen,4_145_0,2023-10-30T23:11:58.705Z,,0,3,,2609.180000000051,response,ISIC_0010380.JPG,1,ISIC_3900049.JPG,ISIC_0010380.JPG,false,1,keypress(m),500,687206,687205,684594.32,684595,684595.82,687206.96,8,400,46,,ISIC_3900049.JPG
break,html.Screen,4_145_1,2023-10-30T23:11:58.706Z,,0,,,NaN,,,,,,false,,,,687207,687207,,687206,,687206.96,8,400,,,
break_continue,html.Screen,4_145_2,2023-10-30T23:11:58.706Z,,0,,,NaN,,,,,,false,,,,687207,687207,,687207,,687206.96,8,400,,,
sequence,flow.Sequence,4_145,2023-10-30T23:11:58.707Z,,0,,,2611.180000000051,completion,,,,,false,,,,687207,687207,684594.32,684595,684595.82,687206.96,8,400,,,
trial,html.Screen,4_146_0,2023-10-30T23:12:01.464Z,,0,3,,2755.0400000000373,response,ISIC_9350507.JPG,3,ISIC_9049170.JPG,ISIC_9350507.JPG,false,1,keypress(m),500,689963,689962,687205.92,687207,687206.96,689963.86,8,400,47,,ISIC_9049170.JPG
break,html.Screen,4_146_1,2023-10-30T23:12:01.464Z,,0,,,NaN,,,,,,false,,,,689964,689964,,689963,,689963.86,8,400,,,
break_continue,html.Screen,4_146_2,2023-10-30T23:12:01.465Z,,0,,,NaN,,,,,,false,,,,689964,689964,,689964,,689963.86,8,400,,,
sequence,flow.Sequence,4_146,2023-10-30T23:12:01.465Z,,0,,,2757.0400000000373,completion,,,,,false,,,,689964,689964,687205.92,687207,687206.96,689963.86,8,400,,,
trial,html.Screen,4_147_0,2023-10-30T23:12:04.200Z,,0,3,,2735.140000000014,response,ISIC_0064478.JPG,18,ISIC_0067443.JPG,ISIC_0067443.JPG,false,0,keypress(z),500,692699,692699,689963.28,689964,689963.86,692700.08,8,400,48,,ISIC_0064478.JPG
break,html.Screen,4_147_1,2023-10-30T23:12:04.200Z,,0,,,NaN,,,,,,false,,,,692700,692700,,692699,,692700.08,8,400,,,
break_continue,html.Screen,4_147_2,2023-10-30T23:12:04.201Z,,0,,,NaN,,,,,,false,,,,692701,692701,,692700,,692700.08,8,400,,,
sequence,flow.Sequence,4_147,2023-10-30T23:12:04.201Z,,0,,,2737.140000000014,completion,,,,,false,,,,692701,692701,689963.28,689964,689963.86,692700.08,8,400,,,
trial,html.Screen,4_148_0,2023-10-30T23:12:06.759Z,,0,3,,2557.920000000042,response,ISIC_0011696.JPG,3,ISIC_0053810.JPG,ISIC_0053810.JPG,false,0,keypress(z),500,695259,695258,692699.76,692701,692700.08,695259.64,8,400,49,,ISIC_0011696.JPG
break,html.Screen,4_148_1,2023-10-30T23:12:06.760Z,,0,,,NaN,,,,,,false,,,,695260,695260,,695259,,695259.64,8,400,,,
break_continue,html.Screen,4_148_2,2023-10-30T23:12:06.760Z,,0,,,NaN,,,,,,false,,,,695260,695260,,695260,,695259.64,8,400,,,
sequence,flow.Sequence,4_148,2023-10-30T23:12:06.760Z,,0,,,2559.920000000042,completion,,,,,false,,,,695260,695260,692699.76,692701,692700.08,695259.64,8,400,,,
trial,html.Screen,4_149_0,2023-10-30T23:12:09.320Z,,0,3,,2558.359999999986,response,ISIC_0000274.JPG,3,ISIC_0033344.JPG,ISIC_0033344.JPG,false,0,keypress(z),500,697819,697818,695259.32,695260,695259.64,697819.56,8,400,50,,ISIC_0000274.JPG
break,html.Screen,4_149_1,2023-10-30T23:12:19.311Z,,0,,,9996.959999999963,timeout,,,,,false,,,,707812,707809.58,697819.24,697819,697819.56,707816.52,8,400,,,
break_continue,html.Screen,4_149_2,2023-10-30T23:12:26.910Z,,0,,,7586.479999999981,response,,,,,false,continue,keypress(Space),,715410,715403,707809.58,707812,707816.52,715411.02,8,400,,,
sequence,flow.Sequence,4_149,2023-10-30T23:12:26.911Z,,0,,,20143.359999999986,completion,,,,,false,,,,715410,715403,695259.32,695260,695259.64,715411.02,8,400,,,
trial,html.Screen,4_150_0,2023-10-30T23:12:32.092Z,,0,4,,5180.979999999981,response,ISIC_0064907.JPG,12,ISIC_5736292.JPG,ISIC_0064907.JPG,false,1,keypress(m),500,720593,720592,715410.92,715410,715411.02,720592.44,8,400,1,,ISIC_5736292.JPG
break,html.Screen,4_150_1,2023-10-30T23:12:32.092Z,,0,,,NaN,,,,,,false,,,,720593,720593,,720593,,720592.44,8,400,,,
break_continue,html.Screen,4_150_2,2023-10-30T23:12:32.093Z,,0,,,NaN,,,,,,false,,,,720593,720593,,720593,,720592.44,8,400,,,
sequence,flow.Sequence,4_150,2023-10-30T23:12:32.093Z,,0,,,5181.979999999981,completion,,,,,false,,,,720593,720593,715410.92,715410,715411.02,720592.44,8,400,,,
