sender,sender_type,sender_id,timestamp,meta,,blockNo,condition,duration,ended_on,img_left,img_reveal,img_right,loser,practice,response,response_action,selection_duration,time_commit,time_end,time_render,time_run,time_show,time_switch,total_blocks,total_trials,trialNo,url,winner
informed_consent,html.Screen,0,2023-05-02T16:29:31.919Z,"{""labjs_version"":""20.2.4"",""labjs_build"":{""flavor"":""production"",""commit"":""f5b4a49f956347addd546a832a3327688c2c0fef""},""location"":""https://run.pavlovia.org/MurrayBennett/melanoma-2afc/?participant=64809"",""userAgent"":""Mozilla/5.0 (Macintosh; Intel Mac OS X 10_15_7) AppleWebKit/537.36 (KHTML, like Gecko) Chrome/109.0.0.0 Safari/537.36"",""platform"":""MacIntel"",""language"":""en-US"",""locale"":""en-US"",""timeZone"":""America/Chicago"",""timezoneOffset"":300,""screen_width"":1440,""screen_height"":900,""scroll_width"":1440,""scroll_height"":773,""window_innerWidth"":1440,""window_innerHeight"":821,""devicePixelRatio"":1}",,,,35500.71300000596,response,,,,,,consent,click button,,38333.10000000894,38329.40000000596,2178.674,2824.4000000059605,2828.687,38381.044,,,,"{""participant"":""64809""}",
Welcome,html.Screen,1,2023-05-02T16:30:21.367Z,,,,regular,49396.55600000894,response,,,,,,continue,click button,,87780.5,87777.60000000894,38331.043,38333.5,38381.044,87784.935,,,,,
trial,html.Screen,2_0_0,2023-05-02T16:30:26.744Z,,0,0,,5371.965000005963,response,ISIC_0061792.JPG,,ISIC_4679428.JPG,ISIC_4679428.JPG,true,0,keypress(z),500,93157.29999999702,93156.90000000596,87768.268,87780.79999999702,87784.935,93168.376,1,6,1,,ISIC_0061792.JPG
sequence,flow.Sequence,2_0,2023-05-02T16:30:26.744Z,,0,,,5371.965000005963,completion,,,,,true,,,,93157.79999999702,93156.90000000596,87768.268,87780.79999999702,87784.935,93168.376,1,6,,,
trial,html.Screen,2_1_0,2023-05-02T16:30:34.353Z,,0,0,,7597.923999997016,response,ISIC_0776486.JPG,,ISIC_5199497.JPG,ISIC_0776486.JPG,true,1,keypress(m),500,100766.70000000298,100766.29999999702,93151.709,93157.90000000596,93168.376,100769.167,1,6,2,,ISIC_5199497.JPG
sequence,flow.Sequence,2_1,2023-05-02T16:30:34.354Z,,0,,,7597.923999997016,completion,,,,,true,,,,100767,100766.29999999702,93151.709,93157.90000000596,93168.376,100769.167,1,6,,,
trial,html.Screen,2_2_0,2023-05-02T16:30:42.522Z,,0,0,,8165.433000008939,response,ISIC_2556187.JPG,,ISIC_8575776.JPG,ISIC_8575776.JPG,true,0,keypress(z),500,108934.90000000596,108934.60000000894,100752.5,100767.20000000298,100769.167,108952.664,1,6,3,,ISIC_2556187.JPG
sequence,flow.Sequence,2_2,2023-05-02T16:30:42.522Z,,0,,,8165.433000008939,completion,,,,,true,,,,108935.29999999702,108934.60000000894,100752.5,100767.10000000894,100769.167,108952.664,1,6,,,
trial,html.Screen,2_3_0,2023-05-02T16:30:45.816Z,,0,0,,3275.9360000089364,response,ISIC_8141769.JPG,,ISIC_9238366.JPG,ISIC_8141769.JPG,true,1,keypress(m),500,112228.79999999702,112228.60000000894,108935.997,108935.5,108952.664,112236.546,1,6,4,,ISIC_9238366.JPG
sequence,flow.Sequence,2_3,2023-05-02T16:30:45.816Z,,0,,,3275.9360000089364,completion,,,,,true,,,,112229.29999999702,112228.60000000894,108935.997,108935.40000000596,108952.664,112236.546,1,6,,,
trial,html.Screen,2_4_0,2023-05-02T16:30:53.329Z,,0,0,,7504.953999999998,response,ISIC_8949026.JPG,,ISIC_9959593.JPG,ISIC_9959593.JPG,true,0,keypress(z),500,119741.70000000298,119741.5,112219.879,112229.60000000894,112236.546,119753.363,1,6,5,,ISIC_8949026.JPG
sequence,flow.Sequence,2_4,2023-05-02T16:30:53.329Z,,0,,,7504.953999999998,completion,,,,,true,,,,119742.10000000894,119741.5,112219.879,112229.40000000596,112236.546,119753.363,1,6,,,
trial,html.Screen,2_5_0,2023-05-02T16:30:56.520Z,,0,0,,3178.6370000000024,response,ISIC_0010479.JPG,,ISIC_0460240.JPG,ISIC_0010479.JPG,true,1,keypress(m),500,122932.29999999702,122932,119736.696,119742.40000000596,119753.363,122937.275,1,6,6,,ISIC_0460240.JPG
sequence,flow.Sequence,2_5,2023-05-02T16:30:56.520Z,,0,,,3178.6370000000024,completion,,,,,true,,,,122932.70000000298,122932,119736.696,119742.29999999702,119753.363,122937.275,1,6,,,
loop,flow.Loop,2,2023-05-02T16:30:56.520Z,,,,,35147.065,completion,,,,,true,,,,122933,122932,87768.268,87780.70000000298,87784.935,122937.275,1,6,,,
exp_instructions,html.Screen,3,2023-05-02T16:31:06.069Z,,,,,9538.325000008947,response,,,,,,continue,keypress(Space),,132481.29999999702,132475.60000000894,122920.608,122933.10000000894,122937.275,132487.466,,,,,
trial,html.Screen,4_0_0,2023-05-02T16:31:10.800Z,,0,1,,4724.833999997034,response,ISIC_0010240.JPG,,ISIC_0032544.JPG,ISIC_0010240.JPG,false,1,keypress(m),500,137212.60000000894,137212.29999999702,132470.799,132481.60000000894,132487.466,137221.454,8,400,1,,ISIC_0032544.JPG
break,html.Screen,4_0_1,2023-05-02T16:31:10.801Z,,0,,,NaN,,,,,,false,,,,137213.70000000298,137213.29999999702,,137212.79999999702,,137221.454,8,400,,,
break_continue,html.Screen,4_0_2,2023-05-02T16:31:10.802Z,,0,,,NaN,,,,,,false,,,,137214.20000000298,137214,,137213.90000000596,,137221.454,8,400,,,
sequence,flow.Sequence,4_0,2023-05-02T16:31:10.802Z,,0,,,4726.534000000014,completion,,,,,false,,,,137214.5,137214,132470.799,132481.60000000894,132487.466,137221.454,8,400,,,
trial,html.Screen,4_1_0,2023-05-02T16:31:19.275Z,,0,1,,8465.546000000002,response,ISIC_7052658.JPG,,ISIC_6228471.JPG,ISIC_7052658.JPG,false,1,keypress(m),500,145687.29999999702,145687,137204.787,137214.60000000894,137221.454,145688.919,8,400,2,,ISIC_6228471.JPG
break,html.Screen,4_1_1,2023-05-02T16:31:19.276Z,,0,,,NaN,,,,,,false,,,,145688,145687.79999999702,,145687.5,,145688.919,8,400,,,
break_continue,html.Screen,4_1_2,2023-05-02T16:31:19.276Z,,0,,,NaN,,,,,,false,,,,145688.5,145688.29999999702,,145688.20000000298,,145688.919,8,400,,,
sequence,flow.Sequence,4_1,2023-05-02T16:31:19.276Z,,0,,,8466.845999997022,completion,,,,,false,,,,145688.60000000894,145688.29999999702,137204.787,137214.60000000894,137221.454,145688.919,8,400,,,
trial,html.Screen,4_2_0,2023-05-02T16:31:22.608Z,,0,1,,3330.6810000089463,response,ISIC_0009924.JPG,,ISIC_0024268.JPG,ISIC_0009924.JPG,false,1,keypress(m),500,149019.90000000596,149019.60000000894,145672.252,145688.79999999702,145688.919,149022.319,8,400,3,,ISIC_0024268.JPG
break,html.Screen,4_2_1,2023-05-02T16:31:22.608Z,,0,,,NaN,,,,,,false,,,,149020.60000000894,149020.40000000596,,149020.10000000894,,149022.319,8,400,,,
break_continue,html.Screen,4_2_2,2023-05-02T16:31:22.609Z,,0,,,NaN,,,,,,false,,,,149021.10000000894,149020.90000000596,,149020.79999999702,,149022.319,8,400,,,
sequence,flow.Sequence,4_2,2023-05-02T16:31:22.609Z,,0,,,3331.981000005966,completion,,,,,false,,,,149021.20000000298,149020.90000000596,145672.252,145688.79999999702,145688.919,149022.319,8,400,,,
trial,html.Screen,4_3_0,2023-05-02T16:31:28.818Z,,0,1,,6207.081000005972,response,ISIC_0000161.JPG,,ISIC_4153542.JPG,ISIC_0000161.JPG,false,1,keypress(m),500,155229.79999999702,155229.40000000596,149005.652,149021.40000000596,149022.319,155239.11,8,400,4,,ISIC_4153542.JPG
break,html.Screen,4_3_1,2023-05-02T16:31:28.818Z,,0,,,NaN,,,,,,false,,,,155230.5,155230.40000000596,,155230.10000000894,,155239.11,8,400,,,
break_continue,html.Screen,4_3_2,2023-05-02T16:31:28.819Z,,0,,,NaN,,,,,,false,,,,155231,155230.90000000596,,155230.70000000298,,155239.11,8,400,,,
sequence,flow.Sequence,4_3,2023-05-02T16:31:28.819Z,,0,,,6208.581000005972,completion,,,,,false,,,,155231.29999999702,155230.90000000596,149005.652,149021.29999999702,149022.319,155239.11,8,400,,,
trial,html.Screen,4_4_0,2023-05-02T16:31:32.523Z,,0,1,,3695.390000000014,response,ISIC_7254359.JPG,,ISIC_0031039.JPG,ISIC_0031039.JPG,false,0,keypress(z),500,158934.79999999702,158934.5,155222.443,155231.40000000596,155239.11,158939.698,8,400,5,,ISIC_7254359.JPG
break,html.Screen,4_4_1,2023-05-02T16:31:32.524Z,,0,,,NaN,,,,,,false,,,,158935.60000000894,158935.40000000596,,158935.10000000894,,158939.698,8,400,,,
break_continue,html.Screen,4_4_2,2023-05-02T16:31:32.524Z,,0,,,NaN,,,,,,false,,,,158935.90000000596,158935.79999999702,,158935.70000000298,,158939.698,8,400,,,
sequence,flow.Sequence,4_4,2023-05-02T16:31:32.524Z,,0,,,3696.6899999970337,completion,,,,,false,,,,158936.10000000894,158935.79999999702,155222.443,155231.29999999702,155239.11,158939.698,8,400,,,
trial,html.Screen,4_5_0,2023-05-02T16:31:37.776Z,,0,1,,5248.2020000059565,response,ISIC_0025132.JPG,,ISIC_1985763.JPG,ISIC_0025132.JPG,false,1,keypress(m),500,164188.10000000894,164187.90000000596,158923.031,158936.40000000596,158939.698,164189.803,8,400,6,,ISIC_1985763.JPG
break,html.Screen,4_5_1,2023-05-02T16:31:37.777Z,,0,,,NaN,,,,,,false,,,,164188.79999999702,164188.60000000894,,164188.40000000596,,164189.803,8,400,,,
break_continue,html.Screen,4_5_2,2023-05-02T16:31:37.777Z,,0,,,NaN,,,,,,false,,,,164189.10000000894,164189,,164188.90000000596,,164189.803,8,400,,,
sequence,flow.Sequence,4_5,2023-05-02T16:31:37.777Z,,0,,,5249.301999999996,completion,,,,,false,,,,164189.29999999702,164189,158923.031,158936.29999999702,158939.698,164189.803,8,400,,,
trial,html.Screen,4_6_0,2023-05-02T16:31:42.641Z,,0,1,,4862.797000008926,response,ISIC_0394030.JPG,,ISIC_2702929.JPG,ISIC_2702929.JPG,false,0,keypress(z),500,169052.79999999702,169052.60000000894,164173.136,164189.40000000596,164189.803,169073.737,8,400,7,,ISIC_0394030.JPG
break,html.Screen,4_6_1,2023-05-02T16:31:42.642Z,,0,,,NaN,,,,,,false,,,,169053.5,169053.40000000596,,169053.10000000894,,169073.737,8,400,,,
break_continue,html.Screen,4_6_2,2023-05-02T16:31:42.642Z,,0,,,NaN,,,,,,false,,,,169053.90000000596,169053.79999999702,,169053.60000000894,,169073.737,8,400,,,
sequence,flow.Sequence,4_6,2023-05-02T16:31:42.642Z,,0,,,4863.996999997005,completion,,,,,false,,,,169054.10000000894,169053.79999999702,164173.136,164189.40000000596,164189.803,169073.737,8,400,,,
trial,html.Screen,4_7_0,2023-05-02T16:31:45.723Z,,0,1,,3061.1630000059668,response,ISIC_1654342.JPG,,ISIC_0062997.JPG,ISIC_1654342.JPG,false,1,keypress(m),500,172135.10000000894,172134.90000000596,169057.07,169054.20000000298,169073.737,172140.465,8,400,8,,ISIC_0062997.JPG
break,html.Screen,4_7_1,2023-05-02T16:31:45.724Z,,0,,,NaN,,,,,,false,,,,172135.90000000596,172135.70000000298,,172135.29999999702,,172140.465,8,400,,,
break_continue,html.Screen,4_7_2,2023-05-02T16:31:45.725Z,,0,,,NaN,,,,,,false,,,,172136.29999999702,172136.10000000894,,172136.10000000894,,172140.465,8,400,,,
sequence,flow.Sequence,4_7,2023-05-02T16:31:45.725Z,,0,,,3062.363000008947,completion,,,,,false,,,,172136.5,172136.10000000894,169057.07,169054.10000000894,169073.737,172140.465,8,400,,,
trial,html.Screen,4_8_0,2023-05-02T16:31:49.338Z,,0,1,,3608.8349999970233,response,ISIC_0055003.JPG,,ISIC_9742073.JPG,ISIC_0055003.JPG,false,1,keypress(m),500,175749.5,175749.29999999702,172123.798,172136.60000000894,172140.465,175757.204,8,400,9,,ISIC_9742073.JPG
break,html.Screen,4_8_1,2023-05-02T16:31:49.339Z,,0,,,NaN,,,,,,false,,,,175750.5,175750.29999999702,,175749.79999999702,,175757.204,8,400,,,
break_continue,html.Screen,4_8_2,2023-05-02T16:31:49.339Z,,0,,,NaN,,,,,,false,,,,175750.90000000596,175750.79999999702,,175750.70000000298,,175757.204,8,400,,,
sequence,flow.Sequence,4_8,2023-05-02T16:31:49.340Z,,0,,,3610.3349999970233,completion,,,,,false,,,,175751.10000000894,175750.79999999702,172123.798,172136.60000000894,172140.465,175757.204,8,400,,,
trial,html.Screen,4_9_0,2023-05-02T16:31:52.504Z,,0,1,,3158.095999997022,response,ISIC_0027683.JPG,,ISIC_0059769.JPG,ISIC_0027683.JPG,false,1,keypress(m),500,178915.60000000894,178915.29999999702,175740.537,175751.29999999702,175757.204,178924.42,8,400,10,,ISIC_0059769.JPG
break,html.Screen,4_9_1,2023-05-02T16:31:52.505Z,,0,,,NaN,,,,,,false,,,,178916.40000000596,178916.10000000894,,178915.90000000596,,178924.42,8,400,,,
break_continue,html.Screen,4_9_2,2023-05-02T16:31:52.505Z,,0,,,NaN,,,,,,false,,,,178916.70000000298,178916.60000000894,,178916.5,,178924.42,8,400,,,
sequence,flow.Sequence,4_9,2023-05-02T16:31:52.505Z,,0,,,3159.396000008943,completion,,,,,false,,,,178917,178916.60000000894,175740.537,175751.29999999702,175757.204,178924.42,8,400,,,
trial,html.Screen,4_10_0,2023-05-02T16:31:55.689Z,,0,1,,3176.180000008928,response,ISIC_0054655.JPG,,ISIC_4508511.JPG,ISIC_0054655.JPG,false,1,keypress(m),500,182101,182100.60000000894,178907.753,178917.10000000894,178924.42,182107.817,8,400,11,,ISIC_4508511.JPG
break,html.Screen,4_10_1,2023-05-02T16:31:55.690Z,,0,,,NaN,,,,,,false,,,,182101.70000000298,182101.5,,182101.20000000298,,182107.817,8,400,,,
break_continue,html.Screen,4_10_2,2023-05-02T16:31:55.691Z,,0,,,NaN,,,,,,false,,,,182102.10000000894,182101.90000000596,,182101.79999999702,,182107.817,8,400,,,
sequence,flow.Sequence,4_10,2023-05-02T16:31:55.691Z,,0,,,3177.4800000059477,completion,,,,,false,,,,182102.29999999702,182101.90000000596,178907.753,178917.10000000894,178924.42,182107.817,8,400,,,
trial,html.Screen,4_11_0,2023-05-02T16:31:58.633Z,,0,1,,2936.18299999999,response,ISIC_3923443.JPG,,ISIC_0010306.JPG,ISIC_0010306.JPG,false,0,keypress(z),500,185044.20000000298,185044,182091.15,182102.40000000596,182107.817,185057.876,8,400,12,,ISIC_3923443.JPG
break,html.Screen,4_11_1,2023-05-02T16:31:58.634Z,,0,,,NaN,,,,,,false,,,,185044.90000000596,185044.70000000298,,185044.5,,185057.876,8,400,,,
break_continue,html.Screen,4_11_2,2023-05-02T16:31:58.634Z,,0,,,NaN,,,,,,false,,,,185045.40000000596,185045.20000000298,,185045.10000000894,,185057.876,8,400,,,
sequence,flow.Sequence,4_11,2023-05-02T16:31:58.634Z,,0,,,2937.38300000297,completion,,,,,false,,,,185045.60000000894,185045.20000000298,182091.15,182102.40000000596,182107.817,185057.876,8,400,,,
trial,html.Screen,4_12_0,2023-05-02T16:32:01.844Z,,0,1,,3197.024000005971,response,ISIC_0046917.JPG,,ISIC_0904712.JPG,ISIC_0046917.JPG,false,1,keypress(m),500,188255.10000000894,188254.90000000596,185041.209,185045.70000000298,185057.876,188258.343,8,400,13,,ISIC_0904712.JPG
break,html.Screen,4_12_1,2023-05-02T16:32:01.844Z,,0,,,NaN,,,,,,false,,,,188255.90000000596,188255.60000000894,,188255.29999999702,,188258.343,8,400,,,
break_continue,html.Screen,4_12_2,2023-05-02T16:32:01.845Z,,0,,,NaN,,,,,,false,,,,188256.20000000298,188256.10000000894,,188256,,188258.343,8,400,,,
sequence,flow.Sequence,4_12,2023-05-02T16:32:01.845Z,,0,,,3198.2240000089514,completion,,,,,false,,,,188256.5,188256.10000000894,185041.209,185045.70000000298,185057.876,188258.343,8,400,,,
trial,html.Screen,4_13_0,2023-05-02T16:32:04.780Z,,0,1,,2932.257000008947,response,ISIC_2432848.JPG,,ISIC_5147292.JPG,ISIC_2432848.JPG,false,1,keypress(m),500,191190.90000000596,191190.60000000894,188241.676,188256.60000000894,188258.343,191191.735,8,400,14,,ISIC_5147292.JPG
break,html.Screen,4_13_1,2023-05-02T16:32:04.780Z,,0,,,NaN,,,,,,false,,,,191191.60000000894,191191.40000000596,,191191.10000000894,,191191.735,8,400,,,
break_continue,html.Screen,4_13_2,2023-05-02T16:32:04.781Z,,0,,,NaN,,,,,,false,,,,191192,191191.79999999702,,191191.70000000298,,191191.735,8,400,,,
sequence,flow.Sequence,4_13,2023-05-02T16:32:04.781Z,,0,,,2933.4569999970263,completion,,,,,false,,,,191192.20000000298,191191.79999999702,188241.676,188256.60000000894,188258.343,191191.735,8,400,,,
trial,html.Screen,4_14_0,2023-05-02T16:32:08.033Z,,0,1,,3251.8650000089547,response,ISIC_0027751.JPG,,ISIC_0030300.JPG,ISIC_0027751.JPG,false,1,keypress(m),500,194443.90000000596,194443.60000000894,191175.068,191192.40000000596,191191.735,194458.467,8,400,15,,ISIC_0030300.JPG
break,html.Screen,4_14_1,2023-05-02T16:32:08.033Z,,0,,,NaN,,,,,,false,,,,194444.70000000298,194444.40000000596,,194444.20000000298,,194458.467,8,400,,,
break_continue,html.Screen,4_14_2,2023-05-02T16:32:08.034Z,,0,,,NaN,,,,,,false,,,,194445.10000000894,194444.90000000596,,194444.79999999702,,194458.467,8,400,,,
sequence,flow.Sequence,4_14,2023-05-02T16:32:08.034Z,,0,,,3253.1650000059744,completion,,,,,false,,,,194445.29999999702,194444.90000000596,191175.068,191192.40000000596,191191.735,194458.467,8,400,,,
trial,html.Screen,4_15_0,2023-05-02T16:32:12.921Z,,0,1,,4872.933000005956,response,ISIC_0031501.JPG,,ISIC_3819893.JPG,ISIC_0031501.JPG,false,1,keypress(m),500,199331.60000000894,199331.40000000596,194441.8,194445.40000000596,194458.467,199359.275,8,400,16,,ISIC_3819893.JPG
break,html.Screen,4_15_1,2023-05-02T16:32:12.921Z,,0,,,NaN,,,,,,false,,,,199332.40000000596,199332.20000000298,,199331.90000000596,,199359.275,8,400,,,
break_continue,html.Screen,4_15_2,2023-05-02T16:32:12.922Z,,0,,,NaN,,,,,,false,,,,199332.79999999702,199332.60000000894,,199332.5,,199359.275,8,400,,,
sequence,flow.Sequence,4_15,2023-05-02T16:32:12.922Z,,0,,,4874.1330000089365,completion,,,,,false,,,,199333,199332.60000000894,194441.8,194445.40000000596,194458.467,199359.275,8,400,,,
trial,html.Screen,4_16_0,2023-05-02T16:32:16.897Z,,0,1,,3948.6250000059663,response,ISIC_0062812.JPG,,ISIC_0010231.JPG,ISIC_0062812.JPG,false,1,keypress(m),500,203308.10000000894,203307.90000000596,199342.608,199333.20000000298,199359.275,203309.354,8,400,17,,ISIC_0010231.JPG
break,html.Screen,4_16_1,2023-05-02T16:32:16.898Z,,0,,,NaN,,,,,,false,,,,203308.79999999702,203308.60000000894,,203308.40000000596,,203309.354,8,400,,,
break_continue,html.Screen,4_16_2,2023-05-02T16:32:16.898Z,,0,,,NaN,,,,,,false,,,,203309.20000000298,203309,,203308.90000000596,,203309.354,8,400,,,
sequence,flow.Sequence,4_16,2023-05-02T16:32:16.898Z,,0,,,3949.725000000006,completion,,,,,false,,,,203309.40000000596,203309,199342.608,199333.10000000894,199359.275,203309.354,8,400,,,
trial,html.Screen,4_17_0,2023-05-02T16:32:20.090Z,,0,1,,3191.2460000089486,response,ISIC_0029905.JPG,,ISIC_3503213.JPG,ISIC_0029905.JPG,false,1,keypress(m),500,206500.90000000596,206500.60000000894,203292.687,203309.60000000894,203309.354,206509.418,8,400,18,,ISIC_3503213.JPG
break,html.Screen,4_17_1,2023-05-02T16:32:20.091Z,,0,,,NaN,,,,,,false,,,,206501.5,206501.40000000596,,206501,,206509.418,8,400,,,
break_continue,html.Screen,4_17_2,2023-05-02T16:32:20.091Z,,0,,,NaN,,,,,,false,,,,206502,206501.79999999702,,206501.70000000298,,206509.418,8,400,,,
sequence,flow.Sequence,4_17,2023-05-02T16:32:20.091Z,,0,,,3192.4459999970277,completion,,,,,false,,,,206502.10000000894,206501.79999999702,203292.687,203309.5,203309.354,206509.418,8,400,,,
trial,html.Screen,4_18_0,2023-05-02T16:32:23.364Z,,0,1,,3265.1820000089356,response,ISIC_0030259.JPG,,ISIC_9222136.JPG,ISIC_9222136.JPG,false,0,keypress(z),500,209774.90000000596,209774.60000000894,206492.751,206502.40000000596,206509.418,209776.607,8,400,19,,ISIC_0030259.JPG
break,html.Screen,4_18_1,2023-05-02T16:32:23.365Z,,0,,,NaN,,,,,,false,,,,209775.60000000894,209775.40000000596,,209775.10000000894,,209776.607,8,400,,,
break_continue,html.Screen,4_18_2,2023-05-02T16:32:23.365Z,,0,,,NaN,,,,,,false,,,,209776,209775.90000000596,,209775.79999999702,,209776.607,8,400,,,
sequence,flow.Sequence,4_18,2023-05-02T16:32:23.365Z,,0,,,3266.4820000059553,completion,,,,,false,,,,209776.10000000894,209775.90000000596,206492.751,206502.29999999702,206509.418,209776.607,8,400,,,
trial,html.Screen,4_19_0,2023-05-02T16:32:26.274Z,,0,1,,2908.4930000089516,response,ISIC_0059093.JPG,,ISIC_1708591.JPG,ISIC_0059093.JPG,false,1,keypress(m),500,212685.29999999702,212685.10000000894,209759.94,209776.29999999702,209776.607,212693.332,8,400,20,,ISIC_1708591.JPG
break,html.Screen,4_19_1,2023-05-02T16:32:26.275Z,,0,,,NaN,,,,,,false,,,,212686.10000000894,212685.90000000596,,212685.60000000894,,212693.332,8,400,,,
break_continue,html.Screen,4_19_2,2023-05-02T16:32:26.276Z,,0,,,NaN,,,,,,false,,,,212686.5,212686.29999999702,,212686.20000000298,,212693.332,8,400,,,
sequence,flow.Sequence,4_19,2023-05-02T16:32:26.276Z,,0,,,2909.6929999970307,completion,,,,,false,,,,212686.70000000298,212686.29999999702,209759.94,209776.20000000298,209776.607,212693.332,8,400,,,
trial,html.Screen,4_20_0,2023-05-02T16:32:29.082Z,,0,1,,2799.268000008946,response,ISIC_3391254.JPG,,ISIC_2255411.JPG,ISIC_2255411.JPG,false,0,keypress(z),500,215492.90000000596,215492.60000000894,212676.665,212686.79999999702,212693.332,215510.055,8,400,21,,ISIC_3391254.JPG
break,html.Screen,4_20_1,2023-05-02T16:32:29.083Z,,0,,,NaN,,,,,,false,,,,215493.79999999702,215493.5,,215493.20000000298,,215510.055,8,400,,,
break_continue,html.Screen,4_20_2,2023-05-02T16:32:29.083Z,,0,,,NaN,,,,,,false,,,,215494.20000000298,215494.10000000894,,215494,,215510.055,8,400,,,
sequence,flow.Sequence,4_20,2023-05-02T16:32:29.084Z,,0,,,2800.768000008946,completion,,,,,false,,,,215494.40000000596,215494.10000000894,212676.665,212686.70000000298,212693.332,215510.055,8,400,,,
trial,html.Screen,4_21_0,2023-05-02T16:32:32.923Z,,0,1,,3823.2449999970268,response,ISIC_4190900.JPG,,ISIC_0032790.JPG,ISIC_4190900.JPG,false,1,keypress(m),500,219333.70000000298,219333.29999999702,215493.388,215494.60000000894,215510.055,219343.465,8,400,22,,ISIC_0032790.JPG
break,html.Screen,4_21_1,2023-05-02T16:32:32.924Z,,0,,,NaN,,,,,,false,,,,219334.29999999702,219334.10000000894,,219333.90000000596,,219343.465,8,400,,,
break_continue,html.Screen,4_21_2,2023-05-02T16:32:32.924Z,,0,,,NaN,,,,,,false,,,,219334.70000000298,219334.60000000894,,219334.40000000596,,219343.465,8,400,,,
sequence,flow.Sequence,4_21,2023-05-02T16:32:32.924Z,,0,,,3824.5450000089477,completion,,,,,false,,,,219334.90000000596,219334.60000000894,215493.388,215494.60000000894,215510.055,219343.465,8,400,,,
trial,html.Screen,4_22_0,2023-05-02T16:32:36.913Z,,0,1,,3980.0350000000035,response,ISIC_0027282.JPG,,ISIC_9905633.JPG,ISIC_0027282.JPG,false,1,keypress(m),500,223323.70000000298,223323.5,219326.798,219335.10000000894,219343.465,223327.42,8,400,23,,ISIC_9905633.JPG
break,html.Screen,4_22_1,2023-05-02T16:32:36.914Z,,0,,,NaN,,,,,,false,,,,223324.40000000596,223324.20000000298,,223323.90000000596,,223327.42,8,400,,,
break_continue,html.Screen,4_22_2,2023-05-02T16:32:36.914Z,,0,,,NaN,,,,,,false,,,,223324.79999999702,223324.70000000298,,223324.5,,223327.42,8,400,,,
sequence,flow.Sequence,4_22,2023-05-02T16:32:36.914Z,,0,,,3981.2350000029837,completion,,,,,false,,,,223325,223324.70000000298,219326.798,219335,219343.465,223327.42,8,400,,,
trial,html.Screen,4_23_0,2023-05-02T16:32:41.819Z,,0,1,,4901.680000008928,response,ISIC_9254433.JPG,,ISIC_3880324.JPG,ISIC_3880324.JPG,false,0,keypress(z),500,228229.5,228229.10000000894,223310.753,223325.10000000894,223327.42,228260.852,8,400,24,,ISIC_9254433.JPG
break,html.Screen,4_23_1,2023-05-02T16:32:41.820Z,,0,,,NaN,,,,,,false,,,,228230.40000000596,228230.20000000298,,228229.70000000298,,228260.852,8,400,,,
break_continue,html.Screen,4_23_2,2023-05-02T16:32:41.821Z,,0,,,NaN,,,,,,false,,,,228231.20000000298,228231,,228230.60000000894,,228260.852,8,400,,,
sequence,flow.Sequence,4_23,2023-05-02T16:32:41.821Z,,0,,,4903.579999999987,completion,,,,,false,,,,228231.5,228231,223310.753,223325.10000000894,223327.42,228260.852,8,400,,,
trial,html.Screen,4_24_0,2023-05-02T16:32:45.882Z,,0,1,,4031.248000008927,response,ISIC_0033265.JPG,,ISIC_0057858.JPG,ISIC_0033265.JPG,false,1,keypress(m),500,232292.40000000596,232292.10000000894,228244.185,228231.70000000298,228260.852,232294.784,8,400,25,,ISIC_0057858.JPG
break,html.Screen,4_24_1,2023-05-02T16:32:45.883Z,,0,,,NaN,,,,,,false,,,,232293.10000000894,232292.90000000596,,232292.60000000894,,232294.784,8,400,,,
break_continue,html.Screen,4_24_2,2023-05-02T16:32:45.883Z,,0,,,NaN,,,,,,false,,,,232293.5,232293.40000000596,,232293.20000000298,,232294.784,8,400,,,
sequence,flow.Sequence,4_24,2023-05-02T16:32:45.883Z,,0,,,4032.548000005947,completion,,,,,false,,,,232293.70000000298,232293.40000000596,228244.185,228231.60000000894,228260.852,232294.784,8,400,,,
trial,html.Screen,4_25_0,2023-05-02T16:32:49.845Z,,0,1,,3959.8160000089265,response,ISIC_4720306.JPG,,ISIC_0011701.JPG,ISIC_0011701.JPG,false,0,keypress(z),500,236254.90000000596,236254.60000000894,232278.117,232293.79999999702,232294.784,236261.53,8,400,26,,ISIC_4720306.JPG
break,html.Screen,4_25_1,2023-05-02T16:32:49.845Z,,0,,,NaN,,,,,,false,,,,236255.60000000894,236255.40000000596,,236255.10000000894,,236261.53,8,400,,,
break_continue,html.Screen,4_25_2,2023-05-02T16:32:49.846Z,,0,,,NaN,,,,,,false,,,,236255.90000000596,236255.79999999702,,236255.70000000298,,236261.53,8,400,,,
sequence,flow.Sequence,4_25,2023-05-02T16:32:49.846Z,,0,,,3961.0159999970056,completion,,,,,false,,,,236256.10000000894,236255.79999999702,232278.117,232293.79999999702,232294.784,236261.53,8,400,,,
trial,html.Screen,4_26_0,2023-05-02T16:32:55.411Z,,0,1,,5559.670000002981,response,ISIC_0031705.JPG,,ISIC_8909957.JPG,ISIC_8909957.JPG,false,0,keypress(z),500,241821.5,241821.20000000298,236244.863,236256.29999999702,236261.53,241828.895,8,400,27,,ISIC_0031705.JPG
break,html.Screen,4_26_1,2023-05-02T16:32:55.412Z,,0,,,NaN,,,,,,false,,,,241822.20000000298,241822,,241821.70000000298,,241828.895,8,400,,,
break_continue,html.Screen,4_26_2,2023-05-02T16:32:55.412Z,,0,,,NaN,,,,,,false,,,,241822.70000000298,241822.5,,241822.40000000596,,241828.895,8,400,,,
sequence,flow.Sequence,4_26,2023-05-02T16:32:55.413Z,,0,,,5560.970000000001,completion,,,,,false,,,,241822.90000000596,241822.5,236244.863,236256.29999999702,236261.53,241828.895,8,400,,,
trial,html.Screen,4_27_0,2023-05-02T16:32:58.539Z,,0,1,,3119.705000008951,response,ISIC_0066240.JPG,,ISIC_0064877.JPG,ISIC_0066240.JPG,false,1,keypress(m),500,244948.79999999702,244948.60000000894,241812.228,241823,241828.895,244962.291,8,400,28,,ISIC_0064877.JPG
break,html.Screen,4_27_1,2023-05-02T16:32:58.539Z,,0,,,NaN,,,,,,false,,,,244949.5,244949.29999999702,,244949.10000000894,,244962.291,8,400,,,
break_continue,html.Screen,4_27_2,2023-05-02T16:32:58.540Z,,0,,,NaN,,,,,,false,,,,244949.90000000596,244949.79999999702,,244949.70000000298,,244962.291,8,400,,,
sequence,flow.Sequence,4_27,2023-05-02T16:32:58.540Z,,0,,,3120.9049999970302,completion,,,,,false,,,,244950.10000000894,244949.79999999702,241812.228,241823,241828.895,244962.291,8,400,,,
trial,html.Screen,4_28_0,2023-05-02T16:33:03.195Z,,0,1,,4642.809000008943,response,ISIC_2075121.JPG,,ISIC_0027693.JPG,ISIC_0027693.JPG,false,0,keypress(z),500,249605.29999999702,249605.10000000894,244945.624,244950.20000000298,244962.291,249612.384,8,400,29,,ISIC_2075121.JPG
break,html.Screen,4_28_1,2023-05-02T16:33:03.196Z,,0,,,NaN,,,,,,false,,,,249606,249605.90000000596,,249605.5,,249612.384,8,400,,,
break_continue,html.Screen,4_28_2,2023-05-02T16:33:03.196Z,,0,,,NaN,,,,,,false,,,,249606.40000000596,249606.29999999702,,249606.10000000894,,249612.384,8,400,,,
sequence,flow.Sequence,4_28,2023-05-02T16:33:03.197Z,,0,,,4644.008999997022,completion,,,,,false,,,,249606.70000000298,249606.29999999702,244945.624,244950.20000000298,244962.291,249612.384,8,400,,,
trial,html.Screen,4_29_0,2023-05-02T16:33:07.378Z,,0,1,,4175.71600000895,response,ISIC_5216586.JPG,,ISIC_8566006.JPG,ISIC_8566006.JPG,false,0,keypress(z),500,253788.20000000298,253788.10000000894,249595.717,249606.79999999702,249612.384,253796.324,8,400,30,,ISIC_5216586.JPG
break,html.Screen,4_29_1,2023-05-02T16:33:07.379Z,,0,,,NaN,,,,,,false,,,,253789,253788.79999999702,,253788.5,,253796.324,8,400,,,
break_continue,html.Screen,4_29_2,2023-05-02T16:33:07.379Z,,0,,,NaN,,,,,,false,,,,253789.40000000596,253789.20000000298,,253789.10000000894,,253796.324,8,400,,,
sequence,flow.Sequence,4_29,2023-05-02T16:33:07.380Z,,0,,,4176.816000002989,completion,,,,,false,,,,253789.5,253789.20000000298,249595.717,249606.79999999702,249612.384,253796.324,8,400,,,
trial,html.Screen,4_30_0,2023-05-02T16:33:14.762Z,,0,1,,7375.576000005967,response,ISIC_0024284.JPG,,ISIC_0025165.JPG,ISIC_0024284.JPG,false,1,keypress(m),500,261172.20000000298,261171.90000000596,253779.657,253789.70000000298,253796.324,261179.805,8,400,31,,ISIC_0025165.JPG
break,html.Screen,4_30_1,2023-05-02T16:33:14.763Z,,0,,,NaN,,,,,,false,,,,261172.90000000596,261172.70000000298,,261172.40000000596,,261179.805,8,400,,,
break_continue,html.Screen,4_30_2,2023-05-02T16:33:14.763Z,,0,,,NaN,,,,,,false,,,,261173.29999999702,261173.10000000894,,261173.10000000894,,261179.805,8,400,,,
sequence,flow.Sequence,4_30,2023-05-02T16:33:14.764Z,,0,,,7376.776000008947,completion,,,,,false,,,,261173.5,261173.10000000894,253779.657,253789.70000000298,253796.324,261179.805,8,400,,,
trial,html.Screen,4_31_0,2023-05-02T16:33:17.764Z,,0,1,,2993.2950000089477,response,ISIC_8838753.JPG,,ISIC_8143286.JPG,ISIC_8143286.JPG,false,0,keypress(z),500,264173.40000000596,264173.10000000894,261163.138,261173.60000000894,261179.805,264180.432,8,400,32,,ISIC_8838753.JPG
break,html.Screen,4_31_1,2023-05-02T16:33:17.764Z,,0,,,NaN,,,,,,false,,,,264174.10000000894,264173.90000000596,,264173.60000000894,,264180.432,8,400,,,
break_continue,html.Screen,4_31_2,2023-05-02T16:33:17.765Z,,0,,,NaN,,,,,,false,,,,264174.40000000596,264174.40000000596,,264174.200000003,,264180.432,8,400,,,
sequence,flow.Sequence,4_31,2023-05-02T16:33:17.765Z,,0,,,2994.5950000059674,completion,,,,,false,,,,264174.700000003,264174.40000000596,261163.138,261173.60000000894,261179.805,264180.432,8,400,,,
trial,html.Screen,4_32_0,2023-05-02T16:33:21.636Z,,0,1,,3864.668000008969,response,ISIC_0057913.JPG,,ISIC_0772836.JPG,ISIC_0057913.JPG,false,1,keypress(m),500,268045.299999997,268045.10000000894,264163.765,264174.799999997,264180.432,268047.176,8,400,33,,ISIC_0772836.JPG
break,html.Screen,4_32_1,2023-05-02T16:33:21.636Z,,0,,,NaN,,,,,,false,,,,268046,268045.799999997,,268045.5,,268047.176,8,400,,,
break_continue,html.Screen,4_32_2,2023-05-02T16:33:21.637Z,,0,,,NaN,,,,,,false,,,,268046.40000000596,268046.299999997,,268046.10000000894,,268047.176,8,400,,,
sequence,flow.Sequence,4_32,2023-05-02T16:33:21.637Z,,0,,,3865.867999997048,completion,,,,,false,,,,268046.5,268046.299999997,264163.765,264174.700000003,264180.432,268047.176,8,400,,,
trial,html.Screen,4_33_0,2023-05-02T16:33:26.196Z,,0,1,,4558.224000005983,response,ISIC_0032484.JPG,,ISIC_7758102.JPG,ISIC_0032484.JPG,false,1,keypress(m),500,272605.700000003,272605.40000000596,268030.509,268046.700000003,268047.176,272613.934,8,400,34,,ISIC_7758102.JPG
break,html.Screen,4_33_1,2023-05-02T16:33:26.197Z,,0,,,NaN,,,,,,false,,,,272606.5,272606.200000003,,272605.90000000596,,272613.934,8,400,,,
break_continue,html.Screen,4_33_2,2023-05-02T16:33:26.197Z,,0,,,NaN,,,,,,false,,,,272607.10000000894,272606.799999997,,272606.700000003,,272613.934,8,400,,,
sequence,flow.Sequence,4_33,2023-05-02T16:33:26.198Z,,0,,,4559.623999997042,completion,,,,,false,,,,272607.299999997,272606.799999997,268030.509,268046.60000000894,268047.176,272613.934,8,400,,,
trial,html.Screen,4_34_0,2023-05-02T16:33:29.262Z,,0,1,,3056.966000005952,response,ISIC_0060481.JPG,,ISIC_0031369.JPG,ISIC_0060481.JPG,false,1,keypress(m),500,275671.200000003,275670.90000000596,272597.267,272607.40000000596,272613.934,275681.119,8,400,35,,ISIC_0031369.JPG
break,html.Screen,4_34_1,2023-05-02T16:33:29.262Z,,0,,,NaN,,,,,,false,,,,275671.90000000596,275671.60000000894,,275671.40000000596,,275681.119,8,400,,,
break_continue,html.Screen,4_34_2,2023-05-02T16:33:29.263Z,,0,,,NaN,,,,,,false,,,,275672.5,275672.299999997,,275672.10000000894,,275681.119,8,400,,,
sequence,flow.Sequence,4_34,2023-05-02T16:33:29.263Z,,0,,,3058.3659999970114,completion,,,,,false,,,,275672.700000003,275672.299999997,272597.267,272607.299999997,272613.934,275681.119,8,400,,,
trial,html.Screen,4_35_0,2023-05-02T16:33:35.382Z,,0,1,,6109.781000005954,response,ISIC_3453832.JPG,,ISIC_2639144.JPG,ISIC_2639144.JPG,false,0,keypress(z),500,281791.10000000894,281790.90000000596,275664.452,275673,275681.119,281797.908,8,400,36,,ISIC_3453832.JPG
break,html.Screen,4_35_1,2023-05-02T16:33:35.382Z,,0,,,NaN,,,,,,false,,,,281791.799999997,281791.700000003,,281791.40000000596,,281797.908,8,400,,,
break_continue,html.Screen,4_35_2,2023-05-02T16:33:35.383Z,,0,,,NaN,,,,,,false,,,,281792.200000003,281792.10000000894,,281792,,281797.908,8,400,,,
sequence,flow.Sequence,4_35,2023-05-02T16:33:35.383Z,,0,,,6110.981000008935,completion,,,,,false,,,,281792.40000000596,281792.10000000894,275664.452,275672.90000000596,275681.119,281797.908,8,400,,,
trial,html.Screen,4_36_0,2023-05-02T16:33:40.781Z,,0,1,,5391.992000005965,response,ISIC_5900778.JPG,,ISIC_0065360.JPG,ISIC_0065360.JPG,false,0,keypress(z),500,287190.200000003,287189.90000000596,281781.241,281792.60000000894,281797.908,287198.669,8,400,37,,ISIC_5900778.JPG
break,html.Screen,4_36_1,2023-05-02T16:33:40.782Z,,0,,,NaN,,,,,,false,,,,287190.90000000596,287190.700000003,,287190.40000000596,,287198.669,8,400,,,
break_continue,html.Screen,4_36_2,2023-05-02T16:33:40.782Z,,0,,,NaN,,,,,,false,,,,287191.299999997,287191.200000003,,287191,,287198.669,8,400,,,
sequence,flow.Sequence,4_36,2023-05-02T16:33:40.782Z,,0,,,5393.292000002984,completion,,,,,false,,,,287191.5,287191.200000003,281781.241,281792.5,281797.908,287198.669,8,400,,,
trial,html.Screen,4_37_0,2023-05-02T16:33:44.194Z,,0,1,,3404.731000005966,response,ISIC_0010655.JPG,,ISIC_0030974.JPG,ISIC_0030974.JPG,false,0,keypress(z),500,290603.60000000894,290603.40000000596,287182.002,287191.700000003,287198.669,290615.404,8,400,38,,ISIC_0010655.JPG
break,html.Screen,4_37_1,2023-05-02T16:33:44.195Z,,0,,,NaN,,,,,,false,,,,290604.40000000596,290604.200000003,,290603.90000000596,,290615.404,8,400,,,
break_continue,html.Screen,4_37_2,2023-05-02T16:33:44.196Z,,0,,,NaN,,,,,,false,,,,290604.799999997,290604.700000003,,290604.5,,290615.404,8,400,,,
sequence,flow.Sequence,4_37,2023-05-02T16:33:44.196Z,,0,,,3406.031000002986,completion,,,,,false,,,,290604.90000000596,290604.700000003,287182.002,287191.60000000894,287198.669,290615.404,8,400,,,
trial,html.Screen,4_38_0,2023-05-02T16:33:48.098Z,,0,1,,3891.99600000598,response,ISIC_3666094.JPG,,ISIC_0008447.JPG,ISIC_0008447.JPG,false,0,keypress(z),500,294507.60000000894,294507.40000000596,290598.737,290605.10000000894,290615.404,294515.482,8,400,39,,ISIC_3666094.JPG
break,html.Screen,4_38_1,2023-05-02T16:33:48.099Z,,0,,,NaN,,,,,,false,,,,294508.10000000894,294507.90000000596,,294507.799999997,,294515.482,8,400,,,
break_continue,html.Screen,4_38_2,2023-05-02T16:33:48.099Z,,0,,,NaN,,,,,,false,,,,294508.299999997,294508.200000003,,294508.200000003,,294515.482,8,400,,,
sequence,flow.Sequence,4_38,2023-05-02T16:33:48.099Z,,0,,,3892.796000003,completion,,,,,false,,,,294508.40000000596,294508.200000003,290598.737,290605.10000000894,290615.404,294515.482,8,400,,,
trial,html.Screen,4_39_0,2023-05-02T16:33:52.483Z,,0,1,,4376.1180000089225,response,ISIC_4887874.JPG,,ISIC_4847584.JPG,ISIC_4847584.JPG,false,0,keypress(z),500,298891.90000000596,298891.60000000894,294498.815,294508.5,294515.482,298899.512,8,400,40,,ISIC_4887874.JPG
break,html.Screen,4_39_1,2023-05-02T16:33:52.484Z,,0,,,NaN,,,,,,false,,,,298892.799999997,298892.60000000894,,298892.10000000894,,298899.512,8,400,,,
break_continue,html.Screen,4_39_2,2023-05-02T16:33:52.484Z,,0,,,NaN,,,,,,false,,,,298893.299999997,298893.10000000894,,298893,,298899.512,8,400,,,
sequence,flow.Sequence,4_39,2023-05-02T16:33:52.484Z,,0,,,4377.6180000089225,completion,,,,,false,,,,298893.40000000596,298893.10000000894,294498.815,294508.5,294515.482,298899.512,8,400,,,
trial,html.Screen,4_40_0,2023-05-02T16:33:55.630Z,,0,1,,3139.3880000059726,response,ISIC_8352392.JPG,,ISIC_3289574.JPG,ISIC_3289574.JPG,false,0,keypress(z),500,302039.200000003,302038.90000000596,298882.845,298893.5,298899.512,302049.575,8,400,41,,ISIC_8352392.JPG
break,html.Screen,4_40_1,2023-05-02T16:33:55.631Z,,0,,,NaN,,,,,,false,,,,302039.90000000596,302039.700000003,,302039.40000000596,,302049.575,8,400,,,
break_continue,html.Screen,4_40_2,2023-05-02T16:33:55.631Z,,0,,,NaN,,,,,,false,,,,302040.200000003,302040.10000000894,,302040.10000000894,,302049.575,8,400,,,
sequence,flow.Sequence,4_40,2023-05-02T16:33:55.631Z,,0,,,3140.588000008953,completion,,,,,false,,,,302040.5,302040.10000000894,298882.845,298893.5,298899.512,302049.575,8,400,,,
trial,html.Screen,4_41_0,2023-05-02T16:33:58.347Z,,0,1,,2706.325000005949,response,ISIC_2039579.JPG,,ISIC_7980387.JPG,ISIC_7980387.JPG,false,0,keypress(z),500,304756.10000000894,304755.90000000596,302032.908,302040.5,302049.575,304766.296,8,400,42,,ISIC_2039579.JPG
break,html.Screen,4_41_1,2023-05-02T16:33:58.348Z,,0,,,NaN,,,,,,false,,,,304756.799999997,304756.60000000894,,304756.299999997,,304766.296,8,400,,,
break_continue,html.Screen,4_41_2,2023-05-02T16:33:58.348Z,,0,,,NaN,,,,,,false,,,,304757.10000000894,304757,,304756.90000000596,,304766.296,8,400,,,
sequence,flow.Sequence,4_41,2023-05-02T16:33:58.348Z,,0,,,2707.4249999999884,completion,,,,,false,,,,304757.40000000596,304757,302032.908,302040.5,302049.575,304766.296,8,400,,,
trial,html.Screen,4_42_0,2023-05-02T16:34:01.302Z,,0,1,,2944.3040000089677,response,ISIC_0013499.JPG,,ISIC_0061643.JPG,ISIC_0061643.JPG,false,0,keypress(z),500,307710.799999997,307710.60000000894,304749.629,304757.60000000894,304766.296,307716.355,8,400,43,,ISIC_0013499.JPG
break,html.Screen,4_42_1,2023-05-02T16:34:01.303Z,,0,,,NaN,,,,,,false,,,,307711.5,307711.299999997,,307711.10000000894,,307716.355,8,400,,,
break_continue,html.Screen,4_42_2,2023-05-02T16:34:01.303Z,,0,,,NaN,,,,,,false,,,,307711.90000000596,307711.799999997,,307711.700000003,,307716.355,8,400,,,
sequence,flow.Sequence,4_42,2023-05-02T16:34:01.303Z,,0,,,2945.503999997047,completion,,,,,false,,,,307712.10000000894,307711.799999997,304749.629,304757.5,304766.296,307716.355,8,400,,,
trial,html.Screen,4_43_0,2023-05-02T16:34:04.271Z,,0,1,,2963.045000005979,response,ISIC_0027573.JPG,,ISIC_0016081.JPG,ISIC_0027573.JPG,false,1,keypress(m),500,310679.700000003,310679.40000000596,307699.688,307712.200000003,307716.355,310683.473,8,400,44,,ISIC_0016081.JPG
break,html.Screen,4_43_1,2023-05-02T16:34:04.272Z,,0,,,NaN,,,,,,false,,,,310680.299999997,310680.200000003,,310679.90000000596,,310683.473,8,400,,,
break_continue,html.Screen,4_43_2,2023-05-02T16:34:04.272Z,,0,,,NaN,,,,,,false,,,,310680.700000003,310680.60000000894,,310680.5,,310683.473,8,400,,,
sequence,flow.Sequence,4_43,2023-05-02T16:34:04.272Z,,0,,,2964.2450000089593,completion,,,,,false,,,,310680.90000000596,310680.60000000894,307699.688,307712.200000003,307716.355,310683.473,8,400,,,
trial,html.Screen,4_44_0,2023-05-02T16:34:07.836Z,,0,1,,3561.027000000002,response,ISIC_0029478.JPG,,ISIC_4249893.JPG,ISIC_0029478.JPG,false,1,keypress(m),500,314244.700000003,314244.5,310666.806,310681.10000000894,310683.473,314250.211,8,400,45,,ISIC_4249893.JPG
break,html.Screen,4_44_1,2023-05-02T16:34:07.837Z,,0,,,NaN,,,,,,false,,,,314245.5,314245.299999997,,314245,,314250.211,8,400,,,
break_continue,html.Screen,4_44_2,2023-05-02T16:34:07.837Z,,0,,,NaN,,,,,,false,,,,314245.799999997,314245.700000003,,314245.60000000894,,314250.211,8,400,,,
sequence,flow.Sequence,4_44,2023-05-02T16:34:07.837Z,,0,,,3562.227000002982,completion,,,,,false,,,,314246,314245.700000003,310666.806,310680.90000000596,310683.473,314250.211,8,400,,,
trial,html.Screen,4_45_0,2023-05-02T16:34:11.069Z,,0,1,,3226.98900000297,response,ISIC_0057661.JPG,,ISIC_0008431.JPG,ISIC_0057661.JPG,false,1,keypress(m),500,317477.40000000596,317477.200000003,314233.544,314246.200000003,314250.211,317483.609,8,400,46,,ISIC_0008431.JPG
break,html.Screen,4_45_1,2023-05-02T16:34:11.069Z,,0,,,NaN,,,,,,false,,,,317478.10000000894,317477.90000000596,,317477.60000000894,,317483.609,8,400,,,
break_continue,html.Screen,4_45_2,2023-05-02T16:34:11.070Z,,0,,,NaN,,,,,,false,,,,317478.5,317478.40000000596,,317478.299999997,,317483.609,8,400,,,
sequence,flow.Sequence,4_45,2023-05-02T16:34:11.070Z,,0,,,3228.18900000595,completion,,,,,false,,,,317478.700000003,317478.40000000596,314233.544,314246.200000003,314250.211,317483.609,8,400,,,
trial,html.Screen,4_46_0,2023-05-02T16:34:16.789Z,,0,1,,5713.491000008944,response,ISIC_0058858.JPG,,ISIC_0025184.JPG,ISIC_0058858.JPG,false,1,keypress(m),500,323197.40000000596,323197.10000000894,317466.942,317478.90000000596,317483.609,323200.994,8,400,47,,ISIC_0025184.JPG
break,html.Screen,4_46_1,2023-05-02T16:34:16.790Z,,0,,,NaN,,,,,,false,,,,323198.10000000894,323197.90000000596,,323197.700000003,,323200.994,8,400,,,
break_continue,html.Screen,4_46_2,2023-05-02T16:34:16.790Z,,0,,,NaN,,,,,,false,,,,323198.5,323198.40000000596,,323198.299999997,,323200.994,8,400,,,
sequence,flow.Sequence,4_46,2023-05-02T16:34:16.790Z,,0,,,5714.791000005964,completion,,,,,false,,,,323198.700000003,323198.40000000596,317466.942,317478.799999997,317483.609,323200.994,8,400,,,
trial,html.Screen,4_47_0,2023-05-02T16:34:24.830Z,,0,1,,8037.106000008935,response,ISIC_5959795.JPG,,ISIC_0070679.JPG,ISIC_5959795.JPG,false,1,keypress(m),500,331238.299999997,331238.10000000894,323184.327,323198.90000000596,323200.994,331251.656,8,400,48,,ISIC_0070679.JPG
break,html.Screen,4_47_1,2023-05-02T16:34:24.831Z,,0,,,NaN,,,,,,false,,,,331239,331238.799999997,,331238.60000000894,,331251.656,8,400,,,
break_continue,html.Screen,4_47_2,2023-05-02T16:34:24.831Z,,0,,,NaN,,,,,,false,,,,331239.299999997,331239.299999997,,331239.200000003,,331251.656,8,400,,,
sequence,flow.Sequence,4_47,2023-05-02T16:34:24.831Z,,0,,,8038.305999997014,completion,,,,,false,,,,331239.60000000894,331239.299999997,323184.327,323198.799999997,323200.994,331251.656,8,400,,,
trial,html.Screen,4_48_0,2023-05-02T16:34:29.196Z,,0,1,,4351.9440000089235,response,ISIC_0011959.JPG,,ISIC_9895220.JPG,ISIC_0011959.JPG,false,1,keypress(m),500,335603.799999997,335603.60000000894,331234.989,331239.700000003,331251.656,335618.41,8,400,49,,ISIC_9895220.JPG
break,html.Screen,4_48_1,2023-05-02T16:34:29.196Z,,0,,,NaN,,,,,,false,,,,335604.5,335604.299999997,,335604.10000000894,,335618.41,8,400,,,
break_continue,html.Screen,4_48_2,2023-05-02T16:34:29.197Z,,0,,,NaN,,,,,,false,,,,335604.90000000596,335604.700000003,,335604.700000003,,335618.41,8,400,,,
sequence,flow.Sequence,4_48,2023-05-02T16:34:29.197Z,,0,,,4353.044000002963,completion,,,,,false,,,,335605.10000000894,335604.700000003,331234.989,331239.60000000894,331251.656,335618.41,8,400,,,
trial,html.Screen,4_49_0,2023-05-02T16:34:33.143Z,,0,1,,3932.5900000000256,response,ISIC_0027122.JPG,,ISIC_9168700.JPG,ISIC_0027122.JPG,false,1,keypress(m),500,339551.200000003,339551,335601.743,335605.200000003,335618.41,339568.489,8,400,50,,ISIC_9168700.JPG
break,html.Screen,4_49_1,2023-05-02T16:34:38.146Z,,0,,,5000.099999999977,timeout,,,,,false,,,,344554,344551.922,339551.822,339551.40000000596,339568.489,344568.589,8,400,,,
break_continue,html.Screen,4_49_2,2023-05-02T16:35:56.997Z,,0,,,78815.111000003,response,,,,,false,continue,keypress(Space),,423403.799999997,423383.700000003,344551.922,344554.10000000894,344568.589,423420.166,8,400,,,
sequence,flow.Sequence,4_49,2023-05-02T16:35:56.998Z,,0,,,87765.290000003,completion,,,,,false,,,,423404.10000000894,423383.700000003,335601.743,335605.200000003,335618.41,423420.166,8,400,,,
trial,html.Screen,4_50_0,2023-05-02T16:36:00.881Z,,0,2,,3866.633999996993,response,ISIC_6357263.JPG,,ISIC_2096695.JPG,ISIC_6357263.JPG,false,1,keypress(m),500,427287.10000000894,427286.799999997,423403.499,423404.200000003,423420.166,427291.503,8,400,1,,ISIC_2096695.JPG
break,html.Screen,4_50_1,2023-05-02T16:36:00.881Z,,0,,,NaN,,,,,,false,,,,427287.799999997,427287.60000000894,,427287.299999997,,427291.503,8,400,,,
break_continue,html.Screen,4_50_2,2023-05-02T16:36:00.882Z,,0,,,NaN,,,,,,false,,,,427288.200000003,427288,,427287.90000000596,,427291.503,8,400,,,
sequence,flow.Sequence,4_50,2023-05-02T16:36:00.882Z,,0,,,3867.8339999999735,completion,,,,,false,,,,427288.5,427288,423403.499,423404.10000000894,423420.166,427291.503,8,400,,,
trial,html.Screen,4_51_0,2023-05-02T16:36:05.334Z,,0,2,,4448.496999999974,response,ISIC_9801917.JPG,,ISIC_0010837.JPG,ISIC_9801917.JPG,false,1,keypress(m),500,431740.200000003,431740,427274.836,427288.60000000894,427291.503,431741.592,8,400,2,,ISIC_0010837.JPG
break,html.Screen,4_51_1,2023-05-02T16:36:05.335Z,,0,,,NaN,,,,,,false,,,,431740.90000000596,431740.700000003,,431740.40000000596,,431741.592,8,400,,,
break_continue,html.Screen,4_51_2,2023-05-02T16:36:05.335Z,,0,,,NaN,,,,,,false,,,,431741.299999997,431741.10000000894,,431741.10000000894,,431741.592,8,400,,,
sequence,flow.Sequence,4_51,2023-05-02T16:36:05.335Z,,0,,,4449.597000008915,completion,,,,,false,,,,431741.5,431741.10000000894,427274.836,427288.5,427291.503,431741.592,8,400,,,
trial,html.Screen,4_52_0,2023-05-02T16:36:08.782Z,,0,2,,3446.5080000089365,response,ISIC_0026558.JPG,,ISIC_5258657.JPG,ISIC_5258657.JPG,false,0,keypress(z),500,435188.299999997,435188.10000000894,431724.925,431741.700000003,431741.592,435192.217,8,400,3,,ISIC_0026558.JPG
break,html.Screen,4_52_1,2023-05-02T16:36:08.783Z,,0,,,NaN,,,,,,false,,,,435189.10000000894,435188.90000000596,,435188.60000000894,,435192.217,8,400,,,
break_continue,html.Screen,4_52_2,2023-05-02T16:36:08.783Z,,0,,,NaN,,,,,,false,,,,435189.5,435189.299999997,,435189.200000003,,435192.217,8,400,,,
sequence,flow.Sequence,4_52,2023-05-02T16:36:08.784Z,,0,,,3447.7079999970156,completion,,,,,false,,,,435189.700000003,435189.299999997,431724.925,431741.60000000894,431741.592,435192.217,8,400,,,
trial,html.Screen,4_53_0,2023-05-02T16:36:12.776Z,,0,2,,3989.782999999996,response,ISIC_6617840.JPG,,ISIC_0000444.JPG,ISIC_0000444.JPG,false,0,keypress(z),500,439182.10000000894,439182,435175.55,435189.799999997,435192.217,439192.297,8,400,4,,ISIC_6617840.JPG
break,html.Screen,4_53_1,2023-05-02T16:36:12.777Z,,0,,,NaN,,,,,,false,,,,439182.90000000596,439182.700000003,,439182.40000000596,,439192.297,8,400,,,
break_continue,html.Screen,4_53_2,2023-05-02T16:36:12.777Z,,0,,,NaN,,,,,,false,,,,439183.299999997,439183.200000003,,439183.10000000894,,439192.297,8,400,,,
sequence,flow.Sequence,4_53,2023-05-02T16:36:12.777Z,,0,,,3990.983000002976,completion,,,,,false,,,,439183.5,439183.200000003,435175.55,435189.799999997,435192.217,439192.297,8,400,,,
trial,html.Screen,4_54_0,2023-05-02T16:36:16.935Z,,0,2,,4148.90300000296,response,ISIC_6255494.JPG,,ISIC_7724764.JPG,ISIC_6255494.JPG,false,1,keypress(m),500,443341.5,443341.200000003,439175.63,439183.700000003,439192.297,443342.38,8,400,5,,ISIC_7724764.JPG
break,html.Screen,4_54_1,2023-05-02T16:36:16.936Z,,0,,,NaN,,,,,,false,,,,443342.10000000894,443342,,443341.700000003,,443342.38,8,400,,,
break_continue,html.Screen,4_54_2,2023-05-02T16:36:16.937Z,,0,,,NaN,,,,,,false,,,,443342.60000000894,443342.40000000596,,443342.299999997,,443342.38,8,400,,,
sequence,flow.Sequence,4_54,2023-05-02T16:36:16.937Z,,0,,,4150.10300000594,completion,,,,,false,,,,443342.700000003,443342.40000000596,439175.63,439183.60000000894,439192.297,443342.38,8,400,,,
trial,html.Screen,4_55_0,2023-05-02T16:36:19.974Z,,0,2,,3037.720000008936,response,ISIC_5566396.JPG,,ISIC_5203791.JPG,ISIC_5203791.JPG,false,0,keypress(z),500,446380.40000000596,446380.10000000894,443325.713,443342.90000000596,443342.38,446392.971,8,400,6,,ISIC_5566396.JPG
break,html.Screen,4_55_1,2023-05-02T16:36:19.975Z,,0,,,NaN,,,,,,false,,,,446381.10000000894,446380.90000000596,,446380.60000000894,,446392.971,8,400,,,
break_continue,html.Screen,4_55_2,2023-05-02T16:36:19.976Z,,0,,,NaN,,,,,,false,,,,446381.5,446381.299999997,,446381.200000003,,446392.971,8,400,,,
sequence,flow.Sequence,4_55,2023-05-02T16:36:19.976Z,,0,,,3038.919999997015,completion,,,,,false,,,,446381.700000003,446381.299999997,443325.713,443342.90000000596,443342.38,446392.971,8,400,,,
trial,html.Screen,4_56_0,2023-05-02T16:36:24.001Z,,0,2,,4013.7290000029607,response,ISIC_8431648.JPG,,ISIC_9944671.JPG,ISIC_8431648.JPG,false,1,keypress(m),500,450406.90000000596,450406.700000003,446376.304,446381.799999997,446392.971,450409.718,8,400,7,,ISIC_9944671.JPG
break,html.Screen,4_56_1,2023-05-02T16:36:24.002Z,,0,,,NaN,,,,,,false,,,,450407.60000000894,450407.40000000596,,450407.10000000894,,450409.718,8,400,,,
break_continue,html.Screen,4_56_2,2023-05-02T16:36:24.002Z,,0,,,NaN,,,,,,false,,,,450408,450407.799999997,,450407.700000003,,450409.718,8,400,,,
sequence,flow.Sequence,4_56,2023-05-02T16:36:24.002Z,,0,,,4014.828999997,completion,,,,,false,,,,450408.200000003,450407.799999997,446376.304,446381.700000003,446392.971,450409.718,8,400,,,
trial,html.Screen,4_57_0,2023-05-02T16:36:27.974Z,,0,2,,3969.682000005967,response,ISIC_0054906.JPG,,ISIC_0990298.JPG,ISIC_0990298.JPG,false,0,keypress(z),500,454379.60000000894,454379.40000000596,450393.051,450408.40000000596,450409.718,454393.131,8,400,8,,ISIC_0054906.JPG
break,html.Screen,4_57_1,2023-05-02T16:36:27.975Z,,0,,,NaN,,,,,,false,,,,454380.40000000596,454380.200000003,,454379.799999997,,454393.131,8,400,,,
break_continue,html.Screen,4_57_2,2023-05-02T16:36:27.975Z,,0,,,NaN,,,,,,false,,,,454380.799999997,454380.700000003,,454380.5,,454393.131,8,400,,,
sequence,flow.Sequence,4_57,2023-05-02T16:36:27.975Z,,0,,,3970.9820000029868,completion,,,,,false,,,,454381,454380.700000003,450393.051,450408.299999997,450409.718,454393.131,8,400,,,
trial,html.Screen,4_58_0,2023-05-02T16:36:31.294Z,,0,2,,3306.7690000059665,response,ISIC_0029112.JPG,,ISIC_2823287.JPG,ISIC_2823287.JPG,false,0,keypress(z),500,457700.10000000894,457699.90000000596,454376.464,454381.200000003,454393.131,457710.365,8,400,9,,ISIC_0029112.JPG
break,html.Screen,4_58_1,2023-05-02T16:36:31.295Z,,0,,,NaN,,,,,,false,,,,457700.799999997,457700.60000000894,,457700.299999997,,457710.365,8,400,,,
break_continue,html.Screen,4_58_2,2023-05-02T16:36:31.296Z,,0,,,NaN,,,,,,false,,,,457701.200000003,457701.10000000894,,457700.90000000596,,457710.365,8,400,,,
sequence,flow.Sequence,4_58,2023-05-02T16:36:31.296Z,,0,,,3307.9690000089468,completion,,,,,false,,,,457701.40000000596,457701.10000000894,454376.464,454381,454393.131,457710.365,8,400,,,
trial,html.Screen,4_59_0,2023-05-02T16:36:34.487Z,,0,2,,3182.23500000895,response,ISIC_3708739.JPG,,ISIC_0000413.JPG,ISIC_0000413.JPG,false,0,keypress(z),500,460892.90000000596,460892.60000000894,457693.698,457701.5,457710.365,460893.762,8,400,10,,ISIC_3708739.JPG
break,html.Screen,4_59_1,2023-05-02T16:36:34.488Z,,0,,,NaN,,,,,,false,,,,460893.60000000894,460893.40000000596,,460893.10000000894,,460893.762,8,400,,,
break_continue,html.Screen,4_59_2,2023-05-02T16:36:34.488Z,,0,,,NaN,,,,,,false,,,,460893.90000000596,460893.90000000596,,460893.700000003,,460893.762,8,400,,,
sequence,flow.Sequence,4_59,2023-05-02T16:36:34.489Z,,0,,,3183.53500000597,completion,,,,,false,,,,460894.10000000894,460893.90000000596,457693.698,457701.5,457710.365,460893.762,8,400,,,
trial,html.Screen,4_60_0,2023-05-02T16:36:37.471Z,,0,2,,2982.537999997032,response,ISIC_0028103.JPG,,ISIC_0062734.JPG,ISIC_0028103.JPG,false,1,keypress(m),500,463876.60000000894,463876.299999997,460877.095,460894.299999997,460893.762,463893.822,8,400,11,,ISIC_0062734.JPG
break,html.Screen,4_60_1,2023-05-02T16:36:37.472Z,,0,,,NaN,,,,,,false,,,,463877.299999997,463877.10000000894,,463876.90000000596,,463893.822,8,400,,,
break_continue,html.Screen,4_60_2,2023-05-02T16:36:37.472Z,,0,,,NaN,,,,,,false,,,,463877.700000003,463877.60000000894,,463877.5,,463893.822,8,400,,,
sequence,flow.Sequence,4_60,2023-05-02T16:36:37.472Z,,0,,,2983.838000008953,completion,,,,,false,,,,463877.90000000596,463877.60000000894,460877.095,460894.299999997,460893.762,463893.822,8,400,,,
trial,html.Screen,4_61_0,2023-05-02T16:36:40.426Z,,0,2,,2937.078000005975,response,ISIC_0062991.JPG,,ISIC_0010982.JPG,ISIC_0010982.JPG,false,0,keypress(z),500,466831.200000003,466830.90000000596,463877.155,463878,463893.822,466844.413,8,400,12,,ISIC_0062991.JPG
break,html.Screen,4_61_1,2023-05-02T16:36:40.426Z,,0,,,NaN,,,,,,false,,,,466831.90000000596,466831.700000003,,466831.40000000596,,466844.413,8,400,,,
break_continue,html.Screen,4_61_2,2023-05-02T16:36:40.427Z,,0,,,NaN,,,,,,false,,,,466832.299999997,466832.200000003,,466832.10000000894,,466844.413,8,400,,,
sequence,flow.Sequence,4_61,2023-05-02T16:36:40.427Z,,0,,,2938.3780000029947,completion,,,,,false,,,,466832.5,466832.200000003,463877.155,463878,463893.822,466844.413,8,400,,,
trial,html.Screen,4_62_0,2023-05-02T16:36:43.984Z,,0,2,,3544.5869999999995,response,ISIC_0004334.JPG,,ISIC_3671963.JPG,ISIC_3671963.JPG,false,0,keypress(z),500,470389.299999997,470389,466827.746,466832.700000003,466844.413,470394.484,8,400,13,,ISIC_0004334.JPG
break,html.Screen,4_62_1,2023-05-02T16:36:43.985Z,,0,,,NaN,,,,,,false,,,,470389.90000000596,470389.799999997,,470389.5,,470394.484,8,400,,,
break_continue,html.Screen,4_62_2,2023-05-02T16:36:43.985Z,,0,,,NaN,,,,,,false,,,,470390.40000000596,470390.299999997,,470390.10000000894,,470394.484,8,400,,,
sequence,flow.Sequence,4_62,2023-05-02T16:36:43.985Z,,0,,,3545.8869999970193,completion,,,,,false,,,,470390.60000000894,470390.299999997,466827.746,466832.700000003,466844.413,470394.484,8,400,,,
trial,html.Screen,4_63_0,2023-05-02T16:36:48.135Z,,0,2,,4145.616000008944,response,ISIC_0046609.JPG,,ISIC_0067805.JPG,ISIC_0067805.JPG,false,0,keypress(z),500,474540.40000000596,474540.10000000894,470377.817,470390.799999997,470394.484,474544.567,8,400,14,,ISIC_0046609.JPG
break,html.Screen,4_63_1,2023-05-02T16:36:48.136Z,,0,,,NaN,,,,,,false,,,,474541.10000000894,474540.90000000596,,474540.5,,474544.567,8,400,,,
break_continue,html.Screen,4_63_2,2023-05-02T16:36:48.136Z,,0,,,NaN,,,,,,false,,,,474541.5,474541.40000000596,,474541.200000003,,474544.567,8,400,,,
sequence,flow.Sequence,4_63,2023-05-02T16:36:48.136Z,,0,,,4146.916000005964,completion,,,,,false,,,,474541.700000003,474541.40000000596,470377.817,470390.700000003,470394.484,474544.567,8,400,,,
trial,html.Screen,4_64_0,2023-05-02T16:36:52.599Z,,0,2,,4459.633000002999,response,ISIC_5490257.JPG,,ISIC_2200924.JPG,ISIC_2200924.JPG,false,0,keypress(z),500,479004.40000000596,479004.200000003,474527.9,474541.799999997,474544.567,479011.913,8,400,15,,ISIC_5490257.JPG
break,html.Screen,4_64_1,2023-05-02T16:36:52.600Z,,0,,,NaN,,,,,,false,,,,479005.10000000894,479004.90000000596,,479004.60000000894,,479011.913,8,400,,,
break_continue,html.Screen,4_64_2,2023-05-02T16:36:52.600Z,,0,,,NaN,,,,,,false,,,,479005.5,479005.40000000596,,479005.200000003,,479011.913,8,400,,,
sequence,flow.Sequence,4_64,2023-05-02T16:36:52.600Z,,0,,,4460.83300000598,completion,,,,,false,,,,479005.700000003,479005.40000000596,474527.9,474541.799999997,474544.567,479011.913,8,400,,,
trial,html.Screen,4_65_0,2023-05-02T16:36:55.762Z,,0,2,,3154.8869999970193,response,ISIC_5204408.JPG,,ISIC_6688417.JPG,ISIC_5204408.JPG,false,1,keypress(m),500,482166.90000000596,482166.799999997,478995.246,479005.799999997,479011.913,482178.643,8,400,16,,ISIC_6688417.JPG
break,html.Screen,4_65_1,2023-05-02T16:36:55.763Z,,0,,,NaN,,,,,,false,,,,482167.799999997,482167.60000000894,,482167.200000003,,482178.643,8,400,,,
break_continue,html.Screen,4_65_2,2023-05-02T16:36:55.763Z,,0,,,NaN,,,,,,false,,,,482168.200000003,482168,,482167.90000000596,,482178.643,8,400,,,
sequence,flow.Sequence,4_65,2023-05-02T16:36:55.763Z,,0,,,3156.0869999999995,completion,,,,,false,,,,482168.299999997,482168,478995.246,479005.799999997,479011.913,482178.643,8,400,,,
trial,html.Screen,4_66_0,2023-05-02T16:36:59.082Z,,0,2,,3307.957000008959,response,ISIC_2768787.JPG,,ISIC_5073160.JPG,ISIC_5073160.JPG,false,0,keypress(z),500,485486.90000000596,485486.60000000894,482161.976,482168.5,482178.643,485495.376,8,400,17,,ISIC_2768787.JPG
break,html.Screen,4_66_1,2023-05-02T16:36:59.083Z,,0,,,NaN,,,,,,false,,,,485487.799999997,485487.5,,485487.200000003,,485495.376,8,400,,,
break_continue,html.Screen,4_66_2,2023-05-02T16:36:59.083Z,,0,,,NaN,,,,,,false,,,,485488.10000000894,485488,,485487.90000000596,,485495.376,8,400,,,
sequence,flow.Sequence,4_66,2023-05-02T16:36:59.083Z,,0,,,3309.357000000018,completion,,,,,false,,,,485488.40000000596,485488,482161.976,482168.5,482178.643,485495.376,8,400,,,
trial,html.Screen,4_67_0,2023-05-02T16:37:03.042Z,,0,2,,3951.4239999970305,response,ISIC_0060827.JPG,,ISIC_0063157.JPG,ISIC_0060827.JPG,false,1,keypress(m),500,489447.10000000894,489446.799999997,485478.709,485488.5,485495.376,489462.652,8,400,18,,ISIC_0063157.JPG
break,html.Screen,4_67_1,2023-05-02T16:37:03.043Z,,0,,,NaN,,,,,,false,,,,489447.90000000596,489447.700000003,,489447.40000000596,,489462.652,8,400,,,
break_continue,html.Screen,4_67_2,2023-05-02T16:37:03.043Z,,0,,,NaN,,,,,,false,,,,489448.200000003,489448.10000000894,,489448,,489462.652,8,400,,,
sequence,flow.Sequence,4_67,2023-05-02T16:37:03.043Z,,0,,,3952.7240000089514,completion,,,,,false,,,,489448.40000000596,489448.10000000894,485478.709,485488.5,485495.376,489462.652,8,400,,,
trial,html.Screen,4_68_0,2023-05-02T16:37:06.368Z,,0,2,,3309.948000008939,response,ISIC_1735204.JPG,,ISIC_0010321.JPG,ISIC_0010321.JPG,false,0,keypress(z),500,492772.799999997,492772.60000000894,489445.985,489448.60000000894,489462.652,492779.385,8,400,19,,ISIC_1735204.JPG
break,html.Screen,4_68_1,2023-05-02T16:37:06.369Z,,0,,,NaN,,,,,,false,,,,492773.60000000894,492773.40000000596,,492773.10000000894,,492779.385,8,400,,,
break_continue,html.Screen,4_68_2,2023-05-02T16:37:06.369Z,,0,,,NaN,,,,,,false,,,,492774,492773.799999997,,492773.700000003,,492779.385,8,400,,,
sequence,flow.Sequence,4_68,2023-05-02T16:37:06.369Z,,0,,,3311.147999997018,completion,,,,,false,,,,492774.200000003,492773.799999997,489445.985,489448.60000000894,489462.652,492779.385,8,400,,,
trial,html.Screen,4_69_0,2023-05-02T16:37:11.048Z,,0,2,,4673.114999999991,response,ISIC_4980079.JPG,,ISIC_0011032.JPG,ISIC_0011032.JPG,false,0,keypress(z),500,497452.700000003,497452.5,492762.718,492774.299999997,492779.385,497462.812,8,400,20,,ISIC_4980079.JPG
break,html.Screen,4_69_1,2023-05-02T16:37:11.049Z,,0,,,NaN,,,,,,false,,,,497453.299999997,497453.200000003,,497452.90000000596,,497462.812,8,400,,,
break_continue,html.Screen,4_69_2,2023-05-02T16:37:11.049Z,,0,,,NaN,,,,,,false,,,,497453.700000003,497453.60000000894,,497453.60000000894,,497462.812,8,400,,,
sequence,flow.Sequence,4_69,2023-05-02T16:37:11.049Z,,0,,,4674.215000008931,completion,,,,,false,,,,497454,497453.60000000894,492762.718,492774.299999997,492779.385,497462.812,8,400,,,
trial,html.Screen,4_70_0,2023-05-02T16:37:13.977Z,,0,2,,2918.4879999970435,response,ISIC_0030116.JPG,,ISIC_4311777.JPG,ISIC_4311777.JPG,false,0,keypress(z),500,500381.5,500381.299999997,497446.145,497454.10000000894,497462.812,500396.715,8,400,21,,ISIC_0030116.JPG
break,html.Screen,4_70_1,2023-05-02T16:37:13.977Z,,0,,,NaN,,,,,,false,,,,500382.200000003,500382,,500381.799999997,,500396.715,8,400,,,
break_continue,html.Screen,4_70_2,2023-05-02T16:37:13.978Z,,0,,,NaN,,,,,,false,,,,500382.60000000894,500382.5,,500382.40000000596,,500396.715,8,400,,,
sequence,flow.Sequence,4_70,2023-05-02T16:37:13.978Z,,0,,,2919.6880000000237,completion,,,,,false,,,,500382.799999997,500382.5,497446.145,497454,497462.812,500396.715,8,400,,,
trial,html.Screen,4_71_0,2023-05-02T16:37:16.904Z,,0,2,,2911.885000008915,response,ISIC_8588957.JPG,,ISIC_0000035.JPG,ISIC_8588957.JPG,false,1,keypress(m),500,503308.90000000596,503308.60000000894,500380.048,500382.90000000596,500396.715,503313.44,8,400,22,,ISIC_0000035.JPG
break,html.Screen,4_71_1,2023-05-02T16:37:16.905Z,,0,,,NaN,,,,,,false,,,,503309.60000000894,503309.40000000596,,503309.200000003,,503313.44,8,400,,,
break_continue,html.Screen,4_71_2,2023-05-02T16:37:16.905Z,,0,,,NaN,,,,,,false,,,,503309.90000000596,503309.90000000596,,503309.700000003,,503313.44,8,400,,,
sequence,flow.Sequence,4_71,2023-05-02T16:37:16.905Z,,0,,,2913.185000005935,completion,,,,,false,,,,503310.200000003,503309.90000000596,500380.048,500382.90000000596,500396.715,503313.44,8,400,,,
trial,html.Screen,4_72_0,2023-05-02T16:37:19.602Z,,0,2,,2693.260000002978,response,ISIC_0647224.JPG,,ISIC_9027622.JPG,ISIC_9027622.JPG,false,0,keypress(z),500,506006.90000000596,506006.700000003,503296.773,503310.299999997,503313.44,506013.494,8,400,23,,ISIC_0647224.JPG
break,html.Screen,4_72_1,2023-05-02T16:37:19.603Z,,0,,,NaN,,,,,,false,,,,506007.60000000894,506007.40000000596,,506007.10000000894,,506013.494,8,400,,,
break_continue,html.Screen,4_72_2,2023-05-02T16:37:19.603Z,,0,,,NaN,,,,,,false,,,,506008,506007.799999997,,506007.700000003,,506013.494,8,400,,,
sequence,flow.Sequence,4_72,2023-05-02T16:37:19.603Z,,0,,,2694.3599999970174,completion,,,,,false,,,,506008.200000003,506007.799999997,503296.773,503310.299999997,503313.44,506013.494,8,400,,,
trial,html.Screen,4_73_0,2023-05-02T16:37:22.929Z,,0,2,,3319.9060000059544,response,ISIC_0021442.JPG,,ISIC_7658133.JPG,ISIC_0021442.JPG,false,1,keypress(m),500,509333.700000003,509333.40000000596,505996.827,506008.299999997,506013.494,509346.894,8,400,24,,ISIC_7658133.JPG
break,html.Screen,4_73_1,2023-05-02T16:37:22.930Z,,0,,,NaN,,,,,,false,,,,509334.299999997,509334.200000003,,509333.90000000596,,509346.894,8,400,,,
break_continue,html.Screen,4_73_2,2023-05-02T16:37:22.930Z,,0,,,NaN,,,,,,false,,,,509334.700000003,509334.60000000894,,509334.5,,509346.894,8,400,,,
sequence,flow.Sequence,4_73,2023-05-02T16:37:22.930Z,,0,,,3321.1060000089346,completion,,,,,false,,,,509334.90000000596,509334.60000000894,505996.827,506008.200000003,506013.494,509346.894,8,400,,,
trial,html.Screen,4_74_0,2023-05-02T16:37:26.071Z,,0,2,,3128.806000003009,response,ISIC_0025841.JPG,,ISIC_1782911.JPG,ISIC_0025841.JPG,false,1,keypress(m),500,512476,512475.700000003,509330.227,509335.10000000894,509346.894,512480.819,8,400,25,,ISIC_1782911.JPG
break,html.Screen,4_74_1,2023-05-02T16:37:26.072Z,,0,,,NaN,,,,,,false,,,,512476.60000000894,512476.40000000596,,512476.200000003,,512480.819,8,400,,,
break_continue,html.Screen,4_74_2,2023-05-02T16:37:26.073Z,,0,,,NaN,,,,,,false,,,,512477.10000000894,512477,,512476.799999997,,512480.819,8,400,,,
sequence,flow.Sequence,4_74,2023-05-02T16:37:26.073Z,,0,,,3130.106000000029,completion,,,,,false,,,,512477.299999997,512477,509330.227,509335,509346.894,512480.819,8,400,,,
trial,html.Screen,4_75_0,2023-05-02T16:37:29.729Z,,0,2,,3652.0810000059428,response,ISIC_7225978.JPG,,ISIC_9417173.JPG,ISIC_7225978.JPG,false,1,keypress(m),500,516133.10000000894,516132.90000000596,512464.152,512477.40000000596,512480.819,516147.559,8,400,26,,ISIC_9417173.JPG
break,html.Screen,4_75_1,2023-05-02T16:37:29.729Z,,0,,,NaN,,,,,,false,,,,516133.90000000596,516133.700000003,,516133.299999997,,516147.559,8,400,,,
break_continue,html.Screen,4_75_2,2023-05-02T16:37:29.730Z,,0,,,NaN,,,,,,false,,,,516134.200000003,516134.10000000894,,516134,,516147.559,8,400,,,
sequence,flow.Sequence,4_75,2023-05-02T16:37:29.730Z,,0,,,3653.281000008923,completion,,,,,false,,,,516134.40000000596,516134.10000000894,512464.152,512477.299999997,512480.819,516147.559,8,400,,,
trial,html.Screen,4_76_0,2023-05-02T16:37:32.712Z,,0,2,,2969.0410000089323,response,ISIC_0047008.JPG,,ISIC_0014160.JPG,ISIC_0014160.JPG,false,0,keypress(z),500,519116.90000000596,519116.60000000894,516130.892,516134.60000000894,516147.559,519130.952,8,400,27,,ISIC_0047008.JPG
break,html.Screen,4_76_1,2023-05-02T16:37:32.713Z,,0,,,NaN,,,,,,false,,,,519117.60000000894,519117.40000000596,,519117.10000000894,,519130.952,8,400,,,
break_continue,html.Screen,4_76_2,2023-05-02T16:37:32.714Z,,0,,,NaN,,,,,,false,,,,519118,519117.799999997,,519117.700000003,,519130.952,8,400,,,
sequence,flow.Sequence,4_76,2023-05-02T16:37:32.714Z,,0,,,2970.2409999970114,completion,,,,,false,,,,519118.10000000894,519117.799999997,516130.892,516134.60000000894,516147.559,519130.952,8,400,,,
trial,html.Screen,4_77_0,2023-05-02T16:37:36.178Z,,0,2,,3451.24800000299,response,ISIC_0046223.JPG,,ISIC_0031908.JPG,ISIC_0046223.JPG,false,1,keypress(m),500,522582.5,522582.200000003,519114.285,519118.40000000596,519130.952,522598.202,8,400,28,,ISIC_0031908.JPG
break,html.Screen,4_77_1,2023-05-02T16:37:36.179Z,,0,,,NaN,,,,,,false,,,,522583.200000003,522583,,522582.799999997,,522598.202,8,400,,,
break_continue,html.Screen,4_77_2,2023-05-02T16:37:36.179Z,,0,,,NaN,,,,,,false,,,,522583.60000000894,522583.5,,522583.299999997,,522598.202,8,400,,,
sequence,flow.Sequence,4_77,2023-05-02T16:37:36.179Z,,0,,,3452.54800000001,completion,,,,,false,,,,522583.799999997,522583.5,519114.285,519118.299999997,519130.952,522598.202,8,400,,,
trial,html.Screen,4_78_0,2023-05-02T16:37:39.009Z,,0,2,,2815.29800000001,response,ISIC_5369000.JPG,,ISIC_0033856.JPG,ISIC_0033856.JPG,false,0,keypress(z),500,525413.700000003,525413.5,522581.535,522584,522598.202,525414.925,8,400,29,,ISIC_5369000.JPG
break,html.Screen,4_78_1,2023-05-02T16:37:39.010Z,,0,,,NaN,,,,,,false,,,,525414.400000006,525414.200000003,,525413.900000006,,525414.925,8,400,,,
break_continue,html.Screen,4_78_2,2023-05-02T16:37:39.011Z,,0,,,NaN,,,,,,false,,,,525414.799999997,525414.6000000089,,525414.5,,525414.925,8,400,,,
sequence,flow.Sequence,4_78,2023-05-02T16:37:39.011Z,,0,,,2816.3980000089505,completion,,,,,false,,,,525415,525414.6000000089,522581.535,522583.90000000596,522598.202,525414.925,8,400,,,
trial,html.Screen,4_79_0,2023-05-02T16:37:41.739Z,,0,2,,2727.975000005914,response,ISIC_0031369.JPG,,ISIC_0033122.JPG,ISIC_0031369.JPG,false,1,keypress(m),500,528143.1000000089,528142.900000006,525398.258,525415.200000003,525414.925,528148.313,8,400,30,,ISIC_0033122.JPG
break,html.Screen,4_79_1,2023-05-02T16:37:41.740Z,,0,,,NaN,,,,,,false,,,,528143.799999997,528143.6000000089,,528143.299999997,,528148.313,8,400,,,
break_continue,html.Screen,4_79_2,2023-05-02T16:37:41.740Z,,0,,,NaN,,,,,,false,,,,528144.200000003,528144,,528143.900000006,,528148.313,8,400,,,
sequence,flow.Sequence,4_79,2023-05-02T16:37:41.740Z,,0,,,2729.0749999999534,completion,,,,,false,,,,528144.400000006,528144,525398.258,525415.1000000089,525414.925,528148.313,8,400,,,
trial,html.Screen,4_80_0,2023-05-02T16:37:48.857Z,,0,2,,7111.986999997054,response,ISIC_5397483.JPG,,ISIC_0057978.JPG,ISIC_5397483.JPG,false,1,keypress(m),500,535260.6000000089,535260.299999997,528131.646,528144.5,528148.313,535265.71,8,400,31,,ISIC_0057978.JPG
break,html.Screen,4_80_1,2023-05-02T16:37:48.857Z,,0,,,NaN,,,,,,false,,,,535261.200000003,535261.1000000089,,535260.700000003,,535265.71,8,400,,,
break_continue,html.Screen,4_80_2,2023-05-02T16:37:48.858Z,,0,,,NaN,,,,,,false,,,,535261.6000000089,535261.5,,535261.400000006,,535265.71,8,400,,,
sequence,flow.Sequence,4_80,2023-05-02T16:37:48.858Z,,0,,,7113.1870000000345,completion,,,,,false,,,,535261.900000006,535261.5,528131.646,528144.5,528148.313,535265.71,8,400,,,
trial,html.Screen,4_81_0,2023-05-02T16:37:51.689Z,,0,2,,2826.890000008978,response,ISIC_5961092.JPG,,ISIC_0033166.JPG,ISIC_5961092.JPG,false,1,keypress(m),500,538092.799999997,538092.6000000089,535249.043,535262,535265.71,538099.1,8,400,32,,ISIC_0033166.JPG
break,html.Screen,4_81_1,2023-05-02T16:37:51.690Z,,0,,,NaN,,,,,,false,,,,538093.6000000089,538093.400000006,,538093,,538099.1,8,400,,,
break_continue,html.Screen,4_81_2,2023-05-02T16:37:51.690Z,,0,,,NaN,,,,,,false,,,,538093.900000006,538093.799999997,,538093.700000003,,538099.1,8,400,,,
sequence,flow.Sequence,4_81,2023-05-02T16:37:51.690Z,,0,,,2828.089999997057,completion,,,,,false,,,,538094.200000003,538093.799999997,535249.043,535262,535265.71,538099.1,8,400,,,
trial,html.Screen,4_82_0,2023-05-02T16:37:54.226Z,,0,2,,2530.9000000000233,response,ISIC_0644590.JPG,,ISIC_2680640.JPG,ISIC_2680640.JPG,false,0,keypress(z),500,540630.200000003,540630,538082.433,538094.299999997,538099.1,540632.484,8,400,33,,ISIC_0644590.JPG
break,html.Screen,4_82_1,2023-05-02T16:37:54.227Z,,0,,,NaN,,,,,,false,,,,540630.900000006,540630.700000003,,540630.400000006,,540632.484,8,400,,,
break_continue,html.Screen,4_82_2,2023-05-02T16:37:54.227Z,,0,,,NaN,,,,,,false,,,,540631.299999997,540631.1000000089,,540631,,540632.484,8,400,,,
sequence,flow.Sequence,4_82,2023-05-02T16:37:54.227Z,,0,,,2532.000000008964,completion,,,,,false,,,,540631.400000006,540631.1000000089,538082.433,538094.200000003,538099.1,540632.484,8,400,,,
trial,html.Screen,4_83_0,2023-05-02T16:37:57.210Z,,0,2,,2981.2160000029253,response,ISIC_8378321.JPG,,ISIC_2621288.JPG,ISIC_8378321.JPG,false,1,keypress(m),500,543614,543613.700000003,540615.817,540631.6000000089,540632.484,543615.877,8,400,34,,ISIC_2621288.JPG
break,html.Screen,4_83_1,2023-05-02T16:37:57.211Z,,0,,,NaN,,,,,,false,,,,543614.6000000089,543614.400000006,,543614.1000000089,,543615.877,8,400,,,
break_continue,html.Screen,4_83_2,2023-05-02T16:37:57.211Z,,0,,,NaN,,,,,,false,,,,543615,543614.900000006,,543614.799999997,,543615.877,8,400,,,
sequence,flow.Sequence,4_83,2023-05-02T16:37:57.211Z,,0,,,2982.4160000059055,completion,,,,,false,,,,543615.200000003,543614.900000006,540615.817,540631.5,540632.484,543615.877,8,400,,,
trial,html.Screen,4_84_0,2023-05-02T16:38:00.066Z,,0,2,,2853.8230000030017,response,ISIC_0055526.JPG,,ISIC_8798059.JPG,ISIC_0055526.JPG,false,1,keypress(m),500,546470,546469.700000003,543599.21,543615.400000006,543615.877,546483.208,8,400,35,,ISIC_8798059.JPG
break,html.Screen,4_84_1,2023-05-02T16:38:00.067Z,,0,,,NaN,,,,,,false,,,,546470.700000003,546470.5,,546470.299999997,,546483.208,8,400,,,
break_continue,html.Screen,4_84_2,2023-05-02T16:38:00.067Z,,0,,,NaN,,,,,,false,,,,546471.1000000089,546470.900000006,,546470.799999997,,546483.208,8,400,,,
sequence,flow.Sequence,4_84,2023-05-02T16:38:00.067Z,,0,,,2855.023000005982,completion,,,,,false,,,,546471.299999997,546470.900000006,543599.21,543615.299999997,543615.877,546483.208,8,400,,,
trial,html.Screen,4_85_0,2023-05-02T16:38:03.050Z,,0,2,,2970.292000000016,response,ISIC_3598244.JPG,,ISIC_9088073.JPG,ISIC_3598244.JPG,false,1,keypress(m),500,549453.799999997,549453.5,546466.541,546471.5,546483.208,549466.601,8,400,36,,ISIC_9088073.JPG
break,html.Screen,4_85_1,2023-05-02T16:38:03.051Z,,0,,,NaN,,,,,,false,,,,549454.400000006,549454.299999997,,549454,,549466.601,8,400,,,
break_continue,html.Screen,4_85_2,2023-05-02T16:38:03.051Z,,0,,,NaN,,,,,,false,,,,549454.799999997,549454.700000003,,549454.6000000089,,549466.601,8,400,,,
sequence,flow.Sequence,4_85,2023-05-02T16:38:03.051Z,,0,,,2971.492000002996,completion,,,,,false,,,,549455.1000000089,549454.700000003,546466.541,546471.400000006,546483.208,549466.601,8,400,,,
trial,html.Screen,4_86_0,2023-05-02T16:38:06.040Z,,0,2,,2976.7990000059363,response,ISIC_0030447.JPG,,ISIC_6446779.JPG,ISIC_6446779.JPG,false,0,keypress(z),500,552443.6000000089,552443.400000006,549449.934,549455.200000003,549466.601,552449.994,8,400,37,,ISIC_0030447.JPG
break,html.Screen,4_86_1,2023-05-02T16:38:06.041Z,,0,,,NaN,,,,,,false,,,,552444.299999997,552444.200000003,,552443.900000006,,552449.994,8,400,,,
break_continue,html.Screen,4_86_2,2023-05-02T16:38:06.041Z,,0,,,NaN,,,,,,false,,,,552444.700000003,552444.6000000089,,552444.5,,552449.994,8,400,,,
sequence,flow.Sequence,4_86,2023-05-02T16:38:06.041Z,,0,,,2977.9990000089165,completion,,,,,false,,,,552445,552444.6000000089,549449.934,549455.200000003,549466.601,552449.994,8,400,,,
trial,html.Screen,4_87_0,2023-05-02T16:38:08.858Z,,0,2,,2811.2060000030324,response,ISIC_1638436.JPG,,ISIC_8436194.JPG,ISIC_1638436.JPG,false,1,keypress(m),500,555261.400000006,555261.200000003,552433.327,552445.1000000089,552449.994,555266.717,8,400,38,,ISIC_8436194.JPG
break,html.Screen,4_87_1,2023-05-02T16:38:08.858Z,,0,,,NaN,,,,,,false,,,,555262.1000000089,555261.900000006,,555261.6000000089,,555266.717,8,400,,,
break_continue,html.Screen,4_87_2,2023-05-02T16:38:08.859Z,,0,,,NaN,,,,,,false,,,,555262.5,555262.299999997,,555262.200000003,,555266.717,8,400,,,
sequence,flow.Sequence,4_87,2023-05-02T16:38:08.859Z,,0,,,2812.305999997072,completion,,,,,false,,,,555262.6000000089,555262.299999997,552433.327,552445,552449.994,555266.717,8,400,,,
trial,html.Screen,4_88_0,2023-05-02T16:38:11.560Z,,0,2,,2696.9830000030342,response,ISIC_0014703.JPG,,ISIC_2894223.JPG,ISIC_0014703.JPG,false,1,keypress(m),500,557963.799999997,557963.700000003,555250.05,555262.799999997,555266.717,557967.248,8,400,39,,ISIC_2894223.JPG
break,html.Screen,4_88_1,2023-05-02T16:38:11.561Z,,0,,,NaN,,,,,,false,,,,557964.6000000089,557964.400000006,,557964.1000000089,,557967.248,8,400,,,
break_continue,html.Screen,4_88_2,2023-05-02T16:38:11.561Z,,0,,,NaN,,,,,,false,,,,557965,557964.799999997,,557964.700000003,,557967.248,8,400,,,
sequence,flow.Sequence,4_88,2023-05-02T16:38:11.562Z,,0,,,2698.082999997074,completion,,,,,false,,,,557965.200000003,557964.799999997,555250.05,555262.799999997,555266.717,557967.248,8,400,,,
trial,html.Screen,4_89_0,2023-05-02T16:38:14.225Z,,0,2,,2660.8520000089193,response,ISIC_0072393.JPG,,ISIC_0058617.JPG,ISIC_0072393.JPG,false,1,keypress(m),500,560628.400000006,560628.1000000089,557950.581,557965.299999997,557967.248,560633.968,8,400,40,,ISIC_0058617.JPG
break,html.Screen,4_89_1,2023-05-02T16:38:14.226Z,,0,,,NaN,,,,,,false,,,,560629,560628.900000006,,560628.5,,560633.968,8,400,,,
break_continue,html.Screen,4_89_2,2023-05-02T16:38:14.226Z,,0,,,NaN,,,,,,false,,,,560629.5,560629.299999997,,560629.200000003,,560633.968,8,400,,,
sequence,flow.Sequence,4_89,2023-05-02T16:38:14.226Z,,0,,,2662.0519999969983,completion,,,,,false,,,,560629.700000003,560629.299999997,557950.581,557965.299999997,557967.248,560633.968,8,400,,,
trial,html.Screen,4_90_0,2023-05-02T16:38:17.273Z,,0,2,,3041.7320000029868,response,ISIC_3989526.JPG,,ISIC_0025573.JPG,ISIC_3989526.JPG,false,1,keypress(m),500,563675.900000006,563675.700000003,560617.301,560629.799999997,560633.968,563684.029,8,400,41,,ISIC_0025573.JPG
break,html.Screen,4_90_1,2023-05-02T16:38:17.273Z,,0,,,NaN,,,,,,false,,,,563676.6000000089,563676.400000006,,563676.200000003,,563684.029,8,400,,,
break_continue,html.Screen,4_90_2,2023-05-02T16:38:17.274Z,,0,,,NaN,,,,,,false,,,,563676.900000006,563676.900000006,,563676.799999997,,563684.029,8,400,,,
sequence,flow.Sequence,4_90,2023-05-02T16:38:17.274Z,,0,,,3042.932000005967,completion,,,,,false,,,,563677.1000000089,563676.900000006,560617.301,560629.700000003,560633.968,563684.029,8,400,,,
trial,html.Screen,4_91_0,2023-05-02T16:38:20.018Z,,0,2,,2737.4710000000196,response,ISIC_0014974.JPG,,ISIC_0029106.JPG,ISIC_0029106.JPG,false,0,keypress(z),500,566421.700000003,566421.5,563667.362,563677.299999997,563684.029,566434.614,8,400,42,,ISIC_0014974.JPG
break,html.Screen,4_91_1,2023-05-02T16:38:20.019Z,,0,,,NaN,,,,,,false,,,,566422.299999997,566422.200000003,,566421.900000006,,566434.614,8,400,,,
break_continue,html.Screen,4_91_2,2023-05-02T16:38:20.019Z,,0,,,NaN,,,,,,false,,,,566422.700000003,566422.6000000089,,566422.5,,566434.614,8,400,,,
sequence,flow.Sequence,4_91,2023-05-02T16:38:20.019Z,,0,,,2738.5710000089603,completion,,,,,false,,,,566422.900000006,566422.6000000089,563667.362,563677.200000003,563684.029,566434.614,8,400,,,
trial,html.Screen,4_92_0,2023-05-02T16:38:24.570Z,,0,2,,4537.9860000089975,response,ISIC_3256887.JPG,,ISIC_2259190.JPG,ISIC_3256887.JPG,false,1,keypress(m),500,570972.799999997,570972.6000000089,566417.947,566423,566434.614,570984.705,8,400,43,,ISIC_2259190.JPG
break,html.Screen,4_92_1,2023-05-02T16:38:24.570Z,,0,,,NaN,,,,,,false,,,,570973.5,570973.299999997,,570973,,570984.705,8,400,,,
break_continue,html.Screen,4_92_2,2023-05-02T16:38:24.571Z,,0,,,NaN,,,,,,false,,,,570974.299999997,570974.200000003,,570974,,570984.705,8,400,,,
sequence,flow.Sequence,4_92,2023-05-02T16:38:24.571Z,,0,,,4539.586000003037,completion,,,,,false,,,,570974.6000000089,570974.200000003,566417.947,566423,566434.614,570984.705,8,400,,,
trial,html.Screen,4_93_0,2023-05-02T16:38:27.650Z,,0,2,,3068.795000000042,response,ISIC_0000152.JPG,,ISIC_9130157.JPG,ISIC_9130157.JPG,false,0,keypress(z),500,574053.700000003,574053.5,570968.038,570974.700000003,570984.705,574068.1,8,400,44,,ISIC_0000152.JPG
break,html.Screen,4_93_1,2023-05-02T16:38:27.651Z,,0,,,NaN,,,,,,false,,,,574054.299999997,574054.200000003,,574053.900000006,,574068.1,8,400,,,
break_continue,html.Screen,4_93_2,2023-05-02T16:38:27.651Z,,0,,,NaN,,,,,,false,,,,574054.700000003,574054.6000000089,,574054.400000006,,574068.1,8,400,,,
sequence,flow.Sequence,4_93,2023-05-02T16:38:27.652Z,,0,,,3069.8950000089826,completion,,,,,false,,,,574054.900000006,574054.6000000089,570968.038,570974.700000003,570984.705,574068.1,8,400,,,
trial,html.Screen,4_94_0,2023-05-02T16:38:30.252Z,,0,2,,2586.6000000030035,response,ISIC_5736292.JPG,,ISIC_0010265.JPG,ISIC_5736292.JPG,false,1,keypress(m),500,576654.900000006,576654.700000003,574051.433,574055.1000000089,574068.1,576668.661,8,400,45,,ISIC_0010265.JPG
break,html.Screen,4_94_1,2023-05-02T16:38:30.252Z,,0,,,NaN,,,,,,false,,,,576655.6000000089,576655.400000006,,576655.200000003,,576668.661,8,400,,,
break_continue,html.Screen,4_94_2,2023-05-02T16:38:30.253Z,,0,,,NaN,,,,,,false,,,,576656,576655.900000006,,576655.799999997,,576668.661,8,400,,,
sequence,flow.Sequence,4_94,2023-05-02T16:38:30.253Z,,0,,,2587.8000000059837,completion,,,,,false,,,,576656.200000003,576655.900000006,574051.433,574055,574068.1,576668.661,8,400,,,
trial,html.Screen,4_95_0,2023-05-02T16:38:33.210Z,,0,2,,2944.5390000030166,response,ISIC_0034294.JPG,,ISIC_0000283.JPG,ISIC_0000283.JPG,false,0,keypress(z),500,579613.400000006,579613.200000003,576651.994,576656.299999997,576668.661,579618.72,8,400,46,,ISIC_0034294.JPG
break,html.Screen,4_95_1,2023-05-02T16:38:33.211Z,,0,,,NaN,,,,,,false,,,,579614.1000000089,579613.900000006,,579613.6000000089,,579618.72,8,400,,,
break_continue,html.Screen,4_95_2,2023-05-02T16:38:33.211Z,,0,,,NaN,,,,,,false,,,,579614.5,579614.400000006,,579614.299999997,,579618.72,8,400,,,
sequence,flow.Sequence,4_95,2023-05-02T16:38:33.212Z,,0,,,2945.739000005997,completion,,,,,false,,,,579614.700000003,579614.400000006,576651.994,576656.299999997,576668.661,579618.72,8,400,,,
trial,html.Screen,4_96_0,2023-05-02T16:38:37.316Z,,0,2,,4099.880000008969,response,ISIC_0029672.JPG,,ISIC_0000310.JPG,ISIC_0000310.JPG,false,0,keypress(z),500,583718.799999997,583718.6000000089,579602.053,579614.900000006,579618.72,583735.469,8,400,47,,ISIC_0029672.JPG
break,html.Screen,4_96_1,2023-05-02T16:38:37.317Z,,0,,,NaN,,,,,,false,,,,583719.6000000089,583719.400000006,,583719.1000000089,,583735.469,8,400,,,
break_continue,html.Screen,4_96_2,2023-05-02T16:38:37.317Z,,0,,,NaN,,,,,,false,,,,583720,583719.799999997,,583719.700000003,,583735.469,8,400,,,
sequence,flow.Sequence,4_96,2023-05-02T16:38:37.317Z,,0,,,4101.079999997048,completion,,,,,false,,,,583720.1000000089,583719.799999997,579602.053,579614.799999997,579618.72,583735.469,8,400,,,
trial,html.Screen,4_97_0,2023-05-02T16:38:40.876Z,,0,2,,3543.330999996979,response,ISIC_7381224.JPG,,ISIC_8779142.JPG,ISIC_7381224.JPG,false,1,keypress(m),500,587279.1000000089,587278.799999997,583718.802,583720.299999997,583735.469,587286.042,8,400,48,,ISIC_8779142.JPG
break,html.Screen,4_97_1,2023-05-02T16:38:40.877Z,,0,,,NaN,,,,,,false,,,,587279.799999997,587279.5,,587279.200000003,,587286.042,8,400,,,
break_continue,html.Screen,4_97_2,2023-05-02T16:38:40.877Z,,0,,,NaN,,,,,,false,,,,587280.1000000089,587280,,587279.900000006,,587286.042,8,400,,,
sequence,flow.Sequence,4_97,2023-05-02T16:38:40.877Z,,0,,,3544.530999999959,completion,,,,,false,,,,587280.299999997,587280,583718.802,583720.200000003,583735.469,587286.042,8,400,,,
trial,html.Screen,4_98_0,2023-05-02T16:38:43.866Z,,0,2,,2982.3580000059446,response,ISIC_0033916.JPG,,ISIC_7455460.JPG,ISIC_7455460.JPG,false,0,keypress(z),500,590268.6000000089,590268.400000006,587269.375,587280.400000006,587286.042,590269.435,8,400,49,,ISIC_0033916.JPG
break,html.Screen,4_98_1,2023-05-02T16:38:43.866Z,,0,,,NaN,,,,,,false,,,,590269.400000006,590269.1000000089,,590268.799999997,,590269.435,8,400,,,
break_continue,html.Screen,4_98_2,2023-05-02T16:38:43.867Z,,0,,,NaN,,,,,,false,,,,590269.799999997,590269.6000000089,,590269.5,,590269.435,8,400,,,
sequence,flow.Sequence,4_98,2023-05-02T16:38:43.867Z,,0,,,2983.558000008925,completion,,,,,false,,,,590270,590269.6000000089,587269.375,587280.400000006,587286.042,590269.435,8,400,,,
trial,html.Screen,4_99_0,2023-05-02T16:38:46.884Z,,0,2,,3017.4650000059046,response,ISIC_6646939.JPG,,ISIC_3779093.JPG,ISIC_3779093.JPG,false,0,keypress(z),500,593287.200000003,593286.900000006,590252.768,590270.1000000089,590269.435,593302.829,8,400,50,,ISIC_6646939.JPG
break,html.Screen,4_99_1,2023-05-02T16:38:51.885Z,,0,,,5000.099999999977,timeout,,,,,false,,,,598287.6000000089,598286.262,593286.162,593287.400000006,593302.829,598302.929,8,400,,,
break_continue,html.Screen,4_99_2,2023-05-02T16:38:53.150Z,,0,,,1230.2710000029765,response,,,,,false,continue,keypress(Space),,599552.700000003,599533.200000003,598286.262,598287.700000003,598302.929,599569.621,8,400,,,
sequence,flow.Sequence,4_99,2023-05-02T16:38:53.150Z,,0,,,9263.765000002924,completion,,,,,false,,,,599552.799999997,599533.200000003,590252.768,590270.1000000089,590269.435,599569.621,8,400,,,
trial,html.Screen,4_100_0,2023-05-02T16:38:58.619Z,,0,3,,5451.479000008898,response,ISIC_0032784.JPG,,ISIC_0013499.JPG,ISIC_0013499.JPG,false,0,keypress(z),500,605021.400000006,605021.1000000089,599552.954,599552.900000006,599569.621,605036.397,8,400,1,,ISIC_0032784.JPG
break,html.Screen,4_100_1,2023-05-02T16:38:58.619Z,,0,,,NaN,,,,,,false,,,,605022.1000000089,605021.799999997,,605021.6000000089,,605036.397,8,400,,,
break_continue,html.Screen,4_100_2,2023-05-02T16:38:58.620Z,,0,,,NaN,,,,,,false,,,,605022.400000006,605022.400000006,,605022.200000003,,605036.397,8,400,,,
sequence,flow.Sequence,4_100,2023-05-02T16:38:58.620Z,,0,,,5452.779000005918,completion,,,,,false,,,,605022.6000000089,605022.400000006,599552.954,599552.900000006,599569.621,605036.397,8,400,,,
trial,html.Screen,4_101_0,2023-05-02T16:39:01.397Z,,0,3,,2762.4029999970226,response,ISIC_4770073.JPG,,ISIC_2622189.JPG,ISIC_2622189.JPG,false,0,keypress(z),500,607799.1000000089,607798.799999997,605019.73,605022.799999997,605036.397,607804.142,8,400,2,,ISIC_4770073.JPG
break,html.Screen,4_101_1,2023-05-02T16:39:01.397Z,,0,,,NaN,,,,,,false,,,,607799.799999997,607799.6000000089,,607799.299999997,,607804.142,8,400,,,
break_continue,html.Screen,4_101_2,2023-05-02T16:39:01.398Z,,0,,,NaN,,,,,,false,,,,607800.200000003,607800.1000000089,,607800,,607804.142,8,400,,,
sequence,flow.Sequence,4_101,2023-05-02T16:39:01.398Z,,0,,,2763.7030000089435,completion,,,,,false,,,,607800.400000006,607800.1000000089,605019.73,605022.799999997,605036.397,607804.142,8,400,,,
trial,html.Screen,4_102_0,2023-05-02T16:39:03.932Z,,0,3,,2530.5580000029877,response,ISIC_0588322.JPG,,ISIC_5920470.JPG,ISIC_0588322.JPG,false,1,keypress(m),500,610334.900000006,610334.700000003,607787.475,607800.5,607804.142,610337.526,8,400,3,,ISIC_5920470.JPG
break,html.Screen,4_102_1,2023-05-02T16:39:03.933Z,,0,,,NaN,,,,,,false,,,,610335.6000000089,610335.400000006,,610335,,610337.526,8,400,,,
break_continue,html.Screen,4_102_2,2023-05-02T16:39:03.933Z,,0,,,NaN,,,,,,false,,,,610336,610335.799999997,,610335.700000003,,610337.526,8,400,,,
sequence,flow.Sequence,4_102,2023-05-02T16:39:03.934Z,,0,,,2531.657999997027,completion,,,,,false,,,,610336.200000003,610335.799999997,607787.475,607800.5,607804.142,610337.526,8,400,,,
trial,html.Screen,4_103_0,2023-05-02T16:39:06.411Z,,0,3,,2475.9740000000456,response,ISIC_8197240.JPG,,ISIC_5123817.JPG,ISIC_5123817.JPG,false,0,keypress(z),500,612813.700000003,612813.5,610320.859,610336.299999997,610337.526,612820.909,8,400,4,,ISIC_8197240.JPG
break,html.Screen,4_103_1,2023-05-02T16:39:06.412Z,,0,,,NaN,,,,,,false,,,,612814.400000006,612814.200000003,,612813.900000006,,612820.909,8,400,,,
break_continue,html.Screen,4_103_2,2023-05-02T16:39:06.412Z,,0,,,NaN,,,,,,false,,,,612814.799999997,612814.700000003,,612814.6000000089,,612820.909,8,400,,,
sequence,flow.Sequence,4_103,2023-05-02T16:39:06.413Z,,0,,,2477.174000003026,completion,,,,,false,,,,612815,612814.700000003,610320.859,610336.299999997,610337.526,612820.909,8,400,,,
trial,html.Screen,4_104_0,2023-05-02T16:39:08.938Z,,0,3,,2518.791000002995,response,ISIC_1628539.JPG,,ISIC_0029538.JPG,ISIC_1628539.JPG,false,1,keypress(m),500,615339.900000006,615339.700000003,612804.242,612815.1000000089,612820.909,615354.293,8,400,5,,ISIC_0029538.JPG
break,html.Screen,4_104_1,2023-05-02T16:39:08.938Z,,0,,,NaN,,,,,,false,,,,615340.6000000089,615340.5,,615340.200000003,,615354.293,8,400,,,
break_continue,html.Screen,4_104_2,2023-05-02T16:39:08.939Z,,0,,,NaN,,,,,,false,,,,615341,615340.799999997,,615340.700000003,,615354.293,8,400,,,
sequence,flow.Sequence,4_104,2023-05-02T16:39:08.939Z,,0,,,2519.8909999970347,completion,,,,,false,,,,615341.200000003,615340.799999997,612804.242,612815.1000000089,612820.909,615354.293,8,400,,,
trial,html.Screen,4_105_0,2023-05-02T16:39:11.620Z,,0,3,,2667.807000008994,response,ISIC_8135400.JPG,,ISIC_0054444.JPG,ISIC_8135400.JPG,false,1,keypress(m),500,618022.299999997,618022.1000000089,615337.626,615341.299999997,615354.293,618038.195,8,400,6,,ISIC_0054444.JPG
break,html.Screen,4_105_1,2023-05-02T16:39:11.621Z,,0,,,NaN,,,,,,false,,,,618023.1000000089,618022.900000006,,618022.5,,618038.195,8,400,,,
break_continue,html.Screen,4_105_2,2023-05-02T16:39:11.621Z,,0,,,NaN,,,,,,false,,,,618023.5,618023.299999997,,618023.200000003,,618038.195,8,400,,,
sequence,flow.Sequence,4_105,2023-05-02T16:39:11.621Z,,0,,,2669.006999997073,completion,,,,,false,,,,618023.700000003,618023.299999997,615337.626,615341.299999997,615354.293,618038.195,8,400,,,
trial,html.Screen,4_106_0,2023-05-02T16:39:16.475Z,,0,3,,4839.0050000030315,response,ISIC_0006517.JPG,,ISIC_0003822.JPG,ISIC_0006517.JPG,false,1,keypress(m),500,622877.400000006,622877.200000003,618021.528,618023.799999997,618038.195,622904.959,8,400,7,,ISIC_0003822.JPG
break,html.Screen,4_106_1,2023-05-02T16:39:16.476Z,,0,,,NaN,,,,,,false,,,,622878.1000000089,622877.900000006,,622877.6000000089,,622904.959,8,400,,,
break_continue,html.Screen,4_106_2,2023-05-02T16:39:16.476Z,,0,,,NaN,,,,,,false,,,,622878.400000006,622878.299999997,,622878.299999997,,622904.959,8,400,,,
sequence,flow.Sequence,4_106,2023-05-02T16:39:16.476Z,,0,,,4840.104999997071,completion,,,,,false,,,,622878.6000000089,622878.299999997,618021.528,618023.700000003,618038.195,622904.959,8,400,,,
trial,html.Screen,4_107_0,2023-05-02T16:39:19.386Z,,0,3,,2883.340999996988,response,ISIC_4524488.JPG,,ISIC_0046773.JPG,ISIC_0046773.JPG,false,0,keypress(z),500,625788.5,625788.299999997,622888.292,622878.700000003,622904.959,625805.017,8,400,8,,ISIC_4524488.JPG
break,html.Screen,4_107_1,2023-05-02T16:39:19.387Z,,0,,,NaN,,,,,,false,,,,625789,625788.900000006,,625788.6000000089,,625805.017,8,400,,,
break_continue,html.Screen,4_107_2,2023-05-02T16:39:19.387Z,,0,,,NaN,,,,,,false,,,,625789.299999997,625789.299999997,,625789.200000003,,625805.017,8,400,,,
sequence,flow.Sequence,4_107,2023-05-02T16:39:19.387Z,,0,,,2884.340999996988,completion,,,,,false,,,,625789.5,625789.299999997,622888.292,622878.700000003,622904.959,625805.017,8,400,,,
trial,html.Screen,4_108_0,2023-05-02T16:39:22.197Z,,0,3,,2793.583000008948,response,ISIC_0046340.JPG,,ISIC_9876004.JPG,ISIC_0046340.JPG,false,1,keypress(m),500,628598.700000003,628598.6000000089,625788.35,625789.6000000089,625805.017,628605.568,8,400,9,,ISIC_9876004.JPG
break,html.Screen,4_108_1,2023-05-02T16:39:22.197Z,,0,,,NaN,,,,,,false,,,,628599.200000003,628599.1000000089,,628598.900000006,,628605.568,8,400,,,
break_continue,html.Screen,4_108_2,2023-05-02T16:39:22.197Z,,0,,,NaN,,,,,,false,,,,628599.5,628599.400000006,,628599.299999997,,628605.568,8,400,,,
sequence,flow.Sequence,4_108,2023-05-02T16:39:22.198Z,,0,,,2794.383000005968,completion,,,,,false,,,,628599.6000000089,628599.400000006,625788.35,625789.6000000089,625805.017,628605.568,8,400,,,
trial,html.Screen,4_109_0,2023-05-02T16:39:24.931Z,,0,3,,2727.0320000089705,response,ISIC_7947847.JPG,,ISIC_8796968.JPG,ISIC_8796968.JPG,false,0,keypress(z),500,631332.900000006,631332.6000000089,628588.901,628599.799999997,628605.568,631338.956,8,400,10,,ISIC_7947847.JPG
break,html.Screen,4_109_1,2023-05-02T16:39:24.932Z,,0,,,NaN,,,,,,false,,,,631333.6000000089,631333.299999997,,631333.1000000089,,631338.956,8,400,,,
break_continue,html.Screen,4_109_2,2023-05-02T16:39:24.932Z,,0,,,NaN,,,,,,false,,,,631334,631333.799999997,,631333.700000003,,631338.956,8,400,,,
sequence,flow.Sequence,4_109,2023-05-02T16:39:24.932Z,,0,,,2728.2319999970496,completion,,,,,false,,,,631334.1000000089,631333.799999997,628588.901,628599.700000003,628605.568,631338.956,8,400,,,
trial,html.Screen,4_110_0,2023-05-02T16:39:27.716Z,,0,3,,2778.444000005955,response,ISIC_4957216.JPG,,ISIC_8694181.JPG,ISIC_4957216.JPG,false,1,keypress(m),500,634117.700000003,634117.400000006,631322.289,631334.299999997,631338.956,634122.345,8,400,11,,ISIC_8694181.JPG
break,html.Screen,4_110_1,2023-05-02T16:39:27.716Z,,0,,,NaN,,,,,,false,,,,634118.400000006,634118.200000003,,634117.900000006,,634122.345,8,400,,,
break_continue,html.Screen,4_110_2,2023-05-02T16:39:27.717Z,,0,,,NaN,,,,,,false,,,,634118.700000003,634118.6000000089,,634118.5,,634122.345,8,400,,,
sequence,flow.Sequence,4_110,2023-05-02T16:39:27.717Z,,0,,,2779.644000008935,completion,,,,,false,,,,634118.900000006,634118.6000000089,631322.289,631334.299999997,631338.956,634122.345,8,400,,,
trial,html.Screen,4_111_0,2023-05-02T16:39:30.253Z,,0,3,,2532.355000003008,response,ISIC_2275181.JPG,,ISIC_0813342.JPG,ISIC_0813342.JPG,false,0,keypress(z),500,636654.900000006,636654.700000003,634105.678,634119.1000000089,634122.345,636655.729,8,400,12,,ISIC_2275181.JPG
break,html.Screen,4_111_1,2023-05-02T16:39:30.254Z,,0,,,NaN,,,,,,false,,,,636655.700000003,636655.400000006,,636655.200000003,,636655.729,8,400,,,
break_continue,html.Screen,4_111_2,2023-05-02T16:39:30.254Z,,0,,,NaN,,,,,,false,,,,636656.1000000089,636655.900000006,,636655.799999997,,636655.729,8,400,,,
sequence,flow.Sequence,4_111,2023-05-02T16:39:30.254Z,,0,,,2533.5550000059884,completion,,,,,false,,,,636656.299999997,636655.900000006,634105.678,634119,634122.345,636655.729,8,400,,,
trial,html.Screen,4_112_0,2023-05-02T16:39:33.301Z,,0,3,,3046.97100000293,response,ISIC_9280171.JPG,,ISIC_0028512.JPG,ISIC_0028512.JPG,false,0,keypress(z),500,639703,639702.700000003,636639.062,636656.400000006,636655.729,639706.297,8,400,13,,ISIC_9280171.JPG
break,html.Screen,4_112_1,2023-05-02T16:39:33.302Z,,0,,,NaN,,,,,,false,,,,639703.900000006,639703.6000000089,,639703.400000006,,639706.297,8,400,,,
break_continue,html.Screen,4_112_2,2023-05-02T16:39:33.302Z,,0,,,NaN,,,,,,false,,,,639704.299999997,639704.200000003,,639704.1000000089,,639706.297,8,400,,,
sequence,flow.Sequence,4_112,2023-05-02T16:39:33.303Z,,0,,,3048.47100000293,completion,,,,,false,,,,639704.5,639704.200000003,636639.062,636656.400000006,636655.729,639706.297,8,400,,,
trial,html.Screen,4_113_0,2023-05-02T16:39:36.315Z,,0,3,,3010.2029999999795,response,ISIC_0068438.JPG,,ISIC_8733345.JPG,ISIC_0068438.JPG,false,1,keypress(m),500,642716.700000003,642716.5,639689.63,639704.700000003,639706.297,642723.024,8,400,14,,ISIC_8733345.JPG
break,html.Screen,4_113_1,2023-05-02T16:39:36.316Z,,0,,,NaN,,,,,,false,,,,642717.400000006,642717.200000003,,642716.900000006,,642723.024,8,400,,,
break_continue,html.Screen,4_113_2,2023-05-02T16:39:36.316Z,,0,,,NaN,,,,,,false,,,,642717.799999997,642717.6000000089,,642717.5,,642723.024,8,400,,,
sequence,flow.Sequence,4_113,2023-05-02T16:39:36.316Z,,0,,,3011.30300000892,completion,,,,,false,,,,642718,642717.6000000089,639689.63,639704.6000000089,639706.297,642723.024,8,400,,,
trial,html.Screen,4_114_0,2023-05-02T16:39:39.363Z,,0,3,,3041.076000008965,response,ISIC_1834920.JPG,,ISIC_9126343.JPG,ISIC_9126343.JPG,false,0,keypress(z),500,645764.299999997,645764.1000000089,642706.357,642718.1000000089,642723.024,645773.085,8,400,15,,ISIC_1834920.JPG
break,html.Screen,4_114_1,2023-05-02T16:39:39.363Z,,0,,,NaN,,,,,,false,,,,645765,645764.799999997,,645764.5,,645773.085,8,400,,,
break_continue,html.Screen,4_114_2,2023-05-02T16:39:39.364Z,,0,,,NaN,,,,,,false,,,,645765.400000006,645765.299999997,,645765.200000003,,645773.085,8,400,,,
sequence,flow.Sequence,4_114,2023-05-02T16:39:39.364Z,,0,,,3042.275999997044,completion,,,,,false,,,,645765.5,645765.299999997,642706.357,642718.1000000089,642723.024,645773.085,8,400,,,
trial,html.Screen,4_115_0,2023-05-02T16:39:41.892Z,,0,3,,2520.4150000000373,response,ISIC_0000410.JPG,,ISIC_9588279.JPG,ISIC_0000410.JPG,false,1,keypress(m),500,648293.700000003,648293.5,645756.418,645765.700000003,645773.085,648306.469,8,400,16,,ISIC_9588279.JPG
break,html.Screen,4_115_1,2023-05-02T16:39:41.893Z,,0,,,NaN,,,,,,false,,,,648294.400000006,648294.200000003,,648294,,648306.469,8,400,,,
break_continue,html.Screen,4_115_2,2023-05-02T16:39:41.893Z,,0,,,NaN,,,,,,false,,,,648294.799999997,648294.6000000089,,648294.6000000089,,648306.469,8,400,,,
sequence,flow.Sequence,4_115,2023-05-02T16:39:41.893Z,,0,,,2521.515000008978,completion,,,,,false,,,,648295,648294.6000000089,645756.418,645765.700000003,645773.085,648306.469,8,400,,,
trial,html.Screen,4_116_0,2023-05-02T16:39:45.213Z,,0,3,,3308.330999996979,response,ISIC_0012040.JPG,,ISIC_0063225.JPG,ISIC_0012040.JPG,false,1,keypress(m),500,651615.1000000089,651614.799999997,648289.802,648295.200000003,648306.469,651623.675,8,400,17,,ISIC_0063225.JPG
break,html.Screen,4_116_1,2023-05-02T16:39:45.214Z,,0,,,NaN,,,,,,false,,,,651615.799999997,651615.6000000089,,651615.299999997,,651623.675,8,400,,,
break_continue,html.Screen,4_116_2,2023-05-02T16:39:45.215Z,,0,,,NaN,,,,,,false,,,,651616.200000003,651616,,651615.900000006,,651623.675,8,400,,,
sequence,flow.Sequence,4_116,2023-05-02T16:39:45.215Z,,0,,,3309.530999999959,completion,,,,,false,,,,651616.400000006,651616,648289.802,648295.200000003,648306.469,651623.675,8,400,,,
trial,html.Screen,4_117_0,2023-05-02T16:39:47.851Z,,0,3,,2628.8249999999534,response,ISIC_4086323.JPG,,ISIC_4973549.JPG,ISIC_4973549.JPG,false,0,keypress(z),500,654252.700000003,654252.5,651607.008,651616.5,651623.675,654257.061,8,400,18,,ISIC_4086323.JPG
break,html.Screen,4_117_1,2023-05-02T16:39:47.852Z,,0,,,NaN,,,,,,false,,,,654253.5,654253.299999997,,654253,,654257.061,8,400,,,
break_continue,html.Screen,4_117_2,2023-05-02T16:39:47.852Z,,0,,,NaN,,,,,,false,,,,654253.799999997,654253.700000003,,654253.700000003,,654257.061,8,400,,,
sequence,flow.Sequence,4_117,2023-05-02T16:39:47.853Z,,0,,,2630.0250000029337,completion,,,,,false,,,,654254.1000000089,654253.700000003,651607.008,651616.5,651623.675,654257.061,8,400,,,
trial,html.Screen,4_118_0,2023-05-02T16:39:51.158Z,,0,3,,3301.738999997033,response,ISIC_7620514.JPG,,ISIC_1601784.JPG,ISIC_1601784.JPG,false,0,keypress(z),500,657559,657558.799999997,654240.394,654254.299999997,654257.061,657573.794,8,400,19,,ISIC_7620514.JPG
break,html.Screen,4_118_1,2023-05-02T16:39:51.158Z,,0,,,NaN,,,,,,false,,,,657559.799999997,657559.6000000089,,657559.299999997,,657573.794,8,400,,,
break_continue,html.Screen,4_118_2,2023-05-02T16:39:51.159Z,,0,,,NaN,,,,,,false,,,,657560.1000000089,657560.1000000089,,657559.900000006,,657573.794,8,400,,,
sequence,flow.Sequence,4_118,2023-05-02T16:39:51.159Z,,0,,,3303.0390000089537,completion,,,,,false,,,,657560.400000006,657560.1000000089,654240.394,654254.200000003,654257.061,657573.794,8,400,,,
trial,html.Screen,4_119_0,2023-05-02T16:39:55.100Z,,0,3,,3927.606000005966,response,ISIC_0034207.JPG,,ISIC_0024697.JPG,ISIC_0034207.JPG,false,1,keypress(m),500,661501.700000003,661501.400000006,657557.127,657560.6000000089,657573.794,661507.733,8,400,20,,ISIC_0024697.JPG
break,html.Screen,4_119_1,2023-05-02T16:39:55.101Z,,0,,,NaN,,,,,,false,,,,661502.299999997,661502.200000003,,661501.799999997,,661507.733,8,400,,,
break_continue,html.Screen,4_119_2,2023-05-02T16:39:55.101Z,,0,,,NaN,,,,,,false,,,,661502.700000003,661502.6000000089,,661502.5,,661507.733,8,400,,,
sequence,flow.Sequence,4_119,2023-05-02T16:39:55.102Z,,0,,,3928.8060000089463,completion,,,,,false,,,,661502.900000006,661502.6000000089,657557.127,657560.5,657573.794,661507.733,8,400,,,
trial,html.Screen,4_120_0,2023-05-02T16:39:57.723Z,,0,3,,2616.2669999999925,response,ISIC_9024078.JPG,,ISIC_0000553.JPG,ISIC_0000553.JPG,false,0,keypress(z),500,664124.200000003,664124,661491.066,661503.1000000089,661507.733,664141.119,8,400,21,,ISIC_9024078.JPG
break,html.Screen,4_120_1,2023-05-02T16:39:57.724Z,,0,,,NaN,,,,,,false,,,,664125,664124.799999997,,664124.5,,664141.119,8,400,,,
break_continue,html.Screen,4_120_2,2023-05-02T16:39:57.724Z,,0,,,NaN,,,,,,false,,,,664125.5,664125.299999997,,664125.200000003,,664141.119,8,400,,,
sequence,flow.Sequence,4_120,2023-05-02T16:39:57.724Z,,0,,,2617.5669999970123,completion,,,,,false,,,,664125.6000000089,664125.299999997,661491.066,661503.1000000089,661507.733,664141.119,8,400,,,
trial,html.Screen,4_121_0,2023-05-02T16:40:00.342Z,,0,3,,2601.7810000060126,response,ISIC_0013967.JPG,,ISIC_7605678.JPG,ISIC_7605678.JPG,false,0,keypress(z),500,666743.1000000089,666742.900000006,664124.452,664125.900000006,664141.119,666757.838,8,400,22,,ISIC_0013967.JPG
break,html.Screen,4_121_1,2023-05-02T16:40:00.343Z,,0,,,NaN,,,,,,false,,,,666743.900000006,666743.700000003,,666743.400000006,,666757.838,8,400,,,
break_continue,html.Screen,4_121_2,2023-05-02T16:40:00.343Z,,0,,,NaN,,,,,,false,,,,666744.200000003,666744.1000000089,,666744,,666757.838,8,400,,,
sequence,flow.Sequence,4_121,2023-05-02T16:40:00.343Z,,0,,,2602.981000008993,completion,,,,,false,,,,666744.400000006,666744.1000000089,664124.452,664125.799999997,664141.119,666757.838,8,400,,,
trial,html.Screen,4_122_0,2023-05-02T16:40:04.996Z,,0,3,,4638.762000008952,response,ISIC_1858989.JPG,,ISIC_0026516.JPG,ISIC_1858989.JPG,false,1,keypress(m),500,671396.799999997,671396.6000000089,666741.171,666744.6000000089,666757.838,671408.489,8,400,23,,ISIC_0026516.JPG
break,html.Screen,4_122_1,2023-05-02T16:40:04.996Z,,0,,,NaN,,,,,,false,,,,671397.5,671397.400000006,,671397.1000000089,,671408.489,8,400,,,
break_continue,html.Screen,4_122_2,2023-05-02T16:40:04.997Z,,0,,,NaN,,,,,,false,,,,671397.900000006,671397.799999997,,671397.700000003,,671408.489,8,400,,,
sequence,flow.Sequence,4_122,2023-05-02T16:40:04.997Z,,0,,,4639.961999997031,completion,,,,,false,,,,671398.1000000089,671397.799999997,666741.171,666744.6000000089,666757.838,671408.489,8,400,,,
trial,html.Screen,4_123_0,2023-05-02T16:40:10.964Z,,0,3,,5956.211000003037,response,ISIC_0055675.JPG,,ISIC_0008934.JPG,ISIC_0055675.JPG,false,1,keypress(m),500,677364.900000006,677364.700000003,671391.822,671398.299999997,671408.489,677375.275,8,400,24,,ISIC_0008934.JPG
break,html.Screen,4_123_1,2023-05-02T16:40:10.965Z,,0,,,NaN,,,,,,false,,,,677365.6000000089,677365.400000006,,677365.1000000089,,677375.275,8,400,,,
break_continue,html.Screen,4_123_2,2023-05-02T16:40:10.965Z,,0,,,NaN,,,,,,false,,,,677366,677365.900000006,,677365.799999997,,677375.275,8,400,,,
sequence,flow.Sequence,4_123,2023-05-02T16:40:10.965Z,,0,,,5957.411000006017,completion,,,,,false,,,,677366.200000003,677365.900000006,671391.822,671398.200000003,671408.489,677375.275,8,400,,,
trial,html.Screen,4_124_0,2023-05-02T16:40:13.636Z,,0,3,,2661.3250000089174,response,ISIC_0032265.JPG,,ISIC_0061580.JPG,ISIC_0061580.JPG,false,0,keypress(z),500,680036.799999997,680036.6000000089,677358.608,677366.400000006,677375.275,680041.995,8,400,25,,ISIC_0032265.JPG
break,html.Screen,4_124_1,2023-05-02T16:40:13.637Z,,0,,,NaN,,,,,,false,,,,680037.5,680037.400000006,,680037.1000000089,,680041.995,8,400,,,
break_continue,html.Screen,4_124_2,2023-05-02T16:40:13.637Z,,0,,,NaN,,,,,,false,,,,680038,680037.799999997,,680037.700000003,,680041.995,8,400,,,
sequence,flow.Sequence,4_124,2023-05-02T16:40:13.637Z,,0,,,2662.5249999969965,completion,,,,,false,,,,680038.200000003,680037.799999997,677358.608,677366.299999997,677375.275,680041.995,8,400,,,
trial,html.Screen,4_125_0,2023-05-02T16:40:17.349Z,,0,3,,3707.205000002985,response,ISIC_4298624.JPG,,ISIC_0028986.JPG,ISIC_0028986.JPG,false,0,keypress(z),500,683749.5,683749.200000003,680025.328,680038.299999997,680041.995,683759.25,8,400,26,,ISIC_4298624.JPG
break,html.Screen,4_125_1,2023-05-02T16:40:17.349Z,,0,,,NaN,,,,,,false,,,,683750.200000003,683750,,683749.700000003,,683759.25,8,400,,,
break_continue,html.Screen,4_125_2,2023-05-02T16:40:17.350Z,,0,,,NaN,,,,,,false,,,,683750.6000000089,683750.400000006,,683750.299999997,,683759.25,8,400,,,
sequence,flow.Sequence,4_125,2023-05-02T16:40:17.350Z,,0,,,3708.405000005965,completion,,,,,false,,,,683750.700000003,683750.400000006,680025.328,680038.299999997,680041.995,683759.25,8,400,,,
